# Version 2.1 - nm, norm@500 to 1, cut digits, bergeron_He_7500_90.dat_7500
# Wavelength(nm)  Flambda(ergs/cm^s/s/nm)
300.00 1.167183
300.10 1.167572
300.20 1.167964
300.30 1.168351
300.40 1.168709
300.50 1.169067
300.60 1.169423
300.70 1.16978
300.80 1.170135
300.90 1.170489
301.00 1.170843
301.10 1.171196
301.20 1.171549
301.30 1.1719
301.40 1.172251
301.50 1.172602
301.60 1.172951
301.70 1.1733
301.80 1.173648
301.90 1.173995
302.00 1.174342
302.10 1.174689
302.20 1.175036
302.30 1.175382
302.40 1.175727
302.50 1.176071
302.60 1.176415
302.70 1.176758
302.80 1.1771
302.90 1.177442
303.00 1.177783
303.10 1.178123
303.20 1.178462
303.30 1.1788
303.40 1.179128
303.50 1.179455
303.60 1.179782
303.70 1.180108
303.80 1.180433
303.90 1.180757
304.00 1.181081
304.10 1.181404
304.20 1.181727
304.30 1.182048
304.40 1.182369
304.50 1.18269
304.60 1.183023
304.70 1.183356
304.80 1.183689
304.90 1.184022
305.00 1.184353
305.10 1.184684
305.20 1.185014
305.30 1.185344
305.40 1.185673
305.50 1.186001
305.60 1.186328
305.70 1.186655
305.80 1.186981
305.90 1.187306
306.00 1.187631
306.10 1.187955
306.20 1.188279
306.30 1.188601
306.40 1.188913
306.50 1.189222
306.60 1.18953
306.70 1.189837
306.80 1.190143
306.90 1.190449
307.00 1.190754
307.10 1.191059
307.20 1.191362
307.30 1.191666
307.40 1.191968
307.50 1.19227
307.60 1.192571
307.70 1.192872
307.80 1.193172
307.90 1.193471
308.00 1.19377
308.10 1.194068
308.20 1.194365
308.30 1.194662
308.40 1.194958
308.50 1.195254
308.60 1.195549
308.70 1.195843
308.80 1.196143
308.90 1.196462
309.00 1.196757
309.10 1.197052
309.20 1.197346
309.30 1.197639
309.40 1.197933
309.50 1.198231
309.60 1.198529
309.70 1.198827
309.80 1.199124
309.90 1.19942
310.00 1.199715
310.10 1.20001
310.20 1.200305
310.30 1.200598
310.40 1.200884
310.50 1.20116
310.60 1.201436
310.70 1.201711
310.80 1.201986
310.90 1.20226
311.00 1.202536
311.10 1.202812
311.20 1.203087
311.30 1.203361
311.40 1.203635
311.50 1.203909
311.60 1.204182
311.70 1.204454
311.80 1.204725
311.90 1.204996
312.00 1.205267
312.10 1.205537
312.20 1.205822
312.30 1.206073
312.40 1.206298
312.50 1.206632
312.60 1.206904
312.70 1.207176
312.80 1.207447
312.90 1.207709
313.00 1.207961
313.10 1.208213
313.20 1.208464
313.30 1.208721
313.40 1.208993
313.50 1.209266
313.60 1.209537
313.70 1.209808
313.80 1.210079
313.90 1.210348
314.00 1.210618
314.10 1.210879
314.20 1.21114
314.30 1.211401
314.40 1.21166
314.50 1.21192
314.60 1.212178
314.70 1.212436
314.80 1.212672
314.90 1.21287
315.00 1.213094
315.10 1.213354
315.20 1.213612
315.30 1.21387
315.40 1.214128
315.50 1.214385
315.60 1.214641
315.70 1.214897
315.80 1.215153
315.90 1.215407
316.00 1.215661
316.10 1.215915
316.20 1.216168
316.30 1.216348
316.40 1.2166
316.50 1.216851
316.60 1.217029
316.70 1.217279
316.80 1.217529
316.90 1.217778
317.00 1.218027
317.10 1.218275
317.20 1.218522
317.30 1.218754
317.40 1.218991
317.50 1.219243
317.60 1.219495
317.70 1.219746
317.80 1.219996
317.90 1.220179
318.00 1.220448
318.10 1.220654
318.20 1.22086
318.30 1.221066
318.40 1.22128
318.50 1.221521
318.60 1.221779
318.70 1.221947
318.80 1.222265
318.90 1.222424
319.00 1.222715
319.10 1.222952
319.20 1.223184
319.30 1.223403
319.40 1.223621
319.50 1.223839
319.60 1.223983
319.70 1.2242
319.80 1.224416
319.90 1.224632
320.00 1.224855
320.10 1.225087
320.20 1.225381
320.30 1.225513
320.40 1.225729
320.50 1.225974
320.60 1.226206
320.70 1.226364
320.80 1.226555
320.90 1.226783
321.00 1.227011
321.10 1.227238
321.20 1.227385
321.30 1.227599
321.40 1.227813
321.50 1.228027
321.60 1.22824
321.70 1.228453
321.80 1.228654
321.90 1.228843
322.00 1.229143
322.10 1.229343
322.20 1.229542
322.30 1.22974
322.40 1.229938
322.50 1.230136
322.60 1.230333
322.70 1.230529
322.80 1.230658
322.90 1.230865
323.00 1.231072
323.10 1.231279
323.20 1.231485
323.30 1.231691
323.40 1.231896
323.50 1.232101
323.60 1.232305
323.70 1.232509
323.80 1.232712
323.90 1.232915
324.00 1.233084
324.10 1.233252
324.20 1.233419
324.30 1.233623
324.40 1.233866
324.50 1.23404
324.60 1.234214
324.70 1.234387
324.80 1.23456
324.90 1.234732
325.00 1.234904
325.10 1.235075
325.20 1.235256
325.30 1.235458
325.40 1.235659
325.50 1.23585
325.60 1.236027
325.70 1.236204
325.80 1.236381
325.90 1.236562
326.00 1.236747
326.10 1.236932
326.20 1.237116
326.30 1.237282
326.40 1.237394
326.50 1.237569
326.60 1.237745
326.70 1.23792
326.80 1.238094
326.90 1.238268
327.00 1.238442
327.10 1.238615
327.20 1.238787
327.30 1.238959
327.40 1.239131
327.50 1.239303
327.60 1.239473
327.70 1.239644
327.80 1.239814
327.90 1.239982
328.00 1.240154
328.10 1.240334
328.20 1.240513
328.30 1.240691
328.40 1.240869
328.50 1.241032
328.60 1.24119
328.70 1.241349
328.80 1.241507
328.90 1.241666
329.00 1.241825
329.10 1.241983
329.20 1.242141
329.30 1.242299
329.40 1.242456
329.50 1.242613
329.60 1.242769
329.70 1.242925
329.80 1.243081
329.90 1.243236
330.00 1.243392
330.10 1.24355
330.20 1.243707
330.30 1.243864
330.40 1.244015
330.50 1.244159
330.60 1.244302
330.70 1.244445
330.80 1.244588
330.90 1.24473
331.00 1.244872
331.10 1.245014
331.20 1.245155
331.30 1.245295
331.40 1.245436
331.50 1.245583
331.60 1.245738
331.70 1.245893
331.80 1.246035
331.90 1.246177
332.00 1.246319
332.10 1.24646
332.20 1.2466
332.30 1.24674
332.40 1.24688
332.50 1.24702
332.60 1.247159
332.70 1.247298
332.80 1.247436
332.90 1.247574
333.00 1.247711
333.10 1.247846
333.20 1.247978
333.30 1.24811
333.40 1.248241
333.50 1.248372
333.60 1.248503
333.70 1.248633
333.80 1.248762
333.90 1.248892
334.00 1.249021
334.10 1.249147
334.20 1.249271
334.30 1.249395
334.40 1.249518
334.50 1.249641
334.60 1.249763
334.70 1.249889
334.80 1.250006
334.90 1.250104
335.00 1.250202
335.10 1.250302
335.20 1.250466
335.30 1.250528
335.40 1.250675
335.50 1.250837
335.60 1.25095
335.70 1.251018
335.80 1.251179
335.90 1.251311
336.00 1.251407
336.10 1.251502
336.20 1.251597
336.30 1.251701
336.40 1.251817
336.50 1.251933
336.60 1.252048
336.70 1.252163
336.80 1.252277
336.90 1.252392
337.00 1.252508
337.10 1.252624
337.20 1.252739
337.30 1.252855
337.40 1.252973
337.50 1.253091
337.60 1.253208
337.70 1.253325
337.80 1.253442
337.90 1.253551
338.00 1.253651
338.10 1.253751
338.20 1.253851
338.30 1.25395
338.40 1.254047
338.50 1.254138
338.60 1.254229
338.70 1.25432
338.80 1.25441
338.90 1.2545
339.00 1.254589
339.10 1.254679
339.20 1.254768
339.30 1.254862
339.40 1.254963
339.50 1.255062
339.60 1.255157
339.70 1.255253
339.80 1.255348
339.90 1.255442
340.00 1.255537
340.10 1.255631
340.20 1.255725
340.30 1.255818
340.40 1.255911
340.50 1.256004
340.60 1.256096
340.70 1.256188
340.80 1.256387
340.90 1.25674
341.00 1.256955
341.10 1.257002
341.20 1.257049
341.30 1.257096
341.40 1.257142
341.50 1.257188
341.60 1.257234
341.70 1.25728
341.80 1.257371
341.90 1.257517
342.00 1.257662
342.10 1.257808
342.20 1.257777
342.30 1.257759
342.40 1.257895
342.50 1.257996
342.60 1.258096
342.70 1.258196
342.80 1.258296
342.90 1.258396
343.00 1.258396
343.10 1.258277
343.20 1.258157
343.30 1.258037
343.40 1.258005
343.50 1.258097
343.60 1.258189
343.70 1.258281
343.80 1.258372
343.90 1.258464
344.00 1.258596
344.10 1.25879
344.20 1.258982
344.30 1.259175
344.40 1.259241
344.50 1.259125
344.60 1.258787
344.70 1.259255
344.80 1.259752
344.90 1.259666
345.00 1.25977
345.10 1.259653
345.20 1.259624
345.30 1.259722
345.40 1.259819
345.50 1.260073
345.60 1.260372
345.70 1.260457
345.80 1.260542
345.90 1.260626
346.00 1.260711
346.10 1.260795
346.20 1.260845
346.30 1.260847
346.40 1.260849
346.50 1.260851
346.60 1.260853
346.70 1.260854
346.80 1.260856
346.90 1.260856
347.00 1.260857
347.10 1.260858
347.20 1.260865
347.30 1.260883
347.40 1.2609
347.50 1.260917
347.60 1.260934
347.70 1.26095
347.80 1.260967
347.90 1.260983
348.00 1.260999
348.10 1.261014
348.20 1.26103
348.30 1.261045
348.40 1.26106
348.50 1.261075
348.60 1.261089
348.70 1.261219
348.80 1.261348
348.90 1.261425
349.00 1.261501
349.10 1.261577
349.20 1.261652
349.30 1.261728
349.40 1.261803
349.50 1.261878
349.60 1.261952
349.70 1.262026
349.80 1.2621
349.90 1.262174
350.00 1.262247
350.10 1.26232
350.20 1.262392
350.30 1.262449
350.40 1.262481
350.50 1.262514
350.60 1.262546
350.70 1.262578
350.80 1.26261
350.90 1.262641
351.00 1.262672
351.10 1.262703
351.20 1.262734
351.30 1.262765
351.40 1.26281
351.50 1.262884
351.60 1.262957
351.70 1.26303
351.80 1.263103
351.90 1.263175
352.00 1.263247
352.10 1.263319
352.20 1.263391
352.30 1.26343
352.40 1.263422
352.50 1.263414
352.60 1.263405
352.70 1.263396
352.80 1.263387
352.90 1.263378
353.00 1.263369
353.10 1.263359
353.20 1.263349
353.30 1.263339
353.40 1.263329
353.50 1.263387
353.60 1.263461
353.70 1.263535
353.80 1.263609
353.90 1.263633
354.00 1.26357
354.10 1.263507
354.20 1.263444
354.30 1.26338
354.40 1.263317
354.50 1.263253
354.60 1.263189
354.70 1.263125
354.80 1.263119
354.90 1.263195
355.00 1.263272
355.10 1.263348
355.20 1.263424
355.30 1.263518
355.40 1.263611
355.50 1.263704
355.60 1.263797
355.70 1.263677
355.80 1.263462
355.90 1.263809
356.00 1.264085
356.10 1.264093
356.20 1.2641
356.30 1.264107
356.40 1.264114
356.50 1.264121
356.60 1.264128
356.70 1.264134
356.80 1.26414
356.90 1.264146
357.00 1.264152
357.10 1.264157
357.20 1.264163
357.30 1.264168
357.40 1.264161
357.50 1.264134
357.60 1.264107
357.70 1.264079
357.80 1.263891
357.90 1.263703
358.00 1.263624
358.10 1.263572
358.20 1.263521
358.30 1.263469
358.40 1.263417
358.50 1.263365
358.60 1.263313
358.70 1.263261
358.80 1.263209
358.90 1.263156
359.00 1.263235
359.10 1.263546
359.20 1.263789
359.30 1.263571
359.40 1.263353
359.50 1.263392
359.60 1.263496
359.70 1.2636
359.80 1.263752
359.90 1.263903
360.00 1.263974
360.10 1.263901
360.20 1.263827
360.30 1.263754
360.40 1.263681
360.50 1.263607
360.60 1.263216
360.70 1.263357
360.80 1.263498
360.90 1.263638
361.00 1.263476
361.10 1.263398
361.20 1.263196
361.30 1.263615
361.40 1.262916
361.50 1.263334
361.60 1.263038
361.70 1.263455
361.80 1.263627
361.90 1.263364
362.00 1.263102
362.10 1.26311
362.20 1.26317
362.30 1.263205
362.40 1.263239
362.50 1.263273
362.60 1.263307
362.70 1.263373
362.80 1.263169
362.90 1.263024
363.00 1.26288
363.10 1.263191
363.20 1.263506
363.30 1.263012
363.40 1.263423
363.50 1.262728
363.60 1.263137
363.70 1.263056
363.80 1.262852
363.90 1.262945
364.00 1.263038
364.10 1.263131
364.20 1.263224
364.30 1.263176
364.40 1.263094
364.50 1.262408
364.60 1.262445
364.70 1.262482
364.80 1.262519
364.90 1.262375
365.00 1.262232
365.10 1.262635
365.20 1.262491
365.30 1.262347
365.40 1.26275
365.50 1.262605
365.60 1.26246
365.70 1.262266
365.80 1.262072
365.90 1.261966
366.00 1.261882
366.10 1.261995
366.20 1.262109
366.30 1.262222
366.40 1.262334
366.50 1.261701
366.60 1.262099
366.70 1.261822
366.80 1.261545
366.90 1.261401
367.00 1.261494
367.10 1.261586
367.20 1.261678
367.30 1.261769
367.40 1.26186
367.50 1.26181
367.60 1.261723
367.70 1.261605
367.80 1.261487
367.90 1.261369
368.00 1.261138
368.10 1.261517
368.20 1.261404
368.30 1.261283
368.40 1.261162
368.50 1.261041
368.60 1.26092
368.70 1.260799
368.80 1.260678
368.90 1.261045
369.00 1.261218
369.10 1.261127
369.20 1.260449
369.30 1.26048
369.40 1.260511
369.50 1.260542
369.60 1.260391
369.70 1.260241
369.80 1.260422
369.90 1.260605
370.00 1.260788
370.10 1.260721
370.20 1.260567
370.30 1.260418
370.40 1.260249
370.50 1.260127
370.60 1.26051
370.70 1.25983
370.80 1.259678
370.90 1.259527
371.00 1.259909
371.10 1.260295
371.20 1.260143
371.30 1.259991
371.40 1.259531
371.50 1.259444
371.60 1.259357
371.70 1.259269
371.80 1.259182
371.90 1.259095
372.00 1.259479
372.10 1.258802
372.20 1.258828
372.30 1.258854
372.40 1.258879
372.50 1.258905
372.60 1.25893
372.70 1.258955
372.80 1.258803
372.90 1.25865
373.00 1.258502
373.10 1.258355
373.20 1.258204
373.30 1.258054
373.40 1.258427
373.50 1.258277
373.60 1.258126
373.70 1.258498
373.80 1.258054
373.90 1.258196
374.00 1.258045
374.10 1.257894
374.20 1.257744
374.30 1.257593
374.40 1.257572
374.50 1.25729
374.60 1.257394
374.70 1.257504
374.80 1.257615
374.90 1.257725
375.00 1.2574
375.10 1.257075
375.20 1.256751
375.30 1.256674
375.40 1.256596
375.50 1.256519
375.60 1.256441
375.70 1.256363
375.80 1.256285
375.90 1.256207
376.00 1.256561
376.10 1.256571
376.20 1.256577
376.30 1.256583
376.40 1.256589
376.50 1.256468
376.60 1.256155
376.70 1.255843
376.80 1.255713
376.90 1.255766
377.00 1.255818
377.10 1.25587
377.20 1.255905
377.30 1.255878
377.40 1.255851
377.50 1.255824
377.60 1.255604
377.70 1.255384
377.80 1.255165
377.90 1.254945
378.00 1.254547
378.10 1.254469
378.20 1.254396
378.30 1.254323
378.40 1.25425
378.50 1.254177
378.60 1.254104
378.70 1.254031
378.80 1.253958
378.90 1.253942
379.00 1.254033
379.10 1.254184
379.20 1.254335
379.30 1.254243
379.40 1.253909
379.50 1.253576
379.60 1.253452
379.70 1.253593
379.80 1.253549
379.90 1.253504
380.00 1.253459
380.10 1.253414
380.20 1.253369
380.30 1.253324
380.40 1.253279
380.50 1.253234
380.60 1.252764
380.70 1.252564
380.80 1.252364
380.90 1.252164
381.00 1.251964
381.10 1.251935
381.20 1.252101
381.30 1.252002
381.40 1.251706
381.50 1.252079
381.60 1.252039
381.70 1.251643
381.80 1.25173
381.90 1.251574
382.00 1.251419
382.10 1.251264
382.20 1.251309
382.30 1.251154
382.40 1.251072
382.50 1.251099
382.60 1.251126
382.70 1.250832
382.80 1.250527
382.90 1.25057
383.00 1.250613
383.10 1.250656
383.20 1.250668
383.30 1.250564
383.40 1.250241
383.50 1.249589
383.60 1.249977
383.70 1.249848
383.80 1.249719
383.90 1.24959
384.00 1.249461
384.10 1.249332
384.20 1.249203
384.30 1.249074
384.40 1.248915
384.50 1.248725
384.60 1.248536
384.70 1.248347
384.80 1.248302
384.90 1.248546
385.00 1.24832
385.10 1.248086
385.20 1.247673
385.30 1.247524
385.40 1.24747
385.50 1.24751
385.60 1.24755
385.70 1.247589
385.80 1.247604
385.90 1.247531
386.00 1.247519
386.10 1.247539
386.20 1.247271
386.30 1.247003
386.40 1.246785
386.50 1.246878
386.60 1.246233
386.70 1.246565
386.80 1.246164
386.90 1.246252
387.00 1.246119
387.10 1.245938
387.20 1.246
387.30 1.245625
387.40 1.245955
387.50 1.245312
387.60 1.245743
387.70 1.245586
387.80 1.245429
387.90 1.245272
388.00 1.245013
388.10 1.244519
388.20 1.244853
388.30 1.244519
388.40 1.244186
388.50 1.244042
388.60 1.244071
388.70 1.244305
388.80 1.243757
388.90 1.244023
389.00 1.243443
389.10 1.243769
389.20 1.243548
389.30 1.243627
389.40 1.243482
389.50 1.24314
389.60 1.242736
389.70 1.242997
389.80 1.242849
389.90 1.242702
390.00 1.242554
390.10 1.242407
390.20 1.242259
390.30 1.242154
390.40 1.242095
390.50 1.242037
390.60 1.241979
390.70 1.24192
390.80 1.241843
390.90 1.241748
391.00 1.241383
391.10 1.241212
391.20 1.240943
391.30 1.240608
391.40 1.240609
391.50 1.24061
391.60 1.240611
391.70 1.240612
391.80 1.240613
391.90 1.240316
392.00 1.239848
392.10 1.239626
392.20 1.239513
392.30 1.239685
392.40 1.239104
392.50 1.239369
392.60 1.239377
392.70 1.239054
392.80 1.239062
392.90 1.238914
393.00 1.238787
393.10 1.238744
393.20 1.23878
393.30 1.238622
393.40 1.238421
393.50 1.237792
393.60 1.238105
393.70 1.237476
393.80 1.237831
393.90 1.237673
394.00 1.237473
394.10 1.237069
394.20 1.236919
394.30 1.236938
394.40 1.236841
394.50 1.236214
394.60 1.236111
394.70 1.236079
394.80 1.236312
394.90 1.236519
395.00 1.235893
395.10 1.235924
395.20 1.235821
395.30 1.2355
395.40 1.235179
395.50 1.235191
395.60 1.235325
395.70 1.235333
395.80 1.235002
395.90 1.234671
396.00 1.234416
396.10 1.234746
396.20 1.234588
396.30 1.234304
396.40 1.233844
396.50 1.233988
396.60 1.233528
396.70 1.233672
396.80 1.233427
396.90 1.233355
397.00 1.232734
397.10 1.232885
397.20 1.232625
397.30 1.23288
397.40 1.232841
397.50 1.232801
397.60 1.232739
397.70 1.232447
397.80 1.232154
397.90 1.231863
398.00 1.231573
398.10 1.231283
398.20 1.231194
398.30 1.23133
398.40 1.231443
398.50 1.230825
398.60 1.230929
398.70 1.230808
398.80 1.230566
398.90 1.23043
399.00 1.230493
399.10 1.229914
399.20 1.229718
399.30 1.229522
399.40 1.229326
399.50 1.229131
399.60 1.229055
399.70 1.229023
399.80 1.228991
399.90 1.228959
400.00 1.22891
400.10 1.228295
400.20 1.228593
400.30 1.228267
400.40 1.228014
400.50 1.227663
400.60 1.227382
400.70 1.227224
400.80 1.227643
400.90 1.227179
401.00 1.227327
401.10 1.226715
401.20 1.226815
401.30 1.226399
401.40 1.226278
401.50 1.226338
401.60 1.226398
401.70 1.226484
401.80 1.226061
401.90 1.225924
402.00 1.225745
402.10 1.225135
402.20 1.225428
402.30 1.224819
402.40 1.225112
402.50 1.224503
402.60 1.224796
402.70 1.224188
402.80 1.22448
402.90 1.224231
403.00 1.224073
403.10 1.223556
403.20 1.223868
403.30 1.223951
403.40 1.223531
403.50 1.223344
403.60 1.223215
403.70 1.222609
403.80 1.222914
403.90 1.222817
404.00 1.222582
404.10 1.221977
404.20 1.221819
404.30 1.221662
404.40 1.22195
404.50 1.221792
404.60 1.221634
404.70 1.22103
404.80 1.221318
404.90 1.220715
405.00 1.220811
405.10 1.220653
405.20 1.220369
405.30 1.220084
405.40 1.219926
405.50 1.219768
405.60 1.219611
405.70 1.219453
405.80 1.219295
405.90 1.219137
406.00 1.219071
406.10 1.219005
406.20 1.218939
406.30 1.218873
406.40 1.218791
406.50 1.218414
406.60 1.218475
406.70 1.218152
406.80 1.217898
406.90 1.217574
407.00 1.217416
407.10 1.217259
407.20 1.217101
407.30 1.216943
407.40 1.216786
407.50 1.216628
407.60 1.216471
407.70 1.216313
407.80 1.216156
407.90 1.215999
408.00 1.215882
408.10 1.21567
408.20 1.215302
408.30 1.214992
408.40 1.214683
408.50 1.21504
408.60 1.214748
408.70 1.214456
408.80 1.214241
408.90 1.21449
409.00 1.214231
409.10 1.213973
409.20 1.213714
409.30 1.213455
409.40 1.213206
409.50 1.213228
409.60 1.213251
409.70 1.21323
409.80 1.213039
409.90 1.212836
410.00 1.212244
410.10 1.212376
410.20 1.212201
410.30 1.211949
410.40 1.211684
410.50 1.211379
410.60 1.211073
410.70 1.210781
410.80 1.210542
410.90 1.210303
411.00 1.210166
411.10 1.210067
411.20 1.209967
411.30 1.209918
411.40 1.210054
411.50 1.20977
411.60 1.209487
411.70 1.209229
411.80 1.209072
411.90 1.20883
412.00 1.209103
412.10 1.208516
412.20 1.20793
412.30 1.208203
412.40 1.207648
412.50 1.207889
412.60 1.207304
412.70 1.207252
412.80 1.207334
412.90 1.207262
413.00 1.2068
413.10 1.206725
413.20 1.20665
413.30 1.206575
413.40 1.2065
413.50 1.206323
413.60 1.205842
413.70 1.205685
413.80 1.205529
413.90 1.205372
414.00 1.205216
414.10 1.20506
414.20 1.204801
414.30 1.20422
414.40 1.204319
414.50 1.203907
414.60 1.204278
414.70 1.204122
414.80 1.203914
414.90 1.203546
415.00 1.203178
415.10 1.20281
415.20 1.202518
415.30 1.202467
415.40 1.202415
415.50 1.202356
415.60 1.202081
415.70 1.201805
415.80 1.20159
415.90 1.201568
416.00 1.201545
416.10 1.201452
416.20 1.201077
416.30 1.200702
416.40 1.200327
416.50 1.199959
416.60 1.199804
416.70 1.199699
416.80 1.1999
416.90 1.199776
417.00 1.199589
417.10 1.199026
417.20 1.198871
417.30 1.198712
417.40 1.198434
417.50 1.198156
417.60 1.197961
417.70 1.198094
417.80 1.197939
417.90 1.197783
418.00 1.197628
418.10 1.197473
418.20 1.197318
418.30 1.19715
418.40 1.196665
418.50 1.196455
418.60 1.196245
418.70 1.196035
418.80 1.195826
418.90 1.195616
419.00 1.195406
419.10 1.195197
419.20 1.194988
419.30 1.194785
419.40 1.194802
419.50 1.194819
419.60 1.194774
419.70 1.194485
419.80 1.194195
419.90 1.193917
420.00 1.193673
420.10 1.193429
420.20 1.193185
420.30 1.192941
420.40 1.192697
420.50 1.192453
420.60 1.192209
420.70 1.191966
420.80 1.191722
420.90 1.191487
421.00 1.191513
421.10 1.19154
421.20 1.191506
421.30 1.191292
421.40 1.191079
421.50 1.190865
421.60 1.190652
421.70 1.190439
421.80 1.190225
421.90 1.190024
422.00 1.189862
422.10 1.189672
422.20 1.189366
422.30 1.189061
422.40 1.18876
422.50 1.188569
422.60 1.188379
422.70 1.188188
422.80 1.187997
422.90 1.187807
423.00 1.187616
423.10 1.187426
423.20 1.187235
423.30 1.187045
423.40 1.186854
423.50 1.186664
423.60 1.186474
423.70 1.186284
423.80 1.186094
423.90 1.185903
424.00 1.185713
424.10 1.185523
424.20 1.185333
424.30 1.185144
424.40 1.184875
424.50 1.184644
424.60 1.184413
424.70 1.184183
424.80 1.183952
424.90 1.183721
425.00 1.183491
425.10 1.183261
425.20 1.18303
425.30 1.1828
425.40 1.182576
425.50 1.182394
425.60 1.182212
425.70 1.18203
425.80 1.181848
425.90 1.181667
426.00 1.181485
426.10 1.181303
426.20 1.181121
426.30 1.18094
426.40 1.180758
426.50 1.180576
426.60 1.180395
426.70 1.180213
426.80 1.180032
426.90 1.179849
427.00 1.179634
427.10 1.17942
427.20 1.179205
427.30 1.178991
427.40 1.178776
427.50 1.178562
427.60 1.178347
427.70 1.178133
427.80 1.177919
427.90 1.177705
428.00 1.177491
428.10 1.177277
428.20 1.177063
428.30 1.176849
428.40 1.176635
428.50 1.176422
428.60 1.176208
428.70 1.175995
428.80 1.17578
428.90 1.175549
429.00 1.175318
429.10 1.175088
429.20 1.174857
429.30 1.174627
429.40 1.174396
429.50 1.174166
429.60 1.173936
429.70 1.173706
429.80 1.173476
429.90 1.173246
430.00 1.173016
430.10 1.172786
430.20 1.172557
430.30 1.172327
430.40 1.172098
430.50 1.171868
430.60 1.171639
430.70 1.17141
430.80 1.17118
430.90 1.170951
431.00 1.170722
431.10 1.170493
431.20 1.170265
431.30 1.170039
431.40 1.169849
431.50 1.16966
431.60 1.169471
431.70 1.169281
431.80 1.169092
431.90 1.168903
432.00 1.168714
432.10 1.168525
432.20 1.168336
432.30 1.168147
432.40 1.167958
432.50 1.167769
432.60 1.16758
432.70 1.167391
432.80 1.167203
432.90 1.167014
433.00 1.166825
433.10 1.166637
433.20 1.166448
433.30 1.166247
433.40 1.165877
433.50 1.165508
433.60 1.165138
433.70 1.164769
433.80 1.164515
433.90 1.164402
434.00 1.164251
434.10 1.164077
434.20 1.163903
434.30 1.163729
434.40 1.163556
434.50 1.163382
434.60 1.163208
434.70 1.163034
434.80 1.162858
434.90 1.16264
435.00 1.162422
435.10 1.162204
435.20 1.161986
435.30 1.161768
435.40 1.161551
435.50 1.161333
435.60 1.161116
435.70 1.160899
435.80 1.160681
435.90 1.160464
436.00 1.160247
436.10 1.16003
436.20 1.159813
436.30 1.159454
436.40 1.158944
436.50 1.158718
436.60 1.158491
436.70 1.158265
436.80 1.158039
436.90 1.157813
437.00 1.157587
437.10 1.157361
437.20 1.157139
437.30 1.156921
437.40 1.156709
437.50 1.156561
437.60 1.156414
437.70 1.156267
437.80 1.156119
437.90 1.155972
438.00 1.155818
438.10 1.155581
438.20 1.155344
438.30 1.154976
438.40 1.154476
438.50 1.154329
438.60 1.154155
438.70 1.153629
438.80 1.153862
438.90 1.153336
439.00 1.152837
439.10 1.152691
439.20 1.152544
439.30 1.152398
439.40 1.152251
439.50 1.152105
439.60 1.151932
439.70 1.151408
439.80 1.15104
439.90 1.150861
440.00 1.150682
440.10 1.150503
440.20 1.150322
440.30 1.1501
440.40 1.149879
440.50 1.149658
440.60 1.149437
440.70 1.149216
440.80 1.148995
440.90 1.148774
441.00 1.148554
441.10 1.148333
441.20 1.148124
441.30 1.148066
441.40 1.147916
441.50 1.147651
441.60 1.147387
441.70 1.14699
441.80 1.146813
441.90 1.146637
442.00 1.14646
442.10 1.146284
442.20 1.146107
442.30 1.145931
442.40 1.145711
442.50 1.145437
442.60 1.145164
442.70 1.144793
442.80 1.144309
442.90 1.144251
443.00 1.144161
443.10 1.14403
443.20 1.143698
443.30 1.143182
443.40 1.142834
443.50 1.14269
443.60 1.142378
443.70 1.142605
443.80 1.14209
443.90 1.142039
444.00 1.141802
444.10 1.141288
444.20 1.141514
444.30 1.14102
444.40 1.140788
444.50 1.140557
444.60 1.140371
444.70 1.140241
444.80 1.140006
444.90 1.139675
445.00 1.139344
445.10 1.139013
445.20 1.138713
445.30 1.13845
445.40 1.138187
445.50 1.137924
445.60 1.137661
445.70 1.137398
445.80 1.137195
445.90 1.137045
446.00 1.136896
446.10 1.136747
446.20 1.136436
446.30 1.13602
446.40 1.136245
446.50 1.13592
446.60 1.135594
446.70 1.135268
446.80 1.135038
446.90 1.134896
447.00 1.134563
447.10 1.13464
447.20 1.134279
447.30 1.133772
447.40 1.133454
447.50 1.133312
447.60 1.13323
447.70 1.133203
447.80 1.132867
447.90 1.132738
448.00 1.132539
448.10 1.132276
448.20 1.132013
448.30 1.13175
448.40 1.131488
448.50 1.131225
448.60 1.130991
448.70 1.130783
448.80 1.130565
448.90 1.130218
449.00 1.129871
449.10 1.129525
449.20 1.129179
449.30 1.129485
449.40 1.129274
449.50 1.129063
449.60 1.1288
449.70 1.12849
449.80 1.12818
449.90 1.127871
450.00 1.127561
450.10 1.127252
450.20 1.126943
450.30 1.126634
450.40 1.126373
450.50 1.126113
450.60 1.125853
450.70 1.125593
450.80 1.125333
450.90 1.125073
451.00 1.124864
451.10 1.124654
451.20 1.124643
451.30 1.124513
451.40 1.124373
451.50 1.124233
451.60 1.123736
451.70 1.123238
451.80 1.123456
451.90 1.122959
452.00 1.122819
452.10 1.12268
452.20 1.122362
452.30 1.122044
452.40 1.121726
452.50 1.121409
452.60 1.121395
452.70 1.121212
452.80 1.120875
452.90 1.120537
453.00 1.1202
453.10 1.119863
453.20 1.119694
453.30 1.119525
453.40 1.119357
453.50 1.119188
453.60 1.11902
453.70 1.118851
453.80 1.118629
453.90 1.118342
454.00 1.118055
454.10 1.117767
454.20 1.117534
454.30 1.1173
454.40 1.117066
454.50 1.116832
454.60 1.116599
454.70 1.116336
454.80 1.116047
454.90 1.115757
455.00 1.115468
455.10 1.115179
455.20 1.11489
455.30 1.114601
455.40 1.114312
455.50 1.114023
455.60 1.113735
455.70 1.113447
455.80 1.113335
455.90 1.113223
456.00 1.113111
456.10 1.112951
456.20 1.112659
456.30 1.112367
456.40 1.112075
456.50 1.111783
456.60 1.111492
456.70 1.1112
456.80 1.110909
456.90 1.110618
457.00 1.110327
457.10 1.110036
457.20 1.110343
457.30 1.110101
457.40 1.10986
457.50 1.109619
457.60 1.109378
457.70 1.109137
457.80 1.108896
457.90 1.108656
458.00 1.108415
458.10 1.108174
458.20 1.107934
458.30 1.107694
458.40 1.107454
458.50 1.107214
458.60 1.106974
458.70 1.106648
458.80 1.106287
458.90 1.105926
459.00 1.105566
459.10 1.105205
459.20 1.104845
459.30 1.104606
459.40 1.104366
459.50 1.104127
459.60 1.103887
459.70 1.103648
459.80 1.103409
459.90 1.10317
460.00 1.102931
460.10 1.102692
460.20 1.102454
460.30 1.102215
460.40 1.101977
460.50 1.101738
460.60 1.1015
460.70 1.101287
460.80 1.101086
460.90 1.100886
461.00 1.100685
461.10 1.100484
461.20 1.100343
461.30 1.100225
461.40 1.099964
461.50 1.099668
461.60 1.099372
461.70 1.099076
461.80 1.098839
461.90 1.098603
462.00 1.098367
462.10 1.098131
462.20 1.097894
462.30 1.097659
462.40 1.097423
462.50 1.097187
462.60 1.096951
462.70 1.096716
462.80 1.09648
462.90 1.096245
463.00 1.09601
463.10 1.095775
463.20 1.09551
463.30 1.095234
463.40 1.094959
463.50 1.094683
463.60 1.094407
463.70 1.094132
463.80 1.093856
463.90 1.093558
464.00 1.093254
464.10 1.092951
464.20 1.092648
464.30 1.092344
464.40 1.092041
464.50 1.091738
464.60 1.091436
464.70 1.091172
464.80 1.090923
464.90 1.090675
465.00 1.090427
465.10 1.090179
465.20 1.089931
465.30 1.089691
465.40 1.089455
465.50 1.089219
465.60 1.088983
465.70 1.088748
465.80 1.088512
465.90 1.088355
466.00 1.088216
466.10 1.088078
466.20 1.08794
466.30 1.087711
466.40 1.087446
466.50 1.087181
466.60 1.086916
466.70 1.086652
466.80 1.086387
466.90 1.086123
467.00 1.085858
467.10 1.085594
467.20 1.08533
467.30 1.084924
467.40 1.08467
467.50 1.084468
467.60 1.084267
467.70 1.084065
467.80 1.083864
467.90 1.083595
468.00 1.083299
468.10 1.083002
468.20 1.082706
468.30 1.082529
468.40 1.082399
468.50 1.082033
468.60 1.081572
468.70 1.08111
468.80 1.081313
468.90 1.080852
469.00 1.080391
469.10 1.080166
469.20 1.080037
469.30 1.079908
469.40 1.07978
469.50 1.079517
469.60 1.079201
469.70 1.078884
469.80 1.078568
469.90 1.07824
470.00 1.077781
470.10 1.077514
470.20 1.077324
470.30 1.077135
470.40 1.076946
470.50 1.076757
470.60 1.076485
470.70 1.076192
470.80 1.0759
470.90 1.075607
471.00 1.075666
471.10 1.075385
471.20 1.074928
471.30 1.074637
471.40 1.074673
471.50 1.074218
471.60 1.074025
471.70 1.073897
471.80 1.073639
471.90 1.073348
472.00 1.073057
472.10 1.072766
472.20 1.072447
472.30 1.072122
472.40 1.071796
472.50 1.071471
472.60 1.071146
472.70 1.07124
472.80 1.071087
472.90 1.07083
473.00 1.070573
473.10 1.070316
473.20 1.070059
473.30 1.069803
473.40 1.069546
473.50 1.06929
473.60 1.069034
473.70 1.068777
473.80 1.068492
473.90 1.068201
474.00 1.067909
474.10 1.067617
474.20 1.067313
474.30 1.067003
474.40 1.066694
474.50 1.066384
474.60 1.066079
474.70 1.065807
474.80 1.065536
474.90 1.065265
475.00 1.064994
475.10 1.064723
475.20 1.064452
475.30 1.064182
475.40 1.063961
475.50 1.063753
475.60 1.063545
475.70 1.063337
475.80 1.063129
475.90 1.062922
476.00 1.062714
476.10 1.062507
476.20 1.062262
476.30 1.062002
476.40 1.061742
476.50 1.061483
476.60 1.061224
476.70 1.060964
476.80 1.060705
476.90 1.060439
477.00 1.060172
477.10 1.059905
477.20 1.059638
477.30 1.059371
477.40 1.059104
477.50 1.058838
477.60 1.058571
477.70 1.058305
477.80 1.058039
477.90 1.057773
478.00 1.057507
478.10 1.057241
478.20 1.056975
478.30 1.05671
478.40 1.056444
478.50 1.056179
478.60 1.055914
478.70 1.05576
478.80 1.055653
478.90 1.055377
479.00 1.05506
479.10 1.054742
479.20 1.054425
479.30 1.054108
479.40 1.053827
479.50 1.053568
479.60 1.053308
479.70 1.053049
479.80 1.05279
479.90 1.052531
480.00 1.052272
480.10 1.052014
480.20 1.051755
480.30 1.051497
480.40 1.051238
480.50 1.05098
480.60 1.050722
480.70 1.050464
480.80 1.050206
480.90 1.049949
481.00 1.049691
481.10 1.049434
481.20 1.04917
481.30 1.048907
481.40 1.048645
481.50 1.048382
481.60 1.048119
481.70 1.047857
481.80 1.047595
481.90 1.047332
482.00 1.04707
482.10 1.046808
482.20 1.046547
482.30 1.046291
482.40 1.046036
482.50 1.045781
482.60 1.045526
482.70 1.04527
482.80 1.045016
482.90 1.044761
483.00 1.044506
483.10 1.044251
483.20 1.043997
483.30 1.043743
483.40 1.043489
483.50 1.043234
483.60 1.042981
483.70 1.042785
483.80 1.042589
483.90 1.042393
484.00 1.042198
484.10 1.042002
484.20 1.04172
484.30 1.0414
484.40 1.041081
484.50 1.040762
484.60 1.040443
484.70 1.04013
484.80 1.039907
484.90 1.039683
485.00 1.03946
485.10 1.039236
485.20 1.039013
485.30 1.03879
485.40 1.038567
485.50 1.038344
485.60 1.038121
485.70 1.037807
485.80 1.037493
485.90 1.037179
486.00 1.036865
486.10 1.036552
486.20 1.036238
486.30 1.035925
486.40 1.035612
486.50 1.035299
486.60 1.034987
486.70 1.034688
486.80 1.034565
486.90 1.034443
487.00 1.034321
487.10 1.034198
487.20 1.033886
487.30 1.033574
487.40 1.033263
487.50 1.032951
487.60 1.03264
487.70 1.032329
487.80 1.032018
487.90 1.031707
488.00 1.031397
488.10 1.031086
488.20 1.030785
488.30 1.030604
488.40 1.030424
488.50 1.030243
488.60 1.030063
488.70 1.029882
488.80 1.029461
488.90 1.02904
489.00 1.028666
489.10 1.028413
489.20 1.02816
489.30 1.027907
489.40 1.027655
489.50 1.027402
489.60 1.02715
489.70 1.026898
489.80 1.027095
489.90 1.026796
490.00 1.026497
490.10 1.026198
490.20 1.025899
490.30 1.0256
490.40 1.025334
490.50 1.025068
490.60 1.024801
490.70 1.024535
490.80 1.024118
490.90 1.023701
491.00 1.023889
491.10 1.023472
491.20 1.023056
491.30 1.022639
491.40 1.022827
491.50 1.022411
491.60 1.022081
491.70 1.021934
491.80 1.021768
491.90 1.021352
492.00 1.020937
492.10 1.020929
492.20 1.02071
492.30 1.020296
492.40 1.019881
492.50 1.019467
492.60 1.019665
492.70 1.019402
492.80 1.019138
492.90 1.018875
493.00 1.01861
493.10 1.018315
493.20 1.018021
493.30 1.017726
493.40 1.017432
493.50 1.017138
493.60 1.016741
493.70 1.016553
493.80 1.016365
493.90 1.016089
494.00 1.015678
494.10 1.01534
494.20 1.015157
494.30 1.014974
494.40 1.014791
494.50 1.014608
494.60 1.014409
494.70 1.013999
494.80 1.013636
494.90 1.01341
495.00 1.013183
495.10 1.012956
495.20 1.01267
495.30 1.012384
495.40 1.012099
495.50 1.011813
495.60 1.011528
495.70 1.011242
495.80 1.010957
495.90 1.010672
496.00 1.010387
496.10 1.010215
496.20 1.010259
496.30 1.009998
496.40 1.009736
496.50 1.009475
496.60 1.009214
496.70 1.008895
496.80 1.008577
496.90 1.008259
497.00 1.007941
497.10 1.007623
497.20 1.007305
497.30 1.007017
497.40 1.006813
497.50 1.006609
497.60 1.006341
497.70 1.005946
497.80 1.005671
497.90 1.005397
498.00 1.005123
498.10 1.00485
498.20 1.004576
498.30 1.004302
498.40 1.004029
498.50 1.003756
498.60 1.003483
498.70 1.003374
498.80 1.003265
498.90 1.003022
499.00 1.002779
499.10 1.002537
499.20 1.002243
499.30 1.001878
499.40 1.001617
499.50 1.001355
499.60 1.001094
499.70 1.000832
499.80 1.000554
499.90 1.000277
500.00 1
500.10 0.999723
500.20 0.9994691
500.30 0.9992639
500.40 0.9990589
500.50 0.998854
500.60 0.9986491
500.70 0.9984443
500.80 0.9981776
500.90 0.9977791
501.00 0.9973808
501.10 0.9969827
501.20 0.9966779
501.30 0.9965708
501.40 0.9963707
501.50 0.9959734
501.60 0.9955763
501.70 0.9957594
501.80 0.9953626
501.90 0.994966
502.00 0.994652
502.10 0.9945132
502.20 0.9943564
502.30 0.9939605
502.40 0.9936265
502.50 0.9934238
502.60 0.9932212
502.70 0.9930186
502.80 0.9928161
502.90 0.9926137
503.00 0.9923953
503.10 0.9921429
503.20 0.9918906
503.30 0.9916384
503.40 0.9913495
503.50 0.9909557
503.60 0.9905622
503.70 0.9901689
503.80 0.9898142
503.90 0.9897408
504.00 0.9896105
504.10 0.9893594
504.20 0.9891084
504.30 0.9888575
504.40 0.98857
504.50 0.9881782
504.60 0.9877866
504.70 0.9874811
504.80 0.9875768
504.90 0.9871857
505.00 0.9868692
505.10 0.9867645
505.20 0.9865855
505.30 0.9861951
505.40 0.9858048
505.50 0.9854149
505.60 0.9850854
505.70 0.9848842
505.80 0.9846831
505.90 0.9844821
506.00 0.9842812
506.10 0.9840804
506.20 0.9838639
506.30 0.9836026
506.40 0.9833416
506.50 0.9830806
506.60 0.9828198
506.70 0.9825591
506.80 0.9822985
506.90 0.9820381
507.00 0.9817778
507.10 0.9814769
507.20 0.9811176
507.30 0.9808372
507.40 0.9805569
507.50 0.9802768
507.60 0.9799968
507.70 0.979717
507.80 0.9794373
507.90 0.9791578
508.00 0.9788784
508.10 0.9785991
508.20 0.97832
508.30 0.9780411
508.40 0.9777622
508.50 0.9774835
508.60 0.977205
508.70 0.9769266
508.80 0.9766209
508.90 0.9764095
509.00 0.9762587
509.10 0.9760783
509.20 0.975835
509.30 0.9755918
509.40 0.9753487
509.50 0.9751058
509.60 0.9748629
509.70 0.9746202
509.80 0.9743776
509.90 0.9741351
510.00 0.9738928
510.10 0.9736505
510.20 0.9734084
510.30 0.9731526
510.40 0.9728579
510.50 0.9725634
510.60 0.972269
510.70 0.9719748
510.80 0.9716808
510.90 0.9713869
511.00 0.9710931
511.10 0.9707995
511.20 0.9705061
511.30 0.9702128
511.40 0.9699197
511.50 0.9696267
511.60 0.9693568
511.70 0.9691359
511.80 0.9689151
511.90 0.9686944
512.00 0.9684738
512.10 0.9682533
512.20 0.9680329
512.30 0.967798
512.40 0.967522
512.50 0.9672461
512.60 0.9669704
512.70 0.9666948
512.80 0.9664194
512.90 0.9661441
513.00 0.9658689
513.10 0.9655939
513.20 0.965319
513.30 0.9650443
513.40 0.9647697
513.50 0.9644952
513.60 0.9642209
513.70 0.9639467
513.80 0.9636727
513.90 0.9633988
514.00 0.9631306
514.10 0.9628634
514.20 0.9625963
514.30 0.9623294
514.40 0.9620626
514.50 0.9617959
514.60 0.9615294
514.70 0.961263
514.80 0.9609967
514.90 0.9607306
515.00 0.9604646
515.10 0.9601988
515.20 0.9599331
515.30 0.9596675
515.40 0.959402
515.50 0.9591367
515.60 0.9588715
515.70 0.9586065
515.80 0.9583416
515.90 0.9580768
516.00 0.9578121
516.10 0.9575476
516.20 0.9572832
516.30 0.957019
516.40 0.9567549
516.50 0.9564909
516.60 0.9562271
516.70 0.9559634
516.80 0.9556999
516.90 0.9554364
517.00 0.9551732
517.10 0.95491
517.20 0.954647
517.30 0.9543841
517.40 0.9541214
517.50 0.9538587
517.60 0.9535962
517.70 0.9533339
517.80 0.9530717
517.90 0.9528096
518.00 0.9525476
518.10 0.9522858
518.20 0.9520241
518.30 0.9517625
518.40 0.9515011
518.50 0.9512398
518.60 0.9509786
518.70 0.9507175
518.80 0.9504566
518.90 0.9501958
519.00 0.9499352
519.10 0.9496741
519.20 0.9494127
519.30 0.9491513
519.40 0.9488901
519.50 0.948629
519.60 0.9483681
519.70 0.9481073
519.80 0.9478466
519.90 0.947586
520.00 0.9473256
520.10 0.9470653
520.20 0.9468052
520.30 0.9465451
520.40 0.9462852
520.50 0.9460254
520.60 0.9457658
520.70 0.9455063
520.80 0.9452469
520.90 0.9449876
521.00 0.9447285
521.10 0.9444695
521.20 0.9442106
521.30 0.9439519
521.40 0.9436933
521.50 0.9434348
521.60 0.9431764
521.70 0.9429182
521.80 0.9426601
521.90 0.9424022
522.00 0.9421443
522.10 0.9418866
522.20 0.941629
522.30 0.9413716
522.40 0.9411142
522.50 0.9408571
522.60 0.9406
522.70 0.940343
522.80 0.9400862
522.90 0.9398295
523.00 0.939573
523.10 0.9393165
523.20 0.9390602
523.30 0.9388041
523.40 0.938548
523.50 0.9382921
523.60 0.9380363
523.70 0.9377806
523.80 0.9375251
523.90 0.9372697
524.00 0.9370144
524.10 0.9367592
524.20 0.9365042
524.30 0.936243
524.40 0.9359771
524.50 0.9357114
524.60 0.9354457
524.70 0.9351802
524.80 0.9349149
524.90 0.9346497
525.00 0.9343846
525.10 0.9341196
525.20 0.9338548
525.30 0.9335901
525.40 0.9333255
525.50 0.9330611
525.60 0.9327968
525.70 0.9325326
525.80 0.9322686
525.90 0.9320047
526.00 0.931741
526.10 0.9314773
526.20 0.9312139
526.30 0.9309505
526.40 0.9306873
526.50 0.9304242
526.60 0.9301612
526.70 0.9298984
526.80 0.9296357
526.90 0.9293731
527.00 0.9291107
527.10 0.9288484
527.20 0.9285862
527.30 0.9283242
527.40 0.9280623
527.50 0.9278005
527.60 0.9275389
527.70 0.9272774
527.80 0.927016
527.90 0.9267548
528.00 0.9264937
528.10 0.9262327
528.20 0.9259718
528.30 0.9257111
528.40 0.9254505
528.50 0.9251901
528.60 0.9249297
528.70 0.9246695
528.80 0.9244095
528.90 0.9241495
529.00 0.9238897
529.10 0.9236301
529.20 0.9233705
529.30 0.9231111
529.40 0.9228518
529.50 0.9225912
529.60 0.9223214
529.70 0.9220518
529.80 0.9217823
529.90 0.921513
530.00 0.9212438
530.10 0.9209747
530.20 0.9207057
530.30 0.9204369
530.40 0.9201683
530.50 0.9198998
530.60 0.9196314
530.70 0.9193631
530.80 0.919095
530.90 0.918827
531.00 0.9185592
531.10 0.9182915
531.20 0.9180239
531.30 0.9177565
531.40 0.9174892
531.50 0.9172221
531.60 0.916955
531.70 0.9166882
531.80 0.9164214
531.90 0.9161548
532.00 0.9158883
532.10 0.915622
532.20 0.9153686
532.30 0.9151221
532.40 0.9148756
532.50 0.9146293
532.60 0.914383
532.70 0.9141369
532.80 0.9138909
532.90 0.9136451
533.00 0.9133993
533.10 0.9131537
533.20 0.9129082
533.30 0.9126628
533.40 0.9124176
533.50 0.9121724
533.60 0.9119274
533.70 0.9116825
533.80 0.9114377
533.90 0.9111931
534.00 0.9109485
534.10 0.9107041
534.20 0.9104598
534.30 0.9102156
534.40 0.9099716
534.50 0.9097276
534.60 0.9094838
534.70 0.9092401
534.80 0.9089927
534.90 0.9087291
535.00 0.9084657
535.10 0.9082025
535.20 0.9079394
535.30 0.9076764
535.40 0.9074135
535.50 0.9071508
535.60 0.9068882
535.70 0.9066257
535.80 0.9063634
535.90 0.9061012
536.00 0.9058392
536.10 0.9055772
536.20 0.9053154
536.30 0.9050538
536.40 0.9047922
536.50 0.9045308
536.60 0.9042696
536.70 0.9040084
536.80 0.9037474
536.90 0.9034866
537.00 0.9032258
537.10 0.9029652
537.20 0.9027047
537.30 0.9024444
537.40 0.9021842
537.50 0.9019241
537.60 0.9016641
537.70 0.9014043
537.80 0.9011446
537.90 0.9008851
538.00 0.9006256
538.10 0.9003663
538.20 0.9001072
538.30 0.8998481
538.40 0.8995892
538.50 0.8993304
538.60 0.8990718
538.70 0.8988133
538.80 0.8985549
538.90 0.8982966
539.00 0.8980385
539.10 0.8977805
539.20 0.8975226
539.30 0.8972649
539.40 0.8970073
539.50 0.8967498
539.60 0.8964925
539.70 0.8962352
539.80 0.8959781
539.90 0.8957212
540.00 0.8954643
540.10 0.8952076
540.20 0.894944
540.30 0.8946775
540.40 0.8944112
540.50 0.8941451
540.60 0.893879
540.70 0.8936131
540.80 0.8933474
540.90 0.8930817
541.00 0.8928163
541.10 0.8925509
541.20 0.8922857
541.30 0.8920206
541.40 0.8917557
541.50 0.8914908
541.60 0.8912262
541.70 0.8909616
541.80 0.8906972
541.90 0.8904329
542.00 0.8901688
542.10 0.8899048
542.20 0.8896409
542.30 0.8893772
542.40 0.8891136
542.50 0.8888501
542.60 0.8885868
542.70 0.8883236
542.80 0.8880605
542.90 0.8877976
543.00 0.8875347
543.10 0.8872721
543.20 0.8870095
543.30 0.8867471
543.40 0.8864849
543.50 0.8862227
543.60 0.8859607
543.70 0.8856989
543.80 0.8854371
543.90 0.8851755
544.00 0.884914
544.10 0.8846527
544.20 0.8843915
544.30 0.8841304
544.40 0.8838695
544.50 0.8836087
544.60 0.883348
544.70 0.8830874
544.80 0.882827
544.90 0.8825667
545.00 0.8823066
545.10 0.8820466
545.20 0.8817867
545.30 0.8815269
545.40 0.8812673
545.50 0.8810078
545.60 0.8807543
545.70 0.8805034
545.80 0.8802526
545.90 0.880002
546.00 0.8797514
546.10 0.879501
546.20 0.8792508
546.30 0.8790006
546.40 0.8787506
546.50 0.8785007
546.60 0.8782509
546.70 0.8780013
546.80 0.8777518
546.90 0.8775024
547.00 0.8772531
547.10 0.8770039
547.20 0.8767549
547.30 0.876506
547.40 0.8762572
547.50 0.8760085
547.60 0.87576
547.70 0.8755116
547.80 0.8752633
547.90 0.8750151
548.00 0.8747671
548.10 0.8745192
548.20 0.8742714
548.30 0.8740237
548.40 0.8737762
548.50 0.8735287
548.60 0.8732815
548.70 0.8730343
548.80 0.8727873
548.90 0.8725403
549.00 0.8722935
549.10 0.8720469
549.20 0.8718003
549.30 0.8715539
549.40 0.8713076
549.50 0.8710614
549.60 0.8708153
549.70 0.8705694
549.80 0.8703236
549.90 0.8700779
550.00 0.8698323
550.10 0.8695868
550.20 0.8693415
550.30 0.8690963
550.40 0.8688512
550.50 0.8686062
550.60 0.8683613
550.70 0.8681166
550.80 0.867872
550.90 0.8676275
551.00 0.8673804
551.10 0.867118
551.20 0.8668557
551.30 0.8665935
551.40 0.8663315
551.50 0.8660696
551.60 0.8658079
551.70 0.8655463
551.80 0.8652848
551.90 0.8650234
552.00 0.8647622
552.10 0.8645011
552.20 0.8642402
552.30 0.8639793
552.40 0.8637187
552.50 0.8634581
552.60 0.8631977
552.70 0.8629374
552.80 0.8626772
552.90 0.8624172
553.00 0.8621573
553.10 0.8618975
553.20 0.8616379
553.30 0.8613784
553.40 0.861119
553.50 0.8608598
553.60 0.8606007
553.70 0.8603417
553.80 0.8600828
553.90 0.8598241
554.00 0.8595655
554.10 0.8593071
554.20 0.8590487
554.30 0.8587905
554.40 0.8585325
554.50 0.8582745
554.60 0.8580167
554.70 0.8577591
554.80 0.8575015
554.90 0.8572441
555.00 0.8569868
555.10 0.8567297
555.20 0.8564726
555.30 0.8562157
555.40 0.855959
555.50 0.8557023
555.60 0.8554458
555.70 0.8551895
555.80 0.8549332
555.90 0.8546771
556.00 0.8544211
556.10 0.8541652
556.20 0.8539095
556.30 0.8536539
556.40 0.8533984
556.50 0.8531435
556.60 0.8528962
556.70 0.8526491
556.80 0.8524021
556.90 0.8521552
557.00 0.8519084
557.10 0.8516617
557.20 0.8514152
557.30 0.8511688
557.40 0.8509225
557.50 0.8506764
557.60 0.8504303
557.70 0.8501844
557.80 0.8499386
557.90 0.849693
558.00 0.8494474
558.10 0.849202
558.20 0.8489567
558.30 0.8487115
558.40 0.8484664
558.50 0.8482215
558.60 0.8479766
558.70 0.8477319
558.80 0.8474874
558.90 0.8472429
559.00 0.8469986
559.10 0.8467543
559.20 0.8465102
559.30 0.8462663
559.40 0.8460224
559.50 0.8457787
559.60 0.845535
559.70 0.8452915
559.80 0.8450482
559.90 0.8448049
560.00 0.8445618
560.10 0.8443187
560.20 0.8440758
560.30 0.8438331
560.40 0.8435904
560.50 0.8433479
560.60 0.8431054
560.70 0.8428631
560.80 0.842621
560.90 0.8423789
561.00 0.8421369
561.10 0.8418951
561.20 0.8416534
561.30 0.8414118
561.40 0.8411704
561.50 0.840929
561.60 0.8406878
561.70 0.8404467
561.80 0.8402057
561.90 0.8399648
562.00 0.839724
562.10 0.8394799
562.20 0.8392305
562.30 0.8389813
562.40 0.8387323
562.50 0.8384833
562.60 0.8382345
562.70 0.8379858
562.80 0.8377372
562.90 0.8374887
563.00 0.8372404
563.10 0.8369922
563.20 0.8367441
563.30 0.8364961
563.40 0.8362483
563.50 0.8360006
563.60 0.835753
563.70 0.8355055
563.80 0.8352582
563.90 0.8350109
564.00 0.8347638
564.10 0.8345169
564.20 0.83427
564.30 0.8340233
564.40 0.8337767
564.50 0.8335302
564.60 0.8332838
564.70 0.8330376
564.80 0.8327914
564.90 0.8325407
565.00 0.8322786
565.10 0.8320166
565.20 0.8317547
565.30 0.831493
565.40 0.8312314
565.50 0.8309699
565.60 0.8307086
565.70 0.8304474
565.80 0.8301863
565.90 0.8299254
566.00 0.8296646
566.10 0.8294039
566.20 0.8291434
566.30 0.828883
566.40 0.8286227
566.50 0.8283626
566.60 0.8281026
566.70 0.8278427
566.80 0.8275829
566.90 0.8273233
567.00 0.8270638
567.10 0.8268045
567.20 0.8265453
567.30 0.8262862
567.40 0.8260272
567.50 0.8257684
567.60 0.8255097
567.70 0.8252541
567.80 0.8250113
567.90 0.8247686
568.00 0.8245261
568.10 0.8242836
568.20 0.8240413
568.30 0.8237991
568.40 0.823557
568.50 0.823315
568.60 0.8230732
568.70 0.8228314
568.80 0.8225898
568.90 0.8223483
569.00 0.822107
569.10 0.8218657
569.20 0.8216246
569.30 0.8213836
569.40 0.8211427
569.50 0.8209019
569.60 0.8206612
569.70 0.8204207
569.80 0.8201802
569.90 0.8199399
570.00 0.8196998
570.10 0.8194597
570.20 0.8192197
570.30 0.8189799
570.40 0.8187402
570.50 0.8185006
570.60 0.8182611
570.70 0.8180217
570.80 0.8177825
570.90 0.8175434
571.00 0.8173043
571.10 0.8170655
571.20 0.8168267
571.30 0.816588
571.40 0.8163495
571.50 0.816111
571.60 0.8158727
571.70 0.8156345
571.80 0.8153965
571.90 0.8151585
572.00 0.8149207
572.10 0.8146829
572.20 0.8144453
572.30 0.8142078
572.40 0.8139705
572.50 0.8137332
572.60 0.8134961
572.70 0.813259
572.80 0.8130221
572.90 0.8127853
573.00 0.8125486
573.10 0.8123121
573.20 0.8120756
573.30 0.8118393
573.40 0.8115967
573.50 0.8113453
573.60 0.8110941
573.70 0.810843
573.80 0.8105921
573.90 0.8103412
574.00 0.8100905
574.10 0.80984
574.20 0.8095895
574.30 0.8093392
574.40 0.809089
574.50 0.8088389
574.60 0.8085889
574.70 0.8083391
574.80 0.8080894
574.90 0.8078398
575.00 0.8075903
575.10 0.807341
575.20 0.8070918
575.30 0.8068427
575.40 0.8065938
575.50 0.8063449
575.60 0.8060962
575.70 0.8058476
575.80 0.8055992
575.90 0.8053508
576.00 0.8051026
576.10 0.8048545
576.20 0.8046066
576.30 0.8043587
576.40 0.804111
576.50 0.8038634
576.60 0.8036159
576.70 0.8033686
576.80 0.8031213
576.90 0.8028742
577.00 0.8026273
577.10 0.8023804
577.20 0.8021337
577.30 0.8018871
577.40 0.8016406
577.50 0.8013942
577.60 0.801147
577.70 0.8008982
577.80 0.8006496
577.90 0.8004012
578.00 0.8001528
578.10 0.7999046
578.20 0.7996565
578.30 0.7994085
578.40 0.7991606
578.50 0.7989129
578.60 0.7986653
578.70 0.7984178
578.80 0.7981704
578.90 0.7979232
579.00 0.7976761
579.10 0.7974305
579.20 0.7972
579.30 0.7969696
579.40 0.7967393
579.50 0.7965091
579.60 0.796279
579.70 0.7960491
579.80 0.7958192
579.90 0.7955895
580.00 0.7953599
580.10 0.7951299
580.20 0.7948992
580.30 0.7946686
580.40 0.7944381
580.50 0.7942077
580.60 0.7939775
580.70 0.7937473
580.80 0.7935173
580.90 0.7932874
581.00 0.7930576
581.10 0.7928279
581.20 0.7925983
581.30 0.7923688
581.40 0.7921394
581.50 0.7919102
581.60 0.791681
581.70 0.791452
581.80 0.7912231
581.90 0.7909943
582.00 0.7907656
582.10 0.7905315
582.20 0.7902887
582.30 0.790046
582.40 0.7898034
582.50 0.7895609
582.60 0.7893186
582.70 0.7890763
582.80 0.7888342
582.90 0.7885922
583.00 0.7883503
583.10 0.7881086
583.20 0.7878669
583.30 0.7876254
583.40 0.787384
583.50 0.7871428
583.60 0.7869031
583.70 0.7866659
583.80 0.7864289
583.90 0.786192
584.00 0.7859552
584.10 0.7857185
584.20 0.785482
584.30 0.7852455
584.40 0.7850092
584.50 0.784773
584.60 0.7845369
584.70 0.7843009
584.80 0.784065
584.90 0.7838234
585.00 0.7835555
585.10 0.7832877
585.20 0.7830362
585.30 0.7828112
585.40 0.7825864
585.50 0.7823617
585.60 0.7821371
585.70 0.7819126
585.80 0.7816882
585.90 0.7814639
586.00 0.7812397
586.10 0.7810157
586.20 0.7807755
586.30 0.7805092
586.40 0.780243
586.50 0.779977
586.60 0.7797111
586.70 0.7794453
586.80 0.7791797
586.90 0.7789142
587.00 0.7786488
587.10 0.7783836
587.20 0.7781185
587.30 0.7778535
587.40 0.7775887
587.50 0.7775143
587.60 0.7774822
587.70 0.7772177
587.80 0.7769533
587.90 0.776689
588.00 0.7764248
588.10 0.7761608
588.20 0.7758969
588.30 0.7756331
588.40 0.7753695
588.50 0.775106
588.60 0.7748427
588.70 0.7745795
588.80 0.7743164
588.90 0.7740534
589.00 0.7738066
589.10 0.773586
589.20 0.7733655
589.30 0.7731451
589.40 0.7729248
589.50 0.7727045
589.60 0.7724845
589.70 0.7722645
589.80 0.7720446
589.90 0.7718248
590.00 0.7716099
590.10 0.7714029
590.20 0.771196
590.30 0.7709892
590.40 0.7707825
590.50 0.7705759
590.60 0.7703694
590.70 0.770163
590.80 0.7699192
590.90 0.7696586
591.00 0.7693982
591.10 0.7691379
591.20 0.7688777
591.30 0.7686177
591.40 0.7683577
591.50 0.768098
591.60 0.7678489
591.70 0.7676172
591.80 0.7673856
591.90 0.7671541
592.00 0.7669227
592.10 0.7666914
592.20 0.7664602
592.30 0.7662292
592.40 0.7659983
592.50 0.7657674
592.60 0.7655367
592.70 0.7653061
592.80 0.7650756
592.90 0.7648453
593.00 0.764615
593.10 0.7643822
593.20 0.7641453
593.30 0.7639084
593.40 0.7636717
593.50 0.7634351
593.60 0.7631986
593.70 0.7629623
593.80 0.762726
593.90 0.7624899
594.00 0.7622538
594.10 0.7620179
594.20 0.7617821
594.30 0.7615465
594.40 0.7613109
594.50 0.7610755
594.60 0.7608401
594.70 0.7606049
594.80 0.7603698
594.90 0.7601348
595.00 0.7599
595.10 0.7596673
595.20 0.7594382
595.30 0.7592092
595.40 0.7589804
595.50 0.7587516
595.60 0.7585229
595.70 0.7582944
595.80 0.758066
595.90 0.7578376
596.00 0.7576094
596.10 0.7573813
596.20 0.7571533
596.30 0.7569255
596.40 0.7566977
596.50 0.75647
596.60 0.7562425
596.70 0.7559989
596.80 0.7557456
596.90 0.7554924
597.00 0.7552393
597.10 0.7549863
597.20 0.7547335
597.30 0.7544808
597.40 0.7542283
597.50 0.7539758
597.60 0.7537324
597.70 0.7535038
597.80 0.7532752
597.90 0.7530467
598.00 0.7528184
598.10 0.7525902
598.20 0.752362
598.30 0.752134
598.40 0.7519061
598.50 0.7516783
598.60 0.7514506
598.70 0.7512231
598.80 0.7509956
598.90 0.7507682
599.00 0.750541
599.10 0.7503139
599.20 0.7500868
599.30 0.7498599
599.40 0.74963
599.50 0.7494003
599.60 0.7491706
599.70 0.7489411
599.80 0.7487117
599.90 0.7484824
600.00 0.7482532
600.10 0.7480241
600.20 0.7477951
600.30 0.7475663
600.40 0.7473375
600.50 0.7471089
600.60 0.7468803
600.70 0.7466519
600.80 0.7464236
600.90 0.7461954
601.00 0.7459673
601.10 0.7457393
601.20 0.7455114
601.30 0.7452837
601.40 0.7450668
601.50 0.74485
601.60 0.7446333
601.70 0.7444167
601.80 0.7442002
601.90 0.7439838
602.00 0.7437675
602.10 0.7435513
602.20 0.7433353
602.30 0.7431193
602.40 0.7429034
602.50 0.7426876
602.60 0.742472
602.70 0.7422272
602.80 0.7419809
602.90 0.7417348
603.00 0.7414888
603.10 0.7412429
603.20 0.7409972
603.30 0.7407515
603.40 0.740506
603.50 0.7402607
603.60 0.7400154
603.70 0.7397703
603.80 0.7395252
603.90 0.7392803
604.00 0.7390356
604.10 0.7387909
604.20 0.7385464
604.30 0.738302
604.40 0.7380577
604.50 0.7378535
604.60 0.7376493
604.70 0.7374453
604.80 0.7372414
604.90 0.7370375
605.00 0.7368338
605.10 0.7366301
605.20 0.7364266
605.30 0.7362231
605.40 0.7360197
605.50 0.7357766
605.60 0.7355337
605.70 0.7352908
605.80 0.7350481
605.90 0.7348055
606.00 0.734563
606.10 0.7343206
606.20 0.7340784
606.30 0.7338362
606.40 0.7335942
606.50 0.7333523
606.60 0.7331106
606.70 0.7328689
606.80 0.7326274
606.90 0.732386
607.00 0.7325409
607.10 0.7322996
607.20 0.7320584
607.30 0.7318173
607.40 0.7315764
607.50 0.7313355
607.60 0.7310948
607.70 0.7308542
607.80 0.7306138
607.90 0.7303734
608.00 0.7301332
608.10 0.7298931
608.20 0.7296531
608.30 0.7294132
608.40 0.7291734
608.50 0.7289338
608.60 0.7286942
608.70 0.7284548
608.80 0.7282155
608.90 0.7279764
609.00 0.7277373
609.10 0.7274984
609.20 0.7272596
609.30 0.7270454
609.40 0.7268314
609.50 0.7266175
609.60 0.7264037
609.70 0.72619
609.80 0.7259763
609.90 0.7257628
610.00 0.7255494
610.10 0.7253361
610.20 0.7251229
610.30 0.7249098
610.40 0.7246967
610.50 0.7244838
610.60 0.724271
610.70 0.7240583
610.80 0.7238457
610.90 0.7236087
611.00 0.7233719
611.10 0.7231352
611.20 0.7228986
611.30 0.7226621
611.40 0.7224257
611.50 0.7221894
611.60 0.7219533
611.70 0.7217173
611.80 0.7214813
611.90 0.7212455
612.00 0.7210099
612.10 0.7207743
612.20 0.7205388
612.30 0.7203035
612.40 0.7200878
612.50 0.7198721
612.60 0.7196565
612.70 0.7194411
612.80 0.7192257
612.90 0.7190105
613.00 0.7187954
613.10 0.7185803
613.20 0.7183654
613.30 0.7181505
613.40 0.7179358
613.50 0.7177212
613.60 0.7175066
613.70 0.7172922
613.80 0.7170779
613.90 0.7168636
614.00 0.7166495
614.10 0.7164355
614.20 0.7162216
614.30 0.7160077
614.40 0.7157747
614.50 0.7155417
614.60 0.7153089
614.70 0.7150762
614.80 0.714859
614.90 0.714645
615.00 0.7144312
615.10 0.7142174
615.20 0.7140037
615.30 0.7137902
615.40 0.7135767
615.50 0.7133634
615.60 0.7131501
615.70 0.712937
615.80 0.7127239
615.90 0.712511
616.00 0.7122981
616.10 0.7120854
616.20 0.7118727
616.30 0.7116602
616.40 0.7114478
616.50 0.7112354
616.60 0.7110232
616.70 0.710811
616.80 0.710599
616.90 0.7103781
617.00 0.7101572
617.10 0.7099365
617.20 0.7097159
617.30 0.7094954
617.40 0.709275
617.50 0.7090548
617.60 0.7088346
617.70 0.7086145
617.80 0.7083945
617.90 0.7081747
618.00 0.7079549
618.10 0.7077352
618.20 0.7075157
618.30 0.7072963
618.40 0.7070769
618.50 0.7068577
618.60 0.7066385
618.70 0.7064195
618.80 0.7062006
618.90 0.7059818
619.00 0.7057631
619.10 0.7055445
619.20 0.705326
619.30 0.7051076
619.40 0.7048893
619.50 0.7046711
619.60 0.704453
619.70 0.704235
619.80 0.7040171
619.90 0.7037994
620.00 0.7035817
620.10 0.7033641
620.20 0.7031467
620.30 0.7029293
620.40 0.7027121
620.50 0.7024949
620.60 0.7022779
620.70 0.7020609
620.80 0.7018441
620.90 0.7016262
621.00 0.7014063
621.10 0.7011866
621.20 0.7009669
621.30 0.7007474
621.40 0.700528
621.50 0.7003086
621.60 0.7000894
621.70 0.6998703
621.80 0.6996513
621.90 0.6994324
622.00 0.6992136
622.10 0.6989949
622.20 0.6987763
622.30 0.6985578
622.40 0.6983394
622.50 0.6981211
622.60 0.697903
622.70 0.6976849
622.80 0.6974669
622.90 0.697249
623.00 0.6970313
623.10 0.6968136
623.20 0.6965961
623.30 0.6963786
623.40 0.6961613
623.50 0.695944
623.60 0.6957269
623.70 0.6955099
623.80 0.6952929
623.90 0.6950761
624.00 0.6948594
624.10 0.6946428
624.20 0.6944262
624.30 0.6942098
624.40 0.6939935
624.50 0.6937773
624.60 0.6935612
624.70 0.6933452
624.80 0.6931293
624.90 0.6929135
625.00 0.6926978
625.10 0.6924822
625.20 0.6922667
625.30 0.6920513
625.40 0.691836
625.50 0.6916208
625.60 0.6914058
625.70 0.6911908
625.80 0.6909759
625.90 0.6907611
626.00 0.6905465
626.10 0.6903319
626.20 0.6901174
626.30 0.6899031
626.40 0.6896888
626.50 0.6894746
626.60 0.6892606
626.70 0.6890466
626.80 0.6888327
626.90 0.688619
627.00 0.6884053
627.10 0.6881901
627.20 0.6879707
627.30 0.6877514
627.40 0.6875322
627.50 0.6873131
627.60 0.687094
627.70 0.6868751
627.80 0.6866563
627.90 0.6864376
628.00 0.686219
628.10 0.6860006
628.20 0.6857822
628.30 0.6855639
628.40 0.6853457
628.50 0.6851276
628.60 0.6849097
628.70 0.6846918
628.80 0.6844741
628.90 0.6842564
629.00 0.6840388
629.10 0.6838214
629.20 0.683604
629.30 0.6833868
629.40 0.6831697
629.50 0.6829526
629.60 0.6827357
629.70 0.6825189
629.80 0.6823022
629.90 0.6820855
630.00 0.681869
630.10 0.6816526
630.20 0.6814363
630.30 0.6812201
630.40 0.681004
630.50 0.680788
630.60 0.6805721
630.70 0.6803563
630.80 0.6801406
630.90 0.679925
631.00 0.6797095
631.10 0.6794941
631.20 0.6792788
631.30 0.6790636
631.40 0.6788486
631.50 0.6786336
631.60 0.6784187
631.70 0.6782039
631.80 0.6779893
631.90 0.6777747
632.00 0.6775602
632.10 0.6773458
632.20 0.6771316
632.30 0.6769174
632.40 0.6767034
632.50 0.6764894
632.60 0.6762755
632.70 0.6760618
632.80 0.6758481
632.90 0.6756346
633.00 0.6754211
633.10 0.6752078
633.20 0.6749945
633.30 0.6747814
633.40 0.6745683
633.50 0.6743554
633.60 0.6741425
633.70 0.6739298
633.80 0.6737171
633.90 0.6735046
634.00 0.6732921
634.10 0.6730798
634.20 0.6728675
634.30 0.6726554
634.40 0.6724434
634.50 0.6722314
634.60 0.6720196
634.70 0.6718078
634.80 0.6715962
634.90 0.6713846
635.00 0.6711732
635.10 0.6709619
635.20 0.6707506
635.30 0.6705395
635.40 0.6703284
635.50 0.6701175
635.60 0.6699066
635.70 0.6696959
635.80 0.6694852
635.90 0.6692747
636.00 0.6690642
636.10 0.6688539
636.20 0.6686436
636.30 0.6684335
636.40 0.6682234
636.50 0.6680135
636.60 0.6678036
636.70 0.6675939
636.80 0.6673842
636.90 0.6671747
637.00 0.6669652
637.10 0.6667559
637.20 0.6665466
637.30 0.6663374
637.40 0.6661284
637.50 0.6659194
637.60 0.6657105
637.70 0.6655018
637.80 0.6652931
637.90 0.6650845
638.00 0.6648761
638.10 0.6646677
638.20 0.6644594
638.30 0.6642512
638.40 0.6640431
638.50 0.6638352
638.60 0.6636273
638.70 0.6634195
638.80 0.6632118
638.90 0.6630042
639.00 0.6627967
639.10 0.6625893
639.20 0.662382
639.30 0.6621748
639.40 0.6619677
639.50 0.6617607
639.60 0.6615538
639.70 0.6613469
639.80 0.6611402
639.90 0.6609336
640.00 0.6607271
640.10 0.6605206
640.20 0.6603143
640.30 0.6601081
640.40 0.6599019
640.50 0.6596959
640.60 0.65949
640.70 0.6592841
640.80 0.6590784
640.90 0.6588727
641.00 0.6586671
641.10 0.6584617
641.20 0.6582563
641.30 0.658051
641.40 0.6578459
641.50 0.6576408
641.60 0.6574358
641.70 0.6572309
641.80 0.6570261
641.90 0.6568214
642.00 0.6566168
642.10 0.6564123
642.20 0.6562079
642.30 0.6560036
642.40 0.6557994
642.50 0.6555952
642.60 0.6553912
642.70 0.6551873
642.80 0.6549834
642.90 0.6547797
643.00 0.654576
643.10 0.6543725
643.20 0.654169
643.30 0.6539657
643.40 0.6537624
643.50 0.6535592
643.60 0.6533561
643.70 0.6531532
643.80 0.6529503
643.90 0.6527475
644.00 0.6525448
644.10 0.6523422
644.20 0.6521397
644.30 0.6519372
644.40 0.6517349
644.50 0.6515327
644.60 0.6513306
644.70 0.6511285
644.80 0.6509266
644.90 0.6507247
645.00 0.650523
645.10 0.6503213
645.20 0.6501197
645.30 0.6499182
645.40 0.6497169
645.50 0.6495156
645.60 0.6493144
645.70 0.6491133
645.80 0.6489122
645.90 0.6487113
646.00 0.6485105
646.10 0.6483098
646.20 0.6481091
646.30 0.6479086
646.40 0.6477081
646.50 0.6475078
646.60 0.6473075
646.70 0.6471073
646.80 0.6469073
646.90 0.6467073
647.00 0.6465074
647.10 0.6463076
647.20 0.6461079
647.30 0.6459083
647.40 0.6457087
647.50 0.6455093
647.60 0.64531
647.70 0.6451107
647.80 0.6449116
647.90 0.6447125
648.00 0.6445135
648.10 0.6443147
648.20 0.6441159
648.30 0.6439172
648.40 0.6437186
648.50 0.6435201
648.60 0.6433216
648.70 0.6431233
648.80 0.6429251
648.90 0.6427269
649.00 0.6425289
649.10 0.6423309
649.20 0.6421331
649.30 0.6419353
649.40 0.6417273
649.50 0.641519
649.60 0.6413108
649.70 0.6411027
649.80 0.6408947
649.90 0.6406868
650.00 0.640479
650.10 0.6402713
650.20 0.6400636
650.30 0.6398561
650.40 0.6396487
650.50 0.6394414
650.60 0.6392341
650.70 0.639027
650.80 0.63882
650.90 0.638613
651.00 0.6384062
651.10 0.6381995
651.20 0.6379928
651.30 0.6377863
651.40 0.6375798
651.50 0.6373735
651.60 0.6371672
651.70 0.636961
651.80 0.636755
651.90 0.636549
652.00 0.6363431
652.10 0.6361374
652.20 0.6359317
652.30 0.6357261
652.40 0.6355206
652.50 0.6353152
652.60 0.6351168
652.70 0.6349222
652.80 0.6347277
652.90 0.6345333
653.00 0.634339
653.10 0.6341447
653.20 0.6339506
653.30 0.6337565
653.40 0.6335625
653.50 0.6333686
653.60 0.6331749
653.70 0.6329811
653.80 0.6327875
653.90 0.632594
654.00 0.6324006
654.10 0.6322072
654.20 0.6320139
654.30 0.6318208
654.40 0.6316277
654.50 0.6314347
654.60 0.6312418
654.70 0.631049
654.80 0.6308562
654.90 0.6306636
655.00 0.630471
655.10 0.6302786
655.20 0.6300862
655.30 0.6298939
655.40 0.6297017
655.50 0.6295096
655.60 0.6293176
655.70 0.6291256
655.80 0.6289168
655.90 0.6287081
656.00 0.6284995
656.10 0.6282909
656.20 0.6280825
656.30 0.6278742
656.40 0.6276659
656.50 0.6274578
656.60 0.6272498
656.70 0.6270418
656.80 0.626834
656.90 0.6266262
657.00 0.6264186
657.10 0.626211
657.20 0.6260036
657.30 0.6257962
657.40 0.625589
657.50 0.6253818
657.60 0.6251747
657.70 0.6249678
657.80 0.6247778
657.90 0.6245879
658.00 0.624398
658.10 0.6242083
658.20 0.6240186
658.30 0.6238291
658.40 0.6236396
658.50 0.6234502
658.60 0.6232609
658.70 0.6230716
658.80 0.6228825
658.90 0.6226934
659.00 0.6225045
659.10 0.6223156
659.20 0.6221268
659.30 0.6219381
659.40 0.6217495
659.50 0.6215609
659.60 0.6213725
659.70 0.6211841
659.80 0.6209958
659.90 0.6208076
660.00 0.6206195
660.10 0.6204315
660.20 0.6202436
660.30 0.6200557
660.40 0.6198093
660.50 0.6195526
660.60 0.6192961
660.70 0.6190397
660.80 0.6187834
660.90 0.6185962
661.00 0.618409
661.10 0.618222
661.20 0.618035
661.30 0.6178481
661.40 0.6176613
661.50 0.6174745
661.60 0.6172879
661.70 0.6171013
661.80 0.6169148
661.90 0.6167284
662.00 0.6165421
662.10 0.6163559
662.20 0.6161698
662.30 0.6159837
662.40 0.6157977
662.50 0.6156119
662.60 0.6154261
662.70 0.6152403
662.80 0.6150547
662.90 0.6148692
663.00 0.6146837
663.10 0.6144983
663.20 0.614313
663.30 0.6141278
663.40 0.6139427
663.50 0.6137576
663.60 0.6135726
663.70 0.6133878
663.80 0.613203
663.90 0.6130183
664.00 0.6128336
664.10 0.6126491
664.20 0.6124646
664.30 0.6122802
664.40 0.6120959
664.50 0.6119117
664.60 0.6117276
664.70 0.611503
664.80 0.6112785
664.90 0.6110542
665.00 0.6108299
665.10 0.6106057
665.20 0.6103817
665.30 0.6101577
665.40 0.6099339
665.50 0.6097446
665.60 0.6095614
665.70 0.6093782
665.80 0.6091952
665.90 0.6090122
666.00 0.6088294
666.10 0.6086466
666.20 0.6084639
666.30 0.6082812
666.40 0.6080987
666.50 0.6079162
666.60 0.6077339
666.70 0.6075516
666.80 0.6073693
666.90 0.6071872
667.00 0.6070052
667.10 0.6068232
667.20 0.6066413
667.30 0.6064595
667.40 0.6062778
667.50 0.6060961
667.60 0.6059146
667.70 0.6057331
667.80 0.6055517
667.90 0.6053704
668.00 0.6051891
668.10 0.604869
668.20 0.6045245
668.30 0.6043191
668.40 0.6041383
668.50 0.6039575
668.60 0.6037769
668.70 0.6035963
668.80 0.6034158
668.90 0.6032354
669.00 0.6030551
669.10 0.6028749
669.20 0.6026947
669.30 0.6025146
669.40 0.6023346
669.50 0.6021547
669.60 0.6019748
669.70 0.6017951
669.80 0.6016154
669.90 0.6014358
670.00 0.6012563
670.10 0.6010768
670.20 0.6008975
670.30 0.6007182
670.40 0.600539
670.50 0.6003599
670.60 0.6001809
670.70 0.6000019
670.80 0.5997939
670.90 0.599586
671.00 0.5993783
671.10 0.5991706
671.20 0.598963
671.30 0.5987555
671.40 0.5985481
671.50 0.5983408
671.60 0.5981336
671.70 0.5979265
671.80 0.5977195
671.90 0.5975373
672.00 0.5973595
672.10 0.5971817
672.20 0.597004
672.30 0.5968265
672.40 0.596649
672.50 0.5964715
672.60 0.5962942
672.70 0.5961169
672.80 0.5959397
672.90 0.5957626
673.00 0.5955856
673.10 0.5954086
673.20 0.5952317
673.30 0.5950549
673.40 0.5948645
673.50 0.5946718
673.60 0.5944792
673.70 0.5942866
673.80 0.5940942
673.90 0.5939018
674.00 0.5937095
674.10 0.5935173
674.20 0.5933252
674.30 0.5931332
674.40 0.5929412
674.50 0.5927494
674.60 0.5925576
674.70 0.592366
674.80 0.5921744
674.90 0.5919829
675.00 0.5917915
675.10 0.5916002
675.20 0.5914089
675.30 0.5912178
675.40 0.5910294
675.50 0.5908417
675.60 0.590654
675.70 0.5904664
675.80 0.5902789
675.90 0.5900914
676.00 0.5899041
676.10 0.5897168
676.20 0.5895296
676.30 0.5893425
676.40 0.5891555
676.50 0.5889686
676.60 0.5887818
676.70 0.588595
676.80 0.5884083
676.90 0.5882218
677.00 0.5880353
677.10 0.5878489
677.20 0.5876625
677.30 0.5874763
677.40 0.5872901
677.50 0.587104
677.60 0.586918
677.70 0.5867321
677.80 0.5865463
677.90 0.5863714
678.00 0.5861984
678.10 0.5860255
678.20 0.5858527
678.30 0.58568
678.40 0.5855073
678.50 0.5853348
678.60 0.5851623
678.70 0.5849898
678.80 0.5848175
678.90 0.5846452
679.00 0.584473
679.10 0.5842911
679.20 0.5841051
679.30 0.5839192
679.40 0.5837333
679.50 0.5835475
679.60 0.5833619
679.70 0.5831763
679.80 0.5829907
679.90 0.5828053
680.00 0.58262
680.10 0.5824347
680.20 0.5822495
680.30 0.5820644
680.40 0.5818794
680.50 0.5816945
680.60 0.5815096
680.70 0.5813249
680.80 0.5811402
680.90 0.5809556
681.00 0.5807711
681.10 0.5805866
681.20 0.5804023
681.30 0.580218
681.40 0.5800339
681.50 0.5798498
681.60 0.5796657
681.70 0.5794818
681.80 0.579298
681.90 0.5791142
682.00 0.5789305
682.10 0.5787469
682.20 0.5785634
682.30 0.57838
682.40 0.5781966
682.50 0.5780134
682.60 0.5778302
682.70 0.5776471
682.80 0.577464
682.90 0.5772811
683.00 0.5770982
683.10 0.5769155
683.20 0.5767328
683.30 0.5765502
683.40 0.5763676
683.50 0.5761852
683.60 0.5760028
683.70 0.5758206
683.80 0.5756384
683.90 0.5754562
684.00 0.5752742
684.10 0.5750923
684.20 0.5749104
684.30 0.5747286
684.40 0.5745469
684.50 0.5743653
684.60 0.5741837
684.70 0.5740023
684.80 0.5738209
684.90 0.5736396
685.00 0.5734584
685.10 0.5732772
685.20 0.5730962
685.30 0.5729152
685.40 0.5727343
685.50 0.5725535
685.60 0.5723727
685.70 0.5721921
685.80 0.5720115
685.90 0.5718311
686.00 0.5716509
686.10 0.5714707
686.20 0.5712906
686.30 0.5711106
686.40 0.5709306
686.50 0.5707507
686.60 0.570571
686.70 0.5703913
686.80 0.5702116
686.90 0.5700321
687.00 0.5698526
687.10 0.5696732
687.20 0.5694939
687.30 0.5693147
687.40 0.5691356
687.50 0.5689565
687.60 0.5687775
687.70 0.5685986
687.80 0.5684198
687.90 0.5682411
688.00 0.5680624
688.10 0.5678838
688.20 0.5677053
688.30 0.5675269
688.40 0.5673485
688.50 0.5671703
688.60 0.5669921
688.70 0.566814
688.80 0.566636
688.90 0.566458
689.00 0.5662802
689.10 0.5661024
689.20 0.5659247
689.30 0.565747
689.40 0.5655695
689.50 0.565392
689.60 0.5652146
689.70 0.5650373
689.80 0.5648601
689.90 0.5646829
690.00 0.5645058
690.10 0.5643289
690.20 0.5641519
690.30 0.5639751
690.40 0.5637983
690.50 0.5636217
690.60 0.5634451
690.70 0.5632685
690.80 0.5630921
690.90 0.5629157
691.00 0.5627394
691.10 0.5625632
691.20 0.5623871
691.30 0.562211
691.40 0.5620351
691.50 0.5618592
691.60 0.5616834
691.70 0.5615076
691.80 0.561332
691.90 0.5611564
692.00 0.5609809
692.10 0.5608054
692.20 0.5606301
692.30 0.5604548
692.40 0.5602796
692.50 0.5601045
692.60 0.5599295
692.70 0.559754
692.80 0.5595766
692.90 0.5593992
693.00 0.559222
693.10 0.5590448
693.20 0.5588677
693.30 0.5586906
693.40 0.5585137
693.50 0.5583368
693.60 0.55816
693.70 0.5579833
693.80 0.5578067
693.90 0.5576301
694.00 0.5574537
694.10 0.5572773
694.20 0.557101
694.30 0.5569247
694.40 0.5567486
694.50 0.5565725
694.60 0.5563965
694.70 0.5562206
694.80 0.5560447
694.90 0.5558689
695.00 0.5556932
695.10 0.5555176
695.20 0.5553421
695.30 0.5551666
695.40 0.5549913
695.50 0.554816
695.60 0.5546407
695.70 0.5544656
695.80 0.5542905
695.90 0.5541155
696.00 0.5539406
696.10 0.5537658
696.20 0.553591
696.30 0.5534164
696.40 0.5532418
696.50 0.5530672
696.60 0.552886
696.70 0.5527032
696.80 0.5525205
696.90 0.5523379
697.00 0.5521554
697.10 0.551973
697.20 0.5517906
697.30 0.5516084
697.40 0.5514262
697.50 0.5512441
697.60 0.551062
697.70 0.5508801
697.80 0.5506982
697.90 0.5505165
698.00 0.5503348
698.10 0.5501531
698.20 0.5499716
698.30 0.5497902
698.40 0.5496088
698.50 0.5494275
698.60 0.5492463
698.70 0.5490651
698.80 0.5488841
698.90 0.5487031
699.00 0.5485222
699.10 0.5483608
699.20 0.548204
699.30 0.5480472
699.40 0.5478905
699.50 0.5477338
699.60 0.5475773
699.70 0.5474007
699.80 0.5472232
699.90 0.5470458
700.00 0.5468684
700.10 0.5466911
700.20 0.5465139
700.30 0.5463368
700.40 0.5461598
700.50 0.5459828
700.60 0.5458059
700.70 0.5456291
700.80 0.5454524
700.90 0.5452758
701.00 0.5450992
701.10 0.5449237
701.20 0.5447485
701.30 0.5445733
701.40 0.5443983
701.50 0.5442233
701.60 0.5440484
701.70 0.5438736
701.80 0.5436989
701.90 0.5435242
702.00 0.5433496
702.10 0.5431751
702.20 0.5430007
702.30 0.5428263
702.40 0.542652
702.50 0.5424778
702.60 0.5423047
702.70 0.5421319
702.80 0.5419592
702.90 0.5417865
703.00 0.5416139
703.10 0.5414414
703.20 0.541269
703.30 0.5410966
703.40 0.5409243
703.50 0.5407521
703.60 0.54058
703.70 0.5404079
703.80 0.540236
703.90 0.5400641
704.00 0.5398922
704.10 0.5397205
704.20 0.5395637
704.30 0.5394105
704.40 0.5392574
704.50 0.5391043
704.60 0.5389513
704.70 0.5387983
704.80 0.5386455
704.90 0.5384926
705.00 0.5383399
705.10 0.5381872
705.20 0.5379949
705.30 0.5377935
705.40 0.5375921
705.50 0.5373909
705.60 0.5371897
705.70 0.5369886
705.80 0.5368272
705.90 0.5366751
706.00 0.5365231
706.10 0.5363711
706.20 0.5362192
706.30 0.5360674
706.40 0.5359156
706.50 0.5357639
706.60 0.5356123
706.70 0.5354607
706.80 0.5353092
706.90 0.5351578
707.00 0.5349472
707.10 0.534723
707.20 0.5344988
707.30 0.5342747
707.40 0.5341098
707.50 0.5339588
707.60 0.5338079
707.70 0.5336571
707.80 0.5335063
707.90 0.5333556
708.00 0.5331813
708.10 0.5330016
708.20 0.532822
708.30 0.5326425
708.40 0.532463
708.50 0.5322837
708.60 0.5321044
708.70 0.5319251
708.80 0.531746
708.90 0.5315669
709.00 0.5313968
709.10 0.5312288
709.20 0.5310608
709.30 0.530893
709.40 0.5307252
709.50 0.5305575
709.60 0.5303898
709.70 0.5302222
709.80 0.5300547
709.90 0.5298873
710.00 0.52972
710.10 0.5295527
710.20 0.5293855
710.30 0.5292184
710.40 0.5290513
710.50 0.5288843
710.60 0.528732
710.70 0.5285833
710.80 0.5284345
710.90 0.5282859
711.00 0.5281373
711.10 0.5279888
711.20 0.5278403
711.30 0.5276919
711.40 0.5275435
711.50 0.5273953
711.60 0.527247
711.70 0.5270989
711.80 0.5269508
711.90 0.5268028
712.00 0.5266548
712.10 0.5264786
712.20 0.5262958
712.30 0.5261132
712.40 0.5259306
712.50 0.525748
712.60 0.5255656
712.70 0.5253833
712.80 0.525201
712.90 0.5250188
713.00 0.5248367
713.10 0.5246547
713.20 0.5244727
713.30 0.5242909
713.40 0.5241091
713.50 0.5239274
713.60 0.5237458
713.70 0.5235757
713.80 0.523429
713.90 0.5232824
714.00 0.5231358
714.10 0.52298
714.20 0.5228221
714.30 0.5226643
714.40 0.5225066
714.50 0.5223489
714.60 0.5221913
714.70 0.5220337
714.80 0.5218762
714.90 0.5217188
715.00 0.5215615
715.10 0.5214042
715.20 0.521247
715.30 0.5210898
715.40 0.5209328
715.50 0.5207758
715.60 0.5206188
715.70 0.5204619
715.80 0.5203051
715.90 0.5201484
716.00 0.5199917
716.10 0.5198351
716.20 0.5196786
716.30 0.5195221
716.40 0.5193657
716.50 0.5192094
716.60 0.5190481
716.70 0.5188856
716.80 0.5187233
716.90 0.518561
717.00 0.5183988
717.10 0.5182367
717.20 0.5180746
717.30 0.5179126
717.40 0.5177507
717.50 0.5175888
717.60 0.517427
717.70 0.5172653
717.80 0.5171037
717.90 0.5169421
718.00 0.5167806
718.10 0.5166191
718.20 0.5164544
718.30 0.516288
718.40 0.5161217
718.50 0.5159554
718.60 0.5157892
718.70 0.5156231
718.80 0.515457
718.90 0.515291
719.00 0.5151251
719.10 0.5149593
719.20 0.5147935
719.30 0.5146278
719.40 0.5144622
719.50 0.5142966
719.60 0.5141311
719.70 0.5139657
719.80 0.5138004
719.90 0.5136351
720.00 0.5134699
720.10 0.5133048
720.20 0.5131397
720.30 0.5129748
720.40 0.5128099
720.50 0.512645
720.60 0.5124803
720.70 0.5123302
720.80 0.512188
720.90 0.5120165
721.00 0.5118438
721.10 0.5116712
721.20 0.5114987
721.30 0.5113262
721.40 0.5111538
721.50 0.5109815
721.60 0.5108093
721.70 0.5106371
721.80 0.510465
721.90 0.510293
722.00 0.5101211
722.10 0.5099492
722.20 0.5097774
722.30 0.5096057
722.40 0.5094341
722.50 0.5092625
722.60 0.5090911
722.70 0.5089274
722.80 0.508768
722.90 0.5086086
723.00 0.5084493
723.10 0.50829
723.20 0.5081309
723.30 0.5079718
723.40 0.5078128
723.50 0.5076538
723.60 0.5074949
723.70 0.5073361
723.80 0.5071773
723.90 0.5070187
724.00 0.50686
724.10 0.5067015
724.20 0.5065438
724.30 0.5063865
724.40 0.5062293
724.50 0.5060722
724.60 0.5059152
724.70 0.5057582
724.80 0.5056013
724.90 0.5054444
725.00 0.5052876
725.10 0.5051309
725.20 0.5049743
725.30 0.5048177
725.40 0.5046612
725.50 0.5045047
725.60 0.5043484
725.70 0.5041921
725.80 0.5040291
725.90 0.5038625
726.00 0.503696
726.10 0.5035296
726.20 0.5033632
726.30 0.503197
726.40 0.5030308
726.50 0.5028646
726.60 0.5026986
726.70 0.5025326
726.80 0.5023847
726.90 0.5022464
727.00 0.5021083
727.10 0.5019702
727.20 0.5018321
727.30 0.5016941
727.40 0.5015562
727.50 0.5014183
727.60 0.5012805
727.70 0.5011428
727.80 0.501005
727.90 0.5008674
728.00 0.5007298
728.10 0.5003169
728.20 0.5001795
728.30 0.5000422
728.40 0.4999049
728.50 0.4997676
728.60 0.4996305
728.70 0.4994934
728.80 0.4993563
728.90 0.4992193
729.00 0.4990526
729.10 0.4988699
729.20 0.4986874
729.30 0.4985049
729.40 0.4983225
729.50 0.4981401
729.60 0.4979876
729.70 0.4978511
729.80 0.4977147
729.90 0.4975783
730.00 0.497442
730.10 0.4973057
730.20 0.4971695
730.30 0.4970334
730.40 0.4968973
730.50 0.4967613
730.60 0.4966031
730.70 0.496433
730.80 0.496263
730.90 0.496093
731.00 0.4959232
731.10 0.4957534
731.20 0.4955836
731.30 0.495414
731.40 0.4952444
731.50 0.4950749
731.60 0.4949055
731.70 0.4947362
731.80 0.4945669
731.90 0.4943977
732.00 0.4942286
732.10 0.4940595
732.20 0.4939009
732.30 0.4937478
732.40 0.4935949
732.50 0.493442
732.60 0.4932891
732.70 0.4931364
732.80 0.4929837
732.90 0.492831
733.00 0.4926785
733.10 0.492526
733.20 0.4923735
733.30 0.4922211
733.40 0.4920688
733.50 0.4919166
733.60 0.4917644
733.70 0.4916134
733.80 0.491463
733.90 0.4913128
734.00 0.4911625
734.10 0.4910124
734.20 0.4908623
734.30 0.4907123
734.40 0.4905623
734.50 0.4904124
734.60 0.4902626
734.70 0.4901128
734.80 0.4899631
734.90 0.4898135
735.00 0.4896639
735.10 0.4895144
735.20 0.4893649
735.30 0.4892168
735.40 0.4890838
735.50 0.4889508
735.60 0.4888179
735.70 0.488671
735.80 0.4885166
735.90 0.4883623
736.00 0.488208
736.10 0.4880538
736.20 0.4878997
736.30 0.4877456
736.40 0.4875916
736.50 0.4874377
736.60 0.4872839
736.70 0.4871301
736.80 0.4869763
736.90 0.4868227
737.00 0.4866691
737.10 0.4865155
737.20 0.4863621
737.30 0.4862087
737.40 0.4860553
737.50 0.485902
737.60 0.4857488
737.70 0.4855957
737.80 0.4854426
737.90 0.4852896
738.00 0.4851367
738.10 0.4849838
738.20 0.4848294
738.30 0.4846744
738.40 0.4845193
738.50 0.4843644
738.60 0.4842095
738.70 0.4840547
738.80 0.4839
738.90 0.4837453
739.00 0.4835907
739.10 0.4834361
739.20 0.4832816
739.30 0.4831272
739.40 0.4829729
739.50 0.4828186
739.60 0.4826643
739.70 0.4825102
739.80 0.4823561
739.90 0.4822021
740.00 0.4820481
740.10 0.4818942
740.20 0.4817404
740.30 0.4815866
740.40 0.4814329
740.50 0.4812793
740.60 0.4811257
740.70 0.4809722
740.80 0.4808188
740.90 0.4806654
741.00 0.4805121
741.10 0.4803589
741.20 0.4802057
741.30 0.4800526
741.40 0.4798996
741.50 0.4797466
741.60 0.4795937
741.70 0.4794408
741.80 0.479288
741.90 0.4791353
742.00 0.4789827
742.10 0.4788301
742.20 0.4786776
742.30 0.4785251
742.40 0.4783727
742.50 0.4782204
742.60 0.4780681
742.70 0.4779148
742.80 0.4777605
742.90 0.4776064
743.00 0.4774523
743.10 0.4772982
743.20 0.4771443
743.30 0.4769904
743.40 0.4768365
743.50 0.4766827
743.60 0.476529
743.70 0.4763764
743.80 0.4762276
743.90 0.476079
744.00 0.4759304
744.10 0.4757818
744.20 0.4756334
744.30 0.475485
744.40 0.4753366
744.50 0.4751883
744.60 0.4750401
744.70 0.4748919
744.80 0.4747439
744.90 0.4745958
745.00 0.4744478
745.10 0.4742999
745.20 0.4741521
745.30 0.4740043
745.40 0.4738566
745.50 0.4737089
745.60 0.4735613
745.70 0.4734138
745.80 0.4732663
745.90 0.4731189
746.00 0.4729715
746.10 0.4728243
746.20 0.472677
746.30 0.4725299
746.40 0.4723828
746.50 0.4722357
746.60 0.4720887
746.70 0.4719418
746.80 0.471795
746.90 0.4716482
747.00 0.4715014
747.10 0.4713548
747.20 0.4712082
747.30 0.4710616
747.40 0.4709151
747.50 0.4707687
747.60 0.4706223
747.70 0.470476
747.80 0.4703298
747.90 0.4701836
748.00 0.4700375
748.10 0.4698914
748.20 0.4697455
748.30 0.4695995
748.40 0.4694536
748.50 0.4693078
748.60 0.4691621
748.70 0.4690164
748.80 0.4688708
748.90 0.4687252
749.00 0.4685797
749.10 0.4684343
749.20 0.4682889
749.30 0.4681435
749.40 0.4679983
749.50 0.4678531
749.60 0.4677079
749.70 0.4675629
749.80 0.4674178
749.90 0.4672729
750.00 0.467128
750.10 0.466983
750.20 0.4668378
750.30 0.4666926
750.40 0.4665475
750.50 0.4664024
750.60 0.4662574
750.70 0.4661125
750.80 0.4659676
750.90 0.4658228
751.00 0.4656781
751.10 0.4655334
751.20 0.4653888
751.30 0.4652442
751.40 0.4650997
751.50 0.4649552
751.60 0.4648108
751.70 0.4646665
751.80 0.4645222
751.90 0.464378
752.00 0.4642339
752.10 0.4640898
752.20 0.4639458
752.30 0.4638018
752.40 0.4636579
752.50 0.4635141
752.60 0.4633703
752.70 0.4632266
752.80 0.4630829
752.90 0.4629393
753.00 0.4627957
753.10 0.4626522
753.20 0.4625088
753.30 0.4623655
753.40 0.4622221
753.50 0.4620789
753.60 0.4619357
753.70 0.4617926
753.80 0.4616495
753.90 0.4615012
754.00 0.4613514
754.10 0.4612016
754.20 0.461052
754.30 0.4609024
754.40 0.4607528
754.50 0.4606034
754.60 0.4604539
754.70 0.4603046
754.80 0.4601553
754.90 0.4600061
755.00 0.4598569
755.10 0.4597078
755.20 0.4595588
755.30 0.4594098
755.40 0.4592609
755.50 0.459112
755.60 0.4589632
755.70 0.4588145
755.80 0.4586659
755.90 0.4585173
756.00 0.4583687
756.10 0.4582203
756.20 0.4580718
756.30 0.4579235
756.40 0.4577752
756.50 0.457627
756.60 0.4574788
756.70 0.4573307
756.80 0.4571827
756.90 0.4570347
757.00 0.4568868
757.10 0.456739
757.20 0.4565912
757.30 0.4564434
757.40 0.4562958
757.50 0.4561482
757.60 0.4560026
757.70 0.4558621
757.80 0.4557217
757.90 0.4555813
758.00 0.455441
758.10 0.4553007
758.20 0.4551605
758.30 0.4550204
758.40 0.4548803
758.50 0.4547402
758.60 0.4546003
758.70 0.4544604
758.80 0.4543205
758.90 0.4541807
759.00 0.454041
759.10 0.4539013
759.20 0.4537617
759.30 0.4536221
759.40 0.4534826
759.50 0.4533431
759.60 0.4532038
759.70 0.4530644
759.80 0.4529251
759.90 0.4527859
760.00 0.4526468
760.10 0.4525077
760.20 0.4523686
760.30 0.4522296
760.40 0.4520907
760.50 0.4519518
760.60 0.451813
760.70 0.4516742
760.80 0.4515355
760.90 0.4513969
761.00 0.4512583
761.10 0.4511198
761.20 0.4509813
761.30 0.4508429
761.40 0.4507045
761.50 0.4505662
761.60 0.450428
761.70 0.4502898
761.80 0.4501517
761.90 0.4500136
762.00 0.4498756
762.10 0.4497376
762.20 0.4495997
762.30 0.4494619
762.40 0.4493241
762.50 0.4491864
762.60 0.4490487
762.70 0.4489111
762.80 0.4487735
762.90 0.448636
763.00 0.4484985
763.10 0.4483612
763.20 0.4482238
763.30 0.4480865
763.40 0.4479493
763.50 0.4478122
763.60 0.447675
763.70 0.447538
763.80 0.447401
763.90 0.4472641
764.00 0.4471272
764.10 0.4469903
764.20 0.4468536
764.30 0.4467169
764.40 0.4465802
764.50 0.4464436
764.60 0.4463071
764.70 0.4461706
764.80 0.4460341
764.90 0.4458978
765.00 0.4457614
765.10 0.4456252
765.20 0.4454857
765.30 0.4453432
765.40 0.4452008
765.50 0.4450584
765.60 0.4449161
765.70 0.4447739
765.80 0.4446317
765.90 0.4444896
766.00 0.4443476
766.10 0.4442056
766.20 0.4440636
766.30 0.4439217
766.40 0.4437799
766.50 0.4436382
766.60 0.4434965
766.70 0.4433548
766.80 0.4432132
766.90 0.4430717
767.00 0.4429302
767.10 0.4427888
767.20 0.4426475
767.30 0.4425062
767.40 0.442365
767.50 0.4422238
767.60 0.4420827
767.70 0.4419416
767.80 0.4418006
767.90 0.4416597
768.00 0.4415188
768.10 0.441378
768.20 0.4412372
768.30 0.4410965
768.40 0.4409558
768.50 0.4408153
768.60 0.4406747
768.70 0.4405342
768.80 0.4403938
768.90 0.4402535
769.00 0.4401132
769.10 0.4399729
769.20 0.4398327
769.30 0.4396926
769.40 0.4395526
769.50 0.4394125
769.60 0.4392726
769.70 0.4391327
769.80 0.4389929
769.90 0.4388531
770.00 0.4387134
770.10 0.4385737
770.20 0.4384341
770.30 0.4382946
770.40 0.4381551
770.50 0.4380156
770.60 0.4378763
770.70 0.4377369
770.80 0.4375977
770.90 0.4374585
771.00 0.4373193
771.10 0.4371802
771.20 0.4370412
771.30 0.4369022
771.40 0.4367633
771.50 0.4366245
771.60 0.4364857
771.70 0.4363469
771.80 0.4362082
771.90 0.4360696
772.00 0.435931
772.10 0.4357925
772.20 0.4356541
772.30 0.4355157
772.40 0.4353773
772.50 0.4352391
772.60 0.4351008
772.70 0.4349627
772.80 0.4348245
772.90 0.4346899
773.00 0.4345553
773.10 0.4344208
773.20 0.4342863
773.30 0.4341519
773.40 0.4340175
773.50 0.4338832
773.60 0.4337489
773.70 0.4336147
773.80 0.4334806
773.90 0.4333465
774.00 0.4332124
774.10 0.4330785
774.20 0.4329445
774.30 0.4328106
774.40 0.4326768
774.50 0.4325431
774.60 0.4324094
774.70 0.4322757
774.80 0.4321421
774.90 0.4320085
775.00 0.4318751
775.10 0.4317416
775.20 0.4316082
775.30 0.4314749
775.40 0.4313416
775.50 0.4312084
775.60 0.4310752
775.70 0.4309421
775.80 0.4308091
775.90 0.4306761
776.00 0.4305431
776.10 0.4304102
776.20 0.4302774
776.30 0.4301446
776.40 0.4300119
776.50 0.4298792
776.60 0.4297466
776.70 0.429614
776.80 0.4294815
776.90 0.429349
777.00 0.4292166
777.10 0.4290842
777.20 0.4289519
777.30 0.4288197
777.40 0.4286875
777.50 0.4285554
777.60 0.4284233
777.70 0.4282913
777.80 0.4281593
777.90 0.4280274
778.00 0.4278955
778.10 0.4277637
778.20 0.4276319
778.30 0.4275002
778.40 0.4273685
778.50 0.4272369
778.60 0.4271054
778.70 0.4269739
778.80 0.4268424
778.90 0.4267111
779.00 0.4265797
779.10 0.4264484
779.20 0.4263172
779.30 0.426186
779.40 0.4260549
779.50 0.4259238
779.60 0.4257928
779.70 0.4256619
779.80 0.425531
779.90 0.4254001
780.00 0.4252693
780.10 0.4251386
780.20 0.4250079
780.30 0.4248772
780.40 0.4247466
780.50 0.4246161
780.60 0.4244842
780.70 0.4243517
780.80 0.4242193
780.90 0.424087
781.00 0.4239547
781.10 0.4238225
781.20 0.4236903
781.30 0.4235582
781.40 0.4234262
781.50 0.4232941
781.60 0.4231622
781.70 0.4230303
781.80 0.4228984
781.90 0.4227667
782.00 0.4226349
782.10 0.4225032
782.20 0.4223716
782.30 0.42224
782.40 0.4221085
782.50 0.421977
782.60 0.4218456
782.70 0.4217142
782.80 0.4215829
782.90 0.4214517
783.00 0.4213205
783.10 0.4211893
783.20 0.4210582
783.30 0.4209272
783.40 0.4207962
783.50 0.4206652
783.60 0.4205343
783.70 0.4204035
783.80 0.4202727
783.90 0.420142
784.00 0.4200113
784.10 0.4198807
784.20 0.4197501
784.30 0.4196196
784.40 0.4194892
784.50 0.4193587
784.60 0.4192279
784.70 0.4190958
784.80 0.4189638
784.90 0.4188319
785.00 0.4187
785.10 0.4185682
785.20 0.4184364
785.30 0.4183047
785.40 0.418173
785.50 0.4180414
785.60 0.4179098
785.70 0.4177783
785.80 0.4176469
785.90 0.4175155
786.00 0.4173841
786.10 0.4172528
786.20 0.4171216
786.30 0.4169904
786.40 0.4168593
786.50 0.4167282
786.60 0.4165972
786.70 0.4164662
786.80 0.4163353
786.90 0.4162044
787.00 0.4160736
787.10 0.4159428
787.20 0.4158121
787.30 0.4156815
787.40 0.4155509
787.50 0.4154203
787.60 0.4152898
787.70 0.4151594
787.80 0.415029
787.90 0.4148986
788.00 0.4147683
788.10 0.4146381
788.20 0.4145079
788.30 0.4143778
788.40 0.4142485
788.50 0.4141196
788.60 0.4139908
788.70 0.413862
788.80 0.4137332
788.90 0.4136046
789.00 0.4134759
789.10 0.4133474
789.20 0.4132188
789.30 0.4130904
789.40 0.4129619
789.50 0.4128336
789.60 0.4127052
789.70 0.412577
789.80 0.4124488
789.90 0.4123206
790.00 0.4121925
790.10 0.4120644
790.20 0.4119364
790.30 0.4118085
790.40 0.4116806
790.50 0.4115527
790.60 0.4114249
790.70 0.4112971
790.80 0.4111694
790.90 0.4110418
791.00 0.4109142
791.10 0.4107867
791.20 0.4106592
791.30 0.4105317
791.40 0.4104043
791.50 0.410277
791.60 0.4101497
791.70 0.4100225
791.80 0.4098953
791.90 0.4097681
792.00 0.4096411
792.10 0.409514
792.20 0.409387
792.30 0.4092601
792.40 0.4091332
792.50 0.4090064
792.60 0.4088796
792.70 0.4087529
792.80 0.4086262
792.90 0.4084996
793.00 0.408373
793.10 0.4082465
793.20 0.40812
793.30 0.4079935
793.40 0.4078672
793.50 0.4077408
793.60 0.4076146
793.70 0.4074883
793.80 0.4073622
793.90 0.407236
794.00 0.40711
794.10 0.406984
794.20 0.406858
794.30 0.4067321
794.40 0.4066062
794.50 0.4064804
794.60 0.4063546
794.70 0.4062289
794.80 0.4061032
794.90 0.4059776
795.00 0.405852
795.10 0.4057265
795.20 0.405601
795.30 0.4054756
795.40 0.4053503
795.50 0.4052249
795.60 0.4050997
795.70 0.4049745
795.80 0.4048493
795.90 0.4047242
796.00 0.4045991
796.10 0.4044741
796.20 0.4043491
796.30 0.4042244
796.40 0.4040998
796.50 0.4039752
796.60 0.4038507
796.70 0.4037262
796.80 0.4036017
796.90 0.4034774
797.00 0.403353
797.10 0.4032287
797.20 0.4031045
797.30 0.4029803
797.40 0.4028562
797.50 0.4027321
797.60 0.4026081
797.70 0.4024841
797.80 0.4023602
797.90 0.4022363
798.00 0.4021124
798.10 0.4019886
798.20 0.4018649
798.30 0.4017412
798.40 0.4016176
798.50 0.401494
798.60 0.4013704
798.70 0.401247
798.80 0.4011235
798.90 0.4010001
799.00 0.4008768
799.10 0.4007535
799.20 0.4006302
799.30 0.400507
799.40 0.4003839
799.50 0.4002608
799.60 0.4001377
799.70 0.4000147
799.80 0.3998918
799.90 0.3997689
800.00 0.399646
800.10 0.3995232
800.20 0.3994005
800.30 0.3992778
800.40 0.3991551
800.50 0.3990325
800.60 0.3989099
800.70 0.3987874
800.80 0.398665
800.90 0.3985426
801.00 0.3984202
801.10 0.3982979
801.20 0.3981756
801.30 0.3980534
801.40 0.3979312
801.50 0.3978091
801.60 0.397687
801.70 0.397565
801.80 0.397443
801.90 0.3973211
802.00 0.3971992
802.10 0.3970774
802.20 0.3969556
802.30 0.3968339
802.40 0.3967122
802.50 0.3965905
802.60 0.396469
802.70 0.3963474
802.80 0.3962259
802.90 0.3961045
803.00 0.3959831
803.10 0.3958617
803.20 0.3957404
803.30 0.3956192
803.40 0.395498
803.50 0.3953768
803.60 0.3952557
803.70 0.3951347
803.80 0.3950136
803.90 0.3948927
804.00 0.3947718
804.10 0.3946509
804.20 0.3945301
804.30 0.3944096
804.40 0.3942891
804.50 0.3941686
804.60 0.3940482
804.70 0.3939279
804.80 0.3938076
804.90 0.3936873
805.00 0.3935671
805.10 0.3934469
805.20 0.3933268
805.30 0.3932067
805.40 0.3930867
805.50 0.3929667
805.60 0.3928468
805.70 0.3927269
805.80 0.3926071
805.90 0.3924873
806.00 0.3923676
806.10 0.3922479
806.20 0.3921282
806.30 0.3920087
806.40 0.3918891
806.50 0.3917696
806.60 0.3916501
806.70 0.3915307
806.80 0.3914114
806.90 0.3912921
807.00 0.3911728
807.10 0.3910536
807.20 0.3909344
807.30 0.3908153
807.40 0.3906962
807.50 0.3905772
807.60 0.3904582
807.70 0.3903393
807.80 0.3902204
807.90 0.3901015
808.00 0.3899827
808.10 0.389864
808.20 0.3897452
808.30 0.389621
808.40 0.3894969
808.50 0.3893727
808.60 0.3892487
808.70 0.3891247
808.80 0.3890007
808.90 0.3888768
809.00 0.3887529
809.10 0.3886291
809.20 0.3885053
809.30 0.3883816
809.40 0.3882579
809.50 0.3881343
809.60 0.3880108
809.70 0.3878872
809.80 0.3877638
809.90 0.3876403
810.00 0.387517
810.10 0.3873936
810.20 0.3872704
810.30 0.3871471
810.40 0.387024
810.50 0.3869008
810.60 0.3867778
810.70 0.3866547
810.80 0.3865317
810.90 0.3864088
811.00 0.3862859
811.10 0.3861631
811.20 0.3860403
811.30 0.3859176
811.40 0.3857949
811.50 0.3856722
811.60 0.3855497
811.70 0.3854271
811.80 0.3853046
811.90 0.3851822
812.00 0.3850598
812.10 0.3849374
812.20 0.3848151
812.30 0.3846972
812.40 0.3845805
812.50 0.3844638
812.60 0.3843471
812.70 0.3842305
812.80 0.3841139
812.90 0.3839974
813.00 0.3838809
813.10 0.3837645
813.20 0.3836481
813.30 0.3835318
813.40 0.3834155
813.50 0.3832992
813.60 0.383183
813.70 0.3830668
813.80 0.3829507
813.90 0.3828347
814.00 0.3827186
814.10 0.3826027
814.20 0.3824867
814.30 0.3823708
814.40 0.382255
814.50 0.3821392
814.60 0.3820234
814.70 0.3819077
814.80 0.3817921
814.90 0.3816765
815.00 0.3815609
815.10 0.3814454
815.20 0.3813299
815.30 0.3812144
815.40 0.381099
815.50 0.3809837
815.60 0.3808684
815.70 0.3807531
815.80 0.3806379
815.90 0.3805228
816.00 0.3804077
816.10 0.3802926
816.20 0.3801775
816.30 0.3800626
816.40 0.3799476
816.50 0.3798327
816.60 0.3797179
816.70 0.3796031
816.80 0.3794883
816.90 0.3793736
817.00 0.3792589
817.10 0.3791443
817.20 0.3790297
817.30 0.3789152
817.40 0.3788007
817.50 0.3786862
817.60 0.3785718
817.70 0.3784575
817.80 0.3783432
817.90 0.3782289
818.00 0.3781147
818.10 0.3780005
818.20 0.3778864
818.30 0.3777723
818.40 0.3776582
818.50 0.3775442
818.60 0.3774303
818.70 0.3773164
818.80 0.3772025
818.90 0.3770887
819.00 0.3769749
819.10 0.3768611
819.20 0.3767475
819.30 0.3766315
819.40 0.376514
819.50 0.3763966
819.60 0.3762792
819.70 0.3761619
819.80 0.3760446
819.90 0.3759274
820.00 0.3758102
820.10 0.3756953
820.20 0.3755201
820.30 0.3753346
820.40 0.3751909
820.50 0.3750774
820.60 0.3749639
820.70 0.3748505
820.80 0.3747372
820.90 0.3746238
821.00 0.3745105
821.10 0.3743973
821.20 0.3742841
821.30 0.3741709
821.40 0.3740578
821.50 0.3739448
821.60 0.3738317
821.70 0.3737188
821.80 0.3736058
821.90 0.3734929
822.00 0.3733801
822.10 0.3732673
822.20 0.3731545
822.30 0.3730418
822.40 0.3729292
822.50 0.3728165
822.60 0.3727039
822.70 0.3725914
822.80 0.3724789
822.90 0.3723665
823.00 0.372254
823.10 0.3721417
823.20 0.3720294
823.30 0.3719171
823.40 0.3718049
823.50 0.3716927
823.60 0.3715805
823.70 0.3714684
823.80 0.3713563
823.90 0.3712443
824.00 0.3711324
824.10 0.3710204
824.20 0.3709085
824.30 0.3707967
824.40 0.3706849
824.50 0.3705731
824.60 0.3704614
824.70 0.3703498
824.80 0.3702381
824.90 0.3701266
825.00 0.370015
825.10 0.3699035
825.20 0.3697921
825.30 0.3696807
825.40 0.3695693
825.50 0.369458
825.60 0.3693467
825.70 0.3692354
825.80 0.3691242
825.90 0.3690131
826.00 0.368902
826.10 0.3687909
826.20 0.3686799
826.30 0.3685653
826.40 0.3684483
826.50 0.3683313
826.60 0.3682144
826.70 0.3680976
826.80 0.3679807
826.90 0.367864
827.00 0.3677472
827.10 0.3676306
827.20 0.3675139
827.30 0.3673973
827.40 0.3672808
827.50 0.3671643
827.60 0.3670479
827.70 0.3669314
827.80 0.3668151
827.90 0.3666988
828.00 0.3665825
828.10 0.3664663
828.20 0.3663501
828.30 0.366234
828.40 0.3661179
828.50 0.3660018
828.60 0.3658883
828.70 0.3657769
828.80 0.3656656
828.90 0.3655543
829.00 0.365443
829.10 0.3653318
829.20 0.3652206
829.30 0.3651095
829.40 0.3649984
829.50 0.3648874
829.60 0.3647764
829.70 0.3646654
829.80 0.3645545
829.90 0.3644436
830.00 0.3643328
830.10 0.364222
830.20 0.3641112
830.30 0.3640005
830.40 0.3638899
830.50 0.3637793
830.60 0.3636687
830.70 0.3635582
830.80 0.3634477
830.90 0.3633372
831.00 0.3632268
831.10 0.3631165
831.20 0.3630061
831.30 0.3628959
831.40 0.3627856
831.50 0.3626754
831.60 0.3625653
831.70 0.3624552
831.80 0.3623451
831.90 0.3622351
832.00 0.3621251
832.10 0.3620152
832.20 0.3619053
832.30 0.3617955
832.40 0.3616856
832.50 0.3615759
832.60 0.3614662
832.70 0.3613565
832.80 0.3612468
832.90 0.3611372
833.00 0.3610277
833.10 0.3609182
833.20 0.3608087
833.30 0.3606993
833.40 0.3605899
833.50 0.3604805
833.60 0.3603712
833.70 0.360262
833.80 0.3601528
833.90 0.3600436
834.00 0.3599345
834.10 0.3598254
834.20 0.3597163
834.30 0.3596073
834.40 0.3594983
834.50 0.3593894
834.60 0.3592805
834.70 0.3591717
834.80 0.3590629
834.90 0.3589541
835.00 0.3588454
835.10 0.3587367
835.20 0.3586281
835.30 0.3585195
835.40 0.358411
835.50 0.3583025
835.60 0.358194
835.70 0.3580856
835.80 0.3579772
835.90 0.3578689
836.00 0.3577606
836.10 0.3576523
836.20 0.3575441
836.30 0.3574359
836.40 0.3573278
836.50 0.3572197
836.60 0.3571116
836.70 0.3570036
836.80 0.3568957
836.90 0.3567862
837.00 0.356676
837.10 0.3565659
837.20 0.3564559
837.30 0.3563458
837.40 0.3562359
837.50 0.3561259
837.60 0.356016
837.70 0.3559062
837.80 0.3557964
837.90 0.3556866
838.00 0.3555769
838.10 0.3554672
838.20 0.3553576
838.30 0.355248
838.40 0.3551384
838.50 0.3550289
838.60 0.3549194
838.70 0.35481
838.80 0.3547006
838.90 0.3545913
839.00 0.354482
839.10 0.3543727
839.20 0.3542635
839.30 0.3541543
839.40 0.3540452
839.50 0.3539361
839.60 0.353827
839.70 0.353718
839.80 0.353609
839.90 0.3535001
840.00 0.3533912
840.10 0.3532824
840.20 0.3531736
840.30 0.3530648
840.40 0.3529561
840.50 0.3528474
840.60 0.3527388
840.70 0.3526302
840.80 0.3525217
840.90 0.3524131
841.00 0.3523047
841.10 0.3521963
841.20 0.3520879
841.30 0.3519795
841.40 0.3518713
841.50 0.351763
841.60 0.3516548
841.70 0.3515466
841.80 0.3514385
841.90 0.3513304
842.00 0.3512224
842.10 0.3511144
842.20 0.3510064
842.30 0.3508985
842.40 0.3507906
842.50 0.3506827
842.60 0.350575
842.70 0.3504672
842.80 0.3503595
842.90 0.3502518
843.00 0.3501442
843.10 0.3500366
843.20 0.349929
843.30 0.3498215
843.40 0.3497141
843.50 0.3496066
843.60 0.3494992
843.70 0.3493919
843.80 0.3492846
843.90 0.3491773
844.00 0.3490701
844.10 0.3489629
844.20 0.3488558
844.30 0.3487487
844.40 0.3486416
844.50 0.3485346
844.60 0.3484276
844.70 0.3483207
844.80 0.3482138
844.90 0.348107
845.00 0.3480001
845.10 0.3478934
845.20 0.3477866
845.30 0.3476802
845.40 0.3475738
845.50 0.3474674
845.60 0.3473611
845.70 0.3472548
845.80 0.3471485
845.90 0.3470423
846.00 0.3469362
846.10 0.34683
846.20 0.3467239
846.30 0.3466179
846.40 0.3465119
846.50 0.3464059
846.60 0.3463
846.70 0.3461941
846.80 0.3460883
846.90 0.3459825
847.00 0.3458767
847.10 0.345771
847.20 0.3456653
847.30 0.3455596
847.40 0.345454
847.50 0.3453485
847.60 0.3452429
847.70 0.3451375
847.80 0.345032
847.90 0.3449266
848.00 0.3448213
848.10 0.3447159
848.20 0.3446106
848.30 0.3445054
848.40 0.3444002
848.50 0.344295
848.60 0.3441899
848.70 0.3440848
848.80 0.3439798
848.90 0.3438748
849.00 0.3437698
849.10 0.3436649
849.20 0.34356
849.30 0.3434552
849.40 0.3433504
849.50 0.3432456
849.60 0.3431409
849.70 0.3430362
849.80 0.3429316
849.90 0.342827
850.00 0.3427224
850.10 0.3426179
850.20 0.3425134
850.30 0.3424089
850.40 0.3423045
850.50 0.3422002
850.60 0.3420958
850.70 0.3419915
850.80 0.3418873
850.90 0.3417831
851.00 0.3416789
851.10 0.3415748
851.20 0.3414707
851.30 0.3413667
851.40 0.3412626
851.50 0.3411587
851.60 0.3410547
851.70 0.3409509
851.80 0.340847
851.90 0.3407432
852.00 0.3406394
852.10 0.3405357
852.20 0.340432
852.30 0.3403283
852.40 0.3402247
852.50 0.3401211
852.60 0.3400176
852.70 0.3399141
852.80 0.3398106
852.90 0.3397072
853.00 0.3396038
853.10 0.3395005
853.20 0.3393972
853.30 0.3392939
853.40 0.3391907
853.50 0.3390875
853.60 0.3389844
853.70 0.3388814
853.80 0.3387785
853.90 0.3386757
854.00 0.338573
854.10 0.3384703
854.20 0.3383676
854.30 0.3382649
854.40 0.3381623
854.50 0.3380598
854.60 0.3379572
854.70 0.3378548
854.80 0.3377523
854.90 0.3376499
855.00 0.3375475
855.10 0.3374452
855.20 0.3373429
855.30 0.3372406
855.40 0.3371384
855.50 0.3370362
855.60 0.3369341
855.70 0.336832
855.80 0.3367299
855.90 0.3366279
856.00 0.3365259
856.10 0.336424
856.20 0.3363221
856.30 0.3362202
856.40 0.3361184
856.50 0.3360166
856.60 0.3359148
856.70 0.3358131
856.80 0.3357114
856.90 0.3356098
857.00 0.3355082
857.10 0.3354066
857.20 0.3353051
857.30 0.3352036
857.40 0.3351022
857.50 0.3350008
857.60 0.3348994
857.70 0.3347981
857.80 0.3346968
857.90 0.3345955
858.00 0.3344943
858.10 0.3343931
858.20 0.334292
858.30 0.3341909
858.40 0.3340898
858.50 0.3339888
858.60 0.3338878
858.70 0.3337868
858.80 0.3336859
858.90 0.333585
859.00 0.3334842
859.10 0.3333834
859.20 0.3332826
859.30 0.3331819
859.40 0.3330812
859.50 0.3329806
859.60 0.3328799
859.70 0.3327794
859.80 0.3326788
859.90 0.3325783
860.00 0.3324779
860.10 0.3323774
860.20 0.3322771
860.30 0.3321767
860.40 0.3320764
860.50 0.3319761
860.60 0.3318759
860.70 0.3317757
860.80 0.3316755
860.90 0.3315754
861.00 0.3314753
861.10 0.3313753
861.20 0.3312753
861.30 0.3311753
861.40 0.3310754
861.50 0.3309755
861.60 0.3308756
861.70 0.3307758
861.80 0.330676
861.90 0.3305763
862.00 0.3304765
862.10 0.3303769
862.20 0.3302773
862.30 0.3301779
862.40 0.3300786
862.50 0.3299793
862.60 0.32988
862.70 0.3297808
862.80 0.3296816
862.90 0.3295825
863.00 0.3294834
863.10 0.3293843
863.20 0.3292853
863.30 0.3291863
863.40 0.3290873
863.50 0.3289884
863.60 0.3288895
863.70 0.3287906
863.80 0.3286918
863.90 0.3285931
864.00 0.3284943
864.10 0.3283956
864.20 0.3282969
864.30 0.3281983
864.40 0.3280997
864.50 0.3280012
864.60 0.3279027
864.70 0.3278042
864.80 0.3277057
864.90 0.3276073
865.00 0.327509
865.10 0.3274106
865.20 0.3273123
865.30 0.3272141
865.40 0.3271158
865.50 0.3270177
865.60 0.3269195
865.70 0.3268214
865.80 0.3267233
865.90 0.3266253
866.00 0.3265273
866.10 0.3264293
866.20 0.3263314
866.30 0.3262335
866.40 0.3261356
866.50 0.3260378
866.60 0.32594
866.70 0.3258423
866.80 0.3257446
866.90 0.3256469
867.00 0.3255492
867.10 0.3254516
867.20 0.3253541
867.30 0.3252565
867.40 0.325159
867.50 0.3250616
867.60 0.3249642
867.70 0.3248668
867.80 0.3247694
867.90 0.3246721
868.00 0.3245748
868.10 0.3244776
868.20 0.3243804
868.30 0.3242832
868.40 0.3241861
868.50 0.324089
868.60 0.3239919
868.70 0.3238949
868.80 0.3237979
868.90 0.323701
869.00 0.3236041
869.10 0.3235072
869.20 0.3234104
869.30 0.3233135
869.40 0.3232168
869.50 0.32312
869.60 0.3230233
869.70 0.3229267
869.80 0.3228301
869.90 0.3227335
870.00 0.3226369
870.10 0.3225404
870.20 0.3224439
870.30 0.3223475
870.40 0.322251
870.50 0.3221547
870.60 0.3220583
870.70 0.321962
870.80 0.3218658
870.90 0.3217697
871.00 0.3216737
871.10 0.3215778
871.20 0.3214819
871.30 0.321386
871.40 0.3212902
871.50 0.3211944
871.60 0.3210986
871.70 0.3210029
871.80 0.3209072
871.90 0.3208115
872.00 0.3207159
872.10 0.3206203
872.20 0.3205248
872.30 0.3204293
872.40 0.3203338
872.50 0.3202383
872.60 0.3201429
872.70 0.3200476
872.80 0.3199522
872.90 0.3198569
873.00 0.3197617
873.10 0.3196664
873.20 0.3195712
873.30 0.3194761
873.40 0.3193809
873.50 0.3192858
873.60 0.3191908
873.70 0.3190958
873.80 0.3190008
873.90 0.3189058
874.00 0.3188109
874.10 0.318716
874.20 0.3186212
874.30 0.3185264
874.40 0.3184316
874.50 0.3183368
874.60 0.3182421
874.70 0.3181475
874.80 0.3180528
874.90 0.3179582
875.00 0.3178637
875.10 0.3177691
875.20 0.3176731
875.30 0.3175742
875.40 0.3174754
875.50 0.3173767
875.60 0.3172779
875.70 0.3171792
875.80 0.3170806
875.90 0.316982
876.00 0.3168834
876.10 0.3167848
876.20 0.3166863
876.30 0.3165879
876.40 0.3164894
876.50 0.316391
876.60 0.3162927
876.70 0.3161944
876.80 0.3160961
876.90 0.3159978
877.00 0.3158996
877.10 0.3158014
877.20 0.3157033
877.30 0.3156052
877.40 0.3155071
877.50 0.3154091
877.60 0.3153111
877.70 0.3152131
877.80 0.3151152
877.90 0.3150173
878.00 0.3149195
878.10 0.3148217
878.20 0.3147239
878.30 0.3146262
878.40 0.3145285
878.50 0.3144308
878.60 0.3143332
878.70 0.3142356
878.80 0.314138
878.90 0.3140405
879.00 0.313943
879.10 0.3138456
879.20 0.3137481
879.30 0.3136508
879.40 0.3135534
879.50 0.3134561
879.60 0.3133626
879.70 0.3132699
879.80 0.3131773
879.90 0.3130846
880.00 0.3129921
880.10 0.3128995
880.20 0.312807
880.30 0.3127145
880.40 0.3126221
880.50 0.3125297
880.60 0.3124373
880.70 0.3123449
880.80 0.3122526
880.90 0.3121603
881.00 0.3120681
881.10 0.3119759
881.20 0.3118837
881.30 0.3117916
881.40 0.3116995
881.50 0.3116074
881.60 0.3115154
881.70 0.3114234
881.80 0.3113314
881.90 0.3112394
882.00 0.3111475
882.10 0.3110557
882.20 0.3109638
882.30 0.310872
882.40 0.3107803
882.50 0.3106885
882.60 0.3105968
882.70 0.3105051
882.80 0.3104135
882.90 0.3103219
883.00 0.3102303
883.10 0.3101388
883.20 0.3100473
883.30 0.3099558
883.40 0.3098644
883.50 0.309773
883.60 0.3096816
883.70 0.3095903
883.80 0.309499
883.90 0.3094077
884.00 0.3093165
884.10 0.3092253
884.20 0.3091341
884.30 0.309043
884.40 0.3089519
884.50 0.3088608
884.60 0.3087698
884.70 0.3086788
884.80 0.3085878
884.90 0.3084968
885.00 0.3084059
885.10 0.3083151
885.20 0.3082242
885.30 0.3081334
885.40 0.3080426
885.50 0.3079519
885.60 0.3078612
885.70 0.3077705
885.80 0.3076799
885.90 0.3075893
886.00 0.3074987
886.10 0.3074082
886.20 0.3073176
886.30 0.3072272
886.40 0.3071367
886.50 0.3070463
886.60 0.3069559
886.70 0.3068656
886.80 0.3067753
886.90 0.306685
887.00 0.3065948
887.10 0.3065045
887.20 0.3064144
887.30 0.3063242
887.40 0.3062341
887.50 0.306144
887.60 0.306054
887.70 0.305964
887.80 0.305874
887.90 0.305784
888.00 0.3056941
888.10 0.3056042
888.20 0.3055144
888.30 0.3054246
888.40 0.3053331
888.50 0.3052415
888.60 0.3051499
888.70 0.3050584
888.80 0.3049669
888.90 0.3048754
889.00 0.3047839
889.10 0.3046925
889.20 0.3046011
889.30 0.3045097
889.40 0.3044184
889.50 0.3043271
889.60 0.3042359
889.70 0.3041446
889.80 0.3040535
889.90 0.3039623
890.00 0.3038712
890.10 0.3037801
890.20 0.303689
890.30 0.303598
890.40 0.303507
890.50 0.3034161
890.60 0.3033251
890.70 0.3032343
890.80 0.3031434
890.90 0.3030526
891.00 0.3029618
891.10 0.302871
891.20 0.3027803
891.30 0.3026896
891.40 0.3025989
891.50 0.3025083
891.60 0.3024177
891.70 0.3023272
891.80 0.3022366
891.90 0.3021462
892.00 0.3020557
892.10 0.3019653
892.20 0.3018749
892.30 0.3017845
892.40 0.3016942
892.50 0.3016039
892.60 0.3015136
892.70 0.3014234
892.80 0.3013332
892.90 0.301243
893.00 0.3011529
893.10 0.3010628
893.20 0.3009727
893.30 0.3008827
893.40 0.3007927
893.50 0.3007027
893.60 0.3006128
893.70 0.3005229
893.80 0.300433
893.90 0.3003432
894.00 0.3002534
894.10 0.3001636
894.20 0.3000739
894.30 0.2999842
894.40 0.2998945
894.50 0.2998049
894.60 0.2997153
894.70 0.2996257
894.80 0.2995361
894.90 0.2994466
895.00 0.2993571
895.10 0.2992677
895.20 0.2991783
895.30 0.2990889
895.40 0.2989996
895.50 0.2989102
895.60 0.298821
895.70 0.2987317
895.80 0.2986425
895.90 0.2985533
896.00 0.2984641
896.10 0.298375
896.20 0.2982859
896.30 0.2981969
896.40 0.2981079
896.50 0.2980189
896.60 0.2979299
896.70 0.297841
896.80 0.2977521
896.90 0.2976632
897.00 0.2975744
897.10 0.2974856
897.20 0.2973968
897.30 0.2973062
897.40 0.2972157
897.50 0.2971253
897.60 0.2970348
897.70 0.2969444
897.80 0.2968541
897.90 0.2967637
898.00 0.2966734
898.10 0.2965832
898.20 0.2964929
898.30 0.2964027
898.40 0.2963125
898.50 0.2962224
898.60 0.2961323
898.70 0.2960422
898.80 0.2959522
898.90 0.2958622
899.00 0.2957722
899.10 0.2956823
899.20 0.2955924
899.30 0.2955025
899.40 0.2954126
899.50 0.2953228
899.60 0.2952331
899.70 0.2951433
899.80 0.2950536
899.90 0.2949639
900.00 0.2948743
900.10 0.2947847
900.20 0.2946951
900.30 0.2946055
900.40 0.294516
900.50 0.2944265
900.60 0.2943371
900.70 0.2942476
900.80 0.2941583
900.90 0.2940689
901.00 0.2939796
901.10 0.2938903
901.20 0.293801
901.30 0.2937118
901.40 0.2936226
901.50 0.2935335
901.60 0.2934443
901.70 0.293356
901.80 0.2932709
901.90 0.2931859
902.00 0.2931009
902.10 0.2930159
902.20 0.2929309
902.30 0.292846
902.40 0.2927612
902.50 0.2926763
902.60 0.2925915
902.70 0.2925067
902.80 0.2924219
902.90 0.2923372
903.00 0.2922525
903.10 0.2921678
903.20 0.2920832
903.30 0.2919986
903.40 0.291914
903.50 0.2918295
903.60 0.291745
903.70 0.2916605
903.80 0.291576
903.90 0.2914916
904.00 0.2914072
904.10 0.2913228
904.20 0.2912385
904.30 0.2911542
904.40 0.2910699
904.50 0.2909857
904.60 0.2909015
904.70 0.2908173
904.80 0.2907331
904.90 0.290649
905.00 0.2905649
905.10 0.2904809
905.20 0.2903968
905.30 0.2903128
905.40 0.2902288
905.50 0.2901449
905.60 0.290061
905.70 0.2899771
905.80 0.2898933
905.90 0.2898094
906.00 0.2897256
906.10 0.2896419
906.20 0.289557
906.30 0.2894695
906.40 0.2893821
906.50 0.2892948
906.60 0.2892074
906.70 0.2891201
906.80 0.2890329
906.90 0.2889456
907.00 0.2888584
907.10 0.2887712
907.20 0.2886841
907.30 0.288597
907.40 0.2885099
907.50 0.2884228
907.60 0.2883358
907.70 0.2882488
907.80 0.2881619
907.90 0.2880749
908.00 0.287988
908.10 0.2879012
908.20 0.2878144
908.30 0.2877276
908.40 0.2876408
908.50 0.287554
908.60 0.2874673
908.70 0.2873807
908.80 0.287294
908.90 0.2872074
909.00 0.2871208
909.10 0.2870343
909.20 0.2869478
909.30 0.2868613
909.40 0.2867748
909.50 0.2866884
909.60 0.286602
909.70 0.2865156
909.80 0.2864293
909.90 0.286343
910.00 0.2862567
910.10 0.2861705
910.20 0.2860843
910.30 0.2859981
910.40 0.2859119
910.50 0.2858258
910.60 0.2857397
910.70 0.2856537
910.80 0.2855677
910.90 0.2854817
911.00 0.2853957
911.10 0.2853098
911.20 0.2852239
911.30 0.285138
911.40 0.2850522
911.50 0.2849663
911.60 0.2848806
911.70 0.2847948
911.80 0.2847091
911.90 0.2846234
912.00 0.2845378
912.10 0.2844521
912.20 0.2843666
912.30 0.284281
912.40 0.2841955
912.50 0.28411
912.60 0.2840245
912.70 0.283939
912.80 0.2838536
912.90 0.2837683
913.00 0.2836829
913.10 0.2835976
913.20 0.2835123
913.30 0.2834271
913.40 0.2833418
913.50 0.2832566
913.60 0.2831715
913.70 0.2830863
913.80 0.2830012
913.90 0.2829162
914.00 0.2828311
914.10 0.2827461
914.20 0.2826611
914.30 0.2825762
914.40 0.2824913
914.50 0.2824064
914.60 0.2823215
914.70 0.2822367
914.80 0.2821519
914.90 0.2820671
915.00 0.2819824
915.10 0.2818977
915.20 0.281813
915.30 0.2817312
915.40 0.2816506
915.50 0.28157
915.60 0.2814895
915.70 0.281409
915.80 0.2813285
915.90 0.2812481
916.00 0.2811677
916.10 0.2810873
916.20 0.2810069
916.30 0.2809266
916.40 0.2808463
916.50 0.280766
916.60 0.2806858
916.70 0.2806056
916.80 0.2805254
916.90 0.2804452
917.00 0.2803651
917.10 0.280285
917.20 0.2802049
917.30 0.2801249
917.40 0.2800448
917.50 0.2799649
917.60 0.2798849
917.70 0.279805
917.80 0.2797251
917.90 0.2796452
918.00 0.2795653
918.10 0.2794855
918.20 0.2794057
918.30 0.279326
918.40 0.2792462
918.50 0.2791665
918.60 0.2790868
918.70 0.2790072
918.80 0.2789276
918.90 0.278848
919.00 0.2787684
919.10 0.2786889
919.20 0.2786093
919.30 0.2785299
919.40 0.2784504
919.50 0.278371
919.60 0.2782916
919.70 0.2782122
919.80 0.2781329
919.90 0.27805
920.00 0.277967
920.10 0.2778839
920.20 0.2778009
920.30 0.277718
920.40 0.277635
920.50 0.2775521
920.60 0.2774692
920.70 0.2773864
920.80 0.2773036
920.90 0.2772208
921.00 0.277138
921.10 0.2770553
921.20 0.2769726
921.30 0.2768899
921.40 0.2768073
921.50 0.2767247
921.60 0.2766421
921.70 0.2765595
921.80 0.276477
921.90 0.2763945
922.00 0.276312
922.10 0.2762296
922.20 0.2761472
922.30 0.2760648
922.40 0.2759825
922.50 0.2759001
922.60 0.2758178
922.70 0.2757356
922.80 0.2756533
922.90 0.2755711
923.00 0.275489
923.10 0.2754068
923.20 0.2753247
923.30 0.2752426
923.40 0.2751606
923.50 0.2750785
923.60 0.2749965
923.70 0.2749146
923.80 0.2748326
923.90 0.2747507
924.00 0.2746688
924.10 0.274587
924.20 0.2745051
924.30 0.2744233
924.40 0.2743416
924.50 0.2742601
924.60 0.2741786
924.70 0.2740971
924.80 0.2740157
924.90 0.2739343
925.00 0.2738529
925.10 0.2737716
925.20 0.2736903
925.30 0.273609
925.40 0.2735277
925.50 0.2734465
925.60 0.2733653
925.70 0.2732841
925.80 0.273203
925.90 0.2731219
926.00 0.2730408
926.10 0.2729597
926.20 0.2728787
926.30 0.2727977
926.40 0.2727167
926.50 0.2726358
926.60 0.2725549
926.70 0.272474
926.80 0.2723931
926.90 0.2723123
927.00 0.2722315
927.10 0.2721507
927.20 0.27207
927.30 0.2719893
927.40 0.2719086
927.50 0.2718279
927.60 0.2717473
927.70 0.2716667
927.80 0.2715861
927.90 0.2715056
928.00 0.2714251
928.10 0.2713446
928.20 0.2712641
928.30 0.2711837
928.40 0.2711033
928.50 0.2710229
928.60 0.2709426
928.70 0.2708623
928.80 0.270782
928.90 0.2707017
929.00 0.2706215
929.10 0.2705413
929.20 0.2704611
929.30 0.270381
929.40 0.2703009
929.50 0.2702208
929.60 0.2701407
929.70 0.2700607
929.80 0.2699807
929.90 0.2699007
930.00 0.2698207
930.10 0.2697408
930.20 0.2696609
930.30 0.2695811
930.40 0.2695012
930.50 0.2694214
930.60 0.2693416
930.70 0.2692619
930.80 0.2691822
930.90 0.2691025
931.00 0.2690228
931.10 0.2689431
931.20 0.2688635
931.30 0.2687839
931.40 0.2687044
931.50 0.2686249
931.60 0.2685454
931.70 0.2684659
931.80 0.2683864
931.90 0.268307
932.00 0.2682276
932.10 0.2681483
932.20 0.2680689
932.30 0.2679896
932.40 0.2679104
932.50 0.2678311
932.60 0.2677519
932.70 0.2676727
932.80 0.2675935
932.90 0.2675144
933.00 0.2674353
933.10 0.2673562
933.20 0.2672771
933.30 0.2671981
933.40 0.2671191
933.50 0.2670401
933.60 0.2669612
933.70 0.2668824
933.80 0.2668038
933.90 0.2667251
934.00 0.2666465
934.10 0.2665679
934.20 0.2664893
934.30 0.2664108
934.40 0.2663323
934.50 0.2662538
934.60 0.2661754
934.70 0.2660969
934.80 0.2660185
934.90 0.2659402
935.00 0.2658618
935.10 0.2657835
935.20 0.2657052
935.30 0.265627
935.40 0.2655487
935.50 0.2654705
935.60 0.2653923
935.70 0.2653142
935.80 0.2652361
935.90 0.265158
936.00 0.2650799
936.10 0.2650018
936.20 0.2649238
936.30 0.2648458
936.40 0.2647679
936.50 0.2646899
936.60 0.264612
936.70 0.2645342
936.80 0.2644563
936.90 0.2643785
937.00 0.2643007
937.10 0.2642229
937.20 0.2641452
937.30 0.2640674
937.40 0.2639898
937.50 0.2639121
937.60 0.2638345
937.70 0.2637568
937.80 0.2636793
937.90 0.2636017
938.00 0.2635242
938.10 0.2634467
938.20 0.2633692
938.30 0.2632918
938.40 0.2632143
938.50 0.263137
938.60 0.2630596
938.70 0.2629823
938.80 0.2629049
938.90 0.2628277
939.00 0.2627504
939.10 0.2626732
939.20 0.262596
939.30 0.2625188
939.40 0.2624416
939.50 0.2623645
939.60 0.2622874
939.70 0.2622104
939.80 0.2621333
939.90 0.2620563
940.00 0.2619793
940.10 0.2619024
940.20 0.2618254
940.30 0.2617485
940.40 0.2616716
940.50 0.2615948
940.60 0.2615179
940.70 0.2614411
940.80 0.2613644
940.90 0.2612876
941.00 0.2612109
941.10 0.2611342
941.20 0.2610575
941.30 0.2609809
941.40 0.2609043
941.50 0.2608277
941.60 0.2607511
941.70 0.2606746
941.80 0.2605981
941.90 0.2605216
942.00 0.2604452
942.10 0.2603687
942.20 0.2602923
942.30 0.260216
942.40 0.2601396
942.50 0.2600633
942.60 0.259987
942.70 0.2599107
942.80 0.2598345
942.90 0.2597583
943.00 0.2596822
943.10 0.2596062
943.20 0.2595303
943.30 0.2594544
943.40 0.2593785
943.50 0.2593027
943.60 0.2592269
943.70 0.2591511
943.80 0.2590753
943.90 0.2589996
944.00 0.2589238
944.10 0.2588482
944.20 0.2587725
944.30 0.2586969
944.40 0.2586212
944.50 0.2585457
944.60 0.2584701
944.70 0.2583946
944.80 0.2583191
944.90 0.2582436
945.00 0.2581681
945.10 0.2580927
945.20 0.2580173
945.30 0.2579419
945.40 0.2578666
945.50 0.2577913
945.60 0.257716
945.70 0.2576407
945.80 0.2575655
945.90 0.2574902
946.00 0.2574151
946.10 0.2573399
946.20 0.2572647
946.30 0.2571896
946.40 0.2571145
946.50 0.2570395
946.60 0.2569644
946.70 0.2568894
946.80 0.2568145
946.90 0.2567395
947.00 0.2566646
947.10 0.2565897
947.20 0.2565148
947.30 0.2564399
947.40 0.2563651
947.50 0.2562903
947.60 0.2562155
947.70 0.2561408
947.80 0.256066
947.90 0.2559913
948.00 0.2559167
948.10 0.255842
948.20 0.2557674
948.30 0.2556928
948.40 0.2556182
948.50 0.2555437
948.60 0.2554692
948.70 0.2553947
948.80 0.2553202
948.90 0.2552458
949.00 0.2551714
949.10 0.255097
949.20 0.2550226
949.30 0.2549483
949.40 0.254874
949.50 0.2547997
949.60 0.2547254
949.70 0.2546512
949.80 0.254577
949.90 0.2545028
950.00 0.2544286
950.10 0.2543545
950.20 0.2542804
950.30 0.2542063
950.40 0.2541322
950.50 0.2540582
950.60 0.2539842
950.70 0.2539102
950.80 0.2538363
950.90 0.2537623
951.00 0.2536884
951.10 0.2536146
951.20 0.2535407
951.30 0.2534669
951.40 0.2533931
951.50 0.2533193
951.60 0.2532455
951.70 0.2531718
951.80 0.2530981
951.90 0.2530244
952.00 0.2529508
952.10 0.2528772
952.20 0.2528036
952.30 0.25273
952.40 0.2526565
952.50 0.2525831
952.60 0.2525098
952.70 0.2524366
952.80 0.2523633
952.90 0.2522901
953.00 0.2522169
953.10 0.2521437
953.20 0.2520706
953.30 0.2519975
953.40 0.2519244
953.50 0.2518513
953.60 0.2517783
953.70 0.2517053
953.80 0.2516323
953.90 0.2515593
954.00 0.2514864
954.10 0.2514134
954.20 0.2513405
954.30 0.2512677
954.40 0.2511948
954.50 0.251122
954.60 0.2510492
954.70 0.2509764
954.80 0.2509037
954.90 0.250831
955.00 0.2507583
955.10 0.2506856
955.20 0.250613
955.30 0.2505404
955.40 0.2504678
955.50 0.2503952
955.60 0.2503227
955.70 0.2502501
955.80 0.2501776
955.90 0.2501052
956.00 0.2500327
956.10 0.2499603
956.20 0.2498879
956.30 0.2498155
956.40 0.2497432
956.50 0.2496709
956.60 0.2495986
956.70 0.2495263
956.80 0.2494541
956.90 0.2493818
957.00 0.2493096
957.10 0.2492375
957.20 0.2491653
957.30 0.2490932
957.40 0.2490211
957.50 0.248949
957.60 0.248877
957.70 0.248805
957.80 0.248733
957.90 0.248661
958.00 0.248589
958.10 0.2485171
958.20 0.2484452
958.30 0.2483733
958.40 0.2483015
958.50 0.2482296
958.60 0.2481578
958.70 0.2480861
958.80 0.2480143
958.90 0.2479426
959.00 0.2478709
959.10 0.2477992
959.20 0.2477275
959.30 0.2476559
959.40 0.2475843
959.50 0.2475127
959.60 0.2474412
959.70 0.2473696
959.80 0.2472981
959.90 0.2472266
960.00 0.2471552
960.10 0.2470838
960.20 0.2470123
960.30 0.246941
960.40 0.2468696
960.50 0.2467983
960.60 0.2467269
960.70 0.2466557
960.80 0.2465844
960.90 0.2465131
961.00 0.2464419
961.10 0.2463707
961.20 0.2462996
961.30 0.2462284
961.40 0.2461573
961.50 0.2460862
961.60 0.2460151
961.70 0.2459441
961.80 0.2458731
961.90 0.2458021
962.00 0.2457313
962.10 0.2456605
962.20 0.2455898
962.30 0.2455191
962.40 0.2454484
962.50 0.2453777
962.60 0.2453071
962.70 0.2452365
962.80 0.2451659
962.90 0.2450954
963.00 0.2450248
963.10 0.2449543
963.20 0.2448838
963.30 0.2448134
963.40 0.2447429
963.50 0.2446725
963.60 0.2446021
963.70 0.2445317
963.80 0.2444614
963.90 0.2443911
964.00 0.2443208
964.10 0.2442505
964.20 0.2441802
964.30 0.24411
964.40 0.2440398
964.50 0.2439696
964.60 0.2438995
964.70 0.2438294
964.80 0.2437593
964.90 0.2436892
965.00 0.2436191
965.10 0.2435491
965.20 0.2434791
965.30 0.2434091
965.40 0.2433391
965.50 0.2432692
965.60 0.2431993
965.70 0.2431294
965.80 0.2430595
965.90 0.2429897
966.00 0.2429198
966.10 0.24285
966.20 0.2427803
966.30 0.2427105
966.40 0.2426408
966.50 0.2425711
966.60 0.2425014
966.70 0.2424318
966.80 0.2423621
966.90 0.2422925
967.00 0.2422229
967.10 0.2421534
967.20 0.2420838
967.30 0.2420143
967.40 0.2419448
967.50 0.2418754
967.60 0.2418059
967.70 0.2417365
967.80 0.2416671
967.90 0.2415977
968.00 0.2415284
968.10 0.2414591
968.20 0.2413898
968.30 0.2413205
968.40 0.2412512
968.50 0.241182
968.60 0.2411128
968.70 0.2410436
968.80 0.2409744
968.90 0.2409053
969.00 0.2408362
969.10 0.2407671
969.20 0.240698
969.30 0.240629
969.40 0.24056
969.50 0.240491
969.60 0.240422
969.70 0.240353
969.80 0.2402841
969.90 0.2402152
970.00 0.2401463
970.10 0.2400775
970.20 0.2400086
970.30 0.2399398
970.40 0.239871
970.50 0.2398023
970.60 0.2397335
970.70 0.2396648
970.80 0.2395961
970.90 0.2395274
971.00 0.2394588
971.10 0.2393902
971.20 0.2393216
971.30 0.239253
971.40 0.2391844
971.50 0.2391159
971.60 0.2390475
971.70 0.2389792
971.80 0.238911
971.90 0.2388427
972.00 0.2387745
972.10 0.2387063
972.20 0.2386381
972.30 0.2385699
972.40 0.2385018
972.50 0.2384337
972.60 0.2383656
972.70 0.2382975
972.80 0.2382295
972.90 0.2381615
973.00 0.2380935
973.10 0.2380255
973.20 0.2379576
973.30 0.2378896
973.40 0.2378217
973.50 0.2377538
973.60 0.237686
973.70 0.2376181
973.80 0.2375503
973.90 0.2374825
974.00 0.2374148
974.10 0.237347
974.20 0.2372793
974.30 0.2372116
974.40 0.2371439
974.50 0.2370763
974.60 0.2370086
974.70 0.236941
974.80 0.2368734
974.90 0.2368059
975.00 0.2367383
975.10 0.2366708
975.20 0.2366033
975.30 0.2365359
975.40 0.2364684
975.50 0.236401
975.60 0.2363336
975.70 0.2362662
975.80 0.2361988
975.90 0.2361315
976.00 0.2360642
976.10 0.2359969
976.20 0.2359296
976.30 0.2358624
976.40 0.2357952
976.50 0.235728
976.60 0.2356608
976.70 0.2355936
976.80 0.2355265
976.90 0.2354594
977.00 0.2353923
977.10 0.2353252
977.20 0.2352582
977.30 0.2351912
977.40 0.2351242
977.50 0.2350572
977.60 0.2349902
977.70 0.2349233
977.80 0.2348564
977.90 0.2347895
978.00 0.2347227
978.10 0.2346558
978.20 0.234589
978.30 0.2345222
978.40 0.2344554
978.50 0.2343887
978.60 0.234322
978.70 0.2342552
978.80 0.2341886
978.90 0.2341219
979.00 0.2340553
979.10 0.2339886
979.20 0.2339221
979.30 0.2338555
979.40 0.2337889
979.50 0.2337224
979.60 0.2336559
979.70 0.2335894
979.80 0.233523
979.90 0.2334565
980.00 0.2333901
980.10 0.2333237
980.20 0.2332573
980.30 0.233191
980.40 0.2331247
980.50 0.2330584
980.60 0.2329921
980.70 0.2329258
980.80 0.2328596
980.90 0.2327934
981.00 0.2327272
981.10 0.232661
981.20 0.2325948
981.30 0.232528
981.40 0.2324606
981.50 0.2323931
981.60 0.2323257
981.70 0.2322583
981.80 0.232191
981.90 0.2321236
982.00 0.2320563
982.10 0.231989
982.20 0.2319217
982.30 0.2318544
982.40 0.2317872
982.50 0.23172
982.60 0.2316528
982.70 0.2315856
982.80 0.2315185
982.90 0.2314514
983.00 0.2313843
983.10 0.2313172
983.20 0.2312501
983.30 0.2311831
983.40 0.2311161
983.50 0.2310491
983.60 0.2309821
983.70 0.2309152
983.80 0.2308483
983.90 0.2307814
984.00 0.2307145
984.10 0.2306476
984.20 0.2305808
984.30 0.230514
984.40 0.2304472
984.50 0.2303804
984.60 0.2303137
984.70 0.230247
984.80 0.2301803
984.90 0.2301136
985.00 0.2300469
985.10 0.2299803
985.20 0.2299137
985.30 0.2298471
985.40 0.2297806
985.50 0.229714
985.60 0.2296475
985.70 0.229581
985.80 0.2295145
985.90 0.2294481
986.00 0.2293816
986.10 0.2293152
986.20 0.2292488
986.30 0.2291825
986.40 0.2291161
986.50 0.2290498
986.60 0.2289835
986.70 0.2289173
986.80 0.228851
986.90 0.2287848
987.00 0.2287186
987.10 0.2286524
987.20 0.2285862
987.30 0.2285201
987.40 0.228454
987.50 0.2283879
987.60 0.2283218
987.70 0.2282557
987.80 0.2281897
987.90 0.2281237
988.00 0.2280577
988.10 0.2279917
988.20 0.2279258
988.30 0.2278599
988.40 0.227794
988.50 0.2277281
988.60 0.2276622
988.70 0.2275964
988.80 0.2275306
988.90 0.2274648
989.00 0.227399
989.10 0.2273333
989.20 0.2272676
989.30 0.2272019
989.40 0.2271362
989.50 0.2270705
989.60 0.2270049
989.70 0.2269393
989.80 0.2268737
989.90 0.2268081
990.00 0.2267426
990.10 0.226677
990.20 0.2266115
990.30 0.2265461
990.40 0.2264806
990.50 0.2264152
990.60 0.2263497
990.70 0.2262843
990.80 0.226219
990.90 0.2261536
991.00 0.2260883
991.10 0.2260236
991.20 0.22596
991.30 0.2258964
991.40 0.2258329
991.50 0.2257693
991.60 0.2257058
991.70 0.2256423
991.80 0.2255789
991.90 0.2255154
992.00 0.225452
992.10 0.2253886
992.20 0.2253252
992.30 0.2252619
992.40 0.2251985
992.50 0.2251352
992.60 0.2250719
992.70 0.2250086
992.80 0.2249453
992.90 0.2248821
993.00 0.2248189
993.10 0.2247557
993.20 0.2246925
993.30 0.2246294
993.40 0.2245662
993.50 0.2245031
993.60 0.22444
993.70 0.224377
993.80 0.2243139
993.90 0.2242509
994.00 0.2241879
994.10 0.2241249
994.20 0.2240619
994.30 0.223999
994.40 0.223936
994.50 0.2238731
994.60 0.2238103
994.70 0.2237474
994.80 0.2236846
994.90 0.2236217
995.00 0.2235589
995.10 0.2234961
995.20 0.2234334
995.30 0.2233707
995.40 0.2233079
995.50 0.2232452
995.60 0.2231826
995.70 0.2231199
995.80 0.2230573
995.90 0.2229947
996.00 0.2229321
996.10 0.2228695
996.20 0.2228069
996.30 0.2227444
996.40 0.2226819
996.50 0.2226194
996.60 0.222557
996.70 0.2224945
996.80 0.2224321
996.90 0.2223697
997.00 0.2223073
997.10 0.2222449
997.20 0.2221826
997.30 0.2221203
997.40 0.222058
997.50 0.2219957
997.60 0.2219334
997.70 0.2218712
997.80 0.221809
997.90 0.2217468
998.00 0.2216846
998.10 0.2216224
998.20 0.2215603
998.30 0.2214982
998.40 0.2214361
998.50 0.221374
998.60 0.2213119
998.70 0.2212499
998.80 0.2211879
998.90 0.2211259
999.00 0.2210639
999.10 0.221002
999.20 0.22094
999.30 0.2208781
999.40 0.2208162
999.50 0.2207543
999.60 0.2206925
999.70 0.2206307
999.80 0.2205688
999.90 0.2205071
1000.00 0.2204453
1000.10 0.2203835
1000.20 0.2203218
1000.30 0.2202601
1000.40 0.2201984
1000.50 0.2201367
1000.60 0.2200751
1000.70 0.2200134
1000.80 0.2199518
1000.90 0.2198902
1001.00 0.2198287
1001.10 0.2197673
1001.20 0.219706
1001.30 0.2196447
1001.40 0.2195833
1001.50 0.219522
1001.60 0.2194608
1001.70 0.2193995
1001.80 0.2193383
1001.90 0.2192771
1002.00 0.2192159
1002.10 0.2191547
1002.20 0.2190935
1002.30 0.2190324
1002.40 0.2189713
1002.50 0.2189102
1002.60 0.2188491
1002.70 0.2187881
1002.80 0.218727
1002.90 0.218666
1003.00 0.218605
1003.10 0.218544
1003.20 0.2184831
1003.30 0.2184222
1003.40 0.2183612
1003.50 0.2183003
1003.60 0.2182395
1003.70 0.2181786
1003.80 0.2181178
1003.90 0.218057
1004.00 0.2179962
1004.10 0.2179354
1004.20 0.2178746
1004.30 0.2178139
1004.40 0.2177532
1004.50 0.2176925
1004.60 0.2176318
1004.70 0.2175712
1004.80 0.2175105
1004.90 0.2174499
1005.00 0.2173893
1005.10 0.2173287
1005.20 0.2172682
1005.30 0.2172076
1005.40 0.2171471
1005.50 0.2170866
1005.60 0.2170261
1005.70 0.2169657
1005.80 0.2169052
1005.90 0.2168448
1006.00 0.2167838
1006.10 0.2167206
1006.20 0.2166573
1006.30 0.2165941
1006.40 0.2165309
1006.50 0.2164677
1006.60 0.2164045
1006.70 0.2163414
1006.80 0.2162783
1006.90 0.2162152
1007.00 0.2161521
1007.10 0.216089
1007.20 0.216026
1007.30 0.215963
1007.40 0.2159
1007.50 0.215837
1007.60 0.2157741
1007.70 0.2157111
1007.80 0.2156482
1007.90 0.2155853
1008.00 0.2155225
1008.10 0.2154596
1008.20 0.2153968
1008.30 0.215334
1008.40 0.2152712
1008.50 0.2152084
1008.60 0.2151457
1008.70 0.215083
1008.80 0.2150203
1008.90 0.2149576
1009.00 0.2148949
1009.10 0.2148323
1009.20 0.2147696
1009.30 0.214707
1009.40 0.2146445
1009.50 0.2145819
1009.60 0.2145194
1009.70 0.2144568
1009.80 0.2143944
1009.90 0.2143319
1010.00 0.2142694
1010.10 0.214207
1010.20 0.2141446
1010.30 0.2140822
1010.40 0.2140198
1010.50 0.2139574
1010.60 0.2138951
1010.70 0.2138328
1010.80 0.2137705
1010.90 0.2137082
1011.00 0.2136465
1011.10 0.2135873
1011.20 0.2135281
1011.30 0.2134689
1011.40 0.2134098
1011.50 0.2133506
1011.60 0.2132915
1011.70 0.2132324
1011.80 0.2131734
1011.90 0.2131143
1012.00 0.2130553
1012.10 0.2129963
1012.20 0.2129373
1012.30 0.2128783
1012.40 0.2128193
1012.50 0.2127604
1012.60 0.2127015
1012.70 0.2126426
1012.80 0.2125837
1012.90 0.2125249
1013.00 0.212466
1013.10 0.2124072
1013.20 0.2123484
1013.30 0.2122896
1013.40 0.2122308
1013.50 0.2121721
1013.60 0.2121134
1013.70 0.2120547
1013.80 0.211996
1013.90 0.2119373
1014.00 0.2118786
1014.10 0.21182
1014.20 0.2117614
1014.30 0.2117028
1014.40 0.2116442
1014.50 0.2115857
1014.60 0.2115271
1014.70 0.2114686
1014.80 0.2114101
1014.90 0.2113516
1015.00 0.2112932
1015.10 0.2112347
1015.20 0.2111763
1015.30 0.2111179
1015.40 0.2110595
1015.50 0.2110012
1015.60 0.2109428
1015.70 0.2108845
1015.80 0.2108262
1015.90 0.2107679
1016.00 0.2107096
1016.10 0.2106513
1016.20 0.2105931
1016.30 0.2105349
1016.40 0.2104767
1016.50 0.2104185
1016.60 0.2103604
1016.70 0.2103022
1016.80 0.2102441
1016.90 0.210186
1017.00 0.2101279
1017.10 0.2100698
1017.20 0.2100118
1017.30 0.2099538
1017.40 0.2098958
1017.50 0.2098378
1017.60 0.2097798
1017.70 0.2097218
1017.80 0.2096639
1017.90 0.209606
1018.00 0.2095481
1018.10 0.2094902
1018.20 0.2094324
1018.30 0.2093745
1018.40 0.2093167
1018.50 0.2092589
1018.60 0.2092011
1018.70 0.2091433
1018.80 0.2090856
1018.90 0.2090279
1019.00 0.2089702
1019.10 0.2089125
1019.20 0.2088548
1019.30 0.2087971
1019.40 0.2087395
1019.50 0.2086819
1019.60 0.2086243
1019.70 0.2085667
1019.80 0.2085091
1019.90 0.2084516
1020.00 0.2083941
1020.10 0.2083366
1020.20 0.2082791
1020.30 0.2082216
1020.40 0.2081642
1020.50 0.2081067
1020.60 0.2080493
1020.70 0.2079919
1020.80 0.2079346
1020.90 0.2078772
1021.00 0.2078199
1021.10 0.2077624
1021.20 0.2077025
1021.30 0.2076426
1021.40 0.2075828
1021.50 0.207523
1021.60 0.2074632
1021.70 0.2074034
1021.80 0.2073436
1021.90 0.2072839
1022.00 0.2072242
1022.10 0.2071645
1022.20 0.2071048
1022.30 0.2070451
1022.40 0.2069855
1022.50 0.2069258
1022.60 0.2068662
1022.70 0.2068066
1022.80 0.2067471
1022.90 0.2066875
1023.00 0.206628
1023.10 0.2065685
1023.20 0.206509
1023.30 0.2064495
1023.40 0.2063901
1023.50 0.2063307
1023.60 0.2062712
1023.70 0.2062118
1023.80 0.2061525
1023.90 0.2060931
1024.00 0.2060338
1024.10 0.2059745
1024.20 0.2059152
1024.30 0.2058559
1024.40 0.2057966
1024.50 0.2057374
1024.60 0.2056782
1024.70 0.205619
1024.80 0.2055598
1024.90 0.2055006
1025.00 0.2054415
1025.10 0.2053824
1025.20 0.2053233
1025.30 0.2052642
1025.40 0.2052051
1025.50 0.2051461
1025.60 0.205087
1025.70 0.205028
1025.80 0.204969
1025.90 0.2049101
1026.00 0.2048511
1026.10 0.2047922
1026.20 0.2047333
1026.30 0.2046771
1026.40 0.2046209
1026.50 0.2045648
1026.60 0.2045087
1026.70 0.2044525
1026.80 0.2043965
1026.90 0.2043404
1027.00 0.2042843
1027.10 0.2042283
1027.20 0.2041723
1027.30 0.2041163
1027.40 0.2040603
1027.50 0.2040043
1027.60 0.2039483
1027.70 0.2038924
1027.80 0.2038365
1027.90 0.2037806
1028.00 0.2037247
1028.10 0.2036689
1028.20 0.203613
1028.30 0.2035572
1028.40 0.2035014
1028.50 0.2034456
1028.60 0.2033898
1028.70 0.2033341
1028.80 0.2032783
1028.90 0.2032226
1029.00 0.2031669
1029.10 0.2031112
1029.20 0.2030556
1029.30 0.2029999
1029.40 0.2029443
1029.50 0.2028887
1029.60 0.2028331
1029.70 0.2027775
1029.80 0.202722
1029.90 0.2026664
1030.00 0.2026109
1030.10 0.2025554
1030.20 0.2024999
1030.30 0.2024444
1030.40 0.202389
1030.50 0.2023336
1030.60 0.2022781
1030.70 0.2022227
1030.80 0.2021674
1030.90 0.202112
1031.00 0.2020566
1031.10 0.2020013
1031.20 0.201946
1031.30 0.2018907
1031.40 0.201833
1031.50 0.2017753
1031.60 0.2017176
1031.70 0.2016598
1031.80 0.2016021
1031.90 0.2015445
1032.00 0.2014868
1032.10 0.2014292
1032.20 0.2013715
1032.30 0.2013139
1032.40 0.2012563
1032.50 0.2011988
1032.60 0.2011412
1032.70 0.2010837
1032.80 0.2010262
1032.90 0.2009687
1033.00 0.2009112
1033.10 0.2008537
1033.20 0.2007963
1033.30 0.2007389
1033.40 0.2006815
1033.50 0.2006241
1033.60 0.2005667
1033.70 0.2005094
1033.80 0.2004521
1033.90 0.2003947
1034.00 0.2003375
1034.10 0.2002802
1034.20 0.2002229
1034.30 0.2001657
1034.40 0.2001085
1034.50 0.2000513
1034.60 0.1999941
1034.70 0.1999369
1034.80 0.1998798
1034.90 0.1998227
1035.00 0.1997656
1035.10 0.1997085
1035.20 0.1996514
1035.30 0.1995943
1035.40 0.1995373
1035.50 0.1994803
1035.60 0.1994233
1035.70 0.1993663
1035.80 0.1993093
1035.90 0.1992524
1036.00 0.1991955
1036.10 0.1991386
1036.20 0.1990817
1036.30 0.1990248
1036.40 0.198968
1036.50 0.1989122
1036.60 0.198858
1036.70 0.1988038
1036.80 0.1987497
1036.90 0.1986955
1037.00 0.1986414
1037.10 0.1985873
1037.20 0.1985332
1037.30 0.1984792
1037.40 0.1984251
1037.50 0.1983711
1037.60 0.1983171
1037.70 0.1982631
1037.80 0.1982091
1037.90 0.1981551
1038.00 0.1981012
1038.10 0.1980473
1038.20 0.1979934
1038.30 0.1979395
1038.40 0.1978856
1038.50 0.1978317
1038.60 0.1977779
1038.70 0.1977241
1038.80 0.1976703
1038.90 0.1976165
1039.00 0.1975627
1039.10 0.1975089
1039.20 0.1974552
1039.30 0.1974015
1039.40 0.1973478
1039.50 0.1972941
1039.60 0.1972404
1039.70 0.1971868
1039.80 0.1971331
1039.90 0.1970795
1040.00 0.1970259
1040.10 0.1969723
1040.20 0.1969187
1040.30 0.1968652
1040.40 0.1968117
1040.50 0.1967581
1040.60 0.1967046
1040.70 0.1966511
1040.80 0.1965977
1040.90 0.1965442
1041.00 0.1964908
1041.10 0.1964374
1041.20 0.196384
1041.30 0.1963306
1041.40 0.1962772
1041.50 0.1962239
1041.60 0.1961705
1041.70 0.1961152
1041.80 0.1960595
1041.90 0.1960038
1042.00 0.1959481
1042.10 0.1958924
1042.20 0.1958368
1042.30 0.1957811
1042.40 0.1957255
1042.50 0.1956699
1042.60 0.1956143
1042.70 0.1955588
1042.80 0.1955032
1042.90 0.1954477
1043.00 0.1953922
1043.10 0.1953367
1043.20 0.1952812
1043.30 0.1952257
1043.40 0.1951703
1043.50 0.1951149
1043.60 0.1950595
1043.70 0.1950041
1043.80 0.1949487
1043.90 0.1948934
1044.00 0.194838
1044.10 0.1947827
1044.20 0.1947274
1044.30 0.1946721
1044.40 0.1946169
1044.50 0.1945616
1044.60 0.1945064
1044.70 0.1944512
1044.80 0.194396
1044.90 0.1943408
1045.00 0.1942856
1045.10 0.1942305
1045.20 0.1941754
1045.30 0.1941203
1045.40 0.1940652
1045.50 0.1940101
1045.60 0.1939551
1045.70 0.1939
1045.80 0.193845
1045.90 0.19379
1046.00 0.193735
1046.10 0.1936801
1046.20 0.1936251
1046.30 0.1935702
1046.40 0.1935153
1046.50 0.1934604
1046.60 0.1934055
1046.70 0.1933506
1046.80 0.1932958
1046.90 0.1932429
1047.00 0.1931906
1047.10 0.1931384
1047.20 0.1930862
1047.30 0.193034
1047.40 0.1929818
1047.50 0.1929296
1047.60 0.1928774
1047.70 0.1928253
1047.80 0.1927732
1047.90 0.1927211
1048.00 0.192669
1048.10 0.1926169
1048.20 0.1925649
1048.30 0.1925128
1048.40 0.1924608
1048.50 0.1924088
1048.60 0.1923568
1048.70 0.1923048
1048.80 0.1922529
1048.90 0.1922009
1049.00 0.192149
1049.10 0.1920971
1049.20 0.1920452
1049.30 0.1919933
1049.40 0.1919415
1049.50 0.1918896
1049.60 0.1918378
1049.70 0.191786
1049.80 0.1917342
1049.90 0.1916824
1050.00 0.1916306
1050.10 0.1915789
1050.20 0.1915272
1050.30 0.1914754
1050.40 0.1914237
1050.50 0.1913721
1050.60 0.1913204
1050.70 0.1912688
1050.80 0.1912171
1050.90 0.1911655
1051.00 0.1911139
1051.10 0.1910623
1051.20 0.1910107
1051.30 0.1909592
1051.40 0.1909077
1051.50 0.1908561
1051.60 0.1908046
1051.70 0.1907531
1051.80 0.1907017
1051.90 0.1906502
1052.00 0.1905988
1052.10 0.1905466
1052.20 0.1904941
1052.30 0.1904416
1052.40 0.1903891
1052.50 0.1903367
1052.60 0.1902842
1052.70 0.1902318
1052.80 0.1901794
1052.90 0.190127
1053.00 0.1900746
1053.10 0.1900223
1053.20 0.1899699
1053.30 0.1899176
1053.40 0.1898653
1053.50 0.189813
1053.60 0.1897607
1053.70 0.1897085
1053.80 0.1896562
1053.90 0.189604
1054.00 0.1895518
1054.10 0.1894996
1054.20 0.1894474
1054.30 0.1893952
1054.40 0.1893431
1054.50 0.189291
1054.60 0.1892388
1054.70 0.1891867
1054.80 0.1891347
1054.90 0.1890826
1055.00 0.1890306
1055.10 0.1889785
1055.20 0.1889265
1055.30 0.1888745
1055.40 0.1888225
1055.50 0.1887706
1055.60 0.1887186
1055.70 0.1886667
1055.80 0.1886148
1055.90 0.1885629
1056.00 0.188511
1056.10 0.1884591
1056.20 0.1884072
1056.30 0.1883554
1056.40 0.1883036
1056.50 0.1882518
1056.60 0.1882
1056.70 0.1881482
1056.80 0.1880965
1056.90 0.1880447
1057.00 0.187993
1057.10 0.1879413
1057.20 0.1878896
1057.30 0.1878379
1057.40 0.1877863
1057.50 0.1877346
1057.60 0.187683
1057.70 0.1876314
1057.80 0.1875798
1057.90 0.1875282
1058.00 0.1874767
1058.10 0.1874251
1058.20 0.1873736
1058.30 0.1873221
1058.40 0.1872706
1058.50 0.1872191
1058.60 0.1871676
1058.70 0.1871162
1058.80 0.1870648
1058.90 0.1870133
1059.00 0.1869619
1059.10 0.1869106
1059.20 0.1868592
1059.30 0.1868078
1059.40 0.1867565
1059.50 0.1867052
1059.60 0.1866539
1059.70 0.1866026
1059.80 0.1865513
1059.90 0.1865001
1060.00 0.1864488
1060.10 0.1863976
1060.20 0.1863464
1060.30 0.1862952
1060.40 0.186244
1060.50 0.1861929
1060.60 0.1861417
1060.70 0.1860906
1060.80 0.1860395
1060.90 0.1859884
1061.00 0.1859373
1061.10 0.1858862
1061.20 0.1858352
1061.30 0.1857842
1061.40 0.1857331
1061.50 0.1856821
1061.60 0.1856312
1061.70 0.1855802
1061.80 0.1855292
1061.90 0.1854783
1062.00 0.1854274
1062.10 0.1853765
1062.20 0.1853256
1062.30 0.1852747
1062.40 0.1852239
1062.50 0.185173
1062.60 0.1851217
1062.70 0.1850698
1062.80 0.185018
1062.90 0.1849661
1063.00 0.1849143
1063.10 0.1848625
1063.20 0.1848107
1063.30 0.184759
1063.40 0.1847072
1063.50 0.1846555
1063.60 0.1846038
1063.70 0.184552
1063.80 0.1845004
1063.90 0.1844487
1064.00 0.184397
1064.10 0.1843454
1064.20 0.1842938
1064.30 0.1842422
1064.40 0.1841906
1064.50 0.184139
1064.60 0.1840874
1064.70 0.1840359
1064.80 0.1839843
1064.90 0.1839328
1065.00 0.1838813
1065.10 0.1838299
1065.20 0.1837784
1065.30 0.1837269
1065.40 0.1836755
1065.50 0.1836241
1065.60 0.1835727
1065.70 0.1835213
1065.80 0.18347
1065.90 0.1834186
1066.00 0.1833673
1066.10 0.1833159
1066.20 0.1832646
1066.30 0.1832134
1066.40 0.1831621
1066.50 0.1831108
1066.60 0.1830596
1066.70 0.1830084
1066.80 0.1829572
1066.90 0.182906
1067.00 0.1828548
1067.10 0.1828036
1067.20 0.1827525
1067.30 0.1827014
1067.40 0.1826502
1067.50 0.1825992
1067.60 0.1825481
1067.70 0.182497
1067.80 0.182446
1067.90 0.1823957
1068.00 0.1823471
1068.10 0.1822985
1068.20 0.1822499
1068.30 0.1822014
1068.40 0.1821528
1068.50 0.1821043
1068.60 0.1820558
1068.70 0.1820073
1068.80 0.1819588
1068.90 0.1819103
1069.00 0.1818618
1069.10 0.1818134
1069.20 0.181765
1069.30 0.1817165
1069.40 0.1816681
1069.50 0.1816198
1069.60 0.1815714
1069.70 0.181523
1069.80 0.1814747
1069.90 0.1814264
1070.00 0.1813781
1070.10 0.1813298
1070.20 0.1812815
1070.30 0.1812332
1070.40 0.181185
1070.50 0.1811367
1070.60 0.1810885
1070.70 0.1810403
1070.80 0.1809921
1070.90 0.1809439
1071.00 0.1808958
1071.10 0.1808476
1071.20 0.1807995
1071.30 0.1807514
1071.40 0.1807033
1071.50 0.1806552
1071.60 0.1806071
1071.70 0.180559
1071.80 0.180511
1071.90 0.180463
1072.00 0.180415
1072.10 0.180367
1072.20 0.180319
1072.30 0.180271
1072.40 0.180223
1072.50 0.1801751
1072.60 0.1801272
1072.70 0.1800793
1072.80 0.1800314
1072.90 0.1799835
1073.00 0.1799356
1073.10 0.1798878
1073.20 0.1798395
1073.30 0.1797894
1073.40 0.1797394
1073.50 0.1796894
1073.60 0.1796394
1073.70 0.1795894
1073.80 0.1795395
1073.90 0.1794895
1074.00 0.1794396
1074.10 0.1793897
1074.20 0.1793398
1074.30 0.1792899
1074.40 0.17924
1074.50 0.1791902
1074.60 0.1791403
1074.70 0.1790905
1074.80 0.1790407
1074.90 0.1789909
1075.00 0.1789411
1075.10 0.1788914
1075.20 0.1788416
1075.30 0.1787919
1075.40 0.1787422
1075.50 0.1786925
1075.60 0.1786428
1075.70 0.1785931
1075.80 0.1785435
1075.90 0.1784938
1076.00 0.1784442
1076.10 0.1783946
1076.20 0.178345
1076.30 0.1782954
1076.40 0.1782459
1076.50 0.1781963
1076.60 0.1781468
1076.70 0.1780973
1076.80 0.1780478
1076.90 0.1779983
1077.00 0.1779488
1077.10 0.1778994
1077.20 0.1778499
1077.30 0.1778005
1077.40 0.1777511
1077.50 0.1777017
1077.60 0.1776523
1077.70 0.1776029
1077.80 0.1775536
1077.90 0.1775043
1078.00 0.1774549
1078.10 0.1774056
1078.20 0.1773564
1078.30 0.1773071
1078.40 0.1772578
1078.50 0.1772086
1078.60 0.1771594
1078.70 0.1771102
1078.80 0.177061
1078.90 0.1770118
1079.00 0.1769626
1079.10 0.1769135
1079.20 0.1768643
1079.30 0.1768152
1079.40 0.1767661
1079.50 0.176717
1079.60 0.1766679
1079.70 0.1766189
1079.80 0.1765698
1079.90 0.1765208
1080.00 0.1764718
1080.10 0.1764228
1080.20 0.1763738
1080.30 0.1763249
1080.40 0.1762759
1080.50 0.176227
1080.60 0.176178
1080.70 0.1761291
1080.80 0.1760802
1080.90 0.1760314
1081.00 0.1759825
1081.10 0.1759337
1081.20 0.1758848
1081.30 0.175836
1081.40 0.1757872
1081.50 0.1757384
1081.60 0.1756896
1081.70 0.1756409
1081.80 0.1755921
1081.90 0.1755434
1082.00 0.1754947
1082.10 0.175446
1082.20 0.1753973
1082.30 0.1753487
1082.40 0.1753
1082.50 0.1752514
1082.60 0.1752028
1082.70 0.1751541
1082.80 0.1751056
1082.90 0.175057
1083.00 0.1750084
1083.10 0.1749599
1083.20 0.1749113
1083.30 0.1748628
1083.40 0.1748143
1083.50 0.1747658
1083.60 0.1747174
1083.70 0.1746689
1083.80 0.1746205
1083.90 0.174572
1084.00 0.1745258
1084.10 0.1744799
1084.20 0.1744339
1084.30 0.174388
1084.40 0.1743421
1084.50 0.1742962
1084.60 0.1742503
1084.70 0.1742045
1084.80 0.1741586
1084.90 0.1741128
1085.00 0.174067
1085.10 0.1740212
1085.20 0.1739754
1085.30 0.1739296
1085.40 0.1738838
1085.50 0.1738381
1085.60 0.1737923
1085.70 0.1737466
1085.80 0.1737009
1085.90 0.1736552
1086.00 0.1736095
1086.10 0.1735639
1086.20 0.1735182
1086.30 0.1734726
1086.40 0.173427
1086.50 0.1733813
1086.60 0.1733357
1086.70 0.1732902
1086.80 0.1732446
1086.90 0.173199
1087.00 0.1731535
1087.10 0.173108
1087.20 0.1730625
1087.30 0.173017
1087.40 0.1729715
1087.50 0.172926
1087.60 0.1728805
1087.70 0.1728351
1087.80 0.1727897
1087.90 0.1727442
1088.00 0.1726988
1088.10 0.1726534
1088.20 0.1726081
1088.30 0.1725627
1088.40 0.1725174
1088.50 0.172472
1088.60 0.1724267
1088.70 0.1723814
1088.80 0.1723361
1088.90 0.1722908
1089.00 0.1722456
1089.10 0.1722003
1089.20 0.1721551
1089.30 0.1721098
1089.40 0.1720631
1089.50 0.1720156
1089.60 0.1719681
1089.70 0.1719207
1089.80 0.1718733
1089.90 0.1718259
1090.00 0.1717785
1090.10 0.1717311
1090.20 0.1716837
1090.30 0.1716364
1090.40 0.171589
1090.50 0.1715417
1090.60 0.1714944
1090.70 0.1714471
1090.80 0.1713998
1090.90 0.1713525
1091.00 0.1713053
1091.10 0.171258
1091.20 0.1712108
1091.30 0.1711636
1091.40 0.1711164
1091.50 0.1710692
1091.60 0.1710221
1091.70 0.1709749
1091.80 0.1709278
1091.90 0.1708807
1092.00 0.1708336
1092.10 0.1707865
1092.20 0.1707394
1092.30 0.1706923
1092.40 0.1706453
1092.50 0.1705982
1092.60 0.1705512
1092.70 0.1705042
1092.80 0.1704572
1092.90 0.1704102
1093.00 0.1703633
1093.10 0.1703163
1093.20 0.1702694
1093.30 0.1702225
1093.40 0.1701755
1093.50 0.1701287
1093.60 0.1700818
1093.70 0.1700349
1093.80 0.1699881
1093.90 0.1699412
1094.00 0.1698944
1094.10 0.1698476
1094.20 0.1698008
1094.30 0.169754
1094.40 0.1697073
1094.50 0.1696605
1094.60 0.1696138
1094.70 0.1695671
1094.80 0.169521
1094.90 0.1694756
1095.00 0.1694301
1095.10 0.1693848
1095.20 0.1693394
1095.30 0.169294
1095.40 0.1692487
1095.50 0.1692033
1095.60 0.169158
1095.70 0.1691127
1095.80 0.1690674
1095.90 0.1690221
1096.00 0.1689768
1096.10 0.1689316
1096.20 0.1688863
1096.30 0.1688411
1096.40 0.1687959
1096.50 0.1687507
1096.60 0.1687055
1096.70 0.1686603
1096.80 0.1686151
1096.90 0.16857
1097.00 0.1685248
1097.10 0.1684797
1097.20 0.1684346
1097.30 0.1683895
1097.40 0.1683444
1097.50 0.1682994
1097.60 0.1682543
1097.70 0.1682093
1097.80 0.1681643
1097.90 0.1681192
1098.00 0.1680742
1098.10 0.1680293
1098.20 0.1679843
1098.30 0.1679393
1098.40 0.1678944
1098.50 0.1678495
1098.60 0.1678045
1098.70 0.1677596
1098.80 0.1677147
1098.90 0.1676699
1099.00 0.167625
1099.10 0.1675802
1099.20 0.1675353
1099.30 0.1674905
1099.40 0.1674457
1099.50 0.1674009
1099.60 0.1673561
1099.70 0.1673113
1099.80 0.1672666
1099.90 0.1672219
1100.00 0.1671771
1100.10 0.1671324
1100.20 0.1670877
1100.30 0.167043
1100.40 0.1669983
1100.50 0.1669537
1100.60 0.166909
1100.70 0.1668644
1100.80 0.1668198
1100.90 0.1667752
1101.00 0.1667306
1101.10 0.166686
1101.20 0.1666414
1101.30 0.1665969
1101.40 0.1665524
1101.50 0.1665078
1101.60 0.1664633
1101.70 0.1664188
1101.80 0.1663743
1101.90 0.1663299
1102.00 0.1662854
1102.10 0.166241
1102.20 0.1661965
1102.30 0.1661521
1102.40 0.1661077
1102.50 0.1660633
1102.60 0.1660189
1102.70 0.1659746
1102.80 0.1659302
1102.90 0.1658859
1103.00 0.1658415
1103.10 0.1657972
1103.20 0.1657529
1103.30 0.1657087
1103.40 0.1656644
1103.50 0.1656201
1103.60 0.1655759
1103.70 0.1655316
1103.80 0.1654874
1103.90 0.1654432
1104.00 0.165399
1104.10 0.1653549
1104.20 0.1653107
1104.30 0.1652665
1104.40 0.1652224
1104.50 0.1651783
1104.60 0.1651342
1104.70 0.1650901
1104.80 0.165046
1104.90 0.1650019
1105.00 0.1649578
1105.10 0.1649138
1105.20 0.1648698
1105.30 0.1648258
1105.40 0.1647817
1105.50 0.1647378
1105.60 0.1646938
1105.70 0.1646498
1105.80 0.1646049
1105.90 0.16456
1106.00 0.1645151
1106.10 0.1644703
1106.20 0.1644255
1106.30 0.1643806
1106.40 0.1643358
1106.50 0.164291
1106.60 0.1642462
1106.70 0.1642015
1106.80 0.1641567
1106.90 0.164112
1107.00 0.1640672
1107.10 0.1640225
1107.20 0.1639778
1107.30 0.1639331
1107.40 0.1638884
1107.50 0.1638438
1107.60 0.1637991
1107.70 0.1637545
1107.80 0.1637099
1107.90 0.1636653
1108.00 0.1636207
1108.10 0.1635761
1108.20 0.1635315
1108.30 0.163487
1108.40 0.1634424
1108.50 0.1633979
1108.60 0.1633534
1108.70 0.1633089
1108.80 0.1632644
1108.90 0.1632199
1109.00 0.1631754
1109.10 0.163131
1109.20 0.1630866
1109.30 0.1630421
1109.40 0.1629977
1109.50 0.1629533
1109.60 0.1629089
1109.70 0.1628646
1109.80 0.1628202
1109.90 0.1627759
1110.00 0.1627316
1110.10 0.1626872
1110.20 0.1626429
1110.30 0.1625986
1110.40 0.1625544
1110.50 0.1625101
1110.60 0.1624659
1110.70 0.1624216
1110.80 0.1623774
1110.90 0.1623332
1111.00 0.162289
1111.10 0.1622448
1111.20 0.1622007
1111.30 0.1621565
1111.40 0.1621124
1111.50 0.1620682
1111.60 0.1620241
1111.70 0.16198
1111.80 0.1619359
1111.90 0.1618918
1112.00 0.1618478
1112.10 0.1618037
1112.20 0.1617597
1112.30 0.1617157
1112.40 0.1616717
1112.50 0.1616277
1112.60 0.1615837
1112.70 0.1615397
1112.80 0.1614957
1112.90 0.1614518
1113.00 0.1614079
1113.10 0.161364
1113.20 0.1613201
1113.30 0.1612762
1113.40 0.1612323
1113.50 0.1611884
1113.60 0.1611446
1113.70 0.1611007
1113.80 0.1610569
1113.90 0.1610131
1114.00 0.1609693
1114.10 0.1609255
1114.20 0.1608817
1114.30 0.160838
1114.40 0.1607942
1114.50 0.1607505
1114.60 0.1607068
1114.70 0.1606631
1114.80 0.1606194
1114.90 0.1605757
1115.00 0.160532
1115.10 0.1604884
1115.20 0.1604447
1115.30 0.1604011
1115.40 0.1603575
1115.50 0.1603139
1115.60 0.1602703
1115.70 0.1602267
1115.80 0.1601831
1115.90 0.1601396
1116.00 0.1600961
1116.10 0.1600525
1116.20 0.160009
1116.30 0.1599655
1116.40 0.159922
1116.50 0.1598786
1116.60 0.1598351
1116.70 0.1597917
1116.80 0.1597492
1116.90 0.1597081
1117.00 0.1596669
1117.10 0.1596257
1117.20 0.1595846
1117.30 0.1595435
1117.40 0.1595023
1117.50 0.1594612
1117.60 0.1594202
1117.70 0.1593791
1117.80 0.159338
1117.90 0.1592969
1118.00 0.1592559
1118.10 0.1592149
1118.20 0.1591738
1118.30 0.1591328
1118.40 0.1590918
1118.50 0.1590509
1118.60 0.1590099
1118.70 0.1589689
1118.80 0.158928
1118.90 0.1588871
1119.00 0.1588461
1119.10 0.1588052
1119.20 0.1587643
1119.30 0.1587234
1119.40 0.1586826
1119.50 0.1586417
1119.60 0.1586008
1119.70 0.15856
1119.80 0.1585192
1119.90 0.1584784
1120.00 0.1584376
1120.10 0.1583968
1120.20 0.158356
1120.30 0.1583152
1120.40 0.1582745
1120.50 0.1582337
1120.60 0.158193
1120.70 0.1581523
1120.80 0.1581116
1120.90 0.1580709
1121.00 0.1580302
1121.10 0.1579895
1121.20 0.1579489
1121.30 0.1579082
1121.40 0.1578676
1121.50 0.157827
1121.60 0.1577864
1121.70 0.1577458
1121.80 0.1577052
1121.90 0.1576646
1122.00 0.157624
1122.10 0.1575835
1122.20 0.157543
1122.30 0.1575024
1122.40 0.1574606
1122.50 0.1574181
1122.60 0.1573755
1122.70 0.1573329
1122.80 0.1572904
1122.90 0.1572479
1123.00 0.1572054
1123.10 0.1571629
1123.20 0.1571204
1123.30 0.1570779
1123.40 0.1570354
1123.50 0.156993
1123.60 0.1569505
1123.70 0.1569081
1123.80 0.1568657
1123.90 0.1568233
1124.00 0.1567809
1124.10 0.1567385
1124.20 0.1566961
1124.30 0.1566538
1124.40 0.1566115
1124.50 0.1565691
1124.60 0.1565268
1124.70 0.1564845
1124.80 0.1564422
1124.90 0.1563999
1125.00 0.1563577
1125.10 0.1563154
1125.20 0.1562732
1125.30 0.156231
1125.40 0.1561888
1125.50 0.1561465
1125.60 0.1561044
1125.70 0.1560622
1125.80 0.15602
1125.90 0.1559779
1126.00 0.1559357
1126.10 0.1558936
1126.20 0.1558515
1126.30 0.1558094
1126.40 0.1557673
1126.50 0.1557252
1126.60 0.1556832
1126.70 0.1556411
1126.80 0.1555991
1126.90 0.155557
1127.00 0.155515
1127.10 0.155473
1127.20 0.155431
1127.30 0.1553891
1127.40 0.1553471
1127.50 0.1553051
1127.60 0.1552632
1127.70 0.1552213
1127.80 0.1551794
1127.90 0.1551375
1128.00 0.1550965
1128.10 0.1550558
1128.20 0.1550151
1128.30 0.1549744
1128.40 0.1549337
1128.50 0.154893
1128.60 0.1548524
1128.70 0.1548117
1128.80 0.1547711
1128.90 0.1547305
1129.00 0.1546899
1129.10 0.1546493
1129.20 0.1546087
1129.30 0.1545681
1129.40 0.1545276
1129.50 0.154487
1129.60 0.1544465
1129.70 0.154406
1129.80 0.1543654
1129.90 0.1543249
1130.00 0.1542845
1130.10 0.154244
1130.20 0.1542035
1130.30 0.1541631
1130.40 0.1541226
1130.50 0.1540822
1130.60 0.1540418
1130.70 0.1540014
1130.80 0.153961
1130.90 0.1539206
1131.00 0.1538802
1131.10 0.1538399
1131.20 0.1537995
1131.30 0.1537592
1131.40 0.1537189
1131.50 0.1536786
1131.60 0.1536383
1131.70 0.153598
1131.80 0.1535577
1131.90 0.1535174
1132.00 0.1534772
1132.10 0.153437
1132.20 0.1533967
1132.30 0.1533565
1132.40 0.1533163
1132.50 0.1532761
1132.60 0.1532359
1132.70 0.1531958
1132.80 0.1531556
1132.90 0.1531155
1133.00 0.1530753
1133.10 0.1530352
1133.20 0.1529951
1133.30 0.152955
1133.40 0.1529149
1133.50 0.1528748
1133.60 0.1528348
1133.70 0.1527947
1133.80 0.1527547
1133.90 0.1527147
1134.00 0.1526747
1134.10 0.1526347
1134.20 0.1525947
1134.30 0.1525547
1134.40 0.1525147
1134.50 0.1524748
1134.60 0.1524348
1134.70 0.1523949
1134.80 0.152355
1134.90 0.1523151
1135.00 0.1522752
1135.10 0.1522353
1135.20 0.1521954
1135.30 0.1521555
1135.40 0.1521157
1135.50 0.1520758
1135.60 0.152036
1135.70 0.1519962
1135.80 0.1519564
1135.90 0.1519166
1136.00 0.1518768
1136.10 0.1518371
1136.20 0.1517973
1136.30 0.1517575
1136.40 0.1517178
1136.50 0.1516781
1136.60 0.1516384
1136.70 0.1515987
1136.80 0.151559
1136.90 0.1515193
1137.00 0.1514797
1137.10 0.15144
1137.20 0.1514004
1137.30 0.1513607
1137.40 0.1513211
1137.50 0.1512815
1137.60 0.1512419
1137.70 0.1512023
1137.80 0.1511628
1137.90 0.1511232
1138.00 0.1510836
1138.10 0.1510441
1138.20 0.1510046
1138.30 0.1509651
1138.40 0.1509256
1138.50 0.1508861
1138.60 0.1508466
1138.70 0.1508071
1138.80 0.1507677
1138.90 0.1507282
1139.00 0.1506888
1139.10 0.1506494
1139.20 0.15061
1139.30 0.1505697
1139.40 0.1505295
1139.50 0.1504892
1139.60 0.150449
1139.70 0.1504088
1139.80 0.1503686
1139.90 0.1503284
1140.00 0.1502882
1140.10 0.1502481
1140.20 0.1502079
1140.30 0.1501678
1140.40 0.1501277
1140.50 0.1500875
1140.60 0.1500474
1140.70 0.1500073
1140.80 0.1499673
1140.90 0.1499272
1141.00 0.1498871
1141.10 0.1498471
1141.20 0.149807
1141.30 0.149767
1141.40 0.149727
1141.50 0.149687
1141.60 0.149647
1141.70 0.1496071
1141.80 0.1495671
1141.90 0.1495271
1142.00 0.1494872
1142.10 0.1494473
1142.20 0.1494073
1142.30 0.1493674
1142.40 0.1493275
1142.50 0.1492877
1142.60 0.1492478
1142.70 0.1492079
1142.80 0.1491681
1142.90 0.1491283
1143.00 0.1490884
1143.10 0.1490486
1143.20 0.1490088
1143.30 0.148969
1143.40 0.1489292
1143.50 0.1488895
1143.60 0.1488497
1143.70 0.14881
1143.80 0.1487703
1143.90 0.1487305
1144.00 0.1486908
1144.10 0.1486511
1144.20 0.1486114
1144.30 0.1485718
1144.40 0.1485321
1144.50 0.1484925
1144.60 0.1484528
1144.70 0.1484132
1144.80 0.1483736
1144.90 0.148334
1145.00 0.1482944
1145.10 0.1482548
1145.20 0.1482152
1145.30 0.1481757
1145.40 0.1481361
1145.50 0.1480966
1145.60 0.1480571
1145.70 0.1480176
1145.80 0.1479781
1145.90 0.1479386
1146.00 0.1478991
1146.10 0.1478596
1146.20 0.1478202
1146.30 0.1477807
1146.40 0.1477413
1146.50 0.1477019
1146.60 0.1476625
1146.70 0.1476231
1146.80 0.1475837
1146.90 0.1475443
1147.00 0.147505
1147.10 0.1474656
1147.20 0.1474263
1147.30 0.147387
1147.40 0.1473476
1147.50 0.1473083
1147.60 0.147269
1147.70 0.1472298
1147.80 0.1471905
1147.90 0.1471512
1148.00 0.147112
1148.10 0.1470727
1148.20 0.1470335
1148.30 0.1469943
1148.40 0.1469551
1148.50 0.1469159
1148.60 0.1468767
1148.70 0.1468376
1148.80 0.1467984
1148.90 0.1467593
1149.00 0.1467201
1149.10 0.146681
1149.20 0.1466419
1149.30 0.1466028
1149.40 0.1465637
1149.50 0.1465247
1149.60 0.1464856
1149.70 0.1464465
1149.80 0.1464075
1149.90 0.1463685
1150.00 0.1463294
1150.10 0.1462904
1150.20 0.1462514
1150.30 0.1462125
1150.40 0.1461735
1150.50 0.1461345
1150.60 0.1460957
1150.70 0.1460588
1150.80 0.1460219
1150.90 0.1459851
1151.00 0.1459482
1151.10 0.1459113
1151.20 0.1458745
1151.30 0.1458377
1151.40 0.1458009
1151.50 0.1457641
1151.60 0.1457273
1151.70 0.1456905
1151.80 0.1456537
1151.90 0.1456169
1152.00 0.1455802
1152.10 0.1455434
1152.20 0.1455067
1152.30 0.14547
1152.40 0.1454333
1152.50 0.1453966
1152.60 0.1453599
1152.70 0.1453232
1152.80 0.1452865
1152.90 0.1452499
1153.00 0.1452132
1153.10 0.1451766
1153.20 0.14514
1153.30 0.1451034
1153.40 0.1450667
1153.50 0.1450302
1153.60 0.1449936
1153.70 0.144957
1153.80 0.1449204
1153.90 0.1448839
1154.00 0.1448473
1154.10 0.1448108
1154.20 0.1447743
1154.30 0.1447378
1154.40 0.1447013
1154.50 0.1446648
1154.60 0.1446283
1154.70 0.1445918
1154.80 0.1445554
1154.90 0.1445189
1155.00 0.1444825
1155.10 0.1444461
1155.20 0.1444096
1155.30 0.1443732
1155.40 0.1443368
1155.50 0.1443005
1155.60 0.1442641
1155.70 0.1442277
1155.80 0.1441914
1155.90 0.144155
1156.00 0.1441187
1156.10 0.1440824
1156.20 0.144046
1156.30 0.1440097
1156.40 0.1439724
1156.50 0.1439343
1156.60 0.1438961
1156.70 0.1438579
1156.80 0.1438198
1156.90 0.1437817
1157.00 0.1437435
1157.10 0.1437054
1157.20 0.1436673
1157.30 0.1436293
1157.40 0.1435912
1157.50 0.1435531
1157.60 0.1435151
1157.70 0.143477
1157.80 0.143439
1157.90 0.143401
1158.00 0.143363
1158.10 0.143325
1158.20 0.143287
1158.30 0.143249
1158.40 0.143211
1158.50 0.1431731
1158.60 0.1431351
1158.70 0.1430972
1158.80 0.1430593
1158.90 0.1430214
1159.00 0.1429835
1159.10 0.1429456
1159.20 0.1429077
1159.30 0.1428698
1159.40 0.142832
1159.50 0.1427941
1159.60 0.1427563
1159.70 0.1427185
1159.80 0.1426807
1159.90 0.1426429
1160.00 0.1426051
1160.10 0.1425673
1160.20 0.1425295
1160.30 0.1424918
1160.40 0.142454
1160.50 0.1424163
1160.60 0.1423786
1160.70 0.1423409
1160.80 0.1423032
1160.90 0.1422655
1161.00 0.1422278
1161.10 0.1421901
1161.20 0.1421525
1161.30 0.1421148
1161.40 0.1420772
1161.50 0.1420395
1161.60 0.1420019
1161.70 0.1419643
1161.80 0.1419267
1161.90 0.1418892
1162.00 0.1418516
1162.10 0.141814
1162.20 0.1417766
1162.30 0.1417392
1162.40 0.1417018
1162.50 0.1416644
1162.60 0.141627
1162.70 0.1415896
1162.80 0.1415523
1162.90 0.1415149
1163.00 0.1414776
1163.10 0.1414403
1163.20 0.1414029
1163.30 0.1413656
1163.40 0.1413283
1163.50 0.1412911
1163.60 0.1412538
1163.70 0.1412165
1163.80 0.1411793
1163.90 0.141142
1164.00 0.1411048
1164.10 0.1410676
1164.20 0.1410304
1164.30 0.1409932
1164.40 0.140956
1164.50 0.1409188
1164.60 0.1408816
1164.70 0.1408445
1164.80 0.1408073
1164.90 0.1407702
1165.00 0.1407331
1165.10 0.140696
1165.20 0.1406589
1165.30 0.1406218
1165.40 0.1405847
1165.50 0.1405476
1165.60 0.1405106
1165.70 0.1404735
1165.80 0.1404365
1165.90 0.1403994
1166.00 0.1403624
1166.10 0.1403254
1166.20 0.1402884
1166.30 0.1402514
1166.40 0.1402145
1166.50 0.1401775
1166.60 0.1401406
1166.70 0.1401036
1166.80 0.1400667
1166.90 0.1400298
1167.00 0.1399928
1167.10 0.1399559
1167.20 0.1399191
1167.30 0.1398822
1167.40 0.1398453
1167.50 0.1398084
1167.60 0.1397716
1167.70 0.1397348
1167.80 0.1396979
1167.90 0.1396611
1168.00 0.1396243
1168.10 0.1395875
1168.20 0.1395507
1168.30 0.139514
1168.40 0.1394772
1168.50 0.1394405
1168.60 0.1394037
1168.70 0.139367
1168.80 0.1393303
1168.90 0.1392936
1169.00 0.1392569
1169.10 0.1392202
1169.20 0.1391835
1169.30 0.1391468
1169.40 0.1391102
1169.50 0.1390735
1169.60 0.1390369
1169.70 0.1390003
1169.80 0.1389637
1169.90 0.1389271
1170.00 0.1388905
1170.10 0.1388539
1170.20 0.1388173
1170.30 0.1387808
1170.40 0.1387442
1170.50 0.1387077
1170.60 0.1386711
1170.70 0.1386346
1170.80 0.1385981
1170.90 0.1385616
1171.00 0.1385251
1171.10 0.1384886
1171.20 0.1384522
1171.30 0.1384157
1171.40 0.1383793
1171.50 0.1383428
1171.60 0.1383064
1171.70 0.13827
1171.80 0.1382336
1171.90 0.1381972
1172.00 0.1381608
1172.10 0.1381244
1172.20 0.1380881
1172.30 0.1380517
1172.40 0.1380154
1172.50 0.1379791
1172.60 0.1379427
1172.70 0.1379064
1172.80 0.1378701
1172.90 0.1378338
1173.00 0.1377975
1173.10 0.1377613
1173.20 0.137725
1173.30 0.1376888
1173.40 0.1376525
1173.50 0.1376163
1173.60 0.1375801
1173.70 0.1375439
1173.80 0.1375092
1173.90 0.1374749
1174.00 0.1374407
1174.10 0.1374065
1174.20 0.1373722
1174.30 0.137338
1174.40 0.1373038
1174.50 0.1372696
1174.60 0.1372354
1174.70 0.1372012
1174.80 0.1371671
1174.90 0.1371329
1175.00 0.1370988
1175.10 0.1370646
1175.20 0.1370305
1175.30 0.1369964
1175.40 0.1369622
1175.50 0.1369281
1175.60 0.136894
1175.70 0.13686
1175.80 0.1368259
1175.90 0.1367918
1176.00 0.1367578
1176.10 0.1367237
1176.20 0.1366897
1176.30 0.1366557
1176.40 0.1366216
1176.50 0.1365876
1176.60 0.1365536
1176.70 0.1365196
1176.80 0.1364857
1176.90 0.1364517
1177.00 0.1364177
1177.10 0.1363838
1177.20 0.1363498
1177.30 0.1363159
1177.40 0.136282
1177.50 0.1362481
1177.60 0.1362142
1177.70 0.1361803
1177.80 0.1361464
1177.90 0.1361125
1178.00 0.1360787
1178.10 0.1360448
1178.20 0.136011
1178.30 0.1359771
1178.40 0.1359433
1178.50 0.1359095
1178.60 0.1358757
1178.70 0.1358419
1178.80 0.1358081
1178.90 0.1357743
1179.00 0.1357406
1179.10 0.1357068
1179.20 0.135673
1179.30 0.1356393
1179.40 0.1356056
1179.50 0.1355719
1179.60 0.1355379
1179.70 0.1355025
1179.80 0.135467
1179.90 0.1354315
1180.00 0.1353961
1180.10 0.1353606
1180.20 0.1353252
1180.30 0.1352897
1180.40 0.1352543
1180.50 0.1352189
1180.60 0.1351835
1180.70 0.1351481
1180.80 0.1351128
1180.90 0.1350774
1181.00 0.135042
1181.10 0.1350067
1181.20 0.1349714
1181.30 0.134936
1181.40 0.1349007
1181.50 0.1348654
1181.60 0.1348301
1181.70 0.1347948
1181.80 0.1347595
1181.90 0.1347243
1182.00 0.134689
1182.10 0.1346538
1182.20 0.1346185
1182.30 0.1345833
1182.40 0.1345481
1182.50 0.1345129
1182.60 0.1344777
1182.70 0.1344425
1182.80 0.1344073
1182.90 0.1343722
1183.00 0.134337
1183.10 0.1343019
1183.20 0.1342667
1183.30 0.1342316
1183.40 0.1341965
1183.50 0.1341614
1183.60 0.1341263
1183.70 0.1340912
1183.80 0.1340561
1183.90 0.134021
1184.00 0.133986
1184.10 0.1339509
1184.20 0.1339159
1184.30 0.1338809
1184.40 0.1338459
1184.50 0.1338108
1184.60 0.1337758
1184.70 0.1337409
1184.80 0.1337059
1184.90 0.1336709
1185.00 0.133636
1185.10 0.133601
1185.20 0.1335661
1185.30 0.1335311
1185.40 0.1334962
1185.50 0.1334614
1185.60 0.1334266
1185.70 0.1333918
1185.80 0.1333571
1185.90 0.1333223
1186.00 0.1332876
1186.10 0.1332528
1186.20 0.1332181
1186.30 0.1331834
1186.40 0.1331487
1186.50 0.133114
1186.60 0.1330794
1186.70 0.1330447
1186.80 0.13301
1186.90 0.1329754
1187.00 0.1329407
1187.10 0.1329061
1187.20 0.1328715
1187.30 0.1328369
1187.40 0.1328023
1187.50 0.1327677
1187.60 0.1327331
1187.70 0.1326985
1187.80 0.132664
1187.90 0.1326294
1188.00 0.1325949
1188.10 0.1325603
1188.20 0.1325258
1188.30 0.1324913
1188.40 0.1324568
1188.50 0.1324223
1188.60 0.1323878
1188.70 0.1323533
1188.80 0.1323189
1188.90 0.1322844
1189.00 0.13225
1189.10 0.1322155
1189.20 0.1321811
1189.30 0.1321467
1189.40 0.1321123
1189.50 0.1320779
1189.60 0.1320435
1189.70 0.1320091
1189.80 0.1319748
1189.90 0.1319404
1190.00 0.1319061
1190.10 0.1318717
1190.20 0.1318374
1190.30 0.1318031
1190.40 0.1317688
1190.50 0.1317345
1190.60 0.1317002
1190.70 0.1316659
1190.80 0.1316316
1190.90 0.1315974
1191.00 0.1315631
1191.10 0.1315289
1191.20 0.1314946
1191.30 0.1314604
1191.40 0.1314262
1191.50 0.131392
1191.60 0.1313578
1191.70 0.1313236
1191.80 0.1312894
1191.90 0.1312553
1192.00 0.1312211
1192.10 0.131187
1192.20 0.1311528
1192.30 0.1311187
1192.40 0.1310846
1192.50 0.1310505
1192.60 0.1310164
1192.70 0.1309823
1192.80 0.1309482
1192.90 0.1309142
1193.00 0.1308801
1193.10 0.1308461
1193.20 0.130812
1193.30 0.130778
1193.40 0.130744
1193.50 0.13071
1193.60 0.130676
1193.70 0.130642
1193.80 0.130608
1193.90 0.130574
1194.00 0.13054
1194.10 0.1305061
1194.20 0.1304721
1194.30 0.1304382
1194.40 0.1304043
1194.50 0.1303704
1194.60 0.1303365
1194.70 0.1303026
1194.80 0.1302687
1194.90 0.1302348
1195.00 0.1302009
1195.10 0.1301671
1195.20 0.1301332
1195.30 0.1300994
1195.40 0.1300656
1195.50 0.1300317
1195.60 0.1299979
1195.70 0.1299641
1195.80 0.1299303
1195.90 0.1298965
1196.00 0.1298628
1196.10 0.129829
1196.20 0.1297952
1196.30 0.1297615
1196.40 0.1297278
1196.50 0.129694
1196.60 0.1296603
1196.70 0.1296266
1196.80 0.1295929
1196.90 0.1295592
1197.00 0.1295256
1197.10 0.1294919
1197.20 0.1294582
1197.30 0.1294246
1197.40 0.1293925
1197.50 0.1293607
1197.60 0.1293289
1197.70 0.1292971
1197.80 0.1292653
1197.90 0.1292336
1198.00 0.1292018
1198.10 0.12917
1198.20 0.1291383
1198.30 0.1291066
1198.40 0.1290748
1198.50 0.1290431
1198.60 0.1290114
1198.70 0.1289797
1198.80 0.128948
1198.90 0.1289163
1199.00 0.1288846
1199.10 0.1288529
1199.20 0.1288213
1199.30 0.1287896
1199.40 0.128758
1199.50 0.1287264
1199.60 0.1286947
1199.70 0.1286631
1199.80 0.1286315
1199.90 0.1285999
1200.00 0.1285683
