# Version 2.1 - nm, norm@500 to 1, cut digits, bergeron_He_4000_70.dat_4000
# Wavelength(nm)  Flambda(ergs/cm^s/s/nm)
300.00 0.02318804
300.10 0.02326942
300.20 0.02335121
300.30 0.02343301
300.40 0.02351551
300.50 0.02359789
300.60 0.02368016
300.70 0.02376232
300.80 0.02384436
300.90 0.02392628
301.00 0.02400809
301.10 0.02408979
301.20 0.02417138
301.30 0.02425285
301.40 0.0243342
301.50 0.02441545
301.60 0.02449658
301.70 0.02457759
301.80 0.0246585
301.90 0.02473929
302.00 0.02481997
302.10 0.02490605
302.20 0.02499262
302.30 0.02507908
302.40 0.02516541
302.50 0.02525163
302.60 0.02533772
302.70 0.0254237
302.80 0.02550955
302.90 0.02559529
303.00 0.02568091
303.10 0.02576641
303.20 0.02585179
303.30 0.02593739
303.40 0.02602583
303.50 0.02611415
303.60 0.02620235
303.70 0.02629043
303.80 0.02637838
303.90 0.02646622
304.00 0.02655393
304.10 0.02664152
304.20 0.026729
304.30 0.02681635
304.40 0.02690358
304.50 0.02699069
304.60 0.02708272
304.70 0.02717518
304.80 0.02726752
304.90 0.02735973
305.00 0.02745181
305.10 0.02754377
305.20 0.0276356
305.30 0.02772731
305.40 0.02781889
305.50 0.02791034
305.60 0.02800167
305.70 0.02809287
305.80 0.02818394
305.90 0.0282749
306.00 0.02836572
306.10 0.02845642
306.20 0.028547
306.30 0.02863745
306.40 0.02873389
306.50 0.02883202
306.60 0.02893001
306.70 0.02902787
306.80 0.0291256
306.90 0.02922319
307.00 0.02932065
307.10 0.02941797
307.20 0.02951517
307.30 0.02961223
307.40 0.02970915
307.50 0.02980595
307.60 0.02990261
307.70 0.02999914
307.80 0.03009554
307.90 0.03019181
308.00 0.03028795
308.10 0.03038395
308.20 0.03047983
308.30 0.03057557
308.40 0.03067118
308.50 0.03076667
308.60 0.03086202
308.70 0.03095724
308.80 0.03105393
308.90 0.03115504
309.00 0.03125421
309.10 0.03135325
309.20 0.03145215
309.30 0.03155092
309.40 0.03165024
309.50 0.03175368
309.60 0.03185698
309.70 0.03196014
309.80 0.03206315
309.90 0.03216603
310.00 0.03226877
310.10 0.03237137
310.20 0.03247383
310.30 0.03257615
310.40 0.03267927
310.50 0.03278327
310.60 0.03288712
310.70 0.03299083
310.80 0.03309441
310.90 0.03319784
311.00 0.03330272
311.10 0.03340746
311.20 0.03351205
311.30 0.03361741
311.40 0.0337252
311.50 0.03383285
311.60 0.03394035
311.70 0.03404771
311.80 0.03415492
311.90 0.03426198
312.00 0.03436891
312.10 0.03447568
312.20 0.03458149
312.30 0.0346905
312.40 0.03480102
312.50 0.03490498
312.60 0.03501628
312.70 0.03512743
312.80 0.03523842
312.90 0.03534959
313.00 0.03546095
313.10 0.03557216
313.20 0.03568322
313.30 0.03579446
313.40 0.0359065
313.50 0.03601839
313.60 0.03613013
313.70 0.03624172
313.80 0.03635316
313.90 0.03646445
314.00 0.03657559
314.10 0.0366897
314.20 0.03680367
314.30 0.03691748
314.40 0.03703114
314.50 0.03714464
314.60 0.037258
314.70 0.0373712
314.80 0.03748463
314.90 0.0375994
315.00 0.03771445
315.10 0.0378324
315.20 0.03795018
315.30 0.03806781
315.40 0.03818529
315.50 0.0383026
315.60 0.03841976
315.70 0.03853676
315.80 0.03865361
315.90 0.0387703
316.00 0.03888684
316.10 0.03900808
316.20 0.03912916
316.30 0.03924037
316.40 0.03936114
316.50 0.03948174
316.60 0.03960219
316.70 0.03972248
316.80 0.0398426
316.90 0.03996499
317.00 0.04008721
317.10 0.04020927
317.20 0.04033117
317.30 0.04044994
317.40 0.04056993
317.50 0.04069369
317.60 0.04081728
317.70 0.04094071
317.80 0.04106398
317.90 0.04118993
318.00 0.04131107
318.10 0.04143632
318.20 0.0415614
318.30 0.04168631
318.40 0.04181169
318.50 0.04193866
318.60 0.04206299
318.70 0.04218963
318.80 0.04231707
318.90 0.04244242
319.00 0.04256274
319.10 0.0426935
319.20 0.04282318
319.30 0.04295013
319.40 0.04307692
319.50 0.04320354
319.60 0.04333493
319.70 0.04346372
319.80 0.04359235
319.90 0.04372081
320.00 0.04384955
320.10 0.0439786
320.20 0.04410856
320.30 0.04424073
320.40 0.04437495
320.50 0.04450048
320.60 0.04463303
320.70 0.04476578
320.80 0.04489835
320.90 0.04503075
321.00 0.04516298
321.10 0.04529504
321.20 0.04543011
321.30 0.04556465
321.40 0.04569901
321.50 0.0458332
321.60 0.04596721
321.70 0.04610105
321.80 0.04623591
321.90 0.04637189
322.00 0.04650471
322.10 0.04664239
322.20 0.04677989
322.30 0.0469172
322.40 0.04705434
322.50 0.0471913
322.60 0.04732808
322.70 0.04746468
322.80 0.04759383
322.90 0.04773482
323.00 0.04787563
323.10 0.04801625
323.20 0.04815669
323.30 0.04829695
323.40 0.04843702
323.50 0.04857692
323.60 0.04871663
323.70 0.04885615
323.80 0.0489955
323.90 0.04913467
324.00 0.04927755
324.10 0.04942025
324.20 0.04956277
324.30 0.04970326
324.40 0.04984295
324.50 0.04998749
324.60 0.05013183
324.70 0.05027599
324.80 0.05041996
324.90 0.05056375
325.00 0.05070735
325.10 0.05085076
325.20 0.0509955
325.30 0.05114329
325.40 0.05129089
325.50 0.05143781
325.60 0.05158396
325.70 0.05172991
325.80 0.05187568
325.90 0.05202245
326.00 0.05217034
326.10 0.05231803
326.20 0.05246553
326.30 0.05261513
326.40 0.05277106
326.50 0.0529239
326.60 0.05307653
326.70 0.05322897
326.80 0.05338121
326.90 0.05353326
327.00 0.05368511
327.10 0.05383677
327.20 0.05398823
327.30 0.05413949
327.40 0.05429056
327.50 0.05444143
327.60 0.05459211
327.70 0.0547426
327.80 0.05489289
327.90 0.0550433
328.00 0.05519596
328.10 0.05535098
328.20 0.0555058
328.30 0.05566042
328.40 0.05581485
328.50 0.05597069
328.60 0.05612671
328.70 0.05628253
328.80 0.05643924
328.90 0.05659883
329.00 0.05675823
329.10 0.05691742
329.20 0.0570764
329.30 0.05723518
329.40 0.05739376
329.50 0.05755214
329.60 0.05771031
329.70 0.05786828
329.80 0.05802605
329.90 0.05818361
330.00 0.05834328
330.10 0.05850556
330.20 0.05866764
330.30 0.05882951
330.40 0.05899291
330.50 0.059158
330.60 0.05932288
330.70 0.05948755
330.80 0.059652
330.90 0.05981625
331.00 0.05998029
331.10 0.06014412
331.20 0.06030774
331.30 0.06047115
331.40 0.06063435
331.50 0.06079861
331.60 0.06096419
331.70 0.06112957
331.80 0.06129958
331.90 0.06146959
332.00 0.06163937
332.10 0.06180894
332.20 0.06197829
332.30 0.06214743
332.40 0.06231636
332.50 0.06248507
332.60 0.06265356
332.70 0.06282185
332.80 0.06298992
332.90 0.06315777
333.00 0.06332541
333.10 0.06349574
333.20 0.0636694
333.30 0.06384283
333.40 0.06401605
333.50 0.06418904
333.60 0.06436182
333.70 0.06453438
333.80 0.06470672
333.90 0.06487884
334.00 0.06505075
334.10 0.06522426
334.20 0.06539979
334.30 0.0655751
334.40 0.06575019
334.50 0.06592505
334.60 0.06609969
334.70 0.06627542
334.80 0.06645319
334.90 0.06663171
335.00 0.06681
335.10 0.0669911
335.20 0.06716729
335.30 0.06734434
335.40 0.06752765
335.50 0.06770318
335.60 0.0678871
335.70 0.06806412
335.80 0.06824328
335.90 0.06842416
336.00 0.06860717
336.10 0.06878996
336.20 0.06897251
336.30 0.06915548
336.40 0.06933901
336.50 0.06952231
336.60 0.06970537
336.70 0.06988821
336.80 0.07007082
336.90 0.07025442
337.00 0.0704393
337.10 0.07062394
337.20 0.07080835
337.30 0.07099438
337.40 0.07118283
337.50 0.07137105
337.60 0.07155903
337.70 0.07174678
337.80 0.0719343
337.90 0.07212277
338.00 0.07231247
338.10 0.07250193
338.20 0.07269116
338.30 0.07288015
338.40 0.07306983
338.50 0.07326155
338.60 0.07345302
338.70 0.07364426
338.80 0.07383525
338.90 0.07402601
339.00 0.07421654
339.10 0.07440682
339.20 0.07459687
339.30 0.07478968
339.40 0.07498658
339.50 0.07518365
339.60 0.07538098
339.70 0.07557807
339.80 0.07577491
339.90 0.0759715
340.00 0.07616786
340.10 0.07636396
340.20 0.07655983
340.30 0.07675545
340.40 0.07695082
340.50 0.07714596
340.60 0.07734085
340.70 0.0775355
340.80 0.07773303
340.90 0.07793481
341.00 0.07813647
341.10 0.07833803
341.20 0.07853933
341.30 0.07874039
341.40 0.0789412
341.50 0.07914176
341.60 0.07934207
341.70 0.07954214
341.80 0.0797438
341.90 0.07994746
342.00 0.08015087
342.10 0.08035403
342.20 0.08055674
342.30 0.08075985
342.40 0.08096473
342.50 0.08117175
342.60 0.08137851
342.70 0.08158502
342.80 0.08179127
342.90 0.08199726
343.00 0.08220756
343.10 0.08242317
343.20 0.08263851
343.30 0.08285358
343.40 0.08306187
343.50 0.08326052
343.60 0.08345893
343.70 0.08365709
343.80 0.08385501
343.90 0.08405268
344.00 0.08425853
344.10 0.08447622
344.20 0.08469364
344.30 0.0849108
344.40 0.08513609
344.50 0.08537318
344.60 0.08557643
344.70 0.08577412
344.80 0.08596952
344.90 0.08620348
345.00 0.08639103
345.10 0.08662648
345.20 0.08685758
345.30 0.08708255
345.40 0.08730724
345.50 0.08751358
345.60 0.08771253
345.70 0.08793277
345.80 0.08815273
345.90 0.08837242
346.00 0.08859185
346.10 0.08881101
346.20 0.08903211
346.30 0.08925614
346.40 0.08947988
346.50 0.08970336
346.60 0.08992656
346.70 0.09014949
346.80 0.09037215
346.90 0.09059454
347.00 0.09081665
347.10 0.09103849
347.20 0.09126275
347.30 0.0914906
347.40 0.09171816
347.50 0.09194545
347.60 0.09217246
347.70 0.0923992
347.80 0.09262566
347.90 0.09285185
348.00 0.09307776
348.10 0.09330339
348.20 0.09352875
348.30 0.09375384
348.40 0.09397865
348.50 0.09420319
348.60 0.09442745
348.70 0.09466496
348.80 0.09490304
348.90 0.09513595
349.00 0.09536858
349.10 0.09560093
349.20 0.09583299
349.30 0.09606478
349.40 0.09629628
349.50 0.0965275
349.60 0.09675844
349.70 0.09698911
349.80 0.09721949
349.90 0.09744959
350.00 0.09767942
350.10 0.09790896
350.20 0.09813823
350.30 0.0983708
350.40 0.09860825
350.50 0.09884541
350.60 0.09908228
350.70 0.09931887
350.80 0.09955517
350.90 0.09979119
351.00 0.1000269
351.10 0.1002624
351.20 0.1004975
351.30 0.1007324
351.40 0.100972
351.50 0.1012202
351.60 0.1014682
351.70 0.1017158
351.80 0.1019631
351.90 0.1022102
352.00 0.1024569
352.10 0.1027033
352.20 0.102912
352.30 0.1031357
352.40 0.1033871
352.50 0.1036383
352.60 0.1038891
352.70 0.1041396
352.80 0.1043898
352.90 0.1046398
353.00 0.1048894
353.10 0.1051387
353.20 0.1053877
353.30 0.1056364
353.40 0.1058849
353.50 0.1061387
353.60 0.1063937
353.70 0.1066484
353.80 0.1069027
353.90 0.1071559
354.00 0.1074072
354.10 0.1076582
354.20 0.1079089
354.30 0.1081593
354.40 0.1084094
354.50 0.1086592
354.60 0.1089087
354.70 0.1091579
354.80 0.1094086
354.90 0.1096618
355.00 0.1099147
355.10 0.1101673
355.20 0.1104195
355.30 0.1106788
355.40 0.1109377
355.50 0.1111964
355.60 0.1114547
355.70 0.1117188
355.80 0.1119854
355.90 0.1122318
356.00 0.1124868
356.10 0.1127526
356.20 0.113018
356.30 0.1132832
356.40 0.113548
356.50 0.1138125
356.60 0.1140767
356.70 0.1143406
356.80 0.1146042
356.90 0.1148674
357.00 0.1151304
357.10 0.115393
357.20 0.1156553
357.30 0.1159173
357.40 0.1161837
357.50 0.1164581
357.60 0.1167321
357.70 0.1170058
357.80 0.1172509
357.90 0.1174956
358.00 0.117765
358.10 0.1180403
358.20 0.1183153
358.30 0.1185899
358.40 0.1188642
358.50 0.1191382
358.60 0.1194119
358.70 0.1196853
358.80 0.1199583
358.90 0.120231
359.00 0.1205029
359.10 0.1207736
359.20 0.1210422
359.30 0.1212978
359.40 0.1215531
359.50 0.1218292
359.60 0.1221102
359.70 0.122391
359.80 0.1226641
359.90 0.1229368
360.00 0.1232122
360.10 0.1234926
360.20 0.1237726
360.30 0.1240524
360.40 0.1243317
360.50 0.1246108
360.60 0.124897
360.70 0.1251825
360.80 0.1254676
360.90 0.1257524
361.00 0.1260531
361.10 0.1263115
361.20 0.126589
361.30 0.1268762
361.40 0.1271779
361.50 0.1274495
361.60 0.127706
361.70 0.1280066
361.80 0.1282986
361.90 0.1285754
362.00 0.1288519
362.10 0.1291384
362.20 0.1294261
362.30 0.1297117
362.40 0.129997
362.50 0.130282
362.60 0.1305666
362.70 0.1308531
362.80 0.1311582
362.90 0.131453
363.00 0.1317473
363.10 0.1320449
363.20 0.1323421
363.30 0.1326376
363.40 0.1329324
363.50 0.1332269
363.60 0.1335211
363.70 0.1338067
363.80 0.1341083
363.90 0.1344015
364.00 0.1346942
364.10 0.1349867
364.20 0.1352788
364.30 0.1355705
364.40 0.1358619
364.50 0.1361567
364.60 0.1364462
364.70 0.1367354
364.80 0.1370242
364.90 0.1373504
365.00 0.1376762
365.10 0.1379652
365.20 0.1382539
365.30 0.1385422
365.40 0.1388302
365.50 0.1391542
365.60 0.1394779
365.70 0.1397648
365.80 0.1400514
365.90 0.1403699
366.00 0.1406962
366.10 0.1409933
366.20 0.1412901
366.30 0.1415866
366.40 0.1418827
366.50 0.1421892
366.60 0.1424769
366.70 0.1428097
366.80 0.1431421
366.90 0.143462
367.00 0.14376
367.10 0.1440577
367.20 0.1443551
367.30 0.1446521
367.40 0.1449488
367.50 0.1452646
367.60 0.145585
367.70 0.1459029
367.80 0.1462205
367.90 0.1465377
368.00 0.1468469
368.10 0.1471929
368.20 0.1475079
368.30 0.1478221
368.40 0.1481359
368.50 0.1484493
368.60 0.1487623
368.70 0.149075
368.80 0.1493874
368.90 0.1496956
369.00 0.1500063
369.10 0.150319
369.20 0.1506691
369.30 0.1509912
369.40 0.1513129
369.50 0.1516342
369.60 0.1519414
369.70 0.1522482
369.80 0.1525689
369.90 0.1528894
370.00 0.1532096
370.10 0.1535497
370.20 0.1538575
370.30 0.1541641
370.40 0.1545061
370.50 0.1548473
370.60 0.155151
370.70 0.1554615
370.80 0.1557995
370.90 0.1561371
371.00 0.1564785
371.10 0.1568196
371.20 0.1571209
371.30 0.157422
371.40 0.1577739
371.50 0.1581084
371.60 0.1584426
371.70 0.1587763
371.80 0.1591097
371.90 0.1594427
372.00 0.1597523
372.10 0.1601176
372.20 0.1604523
372.30 0.1607867
372.40 0.1611206
372.50 0.1614542
372.60 0.1617874
372.70 0.1621203
372.80 0.1624506
372.90 0.1627806
373.00 0.1631144
373.10 0.1634478
373.20 0.1637787
373.30 0.1641093
373.40 0.1644743
373.50 0.1648041
373.60 0.1651335
373.70 0.1654973
373.80 0.1658086
373.90 0.1661542
374.00 0.1664994
374.10 0.1668443
374.20 0.1671888
374.30 0.1675328
374.40 0.1678765
374.50 0.1682494
374.60 0.1685941
374.70 0.1689376
374.80 0.1692808
374.90 0.1696236
375.00 0.1699707
375.10 0.1703174
375.20 0.1706637
375.30 0.1710162
375.40 0.1713682
375.50 0.1717199
375.60 0.1720712
375.70 0.172422
375.80 0.1727725
375.90 0.1731226
376.00 0.1734387
376.10 0.173795
376.20 0.1741513
376.30 0.1745071
376.40 0.1748626
376.50 0.1752181
376.60 0.1755739
376.70 0.1759292
376.80 0.1762833
376.90 0.1766361
377.00 0.1769886
377.10 0.1773406
377.20 0.1776925
377.30 0.1780447
377.40 0.1783966
377.50 0.1787481
377.60 0.1791126
377.70 0.1794767
377.80 0.1798404
377.90 0.1802037
378.00 0.1805823
378.10 0.1809434
378.20 0.1813037
378.30 0.1816635
378.40 0.182023
378.50 0.182382
378.60 0.1827407
378.70 0.1830989
378.80 0.1834568
378.90 0.1838307
379.00 0.1842347
379.10 0.1845971
379.20 0.1849592
379.30 0.18532
379.40 0.1856795
379.50 0.1860387
379.60 0.186396
379.70 0.1867555
379.80 0.1871324
379.90 0.1875089
380.00 0.1878849
380.10 0.1882605
380.20 0.1886357
380.30 0.1890105
380.40 0.1893849
380.50 0.1897588
380.60 0.1901211
380.70 0.1904935
380.80 0.1908655
380.90 0.191237
381.00 0.1916082
381.10 0.1920093
381.20 0.1923877
381.30 0.1927727
381.40 0.1931107
381.50 0.1934887
381.60 0.1938766
381.70 0.1942771
381.80 0.1946715
381.90 0.1950358
382.00 0.1953998
382.10 0.1957966
382.20 0.1961929
382.30 0.1965888
382.40 0.1969754
382.50 0.1973484
382.60 0.1977209
382.70 0.1980945
382.80 0.1984775
382.90 0.1988682
383.00 0.1992583
383.10 0.1996481
383.20 0.2000335
383.30 0.2004041
383.40 0.2007921
383.50 0.2012064
383.60 0.2016083
383.70 0.2019988
383.80 0.2023888
383.90 0.2027784
384.00 0.2031676
384.10 0.2035564
384.20 0.2039447
384.30 0.2043326
384.40 0.204726
384.50 0.205125
384.60 0.2055236
384.70 0.2059217
384.80 0.2063095
384.90 0.206677
385.00 0.207076
385.10 0.207474
385.20 0.207853
385.30 0.2082434
385.40 0.2086435
385.50 0.2090534
385.60 0.2094628
385.70 0.2098717
385.80 0.2102758
385.90 0.2106628
386.00 0.2110559
386.10 0.2114568
386.20 0.2118754
386.30 0.2122936
386.40 0.2126889
386.50 0.2130836
386.60 0.2135115
386.70 0.2138883
386.80 0.214281
386.90 0.2147057
387.00 0.2151039
387.10 0.2155099
387.20 0.2159346
387.30 0.2163236
387.40 0.2167129
387.50 0.2171379
387.60 0.21758
387.70 0.2179848
387.80 0.2183892
387.90 0.2187931
388.00 0.2191985
388.10 0.219605
388.20 0.2200311
388.30 0.2204496
388.40 0.2208676
388.50 0.2212771
388.60 0.2216741
388.70 0.2220688
388.80 0.2225015
388.90 0.222929
389.00 0.2233302
389.10 0.2237471
389.20 0.2241751
389.30 0.2246064
389.40 0.2250167
389.50 0.2254317
389.60 0.2258503
389.70 0.2262632
389.80 0.2266908
389.90 0.227118
390.00 0.2275447
390.10 0.2279709
390.20 0.2283966
390.30 0.2288203
390.40 0.2292418
390.50 0.2296628
390.60 0.2300833
390.70 0.2305034
390.80 0.2309237
390.90 0.2313444
391.00 0.2317756
391.10 0.232212
391.20 0.2326396
391.30 0.2330519
391.40 0.2334824
391.50 0.2339125
391.60 0.2343421
391.70 0.2347712
391.80 0.2351998
391.90 0.2356204
392.00 0.2360492
392.10 0.2365033
392.20 0.2369533
392.30 0.2373792
392.40 0.2378163
392.50 0.2382269
392.60 0.2386728
392.70 0.2391072
392.80 0.2395207
392.90 0.239974
393.00 0.2404207
393.10 0.2408566
393.20 0.2412823
393.30 0.2417248
393.40 0.2421631
393.50 0.2426237
393.60 0.2430553
393.70 0.2434959
393.80 0.2439304
393.90 0.2443701
394.00 0.2448131
394.10 0.2452784
394.20 0.2457252
394.30 0.2461577
394.40 0.2465624
394.50 0.2470101
394.60 0.2474775
394.70 0.2479401
394.80 0.2483863
394.90 0.2488308
395.00 0.2492413
395.10 0.2496963
395.20 0.2501514
395.30 0.2506122
395.40 0.2510724
395.50 0.2515278
395.60 0.251981
395.70 0.2524299
395.80 0.2528679
395.90 0.2533055
396.00 0.2537461
396.10 0.2542178
396.20 0.2546774
396.30 0.2551449
396.40 0.2555726
396.50 0.2560617
396.60 0.2564884
396.70 0.2569613
396.80 0.2574133
396.90 0.2578646
397.00 0.2583327
397.10 0.2587673
397.20 0.2592432
397.30 0.2597049
397.40 0.2601739
397.50 0.2606424
397.60 0.2611094
397.70 0.2615662
397.80 0.2620225
397.90 0.2624795
398.00 0.262939
398.10 0.263398
398.20 0.2638621
398.30 0.264332
398.40 0.2648016
398.50 0.2652805
398.60 0.2657445
398.70 0.2662084
398.80 0.2666733
398.90 0.2671341
399.00 0.2675879
399.10 0.2680569
399.20 0.2685238
399.30 0.2689903
399.40 0.2694563
399.50 0.2699217
399.60 0.2703928
399.70 0.2708656
399.80 0.2713379
399.90 0.2718097
400.00 0.272281
400.10 0.2727518
400.20 0.2732591
400.30 0.2737286
400.40 0.2741906
400.50 0.2746723
400.60 0.2751587
400.70 0.2756265
400.80 0.2760937
400.90 0.2766209
401.00 0.2770871
401.10 0.2775529
401.20 0.2780512
401.30 0.2785386
401.40 0.2790073
401.50 0.279471
401.60 0.2799356
401.70 0.2804446
401.80 0.2809051
401.90 0.2813849
402.00 0.2819016
402.10 0.282405
402.20 0.2828808
402.30 0.2833428
402.40 0.2838306
402.50 0.2843026
402.60 0.28478
402.70 0.2852783
402.80 0.2857954
402.90 0.2862759
403.00 0.286762
403.10 0.2872833
403.20 0.2877578
403.30 0.2882583
403.40 0.2887108
403.50 0.2892136
403.60 0.2897275
403.70 0.2901855
403.80 0.2907165
403.90 0.2912154
404.00 0.2917113
404.10 0.2921695
404.20 0.2926791
404.30 0.2931881
404.40 0.2936803
404.50 0.2941748
404.60 0.2946525
404.70 0.2951594
404.80 0.2956847
404.90 0.2961716
405.00 0.2966679
405.10 0.2971731
405.20 0.2976816
405.30 0.2981895
405.40 0.2986926
405.50 0.2991952
405.60 0.2996973
405.70 0.3001988
405.80 0.3006998
405.90 0.3012003
406.00 0.3017042
406.10 0.3022075
406.20 0.3027103
406.30 0.3032126
406.40 0.3037184
406.50 0.3042526
406.60 0.3047477
406.70 0.3052476
406.80 0.3057626
406.90 0.3062549
407.00 0.306773
407.10 0.3072906
407.20 0.3078076
407.30 0.3083241
407.40 0.30884
407.50 0.3093554
407.60 0.3098702
407.70 0.3103845
407.80 0.3108983
407.90 0.3114117
408.00 0.3119287
408.10 0.3124572
408.20 0.3129817
408.30 0.3134928
408.40 0.3140033
408.50 0.3144945
408.60 0.3150252
408.70 0.3155553
408.80 0.3160831
408.90 0.3165994
409.00 0.3171246
409.10 0.3176492
409.20 0.3181733
409.30 0.3186968
409.40 0.3192197
409.50 0.3197393
409.60 0.3202585
409.70 0.3207808
409.80 0.3213173
409.90 0.3218528
410.00 0.3223691
410.10 0.3228859
410.20 0.3234225
410.30 0.3239637
410.40 0.3245006
410.50 0.3250252
410.60 0.3255493
410.70 0.3260717
410.80 0.3265889
410.90 0.3271055
411.00 0.3276401
411.10 0.3281809
411.20 0.3287212
411.30 0.3292585
411.40 0.3297854
411.50 0.3303144
411.60 0.3308428
411.70 0.3313763
411.80 0.3319315
411.90 0.3324861
412.00 0.3330401
412.10 0.3335364
412.20 0.3340893
412.30 0.3346355
412.40 0.3351569
412.50 0.3356916
412.60 0.3362626
412.70 0.3367967
412.80 0.3373213
412.90 0.3378797
413.00 0.3384349
413.10 0.3389827
413.20 0.3395299
413.30 0.3400766
413.40 0.3406226
413.50 0.3411682
413.60 0.3417131
413.70 0.3422575
413.80 0.3428013
413.90 0.3433445
414.00 0.3438872
414.10 0.3444293
414.20 0.3449708
414.30 0.3455118
414.40 0.3460522
414.50 0.3466421
414.60 0.3471879
414.70 0.3477266
414.80 0.3482681
414.90 0.3488198
415.00 0.349371
415.10 0.3499215
415.20 0.350476
415.30 0.3510443
415.40 0.3516119
415.50 0.3521787
415.60 0.3527349
415.70 0.3532907
415.80 0.3538448
415.90 0.3543952
416.00 0.354945
416.10 0.3554983
416.20 0.3560672
416.30 0.3566356
416.40 0.3572033
416.50 0.3577701
416.60 0.3583261
416.70 0.3588806
416.80 0.3594431
416.90 0.3600197
417.00 0.3605942
417.10 0.3611531
417.20 0.3617056
417.30 0.3622582
417.40 0.3628334
417.50 0.363408
417.60 0.3639848
417.70 0.3645714
417.80 0.365139
417.90 0.3657059
418.00 0.3662723
418.10 0.3668382
418.20 0.3674034
418.30 0.367969
418.40 0.3685612
418.50 0.3691379
418.60 0.3697141
418.70 0.3702896
418.80 0.3708645
418.90 0.3714389
419.00 0.3720127
419.10 0.3725859
419.20 0.3731584
419.30 0.3737302
419.40 0.3742936
419.50 0.3748565
419.60 0.3754234
419.70 0.3760085
419.80 0.3765929
419.90 0.3771775
420.00 0.3777639
420.10 0.3783497
420.20 0.3789348
420.30 0.3795194
420.40 0.3801034
420.50 0.3806868
420.60 0.3812695
420.70 0.3818517
420.80 0.3824333
420.90 0.3830145
421.00 0.3836015
421.10 0.3841879
421.20 0.384775
421.30 0.3853654
421.40 0.3859551
421.50 0.3865443
421.60 0.3871328
421.70 0.3877208
421.80 0.3883081
421.90 0.3888961
422.00 0.3894873
422.10 0.3900777
422.20 0.3906666
422.30 0.3912549
422.40 0.3918432
422.50 0.3924498
422.60 0.3930557
422.70 0.393661
422.80 0.3942657
422.90 0.3948698
423.00 0.3954733
423.10 0.3960761
423.20 0.3966784
423.30 0.39728
423.40 0.397881
423.50 0.3984814
423.60 0.3990812
423.70 0.3996804
423.80 0.400279
423.90 0.400877
424.00 0.4014743
424.10 0.4020711
424.20 0.4026672
424.30 0.4032627
424.40 0.4038551
424.50 0.4044654
424.60 0.405075
424.70 0.405684
424.80 0.4062924
424.90 0.4069002
425.00 0.4075074
425.10 0.408114
425.20 0.4087199
425.30 0.4093252
425.40 0.4099317
425.50 0.4105493
425.60 0.4111662
425.70 0.4117825
425.80 0.4123982
425.90 0.4130132
426.00 0.4136277
426.10 0.4142415
426.20 0.4148547
426.30 0.4154672
426.40 0.4160792
426.50 0.4166905
426.60 0.4173012
426.70 0.4179113
426.80 0.4185208
426.90 0.4191302
427.00 0.4197574
427.10 0.4203838
427.20 0.4210097
427.30 0.4216349
427.40 0.4222595
427.50 0.4228835
427.60 0.4235068
427.70 0.4241295
427.80 0.4247516
427.90 0.425373
428.00 0.4259938
428.10 0.426614
428.20 0.4272336
428.30 0.4278525
428.40 0.4284709
428.50 0.4290885
428.60 0.4297056
428.70 0.4303221
428.80 0.4309398
428.90 0.4315817
429.00 0.432223
429.10 0.4328637
429.20 0.4335037
429.30 0.4341431
429.40 0.4347818
429.50 0.4354199
429.60 0.4360573
429.70 0.4366941
429.80 0.4373303
429.90 0.4379658
430.00 0.4386007
430.10 0.4392349
430.20 0.4398686
430.30 0.4405015
430.40 0.4411339
430.50 0.4417656
430.60 0.4423966
430.70 0.4430271
430.80 0.4436569
430.90 0.4442861
431.00 0.4449146
431.10 0.4455425
431.20 0.4461698
431.30 0.4467982
431.40 0.4474498
431.50 0.4481008
431.60 0.4487511
431.70 0.4494007
431.80 0.4500497
431.90 0.4506981
432.00 0.4513458
432.10 0.4519928
432.20 0.4526392
432.30 0.453285
432.40 0.4539301
432.50 0.4545745
432.60 0.4552184
432.70 0.4558615
432.80 0.4565041
432.90 0.457146
433.00 0.4577872
433.10 0.4584278
433.20 0.4590678
433.30 0.4597087
433.40 0.4603698
433.50 0.4610302
433.60 0.46169
433.70 0.4623491
433.80 0.4629962
433.90 0.4636287
434.00 0.4642787
434.10 0.4649392
434.20 0.4655989
434.30 0.4662581
434.40 0.4669165
434.50 0.4675743
434.60 0.4682315
434.70 0.468888
434.80 0.4695448
434.90 0.4702142
435.00 0.470883
435.10 0.4715511
435.20 0.4722186
435.30 0.4728854
435.40 0.4735515
435.50 0.474217
435.60 0.4748818
435.70 0.4755459
435.80 0.4762094
435.90 0.4768722
436.00 0.4775344
436.10 0.4781959
436.20 0.4788568
436.30 0.4795205
436.40 0.4801883
436.50 0.4808598
436.60 0.4815306
436.70 0.4822007
436.80 0.4828702
436.90 0.483539
437.00 0.4842071
437.10 0.4848746
437.20 0.4855432
437.30 0.4862128
437.40 0.4868821
437.50 0.4875563
437.60 0.4882298
437.70 0.4889026
437.80 0.4895747
437.90 0.4902462
438.00 0.4909179
438.10 0.4916019
438.20 0.4922851
438.30 0.4929623
438.40 0.4936116
438.50 0.494296
438.60 0.4949778
438.70 0.4956861
438.80 0.4963431
438.90 0.4970336
439.00 0.4977075
439.10 0.4983878
439.20 0.4990683
439.30 0.4997598
439.40 0.5004507
439.50 0.5011409
439.60 0.5018301
439.70 0.5025044
439.80 0.5031793
439.90 0.5038675
440.00 0.504555
440.10 0.5052419
440.20 0.5059271
440.30 0.5065994
440.40 0.507271
440.50 0.5079419
440.60 0.5086121
440.70 0.5092817
440.80 0.5099507
440.90 0.5106189
441.00 0.5112865
441.10 0.5119535
441.20 0.5126216
441.30 0.5133131
441.40 0.5140479
441.50 0.5148357
441.60 0.5156227
441.70 0.5163767
441.80 0.5170548
441.90 0.5177323
442.00 0.5184091
442.10 0.5190852
442.20 0.5197607
442.30 0.5204355
442.40 0.5211398
442.50 0.5218803
442.60 0.5226201
442.70 0.5232673
442.80 0.5237882
442.90 0.5244688
443.00 0.5251979
443.10 0.5259864
443.20 0.5267381
443.30 0.5274558
443.40 0.5281878
443.50 0.5289375
443.60 0.5297358
443.70 0.5302989
443.80 0.5307998
443.90 0.5317933
444.00 0.532564
444.10 0.5330631
444.20 0.5337217
444.30 0.5345315
444.40 0.5352297
444.50 0.5359273
444.60 0.5366605
444.70 0.5374373
444.80 0.538186
444.90 0.5389089
445.00 0.539631
445.10 0.5403524
445.20 0.5410488
445.30 0.5417146
445.40 0.5423798
445.50 0.5430443
445.60 0.5437082
445.70 0.5443714
445.80 0.5450621
445.90 0.5457781
446.00 0.5464934
446.10 0.547208
446.20 0.5479782
446.30 0.5487702
446.40 0.5494569
446.50 0.5501854
446.60 0.5509132
446.70 0.5516403
446.80 0.5523667
446.90 0.5530924
447.00 0.5539438
447.10 0.554425
447.20 0.5553916
447.30 0.5558716
447.40 0.5567103
447.50 0.5574318
447.60 0.5581459
447.70 0.5588532
447.80 0.55954
447.90 0.5602938
448.00 0.5610287
448.10 0.561746
448.20 0.5624625
448.30 0.5631784
448.40 0.5638936
448.50 0.5646081
448.60 0.5653322
448.70 0.566065
448.80 0.5668013
448.90 0.5675923
449.00 0.5683826
449.10 0.5691721
449.20 0.5699608
449.30 0.5707613
449.40 0.5714771
449.50 0.5721923
449.60 0.5729014
449.70 0.5736049
449.80 0.5743076
449.90 0.5750097
450.00 0.5757112
450.10 0.5764119
450.20 0.577112
450.30 0.5778114
450.40 0.5785924
450.50 0.5793727
450.60 0.5801523
450.70 0.5809311
450.80 0.5817092
450.90 0.5824865
451.00 0.5831912
451.10 0.5838952
451.20 0.5845621
451.30 0.5852704
451.40 0.5859647
451.50 0.5866583
451.60 0.5875894
451.70 0.5882816
451.80 0.588973
451.90 0.5899017
452.00 0.5905918
452.10 0.5912811
452.20 0.5920886
452.30 0.5928953
452.40 0.5937013
452.50 0.5945064
452.60 0.5952051
452.70 0.5958942
452.80 0.5965745
452.90 0.5972542
453.00 0.5979332
453.10 0.5986115
453.20 0.5994306
453.30 0.6002489
453.40 0.6010664
453.50 0.6018831
453.60 0.602699
453.70 0.6035142
453.80 0.6042732
453.90 0.6049637
454.00 0.6056536
454.10 0.6063428
454.20 0.607107
454.30 0.6078705
454.40 0.6086333
454.50 0.6093954
454.60 0.6101567
454.70 0.6109165
454.80 0.6116747
454.90 0.6124322
455.00 0.613189
455.10 0.6139451
455.20 0.6147004
455.30 0.6154551
455.40 0.616209
455.50 0.6169621
455.60 0.6177146
455.70 0.6184663
455.80 0.6191979
455.90 0.6199288
456.00 0.620659
456.10 0.6214113
456.20 0.6222245
456.30 0.6230369
456.40 0.6238485
456.50 0.6246594
456.60 0.6254695
456.70 0.6262788
456.80 0.6270874
456.90 0.6278952
457.00 0.6287022
457.10 0.6295085
457.20 0.6302167
457.30 0.6309814
457.40 0.6317454
457.50 0.6325086
457.60 0.6332711
457.70 0.6340329
457.80 0.634794
457.90 0.6355543
458.00 0.636314
458.10 0.6370729
458.20 0.637831
458.30 0.6385885
458.40 0.6393452
458.50 0.6401012
458.60 0.6408565
458.70 0.6416233
458.80 0.6423944
458.90 0.6431648
459.00 0.6439344
459.10 0.6447033
459.20 0.6454714
459.30 0.6462831
459.40 0.6470939
459.50 0.647904
459.60 0.6487133
459.70 0.6495219
459.80 0.6503296
459.90 0.6511367
460.00 0.6519429
460.10 0.6527484
460.20 0.6535532
460.30 0.6543571
460.40 0.6551603
460.50 0.6559628
460.60 0.6567645
460.70 0.6575179
460.80 0.6582473
460.90 0.6589759
461.00 0.6597038
461.10 0.6604311
461.20 0.6612874
461.30 0.6621958
461.40 0.6630124
461.50 0.6638054
461.60 0.6645977
461.70 0.6653892
461.80 0.666185
461.90 0.66698
462.00 0.6677742
462.10 0.6685677
462.20 0.6693604
462.30 0.6701524
462.40 0.6709437
462.50 0.6717342
462.60 0.6725239
462.70 0.6733129
462.80 0.6741012
462.90 0.6748887
463.00 0.6756755
463.10 0.6764615
463.20 0.6772728
463.30 0.6780939
463.40 0.6789143
463.50 0.6797339
463.60 0.6805528
463.70 0.6813709
463.80 0.6821882
463.90 0.6829644
464.00 0.6837298
464.10 0.6844945
464.20 0.6852585
464.30 0.6860218
464.40 0.6867843
464.50 0.6875461
464.60 0.6883072
464.70 0.6891538
464.80 0.6900349
464.90 0.6909152
465.00 0.6917946
465.10 0.6926732
465.20 0.693551
465.30 0.6943728
465.40 0.6951571
465.50 0.6959406
465.60 0.6967234
465.70 0.6975055
465.80 0.6982869
465.90 0.6990786
466.00 0.6998725
466.10 0.7006655
466.20 0.7014579
466.30 0.7022669
466.40 0.7030823
466.50 0.703897
466.60 0.7047108
466.70 0.705524
466.80 0.7063363
466.90 0.7071479
467.00 0.7079587
467.10 0.7087688
467.20 0.7095781
467.30 0.7102912
467.40 0.7110914
467.50 0.7119225
467.60 0.7127529
467.70 0.7135824
467.80 0.7144112
467.90 0.715301
468.00 0.7162151
468.10 0.7171284
468.20 0.7180408
468.30 0.7188738
468.40 0.7196739
468.50 0.7204732
468.60 0.7212622
468.70 0.7220697
468.80 0.7228585
468.90 0.7235683
469.00 0.7244264
469.10 0.7252536
469.20 0.7260477
469.30 0.7268411
469.40 0.7276337
469.50 0.7284543
469.60 0.7292859
469.70 0.7301167
469.80 0.7309467
469.90 0.7318105
470.00 0.7327816
470.10 0.7336471
470.20 0.7344985
470.30 0.7353492
470.40 0.736199
470.50 0.737048
470.60 0.7378444
470.70 0.7386272
470.80 0.7394092
470.90 0.7401904
471.00 0.7410594
471.10 0.7417773
471.20 0.7425299
471.30 0.7437456
471.40 0.7445231
471.50 0.7452998
471.60 0.7460758
471.70 0.746851
471.80 0.7477129
471.90 0.7485957
472.00 0.7494777
472.10 0.750359
472.20 0.7511711
472.30 0.7519653
472.40 0.7527589
472.50 0.7535516
472.60 0.7543437
472.70 0.7553643
472.80 0.7562701
472.90 0.7571232
473.00 0.7579755
473.10 0.758827
473.20 0.7596778
473.30 0.7605277
473.40 0.7613769
473.50 0.7622253
473.60 0.7630729
473.70 0.7639197
473.80 0.7647621
473.90 0.7656028
474.00 0.7664427
474.10 0.7672819
474.20 0.768092
474.30 0.7688899
474.40 0.769687
474.50 0.7704833
474.60 0.7712846
474.70 0.7721425
474.80 0.7729996
474.90 0.7738559
475.00 0.7747113
475.10 0.7755661
475.20 0.77642
475.30 0.7772731
475.40 0.7781597
475.50 0.779054
475.60 0.7799475
475.70 0.7808401
475.80 0.781732
475.90 0.782623
476.00 0.7835132
476.10 0.7844026
476.20 0.7852628
476.30 0.7861106
476.40 0.7869576
476.50 0.7878038
476.60 0.7886493
476.70 0.789494
476.80 0.7903378
476.90 0.7912047
477.00 0.7920768
477.10 0.792948
477.20 0.7938185
477.30 0.7946881
477.40 0.795557
477.50 0.796425
477.60 0.7972923
477.70 0.7981587
477.80 0.7990244
477.90 0.7998893
478.00 0.8007533
478.10 0.8016166
478.20 0.8024791
478.30 0.8033408
478.40 0.8042017
478.50 0.8050618
478.60 0.8059212
478.70 0.8067191
478.80 0.8074915
478.90 0.8083593
479.00 0.8092503
479.10 0.8101405
479.20 0.8110299
479.30 0.8119184
479.40 0.8128039
479.50 0.8136872
479.60 0.8145698
479.70 0.8154515
479.80 0.8163324
479.90 0.8172125
480.00 0.8180918
480.10 0.8189703
480.20 0.819848
480.30 0.8207249
480.40 0.821601
480.50 0.8224763
480.60 0.8233508
480.70 0.8242244
480.80 0.8250973
480.90 0.8259694
481.00 0.8268407
481.10 0.8277112
481.20 0.8285956
481.30 0.8294792
481.40 0.8303619
481.50 0.8312439
481.60 0.832125
481.70 0.8330053
481.80 0.8338849
481.90 0.8347636
482.00 0.8356416
482.10 0.8365187
482.20 0.8373946
482.30 0.8382644
482.40 0.8391334
482.50 0.8400017
482.60 0.8408691
482.70 0.8417357
482.80 0.8426016
482.90 0.8434666
483.00 0.8443309
483.10 0.8451944
483.20 0.8460571
483.30 0.846919
483.40 0.8477801
483.50 0.8486405
483.60 0.8495
483.70 0.8504023
483.80 0.8513038
483.90 0.8522045
484.00 0.8531044
484.10 0.8540034
484.20 0.8549018
484.30 0.8557995
484.40 0.8566964
484.50 0.8575925
484.60 0.8584877
484.70 0.8593841
484.80 0.8603057
484.90 0.8612264
485.00 0.8621463
485.10 0.8630654
485.20 0.8639836
485.30 0.864901
485.40 0.8658175
485.50 0.8667333
485.60 0.8676482
485.70 0.8685343
485.80 0.8694197
485.90 0.8703042
486.00 0.8711879
486.10 0.8720708
486.20 0.8729529
486.30 0.8738343
486.40 0.8747148
486.50 0.8755945
486.60 0.8764734
486.70 0.8773566
486.80 0.8783056
486.90 0.8792538
487.00 0.8802011
487.10 0.8811476
487.20 0.8820217
487.30 0.8828949
487.40 0.8837674
487.50 0.884639
487.60 0.8855099
487.70 0.88638
487.80 0.8872493
487.90 0.8881178
488.00 0.8889856
488.10 0.8898525
488.20 0.8907226
488.30 0.8916436
488.40 0.8925638
488.50 0.8934832
488.60 0.8944017
488.70 0.8953195
488.80 0.8962986
488.90 0.8972768
489.00 0.8982372
489.10 0.8991529
489.20 0.9000679
489.30 0.9009821
489.40 0.9018954
489.50 0.9028079
489.60 0.9037195
489.70 0.9046304
489.80 0.9055654
489.90 0.9064731
490.00 0.9073801
490.10 0.9082863
490.20 0.9091916
490.30 0.9100961
490.40 0.9109369
490.50 0.9117769
490.60 0.9126161
490.70 0.9134546
490.80 0.9143979
490.90 0.9155324
491.00 0.9163685
491.10 0.9172038
491.20 0.9182396
491.30 0.9192745
491.40 0.9201864
491.50 0.9209395
491.60 0.9217691
491.70 0.9226443
491.80 0.9235364
491.90 0.9246619
492.00 0.9255603
492.10 0.9264579
492.20 0.9274499
492.30 0.9282407
492.40 0.9292746
492.50 0.9300203
492.60 0.9309349
492.70 0.9318577
492.80 0.9327796
492.90 0.9337008
493.00 0.934624
493.10 0.9355847
493.20 0.9365445
493.30 0.9375035
493.40 0.9384616
493.50 0.9394188
493.60 0.9403282
493.70 0.9412858
493.80 0.9422426
493.90 0.9431271
494.00 0.9438992
494.10 0.9447381
494.20 0.9457196
494.30 0.9467003
494.40 0.94768
494.50 0.9486589
494.60 0.9496338
494.70 0.9505658
494.80 0.9515032
494.90 0.9524571
495.00 0.9534101
495.10 0.9543623
495.20 0.9552866
495.30 0.95621
495.40 0.9571326
495.50 0.9580544
495.60 0.9589753
495.70 0.9598955
495.80 0.9608148
495.90 0.9617333
496.00 0.9626509
496.10 0.9635544
496.20 0.9644354
496.30 0.9654035
496.40 0.9663707
496.50 0.9673371
496.60 0.9683026
496.70 0.9691981
496.80 0.9700928
496.90 0.9709867
497.00 0.9718798
497.10 0.972772
497.20 0.9736635
497.30 0.9745683
497.40 0.9755121
497.50 0.976455
497.60 0.9774723
497.70 0.9786293
497.80 0.9795329
497.90 0.9804357
498.00 0.9813377
498.10 0.9822388
498.20 0.9831392
498.30 0.9840388
498.40 0.9849375
498.50 0.9858355
498.60 0.9867326
498.70 0.9877042
498.80 0.9886748
498.90 0.9896573
499.00 0.990639
499.10 0.9916198
499.20 0.9926298
499.30 0.993659
499.40 0.9945626
499.50 0.9954654
499.60 0.9963675
499.70 0.9972695
499.80 0.9981804
499.90 0.9990906
500.00 1
500.10 1.000909
500.20 1.001833
500.30 1.002791
500.40 1.003748
500.50 1.004704
500.60 1.00566
500.70 1.006614
500.80 1.007582
500.90 1.00858
501.00 1.009576
501.10 1.010571
501.20 1.011375
501.30 1.012324
501.40 1.013459
501.50 1.014213
501.60 1.015392
501.70 1.016107
501.80 1.01706
501.90 1.018004
502.00 1.018955
502.10 1.019919
502.20 1.020879
502.30 1.021793
502.40 1.022735
502.50 1.023739
502.60 1.024742
502.70 1.025744
502.80 1.026745
502.90 1.027745
503.00 1.028718
503.10 1.029632
503.20 1.030546
503.30 1.031459
503.40 1.032389
503.50 1.033367
503.60 1.034345
503.70 1.035321
503.80 1.036284
503.90 1.037148
504.00 1.038056
504.10 1.039056
504.20 1.040056
504.30 1.041055
504.40 1.042034
504.50 1.042956
504.60 1.044027
504.70 1.044758
504.80 1.045936
504.90 1.046922
505.00 1.04794
505.10 1.048858
505.20 1.04978
505.30 1.050716
505.40 1.051652
505.50 1.052587
505.60 1.05353
505.70 1.054493
505.80 1.055455
505.90 1.056415
506.00 1.057375
506.10 1.058335
506.20 1.059299
506.30 1.060279
506.40 1.061259
506.50 1.062238
506.60 1.063216
506.70 1.064193
506.80 1.065169
506.90 1.066145
507.00 1.067119
507.10 1.068103
507.20 1.069098
507.30 1.070069
507.40 1.071039
507.50 1.072008
507.60 1.072976
507.70 1.073943
507.80 1.074909
507.90 1.075875
508.00 1.076839
508.10 1.077803
508.20 1.078766
508.30 1.079728
508.40 1.08069
508.50 1.08165
508.60 1.08261
508.70 1.083568
508.80 1.084542
508.90 1.085523
509.00 1.086491
509.10 1.08746
509.20 1.088431
509.30 1.089401
509.40 1.09037
509.50 1.091339
509.60 1.092306
509.70 1.093273
509.80 1.094239
509.90 1.095204
510.00 1.096168
510.10 1.097132
510.20 1.098094
510.30 1.099061
510.40 1.100043
510.50 1.101024
510.60 1.102004
510.70 1.102982
510.80 1.103961
510.90 1.104938
511.00 1.105914
511.10 1.10689
511.20 1.107865
511.30 1.108839
511.40 1.109812
511.50 1.110784
511.60 1.11176
511.70 1.112744
511.80 1.113728
511.90 1.11471
512.00 1.115692
512.10 1.116673
512.20 1.117654
512.30 1.118635
512.40 1.119619
512.50 1.120603
512.60 1.121586
512.70 1.122569
512.80 1.12355
512.90 1.124531
513.00 1.12551
513.10 1.126489
513.20 1.127467
513.30 1.128445
513.40 1.129421
513.50 1.130396
513.60 1.131371
513.70 1.132345
513.80 1.133318
513.90 1.13429
514.00 1.135289
514.10 1.136292
514.20 1.137294
514.30 1.138295
514.40 1.139296
514.50 1.140295
514.60 1.141294
514.70 1.142292
514.80 1.143288
514.90 1.144284
515.00 1.14528
515.10 1.146274
515.20 1.147267
515.30 1.14826
515.40 1.149252
515.50 1.150243
515.60 1.151233
515.70 1.152222
515.80 1.15321
515.90 1.154198
516.00 1.155184
516.10 1.15617
516.20 1.157155
516.30 1.158139
516.40 1.159122
516.50 1.160109
516.60 1.16112
516.70 1.162129
516.80 1.163138
516.90 1.164146
517.00 1.165153
517.10 1.166159
517.20 1.167164
517.30 1.168168
517.40 1.169172
517.50 1.170174
517.60 1.171176
517.70 1.172177
517.80 1.173177
517.90 1.174176
518.00 1.175175
518.10 1.176172
518.20 1.177169
518.30 1.178165
518.40 1.179159
518.50 1.180153
518.60 1.181147
518.70 1.182139
518.80 1.18313
518.90 1.184121
519.00 1.185111
519.10 1.186116
519.20 1.187138
519.30 1.188159
519.40 1.189179
519.50 1.190198
519.60 1.191217
519.70 1.192234
519.80 1.193251
519.90 1.194267
520.00 1.195282
520.10 1.196296
520.20 1.197309
520.30 1.198321
520.40 1.199333
520.50 1.200343
520.60 1.201353
520.70 1.202362
520.80 1.20337
520.90 1.204377
521.00 1.205383
521.10 1.206389
521.20 1.207393
521.30 1.208397
521.40 1.2094
521.50 1.210402
521.60 1.211403
521.70 1.212403
521.80 1.213403
521.90 1.214401
522.00 1.215399
522.10 1.216396
522.20 1.217392
522.30 1.218387
522.40 1.219381
522.50 1.220375
522.60 1.221367
522.70 1.222359
522.80 1.22335
522.90 1.22434
523.00 1.225329
523.10 1.226318
523.20 1.227305
523.30 1.228292
523.40 1.229278
523.50 1.230263
523.60 1.231247
523.70 1.23223
523.80 1.233212
523.90 1.234194
524.00 1.235175
524.10 1.236155
524.20 1.237134
524.30 1.238142
524.40 1.239173
524.50 1.240203
524.60 1.241232
524.70 1.24226
524.80 1.243287
524.90 1.244313
525.00 1.245339
525.10 1.246363
525.20 1.247387
525.30 1.24841
525.40 1.249432
525.50 1.250453
525.60 1.251473
525.70 1.252493
525.80 1.253511
525.90 1.254529
526.00 1.255546
526.10 1.256562
526.20 1.257577
526.30 1.258591
526.40 1.259604
526.50 1.260617
526.60 1.261628
526.70 1.262639
526.80 1.263649
526.90 1.264658
527.00 1.265666
527.10 1.266673
527.20 1.26768
527.30 1.268686
527.40 1.26969
527.50 1.270694
527.60 1.271697
527.70 1.2727
527.80 1.273701
527.90 1.274701
528.00 1.275701
528.10 1.2767
528.20 1.277698
528.30 1.278695
528.40 1.279691
528.50 1.280687
528.60 1.281681
528.70 1.282675
528.80 1.283668
528.90 1.28466
529.00 1.285651
529.10 1.286642
529.20 1.287631
529.30 1.28862
529.40 1.289608
529.50 1.290603
529.60 1.291646
529.70 1.292688
529.80 1.293729
529.90 1.29477
530.00 1.295809
530.10 1.296848
530.20 1.297886
530.30 1.298923
530.40 1.299959
530.50 1.300994
530.60 1.302028
530.70 1.303062
530.80 1.304094
530.90 1.305126
531.00 1.306157
531.10 1.307187
531.20 1.308216
531.30 1.309244
531.40 1.310272
531.50 1.311298
531.60 1.312324
531.70 1.313349
531.80 1.314373
531.90 1.315396
532.00 1.316418
532.10 1.317439
532.20 1.318469
532.30 1.319502
532.40 1.320534
532.50 1.321565
532.60 1.322596
532.70 1.323626
532.80 1.324654
532.90 1.325682
533.00 1.326709
533.10 1.327736
533.20 1.328761
533.30 1.329785
533.40 1.330809
533.50 1.331832
533.60 1.332854
533.70 1.333875
533.80 1.334895
533.90 1.335914
534.00 1.336933
534.10 1.33795
534.20 1.338967
534.30 1.339983
534.40 1.340998
534.50 1.342012
534.60 1.343025
534.70 1.344038
534.80 1.345057
534.90 1.34611
535.00 1.347162
535.10 1.348213
535.20 1.349263
535.30 1.350312
535.40 1.35136
535.50 1.352407
535.60 1.353454
535.70 1.3545
535.80 1.355544
535.90 1.356588
536.00 1.357631
536.10 1.358673
536.20 1.359714
536.30 1.360755
536.40 1.361794
536.50 1.362833
536.60 1.363871
536.70 1.364908
536.80 1.365944
536.90 1.366979
537.00 1.368013
537.10 1.369047
537.20 1.370079
537.30 1.371111
537.40 1.372142
537.50 1.373172
537.60 1.374201
537.70 1.375229
537.80 1.376256
537.90 1.377283
538.00 1.378309
538.10 1.379333
538.20 1.380357
538.30 1.381381
538.40 1.382403
538.50 1.383424
538.60 1.384445
538.70 1.385464
538.80 1.386483
538.90 1.387501
539.00 1.388518
539.10 1.389535
539.20 1.39055
539.30 1.391565
539.40 1.392578
539.50 1.393591
539.60 1.394603
539.70 1.395615
539.80 1.396625
539.90 1.397634
540.00 1.398643
540.10 1.399651
540.20 1.400691
540.30 1.401744
540.40 1.402796
540.50 1.403847
540.60 1.404897
540.70 1.405946
540.80 1.406995
540.90 1.408042
541.00 1.409089
541.10 1.410135
541.20 1.41118
541.30 1.412224
541.40 1.413267
541.50 1.414309
541.60 1.415351
541.70 1.416391
541.80 1.417431
541.90 1.41847
542.00 1.419508
542.10 1.420545
542.20 1.421581
542.30 1.422617
542.40 1.423651
542.50 1.424685
542.60 1.425718
542.70 1.42675
542.80 1.427781
542.90 1.428811
543.00 1.429841
543.10 1.430869
543.20 1.431897
543.30 1.432924
543.40 1.43395
543.50 1.434975
543.60 1.435999
543.70 1.437023
543.80 1.438045
543.90 1.439067
544.00 1.440088
544.10 1.441108
544.20 1.442127
544.30 1.443146
544.40 1.444163
544.50 1.44518
544.60 1.446196
544.70 1.447211
544.80 1.448225
544.90 1.449238
545.00 1.450251
545.10 1.451262
545.20 1.452273
545.30 1.453283
545.40 1.454292
545.50 1.4553
545.60 1.456343
545.70 1.4574
545.80 1.458456
545.90 1.459511
546.00 1.460565
546.10 1.461618
546.20 1.462671
546.30 1.463723
546.40 1.464773
546.50 1.465823
546.60 1.466872
546.70 1.46792
546.80 1.468968
546.90 1.470014
547.00 1.471059
547.10 1.472104
547.20 1.473148
547.30 1.474191
547.40 1.475233
547.50 1.476274
547.60 1.477315
547.70 1.478354
547.80 1.479393
547.90 1.480431
548.00 1.481468
548.10 1.482504
548.20 1.483539
548.30 1.484584
548.40 1.485641
548.50 1.486698
548.60 1.487754
548.70 1.48881
548.80 1.489864
548.90 1.490917
549.00 1.49197
549.10 1.493022
549.20 1.494073
549.30 1.495123
549.40 1.496172
549.50 1.49722
549.60 1.498267
549.70 1.499314
549.80 1.50036
549.90 1.501404
550.00 1.502448
550.10 1.503491
550.20 1.504534
550.30 1.505575
550.40 1.506616
550.50 1.507655
550.60 1.508694
550.70 1.509732
550.80 1.510769
550.90 1.511806
551.00 1.512844
551.10 1.513897
551.20 1.51495
551.30 1.516001
551.40 1.517052
551.50 1.518102
551.60 1.519151
551.70 1.520199
551.80 1.521246
551.90 1.522293
552.00 1.523338
552.10 1.524383
552.20 1.525427
552.30 1.52647
552.40 1.527512
552.50 1.528553
552.60 1.529593
552.70 1.530633
552.80 1.531672
552.90 1.53271
553.00 1.533747
553.10 1.534783
553.20 1.535818
553.30 1.536853
553.40 1.537886
553.50 1.538919
553.60 1.539951
553.70 1.540982
553.80 1.542026
553.90 1.543078
554.00 1.54413
554.10 1.545181
554.20 1.54623
554.30 1.547279
554.40 1.548327
554.50 1.549375
554.60 1.550421
554.70 1.551466
554.80 1.552511
554.90 1.553555
555.00 1.554598
555.10 1.55564
555.20 1.556681
555.30 1.557722
555.40 1.558761
555.50 1.5598
555.60 1.560838
555.70 1.561875
555.80 1.562911
555.90 1.563946
556.00 1.564981
556.10 1.566014
556.20 1.567047
556.30 1.568079
556.40 1.56911
556.50 1.570142
556.60 1.571212
556.70 1.572281
556.80 1.57335
556.90 1.574417
557.00 1.575484
557.10 1.576549
557.20 1.577614
557.30 1.578678
557.40 1.579741
557.50 1.580803
557.60 1.581865
557.70 1.582925
557.80 1.583985
557.90 1.585043
558.00 1.586101
558.10 1.587158
558.20 1.588214
558.30 1.58927
558.40 1.590324
558.50 1.591378
558.60 1.592431
558.70 1.593482
558.80 1.594533
558.90 1.595584
559.00 1.596633
559.10 1.597681
559.20 1.598729
559.30 1.599776
559.40 1.600822
559.50 1.601867
559.60 1.602911
559.70 1.603954
559.80 1.604997
559.90 1.606039
560.00 1.607079
560.10 1.608119
560.20 1.609158
560.30 1.610197
560.40 1.611234
560.50 1.612271
560.60 1.613307
560.70 1.614341
560.80 1.615376
560.90 1.616409
561.00 1.617441
561.10 1.618473
561.20 1.619503
561.30 1.620533
561.40 1.621562
561.50 1.622591
561.60 1.623618
561.70 1.624645
561.80 1.62567
561.90 1.626695
562.00 1.627719
562.10 1.628753
562.20 1.629803
562.30 1.630852
562.40 1.6319
562.50 1.632948
562.60 1.633994
562.70 1.63504
562.80 1.636085
562.90 1.637129
563.00 1.638172
563.10 1.639214
563.20 1.640255
563.30 1.641296
563.40 1.642336
563.50 1.643375
563.60 1.644413
563.70 1.64545
563.80 1.646486
563.90 1.647522
564.00 1.648556
564.10 1.64959
564.20 1.650623
564.30 1.651655
564.40 1.652687
564.50 1.653717
564.60 1.654747
564.70 1.655776
564.80 1.656804
564.90 1.657841
565.00 1.6589
565.10 1.659958
565.20 1.661016
565.30 1.662073
565.40 1.663129
565.50 1.664184
565.60 1.665238
565.70 1.666292
565.80 1.667345
565.90 1.668396
566.00 1.669447
566.10 1.670497
566.20 1.671546
566.30 1.672595
566.40 1.673642
566.50 1.674689
566.60 1.675735
566.70 1.67678
566.80 1.677824
566.90 1.678867
567.00 1.67991
567.10 1.680951
567.20 1.681992
567.30 1.683032
567.40 1.684071
567.50 1.68511
567.60 1.686147
567.70 1.68719
567.80 1.688257
567.90 1.689323
568.00 1.690388
568.10 1.691453
568.20 1.692517
568.30 1.69358
568.40 1.694642
568.50 1.695703
568.60 1.696763
568.70 1.697823
568.80 1.698881
568.90 1.699939
569.00 1.700996
569.10 1.702052
569.20 1.703108
569.30 1.704162
569.40 1.705216
569.50 1.706268
569.60 1.70732
569.70 1.708371
569.80 1.709421
569.90 1.710471
570.00 1.711519
570.10 1.712567
570.20 1.713614
570.30 1.71466
570.40 1.715705
570.50 1.716749
570.60 1.717793
570.70 1.718835
570.80 1.719877
570.90 1.720918
571.00 1.721958
571.10 1.722997
571.20 1.724036
571.30 1.725073
571.40 1.72611
571.50 1.727146
571.60 1.728181
571.70 1.729216
571.80 1.730249
571.90 1.731282
572.00 1.732313
572.10 1.733344
572.20 1.734375
572.30 1.735404
572.40 1.736432
572.50 1.73746
572.60 1.738487
572.70 1.739513
572.80 1.740538
572.90 1.741563
573.00 1.742586
573.10 1.743609
573.20 1.744631
573.30 1.745652
573.40 1.746688
573.50 1.747744
573.60 1.748799
573.70 1.749853
573.80 1.750907
573.90 1.75196
574.00 1.753012
574.10 1.754063
574.20 1.755113
574.30 1.756162
574.40 1.757211
574.50 1.758259
574.60 1.759305
574.70 1.760351
574.80 1.761397
574.90 1.762441
575.00 1.763485
575.10 1.764527
575.20 1.765569
575.30 1.76661
575.40 1.76765
575.50 1.76869
575.60 1.769728
575.70 1.770766
575.80 1.771803
575.90 1.772839
576.00 1.773874
576.10 1.774909
576.20 1.775942
576.30 1.776975
576.40 1.778007
576.50 1.779038
576.60 1.780068
576.70 1.781098
576.80 1.782127
576.90 1.783154
577.00 1.784181
577.10 1.785208
577.20 1.786233
577.30 1.787258
577.40 1.788281
577.50 1.789304
577.60 1.790332
577.70 1.791369
577.80 1.792404
577.90 1.793439
578.00 1.794474
578.10 1.795507
578.20 1.796539
578.30 1.797571
578.40 1.798602
578.50 1.799632
578.60 1.800661
578.70 1.801689
578.80 1.802717
578.90 1.803744
579.00 1.804769
579.10 1.805797
579.20 1.806843
579.30 1.807889
579.40 1.808934
579.50 1.809978
579.60 1.811022
579.70 1.812064
579.80 1.813106
579.90 1.814147
580.00 1.815187
580.10 1.816229
580.20 1.817277
580.30 1.818324
580.40 1.81937
580.50 1.820416
580.60 1.82146
580.70 1.822504
580.80 1.823547
580.90 1.824589
581.00 1.82563
581.10 1.82667
581.20 1.82771
581.30 1.828749
581.40 1.829787
581.50 1.830824
581.60 1.83186
581.70 1.832895
581.80 1.83393
581.90 1.834964
582.00 1.835997
582.10 1.837029
582.20 1.83806
582.30 1.839091
582.40 1.840121
582.50 1.84115
582.60 1.842178
582.70 1.843205
582.80 1.844231
582.90 1.845257
583.00 1.846282
583.10 1.847306
583.20 1.848329
583.30 1.849351
583.40 1.850373
583.50 1.851394
583.60 1.852426
583.70 1.853476
583.80 1.854525
583.90 1.855574
584.00 1.856622
584.10 1.857669
584.20 1.858715
584.30 1.85976
584.40 1.860805
584.50 1.861848
584.60 1.862891
584.70 1.863933
584.80 1.864974
584.90 1.866005
585.00 1.866989
585.10 1.867973
585.20 1.868975
585.30 1.87001
585.40 1.871044
585.50 1.872077
585.60 1.873109
585.70 1.87414
585.80 1.875171
585.90 1.8762
586.00 1.877229
586.10 1.878257
586.20 1.879295
586.30 1.88035
586.40 1.881404
586.50 1.882457
586.60 1.883509
586.70 1.88456
586.80 1.885584
586.90 1.886563
587.00 1.887542
587.10 1.88852
587.20 1.889523
587.30 1.89057
587.40 1.891776
587.50 1.89268
587.60 1.893872
587.70 1.894767
587.80 1.89579
587.90 1.896832
588.00 1.897873
588.10 1.898913
588.20 1.899952
588.30 1.90099
588.40 1.902028
588.50 1.903064
588.60 1.9041
588.70 1.905135
588.80 1.90617
588.90 1.907203
589.00 1.908236
589.10 1.909268
589.20 1.910299
589.30 1.911329
589.40 1.912358
589.50 1.913387
589.60 1.914415
589.70 1.915442
589.80 1.916468
589.90 1.917493
590.00 1.918516
590.10 1.919535
590.20 1.920553
590.30 1.92157
590.40 1.922586
590.50 1.923601
590.60 1.924616
590.70 1.92563
590.80 1.92665
590.90 1.927672
591.00 1.928693
591.10 1.929714
591.20 1.930733
591.30 1.931752
591.40 1.93277
591.50 1.933787
591.60 1.934809
591.70 1.935839
591.80 1.936867
591.90 1.937895
592.00 1.938922
592.10 1.939948
592.20 1.940974
592.30 1.941999
592.40 1.943022
592.50 1.944046
592.60 1.945068
592.70 1.946089
592.80 1.94711
592.90 1.94813
593.00 1.949149
593.10 1.95017
593.20 1.951197
593.30 1.952223
593.40 1.953248
593.50 1.954272
593.60 1.955296
593.70 1.956318
593.80 1.95734
593.90 1.958361
594.00 1.959382
594.10 1.960401
594.20 1.96142
594.30 1.962438
594.40 1.963455
594.50 1.964471
594.60 1.965486
594.70 1.966501
594.80 1.967515
594.90 1.968528
595.00 1.96954
595.10 1.970558
595.20 1.971583
595.30 1.972608
595.40 1.973632
595.50 1.974656
595.60 1.975678
595.70 1.9767
595.80 1.977721
595.90 1.978741
596.00 1.97976
596.10 1.980779
596.20 1.981797
596.30 1.982814
596.40 1.98383
596.50 1.984845
596.60 1.98586
596.70 1.986876
596.80 1.987893
596.90 1.988909
597.00 1.989924
597.10 1.990939
597.20 1.991952
597.30 1.992965
597.40 1.993977
597.50 1.994989
597.60 1.995998
597.70 1.997004
597.80 1.99801
597.90 1.999015
598.00 2.000019
598.10 2.001022
598.20 2.002024
598.30 2.003026
598.40 2.004027
598.50 2.005027
598.60 2.006026
598.70 2.007025
598.80 2.008023
598.90 2.00902
599.00 2.010016
599.10 2.011011
599.20 2.012006
599.30 2.013
599.40 2.014018
599.50 2.015036
599.60 2.016053
599.70 2.017069
599.80 2.018084
599.90 2.019098
600.00 2.020112
600.10 2.021125
600.20 2.022137
600.30 2.023148
600.40 2.024159
600.50 2.025169
600.60 2.026178
600.70 2.027186
600.80 2.028193
600.90 2.0292
601.00 2.030205
601.10 2.03121
601.20 2.032215
601.30 2.033218
601.40 2.03423
601.50 2.035241
601.60 2.036251
601.70 2.03726
601.80 2.038269
601.90 2.039277
602.00 2.040284
602.10 2.04129
602.20 2.042295
602.30 2.0433
602.40 2.044304
602.50 2.045307
602.60 2.046309
602.70 2.047408
602.80 2.048511
602.90 2.049519
603.00 2.050526
603.10 2.051532
603.20 2.052537
603.30 2.053542
603.40 2.054545
603.50 2.055548
603.60 2.05655
603.70 2.057552
603.80 2.058553
603.90 2.059552
604.00 2.060552
604.10 2.06155
604.20 2.062547
604.30 2.063544
604.40 2.06454
604.50 2.065532
604.60 2.066523
604.70 2.067514
604.80 2.068503
604.90 2.069492
605.00 2.07048
605.10 2.071467
605.20 2.072454
605.30 2.07344
605.40 2.074425
605.50 2.075418
605.60 2.07641
605.70 2.077402
605.80 2.078392
605.90 2.079382
606.00 2.080372
606.10 2.081404
606.20 2.082436
606.30 2.083467
606.40 2.084497
606.50 2.085394
606.60 2.086291
606.70 2.087451
606.80 2.088478
606.90 2.089372
607.00 2.090398
607.10 2.091422
607.20 2.092446
607.30 2.093404
607.40 2.09436
607.50 2.095316
607.60 2.096271
607.70 2.097291
607.80 2.09831
607.90 2.099329
608.00 2.100347
608.10 2.101364
608.20 2.10238
608.30 2.103333
608.40 2.104286
608.50 2.105238
608.60 2.10619
608.70 2.107183
608.80 2.108195
608.90 2.109207
609.00 2.110218
609.10 2.111228
609.20 2.112237
609.30 2.113228
609.40 2.114219
609.50 2.115208
609.60 2.116197
609.70 2.117186
609.80 2.118173
609.90 2.11916
610.00 2.120146
610.10 2.121131
610.20 2.122116
610.30 2.123099
610.40 2.124082
610.50 2.125065
610.60 2.126046
610.70 2.127027
610.80 2.128007
610.90 2.128993
611.00 2.129979
611.10 2.130965
611.20 2.131949
611.30 2.132933
611.40 2.133916
611.50 2.134898
611.60 2.135879
611.70 2.13686
611.80 2.13784
611.90 2.138819
612.00 2.139798
612.10 2.140775
612.20 2.141752
612.30 2.142728
612.40 2.143725
612.50 2.144722
612.60 2.145717
612.70 2.146712
612.80 2.147706
612.90 2.148699
613.00 2.149691
613.10 2.150683
613.20 2.151674
613.30 2.152664
613.40 2.153654
613.50 2.154642
613.60 2.15563
613.70 2.156617
613.80 2.157603
613.90 2.158589
614.00 2.159574
614.10 2.160558
614.20 2.161541
614.30 2.162524
614.40 2.163486
614.50 2.164448
614.60 2.165409
614.70 2.166369
614.80 2.167351
614.90 2.168336
615.00 2.16932
615.10 2.170303
615.20 2.171286
615.30 2.172268
615.40 2.173249
615.50 2.17423
615.60 2.17521
615.70 2.176189
615.80 2.177167
615.90 2.178145
616.00 2.179121
616.10 2.180097
616.20 2.181073
616.30 2.182047
616.40 2.183021
616.50 2.183994
616.60 2.184966
616.70 2.185938
616.80 2.186908
616.90 2.187889
617.00 2.188869
617.10 2.189848
617.20 2.190827
617.30 2.191805
617.40 2.192782
617.50 2.193758
617.60 2.194734
617.70 2.195708
617.80 2.196682
617.90 2.197656
618.00 2.198628
618.10 2.1996
618.20 2.200571
618.30 2.201541
618.40 2.202511
618.50 2.20348
618.60 2.204448
618.70 2.205415
618.80 2.206382
618.90 2.207348
619.00 2.208313
619.10 2.209277
619.20 2.210241
619.30 2.211204
619.40 2.212166
619.50 2.213127
619.60 2.214088
619.70 2.215048
619.80 2.216007
619.90 2.216966
620.00 2.217923
620.10 2.21888
620.20 2.219837
620.30 2.220792
620.40 2.221747
620.50 2.222701
620.60 2.223655
620.70 2.224607
620.80 2.225559
620.90 2.226519
621.00 2.227494
621.10 2.228468
621.20 2.229442
621.30 2.230414
621.40 2.231386
621.50 2.232357
621.60 2.233328
621.70 2.234297
621.80 2.235266
621.90 2.236235
622.00 2.237202
622.10 2.238169
622.20 2.239135
622.30 2.2401
622.40 2.241065
622.50 2.242028
622.60 2.242991
622.70 2.243954
622.80 2.244915
622.90 2.245876
623.00 2.246836
623.10 2.247796
623.20 2.248754
623.30 2.249712
623.40 2.250669
623.50 2.251626
623.60 2.252582
623.70 2.253537
623.80 2.254491
623.90 2.255444
624.00 2.256397
624.10 2.257349
624.20 2.258301
624.30 2.259251
624.40 2.260201
624.50 2.261151
624.60 2.262099
624.70 2.263047
624.80 2.263994
624.90 2.26494
625.00 2.265886
625.10 2.266831
625.20 2.267775
625.30 2.268718
625.40 2.269661
625.50 2.270603
625.60 2.271544
625.70 2.272485
625.80 2.273424
625.90 2.274364
626.00 2.275302
626.10 2.27624
626.20 2.277177
626.30 2.278113
626.40 2.279048
626.50 2.279983
626.60 2.280917
626.70 2.281851
626.80 2.282784
626.90 2.283716
627.00 2.284647
627.10 2.285583
627.20 2.286532
627.30 2.28748
627.40 2.288428
627.50 2.289375
627.60 2.290321
627.70 2.291267
627.80 2.292212
627.90 2.293156
628.00 2.294099
628.10 2.295042
628.20 2.295984
628.30 2.296925
628.40 2.297866
628.50 2.298805
628.60 2.299744
628.70 2.300683
628.80 2.301621
628.90 2.302558
629.00 2.303494
629.10 2.304429
629.20 2.305364
629.30 2.306298
629.40 2.307232
629.50 2.308164
629.60 2.309096
629.70 2.310028
629.80 2.310958
629.90 2.311888
630.00 2.312817
630.10 2.313746
630.20 2.314674
630.30 2.315615
630.40 2.316556
630.50 2.317497
630.60 2.318437
630.70 2.319376
630.80 2.320314
630.90 2.321252
631.00 2.322189
631.10 2.323126
631.20 2.324061
631.30 2.324996
631.40 2.325931
631.50 2.326864
631.60 2.327797
631.70 2.328729
631.80 2.329661
631.90 2.330592
632.00 2.331522
632.10 2.332451
632.20 2.33338
632.30 2.334308
632.40 2.335235
632.50 2.336161
632.60 2.337087
632.70 2.338012
632.80 2.338937
632.90 2.33986
633.00 2.340783
633.10 2.341706
633.20 2.342627
633.30 2.343548
633.40 2.344477
633.50 2.345411
633.60 2.346345
633.70 2.347278
633.80 2.34821
633.90 2.349142
634.00 2.350073
634.10 2.351003
634.20 2.351932
634.30 2.352861
634.40 2.353789
634.50 2.354716
634.60 2.355643
634.70 2.356569
634.80 2.357494
634.90 2.358419
635.00 2.359342
635.10 2.360266
635.20 2.361188
635.30 2.36211
635.40 2.363031
635.50 2.363951
635.60 2.364871
635.70 2.36579
635.80 2.366708
635.90 2.367626
636.00 2.368543
636.10 2.369459
636.20 2.370374
636.30 2.371289
636.40 2.372203
636.50 2.373117
636.60 2.374056
636.70 2.374998
636.80 2.375939
636.90 2.376879
637.00 2.377819
637.10 2.378758
637.20 2.379696
637.30 2.380634
637.40 2.38157
637.50 2.382506
637.60 2.383442
637.70 2.384377
637.80 2.385311
637.90 2.386244
638.00 2.387176
638.10 2.388108
638.20 2.38904
638.30 2.38997
638.40 2.3909
638.50 2.391829
638.60 2.392757
638.70 2.393685
638.80 2.394612
638.90 2.395538
639.00 2.396464
639.10 2.397389
639.20 2.398313
639.30 2.399237
639.40 2.400159
639.50 2.401081
639.60 2.402003
639.70 2.402915
639.80 2.403796
639.90 2.404676
640.00 2.405556
640.10 2.406435
640.20 2.407313
640.30 2.408191
640.40 2.409068
640.50 2.409945
640.60 2.41082
640.70 2.411695
640.80 2.41257
640.90 2.413444
641.00 2.414317
641.10 2.415189
641.20 2.416061
641.30 2.416932
641.40 2.417802
641.50 2.418672
641.60 2.419541
641.70 2.42041
641.80 2.421278
641.90 2.422145
642.00 2.423011
642.10 2.423877
642.20 2.424742
642.30 2.425607
642.40 2.426471
642.50 2.427334
642.60 2.428196
642.70 2.429058
642.80 2.429919
642.90 2.430798
643.00 2.431732
643.10 2.432665
643.20 2.433597
643.30 2.434529
643.40 2.43546
643.50 2.436391
643.60 2.437321
643.70 2.43825
643.80 2.439178
643.90 2.440106
644.00 2.441033
644.10 2.441959
644.20 2.442884
644.30 2.443809
644.40 2.444733
644.50 2.445657
644.60 2.44658
644.70 2.447502
644.80 2.448423
644.90 2.449344
645.00 2.450264
645.10 2.451183
645.20 2.452102
645.30 2.45302
645.40 2.453937
645.50 2.454854
645.60 2.45577
645.70 2.456685
645.80 2.4576
645.90 2.458514
646.00 2.459427
646.10 2.460335
646.20 2.46123
646.30 2.462125
646.40 2.463019
646.50 2.463912
646.60 2.464804
646.70 2.465696
646.80 2.466588
646.90 2.467478
647.00 2.468368
647.10 2.469257
647.20 2.470146
647.30 2.471034
647.40 2.471921
647.50 2.472807
647.60 2.473693
647.70 2.474578
647.80 2.475463
647.90 2.476347
648.00 2.47723
648.10 2.478113
648.20 2.478995
648.30 2.479876
648.40 2.480756
648.50 2.481636
648.60 2.482516
648.70 2.483394
648.80 2.484272
648.90 2.485149
649.00 2.486026
649.10 2.486902
649.20 2.487777
649.30 2.488652
649.40 2.489525
649.50 2.490398
649.60 2.49127
649.70 2.492142
649.80 2.493013
649.90 2.493883
650.00 2.494753
650.10 2.495621
650.20 2.49649
650.30 2.497357
650.40 2.498224
650.50 2.499091
650.60 2.499956
650.70 2.500821
650.80 2.501685
650.90 2.502549
651.00 2.503412
651.10 2.504275
651.20 2.505136
651.30 2.505997
651.40 2.506858
651.50 2.507718
651.60 2.508577
651.70 2.509435
651.80 2.510293
651.90 2.511151
652.00 2.512007
652.10 2.512863
652.20 2.513718
652.30 2.514573
652.40 2.515427
652.50 2.51628
652.60 2.517108
652.70 2.517922
652.80 2.518735
652.90 2.519548
653.00 2.52036
653.10 2.521172
653.20 2.521982
653.30 2.522793
653.40 2.523602
653.50 2.524411
653.60 2.52522
653.70 2.526027
653.80 2.526834
653.90 2.527641
654.00 2.528447
654.10 2.529252
654.20 2.530057
654.30 2.530861
654.40 2.531664
654.50 2.532467
654.60 2.53327
654.70 2.534071
654.80 2.534872
654.90 2.535673
655.00 2.536472
655.10 2.537272
655.20 2.53807
655.30 2.538868
655.40 2.539666
655.50 2.540462
655.60 2.541259
655.70 2.542054
655.80 2.542973
655.90 2.543892
656.00 2.544809
656.10 2.545726
656.20 2.546642
656.30 2.547558
656.40 2.548473
656.50 2.549387
656.60 2.550301
656.70 2.551214
656.80 2.552126
656.90 2.553037
657.00 2.553948
657.10 2.554859
657.20 2.555768
657.30 2.556677
657.40 2.557585
657.50 2.558493
657.60 2.5594
657.70 2.560306
657.80 2.56148
657.90 2.562373
658.00 2.563216
658.10 2.564059
658.20 2.564901
658.30 2.565742
658.40 2.566583
658.50 2.567423
658.60 2.568263
658.70 2.569102
658.80 2.56994
658.90 2.570777
659.00 2.571614
659.10 2.572443
659.20 2.57326
659.30 2.574083
659.40 2.574905
659.50 2.575727
659.60 2.576548
659.70 2.577369
659.80 2.578188
659.90 2.579008
660.00 2.579827
660.10 2.580645
660.20 2.581462
660.30 2.582279
660.40 2.582908
660.50 2.583503
660.60 2.584098
660.70 2.584693
660.80 2.585287
660.90 2.586061
661.00 2.586835
661.10 2.587609
661.20 2.588382
661.30 2.589154
661.40 2.589926
661.50 2.590697
661.60 2.591467
661.70 2.592237
661.80 2.593007
661.90 2.593946
662.00 2.594884
662.10 2.595821
662.20 2.596758
662.30 2.597694
662.40 2.599382
662.50 2.600257
662.60 2.601132
662.70 2.602006
662.80 2.60288
662.90 2.6032
663.00 2.60352
663.10 2.604944
663.20 2.605263
663.30 2.605582
663.40 2.607004
663.50 2.607321
663.60 2.607638
663.70 2.608904
663.80 2.610169
663.90 2.610703
664.00 2.611108
664.10 2.612157
664.20 2.613206
664.30 2.614254
664.40 2.615301
664.50 2.616347
664.60 2.617393
664.70 2.618224
664.80 2.619055
664.90 2.619885
665.00 2.620715
665.10 2.621543
665.20 2.622372
665.30 2.623199
665.40 2.624026
665.50 2.624488
665.60 2.624884
665.70 2.624939
665.80 2.625872
665.90 2.626804
666.00 2.627735
666.10 2.628666
666.20 2.629596
666.30 2.630525
666.40 2.631454
666.50 2.632161
666.60 2.632829
666.70 2.633497
666.80 2.634163
666.90 2.63483
667.00 2.635496
667.10 2.63693
667.20 2.638499
667.30 2.638723
667.40 2.638946
667.50 2.640161
667.60 2.64155
667.70 2.641358
667.80 2.642473
667.90 2.64386
668.00 2.644429
668.10 2.645379
668.20 2.645675
668.30 2.646433
668.40 2.647272
668.50 2.648111
668.60 2.648949
668.70 2.650573
668.80 2.651046
668.90 2.651518
669.00 2.65199
669.10 2.652462
669.20 2.652933
669.30 2.653804
669.40 2.654746
669.50 2.655687
669.60 2.656627
669.70 2.657567
669.80 2.658505
669.90 2.659444
670.00 2.660381
670.10 2.661318
670.20 2.662254
670.30 2.662856
670.40 2.663399
670.50 2.663941
670.60 2.664483
670.70 2.665025
670.80 2.665973
670.90 2.66692
671.00 2.667867
671.10 2.668813
671.20 2.669759
671.30 2.670703
671.40 2.671647
671.50 2.672591
671.60 2.673534
671.70 2.674476
671.80 2.675417
671.90 2.675997
672.00 2.676512
672.10 2.677027
672.20 2.677542
672.30 2.678056
672.40 2.678917
672.50 2.679805
672.60 2.680691
672.70 2.681577
672.80 2.682462
672.90 2.683347
673.00 2.684231
673.10 2.685114
673.20 2.685997
673.30 2.687063
673.40 2.687819
673.50 2.68852
673.60 2.689221
673.70 2.689921
673.80 2.69062
673.90 2.691319
674.00 2.692017
674.10 2.692715
674.20 2.693413
674.30 2.69411
674.40 2.694806
674.50 2.695502
674.60 2.696197
674.70 2.696892
674.80 2.697586
674.90 2.69828
675.00 2.698973
675.10 2.699665
675.20 2.700357
675.30 2.701049
675.40 2.701849
675.50 2.702667
675.60 2.703484
675.70 2.704301
675.80 2.705118
675.90 2.705934
676.00 2.706749
676.10 2.707563
676.20 2.708377
676.30 2.709191
676.40 2.710004
676.50 2.710816
676.60 2.711627
676.70 2.712438
676.80 2.713249
676.90 2.714059
677.00 2.714868
677.10 2.715676
677.20 2.716484
677.30 2.717292
677.40 2.718099
677.50 2.718905
677.60 2.71971
677.70 2.720516
677.80 2.72132
677.90 2.722089
678.00 2.722852
678.10 2.723614
678.20 2.724375
678.30 2.725136
678.40 2.725896
678.50 2.726656
678.60 2.727415
678.70 2.728174
678.80 2.728932
678.90 2.729689
679.00 2.730446
679.10 2.731196
679.20 2.731943
679.30 2.732689
679.40 2.733434
679.50 2.734179
679.60 2.734924
679.70 2.735667
679.80 2.736411
679.90 2.737153
680.00 2.737895
680.10 2.738637
680.20 2.739378
680.30 2.740119
680.40 2.740858
680.50 2.741598
680.60 2.742337
680.70 2.743075
680.80 2.743813
680.90 2.74455
681.00 2.745286
681.10 2.746022
681.20 2.746758
681.30 2.747493
681.40 2.748227
681.50 2.748961
681.60 2.749694
681.70 2.750427
681.80 2.751159
681.90 2.751891
682.00 2.752622
682.10 2.753353
682.20 2.754083
682.30 2.754812
682.40 2.755541
682.50 2.75627
682.60 2.756997
682.70 2.757725
682.80 2.758452
682.90 2.759178
683.00 2.759903
683.10 2.760628
683.20 2.761353
683.30 2.762077
683.40 2.762801
683.50 2.763524
683.60 2.764246
683.70 2.764968
683.80 2.765689
683.90 2.76641
684.00 2.76713
684.10 2.76785
684.20 2.768569
684.30 2.769288
684.40 2.770006
684.50 2.770723
684.60 2.77144
684.70 2.772157
684.80 2.772873
684.90 2.773588
685.00 2.774303
685.10 2.775017
685.20 2.775731
685.30 2.776444
685.40 2.777157
685.50 2.777869
685.60 2.778581
685.70 2.779292
685.80 2.780003
685.90 2.780725
686.00 2.781449
686.10 2.782173
686.20 2.782896
686.30 2.783619
686.40 2.784341
686.50 2.785063
686.60 2.785784
686.70 2.786504
686.80 2.787224
686.90 2.787944
687.00 2.788663
687.10 2.789381
687.20 2.790099
687.30 2.790816
687.40 2.791533
687.50 2.792249
687.60 2.792965
687.70 2.79368
687.80 2.794395
687.90 2.795109
688.00 2.795823
688.10 2.796536
688.20 2.797248
688.30 2.79796
688.40 2.798672
688.50 2.799383
688.60 2.800093
688.70 2.800803
688.80 2.801512
688.90 2.802221
689.00 2.80293
689.10 2.803637
689.20 2.804345
689.30 2.805051
689.40 2.805757
689.50 2.806463
689.60 2.807168
689.70 2.807873
689.80 2.808577
689.90 2.80928
690.00 2.809983
690.10 2.810686
690.20 2.811388
690.30 2.812089
690.40 2.81279
690.50 2.813491
690.60 2.81419
690.70 2.81489
690.80 2.815589
690.90 2.816287
691.00 2.816985
691.10 2.817682
691.20 2.818379
691.30 2.819075
691.40 2.819771
691.50 2.820466
691.60 2.82116
691.70 2.821855
691.80 2.822548
691.90 2.823241
692.00 2.823934
692.10 2.824626
692.20 2.825317
692.30 2.826008
692.40 2.826699
692.50 2.827389
692.60 2.828078
692.70 2.828772
692.80 2.829484
692.90 2.830196
693.00 2.830907
693.10 2.831617
693.20 2.832327
693.30 2.833037
693.40 2.833745
693.50 2.834454
693.60 2.835162
693.70 2.835869
693.80 2.836576
693.90 2.837282
694.00 2.837988
694.10 2.838693
694.20 2.839398
694.30 2.840102
694.40 2.840805
694.50 2.841508
694.60 2.842211
694.70 2.842913
694.80 2.843615
694.90 2.844316
695.00 2.845016
695.10 2.845716
695.20 2.846415
695.30 2.847114
695.40 2.847813
695.50 2.848511
695.60 2.849208
695.70 2.849905
695.80 2.850601
695.90 2.851297
696.00 2.851992
696.10 2.852687
696.20 2.853381
696.30 2.854075
696.40 2.854768
696.50 2.855461
696.60 2.856161
696.70 2.856862
696.80 2.857563
696.90 2.858263
697.00 2.858963
697.10 2.859662
697.20 2.860361
697.30 2.861059
697.40 2.861757
697.50 2.862454
697.60 2.86315
697.70 2.863846
697.80 2.864542
697.90 2.865237
698.00 2.865932
698.10 2.866626
698.20 2.867319
698.30 2.868012
698.40 2.868705
698.50 2.869397
698.60 2.870088
698.70 2.870779
698.80 2.871469
698.90 2.872159
699.00 2.872849
699.10 2.873413
699.20 2.873948
699.30 2.874482
699.40 2.875015
699.50 2.875549
699.60 2.876082
699.70 2.876794
699.80 2.877515
699.90 2.878236
700.00 2.878956
700.10 2.879675
700.20 2.880394
700.30 2.881113
700.40 2.881831
700.50 2.882548
700.60 2.883265
700.70 2.883981
700.80 2.884697
700.90 2.885413
701.00 2.886127
701.10 2.88677
701.20 2.887396
701.30 2.888021
701.40 2.888646
701.50 2.88927
701.60 2.889894
701.70 2.890517
701.80 2.89114
701.90 2.891762
702.00 2.892384
702.10 2.893006
702.20 2.893627
702.30 2.894247
702.40 2.894867
702.50 2.895486
702.60 2.896132
702.70 2.896783
702.80 2.897434
702.90 2.898085
703.00 2.898735
703.10 2.899384
703.20 2.900033
703.30 2.900681
703.40 2.901329
703.50 2.901977
703.60 2.902624
703.70 2.90327
703.80 2.903916
703.90 2.904562
704.00 2.905207
704.10 2.905851
704.20 2.906575
704.30 2.907316
704.40 2.908057
704.50 2.908798
704.60 2.909537
704.70 2.910277
704.80 2.911016
704.90 2.911754
705.00 2.912492
705.10 2.913229
705.20 2.913755
705.30 2.91423
705.40 2.914706
705.50 2.915181
705.60 2.915655
705.70 2.91613
705.80 2.916735
705.90 2.917371
706.00 2.918006
706.10 2.918641
706.20 2.91967
706.30 2.920791
706.40 2.920383
706.50 2.921965
706.60 2.922573
706.70 2.922767
706.80 2.923651
706.90 2.923796
707.00 2.924335
707.10 2.924965
707.20 2.925594
707.30 2.926224
707.40 2.926984
707.50 2.927774
707.60 2.928563
707.70 2.929352
707.80 2.93014
707.90 2.930928
708.00 2.931506
708.10 2.932034
708.20 2.932562
708.30 2.93309
708.40 2.933617
708.50 2.934143
708.60 2.93467
708.70 2.935196
708.80 2.935721
708.90 2.936246
709.00 2.936849
709.10 2.93747
709.20 2.93809
709.30 2.93871
709.40 2.939329
709.50 2.939948
709.60 2.940567
709.70 2.941185
709.80 2.941802
709.90 2.942419
710.00 2.943036
710.10 2.943652
710.20 2.944268
710.30 2.944883
710.40 2.945498
710.50 2.946112
710.60 2.946804
710.70 2.947513
710.80 2.948222
710.90 2.948931
711.00 2.949639
711.10 2.950346
711.20 2.951053
711.30 2.95176
711.40 2.952465
711.50 2.953171
711.60 2.953876
711.70 2.95458
711.80 2.955284
711.90 2.955987
712.00 2.95669
712.10 2.957281
712.20 2.957845
712.30 2.958409
712.40 2.958972
712.50 2.959535
712.60 2.960098
712.70 2.96066
712.80 2.961222
712.90 2.961783
713.00 2.962344
713.10 2.962904
713.20 2.963464
713.30 2.964023
713.40 2.964582
713.50 2.965141
713.60 2.965699
713.70 2.966335
713.80 2.967129
713.90 2.967922
714.00 2.968715
714.10 2.969303
714.20 2.969843
714.30 2.970383
714.40 2.970922
714.50 2.97146
714.60 2.971999
714.70 2.972536
714.80 2.973074
714.90 2.973611
715.00 2.974147
715.10 2.974683
715.20 2.975219
715.30 2.975754
715.40 2.976289
715.50 2.976824
715.60 2.977358
715.70 2.977891
715.80 2.978424
715.90 2.978957
716.00 2.97949
716.10 2.980021
716.20 2.980553
716.30 2.981084
716.40 2.981615
716.50 2.982145
716.60 2.982805
716.70 2.983494
716.80 2.984182
716.90 2.984871
717.00 2.985558
717.10 2.986245
717.20 2.986932
717.30 2.987618
717.40 2.988304
717.50 2.988989
717.60 2.989674
717.70 2.990358
717.80 2.991042
717.90 2.991725
718.00 2.992408
718.10 2.99309
718.20 2.993668
718.30 2.99419
718.40 2.994712
718.50 2.995234
718.60 2.995755
718.70 2.996275
718.80 2.996795
718.90 2.997315
719.00 2.997834
719.10 2.998353
719.20 2.998872
719.30 2.99939
719.40 2.999908
719.50 3.000425
719.60 3.000942
719.70 3.001459
719.80 3.001975
719.90 3.002491
720.00 3.003006
720.10 3.003521
720.20 3.004035
720.30 3.00455
720.40 3.005063
720.50 3.005577
720.60 3.00609
720.70 3.007165
720.80 3.008544
720.90 3.009072
721.00 3.009564
721.10 3.010056
721.20 3.010548
721.30 3.011039
721.40 3.011529
721.50 3.01202
721.60 3.01251
721.70 3.012999
721.80 3.013488
721.90 3.013977
722.00 3.014465
722.10 3.014953
722.20 3.015441
722.30 3.015928
722.40 3.016415
722.50 3.016901
722.60 3.017387
722.70 3.017982
722.80 3.018634
722.90 3.019287
723.00 3.019938
723.10 3.020589
723.20 3.02124
723.30 3.02189
723.40 3.02254
723.50 3.023189
723.60 3.023838
723.70 3.024486
723.80 3.025134
723.90 3.025782
724.00 3.026429
724.10 3.027075
724.20 3.027661
724.30 3.028214
724.40 3.028766
724.50 3.029318
724.60 3.02987
724.70 3.030421
724.80 3.030972
724.90 3.031522
725.00 3.032072
725.10 3.032622
725.20 3.033171
725.30 3.03372
725.40 3.034268
725.50 3.034816
725.60 3.035364
725.70 3.035911
725.80 3.036397
725.90 3.036851
726.00 3.037305
726.10 3.037758
726.20 3.038211
726.30 3.038664
726.40 3.039116
726.50 3.039568
726.60 3.04002
726.70 3.040471
726.80 3.041081
726.90 3.041776
727.00 3.042471
727.10 3.043166
727.20 3.04386
727.30 3.044553
727.40 3.045147
727.50 3.045687
727.60 3.046226
727.70 3.046765
727.80 3.047005
727.90 3.047085
728.00 3.048401
728.10 3.049397
728.20 3.048559
728.30 3.049554
728.40 3.049907
728.50 3.0509
728.60 3.051595
728.70 3.05213
728.80 3.052664
728.90 3.053198
729.00 3.053632
729.10 3.054013
729.20 3.054394
729.30 3.054774
729.40 3.055154
729.50 3.055533
729.60 3.05607
729.70 3.056692
729.80 3.057314
729.90 3.057935
730.00 3.058556
730.10 3.059176
730.20 3.059796
730.30 3.060415
730.40 3.061034
730.50 3.061653
730.60 3.062211
730.70 3.062738
730.80 3.063264
730.90 3.06379
731.00 3.064315
731.10 3.06484
731.20 3.065365
731.30 3.065889
731.40 3.066413
731.50 3.066936
731.60 3.067459
731.70 3.067981
731.80 3.068504
731.90 3.069025
732.00 3.069547
732.10 3.070068
732.20 3.070569
732.30 3.071059
732.40 3.071548
732.50 3.072037
732.60 3.072526
732.70 3.073015
732.80 3.073503
732.90 3.07399
733.00 3.074478
733.10 3.074965
733.20 3.075451
733.30 3.075937
733.40 3.076423
733.50 3.076908
733.60 3.077393
733.70 3.077867
733.80 3.078335
733.90 3.078803
734.00 3.07927
734.10 3.079736
734.20 3.080203
734.30 3.080668
734.40 3.081134
734.50 3.081599
734.60 3.082064
734.70 3.082529
734.80 3.082993
734.90 3.083456
735.00 3.08392
735.10 3.084383
735.20 3.084845
735.30 3.085329
735.40 3.086061
735.50 3.086793
735.60 3.087524
735.70 3.088121
735.80 3.088645
735.90 3.089169
736.00 3.089693
736.10 3.090216
736.20 3.090739
736.30 3.091262
736.40 3.091784
736.50 3.092305
736.60 3.092826
736.70 3.093347
736.80 3.093868
736.90 3.094388
737.00 3.094907
737.10 3.095427
737.20 3.095946
737.30 3.096464
737.40 3.096982
737.50 3.0975
737.60 3.098017
737.70 3.098534
737.80 3.09905
737.90 3.099567
738.00 3.100082
738.10 3.100598
738.20 3.10108
738.30 3.101544
738.40 3.102008
738.50 3.102471
738.60 3.102934
738.70 3.103397
738.80 3.103859
738.90 3.104321
739.00 3.104782
739.10 3.105244
739.20 3.105704
739.30 3.106165
739.40 3.106625
739.50 3.107085
739.60 3.107544
739.70 3.108003
739.80 3.108462
739.90 3.10892
740.00 3.109378
740.10 3.109836
740.20 3.110293
740.30 3.11075
740.40 3.111206
740.50 3.111662
740.60 3.112118
740.70 3.112573
740.80 3.113028
740.90 3.113483
741.00 3.113937
741.10 3.114391
741.20 3.114845
741.30 3.115298
741.40 3.115751
741.50 3.116204
741.60 3.116656
741.70 3.117108
741.80 3.117559
741.90 3.11801
742.00 3.118461
742.10 3.118912
742.20 3.119362
742.30 3.119811
742.40 3.120261
742.50 3.12071
742.60 3.121158
742.70 3.121646
742.80 3.122167
742.90 3.122687
743.00 3.123207
743.10 3.123726
743.20 3.124245
743.30 3.124764
743.40 3.125282
743.50 3.1258
743.60 3.126317
743.70 3.126826
743.80 3.127304
743.90 3.127782
744.00 3.128259
744.10 3.128736
744.20 3.129212
744.30 3.129688
744.40 3.130164
744.50 3.130639
744.60 3.131114
744.70 3.131589
744.80 3.132063
744.90 3.132537
745.00 3.133011
745.10 3.133484
745.20 3.133957
745.30 3.134429
745.40 3.134901
745.50 3.135373
745.60 3.135844
745.70 3.136315
745.80 3.136786
745.90 3.137256
746.00 3.137726
746.10 3.138195
746.20 3.138665
746.30 3.139133
746.40 3.139602
746.50 3.14007
746.60 3.140537
746.70 3.141005
746.80 3.141472
746.90 3.141938
747.00 3.142405
747.10 3.14287
747.20 3.143336
747.30 3.143801
747.40 3.144266
747.50 3.14473
747.60 3.145194
747.70 3.145658
747.80 3.146121
747.90 3.146584
748.00 3.147047
748.10 3.147509
748.20 3.147971
748.30 3.148433
748.40 3.148894
748.50 3.149355
748.60 3.149815
748.70 3.150275
748.80 3.150735
748.90 3.151194
749.00 3.151654
749.10 3.152112
749.20 3.152571
749.30 3.153028
749.40 3.153486
749.50 3.153943
749.60 3.1544
749.70 3.154857
749.80 3.155313
749.90 3.155769
750.00 3.156224
750.10 3.156664
750.20 3.157066
750.30 3.157467
750.40 3.157868
750.50 3.158268
750.60 3.158668
750.70 3.159068
750.80 3.159467
750.90 3.159866
751.00 3.160265
751.10 3.160663
751.20 3.161061
751.30 3.161459
751.40 3.161857
751.50 3.162254
751.60 3.162651
751.70 3.163047
751.80 3.163443
751.90 3.163839
752.00 3.164235
752.10 3.16463
752.20 3.165025
752.30 3.165419
752.40 3.165814
752.50 3.166207
752.60 3.166601
752.70 3.166994
752.80 3.167387
752.90 3.16778
753.00 3.168172
753.10 3.168564
753.20 3.168956
753.30 3.169347
753.40 3.169738
753.50 3.170129
753.60 3.170519
753.70 3.170909
753.80 3.171299
753.90 3.171724
754.00 3.172159
754.10 3.172593
754.20 3.173027
754.30 3.173461
754.40 3.173894
754.50 3.174327
754.60 3.17476
754.70 3.175192
754.80 3.175624
754.90 3.176056
755.00 3.176487
755.10 3.176918
755.20 3.177348
755.30 3.177779
755.40 3.178209
755.50 3.178638
755.60 3.179067
755.70 3.179496
755.80 3.179925
755.90 3.180353
756.00 3.180781
756.10 3.181208
756.20 3.181636
756.30 3.182063
756.40 3.182489
756.50 3.182915
756.60 3.183341
756.70 3.183767
756.80 3.184192
756.90 3.184617
757.00 3.185041
757.10 3.185465
757.20 3.185889
757.30 3.186313
757.40 3.186736
757.50 3.187159
757.60 3.187578
757.70 3.187987
757.80 3.188396
757.90 3.188805
758.00 3.189214
758.10 3.189622
758.20 3.19003
758.30 3.190437
758.40 3.190845
758.50 3.191251
758.60 3.191658
758.70 3.192064
758.80 3.19247
758.90 3.192876
759.00 3.193281
759.10 3.193686
759.20 3.194091
759.30 3.194495
759.40 3.194899
759.50 3.195302
759.60 3.195706
759.70 3.196109
759.80 3.196511
759.90 3.196914
760.00 3.197316
760.10 3.197717
760.20 3.198119
760.30 3.19852
760.40 3.198921
760.50 3.199321
760.60 3.199721
760.70 3.200121
760.80 3.20052
760.90 3.20092
761.00 3.201318
761.10 3.201717
761.20 3.202115
761.30 3.202513
761.40 3.20291
761.50 3.203308
761.60 3.203705
761.70 3.204101
761.80 3.204497
761.90 3.204893
762.00 3.205289
762.10 3.205684
762.20 3.206079
762.30 3.206474
762.40 3.206868
762.50 3.207262
762.60 3.207656
762.70 3.208049
762.80 3.208442
762.90 3.208835
763.00 3.209228
763.10 3.20962
763.20 3.210012
763.30 3.210403
763.40 3.210794
763.50 3.211185
763.60 3.211576
763.70 3.211966
763.80 3.212356
763.90 3.212746
764.00 3.213135
764.10 3.213524
764.20 3.213913
764.30 3.214301
764.40 3.214689
764.50 3.215077
764.60 3.215464
764.70 3.215851
764.80 3.216238
764.90 3.216624
765.00 3.217011
765.10 3.217397
765.20 3.217764
765.30 3.218116
765.40 3.218467
765.50 3.218818
765.60 3.219168
765.70 3.219518
765.80 3.219868
765.90 3.220218
766.00 3.220567
766.10 3.220916
766.20 3.221265
766.30 3.221614
766.40 3.221962
766.50 3.22231
766.60 3.222657
766.70 3.223005
766.80 3.223352
766.90 3.223698
767.00 3.224045
767.10 3.224391
767.20 3.224737
767.30 3.225082
767.40 3.225428
767.50 3.225772
767.60 3.226117
767.70 3.226462
767.80 3.226806
767.90 3.22715
768.00 3.227493
768.10 3.227836
768.20 3.228179
768.30 3.228522
768.40 3.228864
768.50 3.229206
768.60 3.229548
768.70 3.22989
768.80 3.230231
768.90 3.230572
769.00 3.230913
769.10 3.231253
769.20 3.231593
769.30 3.231933
769.40 3.232272
769.50 3.232612
769.60 3.23295
769.70 3.233289
769.80 3.233628
769.90 3.233966
770.00 3.234303
770.10 3.234641
770.20 3.234978
770.30 3.235315
770.40 3.235652
770.50 3.235988
770.60 3.236324
770.70 3.23666
770.80 3.236996
770.90 3.237331
771.00 3.237666
771.10 3.238
771.20 3.238335
771.30 3.238669
771.40 3.239003
771.50 3.239336
771.60 3.23967
771.70 3.240003
771.80 3.240335
771.90 3.240668
772.00 3.241
772.10 3.241332
772.20 3.241663
772.30 3.241995
772.40 3.242326
772.50 3.242656
772.60 3.242987
772.70 3.243317
772.80 3.243647
772.90 3.243986
773.00 3.244325
773.10 3.244664
773.20 3.245002
773.30 3.24534
773.40 3.245678
773.50 3.246015
773.60 3.246352
773.70 3.246689
773.80 3.247026
773.90 3.247362
774.00 3.247698
774.10 3.248034
774.20 3.24837
774.30 3.248705
774.40 3.24904
774.50 3.249374
774.60 3.249709
774.70 3.250043
774.80 3.250377
774.90 3.25071
775.00 3.251044
775.10 3.251377
775.20 3.251709
775.30 3.252042
775.40 3.252374
775.50 3.252706
775.60 3.253037
775.70 3.253368
775.80 3.253699
775.90 3.25403
776.00 3.254361
776.10 3.254691
776.20 3.255021
776.30 3.25535
776.40 3.25568
776.50 3.256009
776.60 3.256338
776.70 3.256666
776.80 3.256994
776.90 3.257322
777.00 3.25765
777.10 3.257977
777.20 3.258304
777.30 3.258631
777.40 3.258958
777.50 3.259284
777.60 3.25961
777.70 3.259936
777.80 3.260261
777.90 3.260587
778.00 3.260912
778.10 3.261236
778.20 3.261561
778.30 3.261885
778.40 3.262208
778.50 3.262532
778.60 3.262855
778.70 3.263178
778.80 3.263501
778.90 3.263824
779.00 3.264146
779.10 3.264468
779.20 3.264789
779.30 3.265111
779.40 3.265432
779.50 3.265753
779.60 3.266073
779.70 3.266393
779.80 3.266713
779.90 3.267033
780.00 3.267353
780.10 3.267672
780.20 3.267991
780.30 3.268309
780.40 3.268628
780.50 3.268946
780.60 3.269255
780.70 3.269562
780.80 3.269867
780.90 3.270173
781.00 3.270478
781.10 3.270783
781.20 3.271088
781.30 3.271393
781.40 3.271697
781.50 3.272001
781.60 3.272305
781.70 3.272608
781.80 3.272912
781.90 3.273215
782.00 3.273517
782.10 3.27382
782.20 3.274122
782.30 3.274424
782.40 3.274726
782.50 3.275027
782.60 3.275328
782.70 3.275629
782.80 3.27593
782.90 3.27623
783.00 3.27653
783.10 3.27683
783.20 3.27713
783.30 3.277429
783.40 3.277728
783.50 3.278027
783.60 3.278325
783.70 3.278624
783.80 3.278922
783.90 3.27922
784.00 3.279517
784.10 3.279814
784.20 3.280111
784.30 3.280408
784.40 3.280705
784.50 3.281001
784.60 3.281284
784.70 3.281538
784.80 3.281792
784.90 3.282045
785.00 3.282298
785.10 3.282551
785.20 3.282804
785.30 3.283056
785.40 3.283308
785.50 3.28356
785.60 3.283812
785.70 3.284064
785.80 3.284315
785.90 3.284566
786.00 3.284817
786.10 3.285067
786.20 3.285318
786.30 3.285568
786.40 3.285818
786.50 3.286067
786.60 3.286317
786.70 3.286566
786.80 3.286815
786.90 3.287063
787.00 3.287312
787.10 3.28756
787.20 3.287808
787.30 3.288056
787.40 3.288304
787.50 3.288551
787.60 3.288798
787.70 3.289045
787.80 3.289291
787.90 3.289538
788.00 3.289784
788.10 3.29003
788.20 3.290276
788.30 3.290521
788.40 3.290786
788.50 3.291062
788.60 3.291337
788.70 3.291611
788.80 3.291886
788.90 3.29216
789.00 3.292434
789.10 3.292708
789.20 3.292982
789.30 3.293255
789.40 3.293528
789.50 3.293801
789.60 3.294073
789.70 3.294346
789.80 3.294618
789.90 3.29489
790.00 3.295161
790.10 3.295432
790.20 3.295704
790.30 3.295974
790.40 3.296245
790.50 3.296515
790.60 3.296786
790.70 3.297055
790.80 3.297325
790.90 3.297594
791.00 3.297864
791.10 3.298133
791.20 3.298401
791.30 3.29867
791.40 3.298938
791.50 3.299206
791.60 3.299474
791.70 3.299741
791.80 3.300008
791.90 3.300275
792.00 3.300542
792.10 3.300808
792.20 3.301075
792.30 3.301341
792.40 3.301607
792.50 3.301873
792.60 3.302138
792.70 3.302404
792.80 3.302669
792.90 3.302934
793.00 3.303198
793.10 3.303463
793.20 3.303727
793.30 3.303991
793.40 3.304255
793.50 3.304518
793.60 3.304781
793.70 3.305044
793.80 3.305307
793.90 3.305569
794.00 3.305832
794.10 3.306094
794.20 3.306355
794.30 3.306617
794.40 3.306878
794.50 3.307139
794.60 3.3074
794.70 3.307661
794.80 3.307921
794.90 3.308181
795.00 3.308441
795.10 3.308701
795.20 3.30896
795.30 3.30922
795.40 3.309479
795.50 3.309737
795.60 3.309996
795.70 3.310254
795.80 3.310512
795.90 3.31077
796.00 3.311027
796.10 3.311285
796.20 3.311542
796.30 3.311773
796.40 3.312
796.50 3.312226
796.60 3.312452
796.70 3.312678
796.80 3.312903
796.90 3.313129
797.00 3.313354
797.10 3.313579
797.20 3.313803
797.30 3.314028
797.40 3.314252
797.50 3.314476
797.60 3.3147
797.70 3.314924
797.80 3.315147
797.90 3.31537
798.00 3.315593
798.10 3.315816
798.20 3.316039
798.30 3.316261
798.40 3.316483
798.50 3.316705
798.60 3.316927
798.70 3.317148
798.80 3.317369
798.90 3.31759
799.00 3.317811
799.10 3.318032
799.20 3.318252
799.30 3.318472
799.40 3.318692
799.50 3.318912
799.60 3.319132
799.70 3.319351
799.80 3.31957
799.90 3.319789
800.00 3.320008
800.10 3.320226
800.20 3.320445
800.30 3.320663
800.40 3.32088
800.50 3.321098
800.60 3.321315
800.70 3.321533
800.80 3.32175
800.90 3.321966
801.00 3.322183
801.10 3.322399
801.20 3.322615
801.30 3.322831
801.40 3.323047
801.50 3.323263
801.60 3.323478
801.70 3.323693
801.80 3.323908
801.90 3.324123
802.00 3.324337
802.10 3.324551
802.20 3.324765
802.30 3.324979
802.40 3.325193
802.50 3.325406
802.60 3.325619
802.70 3.325832
802.80 3.326045
802.90 3.326258
803.00 3.32647
803.10 3.326682
803.20 3.326894
803.30 3.327106
803.40 3.327317
803.50 3.327529
803.60 3.32774
803.70 3.327951
803.80 3.328161
803.90 3.328372
804.00 3.328582
804.10 3.328792
804.20 3.329004
804.30 3.329222
804.40 3.32944
804.50 3.329657
804.60 3.329875
804.70 3.330092
804.80 3.330309
804.90 3.330525
805.00 3.330742
805.10 3.330958
805.20 3.331174
805.30 3.33139
805.40 3.331606
805.50 3.331822
805.60 3.332037
805.70 3.332252
805.80 3.332467
805.90 3.332681
806.00 3.332896
806.10 3.33311
806.20 3.333324
806.30 3.333538
806.40 3.333751
806.50 3.333965
806.60 3.334178
806.70 3.334391
806.80 3.334604
806.90 3.334816
807.00 3.335029
807.10 3.335241
807.20 3.335453
807.30 3.335664
807.40 3.335876
807.50 3.336087
807.60 3.336298
807.70 3.336509
807.80 3.33672
807.90 3.33693
808.00 3.337141
808.10 3.337351
808.20 3.33756
808.30 3.337733
808.40 3.337905
808.50 3.338078
808.60 3.33825
808.70 3.338422
808.80 3.338594
808.90 3.338765
809.00 3.338936
809.10 3.339108
809.20 3.339279
809.30 3.339449
809.40 3.33962
809.50 3.339791
809.60 3.339961
809.70 3.340131
809.80 3.340301
809.90 3.34047
810.00 3.34064
810.10 3.340809
810.20 3.340978
810.30 3.341147
810.40 3.341316
810.50 3.341485
810.60 3.341653
810.70 3.341821
810.80 3.341989
810.90 3.342157
811.00 3.342325
811.10 3.342492
811.20 3.34266
811.30 3.342827
811.40 3.342994
811.50 3.34316
811.60 3.343327
811.70 3.343493
811.80 3.34366
811.90 3.343826
812.00 3.343991
812.10 3.344157
812.20 3.344322
812.30 3.344485
812.40 3.344648
812.50 3.34481
812.60 3.344971
812.70 3.345133
812.80 3.345295
812.90 3.345456
813.00 3.345617
813.10 3.345778
813.20 3.345939
813.30 3.346099
813.40 3.34626
813.50 3.34642
813.60 3.34658
813.70 3.34674
813.80 3.3469
813.90 3.347059
814.00 3.347218
814.10 3.347378
814.20 3.347536
814.30 3.347695
814.40 3.347854
814.50 3.348012
814.60 3.348171
814.70 3.348329
814.80 3.348486
814.90 3.348644
815.00 3.348802
815.10 3.348959
815.20 3.349116
815.30 3.349273
815.40 3.34943
815.50 3.349587
815.60 3.349743
815.70 3.3499
815.80 3.350056
815.90 3.350212
816.00 3.350367
816.10 3.350523
816.20 3.350678
816.30 3.350834
816.40 3.350989
816.50 3.351143
816.60 3.351298
816.70 3.351453
816.80 3.351607
816.90 3.351761
817.00 3.351915
817.10 3.352069
817.20 3.352223
817.30 3.352376
817.40 3.352529
817.50 3.352683
817.60 3.352835
817.70 3.352988
817.80 3.353141
817.90 3.353293
818.00 3.353445
818.10 3.353598
818.20 3.353749
818.30 3.353901
818.40 3.354053
818.50 3.354204
818.60 3.354355
818.70 3.354506
818.80 3.354657
818.90 3.354808
819.00 3.354958
819.10 3.355109
819.20 3.355259
819.30 3.35544
819.40 3.355641
819.50 3.355842
819.60 3.356043
819.70 3.356243
819.80 3.356444
819.90 3.356644
820.00 3.356844
820.10 3.356952
820.20 3.35669
820.30 3.356497
820.40 3.356495
820.50 3.356631
820.60 3.356767
820.70 3.356902
820.80 3.357038
820.90 3.357173
821.00 3.357309
821.10 3.357444
821.20 3.357579
821.30 3.357714
821.40 3.357848
821.50 3.357983
821.60 3.358117
821.70 3.358251
821.80 3.358385
821.90 3.358519
822.00 3.358652
822.10 3.358786
822.20 3.358919
822.30 3.359052
822.40 3.359185
822.50 3.359318
822.60 3.359451
822.70 3.359583
822.80 3.359715
822.90 3.359848
823.00 3.35998
823.10 3.360111
823.20 3.360243
823.30 3.360375
823.40 3.360506
823.50 3.360637
823.60 3.360768
823.70 3.360899
823.80 3.36103
823.90 3.36116
824.00 3.36129
824.10 3.361421
824.20 3.361551
824.30 3.361681
824.40 3.36181
824.50 3.36194
824.60 3.362069
824.70 3.362198
824.80 3.362328
824.90 3.362456
825.00 3.362585
825.10 3.362714
825.20 3.362842
825.30 3.36297
825.40 3.363099
825.50 3.363226
825.60 3.363354
825.70 3.363482
825.80 3.363609
825.90 3.363737
826.00 3.363864
826.10 3.363991
826.20 3.364118
826.30 3.364272
826.40 3.364445
826.50 3.364618
826.60 3.36479
826.70 3.364962
826.80 3.365134
826.90 3.365306
827.00 3.365478
827.10 3.36565
827.20 3.365821
827.30 3.365992
827.40 3.366163
827.50 3.366334
827.60 3.366505
827.70 3.366676
827.80 3.366846
827.90 3.367016
828.00 3.367186
828.10 3.367356
828.20 3.367525
828.30 3.367695
828.40 3.367864
828.50 3.368033
828.60 3.368161
828.70 3.368253
828.80 3.368345
828.90 3.368437
829.00 3.368528
829.10 3.36862
829.20 3.368711
829.30 3.368803
829.40 3.368894
829.50 3.368985
829.60 3.369076
829.70 3.369166
829.80 3.369257
829.90 3.369347
830.00 3.369438
830.10 3.369528
830.20 3.369618
830.30 3.369708
830.40 3.369797
830.50 3.369887
830.60 3.369976
830.70 3.370066
830.80 3.370155
830.90 3.370244
831.00 3.370333
831.10 3.370421
831.20 3.37051
831.30 3.370598
831.40 3.370687
831.50 3.370775
831.60 3.370863
831.70 3.370951
831.80 3.371039
831.90 3.371126
832.00 3.371214
832.10 3.371301
832.20 3.371388
832.30 3.371475
832.40 3.371562
832.50 3.371649
832.60 3.371736
832.70 3.371822
832.80 3.371909
832.90 3.371995
833.00 3.372081
833.10 3.372167
833.20 3.372253
833.30 3.372338
833.40 3.372424
833.50 3.372509
833.60 3.372595
833.70 3.37268
833.80 3.372765
833.90 3.37285
834.00 3.372934
834.10 3.373019
834.20 3.373103
834.30 3.373188
834.40 3.373272
834.50 3.373356
834.60 3.37344
834.70 3.373523
834.80 3.373607
834.90 3.37369
835.00 3.373774
835.10 3.373857
835.20 3.37394
835.30 3.374023
835.40 3.374106
835.50 3.374188
835.60 3.374271
835.70 3.374353
835.80 3.374436
835.90 3.374518
836.00 3.3746
836.10 3.374682
836.20 3.374763
836.30 3.374845
836.40 3.374926
836.50 3.375008
836.60 3.375089
836.70 3.37517
836.80 3.375251
836.90 3.375337
837.00 3.375425
837.10 3.375513
837.20 3.375602
837.30 3.375689
837.40 3.375777
837.50 3.375865
837.60 3.375953
837.70 3.37604
837.80 3.376127
837.90 3.376214
838.00 3.376301
838.10 3.376388
838.20 3.376475
838.30 3.376562
838.40 3.376648
838.50 3.376734
838.60 3.376821
838.70 3.376907
838.80 3.376993
838.90 3.377078
839.00 3.377164
839.10 3.37725
839.20 3.377335
839.30 3.37742
839.40 3.377505
839.50 3.37759
839.60 3.377675
839.70 3.37776
839.80 3.377844
839.90 3.377929
840.00 3.378013
840.10 3.378097
840.20 3.378181
840.30 3.378265
840.40 3.378349
840.50 3.378432
840.60 3.378516
840.70 3.378599
840.80 3.378682
840.90 3.378765
841.00 3.378848
841.10 3.378903
841.20 3.378953
841.30 3.379002
841.40 3.379052
841.50 3.379101
841.60 3.37915
841.70 3.379199
841.80 3.379248
841.90 3.379297
842.00 3.379345
842.10 3.379394
842.20 3.379442
842.30 3.379491
842.40 3.379539
842.50 3.379587
842.60 3.379635
842.70 3.379683
842.80 3.379731
842.90 3.379778
843.00 3.379826
843.10 3.379873
843.20 3.379921
843.30 3.379968
843.40 3.380015
843.50 3.380062
843.60 3.380108
843.70 3.380155
843.80 3.380202
843.90 3.380248
844.00 3.380295
844.10 3.380341
844.20 3.380387
844.30 3.380433
844.40 3.380479
844.50 3.380524
844.60 3.38057
844.70 3.380616
844.80 3.380661
844.90 3.380706
845.00 3.380751
845.10 3.380797
845.20 3.380841
845.30 3.380894
845.40 3.380947
845.50 3.380999
845.60 3.381052
845.70 3.381104
845.80 3.381156
845.90 3.381208
846.00 3.38126
846.10 3.381312
846.20 3.381363
846.30 3.381415
846.40 3.381466
846.50 3.381517
846.60 3.381569
846.70 3.38162
846.80 3.381671
846.90 3.381721
847.00 3.381772
847.10 3.381823
847.20 3.381873
847.30 3.381924
847.40 3.381974
847.50 3.382024
847.60 3.382074
847.70 3.382124
847.80 3.382173
847.90 3.382223
848.00 3.382273
848.10 3.382322
848.20 3.382371
848.30 3.38242
848.40 3.38247
848.50 3.382518
848.60 3.382567
848.70 3.382616
848.80 3.382665
848.90 3.382713
849.00 3.382761
849.10 3.38281
849.20 3.382858
849.30 3.382906
849.40 3.382954
849.50 3.383001
849.60 3.383049
849.70 3.383096
849.80 3.383144
849.90 3.383191
850.00 3.383238
850.10 3.383285
850.20 3.383332
850.30 3.383379
850.40 3.383426
850.50 3.383473
850.60 3.383519
850.70 3.383565
850.80 3.383612
850.90 3.383658
851.00 3.383704
851.10 3.38375
851.20 3.383796
851.30 3.383841
851.40 3.383887
851.50 3.383932
851.60 3.383978
851.70 3.384023
851.80 3.384068
851.90 3.384113
852.00 3.384158
852.10 3.384203
852.20 3.384247
852.30 3.384292
852.40 3.384336
852.50 3.384381
852.60 3.384425
852.70 3.384469
852.80 3.384513
852.90 3.384557
853.00 3.3846
853.10 3.384644
853.20 3.384688
853.30 3.384731
853.40 3.384774
853.50 3.384817
853.60 3.38486
853.70 3.384892
853.80 3.384911
853.90 3.38493
854.00 3.384949
854.10 3.384967
854.20 3.384986
854.30 3.385004
854.40 3.385023
854.50 3.385041
854.60 3.385059
854.70 3.385077
854.80 3.385095
854.90 3.385113
855.00 3.385131
855.10 3.385149
855.20 3.385166
855.30 3.385184
855.40 3.385201
855.50 3.385218
855.60 3.385236
855.70 3.385253
855.80 3.38527
855.90 3.385287
856.00 3.385303
856.10 3.38532
856.20 3.385337
856.30 3.385353
856.40 3.38537
856.50 3.385386
856.60 3.385402
856.70 3.385418
856.80 3.385434
856.90 3.38545
857.00 3.385466
857.10 3.385481
857.20 3.385497
857.30 3.385512
857.40 3.385528
857.50 3.385543
857.60 3.385558
857.70 3.385573
857.80 3.385588
857.90 3.385603
858.00 3.385618
858.10 3.385633
858.20 3.385647
858.30 3.385662
858.40 3.385676
858.50 3.385691
858.60 3.385705
858.70 3.385719
858.80 3.385733
858.90 3.385747
859.00 3.385761
859.10 3.385774
859.20 3.385788
859.30 3.385801
859.40 3.385815
859.50 3.385828
859.60 3.385841
859.70 3.385854
859.80 3.385867
859.90 3.38588
860.00 3.385893
860.10 3.385906
860.20 3.385919
860.30 3.385931
860.40 3.385943
860.50 3.385956
860.60 3.385968
860.70 3.38598
860.80 3.385992
860.90 3.386004
861.00 3.386016
861.10 3.386028
861.20 3.386039
861.30 3.386051
861.40 3.386062
861.50 3.386074
861.60 3.386085
861.70 3.386096
861.80 3.386107
861.90 3.386118
862.00 3.386129
862.10 3.38614
862.20 3.386148
862.30 3.386135
862.40 3.386123
862.50 3.38611
862.60 3.386097
862.70 3.386085
862.80 3.386072
862.90 3.386059
863.00 3.386046
863.10 3.386032
863.20 3.386019
863.30 3.386006
863.40 3.385992
863.50 3.385979
863.60 3.385965
863.70 3.385952
863.80 3.385938
863.90 3.385924
864.00 3.38591
864.10 3.385896
864.20 3.385882
864.30 3.385868
864.40 3.385854
864.50 3.385839
864.60 3.385825
864.70 3.38581
864.80 3.385796
864.90 3.385781
865.00 3.385766
865.10 3.385751
865.20 3.385736
865.30 3.385721
865.40 3.385706
865.50 3.385691
865.60 3.385676
865.70 3.38566
865.80 3.385645
865.90 3.385629
866.00 3.385614
866.10 3.385598
866.20 3.385582
866.30 3.385566
866.40 3.385551
866.50 3.385535
866.60 3.385518
866.70 3.385502
866.80 3.385486
866.90 3.38547
867.00 3.385453
867.10 3.385437
867.20 3.38542
867.30 3.385403
867.40 3.385387
867.50 3.38537
867.60 3.385353
867.70 3.385336
867.80 3.385319
867.90 3.385302
868.00 3.385284
868.10 3.385267
868.20 3.38525
868.30 3.385232
868.40 3.385214
868.50 3.385197
868.60 3.385179
868.70 3.385161
868.80 3.385143
868.90 3.385125
869.00 3.385107
869.10 3.385089
869.20 3.385071
869.30 3.385053
869.40 3.385034
869.50 3.385016
869.60 3.384997
869.70 3.384978
869.80 3.38496
869.90 3.384941
870.00 3.384922
870.10 3.384903
870.20 3.384884
870.30 3.384865
870.40 3.384846
870.50 3.384826
870.60 3.384807
870.70 3.384788
870.80 3.384768
870.90 3.384728
871.00 3.384687
871.10 3.384645
871.20 3.384603
871.30 3.384561
871.40 3.384518
871.50 3.384476
871.60 3.384434
871.70 3.384392
871.80 3.384349
871.90 3.384307
872.00 3.384264
872.10 3.384221
872.20 3.384179
872.30 3.384136
872.40 3.384093
872.50 3.38405
872.60 3.384007
872.70 3.383964
872.80 3.383921
872.90 3.383878
873.00 3.383835
873.10 3.383791
873.20 3.383748
873.30 3.383704
873.40 3.383661
873.50 3.383617
873.60 3.383573
873.70 3.38353
873.80 3.383486
873.90 3.383442
874.00 3.383398
874.10 3.383354
874.20 3.38331
874.30 3.383266
874.40 3.383222
874.50 3.383177
874.60 3.383133
874.70 3.383089
874.80 3.383044
874.90 3.382999
875.00 3.382955
875.10 3.38291
875.20 3.382865
875.30 3.382821
875.40 3.382776
875.50 3.382731
875.60 3.382686
875.70 3.382641
875.80 3.382595
875.90 3.38255
876.00 3.382505
876.10 3.382459
876.20 3.382414
876.30 3.382368
876.40 3.382323
876.50 3.382277
876.60 3.382232
876.70 3.382186
876.80 3.38214
876.90 3.382094
877.00 3.382048
877.10 3.382002
877.20 3.381956
877.30 3.38191
877.40 3.381863
877.50 3.381817
877.60 3.381771
877.70 3.381724
877.80 3.381678
877.90 3.381631
878.00 3.381585
878.10 3.381538
878.20 3.381491
878.30 3.381444
878.40 3.381397
878.50 3.38135
878.60 3.381303
878.70 3.381256
878.80 3.381209
878.90 3.381162
879.00 3.381114
879.10 3.381067
879.20 3.38102
879.30 3.380972
879.40 3.380925
879.50 3.380877
879.60 3.380823
879.70 3.380768
879.80 3.380713
879.90 3.380658
880.00 3.380603
880.10 3.380548
880.20 3.380492
880.30 3.380437
880.40 3.380382
880.50 3.380326
880.60 3.380271
880.70 3.380215
880.80 3.380159
880.90 3.380104
881.00 3.380048
881.10 3.379992
881.20 3.379936
881.30 3.37988
881.40 3.379824
881.50 3.379768
881.60 3.379712
881.70 3.379656
881.80 3.379599
881.90 3.379543
882.00 3.379487
882.10 3.37943
882.20 3.379374
882.30 3.379317
882.40 3.37926
882.50 3.379204
882.60 3.379147
882.70 3.37909
882.80 3.379033
882.90 3.378976
883.00 3.378919
883.10 3.378862
883.20 3.378805
883.30 3.378748
883.40 3.378691
883.50 3.378633
883.60 3.378576
883.70 3.378518
883.80 3.378461
883.90 3.378403
884.00 3.378322
884.10 3.378236
884.20 3.37815
884.30 3.378065
884.40 3.377979
884.50 3.377893
884.60 3.377807
884.70 3.377721
884.80 3.377634
884.90 3.377548
885.00 3.377462
885.10 3.377376
885.20 3.37729
885.30 3.377203
885.40 3.377117
885.50 3.37703
885.60 3.376944
885.70 3.376857
885.80 3.376771
885.90 3.376684
886.00 3.376597
886.10 3.376511
886.20 3.376424
886.30 3.376337
886.40 3.37625
886.50 3.376163
886.60 3.376076
886.70 3.375989
886.80 3.375902
886.90 3.375815
887.00 3.375728
887.10 3.375641
887.20 3.375554
887.30 3.375466
887.40 3.375379
887.50 3.375292
887.60 3.375204
887.70 3.375117
887.80 3.375029
887.90 3.374942
888.00 3.374854
888.10 3.374766
888.20 3.374679
888.30 3.374591
888.40 3.374509
888.50 3.374429
888.60 3.374348
888.70 3.374267
888.80 3.374186
888.90 3.374105
889.00 3.374024
889.10 3.373943
889.20 3.373862
889.30 3.373781
889.40 3.3737
889.50 3.373619
889.60 3.373537
889.70 3.373456
889.80 3.373375
889.90 3.373293
890.00 3.373212
890.10 3.37313
890.20 3.373049
890.30 3.372967
890.40 3.372886
890.50 3.372804
890.60 3.372722
890.70 3.37264
890.80 3.372559
890.90 3.372477
891.00 3.372395
891.10 3.372313
891.20 3.372231
891.30 3.372149
891.40 3.372066
891.50 3.371984
891.60 3.371902
891.70 3.37182
891.80 3.371737
891.90 3.371655
892.00 3.371573
892.10 3.37149
892.20 3.371408
892.30 3.371325
892.40 3.371243
892.50 3.37116
892.60 3.371077
892.70 3.370994
892.80 3.370912
892.90 3.370829
893.00 3.370746
893.10 3.370663
893.20 3.37058
893.30 3.370497
893.40 3.370414
893.50 3.370331
893.60 3.370248
893.70 3.370164
893.80 3.370081
893.90 3.369998
894.00 3.369914
894.10 3.369831
894.20 3.369748
894.30 3.369664
894.40 3.36958
894.50 3.369497
894.60 3.369413
894.70 3.36933
894.80 3.369246
894.90 3.369162
895.00 3.369078
895.10 3.368994
895.20 3.36891
895.30 3.368826
895.40 3.368742
895.50 3.368658
895.60 3.368574
895.70 3.36849
895.80 3.368406
895.90 3.368322
896.00 3.368237
896.10 3.368153
896.20 3.368069
896.30 3.367984
896.40 3.3679
896.50 3.367815
896.60 3.367731
896.70 3.367646
896.80 3.367561
896.90 3.367477
897.00 3.367392
897.10 3.367307
897.20 3.367221
897.30 3.367116
897.40 3.367011
897.50 3.366906
897.60 3.366801
897.70 3.366696
897.80 3.366591
897.90 3.366486
898.00 3.366381
898.10 3.366275
898.20 3.36617
898.30 3.366065
898.40 3.36596
898.50 3.365854
898.60 3.365749
898.70 3.365643
898.80 3.365538
898.90 3.365432
899.00 3.365327
899.10 3.365221
899.20 3.365115
899.30 3.36501
899.40 3.364904
899.50 3.364798
899.60 3.364693
899.70 3.364587
899.80 3.364481
899.90 3.364375
900.00 3.364269
900.10 3.364163
900.20 3.364057
900.30 3.363951
900.40 3.363845
900.50 3.363739
900.60 3.363633
900.70 3.363526
900.80 3.36342
900.90 3.363314
901.00 3.363208
901.10 3.363101
901.20 3.362995
901.30 3.362889
901.40 3.362782
901.50 3.362676
901.60 3.362569
901.70 3.362458
901.80 3.362325
901.90 3.362191
902.00 3.362058
902.10 3.361925
902.20 3.361792
902.30 3.361658
902.40 3.361525
902.50 3.361392
902.60 3.361258
902.70 3.361125
902.80 3.360991
902.90 3.360858
903.00 3.360724
903.10 3.360591
903.20 3.360457
903.30 3.360324
903.40 3.36019
903.50 3.360057
903.60 3.359923
903.70 3.359789
903.80 3.359656
903.90 3.359522
904.00 3.359388
904.10 3.359255
904.20 3.359121
904.30 3.358987
904.40 3.358853
904.50 3.358719
904.60 3.358586
904.70 3.358452
904.80 3.358318
904.90 3.358184
905.00 3.35805
905.10 3.357916
905.20 3.357782
905.30 3.357648
905.40 3.357514
905.50 3.35738
905.60 3.357246
905.70 3.357112
905.80 3.356978
905.90 3.356843
906.00 3.356709
906.10 3.356575
906.20 3.356447
906.30 3.356333
906.40 3.356219
906.50 3.356105
906.60 3.35599
906.70 3.355876
906.80 3.355762
906.90 3.355647
907.00 3.355533
907.10 3.355419
907.20 3.355304
907.30 3.35519
907.40 3.355075
907.50 3.354961
907.60 3.354846
907.70 3.354732
907.80 3.354617
907.90 3.354502
908.00 3.354388
908.10 3.354273
908.20 3.354158
908.30 3.354043
908.40 3.353929
908.50 3.353814
908.60 3.353699
908.70 3.353584
908.80 3.353469
908.90 3.353354
909.00 3.353239
909.10 3.353124
909.20 3.353009
909.30 3.352894
909.40 3.352779
909.50 3.352664
909.60 3.352548
909.70 3.352433
909.80 3.352318
909.90 3.352203
910.00 3.352087
910.10 3.351972
910.20 3.351857
910.30 3.351741
910.40 3.351626
910.50 3.35151
910.60 3.351395
910.70 3.351279
910.80 3.351138
910.90 3.350996
911.00 3.350855
911.10 3.350714
911.20 3.350572
911.30 3.350431
911.40 3.350289
911.50 3.350148
911.60 3.350006
911.70 3.349865
911.80 3.349723
911.90 3.349581
912.00 3.34944
912.10 3.349298
912.20 3.349156
912.30 3.349015
912.40 3.348873
912.50 3.348731
912.60 3.34859
912.70 3.348448
912.80 3.348306
912.90 3.348164
913.00 3.348023
913.10 3.347881
913.20 3.347739
913.30 3.347597
913.40 3.347455
913.50 3.347313
913.60 3.347172
913.70 3.34703
913.80 3.346888
913.90 3.346746
914.00 3.346604
914.10 3.346462
914.20 3.34632
914.30 3.346178
914.40 3.346036
914.50 3.345894
914.60 3.345751
914.70 3.345609
914.80 3.345467
914.90 3.345325
915.00 3.345183
915.10 3.345041
915.20 3.344899
915.30 3.344752
915.40 3.344604
915.50 3.344456
915.60 3.344308
915.70 3.34416
915.80 3.344012
915.90 3.343864
916.00 3.343716
916.10 3.343568
916.20 3.34342
916.30 3.343272
916.40 3.343123
916.50 3.342975
916.60 3.342827
916.70 3.342679
916.80 3.342531
916.90 3.342382
917.00 3.342234
917.10 3.342086
917.20 3.341938
917.30 3.341789
917.40 3.341641
917.50 3.341493
917.60 3.341344
917.70 3.341196
917.80 3.341048
917.90 3.340899
918.00 3.340751
918.10 3.340602
918.20 3.340454
918.30 3.340306
918.40 3.340157
918.50 3.340009
918.60 3.33986
918.70 3.339712
918.80 3.339563
918.90 3.339415
919.00 3.339266
919.10 3.339118
919.20 3.338969
919.30 3.33882
919.40 3.338672
919.50 3.338523
919.60 3.338374
919.70 3.338226
919.80 3.338077
919.90 3.337905
920.00 3.337731
920.10 3.337557
920.20 3.337384
920.30 3.33721
920.40 3.337036
920.50 3.336862
920.60 3.336689
920.70 3.336515
920.80 3.336341
920.90 3.336167
921.00 3.335993
921.10 3.33582
921.20 3.335646
921.30 3.335472
921.40 3.335298
921.50 3.335124
921.60 3.334951
921.70 3.334777
921.80 3.334603
921.90 3.334429
922.00 3.334255
922.10 3.334081
922.20 3.333908
922.30 3.333734
922.40 3.33356
922.50 3.333386
922.60 3.333212
922.70 3.333038
922.80 3.332864
922.90 3.332691
923.00 3.332517
923.10 3.332343
923.20 3.332169
923.30 3.331995
923.40 3.331821
923.50 3.331647
923.60 3.331474
923.70 3.3313
923.80 3.331126
923.90 3.330952
924.00 3.330778
924.10 3.330604
924.20 3.33043
924.30 3.330256
924.40 3.330086
924.50 3.329931
924.60 3.329776
924.70 3.329622
924.80 3.329467
924.90 3.329312
925.00 3.329157
925.10 3.329002
925.20 3.328848
925.30 3.328693
925.40 3.328538
925.50 3.328383
925.60 3.328228
925.70 3.328073
925.80 3.327918
925.90 3.327764
926.00 3.327609
926.10 3.327454
926.20 3.327299
926.30 3.327144
926.40 3.326989
926.50 3.326834
926.60 3.326679
926.70 3.326524
926.80 3.326369
926.90 3.326214
927.00 3.326059
927.10 3.325904
927.20 3.325749
927.30 3.325594
927.40 3.325439
927.50 3.325284
927.60 3.325129
927.70 3.324974
927.80 3.324818
927.90 3.324663
928.00 3.324508
928.10 3.324353
928.20 3.324198
928.30 3.324043
928.40 3.323888
928.50 3.323733
928.60 3.323577
928.70 3.323422
928.80 3.323267
928.90 3.323112
929.00 3.322957
929.10 3.322778
929.20 3.322598
929.30 3.322419
929.40 3.322239
929.50 3.32206
929.60 3.32188
929.70 3.3217
929.80 3.321521
929.90 3.321341
930.00 3.321162
930.10 3.320982
930.20 3.320803
930.30 3.320623
930.40 3.320443
930.50 3.320264
930.60 3.320084
930.70 3.319905
930.80 3.319725
930.90 3.319545
931.00 3.319366
931.10 3.319186
931.20 3.319007
931.30 3.318827
931.40 3.318648
931.50 3.318468
931.60 3.318288
931.70 3.318109
931.80 3.317929
931.90 3.31775
932.00 3.31757
932.10 3.317391
932.20 3.317211
932.30 3.317032
932.40 3.316852
932.50 3.316672
932.60 3.316493
932.70 3.316313
932.80 3.316134
932.90 3.315954
933.00 3.315775
933.10 3.315595
933.20 3.315415
933.30 3.315236
933.40 3.315056
933.50 3.314877
933.60 3.314697
933.70 3.314505
933.80 3.314308
933.90 3.314112
934.00 3.313915
934.10 3.313718
934.20 3.313522
934.30 3.313325
934.40 3.313128
934.50 3.312932
934.60 3.312735
934.70 3.312538
934.80 3.312342
934.90 3.312145
935.00 3.311948
935.10 3.311752
935.20 3.311555
935.30 3.311359
935.40 3.311162
935.50 3.310965
935.60 3.310769
935.70 3.310572
935.80 3.310376
935.90 3.310179
936.00 3.309983
936.10 3.309786
936.20 3.30959
936.30 3.309393
936.40 3.309197
936.50 3.309
936.60 3.308804
936.70 3.308607
936.80 3.308411
936.90 3.308214
937.00 3.308018
937.10 3.307822
937.20 3.307625
937.30 3.307429
937.40 3.307232
937.50 3.307036
937.60 3.306839
937.70 3.306643
937.80 3.306447
937.90 3.30625
938.00 3.306054
938.10 3.305858
938.20 3.305661
938.30 3.305465
938.40 3.305269
938.50 3.305072
938.60 3.304876
938.70 3.30468
938.80 3.304483
938.90 3.304287
939.00 3.304091
939.10 3.303895
939.20 3.303698
939.30 3.303502
939.40 3.303306
939.50 3.30311
939.60 3.302913
939.70 3.302717
939.80 3.302521
939.90 3.302325
940.00 3.302129
940.10 3.301932
940.20 3.301736
940.30 3.30154
940.40 3.301344
940.50 3.301148
940.60 3.300952
940.70 3.300756
940.80 3.300559
940.90 3.300363
941.00 3.300167
941.10 3.299971
941.20 3.299775
941.30 3.299579
941.40 3.299383
941.50 3.299187
941.60 3.298991
941.70 3.298795
941.80 3.298599
941.90 3.298403
942.00 3.298207
942.10 3.298011
942.20 3.297815
942.30 3.297619
942.40 3.297423
942.50 3.297227
942.60 3.297031
942.70 3.296835
942.80 3.296639
942.90 3.296443
943.00 3.296241
943.10 3.296028
943.20 3.295816
943.30 3.295603
943.40 3.295391
943.50 3.295179
943.60 3.294966
943.70 3.294754
943.80 3.294541
943.90 3.294329
944.00 3.294117
944.10 3.293904
944.20 3.293692
944.30 3.29348
944.40 3.293267
944.50 3.293055
944.60 3.292843
944.70 3.292631
944.80 3.292418
944.90 3.292206
945.00 3.291994
945.10 3.291782
945.20 3.29157
945.30 3.291357
945.40 3.291145
945.50 3.290933
945.60 3.290721
945.70 3.290509
945.80 3.290297
945.90 3.290085
946.00 3.289873
946.10 3.289661
946.20 3.289449
946.30 3.289237
946.40 3.289025
946.50 3.288813
946.60 3.288601
946.70 3.288389
946.80 3.288177
946.90 3.287965
947.00 3.287753
947.10 3.287541
947.20 3.28733
947.30 3.287118
947.40 3.286906
947.50 3.286694
947.60 3.286482
947.70 3.286271
947.80 3.286059
947.90 3.285847
948.00 3.285635
948.10 3.285424
948.20 3.285212
948.30 3.285
948.40 3.284789
948.50 3.284577
948.60 3.284365
948.70 3.284154
948.80 3.283942
948.90 3.283731
949.00 3.283519
949.10 3.283308
949.20 3.283096
949.30 3.282884
949.40 3.282673
949.50 3.282462
949.60 3.28225
949.70 3.282039
949.80 3.281827
949.90 3.281616
950.00 3.281404
950.10 3.281193
950.20 3.280982
950.30 3.28077
950.40 3.280559
950.50 3.280348
950.60 3.280136
950.70 3.279925
950.80 3.279714
950.90 3.279503
951.00 3.279291
951.10 3.27908
951.20 3.278869
951.30 3.278658
951.40 3.278447
951.50 3.278235
951.60 3.278024
951.70 3.277813
951.80 3.277602
951.90 3.277391
952.00 3.27718
952.10 3.276969
952.20 3.276758
952.30 3.276547
952.40 3.276334
952.50 3.276096
952.60 3.275857
952.70 3.275619
952.80 3.275381
952.90 3.275143
953.00 3.274905
953.10 3.274667
953.20 3.274429
953.30 3.274191
953.40 3.273953
953.50 3.273715
953.60 3.273477
953.70 3.27324
953.80 3.273002
953.90 3.272764
954.00 3.272526
954.10 3.272289
954.20 3.272051
954.30 3.271813
954.40 3.271575
954.50 3.271338
954.60 3.2711
954.70 3.270863
954.80 3.270625
954.90 3.270388
955.00 3.27015
955.10 3.269913
955.20 3.269675
955.30 3.269438
955.40 3.269201
955.50 3.268963
955.60 3.268726
955.70 3.268489
955.80 3.268251
955.90 3.268014
956.00 3.267777
956.10 3.26754
956.20 3.267303
956.30 3.267065
956.40 3.266828
956.50 3.266591
956.60 3.266354
956.70 3.266117
956.80 3.26588
956.90 3.265643
957.00 3.265406
957.10 3.265169
957.20 3.264943
957.30 3.264728
957.40 3.264514
957.50 3.264299
957.60 3.264085
957.70 3.26387
957.80 3.263656
957.90 3.263441
958.00 3.263227
958.10 3.263012
958.20 3.262798
958.30 3.262583
958.40 3.262369
958.50 3.262155
958.60 3.26194
958.70 3.261726
958.80 3.261512
958.90 3.261297
959.00 3.261083
959.10 3.260869
959.20 3.260655
959.30 3.26044
959.40 3.260226
959.50 3.260012
959.60 3.259798
959.70 3.259584
959.80 3.25937
959.90 3.259156
960.00 3.258941
960.10 3.258727
960.20 3.258513
960.30 3.258299
960.40 3.258085
960.50 3.257871
960.60 3.257657
960.70 3.257443
960.80 3.257229
960.90 3.257015
961.00 3.256802
961.10 3.256588
961.20 3.256374
961.30 3.25616
961.40 3.255946
961.50 3.255732
961.60 3.255519
961.70 3.255305
961.80 3.255091
961.90 3.254877
962.00 3.254632
962.10 3.254381
962.20 3.25413
962.30 3.253879
962.40 3.253628
962.50 3.253378
962.60 3.253127
962.70 3.252876
962.80 3.252625
962.90 3.252374
963.00 3.252124
963.10 3.251873
963.20 3.251623
963.30 3.251372
963.40 3.251121
963.50 3.250871
963.60 3.25062
963.70 3.25037
963.80 3.250119
963.90 3.249869
964.00 3.249619
964.10 3.249368
964.20 3.249118
964.30 3.248868
964.40 3.248618
964.50 3.248368
964.60 3.248117
964.70 3.247867
964.80 3.247617
964.90 3.247367
965.00 3.247117
965.10 3.246867
965.20 3.246617
965.30 3.246367
965.40 3.246117
965.50 3.245868
965.60 3.245618
965.70 3.245368
965.80 3.245118
965.90 3.244869
966.00 3.244619
966.10 3.244369
966.20 3.24412
966.30 3.24387
966.40 3.243621
966.50 3.243371
966.60 3.243122
966.70 3.242872
966.80 3.242623
966.90 3.242373
967.00 3.242124
967.10 3.241875
967.20 3.241625
967.30 3.241376
967.40 3.241127
967.50 3.240878
967.60 3.240629
967.70 3.24038
967.80 3.240131
967.90 3.239881
968.00 3.239632
968.10 3.239384
968.20 3.239135
968.30 3.238886
968.40 3.238637
968.50 3.238388
968.60 3.238139
968.70 3.23789
968.80 3.237642
968.90 3.237393
969.00 3.237144
969.10 3.236896
969.20 3.236647
969.30 3.236399
969.40 3.23615
969.50 3.235902
969.60 3.235653
969.70 3.235405
969.80 3.235156
969.90 3.234908
970.00 3.23466
970.10 3.234411
970.20 3.234163
970.30 3.233915
970.40 3.233667
970.50 3.233419
970.60 3.23317
970.70 3.232922
970.80 3.232674
970.90 3.232426
971.00 3.232178
971.10 3.23193
971.20 3.231682
971.30 3.231434
971.40 3.231187
971.50 3.230939
971.60 3.230681
971.70 3.230419
971.80 3.230157
971.90 3.229894
972.00 3.229632
972.10 3.22937
972.20 3.229107
972.30 3.228845
972.40 3.228583
972.50 3.228321
972.60 3.228059
972.70 3.227797
972.80 3.227535
972.90 3.227273
973.00 3.227011
973.10 3.226749
973.20 3.226487
973.30 3.226225
973.40 3.225963
973.50 3.225701
973.60 3.22544
973.70 3.225178
973.80 3.224916
973.90 3.224655
974.00 3.224393
974.10 3.224132
974.20 3.22387
974.30 3.223609
974.40 3.223347
974.50 3.223086
974.60 3.222825
974.70 3.222563
974.80 3.222302
974.90 3.222041
975.00 3.22178
975.10 3.221519
975.20 3.221258
975.30 3.220997
975.40 3.220736
975.50 3.220475
975.60 3.220214
975.70 3.219953
975.80 3.219692
975.90 3.219431
976.00 3.21917
976.10 3.21891
976.20 3.218649
976.30 3.218388
976.40 3.218128
976.50 3.217867
976.60 3.217607
976.70 3.217346
976.80 3.217086
976.90 3.216825
977.00 3.216565
977.10 3.216305
977.20 3.216044
977.30 3.215784
977.40 3.215524
977.50 3.215264
977.60 3.215003
977.70 3.214743
977.80 3.214483
977.90 3.214223
978.00 3.213963
978.10 3.213703
978.20 3.213443
978.30 3.213184
978.40 3.212924
978.50 3.212664
978.60 3.212404
978.70 3.212145
978.80 3.211885
978.90 3.211625
979.00 3.211366
979.10 3.211106
979.20 3.210847
979.30 3.210587
979.40 3.210328
979.50 3.210068
979.60 3.209809
979.70 3.20955
979.80 3.20929
979.90 3.209031
980.00 3.208772
980.10 3.208513
980.20 3.208254
980.30 3.207994
980.40 3.207735
980.50 3.207476
980.60 3.207217
980.70 3.206959
980.80 3.2067
980.90 3.206441
981.00 3.206182
981.10 3.205923
981.20 3.205664
981.30 3.205399
981.40 3.205126
981.50 3.204853
981.60 3.20458
981.70 3.204307
981.80 3.204035
981.90 3.203762
982.00 3.203489
982.10 3.203217
982.20 3.202944
982.30 3.202672
982.40 3.202399
982.50 3.202127
982.60 3.201855
982.70 3.201582
982.80 3.20131
982.90 3.201038
983.00 3.200766
983.10 3.200494
983.20 3.200222
983.30 3.19995
983.40 3.199678
983.50 3.199406
983.60 3.199134
983.70 3.198862
983.80 3.19859
983.90 3.198318
984.00 3.198047
984.10 3.197775
984.20 3.197503
984.30 3.197232
984.40 3.19696
984.50 3.196689
984.60 3.196417
984.70 3.196146
984.80 3.195875
984.90 3.195603
985.00 3.195332
985.10 3.195061
985.20 3.194789
985.30 3.194518
985.40 3.194247
985.50 3.193976
985.60 3.193705
985.70 3.193434
985.80 3.193163
985.90 3.192892
986.00 3.192622
986.10 3.192351
986.20 3.19208
986.30 3.191809
986.40 3.191539
986.50 3.191268
986.60 3.190998
986.70 3.190727
986.80 3.190457
986.90 3.190186
987.00 3.189916
987.10 3.189645
987.20 3.189375
987.30 3.189105
987.40 3.188835
987.50 3.188564
987.60 3.188294
987.70 3.188024
987.80 3.187754
987.90 3.187484
988.00 3.187214
988.10 3.186944
988.20 3.186674
988.30 3.186405
988.40 3.186135
988.50 3.185865
988.60 3.185595
988.70 3.185326
988.80 3.185056
988.90 3.184787
989.00 3.184517
989.10 3.184248
989.20 3.183978
989.30 3.183709
989.40 3.18344
989.50 3.18317
989.60 3.182901
989.70 3.182632
989.80 3.182363
989.90 3.182094
990.00 3.181824
990.10 3.181555
990.20 3.181286
990.30 3.181017
990.40 3.180749
990.50 3.18048
990.60 3.180211
990.70 3.179942
990.80 3.179673
990.90 3.179405
991.00 3.179136
991.10 3.178862
991.20 3.17858
991.30 3.178298
991.40 3.178016
991.50 3.177734
991.60 3.177452
991.70 3.17717
991.80 3.176888
991.90 3.176606
992.00 3.176325
992.10 3.176043
992.20 3.175761
992.30 3.17548
992.40 3.175198
992.50 3.174917
992.60 3.174635
992.70 3.174354
992.80 3.174072
992.90 3.173791
993.00 3.17351
993.10 3.173228
993.20 3.172947
993.30 3.172666
993.40 3.172385
993.50 3.172104
993.60 3.171823
993.70 3.171542
993.80 3.171261
993.90 3.17098
994.00 3.170699
994.10 3.170419
994.20 3.170138
994.30 3.169857
994.40 3.169577
994.50 3.169296
994.60 3.169016
994.70 3.168735
994.80 3.168455
994.90 3.168174
995.00 3.167894
995.10 3.167614
995.20 3.167334
995.30 3.167053
995.40 3.166773
995.50 3.166493
995.60 3.166213
995.70 3.165933
995.80 3.165653
995.90 3.165373
996.00 3.165094
996.10 3.164814
996.20 3.164534
996.30 3.164254
996.40 3.163974
996.50 3.163695
996.60 3.163415
996.70 3.163136
996.80 3.162856
996.90 3.162577
997.00 3.162297
997.10 3.162018
997.20 3.161739
997.30 3.161459
997.40 3.16118
997.50 3.160901
997.60 3.160622
997.70 3.160343
997.80 3.160064
997.90 3.159785
998.00 3.159506
998.10 3.159227
998.20 3.158948
998.30 3.158669
998.40 3.15839
998.50 3.158112
998.60 3.157833
998.70 3.157555
998.80 3.157276
998.90 3.156998
999.00 3.156719
999.10 3.156441
999.20 3.156162
999.30 3.155884
999.40 3.155606
999.50 3.155328
999.60 3.155049
999.70 3.154771
999.80 3.154493
999.90 3.154215
1000.00 3.153937
1000.10 3.153659
1000.20 3.153381
1000.30 3.153104
1000.40 3.152826
1000.50 3.152548
1000.60 3.15227
1000.70 3.151993
1000.80 3.151715
1000.90 3.151438
1001.00 3.151154
1001.10 3.150854
1001.20 3.150554
1001.30 3.150254
1001.40 3.149954
1001.50 3.149654
1001.60 3.149354
1001.70 3.149054
1001.80 3.148754
1001.90 3.148454
1002.00 3.148154
1002.10 3.147855
1002.20 3.147555
1002.30 3.147255
1002.40 3.146956
1002.50 3.146656
1002.60 3.146357
1002.70 3.146058
1002.80 3.145758
1002.90 3.145459
1003.00 3.14516
1003.10 3.144861
1003.20 3.144562
1003.30 3.144263
1003.40 3.143964
1003.50 3.143665
1003.60 3.143366
1003.70 3.143067
1003.80 3.142769
1003.90 3.14247
1004.00 3.142171
1004.10 3.141873
1004.20 3.141574
1004.30 3.141276
1004.40 3.140978
1004.50 3.140679
1004.60 3.140381
1004.70 3.140083
1004.80 3.139785
1004.90 3.139487
1005.00 3.139189
1005.10 3.138891
1005.20 3.138593
1005.30 3.138295
1005.40 3.137997
1005.50 3.137699
1005.60 3.137402
1005.70 3.137104
1005.80 3.136806
1005.90 3.136509
1006.00 3.136211
1006.10 3.135914
1006.20 3.135617
1006.30 3.135319
1006.40 3.135022
1006.50 3.134725
1006.60 3.134428
1006.70 3.134131
1006.80 3.133834
1006.90 3.133537
1007.00 3.13324
1007.10 3.132944
1007.20 3.132647
1007.30 3.13235
1007.40 3.132053
1007.50 3.131757
1007.60 3.13146
1007.70 3.131164
1007.80 3.130868
1007.90 3.130571
1008.00 3.130275
1008.10 3.129979
1008.20 3.129683
1008.30 3.129386
1008.40 3.12909
1008.50 3.128794
1008.60 3.128498
1008.70 3.128202
1008.80 3.127907
1008.90 3.127611
1009.00 3.127315
1009.10 3.127019
1009.20 3.126724
1009.30 3.126428
1009.40 3.126133
1009.50 3.125837
1009.60 3.125542
1009.70 3.125247
1009.80 3.124951
1009.90 3.124656
1010.00 3.124361
1010.10 3.124066
1010.20 3.123771
1010.30 3.123476
1010.40 3.123181
1010.50 3.122886
1010.60 3.122591
1010.70 3.122296
1010.80 3.122002
1010.90 3.121707
1011.00 3.121412
1011.10 3.121114
1011.20 3.120816
1011.30 3.120518
1011.40 3.120221
1011.50 3.119923
1011.60 3.119626
1011.70 3.119328
1011.80 3.119031
1011.90 3.118733
1012.00 3.118436
1012.10 3.118139
1012.20 3.117842
1012.30 3.117545
1012.40 3.117247
1012.50 3.11695
1012.60 3.116653
1012.70 3.116357
1012.80 3.11606
1012.90 3.115763
1013.00 3.115466
1013.10 3.115169
1013.20 3.114873
1013.30 3.114576
1013.40 3.11428
1013.50 3.113983
1013.60 3.113687
1013.70 3.113391
1013.80 3.113094
1013.90 3.112798
1014.00 3.112502
1014.10 3.112206
1014.20 3.11191
1014.30 3.111614
1014.40 3.111318
1014.50 3.111022
1014.60 3.110726
1014.70 3.11043
1014.80 3.110134
1014.90 3.109839
1015.00 3.109543
1015.10 3.109248
1015.20 3.108952
1015.30 3.108657
1015.40 3.108361
1015.50 3.108066
1015.60 3.107771
1015.70 3.107475
1015.80 3.10718
1015.90 3.106885
1016.00 3.10659
1016.10 3.106284
1016.20 3.10597
1016.30 3.105657
1016.40 3.105343
1016.50 3.10503
1016.60 3.104716
1016.70 3.104403
1016.80 3.10409
1016.90 3.103777
1017.00 3.103464
1017.10 3.103151
1017.20 3.102838
1017.30 3.102525
1017.40 3.102212
1017.50 3.1019
1017.60 3.101587
1017.70 3.101274
1017.80 3.100962
1017.90 3.100649
1018.00 3.100337
1018.10 3.100025
1018.20 3.099712
1018.30 3.0994
1018.40 3.099088
1018.50 3.098776
1018.60 3.098464
1018.70 3.098152
1018.80 3.09784
1018.90 3.097528
1019.00 3.097216
1019.10 3.096904
1019.20 3.096593
1019.30 3.096281
1019.40 3.09597
1019.50 3.095658
1019.60 3.095347
1019.70 3.095035
1019.80 3.094724
1019.90 3.094413
1020.00 3.094102
1020.10 3.093791
1020.20 3.09348
1020.30 3.093169
1020.40 3.092858
1020.50 3.092547
1020.60 3.092236
1020.70 3.091925
1020.80 3.091615
1020.90 3.091304
1021.00 3.090994
1021.10 3.090683
1021.20 3.09037
1021.30 3.090056
1021.40 3.089743
1021.50 3.08943
1021.60 3.089117
1021.70 3.088804
1021.80 3.088491
1021.90 3.088178
1022.00 3.087865
1022.10 3.087552
1022.20 3.087239
1022.30 3.086927
1022.40 3.086614
1022.50 3.086302
1022.60 3.085989
1022.70 3.085677
1022.80 3.085364
1022.90 3.085052
1023.00 3.08474
1023.10 3.084428
1023.20 3.084116
1023.30 3.083804
1023.40 3.083492
1023.50 3.08318
1023.60 3.082868
1023.70 3.082556
1023.80 3.082244
1023.90 3.081933
1024.00 3.081621
1024.10 3.08131
1024.20 3.080998
1024.30 3.080687
1024.40 3.080376
1024.50 3.080064
1024.60 3.079753
1024.70 3.079442
1024.80 3.079131
1024.90 3.07882
1025.00 3.078509
1025.10 3.078198
1025.20 3.077887
1025.30 3.077576
1025.40 3.077266
1025.50 3.076955
1025.60 3.076644
1025.70 3.076334
1025.80 3.076023
1025.90 3.075713
1026.00 3.075403
1026.10 3.075092
1026.20 3.074782
1026.30 3.074472
1026.40 3.074162
1026.50 3.073852
1026.60 3.073542
1026.70 3.073232
1026.80 3.072923
1026.90 3.072613
1027.00 3.072303
1027.10 3.071994
1027.20 3.071684
1027.30 3.071375
1027.40 3.071065
1027.50 3.070756
1027.60 3.070447
1027.70 3.070137
1027.80 3.069828
1027.90 3.069519
1028.00 3.06921
1028.10 3.068901
1028.20 3.068592
1028.30 3.068283
1028.40 3.067975
1028.50 3.067666
1028.60 3.067357
1028.70 3.067049
1028.80 3.06674
1028.90 3.066432
1029.00 3.066123
1029.10 3.065815
1029.20 3.065507
1029.30 3.065198
1029.40 3.06489
1029.50 3.064582
1029.60 3.064274
1029.70 3.063966
1029.80 3.063658
1029.90 3.06335
1030.00 3.063043
1030.10 3.062735
1030.20 3.062427
1030.30 3.06212
1030.40 3.061812
1030.50 3.061505
1030.60 3.061197
1030.70 3.06089
1030.80 3.060583
1030.90 3.060275
1031.00 3.059968
1031.10 3.059661
1031.20 3.059354
1031.30 3.059047
1031.40 3.05872
1031.50 3.058393
1031.60 3.058065
1031.70 3.057738
1031.80 3.057411
1031.90 3.057084
1032.00 3.056757
1032.10 3.05643
1032.20 3.056103
1032.30 3.055776
1032.40 3.055449
1032.50 3.055122
1032.60 3.054795
1032.70 3.054469
1032.80 3.054142
1032.90 3.053816
1033.00 3.053489
1033.10 3.053163
1033.20 3.052837
1033.30 3.052511
1033.40 3.052184
1033.50 3.051858
1033.60 3.051532
1033.70 3.051206
1033.80 3.050881
1033.90 3.050555
1034.00 3.050229
1034.10 3.049903
1034.20 3.049578
1034.30 3.049252
1034.40 3.048927
1034.50 3.048601
1034.60 3.048276
1034.70 3.047951
1034.80 3.047626
1034.90 3.047301
1035.00 3.046976
1035.10 3.046651
1035.20 3.046326
1035.30 3.046001
1035.40 3.045676
1035.50 3.045351
1035.60 3.045027
1035.70 3.044702
1035.80 3.044378
1035.90 3.044053
1036.00 3.043729
1036.10 3.043405
1036.20 3.043081
1036.30 3.042756
1036.40 3.042432
1036.50 3.042108
1036.60 3.041784
1036.70 3.041461
1036.80 3.041137
1036.90 3.040813
1037.00 3.04049
1037.10 3.040166
1037.20 3.039843
1037.30 3.039519
1037.40 3.039196
1037.50 3.038873
1037.60 3.038549
1037.70 3.038226
1037.80 3.037903
1037.90 3.03758
1038.00 3.037257
1038.10 3.036934
1038.20 3.036612
1038.30 3.036289
1038.40 3.035966
1038.50 3.035644
1038.60 3.035321
1038.70 3.034999
1038.80 3.034676
1038.90 3.034354
1039.00 3.034032
1039.10 3.03371
1039.20 3.033387
1039.30 3.033065
1039.40 3.032743
1039.50 3.032421
1039.60 3.0321
1039.70 3.031778
1039.80 3.031456
1039.90 3.031134
1040.00 3.030813
1040.10 3.030491
1040.20 3.03017
1040.30 3.029849
1040.40 3.029527
1040.50 3.029206
1040.60 3.028885
1040.70 3.028564
1040.80 3.028243
1040.90 3.027922
1041.00 3.027601
1041.10 3.02728
1041.20 3.026959
1041.30 3.026639
1041.40 3.026318
1041.50 3.025997
1041.60 3.025677
1041.70 3.02534
1041.80 3.025
1041.90 3.02466
1042.00 3.02432
1042.10 3.02398
1042.20 3.02364
1042.30 3.0233
1042.40 3.022961
1042.50 3.022621
1042.60 3.022281
1042.70 3.021942
1042.80 3.021603
1042.90 3.021263
1043.00 3.020924
1043.10 3.020585
1043.20 3.020246
1043.30 3.019907
1043.40 3.019568
1043.50 3.019229
1043.60 3.01889
1043.70 3.018551
1043.80 3.018213
1043.90 3.017874
1044.00 3.017536
1044.10 3.017197
1044.20 3.016859
1044.30 3.016521
1044.40 3.016182
1044.50 3.015844
1044.60 3.015506
1044.70 3.015168
1044.80 3.01483
1044.90 3.014492
1045.00 3.014155
1045.10 3.013817
1045.20 3.013479
1045.30 3.013142
1045.40 3.012804
1045.50 3.012467
1045.60 3.01213
1045.70 3.011792
1045.80 3.011455
1045.90 3.011118
1046.00 3.010781
1046.10 3.010444
1046.20 3.010107
1046.30 3.009771
1046.40 3.009434
1046.50 3.009097
1046.60 3.008761
1046.70 3.008424
1046.80 3.008088
1046.90 3.007764
1047.00 3.007445
1047.10 3.007126
1047.20 3.006806
1047.30 3.006487
1047.40 3.006168
1047.50 3.005849
1047.60 3.005531
1047.70 3.005212
1047.80 3.004893
1047.90 3.004574
1048.00 3.004256
1048.10 3.003937
1048.20 3.003619
1048.30 3.0033
1048.40 3.002982
1048.50 3.002664
1048.60 3.002346
1048.70 3.002027
1048.80 3.001709
1048.90 3.001391
1049.00 3.001073
1049.10 3.000756
1049.20 3.000438
1049.30 3.00012
1049.40 2.999802
1049.50 2.999485
1049.60 2.999167
1049.70 2.99885
1049.80 2.998532
1049.90 2.998215
1050.00 2.997898
1050.10 2.997581
1050.20 2.997264
1050.30 2.996946
1050.40 2.996629
1050.50 2.996313
1050.60 2.995996
1050.70 2.995679
1050.80 2.995362
1050.90 2.995045
1051.00 2.994729
1051.10 2.994412
1051.20 2.994096
1051.30 2.993779
1051.40 2.993463
1051.50 2.993147
1051.60 2.992831
1051.70 2.992514
1051.80 2.992198
1051.90 2.991882
1052.00 2.991566
1052.10 2.991232
1052.20 2.990889
1052.30 2.990546
1052.40 2.990202
1052.50 2.989859
1052.60 2.989516
1052.70 2.989173
1052.80 2.98883
1052.90 2.988487
1053.00 2.988145
1053.10 2.987802
1053.20 2.987459
1053.30 2.987117
1053.40 2.986775
1053.50 2.986432
1053.60 2.98609
1053.70 2.985748
1053.80 2.985406
1053.90 2.985064
1054.00 2.984722
1054.10 2.98438
1054.20 2.984038
1054.30 2.983696
1054.40 2.983354
1054.50 2.983013
1054.60 2.982671
1054.70 2.98233
1054.80 2.981988
1054.90 2.981647
1055.00 2.981306
1055.10 2.980965
1055.20 2.980624
1055.30 2.980283
1055.40 2.979942
1055.50 2.979601
1055.60 2.97926
1055.70 2.97892
1055.80 2.978579
1055.90 2.978238
1056.00 2.977898
1056.10 2.977558
1056.20 2.977217
1056.30 2.976877
1056.40 2.976537
1056.50 2.976197
1056.60 2.975857
1056.70 2.975517
1056.80 2.975177
1056.90 2.974837
1057.00 2.974498
1057.10 2.974158
1057.20 2.973818
1057.30 2.973479
1057.40 2.973139
1057.50 2.9728
1057.60 2.972461
1057.70 2.972122
1057.80 2.971783
1057.90 2.971444
1058.00 2.971105
1058.10 2.970766
1058.20 2.970427
1058.30 2.970088
1058.40 2.96975
1058.50 2.969411
1058.60 2.969072
1058.70 2.968734
1058.80 2.968396
1058.90 2.968057
1059.00 2.967719
1059.10 2.967381
1059.20 2.967043
1059.30 2.966705
1059.40 2.966367
1059.50 2.966029
1059.60 2.965692
1059.70 2.965354
1059.80 2.965016
1059.90 2.964679
1060.00 2.964341
1060.10 2.964004
1060.20 2.963667
1060.30 2.963329
1060.40 2.962992
1060.50 2.962655
1060.60 2.962318
1060.70 2.961981
1060.80 2.961644
1060.90 2.961308
1061.00 2.960971
1061.10 2.960634
1061.20 2.960298
1061.30 2.959961
1061.40 2.959625
1061.50 2.959288
1061.60 2.958952
1061.70 2.958616
1061.80 2.95828
1061.90 2.957944
1062.00 2.957608
1062.10 2.957272
1062.20 2.956936
1062.30 2.9566
1062.40 2.956265
1062.50 2.955929
1062.60 2.955589
1062.70 2.955243
1062.80 2.954897
1062.90 2.954552
1063.00 2.954206
1063.10 2.953861
1063.20 2.953516
1063.30 2.95317
1063.40 2.952825
1063.50 2.95248
1063.60 2.952135
1063.70 2.95179
1063.80 2.951445
1063.90 2.9511
1064.00 2.950756
1064.10 2.950411
1064.20 2.950066
1064.30 2.949722
1064.40 2.949378
1064.50 2.949033
1064.60 2.948689
1064.70 2.948345
1064.80 2.948001
1064.90 2.947657
1065.00 2.947313
1065.10 2.946969
1065.20 2.946625
1065.30 2.946281
1065.40 2.945938
1065.50 2.945594
1065.60 2.945251
1065.70 2.944907
1065.80 2.944564
1065.90 2.944221
1066.00 2.943877
1066.10 2.943534
1066.20 2.943191
1066.30 2.942848
1066.40 2.942506
1066.50 2.942163
1066.60 2.94182
1066.70 2.941477
1066.80 2.941135
1066.90 2.940792
1067.00 2.94045
1067.10 2.940108
1067.20 2.939765
1067.30 2.939423
1067.40 2.939081
1067.50 2.938739
1067.60 2.938397
1067.70 2.938055
1067.80 2.937713
1067.90 2.937372
1068.00 2.93703
1068.10 2.936689
1068.20 2.936347
1068.30 2.936006
1068.40 2.935665
1068.50 2.935323
1068.60 2.934982
1068.70 2.934641
1068.80 2.9343
1068.90 2.933959
1069.00 2.933618
1069.10 2.933278
1069.20 2.932937
1069.30 2.932596
1069.40 2.932256
1069.50 2.931915
1069.60 2.931575
1069.70 2.931235
1069.80 2.930894
1069.90 2.930554
1070.00 2.930214
1070.10 2.929874
1070.20 2.929534
1070.30 2.929194
1070.40 2.928855
1070.50 2.928515
1070.60 2.928175
1070.70 2.927836
1070.80 2.927496
1070.90 2.927157
1071.00 2.926818
1071.10 2.926478
1071.20 2.926139
1071.30 2.9258
1071.40 2.925461
1071.50 2.925122
1071.60 2.924783
1071.70 2.924444
1071.80 2.924106
1071.90 2.923767
1072.00 2.923429
1072.10 2.92309
1072.20 2.922752
1072.30 2.922413
1072.40 2.922075
1072.50 2.921737
1072.60 2.921399
1072.70 2.921061
1072.80 2.920723
1072.90 2.920385
1073.00 2.920047
1073.10 2.919709
1073.20 2.919368
1073.30 2.919012
1073.40 2.918657
1073.50 2.918302
1073.60 2.917947
1073.70 2.917592
1073.80 2.917237
1073.90 2.916882
1074.00 2.916527
1074.10 2.916172
1074.20 2.915818
1074.30 2.915463
1074.40 2.915109
1074.50 2.914754
1074.60 2.9144
1074.70 2.914046
1074.80 2.913692
1074.90 2.913338
1075.00 2.912984
1075.10 2.91263
1075.20 2.912276
1075.30 2.911922
1075.40 2.911568
1075.50 2.911215
1075.60 2.910861
1075.70 2.910508
1075.80 2.910155
1075.90 2.909801
1076.00 2.909448
1076.10 2.909095
1076.20 2.908742
1076.30 2.908389
1076.40 2.908036
1076.50 2.907683
1076.60 2.907331
1076.70 2.906978
1076.80 2.906626
1076.90 2.906273
1077.00 2.905921
1077.10 2.905568
1077.20 2.905216
1077.30 2.904864
1077.40 2.904512
1077.50 2.90416
1077.60 2.903808
1077.70 2.903456
1077.80 2.903105
1077.90 2.902753
1078.00 2.902401
1078.10 2.90205
1078.20 2.901699
1078.30 2.901347
1078.40 2.900996
1078.50 2.900645
1078.60 2.900294
1078.70 2.899943
1078.80 2.899592
1078.90 2.899241
1079.00 2.89889
1079.10 2.89854
1079.20 2.898189
1079.30 2.897838
1079.40 2.897488
1079.50 2.897138
1079.60 2.896787
1079.70 2.896437
1079.80 2.896087
1079.90 2.895737
1080.00 2.895387
1080.10 2.895037
1080.20 2.894687
1080.30 2.894338
1080.40 2.893988
1080.50 2.893638
1080.60 2.893289
1080.70 2.89294
1080.80 2.89259
1080.90 2.892241
1081.00 2.891892
1081.10 2.891543
1081.20 2.891194
1081.30 2.890845
1081.40 2.890496
1081.50 2.890147
1081.60 2.889799
1081.70 2.88945
1081.80 2.889101
1081.90 2.888753
1082.00 2.888405
1082.10 2.888056
1082.20 2.887708
1082.30 2.88736
1082.40 2.887012
1082.50 2.886664
1082.60 2.886316
1082.70 2.885968
1082.80 2.885621
1082.90 2.885273
1083.00 2.884925
1083.10 2.884578
1083.20 2.88423
1083.30 2.883883
1083.40 2.883536
1083.50 2.883189
1083.60 2.882842
1083.70 2.882495
1083.80 2.882148
1083.90 2.881801
1084.00 2.881452
1084.10 2.881104
1084.20 2.880755
1084.30 2.880407
1084.40 2.880059
1084.50 2.87971
1084.60 2.879362
1084.70 2.879014
1084.80 2.878666
1084.90 2.878318
1085.00 2.87797
1085.10 2.877623
1085.20 2.877275
1085.30 2.876927
1085.40 2.87658
1085.50 2.876232
1085.60 2.875885
1085.70 2.875538
1085.80 2.875191
1085.90 2.874844
1086.00 2.874496
1086.10 2.87415
1086.20 2.873803
1086.30 2.873456
1086.40 2.873109
1086.50 2.872762
1086.60 2.872416
1086.70 2.872069
1086.80 2.871723
1086.90 2.871377
1087.00 2.87103
1087.10 2.870684
1087.20 2.870338
1087.30 2.869992
1087.40 2.869646
1087.50 2.8693
1087.60 2.868955
1087.70 2.868609
1087.80 2.868263
1087.90 2.867918
1088.00 2.867572
1088.10 2.867227
1088.20 2.866882
1088.30 2.866536
1088.40 2.866191
1088.50 2.865846
1088.60 2.865501
1088.70 2.865156
1088.80 2.864811
1088.90 2.864467
1089.00 2.864122
1089.10 2.863777
1089.20 2.863433
1089.30 2.863088
1089.40 2.862734
1089.50 2.862374
1089.60 2.862015
1089.70 2.861656
1089.80 2.861297
1089.90 2.860938
1090.00 2.860579
1090.10 2.86022
1090.20 2.859861
1090.30 2.859502
1090.40 2.859144
1090.50 2.858785
1090.60 2.858427
1090.70 2.858069
1090.80 2.85771
1090.90 2.857352
1091.00 2.856994
1091.10 2.856636
1091.20 2.856278
1091.30 2.85592
1091.40 2.855562
1091.50 2.855205
1091.60 2.854847
1091.70 2.85449
1091.80 2.854132
1091.90 2.853775
1092.00 2.853418
1092.10 2.85306
1092.20 2.852703
1092.30 2.852346
1092.40 2.851989
1092.50 2.851632
1092.60 2.851276
1092.70 2.850919
1092.80 2.850562
1092.90 2.850206
1093.00 2.849849
1093.10 2.849493
1093.20 2.849137
1093.30 2.848781
1093.40 2.848425
1093.50 2.848068
1093.60 2.847713
1093.70 2.847357
1093.80 2.847001
1093.90 2.846645
1094.00 2.84629
1094.10 2.845934
1094.20 2.845579
1094.30 2.845223
1094.40 2.844868
1094.50 2.844513
1094.60 2.844158
1094.70 2.843803
1094.80 2.843447
1094.90 2.84309
1095.00 2.842734
1095.10 2.842377
1095.20 2.842021
1095.30 2.841665
1095.40 2.841309
1095.50 2.840953
1095.60 2.840597
1095.70 2.840241
1095.80 2.839885
1095.90 2.83953
1096.00 2.839174
1096.10 2.838818
1096.20 2.838463
1096.30 2.838108
1096.40 2.837752
1096.50 2.837397
1096.60 2.837042
1096.70 2.836687
1096.80 2.836332
1096.90 2.835977
1097.00 2.835622
1097.10 2.835268
1097.20 2.834913
1097.30 2.834558
1097.40 2.834204
1097.50 2.83385
1097.60 2.833495
1097.70 2.833141
1097.80 2.832787
1097.90 2.832433
1098.00 2.832079
1098.10 2.831725
1098.20 2.831371
1098.30 2.831017
1098.40 2.830664
1098.50 2.83031
1098.60 2.829957
1098.70 2.829603
1098.80 2.82925
1098.90 2.828897
1099.00 2.828544
1099.10 2.828191
1099.20 2.827838
1099.30 2.827485
1099.40 2.827132
1099.50 2.826779
1099.60 2.826426
1099.70 2.826074
1099.80 2.825721
1099.90 2.825369
1100.00 2.825017
1100.10 2.824664
1100.20 2.824312
1100.30 2.82396
1100.40 2.823608
1100.50 2.823256
1100.60 2.822904
1100.70 2.822552
1100.80 2.822201
1100.90 2.821849
1101.00 2.821498
1101.10 2.821146
1101.20 2.820795
1101.30 2.820444
1101.40 2.820092
1101.50 2.819741
1101.60 2.81939
1101.70 2.819039
1101.80 2.818688
1101.90 2.818338
1102.00 2.817987
1102.10 2.817636
1102.20 2.817286
1102.30 2.816935
1102.40 2.816585
1102.50 2.816234
1102.60 2.815884
1102.70 2.815534
1102.80 2.815184
1102.90 2.814834
1103.00 2.814484
1103.10 2.814134
1103.20 2.813785
1103.30 2.813435
1103.40 2.813085
1103.50 2.812736
1103.60 2.812386
1103.70 2.812037
1103.80 2.811688
1103.90 2.811339
1104.00 2.810989
1104.10 2.81064
1104.20 2.810292
1104.30 2.809943
1104.40 2.809594
1104.50 2.809245
1104.60 2.808897
1104.70 2.808548
1104.80 2.8082
1104.90 2.807851
1105.00 2.807503
1105.10 2.807155
1105.20 2.806807
1105.30 2.806458
1105.40 2.80611
1105.50 2.805763
1105.60 2.805415
1105.70 2.805067
1105.80 2.804703
1105.90 2.80434
1106.00 2.803976
1106.10 2.803613
1106.20 2.80325
1106.30 2.802886
1106.40 2.802523
1106.50 2.80216
1106.60 2.801797
1106.70 2.801434
1106.80 2.801072
1106.90 2.800709
1107.00 2.800346
1107.10 2.799984
1107.20 2.799622
1107.30 2.799259
1107.40 2.798897
1107.50 2.798535
1107.60 2.798173
1107.70 2.797811
1107.80 2.797449
1107.90 2.797087
1108.00 2.796725
1108.10 2.796364
1108.20 2.796002
1108.30 2.795641
1108.40 2.795279
1108.50 2.794918
1108.60 2.794557
1108.70 2.794196
1108.80 2.793835
1108.90 2.793474
1109.00 2.793113
1109.10 2.792752
1109.20 2.792391
1109.30 2.792031
1109.40 2.79167
1109.50 2.79131
1109.60 2.790949
1109.70 2.790589
1109.80 2.790229
1109.90 2.789869
1110.00 2.789509
1110.10 2.789149
1110.20 2.788789
1110.30 2.788429
1110.40 2.788069
1110.50 2.78771
1110.60 2.78735
1110.70 2.786991
1110.80 2.786631
1110.90 2.786272
1111.00 2.785913
1111.10 2.785554
1111.20 2.785195
1111.30 2.784836
1111.40 2.784477
1111.50 2.784118
1111.60 2.78376
1111.70 2.783401
1111.80 2.783042
1111.90 2.782684
1112.00 2.782326
1112.10 2.781967
1112.20 2.781609
1112.30 2.781251
1112.40 2.780893
1112.50 2.780535
1112.60 2.780177
1112.70 2.77982
1112.80 2.779462
1112.90 2.779104
1113.00 2.778747
1113.10 2.778389
1113.20 2.778032
1113.30 2.777675
1113.40 2.777318
1113.50 2.77696
1113.60 2.776603
1113.70 2.776247
1113.80 2.77589
1113.90 2.775533
1114.00 2.775176
1114.10 2.77482
1114.20 2.774463
1114.30 2.774107
1114.40 2.77375
1114.50 2.773394
1114.60 2.773038
1114.70 2.772682
1114.80 2.772326
1114.90 2.77197
1115.00 2.771614
1115.10 2.771258
1115.20 2.770903
1115.30 2.770547
1115.40 2.770191
1115.50 2.769836
1115.60 2.769481
1115.70 2.769125
1115.80 2.76877
1115.90 2.768415
1116.00 2.76806
1116.10 2.767705
1116.20 2.76735
1116.30 2.766996
1116.40 2.766641
1116.50 2.766286
1116.60 2.765932
1116.70 2.765577
1116.80 2.765216
1116.90 2.764846
1117.00 2.764477
1117.10 2.764108
1117.20 2.763738
1117.30 2.763369
1117.40 2.763
1117.50 2.762631
1117.60 2.762262
1117.70 2.761893
1117.80 2.761524
1117.90 2.761155
1118.00 2.760786
1118.10 2.760418
1118.20 2.760049
1118.30 2.759681
1118.40 2.759313
1118.50 2.758945
1118.60 2.758576
1118.70 2.758208
1118.80 2.75784
1118.90 2.757473
1119.00 2.757105
1119.10 2.756737
1119.20 2.75637
1119.30 2.756002
1119.40 2.755635
1119.50 2.755267
1119.60 2.7549
1119.70 2.754533
1119.80 2.754166
1119.90 2.753799
1120.00 2.753432
1120.10 2.753065
1120.20 2.752698
1120.30 2.752332
1120.40 2.751965
1120.50 2.751599
1120.60 2.751232
1120.70 2.750866
1120.80 2.7505
1120.90 2.750134
1121.00 2.749768
1121.10 2.749402
1121.20 2.749036
1121.30 2.74867
1121.40 2.748304
1121.50 2.747939
1121.60 2.747573
1121.70 2.747208
1121.80 2.746842
1121.90 2.746477
1122.00 2.746112
1122.10 2.745747
1122.20 2.745382
1122.30 2.745017
1122.40 2.744652
1122.50 2.744288
1122.60 2.743923
1122.70 2.743558
1122.80 2.743194
1122.90 2.74283
1123.00 2.742465
1123.10 2.742101
1123.20 2.741737
1123.30 2.741373
1123.40 2.741009
1123.50 2.740645
1123.60 2.740281
1123.70 2.739918
1123.80 2.739554
1123.90 2.739191
1124.00 2.738827
1124.10 2.738464
1124.20 2.738101
1124.30 2.737738
1124.40 2.737374
1124.50 2.737011
1124.60 2.736649
1124.70 2.736286
1124.80 2.735923
1124.90 2.73556
1125.00 2.735198
1125.10 2.734835
1125.20 2.734473
1125.30 2.734111
1125.40 2.733748
1125.50 2.733386
1125.60 2.733024
1125.70 2.732662
1125.80 2.7323
1125.90 2.731939
1126.00 2.731577
1126.10 2.731215
1126.20 2.730854
1126.30 2.730492
1126.40 2.730131
1126.50 2.72977
1126.60 2.729408
1126.70 2.729047
1126.80 2.728686
1126.90 2.728325
1127.00 2.727965
1127.10 2.727604
1127.20 2.727243
1127.30 2.726883
1127.40 2.726522
1127.50 2.726162
1127.60 2.725801
1127.70 2.725441
1127.80 2.725081
1127.90 2.724721
1128.00 2.72436
1128.10 2.723999
1128.20 2.723638
1128.30 2.723277
1128.40 2.722916
1128.50 2.722555
1128.60 2.722194
1128.70 2.721833
1128.80 2.721473
1128.90 2.721112
1129.00 2.720752
1129.10 2.720392
1129.20 2.720031
1129.30 2.719671
1129.40 2.719311
1129.50 2.718951
1129.60 2.718591
1129.70 2.718232
1129.80 2.717872
1129.90 2.717512
1130.00 2.717153
1130.10 2.716793
1130.20 2.716434
1130.30 2.716075
1130.40 2.715715
1130.50 2.715356
1130.60 2.714997
1130.70 2.714638
1130.80 2.714279
1130.90 2.713921
1131.00 2.713562
1131.10 2.713203
1131.20 2.712845
1131.30 2.712486
1131.40 2.712128
1131.50 2.71177
1131.60 2.711411
1131.70 2.711053
1131.80 2.710695
1131.90 2.710337
1132.00 2.70998
1132.10 2.709622
1132.20 2.709264
1132.30 2.708906
1132.40 2.708549
1132.50 2.708192
1132.60 2.707834
1132.70 2.707477
1132.80 2.70712
1132.90 2.706763
1133.00 2.706406
1133.10 2.706049
1133.20 2.705692
1133.30 2.705335
1133.40 2.704978
1133.50 2.704622
1133.60 2.704265
1133.70 2.703909
1133.80 2.703552
1133.90 2.703196
1134.00 2.70284
1134.10 2.702484
1134.20 2.702128
1134.30 2.701772
1134.40 2.701416
1134.50 2.70106
1134.60 2.700705
1134.70 2.700349
1134.80 2.699994
1134.90 2.699638
1135.00 2.699283
1135.10 2.698928
1135.20 2.698572
1135.30 2.698217
1135.40 2.697862
1135.50 2.697507
1135.60 2.697153
1135.70 2.696798
1135.80 2.696443
1135.90 2.696088
1136.00 2.695734
1136.10 2.69538
1136.20 2.695025
1136.30 2.694671
1136.40 2.694317
1136.50 2.693963
1136.60 2.693609
1136.70 2.693255
1136.80 2.692901
1136.90 2.692547
1137.00 2.692193
1137.10 2.69184
1137.20 2.691486
1137.30 2.691133
1137.40 2.690779
1137.50 2.690426
1137.60 2.690073
1137.70 2.68972
1137.80 2.689367
1137.90 2.689014
1138.00 2.688661
1138.10 2.688308
1138.20 2.687956
1138.30 2.687603
1138.40 2.68725
1138.50 2.686898
1138.60 2.686546
1138.70 2.686193
1138.80 2.685841
1138.90 2.685489
1139.00 2.685137
1139.10 2.684785
1139.20 2.684433
1139.30 2.684067
1139.40 2.683701
1139.50 2.683335
1139.60 2.68297
1139.70 2.682604
1139.80 2.682238
1139.90 2.681873
1140.00 2.681507
1140.10 2.681142
1140.20 2.680776
1140.30 2.680411
1140.40 2.680046
1140.50 2.679681
1140.60 2.679316
1140.70 2.678951
1140.80 2.678586
1140.90 2.678222
1141.00 2.677857
1141.10 2.677492
1141.20 2.677128
1141.30 2.676764
1141.40 2.676399
1141.50 2.676035
1141.60 2.675671
1141.70 2.675307
1141.80 2.674943
1141.90 2.674579
1142.00 2.674216
1142.10 2.673852
1142.20 2.673488
1142.30 2.673125
1142.40 2.672761
1142.50 2.672398
1142.60 2.672035
1142.70 2.671672
1142.80 2.671309
1142.90 2.670946
1143.00 2.670583
1143.10 2.67022
1143.20 2.669857
1143.30 2.669495
1143.40 2.669132
1143.50 2.668769
1143.60 2.668407
1143.70 2.668045
1143.80 2.667683
1143.90 2.66732
1144.00 2.666958
1144.10 2.666597
1144.20 2.666235
1144.30 2.665873
1144.40 2.665511
1144.50 2.66515
1144.60 2.664788
1144.70 2.664427
1144.80 2.664065
1144.90 2.663704
1145.00 2.663343
1145.10 2.662982
1145.20 2.662621
1145.30 2.66226
1145.40 2.661899
1145.50 2.661538
1145.60 2.661178
1145.70 2.660817
1145.80 2.660456
1145.90 2.660096
1146.00 2.659736
1146.10 2.659375
1146.20 2.659015
1146.30 2.658655
1146.40 2.658295
1146.50 2.657935
1146.60 2.657576
1146.70 2.657216
1146.80 2.656856
1146.90 2.656497
1147.00 2.656137
1147.10 2.655778
1147.20 2.655418
1147.30 2.655059
1147.40 2.6547
1147.50 2.654341
1147.60 2.653982
1147.70 2.653623
1147.80 2.653264
1147.90 2.652906
1148.00 2.652547
1148.10 2.652189
1148.20 2.65183
1148.30 2.651472
1148.40 2.651113
1148.50 2.650755
1148.60 2.650397
1148.70 2.650039
1148.80 2.649681
1148.90 2.649323
1149.00 2.648965
1149.10 2.648608
1149.20 2.64825
1149.30 2.647893
1149.40 2.647535
1149.50 2.647178
1149.60 2.646821
1149.70 2.646463
1149.80 2.646106
1149.90 2.645749
1150.00 2.645392
1150.10 2.645035
1150.20 2.644679
1150.30 2.644322
1150.40 2.643965
1150.50 2.643609
1150.60 2.643252
1150.70 2.642882
1150.80 2.642512
1150.90 2.642142
1151.00 2.641772
1151.10 2.641402
1151.20 2.641032
1151.30 2.640663
1151.40 2.640293
1151.50 2.639924
1151.60 2.639555
1151.70 2.639185
1151.80 2.638816
1151.90 2.638447
1152.00 2.638078
1152.10 2.637709
1152.20 2.637341
1152.30 2.636972
1152.40 2.636603
1152.50 2.636235
1152.60 2.635866
1152.70 2.635498
1152.80 2.63513
1152.90 2.634762
1153.00 2.634393
1153.10 2.634025
1153.20 2.633658
1153.30 2.63329
1153.40 2.632922
1153.50 2.632554
1153.60 2.632187
1153.70 2.631819
1153.80 2.631452
1153.90 2.631085
1154.00 2.630718
1154.10 2.63035
1154.20 2.629983
1154.30 2.629617
1154.40 2.62925
1154.50 2.628883
1154.60 2.628516
1154.70 2.62815
1154.80 2.627783
1154.90 2.627417
1155.00 2.62705
1155.10 2.626684
1155.20 2.626318
1155.30 2.625952
1155.40 2.625586
1155.50 2.62522
1155.60 2.624854
1155.70 2.624489
1155.80 2.624123
1155.90 2.623758
1156.00 2.623392
1156.10 2.623027
1156.20 2.622661
1156.30 2.622296
1156.40 2.621931
1156.50 2.621566
1156.60 2.621201
1156.70 2.620836
1156.80 2.620471
1156.90 2.620107
1157.00 2.619742
1157.10 2.619378
1157.20 2.619013
1157.30 2.618649
1157.40 2.618285
1157.50 2.61792
1157.60 2.617556
1157.70 2.617192
1157.80 2.616828
1157.90 2.616465
1158.00 2.616101
1158.10 2.615737
1158.20 2.615374
1158.30 2.61501
1158.40 2.614647
1158.50 2.614284
1158.60 2.61392
1158.70 2.613557
1158.80 2.613194
1158.90 2.612831
1159.00 2.612468
1159.10 2.612106
1159.20 2.611743
1159.30 2.61138
1159.40 2.611018
1159.50 2.610655
1159.60 2.610293
1159.70 2.609931
1159.80 2.609568
1159.90 2.609206
1160.00 2.608844
1160.10 2.608482
1160.20 2.608121
1160.30 2.607759
1160.40 2.607397
1160.50 2.607036
1160.60 2.606674
1160.70 2.606313
1160.80 2.605951
1160.90 2.60559
1161.00 2.605229
1161.10 2.604868
1161.20 2.604507
1161.30 2.604146
1161.40 2.603785
1161.50 2.603424
1161.60 2.603064
1161.70 2.602703
1161.80 2.602343
1161.90 2.601982
1162.00 2.601622
1162.10 2.601262
1162.20 2.600901
1162.30 2.60054
1162.40 2.600179
1162.50 2.599819
1162.60 2.599458
1162.70 2.599097
1162.80 2.598737
1162.90 2.598377
1163.00 2.598016
1163.10 2.597656
1163.20 2.597296
1163.30 2.596936
1163.40 2.596576
1163.50 2.596216
1163.60 2.595856
1163.70 2.595497
1163.80 2.595137
1163.90 2.594778
1164.00 2.594418
1164.10 2.594059
1164.20 2.5937
1164.30 2.59334
1164.40 2.592981
1164.50 2.592622
1164.60 2.592263
1164.70 2.591905
1164.80 2.591546
1164.90 2.591187
1165.00 2.590829
1165.10 2.59047
1165.20 2.590112
1165.30 2.589753
1165.40 2.589395
1165.50 2.589037
1165.60 2.588679
1165.70 2.588321
1165.80 2.587963
1165.90 2.587605
1166.00 2.587247
1166.10 2.58689
1166.20 2.586532
1166.30 2.586175
1166.40 2.585817
1166.50 2.58546
1166.60 2.585103
1166.70 2.584746
1166.80 2.584389
1166.90 2.584032
1167.00 2.583675
1167.10 2.583318
1167.20 2.582961
1167.30 2.582605
1167.40 2.582248
1167.50 2.581892
1167.60 2.581535
1167.70 2.581179
1167.80 2.580823
1167.90 2.580467
1168.00 2.580099
1168.10 2.579731
1168.20 2.579363
1168.30 2.578995
1168.40 2.578627
1168.50 2.578259
1168.60 2.577891
1168.70 2.577524
1168.80 2.577156
1168.90 2.576789
1169.00 2.576421
1169.10 2.576054
1169.20 2.575687
1169.30 2.575319
1169.40 2.574952
1169.50 2.574585
1169.60 2.574218
1169.70 2.573852
1169.80 2.573485
1169.90 2.573118
1170.00 2.572752
1170.10 2.572385
1170.20 2.572019
1170.30 2.571653
1170.40 2.571286
1170.50 2.57092
1170.60 2.570554
1170.70 2.570188
1170.80 2.569822
1170.90 2.569457
1171.00 2.569091
1171.10 2.568725
1171.20 2.56836
1171.30 2.567994
1171.40 2.567629
1171.50 2.567264
1171.60 2.566899
1171.70 2.566534
1171.80 2.566169
1171.90 2.565804
1172.00 2.565439
1172.10 2.565074
1172.20 2.56471
1172.30 2.564345
1172.40 2.563981
1172.50 2.563616
1172.60 2.563252
1172.70 2.562888
1172.80 2.562524
1172.90 2.56216
1173.00 2.561796
1173.10 2.561432
1173.20 2.561068
1173.30 2.560704
1173.40 2.560341
1173.50 2.559977
1173.60 2.559614
1173.70 2.559251
1173.80 2.558887
1173.90 2.558523
1174.00 2.558159
1174.10 2.557796
1174.20 2.557432
1174.30 2.557068
1174.40 2.556705
1174.50 2.556342
1174.60 2.555978
1174.70 2.555615
1174.80 2.555252
1174.90 2.554889
1175.00 2.554526
1175.10 2.554163
1175.20 2.553801
1175.30 2.553438
1175.40 2.553076
1175.50 2.552713
1175.60 2.552351
1175.70 2.551988
1175.80 2.551626
1175.90 2.551264
1176.00 2.550902
1176.10 2.55054
1176.20 2.550178
1176.30 2.549816
1176.40 2.549455
1176.50 2.549093
1176.60 2.548732
1176.70 2.54837
1176.80 2.548009
1176.90 2.547647
1177.00 2.547286
1177.10 2.546925
1177.20 2.546564
1177.30 2.546203
1177.40 2.545842
1177.50 2.545482
1177.60 2.545121
1177.70 2.54476
1177.80 2.5444
1177.90 2.544039
1178.00 2.543679
1178.10 2.543319
1178.20 2.542959
1178.30 2.542599
1178.40 2.542239
1178.50 2.541879
1178.60 2.541519
1178.70 2.541159
1178.80 2.5408
1178.90 2.54044
1179.00 2.540081
1179.10 2.539721
1179.20 2.539362
1179.30 2.539003
1179.40 2.538644
1179.50 2.538285
1179.60 2.537926
1179.70 2.537567
1179.80 2.537208
1179.90 2.536849
1180.00 2.536491
1180.10 2.536132
1180.20 2.535774
1180.30 2.535415
1180.40 2.535057
1180.50 2.534699
1180.60 2.534341
1180.70 2.533983
1180.80 2.533625
1180.90 2.533267
1181.00 2.532909
1181.10 2.532551
1181.20 2.532194
1181.30 2.531836
1181.40 2.531479
1181.50 2.531121
1181.60 2.530764
1181.70 2.530407
1181.80 2.53005
1181.90 2.529693
1182.00 2.529336
1182.10 2.528979
1182.20 2.528622
1182.30 2.528266
1182.40 2.527909
1182.50 2.527553
1182.60 2.527196
1182.70 2.52684
1182.80 2.526484
1182.90 2.526127
1183.00 2.525771
1183.10 2.525415
1183.20 2.525059
1183.30 2.524703
1183.40 2.524348
1183.50 2.523992
1183.60 2.523637
1183.70 2.523281
1183.80 2.522926
1183.90 2.52257
1184.00 2.522215
1184.10 2.52186
1184.20 2.521505
1184.30 2.52115
1184.40 2.520795
1184.50 2.52044
1184.60 2.520085
1184.70 2.519731
1184.80 2.519376
1184.90 2.519022
1185.00 2.518667
1185.10 2.518313
1185.20 2.517959
1185.30 2.517604
1185.40 2.51725
1185.50 2.516891
1185.60 2.516525
1185.70 2.516159
1185.80 2.515793
1185.90 2.515427
1186.00 2.515061
1186.10 2.514695
1186.20 2.514329
1186.30 2.513964
1186.40 2.513598
1186.50 2.513233
1186.60 2.512867
1186.70 2.512502
1186.80 2.512137
1186.90 2.511772
1187.00 2.511407
1187.10 2.511042
1187.20 2.510677
1187.30 2.510312
1187.40 2.509947
1187.50 2.509583
1187.60 2.509218
1187.70 2.508854
1187.80 2.50849
1187.90 2.508125
1188.00 2.507761
1188.10 2.507397
1188.20 2.507033
1188.30 2.506669
1188.40 2.506305
1188.50 2.505942
1188.60 2.505578
1188.70 2.505214
1188.80 2.504851
1188.90 2.504488
1189.00 2.504124
1189.10 2.503761
1189.20 2.503398
1189.30 2.503035
1189.40 2.502672
1189.50 2.502309
1189.60 2.501946
1189.70 2.501584
1189.80 2.501221
1189.90 2.500859
1190.00 2.500496
1190.10 2.500134
1190.20 2.499772
1190.30 2.49941
1190.40 2.499047
1190.50 2.498685
1190.60 2.498324
1190.70 2.497962
1190.80 2.4976
1190.90 2.497238
1191.00 2.496877
1191.10 2.496515
1191.20 2.496154
1191.30 2.495793
1191.40 2.495431
1191.50 2.49507
1191.60 2.494709
1191.70 2.494348
1191.80 2.493987
1191.90 2.493627
1192.00 2.493266
1192.10 2.492905
1192.20 2.492545
1192.30 2.492184
1192.40 2.491824
1192.50 2.491464
1192.60 2.491104
1192.70 2.490743
1192.80 2.490383
1192.90 2.490024
1193.00 2.489664
1193.10 2.489304
1193.20 2.488944
1193.30 2.488585
1193.40 2.488225
1193.50 2.487866
1193.60 2.487506
1193.70 2.487147
1193.80 2.486788
1193.90 2.486429
1194.00 2.48607
1194.10 2.485711
1194.20 2.485352
1194.30 2.484994
1194.40 2.484635
1194.50 2.484276
1194.60 2.483918
1194.70 2.48356
1194.80 2.483201
1194.90 2.482843
1195.00 2.482485
1195.10 2.482127
1195.20 2.481769
1195.30 2.481411
1195.40 2.481053
1195.50 2.480696
1195.60 2.480338
1195.70 2.47998
1195.80 2.479623
1195.90 2.479266
1196.00 2.478908
1196.10 2.478551
1196.20 2.478194
1196.30 2.477837
1196.40 2.47748
1196.50 2.477123
1196.60 2.476766
1196.70 2.47641
1196.80 2.476053
1196.90 2.475697
1197.00 2.47534
1197.10 2.474984
1197.20 2.474628
1197.30 2.474271
1197.40 2.473915
1197.50 2.473558
1197.60 2.473202
1197.70 2.472845
1197.80 2.472489
1197.90 2.472133
1198.00 2.471777
1198.10 2.47142
1198.20 2.471064
1198.30 2.470709
1198.40 2.470353
1198.50 2.469997
1198.60 2.469641
1198.70 2.469286
1198.80 2.46893
1198.90 2.468575
1199.00 2.46822
1199.10 2.467864
1199.20 2.467509
1199.30 2.467154
1199.40 2.466799
1199.50 2.466444
1199.60 2.466089
1199.70 2.465735
1199.80 2.46538
1199.90 2.465025
1200.00 2.464671
