# Version 2.1 - nm, norm@500 to 1, cut digits, bergeron_He_8500_85.dat_8500
# Wavelength(nm)  Flambda(ergs/cm^s/s/nm)
300.00 1.497093
300.10 1.497219
300.20 1.497347
300.30 1.497476
300.40 1.497623
300.50 1.497769
300.60 1.497914
300.70 1.498059
300.80 1.498204
300.90 1.498348
301.00 1.498492
301.10 1.498635
301.20 1.498777
301.30 1.498919
301.40 1.49906
301.50 1.499201
301.60 1.499342
301.70 1.499482
301.80 1.499621
301.90 1.49976
302.00 1.499898
302.10 1.500028
302.20 1.500156
302.30 1.500283
302.40 1.500411
302.50 1.500537
302.60 1.500663
302.70 1.500789
302.80 1.500914
302.90 1.501039
303.00 1.501163
303.10 1.501287
303.20 1.50141
303.30 1.501538
303.40 1.501715
303.50 1.501891
303.60 1.502067
303.70 1.502242
303.80 1.502417
303.90 1.502591
304.00 1.502765
304.10 1.502938
304.20 1.50311
304.30 1.503282
304.40 1.503453
304.50 1.503624
304.60 1.503704
304.70 1.503773
304.80 1.503842
304.90 1.503911
305.00 1.503979
305.10 1.504047
305.20 1.504114
305.30 1.504181
305.40 1.504248
305.50 1.504314
305.60 1.50438
305.70 1.504445
305.80 1.50451
305.90 1.504574
306.00 1.504638
306.10 1.504702
306.20 1.504765
306.30 1.504828
306.40 1.504932
306.50 1.505047
306.60 1.505162
306.70 1.505277
306.80 1.505391
306.90 1.505504
307.00 1.505617
307.10 1.50573
307.20 1.505842
307.30 1.505954
307.40 1.506065
307.50 1.506176
307.60 1.506286
307.70 1.506396
307.80 1.506505
307.90 1.506614
308.00 1.506723
308.10 1.506831
308.20 1.506938
308.30 1.507045
308.40 1.507152
308.50 1.507258
308.60 1.507364
308.70 1.507469
308.80 1.507495
308.90 1.507298
309.00 1.507331
309.10 1.507363
309.20 1.507395
309.30 1.507427
309.40 1.507474
309.50 1.507612
309.60 1.50775
309.70 1.507887
309.80 1.508024
309.90 1.508161
310.00 1.508297
310.10 1.508432
310.20 1.508567
310.30 1.508702
310.40 1.508815
310.50 1.508906
310.60 1.508997
310.70 1.509087
310.80 1.509176
310.90 1.509266
311.00 1.50933
311.10 1.509394
311.20 1.509457
311.30 1.509501
311.40 1.509491
311.50 1.50948
311.60 1.509468
311.70 1.509457
311.80 1.509445
311.90 1.509433
312.00 1.50942
312.10 1.509407
312.20 1.509683
312.30 1.510049
312.40 1.510148
312.50 1.509388
312.60 1.509452
312.70 1.509516
312.80 1.509579
312.90 1.509692
313.00 1.50986
313.10 1.510026
313.20 1.510192
313.30 1.510303
313.40 1.510258
313.50 1.510213
313.60 1.510167
313.70 1.510121
313.80 1.510075
313.90 1.510029
314.00 1.509983
314.10 1.510124
314.20 1.510265
314.30 1.510406
314.40 1.510546
314.50 1.510686
314.60 1.510825
314.70 1.510963
314.80 1.510816
314.90 1.510469
315.00 1.510784
315.10 1.510768
315.20 1.510751
315.30 1.510734
315.40 1.510717
315.50 1.5107
315.60 1.510682
315.70 1.510664
315.80 1.510646
315.90 1.510627
316.00 1.510608
316.10 1.511058
316.20 1.511506
316.30 1.511018
316.40 1.510998
316.50 1.510977
316.60 1.511423
316.70 1.511402
316.80 1.51138
316.90 1.511358
317.00 1.511336
317.10 1.511314
317.20 1.511291
317.30 1.511407
317.40 1.511471
317.50 1.511391
317.60 1.51131
317.70 1.51123
317.80 1.511149
317.90 1.511417
318.00 1.51134
318.10 1.511315
318.20 1.511289
318.30 1.511263
318.40 1.511237
318.50 1.511211
318.60 1.511544
318.70 1.511056
318.80 1.511811
318.90 1.511001
319.00 1.511075
319.10 1.511047
319.20 1.511033
319.30 1.511057
319.40 1.511082
319.50 1.511106
319.60 1.510917
319.70 1.510941
319.80 1.510964
319.90 1.510987
320.00 1.510985
320.10 1.510954
320.20 1.511398
320.30 1.511366
320.40 1.511334
320.50 1.511302
320.60 1.511707
320.70 1.511674
320.80 1.511641
320.90 1.511608
321.00 1.511575
321.10 1.511541
321.20 1.511316
321.30 1.511316
321.40 1.511317
321.50 1.511316
321.60 1.511316
321.70 1.511315
321.80 1.511157
321.90 1.510828
322.00 1.511259
322.10 1.511218
322.20 1.511177
322.30 1.511136
322.40 1.511095
322.50 1.511053
322.60 1.511011
322.70 1.510969
322.80 1.510746
322.90 1.510767
323.00 1.510788
323.10 1.510808
323.20 1.510828
323.30 1.510847
323.40 1.510867
323.50 1.510886
323.60 1.510904
323.70 1.510923
323.80 1.510941
323.90 1.510959
324.00 1.510741
324.10 1.510524
324.20 1.510306
324.30 1.510199
324.40 1.51028
324.50 1.51022
324.60 1.510161
324.70 1.510101
324.80 1.510041
324.90 1.50998
325.00 1.50992
325.10 1.509859
325.20 1.509816
325.30 1.509813
325.40 1.509809
325.50 1.509789
325.60 1.509751
325.70 1.509713
325.80 1.509675
325.90 1.509611
326.00 1.509519
326.10 1.509428
326.20 1.509336
326.30 1.50939
326.40 1.50986
326.50 1.509781
326.60 1.509703
326.70 1.509624
326.80 1.509545
326.90 1.509466
327.00 1.509387
327.10 1.509307
327.20 1.509228
327.30 1.509148
327.40 1.509068
327.50 1.508987
327.60 1.508907
327.70 1.508826
327.80 1.508746
327.90 1.508668
328.00 1.508634
328.10 1.508651
328.20 1.508668
328.30 1.508685
328.40 1.508701
328.50 1.508554
328.60 1.508368
328.70 1.508182
328.80 1.508035
328.90 1.507997
329.00 1.507959
329.10 1.507921
329.20 1.507882
329.30 1.507843
329.40 1.507804
329.50 1.507765
329.60 1.507725
329.70 1.507685
329.80 1.507645
329.90 1.507605
330.00 1.507464
330.10 1.5072
330.20 1.506935
330.30 1.506671
330.40 1.506507
330.50 1.506449
330.60 1.506392
330.70 1.506334
330.80 1.506277
330.90 1.506219
331.00 1.506161
331.10 1.506102
331.20 1.506044
331.30 1.505985
331.40 1.505926
331.50 1.505946
331.60 1.506063
331.70 1.50618
331.80 1.506098
331.90 1.506008
332.00 1.505918
332.10 1.505828
332.20 1.505737
332.30 1.505647
332.40 1.505556
332.50 1.505465
332.60 1.505373
332.70 1.505282
332.80 1.505191
332.90 1.505099
333.00 1.505007
333.10 1.504892
333.20 1.504747
333.30 1.504602
333.40 1.504458
333.50 1.504313
333.60 1.504168
333.70 1.504023
333.80 1.503877
333.90 1.503732
334.00 1.503587
334.10 1.503479
334.20 1.503417
334.30 1.503355
334.40 1.503293
334.50 1.503231
334.60 1.503168
334.70 1.503091
334.80 1.502928
334.90 1.502667
335.00 1.502407
335.10 1.502852
335.20 1.502789
335.30 1.50235
335.40 1.502286
335.50 1.502222
335.60 1.502158
335.70 1.50228
335.80 1.501801
335.90 1.501508
336.00 1.501443
336.10 1.501378
336.20 1.501313
336.30 1.501248
336.40 1.501182
336.50 1.501116
336.60 1.50105
336.70 1.500984
336.80 1.500918
336.90 1.500848
337.00 1.500773
337.10 1.500698
337.20 1.500623
337.30 1.500497
337.40 1.500297
337.50 1.500097
337.60 1.499898
337.70 1.499698
337.80 1.499498
337.90 1.499346
338.00 1.499253
338.10 1.499159
338.20 1.499066
338.30 1.498972
338.40 1.498862
338.50 1.498712
338.60 1.498562
338.70 1.498412
338.80 1.498262
338.90 1.498112
339.00 1.497962
339.10 1.497812
339.20 1.497661
339.30 1.497551
339.40 1.497497
339.50 1.497407
339.60 1.497272
339.70 1.497137
339.80 1.497002
339.90 1.496866
340.00 1.496731
340.10 1.496595
340.20 1.49646
340.30 1.496324
340.40 1.496188
340.50 1.496052
340.60 1.495916
340.70 1.49578
340.80 1.495677
340.90 1.495621
341.00 1.495512
341.10 1.495339
341.20 1.495166
341.30 1.494993
341.40 1.49482
341.50 1.494647
341.60 1.494473
341.70 1.4943
341.80 1.494151
341.90 1.49403
342.00 1.49391
342.10 1.493789
342.20 1.493917
342.30 1.493903
342.40 1.493644
342.50 1.493441
342.60 1.493238
342.70 1.493036
342.80 1.492833
342.90 1.49263
343.00 1.492481
343.10 1.492398
343.20 1.492315
343.30 1.492232
343.40 1.492098
343.50 1.49189
343.60 1.491682
343.70 1.491474
343.80 1.491267
343.90 1.491059
344.00 1.490905
344.10 1.490829
344.20 1.490753
344.30 1.490676
344.40 1.490599
344.50 1.490523
344.60 1.490142
344.70 1.490046
344.80 1.489969
344.90 1.489891
345.00 1.489975
345.10 1.489505
345.20 1.4892
345.30 1.489133
345.40 1.489066
345.50 1.48898
345.60 1.488831
345.70 1.488622
345.80 1.488413
345.90 1.488204
346.00 1.487996
346.10 1.487787
346.20 1.487599
346.30 1.487443
346.40 1.487286
346.50 1.487129
346.60 1.486972
346.70 1.486815
346.80 1.486658
346.90 1.486501
347.00 1.486344
347.10 1.486186
347.20 1.486025
347.30 1.485858
347.40 1.48569
347.50 1.485523
347.60 1.485356
347.70 1.485188
347.80 1.485021
347.90 1.484853
348.00 1.484686
348.10 1.484518
348.20 1.48435
348.30 1.484183
348.40 1.484015
348.50 1.483847
348.60 1.483679
348.70 1.483425
348.80 1.483184
348.90 1.483001
349.00 1.482817
349.10 1.482633
349.20 1.482449
349.30 1.482265
349.40 1.482081
349.50 1.481897
349.60 1.481713
349.70 1.481528
349.80 1.481344
349.90 1.48116
350.00 1.480976
350.10 1.480792
350.20 1.480607
350.30 1.480435
350.40 1.48028
350.50 1.480125
350.60 1.479969
350.70 1.479814
350.80 1.479658
350.90 1.479503
351.00 1.479347
351.10 1.479192
351.20 1.479036
351.30 1.47888
351.40 1.478697
351.50 1.478465
351.60 1.478233
351.70 1.478001
351.80 1.477769
351.90 1.477537
352.00 1.477305
352.10 1.477073
352.20 1.477206
352.30 1.477231
352.40 1.477042
352.50 1.476853
352.60 1.476663
352.70 1.476474
352.80 1.476285
352.90 1.476095
353.00 1.475906
353.10 1.475717
353.20 1.475527
353.30 1.475338
353.40 1.475148
353.50 1.474848
353.60 1.474519
353.70 1.474191
353.80 1.473863
353.90 1.473593
354.00 1.473429
354.10 1.473263
354.20 1.473098
354.30 1.472933
354.40 1.472768
354.50 1.472603
354.60 1.472438
354.70 1.472272
354.80 1.472111
354.90 1.471955
355.00 1.4718
355.10 1.471644
355.20 1.471488
355.30 1.471176
355.40 1.470864
355.50 1.470552
355.60 1.47024
355.70 1.470011
355.80 1.469819
355.90 1.469874
356.00 1.469803
356.10 1.469591
356.20 1.469379
356.30 1.469167
356.40 1.468955
356.50 1.468743
356.60 1.46853
356.70 1.468318
356.80 1.468106
356.90 1.467894
357.00 1.467682
357.10 1.46747
357.20 1.467258
357.30 1.467046
357.40 1.46685
357.50 1.466683
357.60 1.466517
357.70 1.46635
357.80 1.465862
357.90 1.465375
358.00 1.465127
358.10 1.464938
358.20 1.464749
358.30 1.464559
358.40 1.46437
358.50 1.464181
358.60 1.463992
358.70 1.463803
358.80 1.463613
358.90 1.463424
359.00 1.463244
359.10 1.46308
359.20 1.462912
359.30 1.46272
359.40 1.462528
359.50 1.462253
359.60 1.461957
359.70 1.46166
359.80 1.461396
359.90 1.461131
360.00 1.460911
360.10 1.460772
360.20 1.460633
360.30 1.460493
360.40 1.460354
360.50 1.460214
360.60 1.459605
360.70 1.459335
360.80 1.459066
360.90 1.458796
361.00 1.458794
361.10 1.458641
361.20 1.458152
361.30 1.458062
361.40 1.457936
361.50 1.457881
361.60 1.457333
361.70 1.457242
361.80 1.457096
361.90 1.456849
362.00 1.456602
362.10 1.456305
362.20 1.456043
362.30 1.455865
362.40 1.455687
362.50 1.455508
362.60 1.45533
362.70 1.455048
362.80 1.454562
362.90 1.454467
363.00 1.454372
363.10 1.45422
363.20 1.454067
363.30 1.453397
363.40 1.453482
363.50 1.453214
363.60 1.452769
363.70 1.452717
363.80 1.452232
363.90 1.452107
364.00 1.451982
364.10 1.451857
364.20 1.451732
364.30 1.451382
364.40 1.450977
364.50 1.45089
364.60 1.450562
364.70 1.450234
364.80 1.449907
364.90 1.449815
365.00 1.449723
365.10 1.44928
365.20 1.449188
365.30 1.448745
365.40 1.448653
365.50 1.448211
365.60 1.447769
365.70 1.447613
365.80 1.447458
365.90 1.447415
366.00 1.4474
366.10 1.447124
366.20 1.446848
366.30 1.446572
366.40 1.446297
366.50 1.446233
366.60 1.445451
366.70 1.44519
366.80 1.444929
366.90 1.444704
367.00 1.444541
367.10 1.444379
367.20 1.444216
367.30 1.444054
367.40 1.443891
367.50 1.443538
367.60 1.443138
367.70 1.442899
367.80 1.442661
367.90 1.442422
368.00 1.442075
368.10 1.441974
368.20 1.441736
368.30 1.441496
368.40 1.441256
368.50 1.441016
368.60 1.440775
368.70 1.440535
368.80 1.440295
368.90 1.43986
369.00 1.439688
369.10 1.439667
369.20 1.438894
369.30 1.438801
369.40 1.438708
369.50 1.438615
369.60 1.438177
369.70 1.43774
369.80 1.437515
369.90 1.437293
370.00 1.43707
370.10 1.436687
370.20 1.436587
370.30 1.436493
370.40 1.436049
370.50 1.435964
370.60 1.435538
370.70 1.435445
370.80 1.435009
370.90 1.434574
371.00 1.43448
371.10 1.43439
371.20 1.433956
371.30 1.433521
371.40 1.433613
371.50 1.433346
371.60 1.43308
371.70 1.432813
371.80 1.432547
371.90 1.43228
372.00 1.431709
372.10 1.431422
372.20 1.431216
372.30 1.43101
372.40 1.430803
372.50 1.430597
372.60 1.430391
372.70 1.430185
372.80 1.429753
372.90 1.429321
373.00 1.429227
373.10 1.429137
373.20 1.428707
373.30 1.428277
373.40 1.428184
373.50 1.42809
373.60 1.427661
373.70 1.427232
373.80 1.427284
373.90 1.427044
374.00 1.426783
374.10 1.426521
374.20 1.42626
374.30 1.425999
374.40 1.425655
374.50 1.425144
374.60 1.424879
374.70 1.42462
374.80 1.424361
374.90 1.424102
375.00 1.423786
375.10 1.42347
375.20 1.423155
375.30 1.422871
375.40 1.422587
375.50 1.422304
375.60 1.42202
375.70 1.421737
375.80 1.421453
375.90 1.42117
376.00 1.42107
376.10 1.420891
376.20 1.420712
376.30 1.420533
376.40 1.420354
376.50 1.420127
376.60 1.419828
376.70 1.419529
376.80 1.419233
376.90 1.418941
377.00 1.418649
377.10 1.418357
377.20 1.418054
377.30 1.417712
377.40 1.41737
377.50 1.417028
377.60 1.416706
377.70 1.416384
377.80 1.416062
377.90 1.41574
378.00 1.415886
378.10 1.415603
378.20 1.415309
378.30 1.415015
378.40 1.414721
378.50 1.414427
378.60 1.414133
378.70 1.41384
378.80 1.413546
378.90 1.413263
379.00 1.413
379.10 1.412776
379.20 1.412551
379.30 1.412276
379.40 1.411951
379.50 1.411627
379.60 1.411353
379.70 1.411123
379.80 1.410775
379.90 1.410426
380.00 1.410078
380.10 1.409731
380.20 1.409383
380.30 1.409035
380.40 1.408688
380.50 1.408341
380.60 1.408427
380.70 1.408127
380.80 1.407828
380.90 1.407528
381.00 1.407229
381.10 1.406893
381.20 1.406683
381.30 1.406303
381.40 1.405796
381.50 1.405719
381.60 1.405594
381.70 1.405284
381.80 1.404548
381.90 1.404454
382.00 1.40436
382.10 1.403945
382.20 1.403659
382.30 1.403245
382.40 1.402878
382.50 1.402581
382.60 1.402284
382.70 1.402092
382.80 1.401912
382.90 1.401627
383.00 1.401341
383.10 1.401055
383.20 1.40075
383.30 1.400371
383.40 1.400034
383.50 1.399758
383.60 1.399702
383.70 1.399391
383.80 1.399081
383.90 1.39877
384.00 1.39846
384.10 1.398149
384.20 1.397839
384.30 1.397529
384.40 1.397232
384.50 1.396948
384.60 1.396664
384.70 1.39638
384.80 1.396158
384.90 1.396005
385.00 1.395551
385.10 1.395115
385.20 1.395149
385.30 1.394744
385.40 1.394401
385.50 1.394118
385.60 1.393835
385.70 1.393552
385.80 1.393254
385.90 1.3929
386.00 1.392585
386.10 1.392312
386.20 1.392076
386.30 1.391839
386.40 1.391361
386.50 1.390899
386.60 1.390548
386.70 1.390454
386.80 1.390361
386.90 1.389642
387.00 1.389549
387.10 1.389456
387.20 1.388738
387.30 1.388645
387.40 1.38809
387.50 1.388112
387.60 1.387807
387.70 1.387403
387.80 1.386998
387.90 1.386594
388.00 1.386277
388.10 1.386127
388.20 1.386136
388.30 1.385816
388.40 1.385497
388.50 1.38504
388.60 1.384503
388.70 1.384234
388.80 1.384141
388.90 1.384009
389.00 1.383336
389.10 1.383244
389.20 1.382801
389.30 1.382551
389.40 1.382157
389.50 1.381845
389.60 1.381695
389.70 1.381562
389.80 1.381168
389.90 1.380773
390.00 1.380379
390.10 1.379985
390.20 1.379592
390.30 1.379283
390.40 1.379071
390.50 1.378859
390.60 1.378646
390.70 1.378434
390.80 1.378148
390.90 1.377789
391.00 1.377258
391.10 1.376851
391.20 1.376555
391.30 1.376481
391.40 1.376185
391.50 1.375889
391.60 1.375593
391.70 1.375297
391.80 1.375002
391.90 1.374515
392.00 1.374025
392.10 1.373851
392.20 1.37363
392.30 1.373137
392.40 1.372871
392.50 1.372746
392.60 1.372456
392.70 1.371955
392.80 1.371863
392.90 1.371277
393.00 1.370902
393.10 1.370582
393.20 1.370311
393.30 1.369917
393.40 1.369646
393.50 1.369404
393.60 1.369078
393.70 1.369054
393.80 1.368552
393.90 1.368159
394.00 1.367826
394.10 1.367791
394.20 1.367403
394.30 1.367124
394.40 1.36677
394.50 1.366078
394.60 1.366057
394.70 1.365953
394.80 1.365536
394.90 1.365131
395.00 1.36502
395.10 1.364329
395.20 1.363951
395.30 1.363651
395.40 1.363352
395.50 1.363123
395.60 1.36292
395.70 1.362687
395.80 1.362374
395.90 1.362062
396.00 1.361715
396.10 1.361189
396.20 1.361098
396.30 1.360846
396.40 1.36016
396.50 1.359972
396.60 1.359487
396.70 1.359292
396.80 1.358849
396.90 1.358576
397.00 1.358426
397.10 1.358237
397.20 1.357784
397.30 1.357662
397.40 1.357351
397.50 1.357041
397.60 1.356716
397.70 1.356244
397.80 1.355772
397.90 1.355357
398.00 1.355098
398.10 1.354839
398.20 1.35461
398.30 1.354413
398.40 1.354202
398.50 1.353522
398.60 1.353305
398.70 1.352946
398.80 1.352507
398.90 1.352138
399.00 1.351895
399.10 1.35183
399.20 1.351422
399.30 1.351014
399.40 1.350607
399.50 1.3502
399.60 1.34987
399.70 1.349568
399.80 1.349267
399.90 1.348966
400.00 1.348667
400.10 1.348443
400.20 1.34789
400.30 1.347586
400.40 1.347374
400.50 1.347038
400.60 1.346579
400.70 1.346198
400.80 1.346188
400.90 1.345611
401.00 1.345427
401.10 1.345338
401.20 1.344667
401.30 1.344432
401.40 1.344222
401.50 1.343983
401.60 1.343731
401.70 1.343062
401.80 1.342848
401.90 1.342607
402.00 1.342216
402.10 1.342127
402.20 1.34146
402.30 1.341371
402.40 1.340705
402.50 1.340616
402.60 1.340527
402.70 1.339862
402.80 1.339773
402.90 1.339339
403.00 1.338962
403.10 1.338356
403.20 1.338281
403.30 1.33806
403.40 1.337516
403.50 1.337122
403.60 1.336813
403.70 1.336677
403.80 1.336035
403.90 1.336025
404.00 1.335839
404.10 1.335178
404.20 1.334804
404.30 1.33443
404.40 1.334342
404.50 1.333969
404.60 1.333595
404.70 1.333508
404.80 1.332865
404.90 1.332761
405.00 1.332551
405.10 1.332179
405.20 1.331725
405.30 1.331271
405.40 1.330994
405.50 1.330717
405.60 1.33044
405.70 1.330163
405.80 1.329887
405.90 1.32961
406.00 1.329184
406.10 1.328758
406.20 1.328332
406.30 1.327906
406.40 1.32753
406.50 1.327387
406.60 1.327017
406.70 1.326824
406.80 1.326393
406.90 1.325919
407.00 1.325606
407.10 1.325294
407.20 1.324982
407.30 1.32467
407.40 1.324358
407.50 1.324046
407.60 1.323734
407.70 1.323423
407.80 1.323111
407.90 1.322799
408.00 1.322458
408.10 1.322056
408.20 1.321701
408.30 1.321419
408.40 1.321138
408.50 1.320589
408.60 1.320331
408.70 1.320073
408.80 1.319772
408.90 1.319204
409.00 1.318881
409.10 1.318558
409.20 1.318235
409.30 1.317913
409.40 1.317593
409.50 1.317344
409.60 1.317095
409.70 1.316819
409.80 1.316433
409.90 1.31604
410.00 1.315398
410.10 1.31522
410.20 1.314845
410.30 1.314421
410.40 1.314034
410.50 1.313759
410.60 1.313484
410.70 1.313181
410.80 1.312767
410.90 1.312352
411.00 1.312003
411.10 1.311679
411.20 1.311355
411.30 1.311062
411.40 1.310895
411.50 1.310648
411.60 1.310402
411.70 1.310133
411.80 1.309773
411.90 1.309357
412.00 1.308722
412.10 1.3085
412.20 1.308003
412.30 1.307919
412.40 1.307305
412.50 1.307279
412.60 1.307038
412.70 1.306655
412.80 1.306235
412.90 1.305767
413.00 1.305213
413.10 1.304908
413.20 1.304602
413.30 1.304297
413.40 1.303992
413.50 1.303736
413.60 1.303605
413.70 1.303248
413.80 1.302891
413.90 1.302535
414.00 1.302179
414.10 1.301823
414.20 1.301401
414.30 1.300828
414.40 1.300691
414.50 1.300105
414.60 1.300046
414.70 1.299691
414.80 1.299336
414.90 1.298982
415.00 1.298627
415.10 1.298273
415.20 1.297935
415.30 1.297648
415.40 1.297362
415.50 1.297071
415.60 1.296641
415.70 1.296211
415.80 1.295821
415.90 1.295553
416.00 1.295286
416.10 1.295
416.20 1.294637
416.30 1.294274
416.40 1.293911
416.50 1.293549
416.60 1.293198
416.70 1.292839
416.80 1.292218
416.90 1.292137
417.00 1.291517
417.10 1.291444
417.20 1.291094
417.30 1.290741
417.40 1.290313
417.50 1.289884
417.60 1.28951
417.70 1.289345
417.80 1.288996
417.90 1.288647
418.00 1.288299
418.10 1.28795
418.20 1.287602
418.30 1.287246
418.40 1.2867
418.50 1.286375
418.60 1.286051
418.70 1.285726
418.80 1.285402
418.90 1.285078
419.00 1.284754
419.10 1.28443
419.20 1.284106
419.30 1.28378
419.40 1.283356
419.50 1.282932
419.60 1.282542
419.70 1.28229
419.80 1.282038
419.90 1.281763
420.00 1.281412
420.10 1.281062
420.20 1.280712
420.30 1.280362
420.40 1.280012
420.50 1.279662
420.60 1.279313
420.70 1.278964
420.80 1.278615
420.90 1.278264
421.00 1.277847
421.10 1.27743
421.20 1.277041
421.30 1.276735
421.40 1.27643
421.50 1.276125
421.60 1.27582
421.70 1.275515
421.80 1.275211
421.90 1.274896
422.00 1.27455
422.10 1.274185
422.20 1.273747
422.30 1.273309
422.40 1.272875
422.50 1.272537
422.60 1.2722
422.70 1.271863
422.80 1.271526
422.90 1.271189
423.00 1.270852
423.10 1.270515
423.20 1.270179
423.30 1.269843
423.40 1.269507
423.50 1.269171
423.60 1.268836
423.70 1.2685
423.80 1.268165
423.90 1.26783
424.00 1.267495
424.10 1.26716
424.20 1.266825
424.30 1.266491
424.40 1.2661
424.50 1.265713
424.60 1.265327
424.70 1.264941
424.80 1.264555
424.90 1.264169
425.00 1.263783
425.10 1.263398
425.20 1.263013
425.30 1.262628
425.40 1.262252
425.50 1.261933
425.60 1.261613
425.70 1.261294
425.80 1.260975
425.90 1.260657
426.00 1.260338
426.10 1.26002
426.20 1.259701
426.30 1.259383
426.40 1.259065
426.50 1.258747
426.60 1.25843
426.70 1.258112
426.80 1.257795
426.90 1.257476
427.00 1.257104
427.10 1.256732
427.20 1.25636
427.30 1.255988
427.40 1.255616
427.50 1.255245
427.60 1.254874
427.70 1.254503
427.80 1.254132
427.90 1.253762
428.00 1.253392
428.10 1.253022
428.20 1.252652
428.30 1.252282
428.40 1.251913
428.50 1.251544
428.60 1.251175
428.70 1.250806
428.80 1.250438
428.90 1.250079
429.00 1.24972
429.10 1.249361
429.20 1.249002
429.30 1.248644
429.40 1.248286
429.50 1.247928
429.60 1.24757
429.70 1.247212
429.80 1.246855
429.90 1.246498
430.00 1.24614
430.10 1.245784
430.20 1.245427
430.30 1.245071
430.40 1.244714
430.50 1.244358
430.60 1.244002
430.70 1.243647
430.80 1.243291
430.90 1.242936
431.00 1.242581
431.10 1.242226
431.20 1.241872
431.30 1.241517
431.40 1.241168
431.50 1.240819
431.60 1.24047
431.70 1.240122
431.80 1.239773
431.90 1.239425
432.00 1.239077
432.10 1.238729
432.20 1.238381
432.30 1.238034
432.40 1.237686
432.50 1.237339
432.60 1.236992
432.70 1.236645
432.80 1.236299
432.90 1.235952
433.00 1.235606
433.10 1.23526
433.20 1.234914
433.30 1.234568
433.40 1.234214
433.50 1.23386
433.60 1.233507
433.70 1.233153
433.80 1.232825
433.90 1.232529
434.00 1.232208
434.10 1.231873
434.20 1.231538
434.30 1.231203
434.40 1.230868
434.50 1.230533
434.60 1.230199
434.70 1.229865
434.80 1.229528
434.90 1.229166
435.00 1.228804
435.10 1.228442
435.20 1.22808
435.30 1.227719
435.40 1.227358
435.50 1.226996
435.60 1.226636
435.70 1.226275
435.80 1.225914
435.90 1.225554
436.00 1.225194
436.10 1.224834
436.20 1.224474
436.30 1.224024
436.40 1.223477
436.50 1.223111
436.60 1.222746
436.70 1.222381
436.80 1.222017
436.90 1.221652
437.00 1.221288
437.10 1.220924
437.20 1.220562
437.30 1.220204
437.40 1.219849
437.50 1.219536
437.60 1.219223
437.70 1.21891
437.80 1.218597
437.90 1.218285
438.00 1.217968
438.10 1.217599
438.20 1.217229
438.30 1.216776
438.40 1.216238
438.50 1.215926
438.60 1.215598
438.70 1.21553
438.80 1.214976
438.90 1.214751
439.00 1.214372
439.10 1.214062
439.20 1.213743
439.30 1.213312
439.40 1.212881
439.50 1.21245
439.60 1.212073
439.70 1.211944
439.80 1.211492
439.90 1.211162
440.00 1.210832
440.10 1.210503
440.20 1.210171
440.30 1.209815
440.40 1.209458
440.50 1.209102
440.60 1.208746
440.70 1.208391
440.80 1.208035
440.90 1.20768
441.00 1.207324
441.10 1.206969
441.20 1.206601
441.30 1.206054
441.40 1.205656
441.50 1.205437
441.60 1.205219
441.70 1.20483
441.80 1.204431
441.90 1.204033
442.00 1.203634
442.10 1.203236
442.20 1.202838
442.30 1.20244
442.40 1.202047
442.50 1.201661
442.60 1.201274
442.70 1.200969
442.80 1.200781
442.90 1.200534
443.00 1.200154
443.10 1.199612
443.20 1.19919
443.30 1.198879
443.40 1.198572
443.50 1.19827
443.60 1.19786
443.70 1.197617
443.80 1.197256
443.90 1.196717
444.00 1.196284
444.10 1.195983
444.20 1.195575
444.30 1.195523
444.40 1.195166
444.50 1.194809
444.60 1.194371
444.70 1.193834
444.80 1.193418
444.90 1.193114
445.00 1.19281
445.10 1.192506
445.20 1.19217
445.30 1.191794
445.40 1.191418
445.50 1.191042
445.60 1.190666
445.70 1.190291
445.80 1.189954
445.90 1.189651
446.00 1.189349
446.10 1.189047
446.20 1.188641
446.30 1.188168
446.40 1.188107
446.50 1.187692
446.60 1.187278
446.70 1.186863
446.80 1.18651
446.90 1.186214
447.00 1.185795
447.10 1.185265
447.20 1.185203
447.30 1.184673
447.40 1.184265
447.50 1.183969
447.60 1.183552
447.70 1.183024
447.80 1.182962
447.90 1.182434
448.00 1.182027
448.10 1.181733
448.20 1.181438
448.30 1.181144
448.40 1.18085
448.50 1.180556
448.60 1.180142
448.70 1.179616
448.80 1.179104
448.90 1.17878
449.00 1.178456
449.10 1.178132
449.20 1.177808
449.30 1.177394
449.40 1.177057
449.50 1.17672
449.60 1.176383
449.70 1.176044
449.80 1.175706
449.90 1.175367
450.00 1.175029
450.10 1.174692
450.20 1.174354
450.30 1.174017
450.40 1.173649
450.50 1.173282
450.60 1.172915
450.70 1.172548
450.80 1.172181
450.90 1.171815
451.00 1.171481
451.10 1.171147
451.20 1.170717
451.30 1.170198
451.40 1.169909
451.50 1.16962
451.60 1.169332
451.70 1.169044
451.80 1.168526
451.90 1.168009
452.00 1.167721
452.10 1.167434
452.20 1.167146
452.30 1.166859
452.40 1.166572
452.50 1.166285
452.60 1.165769
452.70 1.165359
452.80 1.165047
452.90 1.164734
453.00 1.164422
453.10 1.164109
453.20 1.163735
453.30 1.163361
453.40 1.162986
453.50 1.162613
453.60 1.162239
453.70 1.161865
453.80 1.161489
453.90 1.161109
454.00 1.160729
454.10 1.160349
454.20 1.160004
454.30 1.159659
454.40 1.159314
454.50 1.158969
454.60 1.158625
454.70 1.158261
454.80 1.157881
454.90 1.157501
455.00 1.157121
455.10 1.156742
455.20 1.156362
455.30 1.155983
455.40 1.155604
455.50 1.155225
455.60 1.154847
455.70 1.154469
455.80 1.154204
455.90 1.153939
456.00 1.153674
456.10 1.153378
456.20 1.152998
456.30 1.152618
456.40 1.152238
456.50 1.151859
456.60 1.15148
456.70 1.151101
456.80 1.150722
456.90 1.150343
457.00 1.149965
457.10 1.149587
457.20 1.149144
457.30 1.148798
457.40 1.148452
457.50 1.148107
457.60 1.147761
457.70 1.147416
457.80 1.147071
457.90 1.146726
458.00 1.146382
458.10 1.146037
458.20 1.145693
458.30 1.145349
458.40 1.145005
458.50 1.144662
458.60 1.144318
458.70 1.143975
458.80 1.143632
458.90 1.143289
459.00 1.142947
459.10 1.142604
459.20 1.142262
459.30 1.141889
459.40 1.141515
459.50 1.141142
459.60 1.140769
459.70 1.140397
459.80 1.140024
459.90 1.139652
460.00 1.13928
460.10 1.138908
460.20 1.138537
460.30 1.138165
460.40 1.137794
460.50 1.137423
460.60 1.137053
460.70 1.136719
460.80 1.136403
460.90 1.136088
461.00 1.135772
461.10 1.135457
461.20 1.13518
461.30 1.134918
461.40 1.134565
461.50 1.134189
461.60 1.133813
461.70 1.133437
461.80 1.133069
461.90 1.132702
462.00 1.132334
462.10 1.131967
462.20 1.1316
462.30 1.131233
462.40 1.130866
462.50 1.130499
462.60 1.130133
462.70 1.129767
462.80 1.129401
462.90 1.129035
463.00 1.12867
463.10 1.128305
463.20 1.127943
463.30 1.127582
463.40 1.127221
463.50 1.126861
463.60 1.126501
463.70 1.126141
463.80 1.125782
463.90 1.12545
464.00 1.125126
464.10 1.124803
464.20 1.124479
464.30 1.124156
464.40 1.123833
464.50 1.12351
464.60 1.123187
464.70 1.1228
464.80 1.122388
464.90 1.121976
465.00 1.121565
465.10 1.121153
465.20 1.120742
465.30 1.120378
465.40 1.120046
465.50 1.119713
465.60 1.119381
465.70 1.119049
465.80 1.118718
465.90 1.118352
466.00 1.117977
466.10 1.117603
466.20 1.117228
466.30 1.116872
466.40 1.116522
466.50 1.116172
466.60 1.115823
466.70 1.115473
466.80 1.115124
466.90 1.114776
467.00 1.114427
467.10 1.114078
467.20 1.11373
467.30 1.113291
467.40 1.112949
467.50 1.112641
467.60 1.112334
467.70 1.112026
467.80 1.111719
467.90 1.111368
468.00 1.111
468.10 1.110632
468.20 1.110265
468.30 1.109821
468.40 1.109348
468.50 1.1093
468.60 1.108827
468.70 1.108354
468.80 1.10799
468.90 1.107834
469.00 1.107362
469.10 1.106965
469.20 1.1066
469.30 1.106234
469.40 1.105869
469.50 1.105559
469.60 1.105272
469.70 1.104984
469.80 1.104697
469.90 1.104395
470.00 1.103925
470.10 1.103517
470.20 1.103134
470.30 1.102751
470.40 1.102368
470.50 1.101986
470.60 1.101619
470.70 1.101257
470.80 1.100895
470.90 1.100533
471.00 1.100396
471.10 1.100041
471.20 1.099574
471.30 1.099213
471.40 1.099063
471.50 1.098596
471.60 1.098131
471.70 1.097665
471.80 1.097368
471.90 1.097113
472.00 1.096858
472.10 1.096603
472.20 1.096247
472.30 1.095865
472.40 1.095484
472.50 1.095102
472.60 1.094721
472.70 1.094282
472.80 1.09392
472.90 1.093583
473.00 1.093246
473.10 1.092909
473.20 1.092572
473.30 1.092236
473.40 1.0919
473.50 1.091564
473.60 1.091228
473.70 1.090893
473.80 1.090539
473.90 1.090181
474.00 1.089822
474.10 1.089465
474.20 1.089099
474.30 1.088729
474.40 1.08836
474.50 1.087992
474.60 1.087625
474.70 1.087281
474.80 1.086937
474.90 1.086593
475.00 1.086249
475.10 1.085906
475.20 1.085563
475.30 1.08522
475.40 1.084868
475.50 1.084514
475.60 1.08416
475.70 1.083806
475.80 1.083453
475.90 1.0831
476.00 1.082747
476.10 1.082394
476.20 1.082054
476.30 1.081719
476.40 1.081384
476.50 1.08105
476.60 1.080716
476.70 1.080381
476.80 1.080047
476.90 1.079691
477.00 1.079329
477.10 1.078968
477.20 1.078607
477.30 1.078245
477.40 1.077885
477.50 1.077524
477.60 1.077163
477.70 1.076803
477.80 1.076443
477.90 1.076083
478.00 1.075724
478.10 1.075364
478.20 1.075005
478.30 1.074646
478.40 1.074287
478.50 1.073929
478.60 1.07357
478.70 1.0733
478.80 1.073065
478.90 1.072723
479.00 1.072354
479.10 1.071985
479.20 1.071617
479.30 1.071248
479.40 1.070889
479.50 1.070534
479.60 1.07018
479.70 1.069826
479.80 1.069473
479.90 1.069119
480.00 1.068766
480.10 1.068413
480.20 1.06806
480.30 1.067707
480.40 1.067355
480.50 1.067003
480.60 1.066651
480.70 1.066299
480.80 1.065947
480.90 1.065596
481.00 1.065244
481.10 1.064893
481.20 1.064525
481.30 1.064156
481.40 1.063788
481.50 1.06342
481.60 1.063052
481.70 1.062685
481.80 1.062318
481.90 1.06195
482.00 1.061584
482.10 1.061217
482.20 1.060853
482.30 1.060528
482.40 1.060202
482.50 1.059877
482.60 1.059552
482.70 1.059228
482.80 1.058903
482.90 1.058578
483.00 1.058254
483.10 1.05793
483.20 1.057606
483.30 1.057283
483.40 1.056959
483.50 1.056636
483.60 1.056312
483.70 1.055951
483.80 1.05559
483.90 1.055229
484.00 1.054869
484.10 1.054508
484.20 1.054145
484.30 1.053781
484.40 1.053416
484.50 1.053052
484.60 1.052689
484.70 1.052326
484.80 1.05198
484.90 1.051634
485.00 1.051288
485.10 1.050942
485.20 1.050597
485.30 1.050251
485.40 1.049906
485.50 1.049561
485.60 1.049217
485.70 1.048857
485.80 1.048498
485.90 1.048139
486.00 1.04778
486.10 1.047422
486.20 1.047063
486.30 1.046705
486.40 1.046347
486.50 1.045989
486.60 1.045632
486.70 1.045276
486.80 1.044944
486.90 1.044612
487.00 1.044279
487.10 1.043948
487.20 1.043627
487.30 1.043307
487.40 1.042987
487.50 1.042668
487.60 1.042348
487.70 1.042028
487.80 1.041709
487.90 1.04139
488.00 1.041071
488.10 1.040753
488.20 1.040432
488.30 1.040083
488.40 1.039735
488.50 1.039386
488.60 1.039038
488.70 1.03869
488.80 1.038265
488.90 1.037841
489.00 1.037446
489.10 1.03713
489.20 1.036813
489.30 1.036497
489.40 1.036181
489.50 1.035864
489.60 1.035549
489.70 1.035233
489.80 1.034816
489.90 1.03447
490.00 1.034125
490.10 1.03378
490.20 1.033435
490.30 1.03309
490.40 1.032766
490.50 1.032442
490.60 1.032119
490.70 1.031795
490.80 1.031375
490.90 1.030955
491.00 1.030535
491.10 1.030115
491.20 1.030083
491.30 1.029664
491.40 1.029245
491.50 1.028826
491.60 1.028463
491.70 1.028217
491.80 1.027958
491.90 1.027541
492.00 1.027123
492.10 1.026705
492.20 1.026515
492.30 1.026258
492.40 1.025841
492.50 1.025424
492.60 1.025015
492.70 1.024695
492.80 1.024375
492.90 1.024056
493.00 1.023736
493.10 1.023396
493.20 1.023057
493.30 1.022718
493.40 1.02238
493.50 1.022041
493.60 1.021637
493.70 1.021366
493.80 1.021096
493.90 1.02077
494.00 1.020357
494.10 1.019967
494.20 1.019627
494.30 1.019288
494.40 1.018948
494.50 1.018609
494.60 1.018265
494.70 1.017854
494.80 1.017473
494.90 1.017179
495.00 1.016885
495.10 1.016591
495.20 1.01626
495.30 1.015928
495.40 1.015597
495.50 1.015266
495.60 1.014935
495.70 1.014604
495.80 1.014273
495.90 1.013943
496.00 1.013613
496.10 1.013257
496.20 1.012856
496.30 1.012541
496.40 1.012226
496.50 1.011912
496.60 1.011598
496.70 1.011247
496.80 1.010896
496.90 1.010545
497.00 1.010195
497.10 1.009844
497.20 1.009494
497.30 1.00913
497.40 1.008724
497.50 1.008319
497.60 1.00801
497.70 1.007889
497.80 1.007526
497.90 1.007163
498.00 1.0068
498.10 1.006438
498.20 1.006075
498.30 1.005713
498.40 1.005351
498.50 1.004989
498.60 1.004628
498.70 1.004225
498.80 1.003822
498.90 1.003522
499.00 1.003222
499.10 1.002922
499.20 1.00259
499.30 1.002211
499.40 1.001899
499.50 1.001588
499.60 1.001276
499.70 1.000964
499.80 1.000643
499.90 1.000321
500.00 1
500.10 0.9996789
500.20 0.9993527
500.30 0.9990156
500.40 0.9986786
500.50 0.9983418
500.60 0.9980052
500.70 0.9976688
500.80 0.9973127
500.90 0.9969146
501.00 0.9965166
501.10 0.9961189
501.20 0.9957811
501.30 0.99557
501.40 0.9952995
501.50 0.9949026
501.60 0.994506
501.70 0.9941095
501.80 0.9937728
501.90 0.9935626
502.00 0.9932931
502.10 0.9928974
502.20 0.9925021
502.30 0.9921069
502.40 0.9917318
502.50 0.9913989
502.60 0.9910661
502.70 0.9907336
502.80 0.9904012
502.90 0.9900691
503.00 0.9897465
503.10 0.9894441
503.20 0.9891419
503.30 0.9888399
503.40 0.9885376
503.50 0.9882341
503.60 0.9879308
503.70 0.9876277
503.80 0.987314
503.90 0.9869222
504.00 0.9865596
504.10 0.9862589
504.20 0.9859584
504.30 0.9856581
504.40 0.9853343
504.50 0.9849437
504.60 0.9845534
504.70 0.9841633
504.80 0.9837734
504.90 0.9833837
505.00 0.983042
505.10 0.9828362
505.20 0.9825828
505.30 0.9821939
505.40 0.9818053
505.50 0.9814169
505.60 0.981048
505.70 0.9807204
505.80 0.980393
505.90 0.9800658
506.00 0.9797388
506.10 0.979412
506.20 0.9790909
506.30 0.9787858
506.40 0.9784809
506.50 0.9781762
506.60 0.9778716
506.70 0.9775672
506.80 0.977263
506.90 0.9769589
507.00 0.976655
507.10 0.9763252
507.20 0.9759521
507.30 0.9756128
507.40 0.9752737
507.50 0.9749348
507.60 0.9745961
507.70 0.9742576
507.80 0.9739193
507.90 0.9735812
508.00 0.9732432
508.10 0.9729055
508.20 0.9725679
508.30 0.9722306
508.40 0.9718934
508.50 0.9715564
508.60 0.9712196
508.70 0.970883
508.80 0.9705348
508.90 0.9701535
509.00 0.9697723
509.10 0.9694105
509.20 0.9690896
509.30 0.9687689
509.40 0.9684484
509.50 0.9681281
509.60 0.9678079
509.70 0.9674879
509.80 0.9671681
509.90 0.9668485
510.00 0.966529
510.10 0.9662098
510.20 0.9658907
510.30 0.9655707
510.40 0.9652479
510.50 0.9649253
510.60 0.9646028
510.70 0.9642805
510.80 0.9639585
510.90 0.9636365
511.00 0.9633148
511.10 0.9629933
511.20 0.9626719
511.30 0.9623507
511.40 0.9620297
511.50 0.9617088
511.60 0.9613867
511.70 0.9610616
511.80 0.9607366
511.90 0.9604119
512.00 0.9600873
512.10 0.959763
512.20 0.9594387
512.30 0.9591129
512.40 0.958782
512.50 0.9584514
512.60 0.9581209
512.70 0.9577906
512.80 0.9574604
512.90 0.9571305
513.00 0.9568008
513.10 0.9564712
513.20 0.9561418
513.30 0.9558126
513.40 0.9554836
513.50 0.9551548
513.60 0.9548261
513.70 0.9544977
513.80 0.9541694
513.90 0.9538413
514.00 0.9535118
514.10 0.9531822
514.20 0.9528528
514.30 0.9525236
514.40 0.9521946
514.50 0.9518657
514.60 0.9515371
514.70 0.9512086
514.80 0.9508803
514.90 0.9505522
515.00 0.9502243
515.10 0.9498965
515.20 0.9495689
515.30 0.9492416
515.40 0.9489144
515.50 0.9485874
515.60 0.9482605
515.70 0.9479339
515.80 0.9476074
515.90 0.9472811
516.00 0.946955
516.10 0.9466291
516.20 0.9463034
516.30 0.9459778
516.40 0.9456524
516.50 0.9453272
516.60 0.9450022
516.70 0.9446774
516.80 0.9443528
516.90 0.9440283
517.00 0.9437041
517.10 0.94338
517.20 0.943056
517.30 0.9427323
517.40 0.9424087
517.50 0.9420854
517.60 0.9417622
517.70 0.9414392
517.80 0.9411163
517.90 0.9407937
518.00 0.9404712
518.10 0.9401489
518.20 0.9398267
518.30 0.9395048
518.40 0.939183
518.50 0.9388614
518.60 0.93854
518.70 0.9382188
518.80 0.9378978
518.90 0.9375769
519.00 0.9372562
519.10 0.9369323
519.20 0.9366049
519.30 0.9362776
519.40 0.9359505
519.50 0.9356236
519.60 0.9352969
519.70 0.9349704
519.80 0.934644
519.90 0.9343179
520.00 0.9339919
520.10 0.9336661
520.20 0.9333405
520.30 0.933015
520.40 0.9326898
520.50 0.9323647
520.60 0.9320398
520.70 0.9317151
520.80 0.9313905
520.90 0.9310662
521.00 0.930742
521.10 0.930418
521.20 0.9300942
521.30 0.9297706
521.40 0.9294471
521.50 0.9291238
521.60 0.9288007
521.70 0.9284778
521.80 0.9281551
521.90 0.9278325
522.00 0.9275101
522.10 0.9271879
522.20 0.9268659
522.30 0.9265441
522.40 0.9262224
522.50 0.9259009
522.60 0.9255796
522.70 0.9252585
522.80 0.9249375
522.90 0.9246168
523.00 0.9242962
523.10 0.9239757
523.20 0.9236555
523.30 0.9233354
523.40 0.9230155
523.50 0.9226958
523.60 0.9223763
523.70 0.9220569
523.80 0.9217378
523.90 0.9214188
524.00 0.9210999
524.10 0.9207813
524.20 0.9204628
524.30 0.9201407
524.40 0.9198158
524.50 0.919491
524.60 0.9191664
524.70 0.9188421
524.80 0.9185178
524.90 0.9181938
525.00 0.91787
525.10 0.9175463
525.20 0.9172228
525.30 0.9168995
525.40 0.9165764
525.50 0.9162534
525.60 0.9159307
525.70 0.9156081
525.80 0.9152857
525.90 0.9149634
526.00 0.9146414
526.10 0.9143195
526.20 0.9139978
526.30 0.9136763
526.40 0.9133549
526.50 0.9130338
526.60 0.9127128
526.70 0.912392
526.80 0.9120714
526.90 0.9117509
527.00 0.9114306
527.10 0.9111105
527.20 0.9107906
527.30 0.9104709
527.40 0.9101513
527.50 0.9098319
527.60 0.9095127
527.70 0.9091937
527.80 0.9088748
527.90 0.9085561
528.00 0.9082376
528.10 0.9079193
528.20 0.9076012
528.30 0.9072832
528.40 0.9069654
528.50 0.9066478
528.60 0.9063303
528.70 0.906013
528.80 0.9056959
528.90 0.905379
529.00 0.9050623
529.10 0.9047457
529.20 0.9044293
529.30 0.9041131
529.40 0.903797
529.50 0.9034811
529.60 0.9031651
529.70 0.9028493
529.80 0.9025337
529.90 0.9022183
530.00 0.901903
530.10 0.9015879
530.20 0.901273
530.30 0.9009583
530.40 0.9006437
530.50 0.9003293
530.60 0.9000151
530.70 0.899701
530.80 0.8993871
530.90 0.8990734
531.00 0.8987599
531.10 0.8984465
531.20 0.8981333
531.30 0.8978203
531.40 0.8975075
531.50 0.8971948
531.60 0.8968823
531.70 0.8965699
531.80 0.8962578
531.90 0.8959458
532.00 0.895634
532.10 0.8953223
532.20 0.8950109
532.30 0.8946996
532.40 0.8943884
532.50 0.8940775
532.60 0.8937667
532.70 0.8934561
532.80 0.8931456
532.90 0.8928354
533.00 0.8925253
533.10 0.8922153
533.20 0.8919056
533.30 0.891596
533.40 0.8912865
533.50 0.8909773
533.60 0.8906682
533.70 0.8903593
533.80 0.8900505
533.90 0.889742
534.00 0.8894335
534.10 0.8891253
534.20 0.8888172
534.30 0.8885093
534.40 0.8882016
534.50 0.887894
534.60 0.8875866
534.70 0.8872794
534.80 0.8869711
534.90 0.8866578
535.00 0.8863448
535.10 0.8860318
535.20 0.8857191
535.30 0.8854065
535.40 0.8850941
535.50 0.8847819
535.60 0.8844698
535.70 0.8841579
535.80 0.8838462
535.90 0.8835347
536.00 0.8832233
536.10 0.8829121
536.20 0.8826011
536.30 0.8822902
536.40 0.8819795
536.50 0.881669
536.60 0.8813586
536.70 0.8810484
536.80 0.8807384
536.90 0.8804286
537.00 0.8801189
537.10 0.8798094
537.20 0.8795001
537.30 0.8791909
537.40 0.8788819
537.50 0.8785731
537.60 0.8782644
537.70 0.8779559
537.80 0.8776476
537.90 0.8773395
538.00 0.8770315
538.10 0.8767237
538.20 0.876416
538.30 0.8761085
538.40 0.8758012
538.50 0.8754941
538.60 0.8751871
538.70 0.8748803
538.80 0.8745737
538.90 0.8742672
539.00 0.8739609
539.10 0.8736548
539.20 0.8733488
539.30 0.873043
539.40 0.8727373
539.50 0.8724319
539.60 0.8721266
539.70 0.8718214
539.80 0.8715165
539.90 0.8712117
540.00 0.870907
540.10 0.8706025
540.20 0.8702981
540.30 0.8699938
540.40 0.8696896
540.50 0.8693856
540.60 0.8690818
540.70 0.8687782
540.80 0.8684747
540.90 0.8681713
541.00 0.8678682
541.10 0.8675652
541.20 0.8672624
541.30 0.8669597
541.40 0.8666572
541.50 0.8663548
541.60 0.8660527
541.70 0.8657507
541.80 0.8654488
541.90 0.8651471
542.00 0.8648456
542.10 0.8645443
542.20 0.8642431
542.30 0.863942
542.40 0.8636412
542.50 0.8633405
542.60 0.8630399
542.70 0.8627395
542.80 0.8624393
542.90 0.8621393
543.00 0.8618394
543.10 0.8615397
543.20 0.8612401
543.30 0.8609407
543.40 0.8606415
543.50 0.8603424
543.60 0.8600435
543.70 0.8597447
543.80 0.8594461
543.90 0.8591477
544.00 0.8588494
544.10 0.8585513
544.20 0.8582534
544.30 0.8579556
544.40 0.8576579
544.50 0.8573605
544.60 0.8570632
544.70 0.856766
544.80 0.856469
544.90 0.8561722
545.00 0.8558755
545.10 0.855579
545.20 0.8552827
545.30 0.8549865
545.40 0.8546905
545.50 0.8543946
545.60 0.8540948
545.70 0.8537933
545.80 0.853492
545.90 0.8531908
546.00 0.8528898
546.10 0.852589
546.20 0.8522883
546.30 0.8519878
546.40 0.8516875
546.50 0.8513873
546.60 0.8510873
546.70 0.8507875
546.80 0.8504878
546.90 0.8501883
547.00 0.8498889
547.10 0.8495897
547.20 0.8492907
547.30 0.8489918
547.40 0.8486931
547.50 0.8483945
547.60 0.8480961
547.70 0.8477979
547.80 0.8474998
547.90 0.8472019
548.00 0.8469042
548.10 0.8466066
548.20 0.8463092
548.30 0.8460071
548.40 0.8456986
548.50 0.8453902
548.60 0.8450821
548.70 0.8447741
548.80 0.8444662
548.90 0.8441586
549.00 0.8438511
549.10 0.8435437
549.20 0.8432366
549.30 0.8429296
549.40 0.8426228
549.50 0.8423161
549.60 0.8420096
549.70 0.8417033
549.80 0.8413971
549.90 0.8410911
550.00 0.8407853
550.10 0.8404797
550.20 0.8401742
550.30 0.8398688
550.40 0.8395637
550.50 0.8392587
550.60 0.8389539
550.70 0.8386492
550.80 0.8383447
550.90 0.8380404
551.00 0.8377379
551.10 0.8374451
551.20 0.8371524
551.30 0.8368599
551.40 0.8365676
551.50 0.8362754
551.60 0.8359834
551.70 0.8356915
551.80 0.8353998
551.90 0.8351083
552.00 0.8348168
552.10 0.8345256
552.20 0.8342345
552.30 0.8339436
552.40 0.8336528
552.50 0.8333622
552.60 0.8330717
552.70 0.8327814
552.80 0.8324913
552.90 0.8322013
553.00 0.8319114
553.10 0.8316217
553.20 0.8313322
553.30 0.8310428
553.40 0.8307536
553.50 0.8304645
553.60 0.8301756
553.70 0.8298869
553.80 0.8295916
553.90 0.8292921
554.00 0.8289927
554.10 0.8286935
554.20 0.8283945
554.30 0.8280956
554.40 0.8277969
554.50 0.8274984
554.60 0.8272
554.70 0.8269018
554.80 0.8266037
554.90 0.8263058
555.00 0.8260081
555.10 0.8257105
555.20 0.8254131
555.30 0.8251158
555.40 0.8248187
555.50 0.8245218
555.60 0.824225
555.70 0.8239284
555.80 0.8236319
555.90 0.8233356
556.00 0.8230395
556.10 0.8227435
556.20 0.8224477
556.30 0.822152
556.40 0.8218565
556.50 0.8215615
556.60 0.8212717
556.70 0.8209821
556.80 0.8206927
556.90 0.8204034
557.00 0.8201142
557.10 0.8198253
557.20 0.8195364
557.30 0.8192478
557.40 0.8189593
557.50 0.8186709
557.60 0.8183827
557.70 0.8180946
557.80 0.8178067
557.90 0.817519
558.00 0.8172314
558.10 0.816944
558.20 0.8166567
558.30 0.8163696
558.40 0.8160826
558.50 0.8157958
558.60 0.8155091
558.70 0.8152226
558.80 0.8149362
558.90 0.81465
559.00 0.8143639
559.10 0.814078
559.20 0.8137923
559.30 0.8135067
559.40 0.8132212
559.50 0.8129359
559.60 0.8126508
559.70 0.8123658
559.80 0.8120809
559.90 0.8117962
560.00 0.8115117
560.10 0.8112273
560.20 0.8109431
560.30 0.810659
560.40 0.8103751
560.50 0.8100913
560.60 0.8098076
560.70 0.8095242
560.80 0.8092408
560.90 0.8089576
561.00 0.8086746
561.10 0.8083917
561.20 0.808109
561.30 0.8078264
561.40 0.807544
561.50 0.8072617
561.60 0.8069796
561.70 0.8066976
561.80 0.8064158
561.90 0.8061341
562.00 0.8058526
562.10 0.8055691
562.20 0.8052825
562.30 0.8049961
562.40 0.8047099
562.50 0.8044238
562.60 0.8041378
562.70 0.803852
562.80 0.8035664
562.90 0.8032809
563.00 0.8029956
563.10 0.8027104
563.20 0.8024254
563.30 0.8021405
563.40 0.8018558
563.50 0.8015712
563.60 0.8012868
563.70 0.8010025
563.80 0.8007184
563.90 0.8004344
564.00 0.8001506
564.10 0.7998669
564.20 0.7995834
564.30 0.7993001
564.40 0.7990169
564.50 0.7987338
564.60 0.7984509
564.70 0.7981681
564.80 0.7978855
564.90 0.7976
565.00 0.7973073
565.10 0.7970147
565.20 0.7967223
565.30 0.79643
565.40 0.7961379
565.50 0.7958459
565.60 0.7955541
565.70 0.7952625
565.80 0.794971
565.90 0.7946796
566.00 0.7943885
566.10 0.7940974
566.20 0.7938066
566.30 0.7935159
566.40 0.7932253
566.50 0.7929349
566.60 0.7926447
566.70 0.7923546
566.80 0.7920647
566.90 0.7917749
567.00 0.7914853
567.10 0.7911958
567.20 0.7909065
567.30 0.7906174
567.40 0.7903284
567.50 0.7900395
567.60 0.7897508
567.70 0.7894642
567.80 0.7891862
567.90 0.7889083
568.00 0.7886305
568.10 0.7883529
568.20 0.7880754
568.30 0.7877981
568.40 0.7875209
568.50 0.7872439
568.60 0.786967
568.70 0.7866903
568.80 0.7864137
568.90 0.7861373
569.00 0.785861
569.10 0.7855848
569.20 0.7853088
569.30 0.7850329
569.40 0.7847572
569.50 0.7844817
569.60 0.7842062
569.70 0.783931
569.80 0.7836558
569.90 0.7833808
570.00 0.783106
570.10 0.7828313
570.20 0.7825567
570.30 0.7822823
570.40 0.782008
570.50 0.7817339
570.60 0.7814599
570.70 0.7811861
570.80 0.7809124
570.90 0.7806389
571.00 0.7803655
571.10 0.7800922
571.20 0.7798191
571.30 0.7795461
571.40 0.7792733
571.50 0.7790006
571.60 0.778728
571.70 0.7784556
571.80 0.7781834
571.90 0.7779113
572.00 0.7776393
572.10 0.7773675
572.20 0.7770958
572.30 0.7768242
572.40 0.7765528
572.50 0.7762816
572.60 0.7760104
572.70 0.7757395
572.80 0.7754686
572.90 0.7751979
573.00 0.7749274
573.10 0.774657
573.20 0.7743867
573.30 0.7741166
573.40 0.7738409
573.50 0.7735575
573.60 0.7732743
573.70 0.7729912
573.80 0.7727083
573.90 0.7724255
574.00 0.7721429
574.10 0.7718604
574.20 0.7715781
574.30 0.7712959
574.40 0.7710139
574.50 0.770732
574.60 0.7704503
574.70 0.7701687
574.80 0.7698873
574.90 0.769606
575.00 0.7693249
575.10 0.7690439
575.20 0.7687631
575.30 0.7684824
575.40 0.7682018
575.50 0.7679215
575.60 0.7676412
575.70 0.7673611
575.80 0.7670812
575.90 0.7668014
576.00 0.7665217
576.10 0.7662422
576.20 0.7659629
576.30 0.7656837
576.40 0.7654046
576.50 0.7651257
576.60 0.764847
576.70 0.7645684
576.80 0.7642899
576.90 0.7640116
577.00 0.7637334
577.10 0.7634554
577.20 0.7631775
577.30 0.7628998
577.40 0.7626222
577.50 0.7623448
577.60 0.7620725
577.70 0.7618087
577.80 0.7615451
577.90 0.7612815
578.00 0.7610181
578.10 0.7607549
578.20 0.7604918
578.30 0.7602288
578.40 0.7599659
578.50 0.7597032
578.60 0.7594406
578.70 0.7591782
578.80 0.7589159
578.90 0.7586537
579.00 0.7583917
579.10 0.7581298
579.20 0.757868
579.30 0.7576064
579.40 0.7573449
579.50 0.7570835
579.60 0.7568223
579.70 0.7565612
579.80 0.7563003
579.90 0.7560395
580.00 0.7557788
580.10 0.755513
580.20 0.7552386
580.30 0.7549645
580.40 0.7546905
580.50 0.7544166
580.60 0.7541429
580.70 0.7538693
580.80 0.7535958
580.90 0.7533225
581.00 0.7530494
581.10 0.7527763
581.20 0.7525035
581.30 0.7522308
581.40 0.7519582
581.50 0.7516857
581.60 0.7514134
581.70 0.7511413
581.80 0.7508693
581.90 0.7505974
582.00 0.7503257
582.10 0.7500523
582.20 0.7497763
582.30 0.7495004
582.40 0.7492246
582.50 0.748949
582.60 0.7486736
582.70 0.7483982
582.80 0.7481231
582.90 0.747848
583.00 0.7475732
583.10 0.7472984
583.20 0.7470238
583.30 0.7467494
583.40 0.7464751
583.50 0.7462009
583.60 0.7459338
583.70 0.7456783
583.80 0.7454228
583.90 0.7451675
584.00 0.7449124
584.10 0.7446573
584.20 0.7444024
584.30 0.7441476
584.40 0.743893
584.50 0.7436385
584.60 0.7433841
584.70 0.7431298
584.80 0.7428757
584.90 0.7426217
585.00 0.7423678
585.10 0.7421141
585.20 0.7418501
585.30 0.7415693
585.40 0.7412887
585.50 0.7410082
585.60 0.7407279
585.70 0.7404477
585.80 0.7401676
585.90 0.7398877
586.00 0.739608
586.10 0.7393284
586.20 0.7390593
586.30 0.7388072
586.40 0.7385552
586.50 0.7383034
586.60 0.7380517
586.70 0.7378001
586.80 0.7375487
586.90 0.7372973
587.00 0.7370462
587.10 0.7367951
587.20 0.7365442
587.30 0.7362934
587.40 0.7360427
587.50 0.7357921
587.60 0.7352775
587.70 0.7350205
587.80 0.7347704
587.90 0.7345205
588.00 0.7342707
588.10 0.734021
588.20 0.7337714
588.30 0.733522
588.40 0.7332727
588.50 0.7330235
588.60 0.7327745
588.70 0.7325255
588.80 0.7322767
588.90 0.7320281
589.00 0.7317693
589.10 0.7314939
589.20 0.7312187
589.30 0.7309436
589.40 0.7306686
589.50 0.7303938
589.60 0.7301192
589.70 0.7298446
589.80 0.7295703
589.90 0.7292961
590.00 0.7290322
590.10 0.7287851
590.20 0.7285382
590.30 0.7282914
590.40 0.7280447
590.50 0.7277981
590.60 0.7275517
590.70 0.7273054
590.80 0.7270369
590.90 0.7267586
591.00 0.7264804
591.10 0.7262024
591.20 0.7259246
591.30 0.7256468
591.40 0.7253693
591.50 0.7250918
591.60 0.7248268
591.70 0.7245818
591.80 0.724337
591.90 0.7240922
592.00 0.7238476
592.10 0.7236031
592.20 0.7233588
592.30 0.7231145
592.40 0.7228704
592.50 0.7226264
592.60 0.7223826
592.70 0.7221388
592.80 0.7218952
592.90 0.7216517
593.00 0.7214084
593.10 0.721155
593.20 0.7208853
593.30 0.7206157
593.40 0.7203463
593.50 0.720077
593.60 0.7198079
593.70 0.7195388
593.80 0.71927
593.90 0.7190013
594.00 0.7187327
594.10 0.7184642
594.20 0.7181959
594.30 0.7179277
594.40 0.7176597
594.50 0.7173918
594.60 0.7171241
594.70 0.7168565
594.80 0.716589
594.90 0.7163217
595.00 0.7160545
595.10 0.7157911
595.20 0.7155338
595.30 0.7152767
595.40 0.7150197
595.50 0.7147628
595.60 0.7145061
595.70 0.7142495
595.80 0.713993
595.90 0.7137367
596.00 0.7134805
596.10 0.7132244
596.20 0.7129685
596.30 0.7127127
596.40 0.712457
596.50 0.7122014
596.60 0.711946
596.70 0.7117011
596.80 0.7114626
596.90 0.7112242
597.00 0.710986
597.10 0.7107479
597.20 0.7105099
597.30 0.710272
597.40 0.7100342
597.50 0.7097966
597.60 0.7095533
597.70 0.7093008
597.80 0.7090485
597.90 0.7087962
598.00 0.7085442
598.10 0.7082922
598.20 0.7080404
598.30 0.7077887
598.40 0.7075371
598.50 0.7072856
598.60 0.7070343
598.70 0.7067831
598.80 0.7065321
598.90 0.7062811
599.00 0.7060303
599.10 0.7057796
599.20 0.7055291
599.30 0.7052787
599.40 0.7050173
599.50 0.7047561
599.60 0.704495
599.70 0.7042341
599.80 0.7039732
599.90 0.7037126
600.00 0.703452
600.10 0.7031916
600.20 0.7029313
600.30 0.7026712
600.40 0.7024112
600.50 0.7021513
600.60 0.7018916
600.70 0.701632
600.80 0.7013725
600.90 0.7011132
601.00 0.700854
601.10 0.7005949
601.20 0.700336
601.30 0.7000772
601.40 0.6998245
601.50 0.699572
601.60 0.6993197
601.70 0.6990674
601.80 0.6988153
601.90 0.6985634
602.00 0.6983115
602.10 0.6980598
602.20 0.6978082
602.30 0.6975567
602.40 0.6973054
602.50 0.6970542
602.60 0.6968031
602.70 0.6965709
602.80 0.6963398
602.90 0.6960928
603.00 0.6958458
603.10 0.695599
603.20 0.6953523
603.30 0.6951058
603.40 0.6948593
603.50 0.694613
603.60 0.6943668
603.70 0.6941207
603.80 0.6938748
603.90 0.693629
604.00 0.6933833
604.10 0.6931377
604.20 0.6928923
604.30 0.692647
604.40 0.6924018
604.50 0.6921471
604.60 0.6918926
604.70 0.6916382
604.80 0.6913839
604.90 0.6911297
605.00 0.6908757
605.10 0.6906218
605.20 0.6903681
605.30 0.6901144
605.40 0.6898609
605.50 0.6896331
605.60 0.6894054
605.70 0.6891777
605.80 0.6889502
605.90 0.6887228
606.00 0.6884956
606.10 0.6882047
606.20 0.687914
606.30 0.6876235
606.40 0.6873331
606.50 0.6871064
606.60 0.6868799
606.70 0.6866535
606.80 0.6864272
606.90 0.686201
607.00 0.6859749
607.10 0.685749
607.20 0.6855231
607.30 0.6852339
607.40 0.6849449
607.50 0.6846561
607.60 0.6843673
607.70 0.6841421
607.80 0.683917
607.90 0.683692
608.00 0.6834672
608.10 0.6832424
608.20 0.6830177
608.30 0.6827932
608.40 0.6825687
608.50 0.6823444
608.60 0.6821202
608.70 0.6818655
608.80 0.6815971
608.90 0.6813289
609.00 0.6810608
609.10 0.6807929
609.20 0.6805251
609.30 0.680286
609.40 0.680047
609.50 0.6798081
609.60 0.6795694
609.70 0.6793307
609.80 0.6790922
609.90 0.6788538
610.00 0.6786155
610.10 0.6783774
610.20 0.6781393
610.30 0.6779014
610.40 0.6776636
610.50 0.677426
610.60 0.6771884
610.70 0.676951
610.80 0.6767136
610.90 0.6764587
611.00 0.6762039
611.10 0.6759492
611.20 0.6756946
611.30 0.6754401
611.40 0.6751858
611.50 0.6749317
611.60 0.6746776
611.70 0.6744237
611.80 0.6741699
611.90 0.6739163
612.00 0.6736627
612.10 0.6734093
612.20 0.6731561
612.30 0.6729029
612.40 0.6726707
612.50 0.6724386
612.60 0.6722066
612.70 0.6719747
612.80 0.671743
612.90 0.6715114
613.00 0.6712798
613.10 0.6710484
613.20 0.6708171
613.30 0.670586
613.40 0.6703549
613.50 0.6701239
613.60 0.6698931
613.70 0.6696624
613.80 0.6694318
613.90 0.6692013
614.00 0.6689709
614.10 0.6687407
614.20 0.6685105
614.30 0.6682805
614.40 0.6680035
614.50 0.6677267
614.60 0.66745
614.70 0.6671735
614.80 0.6669266
614.90 0.666686
615.00 0.6664454
615.10 0.666205
615.20 0.6659647
615.30 0.6657245
615.40 0.6654845
615.50 0.6652445
615.60 0.6650047
615.70 0.664765
615.80 0.6645254
615.90 0.664286
616.00 0.6640466
616.10 0.6638074
616.20 0.6635683
616.30 0.6633293
616.40 0.6630905
616.50 0.6628517
616.60 0.6626131
616.70 0.6623746
616.80 0.6621363
616.90 0.6618974
617.00 0.6616587
617.10 0.6614201
617.20 0.6611816
617.30 0.6609432
617.40 0.660705
617.50 0.6604668
617.60 0.6602288
617.70 0.6599909
617.80 0.6597532
617.90 0.6595155
618.00 0.659278
618.10 0.6590406
618.20 0.6588033
618.30 0.6585661
618.40 0.658329
618.50 0.6580921
618.60 0.6578553
618.70 0.6576186
618.80 0.657382
618.90 0.6571455
619.00 0.6569092
619.10 0.656673
619.20 0.6564368
619.30 0.6562009
619.40 0.655965
619.50 0.6557292
619.60 0.6554936
619.70 0.6552581
619.80 0.6550227
619.90 0.6547874
620.00 0.6545522
620.10 0.6543172
620.20 0.6540823
620.30 0.6538474
620.40 0.6536127
620.50 0.6533782
620.60 0.6531437
620.70 0.6529094
620.80 0.6526751
620.90 0.6524412
621.00 0.6522076
621.10 0.6519742
621.20 0.6517409
621.30 0.6515077
621.40 0.6512746
621.50 0.6510416
621.60 0.6508087
621.70 0.650576
621.80 0.6503434
621.90 0.6501109
622.00 0.6498785
622.10 0.6496462
622.20 0.649414
622.30 0.649182
622.40 0.64895
622.50 0.6487182
622.60 0.6484865
622.70 0.6482549
622.80 0.6480235
622.90 0.6477921
623.00 0.6475609
623.10 0.6473297
623.20 0.6470987
623.30 0.6468678
623.40 0.6466371
623.50 0.6464064
623.60 0.6461758
623.70 0.6459454
623.80 0.6457151
623.90 0.6454849
624.00 0.6452548
624.10 0.6450248
624.20 0.6447949
624.30 0.6445652
624.40 0.6443356
624.50 0.644106
624.60 0.6438766
624.70 0.6436473
624.80 0.6434181
624.90 0.6431891
625.00 0.6429601
625.10 0.6427313
625.20 0.6425026
625.30 0.642274
625.40 0.6420455
625.50 0.6418171
625.60 0.6415888
625.70 0.6413606
625.80 0.6411326
625.90 0.6409047
626.00 0.6406768
626.10 0.6404491
626.20 0.6402215
626.30 0.639994
626.40 0.6397667
626.50 0.6395394
626.60 0.6393123
626.70 0.6390852
626.80 0.6388583
626.90 0.6386315
627.00 0.6384048
627.10 0.6381763
627.20 0.6379424
627.30 0.6377087
627.40 0.6374751
627.50 0.6372416
627.60 0.6370082
627.70 0.636775
627.80 0.6365419
627.90 0.6363088
628.00 0.6360759
628.10 0.6358431
628.20 0.6356105
628.30 0.6353779
628.40 0.6351455
628.50 0.6349132
628.60 0.6346809
628.70 0.6344489
628.80 0.6342169
628.90 0.633985
629.00 0.6337533
629.10 0.6335216
629.20 0.6332901
629.30 0.6330587
629.40 0.6328274
629.50 0.6325963
629.60 0.6323652
629.70 0.6321343
629.80 0.6319034
629.90 0.6316727
630.00 0.6314421
630.10 0.6312116
630.20 0.6309813
630.30 0.6307579
630.40 0.6305353
630.50 0.6303128
630.60 0.6300904
630.70 0.6298681
630.80 0.6296459
630.90 0.6294238
631.00 0.6292019
631.10 0.62898
631.20 0.6287583
631.30 0.6285366
631.40 0.6283151
631.50 0.6280937
631.60 0.6278724
631.70 0.6276512
631.80 0.6274301
631.90 0.6272091
632.00 0.6269882
632.10 0.6267674
632.20 0.6265468
632.30 0.6263262
632.40 0.6261058
632.50 0.6258854
632.60 0.6256652
632.70 0.6254451
632.80 0.6252251
632.90 0.6250051
633.00 0.6247853
633.10 0.6245657
633.20 0.6243461
633.30 0.6241266
633.40 0.6239032
633.50 0.6236768
633.60 0.6234505
633.70 0.6232243
633.80 0.6229982
633.90 0.6227723
634.00 0.6225464
634.10 0.6223207
634.20 0.622095
634.30 0.6218695
634.40 0.6216441
634.50 0.6214188
634.60 0.6211936
634.70 0.6209685
634.80 0.6207436
634.90 0.6205187
635.00 0.620294
635.10 0.6200693
635.20 0.6198448
635.30 0.6196204
635.40 0.6193961
635.50 0.6191719
635.60 0.6189478
635.70 0.6187239
635.80 0.6185
635.90 0.6182763
636.00 0.6180526
636.10 0.6178291
636.20 0.6176057
636.30 0.6173824
636.40 0.6171592
636.50 0.6169361
636.60 0.6167131
636.70 0.6164902
636.80 0.6162675
636.90 0.6160449
637.00 0.6158223
637.10 0.6155999
637.20 0.6153776
637.30 0.6151554
637.40 0.6149333
637.50 0.6147113
637.60 0.6144894
637.70 0.6142677
637.80 0.614046
637.90 0.6138244
638.00 0.613603
638.10 0.6133817
638.20 0.6131604
638.30 0.6129393
638.40 0.6127183
638.50 0.6124974
638.60 0.6122766
638.70 0.6120559
638.80 0.6118354
638.90 0.6116149
639.00 0.6113945
639.10 0.6111743
639.20 0.6109542
639.30 0.6107341
639.40 0.6105142
639.50 0.6102944
639.60 0.6100747
639.70 0.6098551
639.80 0.6096359
639.90 0.6094168
640.00 0.6091978
640.10 0.6089789
640.20 0.6087602
640.30 0.6085415
640.40 0.6083229
640.50 0.6081045
640.60 0.6078861
640.70 0.6076679
640.80 0.6074497
640.90 0.6072317
641.00 0.6070138
641.10 0.6067959
641.20 0.6065782
641.30 0.6063606
641.40 0.6061431
641.50 0.6059257
641.60 0.6057084
641.70 0.6054913
641.80 0.6052742
641.90 0.6050572
642.00 0.6048403
642.10 0.6046236
642.20 0.6044069
642.30 0.6041904
642.40 0.6039739
642.50 0.6037576
642.60 0.6035414
642.70 0.6033252
642.80 0.6031092
642.90 0.6028933
643.00 0.6026775
643.10 0.6024618
643.20 0.6022462
643.30 0.6020307
643.40 0.6018153
643.50 0.6016
643.60 0.6013848
643.70 0.6011697
643.80 0.6009547
643.90 0.6007398
644.00 0.6005251
644.10 0.6003104
644.20 0.6000958
644.30 0.5998814
644.40 0.599667
644.50 0.5994528
644.60 0.5992386
644.70 0.5990246
644.80 0.5988106
644.90 0.5985968
645.00 0.5983831
645.10 0.5981695
645.20 0.5979559
645.30 0.5977425
645.40 0.5975292
645.50 0.597316
645.60 0.5971029
645.70 0.5968899
645.80 0.596677
645.90 0.5964642
646.00 0.5962515
646.10 0.596039
646.20 0.5958267
646.30 0.5956146
646.40 0.5954026
646.50 0.5951907
646.60 0.5949789
646.70 0.5947672
646.80 0.5945556
646.90 0.5943441
647.00 0.5941327
647.10 0.5939214
647.20 0.5937103
647.30 0.5934992
647.40 0.5932882
647.50 0.5930773
647.60 0.5928665
647.70 0.5926559
647.80 0.5924453
647.90 0.5922348
648.00 0.5920244
648.10 0.5918142
648.20 0.591604
648.30 0.5913939
648.40 0.591184
648.50 0.5909741
648.60 0.5907643
648.70 0.5905547
648.80 0.5903451
648.90 0.5901357
649.00 0.5899263
649.10 0.589717
649.20 0.5895079
649.30 0.5892988
649.40 0.5890899
649.50 0.588881
649.60 0.5886723
649.70 0.5884636
649.80 0.5882551
649.90 0.5880467
650.00 0.5878383
650.10 0.5876301
650.20 0.5874219
650.30 0.5872139
650.40 0.5870059
650.50 0.5867981
650.60 0.5865904
650.70 0.5863827
650.80 0.5861752
650.90 0.5859677
651.00 0.5857604
651.10 0.5855532
651.20 0.585346
651.30 0.585139
651.40 0.584932
651.50 0.5847252
651.60 0.5845184
651.70 0.5843118
651.80 0.5841052
651.90 0.5838988
652.00 0.5836924
652.10 0.5834862
652.20 0.58328
652.30 0.583074
652.40 0.582868
652.50 0.5826622
652.60 0.5824516
652.70 0.5822384
652.80 0.5820253
652.90 0.5818124
653.00 0.5815995
653.10 0.5813868
653.20 0.5811741
653.30 0.5809616
653.40 0.5807492
653.50 0.5805368
653.60 0.5803246
653.70 0.5801125
653.80 0.5799004
653.90 0.5796885
654.00 0.5794767
654.10 0.579265
654.20 0.5790533
654.30 0.5788418
654.40 0.5786304
654.50 0.5784191
654.60 0.5782079
654.70 0.5779968
654.80 0.5777858
654.90 0.5775749
655.00 0.5773641
655.10 0.5771534
655.20 0.5769428
655.30 0.5767323
655.40 0.5765219
655.50 0.5763116
655.60 0.5761014
655.70 0.5758913
655.80 0.5756939
655.90 0.5754966
656.00 0.5752995
656.10 0.5751024
656.20 0.5749054
656.30 0.5747085
656.40 0.5745116
656.50 0.5743149
656.60 0.5741183
656.70 0.5739218
656.80 0.5737253
656.90 0.573529
657.00 0.5733327
657.10 0.5731365
657.20 0.5729405
657.30 0.5727445
657.40 0.5725486
657.50 0.5723528
657.60 0.5721571
657.70 0.5719615
657.80 0.5715996
657.90 0.5713829
658.00 0.5711919
658.10 0.5710009
658.20 0.5708101
658.30 0.5706193
658.40 0.5704287
658.50 0.5702381
658.60 0.5700476
658.70 0.5698572
658.80 0.5696669
658.90 0.5694767
659.00 0.5692866
659.10 0.5690419
659.20 0.5687155
659.30 0.5685237
659.40 0.5683319
659.50 0.5681403
659.60 0.5679488
659.70 0.5677573
659.80 0.5675659
659.90 0.5673747
660.00 0.5671835
660.10 0.5669924
660.20 0.5668014
660.30 0.5666105
660.40 0.5663984
660.50 0.5661827
660.60 0.5659671
660.70 0.5657515
660.80 0.5655361
660.90 0.5653436
661.00 0.5651511
661.10 0.5649588
661.20 0.5647665
661.30 0.5645743
661.40 0.5643822
661.50 0.5641902
661.60 0.5639983
661.70 0.5638064
661.80 0.5636147
661.90 0.5634029
662.00 0.5631913
662.10 0.5629797
662.20 0.5627683
662.30 0.5625569
662.40 0.5623809
662.50 0.5621578
662.60 0.5619348
662.70 0.561712
662.80 0.5614893
662.90 0.5613199
663.00 0.5611506
663.10 0.5609813
663.20 0.5608122
663.30 0.5605367
663.40 0.5602614
663.50 0.5600926
663.60 0.5599238
663.70 0.5597551
663.80 0.5595864
663.90 0.5593203
664.00 0.5590371
664.10 0.5588688
664.20 0.5587005
664.30 0.5585323
664.40 0.5583642
664.50 0.5581962
664.60 0.5580282
664.70 0.5578083
664.80 0.5575886
664.90 0.5573689
665.00 0.5571494
665.10 0.5569299
665.20 0.5567106
665.30 0.5564914
665.40 0.5562723
665.50 0.5560973
665.60 0.5559302
665.70 0.5557497
665.80 0.5555551
665.90 0.5553607
666.00 0.5551663
666.10 0.554972
666.20 0.5547778
666.30 0.5545837
666.40 0.5543897
666.50 0.5541894
666.60 0.553988
666.70 0.5537868
666.80 0.5535856
666.90 0.5533845
667.00 0.5531835
667.10 0.5530125
667.20 0.5528467
667.30 0.5525833
667.40 0.55232
667.50 0.5521398
667.60 0.5519744
667.70 0.5518091
667.80 0.5516439
667.90 0.5514787
668.00 0.5511825
668.10 0.5509389
668.20 0.550774
668.30 0.5506092
668.40 0.5504445
668.50 0.5502798
668.60 0.5501152
668.70 0.5497414
668.80 0.5495771
668.90 0.5494127
669.00 0.5492485
669.10 0.5490843
669.20 0.5489203
669.30 0.5487207
669.40 0.548515
669.50 0.5483094
669.60 0.5481039
669.70 0.5478985
669.80 0.5476932
669.90 0.547488
670.00 0.5472829
670.10 0.5470779
670.20 0.546873
670.30 0.5466671
670.40 0.5464611
670.50 0.5462552
670.60 0.5460494
670.70 0.5458437
670.80 0.5456623
670.90 0.545481
671.00 0.5452998
671.10 0.5451186
671.20 0.5449376
671.30 0.5447566
671.40 0.5445757
671.50 0.5443949
671.60 0.5442142
671.70 0.5440336
671.80 0.543853
671.90 0.5436526
672.00 0.5434487
672.10 0.5432449
672.20 0.5430411
672.30 0.5428375
672.40 0.5426516
672.50 0.542467
672.60 0.5422826
672.70 0.5420982
672.80 0.5419139
672.90 0.5417297
673.00 0.5415456
673.10 0.5413616
673.20 0.5411776
673.30 0.5408374
673.40 0.5406236
673.50 0.5404321
673.60 0.5402407
673.70 0.5400494
673.80 0.5398582
673.90 0.5396671
674.00 0.5394761
674.10 0.5392851
674.20 0.5390943
674.30 0.5389035
674.40 0.5387129
674.50 0.5385223
674.60 0.5383318
674.70 0.5381414
674.80 0.5379511
674.90 0.5377609
675.00 0.5375707
675.10 0.5373807
675.20 0.5371908
675.30 0.5370009
675.40 0.5368094
675.50 0.5366176
675.60 0.536426
675.70 0.5362344
675.80 0.536043
675.90 0.5358516
676.00 0.5356603
676.10 0.5354691
676.20 0.535278
676.30 0.535087
676.40 0.534896
676.50 0.5347052
676.60 0.5345145
676.70 0.5343238
676.80 0.5341332
676.90 0.5339427
677.00 0.5337523
677.10 0.533562
677.20 0.5333718
677.30 0.5331817
677.40 0.5329917
677.50 0.5328017
677.60 0.5326119
677.70 0.5324221
677.80 0.5322324
677.90 0.532042
678.00 0.5318516
678.10 0.5316612
678.20 0.531471
678.30 0.5312808
678.40 0.5310907
678.50 0.5309007
678.60 0.5307108
678.70 0.530521
678.80 0.5303312
678.90 0.5301416
679.00 0.5299521
679.10 0.529763
679.20 0.5295741
679.30 0.5293854
679.40 0.5291967
679.50 0.5290081
679.60 0.5288196
679.70 0.5286312
679.80 0.5284429
679.90 0.5282547
680.00 0.5280665
680.10 0.5278785
680.20 0.5276905
680.30 0.5275026
680.40 0.5273148
680.50 0.5271271
680.60 0.5269395
680.70 0.526752
680.80 0.5265645
680.90 0.5263772
681.00 0.5261899
681.10 0.5260027
681.20 0.5258156
681.30 0.5256286
681.40 0.5254417
681.50 0.5252549
681.60 0.5250682
681.70 0.5248815
681.80 0.5246949
681.90 0.5245084
682.00 0.524322
682.10 0.5241357
682.20 0.5239495
682.30 0.5237634
682.40 0.5235773
682.50 0.5233914
682.60 0.5232055
682.70 0.5230197
682.80 0.522834
682.90 0.5226484
683.00 0.5224629
683.10 0.5222774
683.20 0.5220921
683.30 0.5219068
683.40 0.5217216
683.50 0.5215365
683.60 0.5213515
683.70 0.5211666
683.80 0.5209817
683.90 0.520797
684.00 0.5206123
684.10 0.5204277
684.20 0.5202432
684.30 0.5200588
684.40 0.5198745
684.50 0.5196902
684.60 0.5195061
684.70 0.519322
684.80 0.519138
684.90 0.5189541
685.00 0.5187703
685.10 0.5185866
685.20 0.5184029
685.30 0.5182193
685.40 0.5180359
685.50 0.5178525
685.60 0.5176692
685.70 0.517486
685.80 0.5173028
685.90 0.51712
686.00 0.5169374
686.10 0.5167548
686.20 0.5165724
686.30 0.51639
686.40 0.5162077
686.50 0.5160254
686.60 0.5158433
686.70 0.5156613
686.80 0.5154793
686.90 0.5152974
687.00 0.5151156
687.10 0.5149339
687.20 0.5147523
687.30 0.5145707
687.40 0.5143892
687.50 0.5142079
687.60 0.5140266
687.70 0.5138454
687.80 0.5136642
687.90 0.5134832
688.00 0.5133022
688.10 0.5131213
688.20 0.5129405
688.30 0.5127598
688.40 0.5125792
688.50 0.5123987
688.60 0.5122182
688.70 0.5120378
688.80 0.5118575
688.90 0.5116773
689.00 0.5114972
689.10 0.5113171
689.20 0.5111372
689.30 0.5109573
689.40 0.5107775
689.50 0.5105978
689.60 0.5104182
689.70 0.5102386
689.80 0.5100591
689.90 0.5098798
690.00 0.5097005
690.10 0.5095212
690.20 0.5093421
690.30 0.509163
690.40 0.5089841
690.50 0.5088052
690.60 0.5086264
690.70 0.5084477
690.80 0.508269
690.90 0.5080905
691.00 0.507912
691.10 0.5077336
691.20 0.5075553
691.30 0.507377
691.40 0.5071989
691.50 0.5070208
691.60 0.5068428
691.70 0.5066649
691.80 0.5064871
691.90 0.5063094
692.00 0.5061317
692.10 0.5059541
692.20 0.5057766
692.30 0.5055992
692.40 0.5054219
692.50 0.5052446
692.60 0.5050674
692.70 0.5048895
692.80 0.5047082
692.90 0.504527
693.00 0.5043459
693.10 0.5041648
693.20 0.5039839
693.30 0.503803
693.40 0.5036222
693.50 0.5034415
693.60 0.5032609
693.70 0.5030804
693.80 0.5028999
693.90 0.5027196
694.00 0.5025393
694.10 0.5023591
694.20 0.502179
694.30 0.5019989
694.40 0.501819
694.50 0.5016391
694.60 0.5014593
694.70 0.5012796
694.80 0.5011
694.90 0.5009205
695.00 0.500741
695.10 0.5005617
695.20 0.5003824
695.30 0.5002032
695.40 0.500024
695.50 0.499845
695.60 0.499666
695.70 0.4994872
695.80 0.4993084
695.90 0.4991296
696.00 0.498951
696.10 0.4987725
696.20 0.498594
696.30 0.4984156
696.40 0.4982373
696.50 0.4980591
696.60 0.4978844
696.70 0.4977107
696.80 0.497537
696.90 0.4973634
697.00 0.4971899
697.10 0.4970164
697.20 0.496843
697.30 0.4966698
697.40 0.4964966
697.50 0.4963234
697.60 0.4961504
697.70 0.4959774
697.80 0.4958045
697.90 0.4956317
698.00 0.495459
698.10 0.4952863
698.20 0.4951137
698.30 0.4949412
698.40 0.4947688
698.50 0.4945965
698.60 0.4944242
698.70 0.494252
698.80 0.4940799
698.90 0.4939079
699.00 0.4937359
699.10 0.4935624
699.20 0.4933886
699.30 0.4932148
699.40 0.4930411
699.50 0.4928675
699.60 0.492694
699.70 0.4925259
699.80 0.4923581
699.90 0.4921904
700.00 0.4920228
700.10 0.4918552
700.20 0.4916878
700.30 0.4915204
700.40 0.491353
700.50 0.4911858
700.60 0.4910186
700.70 0.4908515
700.80 0.4906845
700.90 0.4905175
701.00 0.4903507
701.10 0.4901748
701.20 0.489997
701.30 0.4898192
701.40 0.4896415
701.50 0.4894639
701.60 0.4892863
701.70 0.4891089
701.80 0.4889315
701.90 0.4887542
702.00 0.488577
702.10 0.4883999
702.20 0.4882228
702.30 0.4880459
702.40 0.487869
702.50 0.4876922
702.60 0.4875173
702.70 0.4873431
702.80 0.4871689
702.90 0.4869948
703.00 0.4868207
703.10 0.4866468
703.20 0.4864729
703.30 0.4862991
703.40 0.4861253
703.50 0.4859517
703.60 0.4857781
703.70 0.4856047
703.80 0.4854312
703.90 0.4852579
704.00 0.4850847
704.10 0.4849115
704.20 0.4847365
704.30 0.4845611
704.40 0.4843858
704.50 0.4842106
704.60 0.4840355
704.70 0.4838604
704.80 0.4836855
704.90 0.4835106
705.00 0.4833358
705.10 0.483161
705.20 0.4829915
705.30 0.4828232
705.40 0.4826549
705.50 0.4824868
705.60 0.4823187
705.70 0.4821507
705.80 0.4820082
705.90 0.4818716
706.00 0.4817351
706.10 0.4815987
706.20 0.4813863
706.30 0.4811562
706.40 0.4810022
706.50 0.480866
706.60 0.4807299
706.70 0.4805939
706.80 0.480382
706.90 0.4801525
707.00 0.479961
707.10 0.4797785
707.20 0.479596
707.30 0.4794136
707.40 0.479244
707.50 0.4790774
707.60 0.4789108
707.70 0.4787443
707.80 0.4785779
707.90 0.4784116
708.00 0.4782554
708.10 0.4781017
708.20 0.477948
708.30 0.4777944
708.40 0.4776409
708.50 0.4774875
708.60 0.4773341
708.70 0.4771807
708.80 0.4770275
708.90 0.4768743
709.00 0.476708
709.10 0.4765386
709.20 0.4763694
709.30 0.4762002
709.40 0.4760311
709.50 0.475862
709.60 0.4756931
709.70 0.4755242
709.80 0.4753554
709.90 0.4751867
710.00 0.475018
710.10 0.4748494
710.20 0.4746809
710.30 0.4745125
710.40 0.4743442
710.50 0.4741759
710.60 0.4740058
710.70 0.4738354
710.80 0.473665
710.90 0.4734947
711.00 0.4733245
711.10 0.4731544
711.20 0.4729844
711.30 0.4728144
711.40 0.4726445
711.50 0.4724747
711.60 0.4723049
711.70 0.4721353
711.80 0.4719657
711.90 0.4717962
712.00 0.4716267
712.10 0.4714601
712.20 0.4712941
712.30 0.4711282
712.40 0.4709624
712.50 0.4707966
712.60 0.470631
712.70 0.4704654
712.80 0.4702998
712.90 0.4701344
713.00 0.469969
713.10 0.4698037
713.20 0.4696385
713.30 0.4694734
713.40 0.4693083
713.50 0.4691433
713.60 0.4689783
713.70 0.4688073
713.80 0.4686238
713.90 0.4684403
714.00 0.468257
714.10 0.4680922
714.20 0.4679317
714.30 0.4677714
714.40 0.4676111
714.50 0.4674509
714.60 0.4672908
714.70 0.4671307
714.80 0.4669707
714.90 0.4668108
715.00 0.4666509
715.10 0.4664911
715.20 0.4663314
715.30 0.4661718
715.40 0.4660122
715.50 0.4658527
715.60 0.4656933
715.70 0.4655339
715.80 0.4653746
715.90 0.4652154
716.00 0.4650563
716.10 0.4648972
716.20 0.4647382
716.30 0.4645793
716.40 0.4644204
716.50 0.4642616
716.60 0.4640991
716.70 0.4639358
716.80 0.4637725
716.90 0.4636094
717.00 0.4634463
717.10 0.4632832
717.20 0.4631203
717.30 0.4629574
717.40 0.4627946
717.50 0.4626319
717.60 0.4624692
717.70 0.4623066
717.80 0.4621441
717.90 0.4619816
718.00 0.4618193
718.10 0.461657
718.20 0.461493
718.30 0.4613283
718.40 0.4611636
718.50 0.460999
718.60 0.4608344
718.70 0.46067
718.80 0.4605056
718.90 0.4603413
719.00 0.460177
719.10 0.4600129
719.20 0.4598488
719.30 0.4596847
719.40 0.4595208
719.50 0.4593569
719.60 0.4591931
719.70 0.4590294
719.80 0.4588657
719.90 0.4587021
720.00 0.4585386
720.10 0.4583752
720.20 0.4582118
720.30 0.4580485
720.40 0.4578853
720.50 0.4577222
720.60 0.4575591
720.70 0.4574195
720.80 0.4572926
720.90 0.4571374
721.00 0.4569811
721.10 0.4568249
721.20 0.4566688
721.30 0.4565127
721.40 0.4563567
721.50 0.4562007
721.60 0.4560449
721.70 0.455889
721.80 0.4557333
721.90 0.4555776
722.00 0.455422
722.10 0.4552665
722.20 0.455111
722.30 0.4549556
722.40 0.4548003
722.50 0.4546451
722.60 0.4544899
722.70 0.4543305
722.80 0.454169
722.90 0.4540075
723.00 0.4538462
723.10 0.4536849
723.20 0.4535236
723.30 0.4533624
723.40 0.4532013
723.50 0.4530403
723.60 0.4528794
723.70 0.4527185
723.80 0.4525577
723.90 0.4523969
724.00 0.4522363
724.10 0.4520757
724.20 0.4519166
724.30 0.4517584
724.40 0.4516002
724.50 0.4514421
724.60 0.4512841
724.70 0.4511262
724.80 0.4509683
724.90 0.4508105
725.00 0.4506528
725.10 0.4504951
725.20 0.4503375
725.30 0.45018
725.40 0.4500225
725.50 0.4498652
725.60 0.4497078
725.70 0.4495506
725.80 0.449392
725.90 0.4492327
726.00 0.4490734
726.10 0.4489142
726.20 0.4487551
726.30 0.4485961
726.40 0.4484371
726.50 0.4482782
726.60 0.4481194
726.70 0.4479606
726.80 0.4478058
726.90 0.447653
727.00 0.4475004
727.10 0.4473478
727.20 0.4471953
727.30 0.4470428
727.40 0.4468809
727.50 0.4467138
727.60 0.4465469
727.70 0.44638
727.80 0.4462418
727.90 0.4461192
728.00 0.4458774
728.10 0.4456977
728.20 0.4455753
728.30 0.4454529
728.40 0.4453306
728.50 0.4452084
728.60 0.4450575
728.70 0.4448913
728.80 0.4447252
728.90 0.4445591
729.00 0.4444027
729.10 0.4442515
729.20 0.4441003
729.30 0.4439492
729.40 0.4437982
729.50 0.4436472
729.60 0.4434925
729.70 0.4433358
729.80 0.4431792
729.90 0.4430226
730.00 0.4428661
730.10 0.4427097
730.20 0.4425534
730.30 0.4423971
730.40 0.4422409
730.50 0.4420847
730.60 0.4419301
730.70 0.4417763
730.80 0.4416225
730.90 0.4414688
731.00 0.4413152
731.10 0.4411617
731.20 0.4410082
731.30 0.4408548
731.40 0.4407015
731.50 0.4405482
731.60 0.440395
731.70 0.4402418
731.80 0.4400888
731.90 0.4399358
732.00 0.4397828
732.10 0.43963
732.20 0.4394757
732.30 0.4393208
732.40 0.439166
732.50 0.4390112
732.60 0.4388565
732.70 0.4387018
732.80 0.4385473
732.90 0.4383927
733.00 0.4382383
733.10 0.4380839
733.20 0.4379296
733.30 0.4377754
733.40 0.4376212
733.50 0.4374671
733.60 0.4373131
733.70 0.4371613
733.80 0.4370107
733.90 0.4368601
734.00 0.4367096
734.10 0.4365592
734.20 0.4364089
734.30 0.4362586
734.40 0.4361084
734.50 0.4359583
734.60 0.4358082
734.70 0.4356582
734.80 0.4355082
734.90 0.4353583
735.00 0.4352085
735.10 0.4350588
735.20 0.4349091
735.30 0.4347579
735.40 0.4345893
735.50 0.4344207
735.60 0.4342521
735.70 0.434094
735.80 0.4339414
735.90 0.4337889
736.00 0.4336365
736.10 0.4334842
736.20 0.4333319
736.30 0.4331797
736.40 0.4330275
736.50 0.4328754
736.60 0.4327234
736.70 0.4325715
736.80 0.4324196
736.90 0.4322678
737.00 0.432116
737.10 0.4319643
737.20 0.4318127
737.30 0.4316611
737.40 0.4315097
737.50 0.4313582
737.60 0.4312069
737.70 0.4310556
737.80 0.4309044
737.90 0.4307532
738.00 0.4306021
738.10 0.4304511
738.20 0.4303002
738.30 0.4301494
738.40 0.4299986
738.50 0.429848
738.60 0.4296973
738.70 0.4295468
738.80 0.4293963
738.90 0.4292459
739.00 0.4290955
739.10 0.4289452
739.20 0.428795
739.30 0.4286449
739.40 0.4284948
739.50 0.4283447
739.60 0.4281948
739.70 0.4280449
739.80 0.427895
739.90 0.4277453
740.00 0.4275956
740.10 0.4274459
740.20 0.4272964
740.30 0.4271469
740.40 0.4269974
740.50 0.4268481
740.60 0.4266988
740.70 0.4265495
740.80 0.4264003
740.90 0.4262512
741.00 0.4261022
741.10 0.4259532
741.20 0.4258043
741.30 0.4256554
741.40 0.4255066
741.50 0.4253579
741.60 0.4252092
741.70 0.4250606
741.80 0.4249121
741.90 0.4247636
742.00 0.4246152
742.10 0.4244669
742.20 0.4243186
742.30 0.4241704
742.40 0.4240223
742.50 0.4238742
742.60 0.4237262
742.70 0.4235788
742.80 0.423432
742.90 0.4232853
743.00 0.4231386
743.10 0.422992
743.20 0.4228454
743.30 0.4226989
743.40 0.4225525
743.50 0.4224061
743.60 0.4222598
743.70 0.4221137
743.80 0.4219685
743.90 0.4218233
744.00 0.4216782
744.10 0.4215331
744.20 0.4213881
744.30 0.4212432
744.40 0.4210983
744.50 0.4209535
744.60 0.4208088
744.70 0.4206641
744.80 0.4205195
744.90 0.4203749
745.00 0.4202304
745.10 0.420086
745.20 0.4199416
745.30 0.4197973
745.40 0.4196531
745.50 0.4195089
745.60 0.4193647
745.70 0.4192207
745.80 0.4190767
745.90 0.4189328
746.00 0.4187889
746.10 0.4186451
746.20 0.4185013
746.30 0.4183576
746.40 0.418214
746.50 0.4180704
746.60 0.4179269
746.70 0.4177835
746.80 0.4176401
746.90 0.4174968
747.00 0.4173536
747.10 0.4172104
747.20 0.4170672
747.30 0.4169242
747.40 0.4167812
747.50 0.4166382
747.60 0.4164953
747.70 0.4163525
747.80 0.4162097
747.90 0.416067
748.00 0.4159244
748.10 0.4157818
748.20 0.4156393
748.30 0.4154969
748.40 0.4153545
748.50 0.4152121
748.60 0.4150699
748.70 0.4149277
748.80 0.4147855
748.90 0.4146434
749.00 0.4145014
749.10 0.4143594
749.20 0.4142175
749.30 0.4140757
749.40 0.4139339
749.50 0.4137922
749.60 0.4136505
749.70 0.4135089
749.80 0.4133674
749.90 0.4132259
750.00 0.4130845
750.10 0.4129419
750.20 0.4127964
750.30 0.4126509
750.40 0.4125055
750.50 0.4123601
750.60 0.4122148
750.70 0.4120696
750.80 0.4119244
750.90 0.4117793
751.00 0.4116342
751.10 0.4114892
751.20 0.4113443
751.30 0.4111995
751.40 0.4110547
751.50 0.4109099
751.60 0.4107653
751.70 0.4106206
751.80 0.4104761
751.90 0.4103316
752.00 0.4101872
752.10 0.4100428
752.20 0.4098985
752.30 0.4097543
752.40 0.4096101
752.50 0.409466
752.60 0.4093219
752.70 0.409178
752.80 0.409034
752.90 0.4088902
753.00 0.4087464
753.10 0.4086026
753.20 0.4084589
753.30 0.4083153
753.40 0.4081718
753.50 0.4080283
753.60 0.4078848
753.70 0.4077415
753.80 0.4075982
753.90 0.4074583
754.00 0.4073195
754.10 0.4071808
754.20 0.4070421
754.30 0.4069035
754.40 0.406765
754.50 0.4066265
754.60 0.406488
754.70 0.4063496
754.80 0.4062113
754.90 0.406073
755.00 0.4059348
755.10 0.4057967
755.20 0.4056586
755.30 0.4055206
755.40 0.4053826
755.50 0.4052447
755.60 0.4051068
755.70 0.404969
755.80 0.4048313
755.90 0.4046936
756.00 0.404556
756.10 0.4044185
756.20 0.404281
756.30 0.4041435
756.40 0.4040061
756.50 0.4038688
756.60 0.4037316
756.70 0.4035943
756.80 0.4034572
756.90 0.4033201
757.00 0.4031831
757.10 0.4030461
757.20 0.4029092
757.30 0.4027723
757.40 0.4026355
757.50 0.4024988
757.60 0.402361
757.70 0.4022204
757.80 0.4020798
757.90 0.4019393
758.00 0.4017989
758.10 0.4016585
758.20 0.4015182
758.30 0.4013779
758.40 0.4012377
758.50 0.4010976
758.60 0.4009575
758.70 0.4008175
758.80 0.4006775
758.90 0.4005376
759.00 0.4003977
759.10 0.400258
759.20 0.4001182
759.30 0.3999786
759.40 0.399839
759.50 0.3996994
759.60 0.39956
759.70 0.3994205
759.80 0.3992812
759.90 0.3991419
760.00 0.3990026
760.10 0.3988634
760.20 0.3987243
760.30 0.3985852
760.40 0.3984462
760.50 0.3983073
760.60 0.3981684
760.70 0.3980296
760.80 0.3978908
760.90 0.3977521
761.00 0.3976134
761.10 0.3974748
761.20 0.3973363
761.30 0.3971978
761.40 0.3970611
761.50 0.396927
761.60 0.396793
761.70 0.396659
761.80 0.3965251
761.90 0.3963912
762.00 0.3962574
762.10 0.3961236
762.20 0.3959899
762.30 0.3958563
762.40 0.3957227
762.50 0.3955892
762.60 0.3954557
762.70 0.3953223
762.80 0.3951889
762.90 0.3950556
763.00 0.3949223
763.10 0.3947892
763.20 0.394656
763.30 0.3945229
763.40 0.3943899
763.50 0.3942569
763.60 0.394124
763.70 0.3939912
763.80 0.3938584
763.90 0.3937256
764.00 0.3935929
764.10 0.3934603
764.20 0.3933277
764.30 0.3931952
764.40 0.3930628
764.50 0.3929303
764.60 0.392798
764.70 0.3926657
764.80 0.3925335
764.90 0.3924013
765.00 0.3922691
765.10 0.3921371
765.20 0.392003
765.30 0.3918672
765.40 0.3917314
765.50 0.3915957
765.60 0.39146
765.70 0.3913244
765.80 0.3911888
765.90 0.3910533
766.00 0.3909179
766.10 0.3907825
766.20 0.3906472
766.30 0.3905119
766.40 0.3903767
766.50 0.3902415
766.60 0.3901064
766.70 0.3899714
766.80 0.3898364
766.90 0.3897015
767.00 0.3895666
767.10 0.3894318
767.20 0.389297
767.30 0.3891623
767.40 0.3890277
767.50 0.3888931
767.60 0.3887586
767.70 0.3886241
767.80 0.3884897
767.90 0.3883553
768.00 0.388221
768.10 0.3880868
768.20 0.3879526
768.30 0.3878185
768.40 0.3876844
768.50 0.3875504
768.60 0.3874164
768.70 0.3872825
768.80 0.3871487
768.90 0.3870149
769.00 0.3868812
769.10 0.3867475
769.20 0.3866139
769.30 0.3864803
769.40 0.3863468
769.50 0.3862133
769.60 0.3860799
769.70 0.3859466
769.80 0.3858133
769.90 0.3856801
770.00 0.3855469
770.10 0.3854138
770.20 0.3852807
770.30 0.3851477
770.40 0.3850148
770.50 0.3848819
770.60 0.3847491
770.70 0.3846163
770.80 0.3844836
770.90 0.3843509
771.00 0.3842183
771.10 0.3840857
771.20 0.3839532
771.30 0.3838208
771.40 0.3836884
771.50 0.3835561
771.60 0.3834238
771.70 0.3832916
771.80 0.3831594
771.90 0.3830273
772.00 0.3828952
772.10 0.3827632
772.20 0.3826313
772.30 0.3824994
772.40 0.3823676
772.50 0.3822358
772.60 0.3821041
772.70 0.3819724
772.80 0.3818408
772.90 0.3817096
773.00 0.3815784
773.10 0.3814473
773.20 0.3813162
773.30 0.3811852
773.40 0.3810542
773.50 0.3809233
773.60 0.3807925
773.70 0.3806617
773.80 0.380531
773.90 0.3804003
774.00 0.3802697
774.10 0.3801391
774.20 0.3800086
774.30 0.3798781
774.40 0.3797477
774.50 0.3796173
774.60 0.379487
774.70 0.3793568
774.80 0.3792266
774.90 0.3790965
775.00 0.3789664
775.10 0.3788364
775.20 0.3787064
775.30 0.3785765
775.40 0.3784466
775.50 0.3783168
775.60 0.378187
775.70 0.3780573
775.80 0.3779277
775.90 0.3777981
776.00 0.3776686
776.10 0.3775391
776.20 0.3774097
776.30 0.3772803
776.40 0.377151
776.50 0.3770217
776.60 0.3768925
776.70 0.3767633
776.80 0.3766342
776.90 0.3765052
777.00 0.3763762
777.10 0.3762472
777.20 0.3761183
777.30 0.3759895
777.40 0.3758607
777.50 0.375732
777.60 0.3756033
777.70 0.3754747
777.80 0.3753461
777.90 0.3752176
778.00 0.3750892
778.10 0.3749608
778.20 0.3748324
778.30 0.3747041
778.40 0.3745759
778.50 0.3744477
778.60 0.3743195
778.70 0.3741915
778.80 0.3740634
778.90 0.3739355
779.00 0.3738075
779.10 0.3736797
779.20 0.3735518
779.30 0.3734241
779.40 0.3732964
779.50 0.3731687
779.60 0.3730411
779.70 0.3729136
779.80 0.3727861
779.90 0.3726586
780.00 0.3725312
780.10 0.3724039
780.20 0.3722766
780.30 0.3721494
780.40 0.3720222
780.50 0.3718951
780.60 0.371769
780.70 0.3716434
780.80 0.3715178
780.90 0.3713923
781.00 0.3712668
781.10 0.3711414
781.20 0.3710161
781.30 0.3708908
781.40 0.3707655
781.50 0.3706403
781.60 0.3705151
781.70 0.37039
781.80 0.370265
781.90 0.37014
782.00 0.370015
782.10 0.3698902
782.20 0.3697653
782.30 0.3696405
782.40 0.3695158
782.50 0.3693911
782.60 0.3692665
782.70 0.3691419
782.80 0.3690174
782.90 0.3688929
783.00 0.3687684
783.10 0.3686441
783.20 0.3685197
783.30 0.3683955
783.40 0.3682712
783.50 0.3681471
783.60 0.368023
783.70 0.3678989
783.80 0.3677749
783.90 0.3676509
784.00 0.367527
784.10 0.3674031
784.20 0.3672793
784.30 0.3671556
784.40 0.3670318
784.50 0.3669082
784.60 0.3667839
784.70 0.3666581
784.80 0.3665324
784.90 0.3664067
785.00 0.3662811
785.10 0.3661555
785.20 0.36603
785.30 0.3659045
785.40 0.3657791
785.50 0.3656537
785.60 0.3655284
785.70 0.3654031
785.80 0.3652779
785.90 0.3651528
786.00 0.3650277
786.10 0.3649026
786.20 0.3647776
786.30 0.3646526
786.40 0.3645277
786.50 0.3644029
786.60 0.3642781
786.70 0.3641533
786.80 0.3640286
786.90 0.363904
787.00 0.3637794
787.10 0.3636549
787.20 0.3635304
787.30 0.3634059
787.40 0.3632815
787.50 0.3631572
787.60 0.3630329
787.70 0.3629087
787.80 0.3627845
787.90 0.3626604
788.00 0.3625363
788.10 0.3624123
788.20 0.3622883
788.30 0.3621644
788.40 0.3620415
788.50 0.3619191
788.60 0.3617968
788.70 0.3616745
788.80 0.3615523
788.90 0.3614301
789.00 0.361308
789.10 0.361186
789.20 0.3610639
789.30 0.360942
789.40 0.3608201
789.50 0.3606982
789.60 0.3605764
789.70 0.3604546
789.80 0.3603329
789.90 0.3602112
790.00 0.3600896
790.10 0.3599681
790.20 0.3598465
790.30 0.3597251
790.40 0.3596037
790.50 0.3594823
790.60 0.359361
790.70 0.3592397
790.80 0.3591185
790.90 0.3589973
791.00 0.3588762
791.10 0.3587551
791.20 0.3586341
791.30 0.3585132
791.40 0.3583922
791.50 0.3582714
791.60 0.3581506
791.70 0.3580298
791.80 0.3579091
791.90 0.3577884
792.00 0.3576678
792.10 0.3575472
792.20 0.3574267
792.30 0.3573062
792.40 0.3571858
792.50 0.3570654
792.60 0.3569451
792.70 0.3568248
792.80 0.3567046
792.90 0.3565844
793.00 0.3564642
793.10 0.3563442
793.20 0.3562241
793.30 0.3561041
793.40 0.3559842
793.50 0.3558643
793.60 0.3557445
793.70 0.3556247
793.80 0.3555049
793.90 0.3553853
794.00 0.3552656
794.10 0.355146
794.20 0.3550265
794.30 0.354907
794.40 0.3547875
794.50 0.3546681
794.60 0.3545488
794.70 0.3544295
794.80 0.3543102
794.90 0.354191
795.00 0.3540719
795.10 0.3539528
795.20 0.3538337
795.30 0.3537147
795.40 0.3535958
795.50 0.3534768
795.60 0.353358
795.70 0.3532392
795.80 0.3531204
795.90 0.3530017
796.00 0.352883
796.10 0.3527644
796.20 0.3526458
796.30 0.352526
796.40 0.352406
796.50 0.352286
796.60 0.3521661
796.70 0.3520462
796.80 0.3519264
796.90 0.3518066
797.00 0.3516869
797.10 0.3515672
797.20 0.3514475
797.30 0.351328
797.40 0.3512084
797.50 0.3510889
797.60 0.3509695
797.70 0.3508501
797.80 0.3507308
797.90 0.3506115
798.00 0.3504922
798.10 0.350373
798.20 0.3502539
798.30 0.3501348
798.40 0.3500158
798.50 0.3498968
798.60 0.3497778
798.70 0.3496589
798.80 0.3495401
798.90 0.3494213
799.00 0.3493025
799.10 0.3491838
799.20 0.3490651
799.30 0.3489465
799.40 0.348828
799.50 0.3487094
799.60 0.348591
799.70 0.3484726
799.80 0.3483542
799.90 0.3482359
800.00 0.3481176
800.10 0.3479994
800.20 0.3478812
800.30 0.3477631
800.40 0.347645
800.50 0.347527
800.60 0.347409
800.70 0.3472911
800.80 0.3471732
800.90 0.3470553
801.00 0.3469375
801.10 0.3468198
801.20 0.3467021
801.30 0.3465845
801.40 0.3464669
801.50 0.3463493
801.60 0.3462318
801.70 0.3461143
801.80 0.3459969
801.90 0.3458796
802.00 0.3457623
802.10 0.345645
802.20 0.3455278
802.30 0.3454106
802.40 0.3452935
802.50 0.3451764
802.60 0.3450594
802.70 0.3449424
802.80 0.3448255
802.90 0.3447086
803.00 0.3445918
803.10 0.344475
803.20 0.3443582
803.30 0.3442416
803.40 0.3441249
803.50 0.3440083
803.60 0.3438918
803.70 0.3437753
803.80 0.3436588
803.90 0.3435424
804.00 0.343426
804.10 0.3433097
804.20 0.3431939
804.30 0.3430798
804.40 0.3429657
804.50 0.3428517
804.60 0.3427377
804.70 0.3426238
804.80 0.3425099
804.90 0.3423961
805.00 0.3422823
805.10 0.3421685
805.20 0.3420548
805.30 0.3419412
805.40 0.3418276
805.50 0.341714
805.60 0.3416005
805.70 0.341487
805.80 0.3413736
805.90 0.3412602
806.00 0.3411469
806.10 0.3410336
806.20 0.3409204
806.30 0.3408072
806.40 0.340694
806.50 0.3405809
806.60 0.3404679
806.70 0.3403549
806.80 0.3402419
806.90 0.340129
807.00 0.3400161
807.10 0.3399033
807.20 0.3397905
807.30 0.3396777
807.40 0.339565
807.50 0.3394524
807.60 0.3393398
807.70 0.3392272
807.80 0.3391147
807.90 0.3390022
808.00 0.3388898
808.10 0.3387774
808.20 0.3386651
808.30 0.3385492
808.40 0.3384334
808.50 0.3383177
808.60 0.338202
808.70 0.3380863
808.80 0.3379707
808.90 0.3378551
809.00 0.3377396
809.10 0.3376241
809.20 0.3375087
809.30 0.3373933
809.40 0.337278
809.50 0.3371627
809.60 0.3370475
809.70 0.3369323
809.80 0.3368171
809.90 0.336702
810.00 0.336587
810.10 0.336472
810.20 0.336357
810.30 0.3362421
810.40 0.3361272
810.50 0.3360124
810.60 0.3358976
810.70 0.3357829
810.80 0.3356682
810.90 0.3355536
811.00 0.335439
811.10 0.3353244
811.20 0.3352099
811.30 0.3350955
811.40 0.3349811
811.50 0.3348667
811.60 0.3347524
811.70 0.3346381
811.80 0.3345239
811.90 0.3344098
812.00 0.3342956
812.10 0.3341815
812.20 0.3340675
812.30 0.3339547
812.40 0.3338422
812.50 0.3337297
812.60 0.3336173
812.70 0.3335049
812.80 0.3333926
812.90 0.3332803
813.00 0.3331681
813.10 0.3330559
813.20 0.3329438
813.30 0.3328317
813.40 0.3327196
813.50 0.3326076
813.60 0.3324956
813.70 0.3323837
813.80 0.3322718
813.90 0.33216
814.00 0.3320482
814.10 0.3319365
814.20 0.3318248
814.30 0.3317132
814.40 0.3316016
814.50 0.33149
814.60 0.3313785
814.70 0.331267
814.80 0.3311556
814.90 0.3310442
815.00 0.3309329
815.10 0.3308216
815.20 0.3307103
815.30 0.3305991
815.40 0.330488
815.50 0.3303769
815.60 0.3302658
815.70 0.3301548
815.80 0.3300438
815.90 0.3299329
816.00 0.329822
816.10 0.3297111
816.20 0.3296003
816.30 0.3294896
816.40 0.3293789
816.50 0.3292682
816.60 0.3291576
816.70 0.329047
816.80 0.3289365
816.90 0.328826
817.00 0.3287155
817.10 0.3286051
817.20 0.3284948
817.30 0.3283844
817.40 0.3282742
817.50 0.3281639
817.60 0.3280538
817.70 0.3279436
817.80 0.3278335
817.90 0.3277235
818.00 0.3276135
818.10 0.3275035
818.20 0.3273936
818.30 0.3272837
818.40 0.3271739
818.50 0.3270641
818.60 0.3269544
818.70 0.3268447
818.80 0.326735
818.90 0.3266254
819.00 0.3265158
819.10 0.3264063
819.20 0.3262968
819.30 0.3261955
819.40 0.3260995
819.50 0.3260035
819.60 0.3259076
819.70 0.3258117
819.80 0.3257159
819.90 0.3256201
820.00 0.3255243
820.10 0.32543
820.20 0.3252971
820.30 0.3251576
820.40 0.3250366
820.50 0.3249291
820.60 0.3248217
820.70 0.3247143
820.80 0.3246069
820.90 0.3244996
821.00 0.3243923
821.10 0.324285
821.20 0.3241778
821.30 0.3240706
821.40 0.3239635
821.50 0.3238564
821.60 0.3237494
821.70 0.3236424
821.80 0.3235355
821.90 0.3234286
822.00 0.3233217
822.10 0.3232149
822.20 0.3231081
822.30 0.3230014
822.40 0.3228947
822.50 0.322788
822.60 0.3226814
822.70 0.3225748
822.80 0.3224683
822.90 0.3223618
823.00 0.3222554
823.10 0.322149
823.20 0.3220426
823.30 0.3219363
823.40 0.32183
823.50 0.3217238
823.60 0.3216176
823.70 0.3215115
823.80 0.3214054
823.90 0.3212993
824.00 0.3211933
824.10 0.3210873
824.20 0.3209814
824.30 0.3208755
824.40 0.3207696
824.50 0.3206638
824.60 0.320558
824.70 0.3204523
824.80 0.3203466
824.90 0.320241
825.00 0.3201354
825.10 0.3200298
825.20 0.3199243
825.30 0.3198188
825.40 0.3197134
825.50 0.319608
825.60 0.3195026
825.70 0.3193973
825.80 0.3192921
825.90 0.3191868
826.00 0.3190816
826.10 0.3189765
826.20 0.3188714
826.30 0.3187652
826.40 0.3186584
826.50 0.3185516
826.60 0.3184448
826.70 0.3183381
826.80 0.3182314
826.90 0.3181248
827.00 0.3180182
827.10 0.3179116
827.20 0.3178051
827.30 0.3176986
827.40 0.3175922
827.50 0.3174858
827.60 0.3173795
827.70 0.3172732
827.80 0.3171669
827.90 0.3170607
828.00 0.3169545
828.10 0.3168484
828.20 0.3167423
828.30 0.3166363
828.40 0.3165303
828.50 0.3164243
828.60 0.3163183
828.70 0.3162124
828.80 0.3161065
828.90 0.3160006
829.00 0.3158948
829.10 0.3157891
829.20 0.3156833
829.30 0.3155776
829.40 0.315472
829.50 0.3153664
829.60 0.3152608
829.70 0.3151553
829.80 0.3150498
829.90 0.3149444
830.00 0.314839
830.10 0.3147336
830.20 0.3146283
830.30 0.314523
830.40 0.3144178
830.50 0.3143126
830.60 0.3142075
830.70 0.3141024
830.80 0.3139973
830.90 0.3138923
831.00 0.3137873
831.10 0.3136824
831.20 0.3135775
831.30 0.3134726
831.40 0.3133678
831.50 0.313263
831.60 0.3131583
831.70 0.3130536
831.80 0.3129489
831.90 0.3128443
832.00 0.3127398
832.10 0.3126352
832.20 0.3125308
832.30 0.3124263
832.40 0.3123219
832.50 0.3122176
832.60 0.3121132
832.70 0.312009
832.80 0.3119047
832.90 0.3118005
833.00 0.3116964
833.10 0.3115922
833.20 0.3114882
833.30 0.3113841
833.40 0.3112801
833.50 0.3111762
833.60 0.3110723
833.70 0.3109684
833.80 0.3108646
833.90 0.3107608
834.00 0.310657
834.10 0.3105533
834.20 0.3104497
834.30 0.310346
834.40 0.3102425
834.50 0.3101389
834.60 0.3100354
834.70 0.309932
834.80 0.3098285
834.90 0.3097252
835.00 0.3096218
835.10 0.3095185
835.20 0.3094153
835.30 0.309312
835.40 0.3092089
835.50 0.3091057
835.60 0.3090026
835.70 0.3088996
835.80 0.3087966
835.90 0.3086936
836.00 0.3085906
836.10 0.3084878
836.20 0.3083849
836.30 0.3082821
836.40 0.3081793
836.50 0.3080766
836.60 0.3079739
836.70 0.3078712
836.80 0.3077686
836.90 0.3076662
837.00 0.307564
837.10 0.3074618
837.20 0.3073596
837.30 0.3072575
837.40 0.3071554
837.50 0.3070534
837.60 0.3069514
837.70 0.3068494
837.80 0.3067475
837.90 0.3066456
838.00 0.3065438
838.10 0.306442
838.20 0.3063402
838.30 0.3062385
838.40 0.3061368
838.50 0.3060351
838.60 0.3059335
838.70 0.305832
838.80 0.3057305
838.90 0.305629
839.00 0.3055275
839.10 0.3054261
839.20 0.3053247
839.30 0.3052234
839.40 0.3051221
839.50 0.3050209
839.60 0.3049197
839.70 0.3048185
839.80 0.3047174
839.90 0.3046163
840.00 0.3045152
840.10 0.3044142
840.20 0.3043133
840.30 0.3042123
840.40 0.3041114
840.50 0.3040106
840.60 0.3039098
840.70 0.303809
840.80 0.3037083
840.90 0.3036076
841.00 0.3035069
841.10 0.3034063
841.20 0.3033057
841.30 0.3032052
841.40 0.3031047
841.50 0.3030042
841.60 0.3029038
841.70 0.3028035
841.80 0.3027031
841.90 0.3026028
842.00 0.3025026
842.10 0.3024023
842.20 0.3023022
842.30 0.302202
842.40 0.3021019
842.50 0.3020019
842.60 0.3019018
842.70 0.3018019
842.80 0.3017019
842.90 0.301602
843.00 0.3015021
843.10 0.3014023
843.20 0.3013025
843.30 0.3012028
843.40 0.3011031
843.50 0.3010034
843.60 0.3009037
843.70 0.3008042
843.80 0.3007046
843.90 0.3006051
844.00 0.3005056
844.10 0.3004062
844.20 0.3003068
844.30 0.3002074
844.40 0.3001081
844.50 0.3000088
844.60 0.2999095
844.70 0.2998103
844.80 0.2997112
844.90 0.299612
845.00 0.2995129
845.10 0.2994139
845.20 0.2993149
845.30 0.2992162
845.40 0.2991175
845.50 0.2990189
845.60 0.2989203
845.70 0.2988217
845.80 0.2987232
845.90 0.2986247
846.00 0.2985263
846.10 0.2984279
846.20 0.2983295
846.30 0.2982312
846.40 0.2981329
846.50 0.2980347
846.60 0.2979365
846.70 0.2978383
846.80 0.2977402
846.90 0.2976421
847.00 0.297544
847.10 0.297446
847.20 0.297348
847.30 0.2972501
847.40 0.2971522
847.50 0.2970543
847.60 0.2969565
847.70 0.2968587
847.80 0.2967609
847.90 0.2966632
848.00 0.2965655
848.10 0.2964679
848.20 0.2963703
848.30 0.2962727
848.40 0.2961752
848.50 0.2960777
848.60 0.2959803
848.70 0.2958829
848.80 0.2957855
848.90 0.2956882
849.00 0.2955909
849.10 0.2954936
849.20 0.2953964
849.30 0.2952992
849.40 0.295202
849.50 0.2951049
849.60 0.2950079
849.70 0.2949108
849.80 0.2948138
849.90 0.2947169
850.00 0.2946199
850.10 0.294523
850.20 0.2944262
850.30 0.2943294
850.40 0.2942326
850.50 0.2941359
850.60 0.2940392
850.70 0.2939425
850.80 0.2938459
850.90 0.2937493
851.00 0.2936528
851.10 0.2935562
851.20 0.2934598
851.30 0.2933633
851.40 0.2932669
851.50 0.2931706
851.60 0.2930742
851.70 0.2929779
851.80 0.2928817
851.90 0.2927855
852.00 0.2926893
852.10 0.2925932
852.20 0.2924971
852.30 0.292401
852.40 0.292305
852.50 0.292209
852.60 0.292113
852.70 0.2920171
852.80 0.2919212
852.90 0.2918254
853.00 0.2917296
853.10 0.2916338
853.20 0.291538
853.30 0.2914424
853.40 0.2913467
853.50 0.2912511
853.60 0.2911555
853.70 0.2910601
853.80 0.2909648
853.90 0.2908696
854.00 0.2907744
854.10 0.2906793
854.20 0.2905842
854.30 0.2904891
854.40 0.2903941
854.50 0.2902991
854.60 0.2902042
854.70 0.2901093
854.80 0.2900144
854.90 0.2899195
855.00 0.2898247
855.10 0.28973
855.20 0.2896352
855.30 0.2895405
855.40 0.2894459
855.50 0.2893512
855.60 0.2892567
855.70 0.2891621
855.80 0.2890676
855.90 0.2889731
856.00 0.2888787
856.10 0.2887843
856.20 0.2886899
856.30 0.2885956
856.40 0.2885013
856.50 0.288407
856.60 0.2883128
856.70 0.2882186
856.80 0.2881244
856.90 0.2880303
857.00 0.2879362
857.10 0.2878422
857.20 0.2877482
857.30 0.2876542
857.40 0.2875603
857.50 0.2874664
857.60 0.2873725
857.70 0.2872787
857.80 0.2871849
857.90 0.2870911
858.00 0.2869974
858.10 0.2869037
858.20 0.2868101
858.30 0.2867164
858.40 0.2866229
858.50 0.2865293
858.60 0.2864358
858.70 0.2863424
858.80 0.2862489
858.90 0.2861555
859.00 0.2860622
859.10 0.2859688
859.20 0.2858755
859.30 0.2857823
859.40 0.2856891
859.50 0.2855959
859.60 0.2855027
859.70 0.2854096
859.80 0.2853165
859.90 0.2852235
860.00 0.2851305
860.10 0.2850375
860.20 0.2849446
860.30 0.2848517
860.40 0.2847588
860.50 0.284666
860.60 0.2845732
860.70 0.2844804
860.80 0.2843877
860.90 0.284295
861.00 0.2842024
861.10 0.2841097
861.20 0.2840172
861.30 0.2839246
861.40 0.2838321
861.50 0.2837396
861.60 0.2836472
861.70 0.2835548
861.80 0.2834624
861.90 0.2833701
862.00 0.2832778
862.10 0.2831855
862.20 0.2830933
862.30 0.2830014
862.40 0.2829095
862.50 0.2828176
862.60 0.2827258
862.70 0.282634
862.80 0.2825423
862.90 0.2824506
863.00 0.2823589
863.10 0.2822672
863.20 0.2821756
863.30 0.282084
863.40 0.2819925
863.50 0.281901
863.60 0.2818095
863.70 0.2817181
863.80 0.2816266
863.90 0.2815353
864.00 0.2814439
864.10 0.2813526
864.20 0.2812614
864.30 0.2811701
864.40 0.2810789
864.50 0.2809878
864.60 0.2808967
864.70 0.2808056
864.80 0.2807145
864.90 0.2806235
865.00 0.2805325
865.10 0.2804415
865.20 0.2803506
865.30 0.2802597
865.40 0.2801689
865.50 0.2800781
865.60 0.2799873
865.70 0.2798965
865.80 0.2798058
865.90 0.2797151
866.00 0.2796245
866.10 0.2795339
866.20 0.2794433
866.30 0.2793528
866.40 0.2792623
866.50 0.2791718
866.60 0.2790813
866.70 0.2789909
866.80 0.2789006
866.90 0.2788102
867.00 0.2787199
867.10 0.2786297
867.20 0.2785394
867.30 0.2784492
867.40 0.2783591
867.50 0.2782689
867.60 0.2781788
867.70 0.2780888
867.80 0.2779988
867.90 0.2779088
868.00 0.2778188
868.10 0.2777289
868.20 0.277639
868.30 0.2775491
868.40 0.2774593
868.50 0.2773695
868.60 0.2772798
868.70 0.27719
868.80 0.2771004
868.90 0.2770107
869.00 0.2769211
869.10 0.2768315
869.20 0.2767419
869.30 0.2766524
869.40 0.2765629
869.50 0.2764735
869.60 0.2763841
869.70 0.2762947
869.80 0.2762053
869.90 0.276116
870.00 0.2760267
870.10 0.2759375
870.20 0.2758483
870.30 0.2757591
870.40 0.27567
870.50 0.2755808
870.60 0.2754918
870.70 0.2754027
870.80 0.2753137
870.90 0.275225
871.00 0.2751363
871.10 0.2750476
871.20 0.274959
871.30 0.2748704
871.40 0.2747818
871.50 0.2746933
871.60 0.2746048
871.70 0.2745164
871.80 0.274428
871.90 0.2743396
872.00 0.2742512
872.10 0.2741629
872.20 0.2740746
872.30 0.2739863
872.40 0.2738981
872.50 0.2738099
872.60 0.2737218
872.70 0.2736336
872.80 0.2735456
872.90 0.2734575
873.00 0.2733695
873.10 0.2732815
873.20 0.2731935
873.30 0.2731056
873.40 0.2730177
873.50 0.2729299
873.60 0.272842
873.70 0.2727542
873.80 0.2726665
873.90 0.2725787
874.00 0.2724911
874.10 0.2724034
874.20 0.2723158
874.30 0.2722282
874.40 0.2721406
874.50 0.2720531
874.60 0.2719656
874.70 0.2718781
874.80 0.2717907
874.90 0.2717033
875.00 0.2716159
875.10 0.2715286
875.20 0.2714403
875.30 0.2713502
875.40 0.2712602
875.50 0.2711702
875.60 0.2710802
875.70 0.2709903
875.80 0.2709004
875.90 0.2708105
876.00 0.2707207
876.10 0.2706309
876.20 0.2705411
876.30 0.2704514
876.40 0.2703617
876.50 0.270272
876.60 0.2701824
876.70 0.2700928
876.80 0.2700032
876.90 0.2699137
877.00 0.2698242
877.10 0.2697348
877.20 0.2696453
877.30 0.269556
877.40 0.2694666
877.50 0.2693773
877.60 0.269288
877.70 0.2691987
877.80 0.2691095
877.90 0.2690203
878.00 0.2689312
878.10 0.268842
878.20 0.2687529
878.30 0.2686639
878.40 0.2685749
878.50 0.2684859
878.60 0.2683969
878.70 0.268308
878.80 0.2682191
878.90 0.2681303
879.00 0.2680414
879.10 0.2679526
879.20 0.2678639
879.30 0.2677752
879.40 0.2676865
879.50 0.2675978
879.60 0.2675117
879.70 0.2674261
879.80 0.2673406
879.90 0.2672551
880.00 0.2671697
880.10 0.2670842
880.20 0.2669988
880.30 0.2669135
880.40 0.2668281
880.50 0.2667428
880.60 0.2666575
880.70 0.2665723
880.80 0.2664871
880.90 0.2664019
881.00 0.2663168
881.10 0.2662317
881.20 0.2661466
881.30 0.2660615
881.40 0.2659765
881.50 0.2658915
881.60 0.2658066
881.70 0.2657216
881.80 0.2656367
881.90 0.2655519
882.00 0.2654671
882.10 0.2653823
882.20 0.2652975
882.30 0.2652128
882.40 0.2651281
882.50 0.2650434
882.60 0.2649588
882.70 0.2648741
882.80 0.2647896
882.90 0.264705
883.00 0.2646205
883.10 0.264536
883.20 0.2644516
883.30 0.2643672
883.40 0.2642828
883.50 0.2641984
883.60 0.2641141
883.70 0.2640298
883.80 0.2639455
883.90 0.2638613
884.00 0.2637771
884.10 0.2636929
884.20 0.2636088
884.30 0.2635247
884.40 0.2634406
884.50 0.2633566
884.60 0.2632726
884.70 0.2631886
884.80 0.2631046
884.90 0.2630207
885.00 0.2629368
885.10 0.2628529
885.20 0.2627691
885.30 0.2626853
885.40 0.2626015
885.50 0.2625178
885.60 0.2624341
885.70 0.2623504
885.80 0.2622668
885.90 0.2621832
886.00 0.2620996
886.10 0.2620161
886.20 0.2619325
886.30 0.2618491
886.40 0.2617656
886.50 0.2616822
886.60 0.2615988
886.70 0.2615154
886.80 0.2614321
886.90 0.2613488
887.00 0.2612655
887.10 0.2611823
887.20 0.2610991
887.30 0.2610159
887.40 0.2609327
887.50 0.2608496
887.60 0.2607665
887.70 0.2606835
887.80 0.2606005
887.90 0.2605175
888.00 0.2604345
888.10 0.2603516
888.20 0.2602687
888.30 0.2601858
888.40 0.260102
888.50 0.2600181
888.60 0.2599343
888.70 0.2598504
888.80 0.2597666
888.90 0.2596828
889.00 0.2595991
889.10 0.2595154
889.20 0.2594317
889.30 0.2593481
889.40 0.2592644
889.50 0.2591808
889.60 0.2590973
889.70 0.2590138
889.80 0.2589303
889.90 0.2588468
890.00 0.2587634
890.10 0.25868
890.20 0.2585966
890.30 0.2585133
890.40 0.25843
890.50 0.2583467
890.60 0.2582634
890.70 0.2581802
890.80 0.258097
890.90 0.2580139
891.00 0.2579307
891.10 0.2578477
891.20 0.2577646
891.30 0.2576816
891.40 0.2575986
891.50 0.2575156
891.60 0.2574327
891.70 0.2573497
891.80 0.2572669
891.90 0.257184
892.00 0.2571012
892.10 0.2570184
892.20 0.2569357
892.30 0.2568529
892.40 0.2567702
892.50 0.2566876
892.60 0.2566049
892.70 0.2565223
892.80 0.2564398
892.90 0.2563572
893.00 0.2562747
893.10 0.2561922
893.20 0.2561098
893.30 0.2560274
893.40 0.255945
893.50 0.2558626
893.60 0.2557803
893.70 0.255698
893.80 0.2556157
893.90 0.2555335
894.00 0.2554513
894.10 0.2553691
894.20 0.255287
894.30 0.2552049
894.40 0.2551228
894.50 0.2550407
894.60 0.2549587
894.70 0.2548767
894.80 0.2547947
894.90 0.2547128
895.00 0.2546309
895.10 0.254549
895.20 0.2544672
895.30 0.2543854
895.40 0.2543036
895.50 0.2542218
895.60 0.2541401
895.70 0.2540584
895.80 0.2539768
895.90 0.2538951
896.00 0.2538135
896.10 0.253732
896.20 0.2536504
896.30 0.2535689
896.40 0.2534874
896.50 0.253406
896.60 0.2533246
896.70 0.2532432
896.80 0.2531618
896.90 0.2530805
897.00 0.2529992
897.10 0.2529179
897.20 0.2528366
897.30 0.2527544
897.40 0.2526721
897.50 0.2525899
897.60 0.2525078
897.70 0.2524256
897.80 0.2523435
897.90 0.2522615
898.00 0.2521794
898.10 0.2520974
898.20 0.2520154
898.30 0.2519334
898.40 0.2518515
898.50 0.2517696
898.60 0.2516878
898.70 0.2516059
898.80 0.2515241
898.90 0.2514423
899.00 0.2513606
899.10 0.2512789
899.20 0.2511972
899.30 0.2511155
899.40 0.2510339
899.50 0.2509523
899.60 0.2508708
899.70 0.2507892
899.80 0.2507077
899.90 0.2506263
900.00 0.2505448
900.10 0.2504634
900.20 0.250382
900.30 0.2503007
900.40 0.2502193
900.50 0.250138
900.60 0.2500568
900.70 0.2499755
900.80 0.2498943
900.90 0.2498132
901.00 0.249732
901.10 0.2496509
901.20 0.2495698
901.30 0.2494888
901.40 0.2494077
901.50 0.2493267
901.60 0.2492458
901.70 0.2491653
901.80 0.249087
901.90 0.2490086
902.00 0.2489304
902.10 0.2488521
902.20 0.2487739
902.30 0.2486957
902.40 0.2486175
902.50 0.2485394
902.60 0.2484613
902.70 0.2483832
902.80 0.2483051
902.90 0.2482271
903.00 0.2481491
903.10 0.2480711
903.20 0.2479932
903.30 0.2479153
903.40 0.2478374
903.50 0.2477595
903.60 0.2476817
903.70 0.2476039
903.80 0.2475261
903.90 0.2474484
904.00 0.2473707
904.10 0.247293
904.20 0.2472153
904.30 0.2471377
904.40 0.2470601
904.50 0.2469825
904.60 0.246905
904.70 0.2468275
904.80 0.24675
904.90 0.2466725
905.00 0.2465951
905.10 0.2465177
905.20 0.2464403
905.30 0.246363
905.40 0.2462856
905.50 0.2462083
905.60 0.2461311
905.70 0.2460538
905.80 0.2459766
905.90 0.2458995
906.00 0.2458223
906.10 0.2457452
906.20 0.2456674
906.30 0.245588
906.40 0.2455087
906.50 0.2454294
906.60 0.2453501
906.70 0.2452709
906.80 0.2451917
906.90 0.2451125
907.00 0.2450333
907.10 0.2449542
907.20 0.2448751
907.30 0.2447961
907.40 0.244717
907.50 0.244638
907.60 0.244559
907.70 0.2444801
907.80 0.2444012
907.90 0.2443223
908.00 0.2442434
908.10 0.2441646
908.20 0.2440858
908.30 0.244007
908.40 0.2439283
908.50 0.2438495
908.60 0.2437709
908.70 0.2436922
908.80 0.2436136
908.90 0.243535
909.00 0.2434564
909.10 0.2433778
909.20 0.2432993
909.30 0.2432208
909.40 0.2431424
909.50 0.2430639
909.60 0.2429855
909.70 0.2429072
909.80 0.2428288
909.90 0.2427505
910.00 0.2426722
910.10 0.242594
910.20 0.2425157
910.30 0.2424375
910.40 0.2423594
910.50 0.2422812
910.60 0.2422031
910.70 0.242125
910.80 0.2420495
910.90 0.2419739
911.00 0.2418984
911.10 0.2418229
911.20 0.2417475
911.30 0.241672
911.40 0.2415966
911.50 0.2415212
911.60 0.2414459
911.70 0.2413706
911.80 0.2412953
911.90 0.24122
912.00 0.2411447
912.10 0.2410695
912.20 0.2409943
912.30 0.2409192
912.40 0.240844
912.50 0.2407689
912.60 0.2406939
912.70 0.2406188
912.80 0.2405438
912.90 0.2404688
913.00 0.2403938
913.10 0.2403189
913.20 0.2402439
913.30 0.240169
913.40 0.2400942
913.50 0.2400193
913.60 0.2399445
913.70 0.2398698
913.80 0.239795
913.90 0.2397203
914.00 0.2396456
914.10 0.2395709
914.20 0.2394962
914.30 0.2394216
914.40 0.239347
914.50 0.2392725
914.60 0.2391979
914.70 0.2391234
914.80 0.2390489
914.90 0.2389745
915.00 0.2389
915.10 0.2388256
915.20 0.2387513
915.30 0.2386753
915.40 0.2385988
915.50 0.2385223
915.60 0.2384458
915.70 0.2383693
915.80 0.2382929
915.90 0.2382165
916.00 0.2381401
916.10 0.2380637
916.20 0.2379874
916.30 0.2379111
916.40 0.2378348
916.50 0.2377586
916.60 0.2376824
916.70 0.2376062
916.80 0.23753
916.90 0.2374539
917.00 0.2373778
917.10 0.2373017
917.20 0.2372257
917.30 0.2371497
917.40 0.2370737
917.50 0.2369977
917.60 0.2369217
917.70 0.2368458
917.80 0.23677
917.90 0.2366941
918.00 0.2366183
918.10 0.2365425
918.20 0.2364667
918.30 0.2363909
918.40 0.2363152
918.50 0.2362395
918.60 0.2361639
918.70 0.2360882
918.80 0.2360126
918.90 0.235937
919.00 0.2358615
919.10 0.2357859
919.20 0.2357104
919.30 0.235635
919.40 0.2355595
919.50 0.2354841
919.60 0.2354087
919.70 0.2353333
919.80 0.235258
919.90 0.235185
920.00 0.2351121
920.10 0.2350392
920.20 0.2349664
920.30 0.2348936
920.40 0.2348209
920.50 0.2347481
920.60 0.2346754
920.70 0.2346027
920.80 0.2345301
920.90 0.2344574
921.00 0.2343848
921.10 0.2343123
921.20 0.2342397
921.30 0.2341672
921.40 0.2340947
921.50 0.2340222
921.60 0.2339497
921.70 0.2338773
921.80 0.2338049
921.90 0.2337325
922.00 0.2336602
922.10 0.2335879
922.20 0.2335156
922.30 0.2334433
922.40 0.2333711
922.50 0.2332988
922.60 0.2332266
922.70 0.2331545
922.80 0.2330823
922.90 0.2330102
923.00 0.2329381
923.10 0.2328661
923.20 0.232794
923.30 0.232722
923.40 0.23265
923.50 0.2325781
923.60 0.2325061
923.70 0.2324342
923.80 0.2323623
923.90 0.2322905
924.00 0.2322186
924.10 0.2321468
924.20 0.2320751
924.30 0.2320033
924.40 0.2319312
924.50 0.2318573
924.60 0.2317835
924.70 0.2317097
924.80 0.2316359
924.90 0.2315622
925.00 0.2314884
925.10 0.2314147
925.20 0.2313411
925.30 0.2312674
925.40 0.2311938
925.50 0.2311202
925.60 0.2310466
925.70 0.2309731
925.80 0.2308996
925.90 0.2308261
926.00 0.2307526
926.10 0.2306792
926.20 0.2306058
926.30 0.2305324
926.40 0.230459
926.50 0.2303857
926.60 0.2303124
926.70 0.2302391
926.80 0.2301659
926.90 0.2300926
927.00 0.2300194
927.10 0.2299463
927.20 0.2298731
927.30 0.2298
927.40 0.2297269
927.50 0.2296538
927.60 0.2295808
927.70 0.2295078
927.80 0.2294348
927.90 0.2293618
928.00 0.2292889
928.10 0.229216
928.20 0.2291431
928.30 0.2290702
928.40 0.2289974
928.50 0.2289246
928.60 0.2288518
928.70 0.228779
928.80 0.2287063
928.90 0.2286336
929.00 0.2285609
929.10 0.2284883
929.20 0.2284157
929.30 0.2283431
929.40 0.2282705
929.50 0.2281979
929.60 0.2281254
929.70 0.2280529
929.80 0.2279805
929.90 0.227908
930.00 0.2278356
930.10 0.2277632
930.20 0.2276908
930.30 0.2276185
930.40 0.2275462
930.50 0.2274739
930.60 0.2274016
930.70 0.2273294
930.80 0.2272572
930.90 0.227185
931.00 0.2271128
931.10 0.2270407
931.20 0.2269686
931.30 0.2268965
931.40 0.2268245
931.50 0.2267524
931.60 0.2266804
931.70 0.2266084
931.80 0.2265365
931.90 0.2264646
932.00 0.2263927
932.10 0.2263208
932.20 0.2262489
932.30 0.2261771
932.40 0.2261053
932.50 0.2260335
932.60 0.2259618
932.70 0.2258901
932.80 0.2258184
932.90 0.2257467
933.00 0.225675
933.10 0.2256034
933.20 0.2255318
933.30 0.2254602
933.40 0.2253887
933.50 0.2253172
933.60 0.2252457
933.70 0.2251752
933.80 0.2251052
933.90 0.2250351
934.00 0.2249651
934.10 0.2248951
934.20 0.2248252
934.30 0.2247552
934.40 0.2246853
934.50 0.2246154
934.60 0.2245456
934.70 0.2244757
934.80 0.2244059
934.90 0.2243361
935.00 0.2242663
935.10 0.2241966
935.20 0.2241269
935.30 0.2240572
935.40 0.2239875
935.50 0.2239179
935.60 0.2238482
935.70 0.2237787
935.80 0.2237091
935.90 0.2236395
936.00 0.22357
936.10 0.2235005
936.20 0.223431
936.30 0.2233616
936.40 0.2232922
936.50 0.2232228
936.60 0.2231534
936.70 0.2230841
936.80 0.2230147
936.90 0.2229454
937.00 0.2228762
937.10 0.2228069
937.20 0.2227377
937.30 0.2226685
937.40 0.2225993
937.50 0.2225301
937.60 0.222461
937.70 0.2223919
937.80 0.2223228
937.90 0.2222538
938.00 0.2221848
938.10 0.2221157
938.20 0.2220468
938.30 0.2219778
938.40 0.2219089
938.50 0.22184
938.60 0.2217711
938.70 0.2217022
938.80 0.2216334
938.90 0.2215646
939.00 0.2214958
939.10 0.221427
939.20 0.2213583
939.30 0.2212896
939.40 0.2212209
939.50 0.2211522
939.60 0.2210836
939.70 0.2210149
939.80 0.2209464
939.90 0.2208778
940.00 0.2208092
940.10 0.2207407
940.20 0.2206722
940.30 0.2206037
940.40 0.2205353
940.50 0.2204669
940.60 0.2203985
940.70 0.2203301
940.80 0.2202617
940.90 0.2201934
941.00 0.2201251
941.10 0.2200568
941.20 0.2199886
941.30 0.2199203
941.40 0.2198521
941.50 0.219784
941.60 0.2197158
941.70 0.2196477
941.80 0.2195795
941.90 0.2195115
942.00 0.2194434
942.10 0.2193754
942.20 0.2193073
942.30 0.2192393
942.40 0.2191714
942.50 0.2191034
942.60 0.2190355
942.70 0.2189676
942.80 0.2188997
942.90 0.2188319
943.00 0.2187637
943.10 0.218695
943.20 0.2186263
943.30 0.2185577
943.40 0.2184891
943.50 0.2184205
943.60 0.2183519
943.70 0.2182833
943.80 0.2182148
943.90 0.2181463
944.00 0.2180778
944.10 0.2180093
944.20 0.2179409
944.30 0.2178725
944.40 0.2178041
944.50 0.2177357
944.60 0.2176674
944.70 0.2175991
944.80 0.2175308
944.90 0.2174625
945.00 0.2173942
945.10 0.217326
945.20 0.2172578
945.30 0.2171897
945.40 0.2171215
945.50 0.2170534
945.60 0.2169853
945.70 0.2169172
945.80 0.2168492
945.90 0.2167811
946.00 0.2167131
946.10 0.2166451
946.20 0.2165772
946.30 0.2165092
946.40 0.2164413
946.50 0.2163734
946.60 0.2163056
946.70 0.2162377
946.80 0.2161699
946.90 0.2161021
947.00 0.2160344
947.10 0.2159666
947.20 0.2158989
947.30 0.2158312
947.40 0.2157635
947.50 0.2156959
947.60 0.2156283
947.70 0.2155607
947.80 0.2154931
947.90 0.2154255
948.00 0.215358
948.10 0.2152905
948.20 0.215223
948.30 0.2151556
948.40 0.2150881
948.50 0.2150207
948.60 0.2149533
948.70 0.214886
948.80 0.2148186
948.90 0.2147513
949.00 0.214684
949.10 0.2146168
949.20 0.2145495
949.30 0.2144823
949.40 0.2144151
949.50 0.2143479
949.60 0.2142808
949.70 0.2142136
949.80 0.2141465
949.90 0.2140795
950.00 0.2140124
950.10 0.2139454
950.20 0.2138783
950.30 0.2138114
950.40 0.2137444
950.50 0.2136775
950.60 0.2136105
950.70 0.2135436
950.80 0.2134768
950.90 0.2134099
951.00 0.2133431
951.10 0.2132763
951.20 0.2132095
951.30 0.2131428
951.40 0.2130761
951.50 0.2130093
951.60 0.2129427
951.70 0.212876
951.80 0.2128094
951.90 0.2127428
952.00 0.2126762
952.10 0.2126096
952.20 0.2125431
952.30 0.2124765
952.40 0.2124102
952.50 0.2123461
952.60 0.2122821
952.70 0.212218
952.80 0.212154
952.90 0.21209
953.00 0.212026
953.10 0.2119621
953.20 0.2118981
953.30 0.2118342
953.40 0.2117703
953.50 0.2117064
953.60 0.2116426
953.70 0.2115788
953.80 0.211515
953.90 0.2114512
954.00 0.2113874
954.10 0.2113237
954.20 0.21126
954.30 0.2111963
954.40 0.2111326
954.50 0.211069
954.60 0.2110053
954.70 0.2109417
954.80 0.2108781
954.90 0.2108146
955.00 0.2107511
955.10 0.2106875
955.20 0.210624
955.30 0.2105606
955.40 0.2104971
955.50 0.2104337
955.60 0.2103703
955.70 0.2103069
955.80 0.2102435
955.90 0.2101802
956.00 0.2101169
956.10 0.2100536
956.20 0.2099903
956.30 0.209927
956.40 0.2098638
956.50 0.2098006
956.60 0.2097374
956.70 0.2096742
956.80 0.2096111
956.90 0.209548
957.00 0.2094849
957.10 0.2094218
957.20 0.2093578
957.30 0.2092926
957.40 0.2092274
957.50 0.2091623
957.60 0.2090972
957.70 0.2090321
957.80 0.208967
957.90 0.208902
958.00 0.208837
958.10 0.208772
958.20 0.208707
958.30 0.208642
958.40 0.2085771
958.50 0.2085122
958.60 0.2084473
958.70 0.2083824
958.80 0.2083176
958.90 0.2082528
959.00 0.208188
959.10 0.2081232
959.20 0.2080585
959.30 0.2079937
959.40 0.207929
959.50 0.2078643
959.60 0.2077997
959.70 0.207735
959.80 0.2076704
959.90 0.2076058
960.00 0.2075413
960.10 0.2074767
960.20 0.2074122
960.30 0.2073477
960.40 0.2072832
960.50 0.2072187
960.60 0.2071543
960.70 0.2070899
960.80 0.2070255
960.90 0.2069611
961.00 0.2068968
961.10 0.2068325
961.20 0.2067682
961.30 0.2067039
961.40 0.2066396
961.50 0.2065754
961.60 0.2065112
961.70 0.206447
961.80 0.2063828
961.90 0.2063187
962.00 0.2062547
962.10 0.2061908
962.20 0.206127
962.30 0.2060631
962.40 0.2059993
962.50 0.2059355
962.60 0.2058717
962.70 0.2058079
962.80 0.2057442
962.90 0.2056805
963.00 0.2056168
963.10 0.2055531
963.20 0.2054895
963.30 0.2054258
963.40 0.2053622
963.50 0.2052986
963.60 0.2052351
963.70 0.2051715
963.80 0.205108
963.90 0.2050445
964.00 0.204981
964.10 0.2049176
964.20 0.2048542
964.30 0.2047907
964.40 0.2047274
964.50 0.204664
964.60 0.2046007
964.70 0.2045373
964.80 0.204474
964.90 0.2044108
965.00 0.2043475
965.10 0.2042843
965.20 0.2042211
965.30 0.2041579
965.40 0.2040947
965.50 0.2040315
965.60 0.2039684
965.70 0.2039053
965.80 0.2038422
965.90 0.2037792
966.00 0.2037161
966.10 0.2036531
966.20 0.2035901
966.30 0.2035272
966.40 0.2034642
966.50 0.2034013
966.60 0.2033384
966.70 0.2032755
966.80 0.2032126
966.90 0.2031498
967.00 0.2030869
967.10 0.2030241
967.20 0.2029614
967.30 0.2028986
967.40 0.2028359
967.50 0.2027732
967.60 0.2027105
967.70 0.2026478
967.80 0.2025852
967.90 0.2025225
968.00 0.2024599
968.10 0.2023973
968.20 0.2023348
968.30 0.2022722
968.40 0.2022097
968.50 0.2021472
968.60 0.2020847
968.70 0.2020223
968.80 0.2019599
968.90 0.2018974
969.00 0.2018351
969.10 0.2017727
969.20 0.2017103
969.30 0.201648
969.40 0.2015857
969.50 0.2015234
969.60 0.2014612
969.70 0.2013989
969.80 0.2013367
969.90 0.2012745
970.00 0.2012123
970.10 0.2011502
970.20 0.201088
970.30 0.2010259
970.40 0.2009638
970.50 0.2009018
970.60 0.2008397
970.70 0.2007777
970.80 0.2007157
970.90 0.2006537
971.00 0.2005917
971.10 0.2005298
971.20 0.2004679
971.30 0.200406
971.40 0.2003441
971.50 0.2002822
971.60 0.2002212
971.70 0.2001606
971.80 0.2001
971.90 0.2000395
972.00 0.199979
972.10 0.1999185
972.20 0.199858
972.30 0.1997975
972.40 0.1997371
972.50 0.1996766
972.60 0.1996162
972.70 0.1995558
972.80 0.1994955
972.90 0.1994351
973.00 0.1993748
973.10 0.1993145
973.20 0.1992542
973.30 0.199194
973.40 0.1991337
973.50 0.1990735
973.60 0.1990133
973.70 0.1989531
973.80 0.198893
973.90 0.1988328
974.00 0.1987727
974.10 0.1987126
974.20 0.1986525
974.30 0.1985925
974.40 0.1985325
974.50 0.1984724
974.60 0.1984124
974.70 0.1983525
974.80 0.1982925
974.90 0.1982326
975.00 0.1981727
975.10 0.1981128
975.20 0.1980529
975.30 0.1979931
975.40 0.1979332
975.50 0.1978734
975.60 0.1978136
975.70 0.1977539
975.80 0.1976941
975.90 0.1976344
976.00 0.1975747
976.10 0.197515
976.20 0.1974553
976.30 0.1973957
976.40 0.197336
976.50 0.1972764
976.60 0.1972168
976.70 0.1971573
976.80 0.1970977
976.90 0.1970382
977.00 0.1969787
977.10 0.1969192
977.20 0.1968598
977.30 0.1968003
977.40 0.1967409
977.50 0.1966815
977.60 0.1966221
977.70 0.1965627
977.80 0.1965034
977.90 0.1964441
978.00 0.1963848
978.10 0.1963255
978.20 0.1962662
978.30 0.196207
978.40 0.1961477
978.50 0.1960885
978.60 0.1960294
978.70 0.1959702
978.80 0.195911
978.90 0.1958519
979.00 0.1957928
979.10 0.1957337
979.20 0.1956747
979.30 0.1956156
979.40 0.1955566
979.50 0.1954976
979.60 0.1954386
979.70 0.1953797
979.80 0.1953207
979.90 0.1952618
980.00 0.1952029
980.10 0.195144
980.20 0.1950851
980.30 0.1950263
980.40 0.1949675
980.50 0.1949087
980.60 0.1948499
980.70 0.1947911
980.80 0.1947324
980.90 0.1946737
981.00 0.194615
981.10 0.1945563
981.20 0.1944976
981.30 0.1944386
981.40 0.1943791
981.50 0.1943197
981.60 0.1942604
981.70 0.194201
981.80 0.1941417
981.90 0.1940823
982.00 0.194023
982.10 0.1939637
982.20 0.1939045
982.30 0.1938452
982.40 0.193786
982.50 0.1937268
982.60 0.1936676
982.70 0.1936085
982.80 0.1935493
982.90 0.1934902
983.00 0.1934311
983.10 0.193372
983.20 0.193313
983.30 0.1932539
983.40 0.1931949
983.50 0.1931359
983.60 0.1930769
983.70 0.1930179
983.80 0.192959
983.90 0.1929001
984.00 0.1928412
984.10 0.1927823
984.20 0.1927234
984.30 0.1926646
984.40 0.1926058
984.50 0.192547
984.60 0.1924882
984.70 0.1924294
984.80 0.1923707
984.90 0.192312
985.00 0.1922532
985.10 0.1921946
985.20 0.1921359
985.30 0.1920773
985.40 0.1920186
985.50 0.19196
985.60 0.1919014
985.70 0.1918429
985.80 0.1917843
985.90 0.1917258
986.00 0.1916673
986.10 0.1916088
986.20 0.1915504
986.30 0.1914919
986.40 0.1914335
986.50 0.1913751
986.60 0.1913167
986.70 0.1912583
986.80 0.1912
986.90 0.1911417
987.00 0.1910833
987.10 0.1910251
987.20 0.1909668
987.30 0.1909085
987.40 0.1908503
987.50 0.1907921
987.60 0.1907339
987.70 0.1906757
987.80 0.1906176
987.90 0.1905595
988.00 0.1905014
988.10 0.1904433
988.20 0.1903852
988.30 0.1903271
988.40 0.1902691
988.50 0.1902111
988.60 0.1901531
988.70 0.1900951
988.80 0.1900372
988.90 0.1899792
989.00 0.1899213
989.10 0.1898634
989.20 0.1898056
989.30 0.1897477
989.40 0.1896899
989.50 0.189632
989.60 0.1895742
989.70 0.1895165
989.80 0.1894587
989.90 0.189401
990.00 0.1893433
990.10 0.1892856
990.20 0.1892279
990.30 0.1891702
990.40 0.1891126
990.50 0.1890549
990.60 0.1889973
990.70 0.1889398
990.80 0.1888822
990.90 0.1888246
991.00 0.1887671
991.10 0.1887097
991.20 0.1886524
991.30 0.1885951
991.40 0.1885379
991.50 0.1884806
991.60 0.1884234
991.70 0.1883662
991.80 0.188309
991.90 0.1882519
992.00 0.1881947
992.10 0.1881376
992.20 0.1880805
992.30 0.1880234
992.40 0.1879663
992.50 0.1879093
992.60 0.1878523
992.70 0.1877952
992.80 0.1877383
992.90 0.1876813
993.00 0.1876243
993.10 0.1875674
993.20 0.1875105
993.30 0.1874536
993.40 0.1873967
993.50 0.1873399
993.60 0.187283
993.70 0.1872262
993.80 0.1871694
993.90 0.1871126
994.00 0.1870559
994.10 0.1869991
994.20 0.1869424
994.30 0.1868857
994.40 0.186829
994.50 0.1867724
994.60 0.1867157
994.70 0.1866591
994.80 0.1866025
994.90 0.1865459
995.00 0.1864893
995.10 0.1864328
995.20 0.1863762
995.30 0.1863197
995.40 0.1862632
995.50 0.1862068
995.60 0.1861503
995.70 0.1860939
995.80 0.1860374
995.90 0.185981
996.00 0.1859247
996.10 0.1858683
996.20 0.185812
996.30 0.1857556
996.40 0.1856993
996.50 0.1856431
996.60 0.1855868
996.70 0.1855305
996.80 0.1854743
996.90 0.1854181
997.00 0.1853619
997.10 0.1853058
997.20 0.1852496
997.30 0.1851935
997.40 0.1851374
997.50 0.1850813
997.60 0.1850252
997.70 0.1849691
997.80 0.1849131
997.90 0.1848571
998.00 0.1848011
998.10 0.1847451
998.20 0.1846891
998.30 0.1846332
998.40 0.1845773
998.50 0.1845214
998.60 0.1844655
998.70 0.1844096
998.80 0.1843537
998.90 0.1842979
999.00 0.1842421
999.10 0.1841863
999.20 0.1841305
999.30 0.1840748
999.40 0.184019
999.50 0.1839633
999.60 0.1839076
999.70 0.1838519
999.80 0.1837963
999.90 0.1837406
1000.00 0.183685
1000.10 0.1836294
1000.20 0.1835738
1000.30 0.1835182
1000.40 0.1834627
1000.50 0.1834071
1000.60 0.1833516
1000.70 0.1832961
1000.80 0.1832406
1000.90 0.1831852
1001.00 0.1831298
1001.10 0.1830745
1001.20 0.1830193
1001.30 0.1829641
1001.40 0.1829089
1001.50 0.1828538
1001.60 0.1827986
1001.70 0.1827435
1001.80 0.1826884
1001.90 0.1826333
1002.00 0.1825782
1002.10 0.1825232
1002.20 0.1824681
1002.30 0.1824131
1002.40 0.1823581
1002.50 0.1823031
1002.60 0.1822482
1002.70 0.1821932
1002.80 0.1821383
1002.90 0.1820834
1003.00 0.1820285
1003.10 0.1819736
1003.20 0.1819188
1003.30 0.1818639
1003.40 0.1818091
1003.50 0.1817543
1003.60 0.1816995
1003.70 0.1816448
1003.80 0.18159
1003.90 0.1815353
1004.00 0.1814806
1004.10 0.1814259
1004.20 0.1813712
1004.30 0.1813166
1004.40 0.1812619
1004.50 0.1812073
1004.60 0.1811527
1004.70 0.1810981
1004.80 0.1810436
1004.90 0.180989
1005.00 0.1809345
1005.10 0.18088
1005.20 0.1808255
1005.30 0.180771
1005.40 0.1807166
1005.50 0.1806621
1005.60 0.1806077
1005.70 0.1805533
1005.80 0.1804989
1005.90 0.1804446
1006.00 0.1803902
1006.10 0.1803359
1006.20 0.1802816
1006.30 0.1802273
1006.40 0.180173
1006.50 0.1801188
1006.60 0.1800645
1006.70 0.1800103
1006.80 0.1799561
1006.90 0.1799019
1007.00 0.1798477
1007.10 0.1797936
1007.20 0.1797394
1007.30 0.1796853
1007.40 0.1796312
1007.50 0.1795771
1007.60 0.1795231
1007.70 0.179469
1007.80 0.179415
1007.90 0.179361
1008.00 0.179307
1008.10 0.179253
1008.20 0.1791991
1008.30 0.1791452
1008.40 0.1790912
1008.50 0.1790373
1008.60 0.1789835
1008.70 0.1789296
1008.80 0.1788757
1008.90 0.1788219
1009.00 0.1787681
1009.10 0.1787143
1009.20 0.1786605
1009.30 0.1786068
1009.40 0.178553
1009.50 0.1784993
1009.60 0.1784456
1009.70 0.1783919
1009.80 0.1783382
1009.90 0.1782846
1010.00 0.178231
1010.10 0.1781773
1010.20 0.1781237
1010.30 0.1780702
1010.40 0.1780166
1010.50 0.1779631
1010.60 0.1779095
1010.70 0.177856
1010.80 0.1778025
1010.90 0.1777491
1011.00 0.1776956
1011.10 0.1776424
1011.20 0.1775891
1011.30 0.1775359
1011.40 0.1774827
1011.50 0.1774295
1011.60 0.1773764
1011.70 0.1773232
1011.80 0.1772701
1011.90 0.177217
1012.00 0.1771639
1012.10 0.1771108
1012.20 0.1770577
1012.30 0.1770047
1012.40 0.1769517
1012.50 0.1768987
1012.60 0.1768457
1012.70 0.1767927
1012.80 0.1767397
1012.90 0.1766868
1013.00 0.1766339
1013.10 0.176581
1013.20 0.1765281
1013.30 0.1764752
1013.40 0.1764224
1013.50 0.1763695
1013.60 0.1763167
1013.70 0.1762639
1013.80 0.1762111
1013.90 0.1761584
1014.00 0.1761056
1014.10 0.1760529
1014.20 0.1760002
1014.30 0.1759475
1014.40 0.1758948
1014.50 0.1758421
1014.60 0.1757895
1014.70 0.1757369
1014.80 0.1756843
1014.90 0.1756317
1015.00 0.1755791
1015.10 0.1755265
1015.20 0.175474
1015.30 0.1754215
1015.40 0.175369
1015.50 0.1753165
1015.60 0.175264
1015.70 0.1752116
1015.80 0.1751591
1015.90 0.1751067
1016.00 0.1750543
1016.10 0.1750019
1016.20 0.1749496
1016.30 0.1748972
1016.40 0.1748449
1016.50 0.1747926
1016.60 0.1747403
1016.70 0.174688
1016.80 0.1746357
1016.90 0.1745835
1017.00 0.1745312
1017.10 0.174479
1017.20 0.1744268
1017.30 0.1743747
1017.40 0.1743225
1017.50 0.1742704
1017.60 0.1742182
1017.70 0.1741661
1017.80 0.174114
1017.90 0.174062
1018.00 0.1740099
1018.10 0.1739579
1018.20 0.1739058
1018.30 0.1738538
1018.40 0.1738018
1018.50 0.1737499
1018.60 0.1736979
1018.70 0.173646
1018.80 0.1735941
1018.90 0.1735421
1019.00 0.1734903
1019.10 0.1734384
1019.20 0.1733865
1019.30 0.1733347
1019.40 0.1732829
1019.50 0.1732311
1019.60 0.1731793
1019.70 0.1731275
1019.80 0.1730758
1019.90 0.173024
1020.00 0.1729723
1020.10 0.1729206
1020.20 0.1728689
1020.30 0.1728173
1020.40 0.1727656
1020.50 0.172714
1020.60 0.1726624
1020.70 0.1726108
1020.80 0.1725592
1020.90 0.1725076
1021.00 0.1724561
1021.10 0.1724046
1021.20 0.1723532
1021.30 0.1723019
1021.40 0.1722506
1021.50 0.1721993
1021.60 0.172148
1021.70 0.1720968
1021.80 0.1720456
1021.90 0.1719943
1022.00 0.1719431
1022.10 0.1718919
1022.20 0.1718408
1022.30 0.1717896
1022.40 0.1717385
1022.50 0.1716874
1022.60 0.1716363
1022.70 0.1715852
1022.80 0.1715341
1022.90 0.1714831
1023.00 0.171432
1023.10 0.171381
1023.20 0.17133
1023.30 0.171279
1023.40 0.1712281
1023.50 0.1711771
1023.60 0.1711262
1023.70 0.1710752
1023.80 0.1710243
1023.90 0.1709735
1024.00 0.1709226
1024.10 0.1708717
1024.20 0.1708209
1024.30 0.1707701
1024.40 0.1707193
1024.50 0.1706685
1024.60 0.1706177
1024.70 0.170567
1024.80 0.1705162
1024.90 0.1704655
1025.00 0.1704148
1025.10 0.1703641
1025.20 0.1703135
1025.30 0.1702628
1025.40 0.1702122
1025.50 0.1701615
1025.60 0.1701109
1025.70 0.1700603
1025.80 0.1700098
1025.90 0.1699592
1026.00 0.1699087
1026.10 0.1698582
1026.20 0.1698077
1026.30 0.1697589
1026.40 0.1697102
1026.50 0.1696615
1026.60 0.1696128
1026.70 0.1695641
1026.80 0.1695154
1026.90 0.1694667
1027.00 0.1694181
1027.10 0.1693695
1027.20 0.1693209
1027.30 0.1692723
1027.40 0.1692237
1027.50 0.1691751
1027.60 0.1691266
1027.70 0.169078
1027.80 0.1690295
1027.90 0.168981
1028.00 0.1689325
1028.10 0.1688841
1028.20 0.1688356
1028.30 0.1687872
1028.40 0.1687388
1028.50 0.1686904
1028.60 0.168642
1028.70 0.1685936
1028.80 0.1685452
1028.90 0.1684969
1029.00 0.1684486
1029.10 0.1684002
1029.20 0.1683519
1029.30 0.1683037
1029.40 0.1682554
1029.50 0.1682071
1029.60 0.1681589
1029.70 0.1681107
1029.80 0.1680625
1029.90 0.1680143
1030.00 0.1679661
1030.10 0.167918
1030.20 0.1678698
1030.30 0.1678217
1030.40 0.1677736
1030.50 0.1677255
1030.60 0.1676774
1030.70 0.1676294
1030.80 0.1675813
1030.90 0.1675333
1031.00 0.1674853
1031.10 0.1674373
1031.20 0.1673893
1031.30 0.1673413
1031.40 0.1672919
1031.50 0.1672424
1031.60 0.1671929
1031.70 0.1671434
1031.80 0.167094
1031.90 0.1670446
1032.00 0.1669952
1032.10 0.1669458
1032.20 0.1668964
1032.30 0.166847
1032.40 0.1667977
1032.50 0.1667484
1032.60 0.166699
1032.70 0.1666497
1032.80 0.1666005
1032.90 0.1665512
1033.00 0.166502
1033.10 0.1664527
1033.20 0.1664035
1033.30 0.1663543
1033.40 0.1663051
1033.50 0.1662559
1033.60 0.1662068
1033.70 0.1661577
1033.80 0.1661085
1033.90 0.1660594
1034.00 0.1660103
1034.10 0.1659613
1034.20 0.1659122
1034.30 0.1658632
1034.40 0.1658141
1034.50 0.1657651
1034.60 0.1657161
1034.70 0.1656672
1034.80 0.1656182
1034.90 0.1655692
1035.00 0.1655203
1035.10 0.1654714
1035.20 0.1654225
1035.30 0.1653736
1035.40 0.1653247
1035.50 0.1652759
1035.60 0.1652271
1035.70 0.1651782
1035.80 0.1651294
1035.90 0.1650806
1036.00 0.1650319
1036.10 0.1649831
1036.20 0.1649344
1036.30 0.1648856
1036.40 0.1648369
1036.50 0.1647882
1036.60 0.1647396
1036.70 0.1646909
1036.80 0.1646422
1036.90 0.1645936
1037.00 0.164545
1037.10 0.1644964
1037.20 0.1644478
1037.30 0.1643992
1037.40 0.1643507
1037.50 0.1643021
1037.60 0.1642536
1037.70 0.1642051
1037.80 0.1641566
1037.90 0.1641081
1038.00 0.1640596
1038.10 0.1640112
1038.20 0.1639628
1038.30 0.1639144
1038.40 0.163866
1038.50 0.1638176
1038.60 0.1637692
1038.70 0.1637208
1038.80 0.1636725
1038.90 0.1636242
1039.00 0.1635759
1039.10 0.1635276
1039.20 0.1634793
1039.30 0.1634311
1039.40 0.1633828
1039.50 0.1633346
1039.60 0.1632864
1039.70 0.1632382
1039.80 0.16319
1039.90 0.1631418
1040.00 0.1630937
1040.10 0.1630455
1040.20 0.1629974
1040.30 0.1629493
1040.40 0.1629012
1040.50 0.1628531
1040.60 0.1628051
1040.70 0.162757
1040.80 0.162709
1040.90 0.162661
1041.00 0.162613
1041.10 0.162565
1041.20 0.1625171
1041.30 0.1624691
1041.40 0.1624212
1041.50 0.1623732
1041.60 0.1623253
1041.70 0.1622776
1041.80 0.1622299
1041.90 0.1621822
1042.00 0.1621345
1042.10 0.1620869
1042.20 0.1620392
1042.30 0.1619916
1042.40 0.161944
1042.50 0.1618964
1042.60 0.1618488
1042.70 0.1618012
1042.80 0.1617537
1042.90 0.1617061
1043.00 0.1616586
1043.10 0.1616111
1043.20 0.1615636
1043.30 0.1615161
1043.40 0.1614687
1043.50 0.1614212
1043.60 0.1613738
1043.70 0.1613264
1043.80 0.161279
1043.90 0.1612316
1044.00 0.1611842
1044.10 0.1611369
1044.20 0.1610895
1044.30 0.1610422
1044.40 0.1609949
1044.50 0.1609476
1044.60 0.1609003
1044.70 0.160853
1044.80 0.1608058
1044.90 0.1607586
1045.00 0.1607113
1045.10 0.1606641
1045.20 0.1606169
1045.30 0.1605698
1045.40 0.1605226
1045.50 0.1604755
1045.60 0.1604283
1045.70 0.1603812
1045.80 0.1603341
1045.90 0.160287
1046.00 0.16024
1046.10 0.1601929
1046.20 0.1601459
1046.30 0.1600989
1046.40 0.1600519
1046.50 0.1600049
1046.60 0.1599579
1046.70 0.1599109
1046.80 0.159864
1046.90 0.159817
1047.00 0.1597701
1047.10 0.1597232
1047.20 0.1596763
1047.30 0.1596295
1047.40 0.1595826
1047.50 0.1595358
1047.60 0.1594889
1047.70 0.1594421
1047.80 0.1593953
1047.90 0.1593485
1048.00 0.1593018
1048.10 0.159255
1048.20 0.1592083
1048.30 0.1591616
1048.40 0.1591148
1048.50 0.1590682
1048.60 0.1590215
1048.70 0.1589748
1048.80 0.1589282
1048.90 0.1588815
1049.00 0.1588349
1049.10 0.1587883
1049.20 0.1587417
1049.30 0.1586951
1049.40 0.1586486
1049.50 0.158602
1049.60 0.1585555
1049.70 0.158509
1049.80 0.1584625
1049.90 0.158416
1050.00 0.1583695
1050.10 0.1583231
1050.20 0.1582766
1050.30 0.1582302
1050.40 0.1581838
1050.50 0.1581374
1050.60 0.158091
1050.70 0.1580447
1050.80 0.1579983
1050.90 0.157952
1051.00 0.1579057
1051.10 0.1578593
1051.20 0.1578131
1051.30 0.1577668
1051.40 0.1577205
1051.50 0.1576743
1051.60 0.157628
1051.70 0.1575818
1051.80 0.1575356
1051.90 0.1574894
1052.00 0.1574432
1052.10 0.1573972
1052.20 0.1573512
1052.30 0.1573052
1052.40 0.1572593
1052.50 0.1572133
1052.60 0.1571674
1052.70 0.1571215
1052.80 0.1570756
1052.90 0.1570297
1053.00 0.1569839
1053.10 0.156938
1053.20 0.1568922
1053.30 0.1568464
1053.40 0.1568005
1053.50 0.1567548
1053.60 0.156709
1053.70 0.1566632
1053.80 0.1566175
1053.90 0.1565717
1054.00 0.156526
1054.10 0.1564803
1054.20 0.1564346
1054.30 0.1563889
1054.40 0.1563433
1054.50 0.1562976
1054.60 0.156252
1054.70 0.1562064
1054.80 0.1561608
1054.90 0.1561152
1055.00 0.1560696
1055.10 0.156024
1055.20 0.1559785
1055.30 0.155933
1055.40 0.1558874
1055.50 0.1558419
1055.60 0.1557964
1055.70 0.155751
1055.80 0.1557055
1055.90 0.1556601
1056.00 0.1556146
1056.10 0.1555692
1056.20 0.1555238
1056.30 0.1554784
1056.40 0.155433
1056.50 0.1553877
1056.60 0.1553423
1056.70 0.155297
1056.80 0.1552517
1056.90 0.1552064
1057.00 0.1551611
1057.10 0.1551158
1057.20 0.1550706
1057.30 0.1550253
1057.40 0.1549801
1057.50 0.1549349
1057.60 0.1548897
1057.70 0.1548445
1057.80 0.1547993
1057.90 0.1547542
1058.00 0.154709
1058.10 0.1546639
1058.20 0.1546188
1058.30 0.1545737
1058.40 0.1545286
1058.50 0.1544835
1058.60 0.1544385
1058.70 0.1543934
1058.80 0.1543484
1058.90 0.1543034
1059.00 0.1542584
1059.10 0.1542134
1059.20 0.1541684
1059.30 0.1541234
1059.40 0.1540785
1059.50 0.1540336
1059.60 0.1539887
1059.70 0.1539438
1059.80 0.1538989
1059.90 0.153854
1060.00 0.1538091
1060.10 0.1537643
1060.20 0.1537195
1060.30 0.1536746
1060.40 0.1536298
1060.50 0.1535851
1060.60 0.1535403
1060.70 0.1534955
1060.80 0.1534508
1060.90 0.153406
1061.00 0.1533613
1061.10 0.1533166
1061.20 0.1532719
1061.30 0.1532273
1061.40 0.1531826
1061.50 0.1531379
1061.60 0.1530933
1061.70 0.1530487
1061.80 0.1530041
1061.90 0.1529595
1062.00 0.1529149
1062.10 0.1528704
1062.20 0.1528258
1062.30 0.1527813
1062.40 0.1527368
1062.50 0.1526923
1062.60 0.1526478
1062.70 0.1526035
1062.80 0.1525592
1062.90 0.1525149
1063.00 0.1524706
1063.10 0.1524264
1063.20 0.1523821
1063.30 0.1523379
1063.40 0.1522936
1063.50 0.1522494
1063.60 0.1522052
1063.70 0.1521611
1063.80 0.1521169
1063.90 0.1520727
1064.00 0.1520286
1064.10 0.1519845
1064.20 0.1519403
1064.30 0.1518962
1064.40 0.1518522
1064.50 0.1518081
1064.60 0.151764
1064.70 0.15172
1064.80 0.151676
1064.90 0.1516319
1065.00 0.1515879
1065.10 0.1515439
1065.20 0.1515
1065.30 0.151456
1065.40 0.1514121
1065.50 0.1513681
1065.60 0.1513242
1065.70 0.1512803
1065.80 0.1512364
1065.90 0.1511925
1066.00 0.1511487
1066.10 0.1511048
1066.20 0.151061
1066.30 0.1510172
1066.40 0.1509734
1066.50 0.1509296
1066.60 0.1508858
1066.70 0.150842
1066.80 0.1507983
1066.90 0.1507545
1067.00 0.1507108
1067.10 0.1506671
1067.20 0.1506234
1067.30 0.1505797
1067.40 0.150536
1067.50 0.1504924
1067.60 0.1504487
1067.70 0.1504051
1067.80 0.1503615
1067.90 0.1503179
1068.00 0.1502743
1068.10 0.1502307
1068.20 0.1501871
1068.30 0.1501436
1068.40 0.1501
1068.50 0.1500565
1068.60 0.150013
1068.70 0.1499695
1068.80 0.149926
1068.90 0.1498826
1069.00 0.1498391
1069.10 0.1497957
1069.20 0.1497522
1069.30 0.1497088
1069.40 0.1496654
1069.50 0.149622
1069.60 0.1495787
1069.70 0.1495353
1069.80 0.149492
1069.90 0.1494486
1070.00 0.1494053
1070.10 0.149362
1070.20 0.1493187
1070.30 0.1492754
1070.40 0.1492322
1070.50 0.1491889
1070.60 0.1491457
1070.70 0.1491024
1070.80 0.1490592
1070.90 0.149016
1071.00 0.1489729
1071.10 0.1489297
1071.20 0.1488865
1071.30 0.1488434
1071.40 0.1488003
1071.50 0.1487571
1071.60 0.148714
1071.70 0.1486709
1071.80 0.1486279
1071.90 0.1485848
1072.00 0.1485418
1072.10 0.1484987
1072.20 0.1484557
1072.30 0.1484127
1072.40 0.1483697
1072.50 0.1483267
1072.60 0.1482838
1072.70 0.1482408
1072.80 0.1481979
1072.90 0.1481549
1073.00 0.148112
1073.10 0.1480691
1073.20 0.1480263
1073.30 0.1479835
1073.40 0.1479408
1073.50 0.1478981
1073.60 0.1478555
1073.70 0.1478128
1073.80 0.1477701
1073.90 0.1477275
1074.00 0.1476849
1074.10 0.1476423
1074.20 0.1475997
1074.30 0.1475571
1074.40 0.1475145
1074.50 0.1474719
1074.60 0.1474294
1074.70 0.1473869
1074.80 0.1473443
1074.90 0.1473018
1075.00 0.1472593
1075.10 0.1472169
1075.20 0.1471744
1075.30 0.1471319
1075.40 0.1470895
1075.50 0.1470471
1075.60 0.1470046
1075.70 0.1469622
1075.80 0.1469199
1075.90 0.1468775
1076.00 0.1468351
1076.10 0.1467928
1076.20 0.1467504
1076.30 0.1467081
1076.40 0.1466658
1076.50 0.1466235
1076.60 0.1465812
1076.70 0.146539
1076.80 0.1464967
1076.90 0.1464545
1077.00 0.1464122
1077.10 0.14637
1077.20 0.1463278
1077.30 0.1462856
1077.40 0.1462434
1077.50 0.1462013
1077.60 0.1461591
1077.70 0.146117
1077.80 0.1460749
1077.90 0.1460328
1078.00 0.1459907
1078.10 0.1459486
1078.20 0.1459065
1078.30 0.1458644
1078.40 0.1458224
1078.50 0.1457804
1078.60 0.1457383
1078.70 0.1456963
1078.80 0.1456543
1078.90 0.1456124
1079.00 0.1455704
1079.10 0.1455284
1079.20 0.1454865
1079.30 0.1454446
1079.40 0.1454027
1079.50 0.1453608
1079.60 0.1453189
1079.70 0.145277
1079.80 0.1452351
1079.90 0.1451933
1080.00 0.1451514
1080.10 0.1451096
1080.20 0.1450678
1080.30 0.145026
1080.40 0.1449842
1080.50 0.1449425
1080.60 0.1449007
1080.70 0.1448589
1080.80 0.1448172
1080.90 0.1447755
1081.00 0.1447338
1081.10 0.1446921
1081.20 0.1446504
1081.30 0.1446087
1081.40 0.1445671
1081.50 0.1445254
1081.60 0.1444838
1081.70 0.1444422
1081.80 0.1444006
1081.90 0.144359
1082.00 0.1443174
1082.10 0.1442759
1082.20 0.1442343
1082.30 0.1441928
1082.40 0.1441512
1082.50 0.1441097
1082.60 0.1440682
1082.70 0.1440267
1082.80 0.1439853
1082.90 0.1439438
1083.00 0.1439024
1083.10 0.1438609
1083.20 0.1438195
1083.30 0.1437781
1083.40 0.1437367
1083.50 0.1436953
1083.60 0.1436539
1083.70 0.1436126
1083.80 0.1435712
1083.90 0.1435299
1084.00 0.1434887
1084.10 0.1434475
1084.20 0.1434064
1084.30 0.1433653
1084.40 0.1433241
1084.50 0.143283
1084.60 0.1432419
1084.70 0.1432008
1084.80 0.1431598
1084.90 0.1431187
1085.00 0.1430777
1085.10 0.1430366
1085.20 0.1429956
1085.30 0.1429546
1085.40 0.1429136
1085.50 0.1428726
1085.60 0.1428317
1085.70 0.1427907
1085.80 0.1427498
1085.90 0.1427088
1086.00 0.1426679
1086.10 0.142627
1086.20 0.1425861
1086.30 0.1425452
1086.40 0.1425044
1086.50 0.1424635
1086.60 0.1424227
1086.70 0.1423818
1086.80 0.142341
1086.90 0.1423002
1087.00 0.1422594
1087.10 0.1422186
1087.20 0.1421779
1087.30 0.1421371
1087.40 0.1420964
1087.50 0.1420556
1087.60 0.1420149
1087.70 0.1419742
1087.80 0.1419335
1087.90 0.1418928
1088.00 0.1418522
1088.10 0.1418115
1088.20 0.1417709
1088.30 0.1417302
1088.40 0.1416896
1088.50 0.141649
1088.60 0.1416084
1088.70 0.1415679
1088.80 0.1415273
1088.90 0.1414867
1089.00 0.1414462
1089.10 0.1414057
1089.20 0.1413651
1089.30 0.1413246
1089.40 0.1412842
1089.50 0.1412437
1089.60 0.1412032
1089.70 0.1411627
1089.80 0.1411223
1089.90 0.1410819
1090.00 0.1410414
1090.10 0.141001
1090.20 0.1409606
1090.30 0.1409203
1090.40 0.1408799
1090.50 0.1408395
1090.60 0.1407992
1090.70 0.1407589
1090.80 0.1407185
1090.90 0.1406782
1091.00 0.1406379
1091.10 0.1405977
1091.20 0.1405574
1091.30 0.1405171
1091.40 0.1404769
1091.50 0.1404366
1091.60 0.1403964
1091.70 0.1403562
1091.80 0.140316
1091.90 0.1402758
1092.00 0.1402357
1092.10 0.1401955
1092.20 0.1401554
1092.30 0.1401152
1092.40 0.1400751
1092.50 0.140035
1092.60 0.1399949
1092.70 0.1399548
1092.80 0.1399147
1092.90 0.1398747
1093.00 0.1398346
1093.10 0.1397946
1093.20 0.1397546
1093.30 0.1397146
1093.40 0.1396746
1093.50 0.1396346
1093.60 0.1395946
1093.70 0.1395546
1093.80 0.1395147
1093.90 0.1394748
1094.00 0.1394348
1094.10 0.1393949
1094.20 0.139355
1094.30 0.1393151
1094.40 0.1392753
1094.50 0.1392354
1094.60 0.1391955
1094.70 0.1391557
1094.80 0.1391163
1094.90 0.1390773
1095.00 0.1390384
1095.10 0.1389995
1095.20 0.1389605
1095.30 0.1389216
1095.40 0.1388827
1095.50 0.1388438
1095.60 0.138805
1095.70 0.1387661
1095.80 0.1387273
1095.90 0.1386884
1096.00 0.1386496
1096.10 0.1386108
1096.20 0.138572
1096.30 0.1385332
1096.40 0.1384944
1096.50 0.1384556
1096.60 0.1384169
1096.70 0.1383781
1096.80 0.1383394
1096.90 0.1383007
1097.00 0.138262
1097.10 0.1382233
1097.20 0.1381846
1097.30 0.1381459
1097.40 0.1381073
1097.50 0.1380686
1097.60 0.13803
1097.70 0.1379914
1097.80 0.1379527
1097.90 0.1379141
1098.00 0.1378756
1098.10 0.137837
1098.20 0.1377984
1098.30 0.1377599
1098.40 0.1377213
1098.50 0.1376828
1098.60 0.1376443
1098.70 0.1376058
1098.80 0.1375673
1098.90 0.1375288
1099.00 0.1374903
1099.10 0.1374518
1099.20 0.1374134
1099.30 0.137375
1099.40 0.1373365
1099.50 0.1372981
1099.60 0.1372597
1099.70 0.1372213
1099.80 0.1371829
1099.90 0.1371446
1100.00 0.1371062
1100.10 0.1370679
1100.20 0.1370295
1100.30 0.1369912
1100.40 0.1369529
1100.50 0.1369146
1100.60 0.1368763
1100.70 0.1368381
1100.80 0.1367998
1100.90 0.1367615
1101.00 0.1367233
1101.10 0.1366851
1101.20 0.1366469
1101.30 0.1366087
1101.40 0.1365705
1101.50 0.1365323
1101.60 0.1364941
1101.70 0.136456
1101.80 0.1364178
1101.90 0.1363797
1102.00 0.1363416
1102.10 0.1363034
1102.20 0.1362653
1102.30 0.1362273
1102.40 0.1361892
1102.50 0.1361511
1102.60 0.1361131
1102.70 0.136075
1102.80 0.136037
1102.90 0.135999
1103.00 0.135961
1103.10 0.135923
1103.20 0.135885
1103.30 0.135847
1103.40 0.1358091
1103.50 0.1357711
1103.60 0.1357332
1103.70 0.1356952
1103.80 0.1356573
1103.90 0.1356194
1104.00 0.1355815
1104.10 0.1355436
1104.20 0.1355058
1104.30 0.1354679
1104.40 0.1354301
1104.50 0.1353922
1104.60 0.1353544
1104.70 0.1353166
1104.80 0.1352788
1104.90 0.135241
1105.00 0.1352032
1105.10 0.1351655
1105.20 0.1351277
1105.30 0.13509
1105.40 0.1350522
1105.50 0.1350145
1105.60 0.1349768
1105.70 0.1349391
1105.80 0.1349009
1105.90 0.1348626
1106.00 0.1348244
1106.10 0.1347862
1106.20 0.134748
1106.30 0.1347098
1106.40 0.1346716
1106.50 0.1346335
1106.60 0.1345953
1106.70 0.1345572
1106.80 0.134519
1106.90 0.1344809
1107.00 0.1344428
1107.10 0.1344047
1107.20 0.1343666
1107.30 0.1343286
1107.40 0.1342905
1107.50 0.1342524
1107.60 0.1342144
1107.70 0.1341764
1107.80 0.1341384
1107.90 0.1341004
1108.00 0.1340624
1108.10 0.1340244
1108.20 0.1339864
1108.30 0.1339485
1108.40 0.1339105
1108.50 0.1338726
1108.60 0.1338347
1108.70 0.1337968
1108.80 0.1337589
1108.90 0.133721
1109.00 0.1336831
1109.10 0.1336452
1109.20 0.1336074
1109.30 0.1335695
1109.40 0.1335317
1109.50 0.1334939
1109.60 0.1334561
1109.70 0.1334183
1109.80 0.1333805
1109.90 0.1333427
1110.00 0.1333049
1110.10 0.1332672
1110.20 0.1332295
1110.30 0.1331917
1110.40 0.133154
1110.50 0.1331163
1110.60 0.1330786
1110.70 0.1330409
1110.80 0.1330033
1110.90 0.1329656
1111.00 0.132928
1111.10 0.1328903
1111.20 0.1328527
1111.30 0.1328151
1111.40 0.1327775
1111.50 0.1327399
1111.60 0.1327023
1111.70 0.1326647
1111.80 0.1326272
1111.90 0.1325896
1112.00 0.1325521
1112.10 0.1325146
1112.20 0.1324771
1112.30 0.1324396
1112.40 0.1324021
1112.50 0.1323646
1112.60 0.1323271
1112.70 0.1322897
1112.80 0.1322522
1112.90 0.1322148
1113.00 0.1321774
1113.10 0.13214
1113.20 0.1321026
1113.30 0.1320652
1113.40 0.1320278
1113.50 0.1319905
1113.60 0.1319531
1113.70 0.1319158
1113.80 0.1318784
1113.90 0.1318411
1114.00 0.1318038
1114.10 0.1317665
1114.20 0.1317292
1114.30 0.1316919
1114.40 0.1316547
1114.50 0.1316174
1114.60 0.1315802
1114.70 0.131543
1114.80 0.1315057
1114.90 0.1314685
1115.00 0.1314313
1115.10 0.1313942
1115.20 0.131357
1115.30 0.1313198
1115.40 0.1312827
1115.50 0.1312455
1115.60 0.1312084
1115.70 0.1311713
1115.80 0.1311342
1115.90 0.1310971
1116.00 0.13106
1116.10 0.1310229
1116.20 0.1309859
1116.30 0.1309488
1116.40 0.1309118
1116.50 0.1308748
1116.60 0.1308377
1116.70 0.1308007
1116.80 0.1307638
1116.90 0.130727
1117.00 0.1306901
1117.10 0.1306533
1117.20 0.1306165
1117.30 0.1305797
1117.40 0.1305429
1117.50 0.1305061
1117.60 0.1304693
1117.70 0.1304326
1117.80 0.1303958
1117.90 0.1303591
1118.00 0.1303224
1118.10 0.1302856
1118.20 0.1302489
1118.30 0.1302122
1118.40 0.1301756
1118.50 0.1301389
1118.60 0.1301022
1118.70 0.1300656
1118.80 0.1300289
1118.90 0.1299923
1119.00 0.1299557
1119.10 0.1299191
1119.20 0.1298825
1119.30 0.1298459
1119.40 0.1298094
1119.50 0.1297728
1119.60 0.1297362
1119.70 0.1296997
1119.80 0.1296632
1119.90 0.1296267
1120.00 0.1295902
1120.10 0.1295537
1120.20 0.1295172
1120.30 0.1294807
1120.40 0.1294442
1120.50 0.1294078
1120.60 0.1293714
1120.70 0.1293349
1120.80 0.1292985
1120.90 0.1292621
1121.00 0.1292257
1121.10 0.1291893
1121.20 0.1291529
1121.30 0.1291166
1121.40 0.1290802
1121.50 0.1290439
1121.60 0.1290076
1121.70 0.1289712
1121.80 0.1289349
1121.90 0.1288986
1122.00 0.1288623
1122.10 0.1288261
1122.20 0.1287898
1122.30 0.1287535
1122.40 0.1287173
1122.50 0.1286811
1122.60 0.1286448
1122.70 0.1286086
1122.80 0.1285724
1122.90 0.1285362
1123.00 0.1285
1123.10 0.1284639
1123.20 0.1284277
1123.30 0.1283916
1123.40 0.1283554
1123.50 0.1283193
1123.60 0.1282832
1123.70 0.1282471
1123.80 0.128211
1123.90 0.1281749
1124.00 0.1281388
1124.10 0.1281028
1124.20 0.1280667
1124.30 0.1280307
1124.40 0.1279947
1124.50 0.1279586
1124.60 0.1279226
1124.70 0.1278866
1124.80 0.1278506
1124.90 0.1278147
1125.00 0.1277787
1125.10 0.1277428
1125.20 0.1277068
1125.30 0.1276709
1125.40 0.127635
1125.50 0.127599
1125.60 0.1275631
1125.70 0.1275273
1125.80 0.1274914
1125.90 0.1274555
1126.00 0.1274196
1126.10 0.1273838
1126.20 0.127348
1126.30 0.1273121
1126.40 0.1272763
1126.50 0.1272405
1126.60 0.1272047
1126.70 0.1271689
1126.80 0.1271332
1126.90 0.1270974
1127.00 0.1270617
1127.10 0.1270259
1127.20 0.1269902
1127.30 0.1269545
1127.40 0.1269188
1127.50 0.1268831
1127.60 0.1268474
1127.70 0.1268117
1127.80 0.1267761
1127.90 0.1267404
1128.00 0.1267049
1128.10 0.1266694
1128.20 0.1266339
1128.30 0.1265984
1128.40 0.1265629
1128.50 0.1265275
1128.60 0.126492
1128.70 0.1264566
1128.80 0.1264212
1128.90 0.1263857
1129.00 0.1263503
1129.10 0.1263149
1129.20 0.1262796
1129.30 0.1262442
1129.40 0.1262088
1129.50 0.1261735
1129.60 0.1261381
1129.70 0.1261028
1129.80 0.1260675
1129.90 0.1260322
1130.00 0.1259969
1130.10 0.1259616
1130.20 0.1259263
1130.30 0.125891
1130.40 0.1258558
1130.50 0.1258205
1130.60 0.1257853
1130.70 0.1257501
1130.80 0.1257149
1130.90 0.1256797
1131.00 0.1256445
1131.10 0.1256093
1131.20 0.1255741
1131.30 0.1255389
1131.40 0.1255038
1131.50 0.1254686
1131.60 0.1254335
1131.70 0.1253984
1131.80 0.1253633
1131.90 0.1253282
1132.00 0.1252931
1132.10 0.125258
1132.20 0.1252229
1132.30 0.1251879
1132.40 0.1251528
1132.50 0.1251178
1132.60 0.1250828
1132.70 0.1250478
1132.80 0.1250128
1132.90 0.1249778
1133.00 0.1249428
1133.10 0.1249078
1133.20 0.1248728
1133.30 0.1248379
1133.40 0.1248029
1133.50 0.124768
1133.60 0.1247331
1133.70 0.1246982
1133.80 0.1246633
1133.90 0.1246284
1134.00 0.1245935
1134.10 0.1245586
1134.20 0.1245238
1134.30 0.1244889
1134.40 0.1244541
1134.50 0.1244192
1134.60 0.1243844
1134.70 0.1243496
1134.80 0.1243148
1134.90 0.12428
1135.00 0.1242453
1135.10 0.1242105
1135.20 0.1241757
1135.30 0.124141
1135.40 0.1241062
1135.50 0.1240715
1135.60 0.1240368
1135.70 0.1240021
1135.80 0.1239674
1135.90 0.1239327
1136.00 0.123898
1136.10 0.1238634
1136.20 0.1238287
1136.30 0.1237941
1136.40 0.1237594
1136.50 0.1237248
1136.60 0.1236902
1136.70 0.1236556
1136.80 0.123621
1136.90 0.1235864
1137.00 0.1235519
1137.10 0.1235173
1137.20 0.1234827
1137.30 0.1234482
1137.40 0.1234137
1137.50 0.1233792
1137.60 0.1233446
1137.70 0.1233101
1137.80 0.1232756
1137.90 0.1232412
1138.00 0.1232067
1138.10 0.1231722
1138.20 0.1231378
1138.30 0.1231034
1138.40 0.1230689
1138.50 0.1230345
1138.60 0.1230001
1138.70 0.1229657
1138.80 0.1229313
1138.90 0.1228969
1139.00 0.1228626
1139.10 0.1228282
1139.20 0.1227939
1139.30 0.1227603
1139.40 0.1227267
1139.50 0.1226931
1139.60 0.1226596
1139.70 0.122626
1139.80 0.1225925
1139.90 0.122559
1140.00 0.1225255
1140.10 0.122492
1140.20 0.1224585
1140.30 0.122425
1140.40 0.1223915
1140.50 0.1223581
1140.60 0.1223246
1140.70 0.1222912
1140.80 0.1222578
1140.90 0.1222243
1141.00 0.1221909
1141.10 0.1221575
1141.20 0.1221241
1141.30 0.1220908
1141.40 0.1220574
1141.50 0.122024
1141.60 0.1219907
1141.70 0.1219573
1141.80 0.121924
1141.90 0.1218907
1142.00 0.1218574
1142.10 0.1218241
1142.20 0.1217908
1142.30 0.1217575
1142.40 0.1217242
1142.50 0.1216909
1142.60 0.1216577
1142.70 0.1216244
1142.80 0.1215912
1142.90 0.121558
1143.00 0.1215248
1143.10 0.1214916
1143.20 0.1214584
1143.30 0.1214252
1143.40 0.121392
1143.50 0.1213588
1143.60 0.1213257
1143.70 0.1212925
1143.80 0.1212594
1143.90 0.1212263
1144.00 0.1211932
1144.10 0.1211601
1144.20 0.121127
1144.30 0.1210939
1144.40 0.1210608
1144.50 0.1210277
1144.60 0.1209947
1144.70 0.1209616
1144.80 0.1209286
1144.90 0.1208955
1145.00 0.1208625
1145.10 0.1208295
1145.20 0.1207965
1145.30 0.1207635
1145.40 0.1207305
1145.50 0.1206976
1145.60 0.1206646
1145.70 0.1206316
1145.80 0.1205987
1145.90 0.1205658
1146.00 0.1205328
1146.10 0.1204999
1146.20 0.120467
1146.30 0.1204341
1146.40 0.1204012
1146.50 0.1203684
1146.60 0.1203355
1146.70 0.1203027
1146.80 0.1202698
1146.90 0.120237
1147.00 0.1202041
1147.10 0.1201713
1147.20 0.1201385
1147.30 0.1201057
1147.40 0.1200729
1147.50 0.1200401
1147.60 0.1200074
1147.70 0.1199746
1147.80 0.1199419
1147.90 0.1199091
1148.00 0.1198764
1148.10 0.1198437
1148.20 0.119811
1148.30 0.1197783
1148.40 0.1197456
1148.50 0.1197129
1148.60 0.1196802
1148.70 0.1196475
1148.80 0.1196149
1148.90 0.1195822
1149.00 0.1195496
1149.10 0.119517
1149.20 0.1194844
1149.30 0.1194518
1149.40 0.1194192
1149.50 0.1193866
1149.60 0.119354
1149.70 0.1193214
1149.80 0.1192889
1149.90 0.1192563
1150.00 0.1192238
1150.10 0.1191912
1150.20 0.1191587
1150.30 0.1191262
1150.40 0.1190937
1150.50 0.1190612
1150.60 0.1190287
1150.70 0.1189957
1150.80 0.1189628
1150.90 0.1189298
1151.00 0.1188969
1151.10 0.1188639
1151.20 0.118831
1151.30 0.1187981
1151.40 0.1187652
1151.50 0.1187323
1151.60 0.1186994
1151.70 0.1186665
1151.80 0.1186337
1151.90 0.1186008
1152.00 0.118568
1152.10 0.1185351
1152.20 0.1185023
1152.30 0.1184695
1152.40 0.1184367
1152.50 0.1184039
1152.60 0.1183711
1152.70 0.1183383
1152.80 0.1183055
1152.90 0.1182728
1153.00 0.11824
1153.10 0.1182073
1153.20 0.1181745
1153.30 0.1181418
1153.40 0.1181091
1153.50 0.1180764
1153.60 0.1180437
1153.70 0.118011
1153.80 0.1179783
1153.90 0.1179457
1154.00 0.117913
1154.10 0.1178804
1154.20 0.1178477
1154.30 0.1178151
1154.40 0.1177825
1154.50 0.1177499
1154.60 0.1177173
1154.70 0.1176847
1154.80 0.1176521
1154.90 0.1176195
1155.00 0.117587
1155.10 0.1175544
1155.20 0.1175219
1155.30 0.1174893
1155.40 0.1174568
1155.50 0.1174243
1155.60 0.1173918
1155.70 0.1173593
1155.80 0.1173268
1155.90 0.1172943
1156.00 0.1172619
1156.10 0.1172294
1156.20 0.117197
1156.30 0.1171645
1156.40 0.1171321
1156.50 0.1170997
1156.60 0.1170673
1156.70 0.1170349
1156.80 0.1170025
1156.90 0.1169701
1157.00 0.1169378
1157.10 0.1169054
1157.20 0.1168731
1157.30 0.1168407
1157.40 0.1168084
1157.50 0.1167761
1157.60 0.1167438
1157.70 0.1167115
1157.80 0.1166792
1157.90 0.1166469
1158.00 0.1166146
1158.10 0.1165824
1158.20 0.1165501
1158.30 0.1165179
1158.40 0.1164856
1158.50 0.1164534
1158.60 0.1164212
1158.70 0.116389
1158.80 0.1163568
1158.90 0.1163246
1159.00 0.1162924
1159.10 0.1162602
1159.20 0.1162281
1159.30 0.1161959
1159.40 0.1161638
1159.50 0.1161316
1159.60 0.1160995
1159.70 0.1160674
1159.80 0.1160353
1159.90 0.1160032
1160.00 0.1159711
1160.10 0.1159391
1160.20 0.115907
1160.30 0.1158749
1160.40 0.1158429
1160.50 0.1158108
1160.60 0.1157788
1160.70 0.1157468
1160.80 0.1157148
1160.90 0.1156828
1161.00 0.1156508
1161.10 0.1156188
1161.20 0.1155868
1161.30 0.1155549
1161.40 0.1155229
1161.50 0.115491
1161.60 0.115459
1161.70 0.1154271
1161.80 0.1153952
1161.90 0.1153633
1162.00 0.1153314
1162.10 0.1152995
1162.20 0.1152677
1162.30 0.115236
1162.40 0.1152042
1162.50 0.1151725
1162.60 0.1151408
1162.70 0.115109
1162.80 0.1150773
1162.90 0.1150456
1163.00 0.1150139
1163.10 0.1149823
1163.20 0.1149506
1163.30 0.1149189
1163.40 0.1148873
1163.50 0.1148556
1163.60 0.114824
1163.70 0.1147924
1163.80 0.1147607
1163.90 0.1147291
1164.00 0.1146975
1164.10 0.1146659
1164.20 0.1146344
1164.30 0.1146028
1164.40 0.1145712
1164.50 0.1145397
1164.60 0.1145081
1164.70 0.1144766
1164.80 0.1144451
1164.90 0.1144135
1165.00 0.114382
1165.10 0.1143505
1165.20 0.1143191
1165.30 0.1142876
1165.40 0.1142561
1165.50 0.1142246
1165.60 0.1141932
1165.70 0.1141617
1165.80 0.1141303
1165.90 0.1140989
1166.00 0.1140675
1166.10 0.1140361
1166.20 0.1140047
1166.30 0.1139733
1166.40 0.1139419
1166.50 0.1139105
1166.60 0.1138792
1166.70 0.1138478
1166.80 0.1138165
1166.90 0.1137851
1167.00 0.1137538
1167.10 0.1137225
1167.20 0.1136912
1167.30 0.1136599
1167.40 0.1136286
1167.50 0.1135973
1167.60 0.113566
1167.70 0.1135348
1167.80 0.1135035
1167.90 0.1134723
1168.00 0.1134421
1168.10 0.1134121
1168.20 0.113382
1168.30 0.113352
1168.40 0.113322
1168.50 0.113292
1168.60 0.113262
1168.70 0.113232
1168.80 0.113202
1168.90 0.113172
1169.00 0.113142
1169.10 0.1131121
1169.20 0.1130821
1169.30 0.1130522
1169.40 0.1130223
1169.50 0.1129923
1169.60 0.1129624
1169.70 0.1129325
1169.80 0.1129026
1169.90 0.1128727
1170.00 0.1128429
1170.10 0.112813
1170.20 0.1127831
1170.30 0.1127533
1170.40 0.1127234
1170.50 0.1126936
1170.60 0.1126637
1170.70 0.1126339
1170.80 0.1126041
1170.90 0.1125743
1171.00 0.1125445
1171.10 0.1125147
1171.20 0.1124849
1171.30 0.1124552
1171.40 0.1124254
1171.50 0.1123957
1171.60 0.1123659
1171.70 0.1123362
1171.80 0.1123065
1171.90 0.1122767
1172.00 0.112247
1172.10 0.1122173
1172.20 0.1121876
1172.30 0.112158
1172.40 0.1121283
1172.50 0.1120986
1172.60 0.1120689
1172.70 0.1120393
1172.80 0.1120097
1172.90 0.11198
1173.00 0.1119504
1173.10 0.1119208
1173.20 0.1118912
1173.30 0.1118616
1173.40 0.111832
1173.50 0.1118024
1173.60 0.1117728
1173.70 0.1117433
1173.80 0.1117129
1173.90 0.1116823
1174.00 0.1116517
1174.10 0.1116211
1174.20 0.1115905
1174.30 0.1115599
1174.40 0.1115294
1174.50 0.1114988
1174.60 0.1114683
1174.70 0.1114377
1174.80 0.1114072
1174.90 0.1113767
1175.00 0.1113462
1175.10 0.1113157
1175.20 0.1112852
1175.30 0.1112547
1175.40 0.1112243
1175.50 0.1111938
1175.60 0.1111633
1175.70 0.1111329
1175.80 0.1111025
1175.90 0.111072
1176.00 0.1110416
1176.10 0.1110112
1176.20 0.1109808
1176.30 0.1109504
1176.40 0.11092
1176.50 0.1108896
1176.60 0.1108593
1176.70 0.1108289
1176.80 0.1107986
1176.90 0.1107682
1177.00 0.1107379
1177.10 0.1107076
1177.20 0.1106773
1177.30 0.1106469
1177.40 0.1106166
1177.50 0.1105864
1177.60 0.1105561
1177.70 0.1105258
1177.80 0.1104955
1177.90 0.1104653
1178.00 0.110435
1178.10 0.1104048
1178.20 0.1103746
1178.30 0.1103444
1178.40 0.1103141
1178.50 0.1102839
1178.60 0.1102538
1178.70 0.1102236
1178.80 0.1101934
1178.90 0.1101632
1179.00 0.1101331
1179.10 0.1101029
1179.20 0.1100728
1179.30 0.1100426
1179.40 0.1100125
1179.50 0.1099824
1179.60 0.1099523
1179.70 0.1099222
1179.80 0.1098921
1179.90 0.109862
1180.00 0.109832
1180.10 0.1098019
1180.20 0.1097718
1180.30 0.1097418
1180.40 0.1097118
1180.50 0.1096817
1180.60 0.1096517
1180.70 0.1096217
1180.80 0.1095917
1180.90 0.1095617
1181.00 0.1095317
1181.10 0.1095018
1181.20 0.1094718
1181.30 0.1094418
1181.40 0.1094119
1181.50 0.1093819
1181.60 0.109352
1181.70 0.1093221
1181.80 0.1092922
1181.90 0.1092623
1182.00 0.1092324
1182.10 0.1092025
1182.20 0.1091726
1182.30 0.1091427
1182.40 0.1091128
1182.50 0.109083
1182.60 0.1090531
1182.70 0.1090233
1182.80 0.1089935
1182.90 0.1089636
1183.00 0.1089338
1183.10 0.108904
1183.20 0.1088742
1183.30 0.1088444
1183.40 0.1088147
1183.50 0.1087849
1183.60 0.1087551
1183.70 0.1087254
1183.80 0.1086956
1183.90 0.1086659
1184.00 0.1086362
1184.10 0.1086064
1184.20 0.1085767
1184.30 0.108547
1184.40 0.1085173
1184.50 0.1084877
1184.60 0.108458
1184.70 0.1084283
1184.80 0.1083986
1184.90 0.108369
1185.00 0.1083393
1185.10 0.1083097
1185.20 0.1082801
1185.30 0.1082505
1185.40 0.1082209
1185.50 0.1081918
1185.60 0.1081634
1185.70 0.1081351
1185.80 0.1081067
1185.90 0.1080784
1186.00 0.1080501
1186.10 0.1080217
1186.20 0.1079934
1186.30 0.1079651
1186.40 0.1079368
1186.50 0.1079085
1186.60 0.1078803
1186.70 0.107852
1186.80 0.1078237
1186.90 0.1077955
1187.00 0.1077672
1187.10 0.107739
1187.20 0.1077108
1187.30 0.1076825
1187.40 0.1076543
1187.50 0.1076261
1187.60 0.1075979
1187.70 0.1075697
1187.80 0.1075415
1187.90 0.1075134
1188.00 0.1074852
1188.10 0.107457
1188.20 0.1074289
1188.30 0.1074008
1188.40 0.1073726
1188.50 0.1073445
1188.60 0.1073164
1188.70 0.1072883
1188.80 0.1072602
1188.90 0.1072321
1189.00 0.107204
1189.10 0.1071759
1189.20 0.1071478
1189.30 0.1071198
1189.40 0.1070917
1189.50 0.1070637
1189.60 0.1070356
1189.70 0.1070076
1189.80 0.1069796
1189.90 0.1069515
1190.00 0.1069235
1190.10 0.1068955
1190.20 0.1068675
1190.30 0.1068396
1190.40 0.1068116
1190.50 0.1067836
1190.60 0.1067557
1190.70 0.1067277
1190.80 0.1066998
1190.90 0.1066718
1191.00 0.1066439
1191.10 0.106616
1191.20 0.1065881
1191.30 0.1065601
1191.40 0.1065321
1191.50 0.1065031
1191.60 0.1064741
1191.70 0.1064451
1191.80 0.1064161
1191.90 0.1063872
1192.00 0.1063582
1192.10 0.1063292
1192.20 0.1063003
1192.30 0.1062714
1192.40 0.1062424
1192.50 0.1062135
1192.60 0.1061846
1192.70 0.1061557
1192.80 0.1061268
1192.90 0.1060979
1193.00 0.106069
1193.10 0.1060402
1193.20 0.1060113
1193.30 0.1059824
1193.40 0.1059536
1193.50 0.1059248
1193.60 0.1058959
1193.70 0.1058671
1193.80 0.1058383
1193.90 0.1058095
1194.00 0.1057807
1194.10 0.1057519
1194.20 0.1057231
1194.30 0.1056944
1194.40 0.1056656
1194.50 0.1056368
1194.60 0.1056081
1194.70 0.1055793
1194.80 0.1055506
1194.90 0.1055219
1195.00 0.1054932
1195.10 0.1054645
1195.20 0.1054358
1195.30 0.1054071
1195.40 0.1053784
1195.50 0.1053497
1195.60 0.105321
1195.70 0.1052924
1195.80 0.1052637
1195.90 0.1052351
1196.00 0.1052065
1196.10 0.1051778
1196.20 0.1051492
1196.30 0.1051206
1196.40 0.105092
1196.50 0.1050634
1196.60 0.1050348
1196.70 0.1050062
1196.80 0.1049777
1196.90 0.1049491
1197.00 0.1049206
1197.10 0.104892
1197.20 0.1048635
1197.30 0.104835
1197.40 0.1048065
1197.50 0.1047781
1197.60 0.1047497
1197.70 0.1047213
1197.80 0.104693
1197.90 0.1046646
1198.00 0.1046362
1198.10 0.1046079
1198.20 0.1045795
1198.30 0.1045512
1198.40 0.1045229
1198.50 0.1044945
1198.60 0.1044662
1198.70 0.1044379
1198.80 0.1044096
1198.90 0.1043813
1199.00 0.104353
1199.10 0.1043248
1199.20 0.1042965
1199.30 0.1042682
1199.40 0.10424
1199.50 0.1042117
1199.60 0.1041835
1199.70 0.1041553
1199.80 0.1041271
1199.90 0.1040989
1200.00 0.1040707
