# Version 2.1 - nm, norm@500 to 1, cut digits, bergeron_He_3500_80.dat_3500
# Wavelength(nm)  Flambda(ergs/cm^s/s/nm)
300.00 0.01141955
300.10 0.01146681
300.20 0.01151429
300.30 0.01156188
300.40 0.0116106
300.50 0.01165925
300.60 0.01170783
300.70 0.01175635
300.80 0.01180479
300.90 0.01185317
301.00 0.01190149
301.10 0.01194973
301.20 0.01199791
301.30 0.01204603
301.40 0.01209408
301.50 0.01214206
301.60 0.01218997
301.70 0.01223782
301.80 0.0122856
301.90 0.01233332
302.00 0.01238097
302.10 0.01243192
302.20 0.01248317
302.30 0.01253436
302.40 0.01258547
302.50 0.01263652
302.60 0.01268749
302.70 0.0127384
302.80 0.01278923
302.90 0.01283999
303.00 0.01289069
303.10 0.01294131
303.20 0.01299187
303.30 0.01304262
303.40 0.01309572
303.50 0.01314875
303.60 0.0132017
303.70 0.01325458
303.80 0.01330739
303.90 0.01336013
304.00 0.01341279
304.10 0.01346538
304.20 0.0135179
304.30 0.01357035
304.40 0.01362273
304.50 0.01367503
304.60 0.0137308
304.70 0.01378689
304.80 0.01384291
304.90 0.01389884
305.00 0.0139547
305.10 0.01401049
305.20 0.0140662
305.30 0.01412183
305.40 0.01417738
305.50 0.01423287
305.60 0.01428827
305.70 0.0143436
305.80 0.01439885
305.90 0.01445403
306.00 0.01450914
306.10 0.01456416
306.20 0.01461912
306.30 0.014674
306.40 0.01473308
306.50 0.01479336
306.60 0.01485356
306.70 0.01491368
306.80 0.01497371
306.90 0.01503367
307.00 0.01509354
307.10 0.01515333
307.20 0.01521304
307.30 0.01527267
307.40 0.01533222
307.50 0.01539169
307.60 0.01545108
307.70 0.01551038
307.80 0.01556961
307.90 0.01562876
308.00 0.01568782
308.10 0.01574681
308.20 0.01580572
308.30 0.01586455
308.40 0.01592329
308.50 0.01598196
308.60 0.01604055
308.70 0.01609906
308.80 0.0161582
308.90 0.01621926
309.00 0.01628183
309.10 0.01634432
309.20 0.01640672
309.30 0.01646904
309.40 0.01653152
309.50 0.01659545
309.60 0.0166593
309.70 0.01672305
309.80 0.01678673
309.90 0.01685031
310.00 0.01691381
310.10 0.01697723
310.20 0.01704056
310.30 0.01710381
310.40 0.01716821
310.50 0.01723389
310.60 0.01729948
310.70 0.01736498
310.80 0.01743039
310.90 0.01749571
311.00 0.01756189
311.10 0.01762798
311.20 0.01769399
311.30 0.0177604
311.40 0.01782814
311.50 0.01789578
311.60 0.01796334
311.70 0.01803081
311.80 0.01809819
311.90 0.01816547
312.00 0.01823267
312.10 0.01829978
312.20 0.01836617
312.30 0.01843446
312.40 0.01850378
312.50 0.01857359
312.60 0.01864281
312.70 0.01871195
312.80 0.01878099
312.90 0.01885047
313.00 0.01892044
313.10 0.01899031
313.20 0.01906009
313.30 0.01913037
313.40 0.01920224
313.50 0.01927401
313.60 0.01934568
313.70 0.01941726
313.80 0.01948875
313.90 0.01956014
314.00 0.01963143
314.10 0.01970452
314.20 0.01977751
314.30 0.0198504
314.40 0.0199232
314.50 0.0199959
314.60 0.0200685
314.70 0.02014101
314.80 0.02021441
314.90 0.02028961
315.00 0.02036373
315.10 0.02043865
315.20 0.02051347
315.30 0.0205882
315.40 0.02066283
315.50 0.02073735
315.60 0.02081178
315.70 0.02088796
315.80 0.02096404
315.90 0.02104002
316.00 0.0211159
316.10 0.02119352
316.20 0.02127104
316.30 0.02134723
316.40 0.02142455
316.50 0.02150176
316.60 0.0215801
316.70 0.02165834
316.80 0.02173647
316.90 0.02181511
317.00 0.02189365
317.10 0.02197208
317.20 0.02205041
317.30 0.02213048
317.40 0.02221059
317.50 0.022291
317.60 0.02237131
317.70 0.02245151
317.80 0.02253161
317.90 0.02261181
318.00 0.02269329
318.10 0.02277433
318.20 0.02285526
318.30 0.02293608
318.40 0.02301727
318.50 0.0230997
318.60 0.02318202
318.70 0.02326424
318.80 0.02334779
318.90 0.02343076
319.00 0.02351327
319.10 0.02359747
319.20 0.02368156
319.30 0.02376554
319.40 0.02384942
319.50 0.02393319
319.60 0.0240192
319.70 0.02410275
319.80 0.02418619
319.90 0.02426952
320.00 0.02435734
320.10 0.02445002
320.20 0.02453628
320.30 0.02461205
320.40 0.0246996
320.50 0.02478943
320.60 0.02488202
320.70 0.02496206
320.80 0.02504772
320.90 0.02513948
321.00 0.02523112
321.10 0.02532264
321.20 0.0254132
321.30 0.02550032
321.40 0.02558733
321.50 0.02567423
321.60 0.02576101
321.70 0.02584768
321.80 0.02593885
321.90 0.02603488
322.00 0.02612281
322.10 0.02621558
322.20 0.02630823
322.30 0.02640075
322.40 0.02649316
322.50 0.02658544
322.60 0.02667761
322.70 0.02676965
322.80 0.02686193
322.90 0.02695621
323.00 0.02705037
323.10 0.02714441
323.20 0.02723833
323.30 0.02733212
323.40 0.0274258
323.50 0.02751935
323.60 0.02761278
323.70 0.02770609
323.80 0.02779928
323.90 0.02789235
324.00 0.02798778
324.10 0.02808309
324.20 0.02817827
324.30 0.02827524
324.40 0.02837501
324.50 0.0284719
324.60 0.02856866
324.70 0.0286653
324.80 0.02876182
324.90 0.02885821
325.00 0.02895448
325.10 0.02905063
325.20 0.02914906
325.30 0.02925249
325.40 0.02935579
325.50 0.02945698
325.60 0.02955565
325.70 0.02965418
325.80 0.02975259
325.90 0.02985282
326.00 0.02995503
326.10 0.03005711
326.20 0.03015906
326.30 0.03026293
326.40 0.03037251
326.50 0.03047613
326.60 0.03057962
326.70 0.03068298
326.80 0.0307862
326.90 0.03088929
327.00 0.03099225
327.10 0.03109508
327.20 0.03119778
327.30 0.03130034
327.40 0.03140278
327.50 0.03150508
327.60 0.03160725
327.70 0.0317093
327.80 0.03181121
327.90 0.03191872
328.00 0.03203001
328.10 0.03213838
328.20 0.03224661
328.30 0.03235471
328.40 0.03246266
328.50 0.03257104
328.60 0.03267941
328.70 0.03278764
328.80 0.03289647
328.90 0.03300725
329.00 0.03311788
329.10 0.03322837
329.20 0.03333873
329.30 0.03344894
329.40 0.03355901
329.50 0.03366895
329.60 0.03377874
329.70 0.03388839
329.80 0.03399791
329.90 0.03410728
330.00 0.03421944
330.10 0.03433502
330.20 0.03445045
330.30 0.03456574
330.40 0.0346812
330.50 0.03479684
330.60 0.03491234
330.70 0.0350277
330.80 0.03514291
330.90 0.03525797
331.00 0.03537289
331.10 0.03548767
331.20 0.03560229
331.30 0.03571678
331.40 0.03583112
331.50 0.03594481
331.60 0.03605773
331.70 0.03617052
331.80 0.03629048
331.90 0.03641059
332.00 0.03653055
332.10 0.03665037
332.20 0.03677003
332.30 0.03688954
332.40 0.0370089
332.50 0.03712811
332.60 0.03724716
332.70 0.03736607
332.80 0.03748483
332.90 0.03760344
333.00 0.03772191
333.10 0.03784255
333.20 0.0379659
333.30 0.03808909
333.40 0.03821213
333.50 0.03833502
333.60 0.03845775
333.70 0.03858032
333.80 0.03870275
333.90 0.03882501
334.00 0.03894713
334.10 0.0390714
334.20 0.03919834
334.30 0.03932513
334.40 0.03945175
334.50 0.03957821
334.60 0.03970452
334.70 0.03982966
334.80 0.03995465
334.90 0.0400813
335.00 0.04020778
335.10 0.04032804
335.20 0.04045705
335.30 0.04059081
335.40 0.04071677
335.50 0.04084802
335.60 0.04097366
335.70 0.04109968
335.80 0.04122773
335.90 0.04135807
336.00 0.04149123
336.10 0.04162424
336.20 0.04175707
336.30 0.04189056
336.40 0.04202487
336.50 0.04215902
336.60 0.042293
336.70 0.04242681
336.80 0.04256046
336.90 0.04269243
337.00 0.04282239
337.10 0.04295218
337.20 0.04308182
337.30 0.04321459
337.40 0.04335194
337.50 0.04348911
337.60 0.04362611
337.70 0.04376295
337.80 0.04389961
337.90 0.04403618
338.00 0.04417267
338.10 0.044309
338.20 0.04444515
338.30 0.04458114
338.40 0.04471828
338.50 0.04485847
338.60 0.0449985
338.70 0.04513835
338.80 0.04527803
338.90 0.04541753
339.00 0.04555687
339.10 0.04569603
339.20 0.04583501
339.30 0.04597727
339.40 0.0461243
339.50 0.04627007
339.60 0.04641437
339.70 0.04655849
339.80 0.04670243
339.90 0.04684619
340.00 0.04698978
340.10 0.04713319
340.20 0.04727642
340.30 0.04741948
340.40 0.04756236
340.50 0.04770506
340.60 0.04784759
340.70 0.04798995
340.80 0.04813751
340.90 0.04829265
341.00 0.04844475
341.10 0.04859321
341.20 0.04874148
341.30 0.04888957
341.40 0.04903748
341.50 0.0491852
341.60 0.04933275
341.70 0.04948011
341.80 0.0496282
341.90 0.04977721
342.00 0.04992604
342.10 0.05007468
342.20 0.05022956
342.30 0.05038698
342.40 0.05053926
342.50 0.0506925
342.60 0.05084554
342.70 0.0509984
342.80 0.05115107
342.90 0.05130355
343.00 0.05145759
343.10 0.05161359
343.20 0.05176939
343.30 0.051925
343.40 0.05208118
343.50 0.05223827
343.60 0.05239516
343.70 0.05255187
343.80 0.05270838
343.90 0.0528647
344.00 0.05302083
344.10 0.05317677
344.20 0.05333252
344.30 0.05348809
344.40 0.0536477
344.50 0.05381323
344.60 0.05396211
344.70 0.05412673
344.80 0.05429219
344.90 0.0544466
345.00 0.05461723
345.10 0.05478157
345.20 0.05494537
345.30 0.05510847
345.40 0.05527138
345.50 0.05542663
345.60 0.05558111
345.70 0.0557477
345.80 0.05591408
345.90 0.05608026
346.00 0.05624624
346.10 0.05641201
346.20 0.05657871
346.30 0.05674682
346.40 0.05691472
346.50 0.05708242
346.60 0.05724992
346.70 0.05741721
346.80 0.0575843
346.90 0.05775119
347.00 0.05791788
347.10 0.05808437
347.20 0.05825375
347.30 0.05842738
347.40 0.0586008
347.50 0.05877402
347.60 0.05894702
347.70 0.05911981
347.80 0.0592924
347.90 0.05946478
348.00 0.05963695
348.10 0.05980891
348.20 0.05998067
348.30 0.06015222
348.40 0.06032356
348.50 0.06049469
348.60 0.06066562
348.70 0.06085079
348.80 0.06103606
348.90 0.06121502
349.00 0.06139377
349.10 0.0615723
349.20 0.06175061
349.30 0.06192872
349.40 0.0621066
349.50 0.06228428
349.60 0.06246174
349.70 0.06263899
349.80 0.06281602
349.90 0.06299284
350.00 0.06316945
350.10 0.06334585
350.20 0.06352204
350.30 0.06370237
350.40 0.06388877
350.50 0.06407493
350.60 0.06426088
350.70 0.0644466
350.80 0.0646321
350.90 0.06481738
351.00 0.06500244
351.10 0.06518728
351.20 0.06537189
351.30 0.06555629
351.40 0.06574138
351.50 0.0659279
351.60 0.06611419
351.70 0.06630026
351.80 0.06648611
351.90 0.06667173
352.00 0.06685714
352.10 0.06704232
352.20 0.06722994
352.30 0.06742011
352.40 0.06761361
352.50 0.06780688
352.60 0.06799991
352.70 0.06819272
352.80 0.0683853
352.90 0.06857765
353.00 0.06876977
353.10 0.06896166
353.20 0.06915332
353.30 0.06934475
353.40 0.06953596
353.50 0.06973045
353.60 0.06992558
353.70 0.07012048
353.80 0.07031514
353.90 0.07051208
354.00 0.07071321
354.10 0.07091411
354.20 0.07111477
354.30 0.07131519
354.40 0.07151537
354.50 0.07171532
354.60 0.07191503
354.70 0.0721145
354.80 0.07231338
354.90 0.07251149
355.00 0.07270936
355.10 0.07290701
355.20 0.07310442
355.30 0.07330712
355.40 0.07350958
355.50 0.07371181
355.60 0.0739138
355.70 0.07412019
355.80 0.07432842
355.90 0.07453378
356.00 0.0747423
356.10 0.07495258
356.20 0.07516262
356.30 0.07537241
356.40 0.07558195
356.50 0.07579124
356.60 0.07600029
356.70 0.07620909
356.80 0.07641765
356.90 0.07662596
357.00 0.07683402
357.10 0.07704184
357.20 0.07724941
357.30 0.07745674
357.40 0.07766436
357.50 0.07787266
357.60 0.07808071
357.70 0.07828852
357.80 0.07850647
357.90 0.07872417
358.00 0.07894107
358.10 0.07915759
358.20 0.07937385
358.30 0.07958986
358.40 0.07980562
358.50 0.08002112
358.60 0.08023637
358.70 0.08045137
358.80 0.08066612
358.90 0.08088061
359.00 0.08109691
359.10 0.08131661
359.20 0.08153564
359.30 0.08175164
359.40 0.08196739
359.50 0.08219128
359.60 0.08241701
359.70 0.08264247
359.80 0.08286253
359.90 0.08308233
360.00 0.08330409
360.10 0.08352951
360.20 0.08375467
360.30 0.08397957
360.40 0.08420421
360.50 0.08442858
360.60 0.08465316
360.70 0.08488005
360.80 0.08510668
360.90 0.08533304
361.00 0.08555768
361.10 0.08578397
361.20 0.0860064
361.30 0.08624865
361.40 0.08646523
361.50 0.08669847
361.60 0.08693238
361.70 0.08716602
361.80 0.08739834
361.90 0.0876285
362.00 0.0878584
362.10 0.08808413
362.20 0.08831231
362.30 0.0885468
362.40 0.08878102
362.50 0.08901496
362.60 0.08924864
362.70 0.08948422
362.80 0.08972941
362.90 0.0899677
363.00 0.09020571
363.10 0.09043691
363.20 0.09066777
363.30 0.09091596
363.40 0.091145
363.50 0.09139237
363.60 0.09162087
363.70 0.09186356
363.80 0.09211421
363.90 0.09235515
364.00 0.09259581
364.10 0.09283619
364.20 0.0930763
364.30 0.09331377
364.40 0.09355039
364.50 0.09379789
364.60 0.09404119
364.70 0.0942842
364.80 0.09452693
364.90 0.09477959
365.00 0.09503196
365.10 0.09527482
365.20 0.0955174
365.30 0.0957689
365.40 0.09602012
365.50 0.09626185
365.60 0.0965033
365.70 0.09675951
365.80 0.09701542
365.90 0.09726066
366.00 0.09750302
366.10 0.09775603
366.20 0.09800876
366.30 0.09826119
366.40 0.09851334
366.50 0.09877053
366.60 0.09903055
366.70 0.09928107
366.80 0.0995313
366.90 0.099784
367.00 0.1000413
367.10 0.1002983
367.20 0.100555
367.30 0.1008115
367.40 0.1010676
367.50 0.1013254
367.60 0.1015834
367.70 0.1018438
367.80 0.1021039
367.90 0.1023637
368.00 0.1026236
368.10 0.1028821
368.20 0.1031468
368.30 0.1034113
368.40 0.1036754
368.50 0.1039393
368.60 0.1042029
368.70 0.1044661
368.80 0.1047291
368.90 0.1049928
369.00 0.1052556
369.10 0.1055174
369.20 0.1057879
369.30 0.1060549
369.40 0.1063216
369.50 0.1065879
369.60 0.1068524
369.70 0.1071166
369.80 0.1073888
369.90 0.1076607
370.00 0.1079324
370.10 0.1082121
370.20 0.1084767
370.30 0.1087407
370.40 0.1090219
370.50 0.1092944
370.60 0.1095661
370.70 0.1098324
370.80 0.110111
370.90 0.1103893
371.00 0.1106618
371.10 0.1109338
371.20 0.1112112
371.30 0.1114882
371.40 0.1117683
371.50 0.1120496
371.60 0.1123306
371.70 0.1126112
371.80 0.1128916
371.90 0.1131716
372.00 0.1134464
372.10 0.1137277
372.20 0.1140095
372.30 0.1142909
372.40 0.1145721
372.50 0.1148529
372.60 0.1151334
372.70 0.1154136
372.80 0.1157035
372.90 0.1159931
373.00 0.116277
373.10 0.1165606
373.20 0.116851
373.30 0.117141
373.40 0.1174307
373.50 0.1177113
373.60 0.1179915
373.70 0.1182978
373.80 0.1185807
373.90 0.1188743
374.00 0.1191664
374.10 0.1194582
374.20 0.1197497
374.30 0.1200408
374.40 0.1203273
374.50 0.1206271
374.60 0.1209228
374.70 0.1212179
374.80 0.1215126
374.90 0.1218071
375.00 0.1221032
375.10 0.122399
375.20 0.1226945
375.30 0.1229929
375.40 0.123291
375.50 0.1235888
375.60 0.1238862
375.70 0.1241833
375.80 0.1244801
375.90 0.1247766
376.00 0.1250888
376.10 0.1253894
376.20 0.1256896
376.30 0.1259895
376.40 0.1262891
376.50 0.1265924
376.60 0.1269015
376.70 0.1272103
376.80 0.1275183
376.90 0.1278256
377.00 0.1281325
377.10 0.1284391
377.20 0.1287459
377.30 0.129054
377.40 0.1293618
377.50 0.1296692
377.60 0.1299789
377.70 0.1302882
377.80 0.1305972
377.90 0.1309059
378.00 0.1312141
378.10 0.1315305
378.20 0.1318467
378.30 0.1321625
378.40 0.1324779
378.50 0.132793
378.60 0.1331077
378.70 0.1334221
378.80 0.1337362
378.90 0.1340529
379.00 0.1343749
379.10 0.1346938
379.20 0.1350124
379.30 0.1353315
379.40 0.1356511
379.50 0.1359703
379.60 0.1362877
379.70 0.136605
379.80 0.1369309
379.90 0.1372565
380.00 0.1375817
380.10 0.1379065
380.20 0.138231
380.30 0.1385551
380.40 0.1388789
380.50 0.1392023
380.60 0.1395309
380.70 0.1398583
380.80 0.1401853
380.90 0.140512
381.00 0.1408383
381.10 0.1411662
381.20 0.1414909
381.30 0.1418261
381.40 0.142155
381.50 0.1424874
381.60 0.1428212
381.70 0.1431541
381.80 0.1434848
381.90 0.143814
382.00 0.1441428
382.10 0.1444881
382.20 0.1448128
382.30 0.1451489
382.40 0.1454852
382.50 0.1458218
382.60 0.146158
382.70 0.1464952
382.80 0.1468352
382.90 0.1471765
383.00 0.1475174
383.10 0.1478579
383.20 0.1481978
383.30 0.1485362
383.40 0.14888
383.50 0.149232
383.60 0.1495764
383.70 0.1499228
383.80 0.1502688
383.90 0.1506145
384.00 0.1509597
384.10 0.1513046
384.20 0.1516491
384.30 0.1519932
384.40 0.1523387
384.50 0.1526856
384.60 0.1530321
384.70 0.1533783
384.80 0.1537279
384.90 0.1540858
385.00 0.1544326
385.10 0.1547795
385.20 0.15514
385.30 0.1554879
385.40 0.1558392
385.50 0.1561938
385.60 0.1565481
385.70 0.1569019
385.80 0.1572574
385.90 0.1576197
386.00 0.1579762
386.10 0.1583274
386.20 0.1586843
386.30 0.1590408
386.40 0.1594018
386.50 0.159761
386.60 0.1601268
386.70 0.1604835
386.80 0.160848
386.90 0.1612162
387.00 0.1615681
387.10 0.1619355
387.20 0.1623024
387.30 0.1626692
387.40 0.1630342
387.50 0.1633986
387.60 0.1637994
387.70 0.1641644
387.80 0.164529
387.90 0.1648933
388.00 0.1652425
388.10 0.1656169
388.20 0.1660149
388.30 0.1663433
388.40 0.1666712
388.50 0.1670541
388.60 0.1675115
388.70 0.1678052
388.80 0.1681815
388.90 0.1686027
389.00 0.1689453
389.10 0.1692993
389.20 0.1697101
389.30 0.1700724
389.40 0.1704836
389.50 0.1708584
389.60 0.1712116
389.70 0.1716543
389.80 0.1720337
389.90 0.1724128
390.00 0.1727914
390.10 0.1731696
390.20 0.1735474
390.30 0.1739191
390.40 0.1742842
390.50 0.1746488
390.60 0.175013
390.70 0.1753768
390.80 0.1757409
390.90 0.1761052
391.00 0.1765855
391.10 0.176963
391.20 0.1773331
391.30 0.1776986
391.40 0.178089
391.50 0.1784789
391.60 0.1788684
391.70 0.1792575
391.80 0.1796462
391.90 0.1800196
392.00 0.1803906
392.10 0.1807829
392.20 0.1811799
392.30 0.1816296
392.40 0.1820721
392.50 0.1824771
392.60 0.1827827
392.70 0.1832472
392.80 0.183552
392.90 0.1840064
393.00 0.1844205
393.10 0.1848122
393.20 0.1851803
393.30 0.1855627
393.40 0.1859811
393.50 0.1863818
393.60 0.1867972
393.70 0.1871601
393.80 0.1876267
393.90 0.1880065
394.00 0.1883891
394.10 0.1887904
394.20 0.1891762
394.30 0.1895957
394.40 0.1900538
394.50 0.1903919
394.60 0.1908244
394.70 0.1912516
394.80 0.1916609
394.90 0.1920697
395.00 0.1924755
395.10 0.192868
395.20 0.1932742
395.30 0.1936886
395.40 0.1941026
395.50 0.1945154
395.60 0.1949277
395.70 0.1953482
395.80 0.195792
395.90 0.1962354
396.00 0.1966639
396.10 0.1969914
396.20 0.1974398
396.30 0.1978454
396.40 0.1982929
396.50 0.1987145
396.60 0.1991864
396.70 0.1995351
396.80 0.1999923
396.90 0.2004333
397.00 0.2007845
397.10 0.2012027
397.20 0.2016559
397.30 0.20217
397.40 0.2025575
397.50 0.2029446
397.60 0.2033369
397.70 0.2037855
397.80 0.2042336
397.90 0.2046824
398.00 0.2051335
398.10 0.2055841
398.20 0.2060129
398.30 0.2064173
398.40 0.2068238
398.50 0.2073151
398.60 0.2077358
398.70 0.2081351
398.80 0.2085352
398.90 0.2089585
399.00 0.2094254
399.10 0.2098341
399.20 0.2102948
399.30 0.210755
399.40 0.2112147
399.50 0.2116739
399.60 0.2121028
399.70 0.2125202
399.80 0.2129372
399.90 0.2133537
400.00 0.2137718
400.10 0.2142553
400.20 0.2146762
400.30 0.2150968
400.40 0.2155346
400.50 0.2159779
400.60 0.2164702
400.70 0.2169743
400.80 0.2174365
400.90 0.2177618
401.00 0.2182083
401.10 0.2187417
401.20 0.2192149
401.30 0.2196932
401.40 0.22015
401.50 0.2206048
401.60 0.2210563
401.70 0.2214147
401.80 0.2219088
401.90 0.2223269
402.00 0.2227475
402.10 0.2232281
402.20 0.2237445
402.30 0.2241562
402.40 0.2246199
402.50 0.2250595
402.60 0.2255703
402.70 0.2260481
402.80 0.2264659
402.90 0.2269135
403.00 0.227406
403.10 0.2278678
403.20 0.2283732
403.30 0.2287248
403.40 0.2292109
403.50 0.2297213
403.60 0.2302192
403.70 0.2306584
403.80 0.2311623
403.90 0.2315612
404.00 0.2319942
404.10 0.2324588
404.20 0.2329454
404.30 0.2334314
404.40 0.2339305
404.50 0.2343268
404.60 0.2348864
404.70 0.2353704
404.80 0.2357257
404.90 0.2363368
405.00 0.2367227
405.10 0.2371729
405.20 0.2376438
405.30 0.2381141
405.40 0.2385946
405.50 0.2390746
405.60 0.2395542
405.70 0.2400332
405.80 0.2405117
405.90 0.2409897
406.00 0.2414708
406.10 0.2419514
406.20 0.2424316
406.30 0.2429112
406.40 0.2434021
406.50 0.2438862
406.60 0.2443962
406.70 0.2448609
406.80 0.2453785
406.90 0.2459091
407.00 0.2463964
407.10 0.2468832
407.20 0.2473695
407.30 0.2478553
407.40 0.2483405
407.50 0.2488253
407.60 0.2493095
407.70 0.2497933
407.80 0.2502765
407.90 0.2507605
408.00 0.2512828
408.10 0.2517494
408.20 0.2521993
408.30 0.2526998
408.40 0.2531999
408.50 0.2536859
408.60 0.2542238
408.70 0.254761
408.80 0.2552808
408.90 0.2556967
409.00 0.2562201
409.10 0.2567429
409.20 0.2572652
409.30 0.257787
409.40 0.2583074
409.50 0.2588025
409.60 0.2592971
409.70 0.2597885
409.80 0.2602685
409.90 0.2607512
410.00 0.2613335
410.10 0.2618148
410.20 0.2623107
410.30 0.26281
410.40 0.263308
410.50 0.2638033
410.60 0.264298
410.70 0.2647973
410.80 0.2653168
410.90 0.2658358
411.00 0.2663626
411.10 0.2668919
411.20 0.2674208
411.30 0.2679415
411.40 0.268433
411.50 0.2689691
411.60 0.2695046
411.70 0.2700369
411.80 0.2705577
411.90 0.2710925
412.00 0.2715399
412.10 0.2721315
412.20 0.2725779
412.30 0.2731474
412.40 0.2736346
412.50 0.2741824
412.60 0.2746681
412.70 0.2751975
412.80 0.2757374
412.90 0.276288
413.00 0.2768663
413.10 0.2773893
413.20 0.2779117
413.30 0.2784337
413.40 0.278955
413.50 0.2794645
413.60 0.2799479
413.70 0.2804945
413.80 0.2810405
413.90 0.2815859
414.00 0.2821222
414.10 0.2826308
414.20 0.2831559
414.30 0.283735
414.40 0.2843134
414.50 0.2847417
414.60 0.2853256
414.70 0.2859023
414.80 0.2864699
414.90 0.2870098
415.00 0.2875491
415.10 0.2880879
415.20 0.2886235
415.30 0.2891502
415.40 0.2896763
415.50 0.2902034
415.60 0.2907775
415.70 0.2913511
415.80 0.29191
415.90 0.2924238
416.00 0.292937
416.10 0.293462
416.20 0.2940353
416.30 0.294608
416.40 0.2951801
416.50 0.2957494
416.60 0.2962444
416.70 0.2967411
416.80 0.2973088
416.90 0.2978701
417.00 0.2985034
417.10 0.2989968
417.20 0.2995593
417.30 0.3001209
417.40 0.3006748
417.50 0.3012281
417.60 0.3017859
417.70 0.302363
417.80 0.3029221
417.90 0.3034805
418.00 0.3040385
418.10 0.3045958
418.20 0.3051526
418.30 0.305709
418.40 0.3062749
418.50 0.3068444
418.60 0.3074134
418.70 0.3079817
418.80 0.3085495
418.90 0.3091168
419.00 0.3096834
419.10 0.3102495
419.20 0.310815
419.30 0.3113807
419.40 0.3119726
419.50 0.3125639
419.60 0.3131481
419.70 0.3137057
419.80 0.3142628
419.90 0.3148267
420.00 0.3154134
420.10 0.3159996
420.20 0.3165852
420.30 0.3171701
420.40 0.3177545
420.50 0.3183383
420.60 0.3189215
420.70 0.3195041
420.80 0.3200861
420.90 0.3206665
421.00 0.3212123
421.10 0.3217575
421.20 0.3223155
421.30 0.3229129
421.40 0.3235097
421.50 0.3241058
421.60 0.3247014
421.70 0.3252964
421.80 0.3258908
421.90 0.3264836
422.00 0.3270728
422.10 0.3276606
422.20 0.3282446
422.30 0.328828
422.40 0.3294116
422.50 0.3300207
422.60 0.3306293
422.70 0.3312372
422.80 0.3318445
422.90 0.3324511
423.00 0.3330572
423.10 0.3336627
423.20 0.3342675
423.30 0.3348718
423.40 0.3354754
423.50 0.3360784
423.60 0.3366808
423.70 0.3372827
423.80 0.3378839
423.90 0.3384845
424.00 0.3390845
424.10 0.3396839
424.20 0.3402827
424.30 0.3408809
424.40 0.341456
424.50 0.3420664
424.60 0.3426762
424.70 0.3432854
424.80 0.3438939
424.90 0.3445019
425.00 0.3451092
425.10 0.3457159
425.20 0.346322
425.30 0.3469275
425.40 0.3475343
425.50 0.3481528
425.60 0.3487708
425.70 0.3493881
425.80 0.3500048
425.90 0.3506208
426.00 0.3512363
426.10 0.3518511
426.20 0.3524653
426.30 0.3530789
426.40 0.3536919
426.50 0.3543043
426.60 0.3549161
426.70 0.3555272
426.80 0.3561378
426.90 0.3567485
427.00 0.3573845
427.10 0.3580199
427.20 0.3586547
427.30 0.3592888
427.40 0.3599224
427.50 0.3605552
427.60 0.3611875
427.70 0.3618191
427.80 0.3624501
427.90 0.3630804
428.00 0.3637102
428.10 0.3643393
428.20 0.3649677
428.30 0.3655956
428.40 0.3662228
428.50 0.3668494
428.60 0.3674753
428.70 0.3681007
428.80 0.3687277
428.90 0.3693838
429.00 0.3700393
429.10 0.3706942
429.20 0.3713484
429.30 0.372002
429.40 0.3726549
429.50 0.3733071
429.60 0.3739588
429.70 0.3746097
429.80 0.37526
429.90 0.3759097
430.00 0.3765588
430.10 0.3772071
430.20 0.3778549
430.30 0.378502
430.40 0.3791485
430.50 0.3797943
430.60 0.3804394
430.70 0.381084
430.80 0.3817279
430.90 0.3823711
431.00 0.3830138
431.10 0.3836557
431.20 0.3842971
431.30 0.3849397
431.40 0.3856061
431.50 0.386272
431.60 0.3869371
431.70 0.3876016
431.80 0.3882655
431.90 0.3889287
432.00 0.3895912
432.10 0.3902531
432.20 0.3909143
432.30 0.3915749
432.40 0.3922348
432.50 0.3928941
432.60 0.3935527
432.70 0.3942106
432.80 0.3948679
432.90 0.3955246
433.00 0.3961806
433.10 0.396836
433.20 0.3974907
433.30 0.3981476
433.40 0.3988416
433.50 0.3995349
433.60 0.4002275
433.70 0.4009194
433.80 0.4016017
433.90 0.4022724
434.00 0.4029417
434.10 0.4036101
434.20 0.4042778
434.30 0.4049448
434.40 0.4056111
434.50 0.4062768
434.60 0.4069419
434.70 0.4076063
434.80 0.4082721
434.90 0.408964
435.00 0.4096552
435.10 0.4103457
435.20 0.4110356
435.30 0.4117248
435.40 0.4124133
435.50 0.4131012
435.60 0.4137883
435.70 0.4144748
435.80 0.4151606
435.90 0.4158458
436.00 0.4165302
436.10 0.417214
436.20 0.4178972
436.30 0.4186072
436.40 0.419347
436.50 0.420043
436.60 0.4207384
436.70 0.421433
436.80 0.422127
436.90 0.4228203
437.00 0.423513
437.10 0.4242049
437.20 0.4248996
437.30 0.4255968
437.40 0.4262938
437.50 0.4269975
437.60 0.4277005
437.70 0.4284028
437.80 0.4291045
437.90 0.4298054
438.00 0.4305045
438.10 0.4311874
438.20 0.4318697
438.30 0.4326146
438.40 0.4332998
438.50 0.4339967
438.60 0.4346973
438.70 0.4353704
438.80 0.4360876
438.90 0.4368455
439.00 0.4374751
439.10 0.4382316
439.20 0.4389829
439.30 0.4396743
439.40 0.440365
439.50 0.441055
439.60 0.4417467
439.70 0.4424835
439.80 0.4432223
439.90 0.4439484
440.00 0.4446738
440.10 0.4453985
440.20 0.4461225
440.30 0.446845
440.40 0.4475669
440.50 0.448288
440.60 0.4490084
440.70 0.4497282
440.80 0.4504472
440.90 0.4511656
441.00 0.4518832
441.10 0.4526002
441.20 0.4533174
441.30 0.4540465
441.40 0.4547806
441.50 0.4555211
441.60 0.4562608
441.70 0.4570118
441.80 0.4577274
441.90 0.4584423
442.00 0.4591565
442.10 0.45987
442.20 0.4605828
442.30 0.4612949
442.40 0.4620184
442.50 0.4627558
442.60 0.4634925
442.70 0.4642274
442.80 0.4649644
442.90 0.4657596
443.00 0.4665105
443.10 0.4672077
443.20 0.4679352
443.30 0.4686905
443.40 0.4694321
443.50 0.4701573
443.60 0.4708974
443.70 0.4717304
443.80 0.4724534
443.90 0.4731757
444.00 0.4739254
444.10 0.4747086
444.20 0.4754163
444.30 0.4761401
444.40 0.4768755
444.50 0.4776102
444.60 0.4783519
444.70 0.4791024
444.80 0.479858
444.90 0.4806183
445.00 0.4813778
445.10 0.4821366
445.20 0.4828982
445.30 0.4836634
445.40 0.4844278
445.50 0.4851915
445.60 0.4859545
445.70 0.4867168
445.80 0.4874742
445.90 0.4882272
446.00 0.4889794
446.10 0.4897309
446.20 0.4905387
446.30 0.4912608
446.40 0.4920917
446.50 0.4928572
446.60 0.493622
446.70 0.4943861
446.80 0.4951494
446.90 0.495912
447.00 0.4966418
447.10 0.4973415
447.20 0.4981634
447.30 0.4989599
447.40 0.4997139
447.50 0.5004722
447.60 0.5012229
447.70 0.5019668
447.80 0.5028123
447.90 0.5036031
448.00 0.5043853
448.10 0.5051595
448.20 0.505933
448.30 0.5067057
448.40 0.5074776
448.50 0.5082489
448.60 0.5090192
448.70 0.5097885
448.80 0.5105576
448.90 0.511333
449.00 0.5121077
449.10 0.5128816
449.20 0.5136548
449.30 0.5144636
449.40 0.5152648
449.50 0.5160653
449.60 0.5168593
449.70 0.5176472
449.80 0.5184345
449.90 0.519221
450.00 0.5200067
450.10 0.5207917
450.20 0.5215759
450.30 0.5223594
450.40 0.5231569
450.50 0.5239537
450.60 0.5247497
450.70 0.525545
450.80 0.5263395
450.90 0.5271333
451.00 0.5279224
451.10 0.5287108
451.20 0.5294948
451.30 0.5303008
451.40 0.5310908
451.50 0.53188
451.60 0.5326685
451.70 0.5335165
451.80 0.5343034
451.90 0.5351498
452.00 0.5359352
452.10 0.5367199
452.20 0.5375339
452.30 0.5383471
452.40 0.5391595
452.50 0.5399712
452.60 0.5407862
452.70 0.5415906
452.80 0.5423854
452.90 0.5431794
453.00 0.5439727
453.10 0.5447652
453.20 0.5455841
453.30 0.5464022
453.40 0.5472195
453.50 0.5480361
453.60 0.5488519
453.70 0.5496669
453.80 0.5504881
453.90 0.5513172
454.00 0.5521454
454.10 0.5529729
454.20 0.5537943
454.30 0.554615
454.40 0.5554349
454.50 0.556254
454.60 0.5570724
454.70 0.5578954
454.80 0.5587228
454.90 0.5595494
455.00 0.5603751
455.10 0.5612002
455.20 0.5620244
455.30 0.5628478
455.40 0.5636705
455.50 0.5644924
455.60 0.5653135
455.70 0.5661339
455.80 0.5669635
455.90 0.5677923
456.00 0.5686204
456.10 0.5694506
456.20 0.5702882
456.30 0.571125
456.40 0.571961
456.50 0.5727962
456.60 0.5736307
456.70 0.5744643
456.80 0.5752972
456.90 0.5761292
457.00 0.5769605
457.10 0.577791
457.20 0.5786456
457.30 0.5794943
457.40 0.5803421
457.50 0.5811892
457.60 0.5820355
457.70 0.5828809
457.80 0.5837256
457.90 0.5845695
458.00 0.5854126
458.10 0.5862549
458.20 0.5870964
458.30 0.5879372
458.40 0.5887771
458.50 0.5896162
458.60 0.5904546
458.70 0.5913133
458.80 0.5921799
458.90 0.5930456
459.00 0.5939105
459.10 0.5947746
459.20 0.5956379
459.30 0.5965002
459.40 0.5973616
459.50 0.5982223
459.60 0.5990821
459.70 0.5999411
459.80 0.6007994
459.90 0.6016568
460.00 0.6025134
460.10 0.6033692
460.20 0.6042242
460.30 0.6050785
460.40 0.6059319
460.50 0.6067845
460.60 0.6076363
460.70 0.6085067
460.80 0.6093857
460.90 0.6102639
461.00 0.6111413
461.10 0.6120178
461.20 0.6128563
461.30 0.6136787
461.40 0.6145535
461.50 0.6154408
461.60 0.6163272
461.70 0.6172129
461.80 0.6180904
461.90 0.6189672
462.00 0.6198431
462.10 0.6207182
462.20 0.6215925
462.30 0.622466
462.40 0.6233386
462.50 0.6242105
462.60 0.6250815
462.70 0.6259518
462.80 0.6268212
462.90 0.6276898
463.00 0.6285576
463.10 0.6294246
463.20 0.6303065
463.30 0.631194
463.40 0.6320806
463.50 0.6329665
463.60 0.6338515
463.70 0.6347357
463.80 0.635619
463.90 0.6365134
464.00 0.6374099
464.10 0.6383056
464.20 0.6392004
464.30 0.6400944
464.40 0.6409875
464.50 0.6418799
464.60 0.6427714
464.70 0.6436662
464.80 0.6445619
464.90 0.6454568
465.00 0.6463508
465.10 0.647244
465.20 0.6481364
465.30 0.6490303
465.40 0.6499249
465.50 0.6508186
465.60 0.6517115
465.70 0.6526036
465.80 0.6534949
465.90 0.6544006
466.00 0.6553092
466.10 0.6562171
466.20 0.6571241
466.30 0.6580372
466.40 0.6589523
466.50 0.6598666
466.60 0.66078
466.70 0.6616925
466.80 0.6626043
466.90 0.6635151
467.00 0.6644252
467.10 0.6653344
467.20 0.6662428
467.30 0.6670936
467.40 0.6680028
467.50 0.6689318
467.60 0.6698599
467.70 0.6707872
467.80 0.6717136
467.90 0.6726347
468.00 0.6735532
468.10 0.6744708
468.20 0.6753876
468.30 0.6762837
468.40 0.6771708
468.50 0.6781041
468.60 0.6790609
468.70 0.6798994
468.80 0.6808308
468.90 0.6817446
469.00 0.6826832
469.10 0.6836207
469.20 0.6845569
469.30 0.6854923
469.40 0.6864269
469.50 0.6873618
469.60 0.6882963
469.70 0.68923
469.80 0.6901628
469.90 0.6910921
470.00 0.6920159
470.10 0.6929446
470.20 0.6938721
470.30 0.6947988
470.40 0.6957246
470.50 0.6966495
470.60 0.6975738
470.70 0.6984972
470.80 0.6994198
470.90 0.7003416
471.00 0.7012633
471.10 0.7022692
471.20 0.703124
471.30 0.70407
471.40 0.7050705
471.50 0.7059871
471.60 0.706925
471.70 0.7078952
471.80 0.7088424
471.90 0.7097832
472.00 0.7107232
472.10 0.7116623
472.20 0.7126133
472.30 0.7135667
472.40 0.7145191
472.50 0.7154707
472.60 0.7164215
472.70 0.7173397
472.80 0.7182802
472.90 0.7192289
473.00 0.7201767
473.10 0.7211237
473.20 0.7220698
473.30 0.7230151
473.40 0.7239595
473.50 0.724903
473.60 0.7258456
473.70 0.7267874
473.80 0.7277578
473.90 0.7287346
474.00 0.7297106
474.10 0.7306856
474.20 0.7316393
474.30 0.7325837
474.40 0.7335273
474.50 0.73447
474.60 0.7354151
474.70 0.7363915
474.80 0.7373671
474.90 0.7383417
475.00 0.7393155
475.10 0.7402884
475.20 0.7412604
475.30 0.7422316
475.40 0.7431971
475.50 0.7441606
475.60 0.7451232
475.70 0.7460849
475.80 0.7470458
475.90 0.7480058
476.00 0.7489649
476.10 0.7499232
476.20 0.7508901
476.30 0.75186
476.40 0.7528291
476.50 0.7537972
476.60 0.7547645
476.70 0.7557309
476.80 0.7566965
476.90 0.7576818
477.00 0.7586714
477.10 0.7596601
477.20 0.760648
477.30 0.7616349
477.40 0.7626209
477.50 0.7636061
477.60 0.7645903
477.70 0.7655737
477.80 0.7665561
477.90 0.7675377
478.00 0.7685184
478.10 0.7694982
478.20 0.7704771
478.30 0.7714552
478.40 0.7724323
478.50 0.7734086
478.60 0.7743839
478.70 0.7753934
478.80 0.7764162
478.90 0.7774056
479.00 0.7783859
479.10 0.7793654
479.20 0.7803439
479.30 0.7813216
479.40 0.7823181
479.50 0.7833253
479.60 0.7843316
479.70 0.785337
479.80 0.7863415
479.90 0.7873451
480.00 0.7883478
480.10 0.7893496
480.20 0.7903505
480.30 0.7913504
480.40 0.7923495
480.50 0.7933477
480.60 0.794345
480.70 0.7953413
480.80 0.7963368
480.90 0.7973314
481.00 0.7983251
481.10 0.7993179
481.20 0.8003254
481.30 0.801332
481.40 0.8023377
481.50 0.8033424
481.60 0.8043463
481.70 0.8053493
481.80 0.8063514
481.90 0.8073526
482.00 0.8083528
482.10 0.8093522
482.20 0.8103524
482.30 0.8113752
482.40 0.8123971
482.50 0.813418
482.60 0.814438
482.70 0.8154571
482.80 0.8164753
482.90 0.8174926
483.00 0.8185089
483.10 0.8195244
483.20 0.8205389
483.30 0.8215525
483.40 0.8225653
483.50 0.8235771
483.60 0.824588
483.70 0.8256142
483.80 0.8266395
483.90 0.8276639
484.00 0.8286874
484.10 0.82971
484.20 0.8307408
484.30 0.8317746
484.40 0.8328075
484.50 0.8338395
484.60 0.8348706
484.70 0.8359005
484.80 0.8369273
484.90 0.8379531
485.00 0.838978
485.10 0.840002
485.20 0.841025
485.30 0.8420472
485.40 0.8430684
485.50 0.8440888
485.60 0.8451082
485.70 0.8461514
485.80 0.8471937
485.90 0.8482351
486.00 0.8492756
486.10 0.8503151
486.20 0.8513537
486.30 0.8523914
486.40 0.8534281
486.50 0.854464
486.60 0.8554989
486.70 0.856534
486.80 0.8575832
486.90 0.8586315
487.00 0.8596788
487.10 0.8607252
487.20 0.8617735
487.30 0.8628209
487.40 0.8638673
487.50 0.8649128
487.60 0.8659574
487.70 0.867001
487.80 0.8680437
487.90 0.8690855
488.00 0.8701264
488.10 0.8711663
488.20 0.8722058
488.30 0.873251
488.40 0.8742952
488.50 0.8753385
488.60 0.8763809
488.70 0.8774224
488.80 0.8784622
488.90 0.8795011
489.00 0.8805469
489.10 0.8816118
489.20 0.8826758
489.30 0.8837388
489.40 0.8848008
489.50 0.8858619
489.60 0.8869221
489.70 0.8879814
489.80 0.8890492
489.90 0.8900997
490.00 0.8911492
490.10 0.8921979
490.20 0.8932456
490.30 0.8942924
490.40 0.895358
490.50 0.8964226
490.60 0.8974863
490.70 0.8985491
490.80 0.899609
490.90 0.9006718
491.00 0.9017828
491.10 0.9028418
491.20 0.9039507
491.30 0.9050078
491.40 0.9060621
491.50 0.9071192
491.60 0.9082296
491.70 0.9093055
491.80 0.910379
491.90 0.9114324
492.00 0.912488
492.10 0.9135376
492.20 0.9146281
492.30 0.9157354
492.40 0.9167752
492.50 0.917823
492.60 0.9189689
492.70 0.9200382
492.80 0.9211065
492.90 0.9221739
493.00 0.9232414
493.10 0.9243219
493.20 0.9254014
493.30 0.92648
493.40 0.9275576
493.50 0.9286343
493.60 0.9296718
493.70 0.9307621
493.80 0.9318515
493.90 0.9329375
494.00 0.934019
494.10 0.9351051
494.20 0.9362021
494.30 0.9372982
494.40 0.9383933
494.50 0.9394875
494.60 0.9405786
494.70 0.9416405
494.80 0.9427108
494.90 0.9438069
495.00 0.944902
495.10 0.9459962
495.20 0.9470943
495.30 0.9481914
495.40 0.9492875
495.50 0.9503827
495.60 0.951477
495.70 0.9525702
495.80 0.9536626
495.90 0.9547539
496.00 0.9558443
496.10 0.9569474
496.20 0.9580753
496.30 0.9591598
496.40 0.9602433
496.50 0.9613258
496.60 0.9624074
496.70 0.9635123
496.80 0.9646162
496.90 0.9657191
497.00 0.966821
497.10 0.967922
497.20 0.9690221
497.30 0.9701206
497.40 0.9712168
497.50 0.9723121
497.60 0.9734138
497.70 0.9745304
497.80 0.9756475
497.90 0.9767636
498.00 0.9778787
498.10 0.9789928
498.20 0.9801059
498.30 0.9812181
498.40 0.9823293
498.50 0.9834395
498.60 0.9845488
498.70 0.9856359
498.80 0.986722
498.90 0.9878822
499.00 0.9890415
499.10 0.9901997
499.20 0.9911573
499.30 0.9918765
499.40 0.9931251
499.50 0.9943726
499.60 0.9956191
499.70 0.996851
499.80 0.9979016
499.90 0.9989512
500.00 1
500.10 1.001048
500.20 1.002155
500.30 1.003391
500.40 1.004625
500.50 1.005858
500.60 1.007091
500.70 1.008322
500.80 1.009502
500.90 1.010573
501.00 1.011644
501.10 1.012714
501.20 1.013757
501.30 1.01482
501.40 1.016193
501.50 1.016961
501.60 1.018313
501.70 1.019371
501.80 1.020116
501.90 1.021173
502.00 1.022315
502.10 1.023641
502.20 1.02496
502.30 1.026222
502.40 1.027415
502.50 1.028466
502.60 1.029516
502.70 1.030564
502.80 1.031612
502.90 1.032659
503.00 1.033775
503.10 1.035038
503.20 1.036299
503.30 1.03756
503.40 1.03875
503.50 1.039742
503.60 1.040733
503.70 1.041724
503.80 1.042738
503.90 1.043937
504.00 1.045153
504.10 1.046405
504.20 1.047656
504.30 1.048907
504.40 1.050099
504.50 1.051131
504.60 1.052413
504.70 1.053443
504.80 1.05464
504.90 1.0555
505.00 1.05724
505.10 1.058266
505.20 1.059297
505.30 1.060343
505.40 1.061388
505.50 1.062432
505.60 1.063515
505.70 1.06468
505.80 1.065843
505.90 1.067006
506.00 1.068168
506.10 1.069329
506.20 1.070496
506.30 1.071681
506.40 1.072865
506.50 1.074049
506.60 1.075231
506.70 1.076412
506.80 1.077592
506.90 1.078772
507.00 1.07995
507.10 1.081191
507.20 1.082502
507.30 1.083626
507.40 1.08475
507.50 1.085873
507.60 1.086995
507.70 1.088115
507.80 1.089235
507.90 1.090354
508.00 1.091472
508.10 1.092589
508.20 1.093705
508.30 1.09482
508.40 1.095934
508.50 1.097047
508.60 1.098159
508.70 1.09927
508.80 1.100454
508.90 1.101656
509.00 1.102791
509.10 1.103951
509.20 1.105168
509.30 1.106383
509.40 1.107598
509.50 1.108811
509.60 1.110023
509.70 1.111234
509.80 1.112445
509.90 1.113654
510.00 1.114862
510.10 1.116069
510.20 1.117275
510.30 1.11847
510.40 1.119636
510.50 1.1208
510.60 1.121963
510.70 1.123125
510.80 1.124287
510.90 1.125447
511.00 1.126606
511.10 1.127764
511.20 1.128922
511.30 1.130078
511.40 1.131233
511.50 1.132388
511.60 1.133541
511.70 1.134693
511.80 1.135844
511.90 1.136994
512.00 1.138142
512.10 1.13929
512.20 1.140437
512.30 1.1416
512.40 1.142809
512.50 1.144018
512.60 1.145225
512.70 1.146431
512.80 1.147636
512.90 1.14884
513.00 1.150043
513.10 1.151245
513.20 1.152446
513.30 1.153646
513.40 1.154845
513.50 1.156043
513.60 1.15724
513.70 1.158435
513.80 1.15963
513.90 1.160824
514.00 1.162034
514.10 1.163246
514.20 1.164457
514.30 1.165667
514.40 1.166876
514.50 1.168083
514.60 1.16929
514.70 1.170496
514.80 1.1717
514.90 1.172904
515.00 1.174107
515.10 1.175308
515.20 1.176509
515.30 1.177708
515.40 1.178907
515.50 1.180105
515.60 1.181301
515.70 1.182497
515.80 1.183691
515.90 1.184884
516.00 1.186077
516.10 1.187268
516.20 1.188459
516.30 1.189648
516.40 1.190837
516.50 1.19203
516.60 1.193253
516.70 1.194474
516.80 1.195695
516.90 1.196915
517.00 1.198134
517.10 1.199351
517.20 1.200568
517.30 1.201784
517.40 1.202998
517.50 1.204212
517.60 1.205424
517.70 1.206636
517.80 1.207846
517.90 1.209056
518.00 1.210264
518.10 1.211472
518.20 1.212678
518.30 1.213883
518.40 1.215088
518.50 1.216291
518.60 1.217493
518.70 1.218695
518.80 1.219895
518.90 1.221094
519.00 1.222293
519.10 1.223523
519.20 1.22479
519.30 1.226056
519.40 1.227321
519.50 1.228585
519.60 1.229847
519.70 1.231109
519.80 1.23237
519.90 1.233629
520.00 1.234888
520.10 1.236145
520.20 1.237401
520.30 1.238657
520.40 1.239911
520.50 1.241164
520.60 1.242416
520.70 1.243667
520.80 1.244917
520.90 1.246166
521.00 1.247414
521.10 1.248661
521.20 1.249907
521.30 1.251152
521.40 1.252395
521.50 1.253638
521.60 1.25488
521.70 1.25612
521.80 1.25736
521.90 1.258598
522.00 1.259836
522.10 1.261072
522.20 1.262308
522.30 1.263542
522.40 1.264775
522.50 1.266008
522.60 1.267239
522.70 1.268469
522.80 1.269698
522.90 1.270926
523.00 1.272153
523.10 1.27338
523.20 1.274605
523.30 1.275829
523.40 1.277052
523.50 1.278274
523.60 1.279494
523.70 1.280714
523.80 1.281933
523.90 1.283151
524.00 1.284368
524.10 1.285584
524.20 1.286799
524.30 1.288041
524.40 1.289306
524.50 1.290569
524.60 1.291831
524.70 1.293092
524.80 1.294352
524.90 1.295611
525.00 1.296869
525.10 1.298126
525.20 1.299382
525.30 1.300637
525.40 1.301891
525.50 1.303144
525.60 1.304395
525.70 1.305646
525.80 1.306896
525.90 1.308144
526.00 1.309392
526.10 1.310638
526.20 1.311884
526.30 1.313128
526.40 1.314371
526.50 1.315614
526.60 1.316855
526.70 1.318095
526.80 1.319335
526.90 1.320573
527.00 1.32181
527.10 1.323046
527.20 1.324281
527.30 1.325515
527.40 1.326748
527.50 1.32798
527.60 1.329211
527.70 1.330441
527.80 1.33167
527.90 1.332898
528.00 1.334125
528.10 1.33535
528.20 1.336575
528.30 1.337799
528.40 1.339022
528.50 1.340243
528.60 1.341464
528.70 1.342684
528.80 1.343902
528.90 1.34512
529.00 1.346337
529.10 1.347552
529.20 1.348767
529.30 1.349981
529.40 1.351193
529.50 1.352418
529.60 1.353727
529.70 1.355035
529.80 1.356342
529.90 1.357647
530.00 1.358952
530.10 1.360255
530.20 1.361557
530.30 1.362858
530.40 1.364159
530.50 1.365458
530.60 1.366756
530.70 1.368052
530.80 1.369348
530.90 1.370643
531.00 1.371937
531.10 1.373229
531.20 1.374521
531.30 1.375811
531.40 1.377101
531.50 1.378389
531.60 1.379676
531.70 1.380963
531.80 1.382248
531.90 1.383532
532.00 1.384815
532.10 1.386097
532.20 1.387378
532.30 1.388659
532.40 1.389938
532.50 1.391216
532.60 1.392494
532.70 1.39377
532.80 1.395045
532.90 1.396319
533.00 1.397593
533.10 1.398865
533.20 1.400136
533.30 1.401406
533.40 1.402674
533.50 1.403942
533.60 1.405209
533.70 1.406475
533.80 1.40774
533.90 1.409003
534.00 1.410266
534.10 1.411527
534.20 1.412788
534.30 1.414047
534.40 1.415306
534.50 1.416563
534.60 1.41782
534.70 1.419075
534.80 1.420341
534.90 1.421657
535.00 1.422971
535.10 1.424284
535.20 1.425597
535.30 1.426908
535.40 1.428218
535.50 1.429527
535.60 1.430835
535.70 1.432142
535.80 1.433448
535.90 1.434752
536.00 1.436056
536.10 1.437359
536.20 1.43866
536.30 1.43996
536.40 1.44126
536.50 1.442558
536.60 1.443855
536.70 1.445152
536.80 1.446447
536.90 1.447741
537.00 1.449034
537.10 1.450326
537.20 1.451616
537.30 1.452906
537.40 1.454195
537.50 1.455483
537.60 1.456769
537.70 1.458055
537.80 1.459339
537.90 1.460623
538.00 1.461905
538.10 1.463186
538.20 1.464467
538.30 1.465746
538.40 1.467024
538.50 1.468301
538.60 1.469577
538.70 1.470852
538.80 1.472126
538.90 1.473399
539.00 1.474671
539.10 1.475942
539.20 1.477212
539.30 1.47848
539.40 1.479748
539.50 1.481015
539.60 1.48228
539.70 1.483545
539.80 1.484809
539.90 1.486071
540.00 1.487333
540.10 1.488593
540.20 1.489917
540.30 1.491267
540.40 1.492615
540.50 1.493963
540.60 1.495309
540.70 1.496655
540.80 1.497999
540.90 1.499342
541.00 1.500684
541.10 1.502025
541.20 1.503364
541.30 1.504703
541.40 1.506041
541.50 1.507377
541.60 1.508713
541.70 1.510047
541.80 1.51138
541.90 1.512712
542.00 1.514043
542.10 1.515373
542.20 1.516702
542.30 1.51803
542.40 1.519357
542.50 1.520683
542.60 1.522007
542.70 1.523331
542.80 1.524653
542.90 1.525974
543.00 1.527295
543.10 1.528614
543.20 1.529932
543.30 1.531249
543.40 1.532565
543.50 1.53388
543.60 1.535194
543.70 1.536506
543.80 1.537818
543.90 1.539129
544.00 1.540438
544.10 1.541747
544.20 1.543054
544.30 1.544361
544.40 1.545666
544.50 1.54697
544.60 1.548273
544.70 1.549575
544.80 1.550876
544.90 1.552176
545.00 1.553475
545.10 1.554773
545.20 1.55607
545.30 1.557366
545.40 1.55866
545.50 1.559954
545.60 1.561276
545.70 1.562609
545.80 1.563941
545.90 1.565272
546.00 1.566602
546.10 1.567931
546.20 1.569259
546.30 1.570586
546.40 1.571911
546.50 1.573236
546.60 1.57456
546.70 1.575882
546.80 1.577203
546.90 1.578524
547.00 1.579843
547.10 1.581161
547.20 1.582478
547.30 1.583794
547.40 1.585109
547.50 1.586423
547.60 1.587736
547.70 1.589048
547.80 1.590358
547.90 1.591668
548.00 1.592977
548.10 1.594284
548.20 1.595591
548.30 1.596909
548.40 1.598244
548.50 1.599578
548.60 1.600911
548.70 1.602242
548.80 1.603573
548.90 1.604903
549.00 1.606231
549.10 1.607559
549.20 1.608885
549.30 1.61021
549.40 1.611535
549.50 1.612858
549.60 1.61418
549.70 1.615501
549.80 1.616821
549.90 1.61814
550.00 1.619457
550.10 1.620774
550.20 1.62209
550.30 1.623405
550.40 1.624718
550.50 1.626031
550.60 1.627342
550.70 1.628652
550.80 1.629962
550.90 1.63127
551.00 1.632583
551.10 1.633929
551.20 1.635273
551.30 1.636617
551.40 1.637959
551.50 1.6393
551.60 1.64064
551.70 1.64198
551.80 1.643318
551.90 1.644655
552.00 1.64599
552.10 1.647325
552.20 1.648659
552.30 1.649992
552.40 1.651323
552.50 1.652654
552.60 1.653983
552.70 1.655311
552.80 1.656639
552.90 1.657965
553.00 1.65929
553.10 1.660614
553.20 1.661937
553.30 1.663259
553.40 1.66458
553.50 1.6659
553.60 1.667219
553.70 1.668536
553.80 1.66987
553.90 1.671215
554.00 1.672559
554.10 1.673901
554.20 1.675242
554.30 1.676583
554.40 1.677922
554.50 1.67926
554.60 1.680597
554.70 1.681933
554.80 1.683268
554.90 1.684602
555.00 1.685935
555.10 1.687267
555.20 1.688597
555.30 1.689927
555.40 1.691256
555.50 1.692583
555.60 1.693909
555.70 1.695235
555.80 1.696559
555.90 1.697882
556.00 1.699204
556.10 1.700526
556.20 1.701846
556.30 1.703165
556.40 1.704482
556.50 1.705803
556.60 1.707185
556.70 1.708566
556.80 1.709946
556.90 1.711325
557.00 1.712703
557.10 1.71408
557.20 1.715455
557.30 1.71683
557.40 1.718203
557.50 1.719576
557.60 1.720947
557.70 1.722317
557.80 1.723686
557.90 1.725054
558.00 1.726421
558.10 1.727787
558.20 1.729152
558.30 1.730515
558.40 1.731878
558.50 1.733239
558.60 1.734599
558.70 1.735959
558.80 1.737317
558.90 1.738674
559.00 1.74003
559.10 1.741385
559.20 1.742739
559.30 1.744092
559.40 1.745443
559.50 1.746794
559.60 1.748144
559.70 1.749492
559.80 1.750839
559.90 1.752186
560.00 1.753531
560.10 1.754875
560.20 1.756218
560.30 1.75756
560.40 1.758901
560.50 1.760241
560.60 1.76158
560.70 1.762918
560.80 1.764255
560.90 1.76559
561.00 1.766925
561.10 1.768258
561.20 1.769591
561.30 1.770922
561.40 1.772252
561.50 1.773582
561.60 1.77491
561.70 1.776237
561.80 1.777563
561.90 1.778888
562.00 1.780212
562.10 1.78156
562.20 1.782945
562.30 1.784329
562.40 1.785712
562.50 1.787094
562.60 1.788474
562.70 1.789854
562.80 1.791232
562.90 1.79261
563.00 1.793986
563.10 1.795361
563.20 1.796735
563.30 1.798108
563.40 1.79948
563.50 1.800851
563.60 1.80222
563.70 1.803589
563.80 1.804956
563.90 1.806323
564.00 1.807688
564.10 1.809053
564.20 1.810416
564.30 1.811778
564.40 1.813139
564.50 1.814499
564.60 1.815858
564.70 1.817216
564.80 1.818572
564.90 1.819936
565.00 1.821319
565.10 1.822701
565.20 1.824081
565.30 1.82546
565.40 1.826839
565.50 1.828216
565.60 1.829592
565.70 1.830967
565.80 1.832341
565.90 1.833714
566.00 1.835086
566.10 1.836457
566.20 1.837826
566.30 1.839195
566.40 1.840562
566.50 1.841929
566.60 1.843294
566.70 1.844658
566.80 1.846021
566.90 1.847383
567.00 1.848744
567.10 1.850104
567.20 1.851463
567.30 1.852821
567.40 1.854178
567.50 1.855533
567.60 1.856888
567.70 1.85825
567.80 1.85965
567.90 1.861048
568.00 1.862445
568.10 1.863841
568.20 1.865236
568.30 1.86663
568.40 1.868023
568.50 1.869415
568.60 1.870806
568.70 1.872195
568.80 1.873583
568.90 1.874971
569.00 1.876357
569.10 1.877742
569.20 1.879126
569.30 1.880509
569.40 1.881891
569.50 1.883272
569.60 1.884652
569.70 1.88603
569.80 1.887408
569.90 1.888784
570.00 1.89016
570.10 1.891534
570.20 1.892907
570.30 1.894279
570.40 1.895651
570.50 1.897021
570.60 1.898389
570.70 1.899757
570.80 1.901124
570.90 1.90249
571.00 1.903854
571.10 1.905218
571.20 1.90658
571.30 1.907942
571.40 1.909302
571.50 1.910661
571.60 1.91202
571.70 1.913377
571.80 1.914733
571.90 1.916088
572.00 1.917442
572.10 1.918795
572.20 1.920146
572.30 1.921497
572.40 1.922847
572.50 1.924195
572.60 1.925543
572.70 1.92689
572.80 1.928235
572.90 1.929579
573.00 1.930923
573.10 1.932265
573.20 1.933606
573.30 1.934946
573.40 1.936306
573.50 1.937692
573.60 1.939077
573.70 1.940461
573.80 1.941843
573.90 1.943225
574.00 1.944606
574.10 1.945985
574.20 1.947364
574.30 1.948741
574.40 1.950117
574.50 1.951492
574.60 1.952867
574.70 1.95424
574.80 1.955612
574.90 1.956983
575.00 1.958352
575.10 1.959721
575.20 1.961089
575.30 1.962455
575.40 1.963821
575.50 1.965186
575.60 1.966549
575.70 1.967911
575.80 1.969273
575.90 1.970633
576.00 1.971992
576.10 1.97335
576.20 1.974707
576.30 1.976063
576.40 1.977418
576.50 1.978772
576.60 1.980125
576.70 1.981477
576.80 1.982827
576.90 1.984177
577.00 1.985526
577.10 1.986873
577.20 1.98822
577.30 1.989565
577.40 1.990909
577.50 1.992253
577.60 1.993628
577.70 1.995057
577.80 1.996484
577.90 1.99791
578.00 1.999335
578.10 2.000759
578.20 2.002182
578.30 2.003604
578.40 2.005024
578.50 2.006444
578.60 2.007862
578.70 2.00928
578.80 2.010696
578.90 2.012111
579.00 2.013525
579.10 2.014932
579.20 2.016273
579.30 2.017612
579.40 2.018951
579.50 2.020289
579.60 2.021625
579.70 2.022961
579.80 2.024295
579.90 2.025629
580.00 2.026961
580.10 2.028312
580.20 2.029693
580.30 2.031073
580.40 2.032452
580.50 2.033829
580.60 2.035206
580.70 2.036582
580.80 2.037956
580.90 2.03933
581.00 2.040702
581.10 2.042074
581.20 2.043444
581.30 2.044813
581.40 2.046181
581.50 2.047548
581.60 2.048915
581.70 2.050279
581.80 2.051643
581.90 2.053006
582.00 2.054368
582.10 2.055752
582.20 2.057172
582.30 2.058591
582.40 2.060009
582.50 2.061426
582.60 2.062841
582.70 2.064256
582.80 2.06567
582.90 2.067082
583.00 2.068493
583.10 2.069904
583.20 2.071313
583.30 2.072721
583.40 2.074128
583.50 2.075534
583.60 2.076924
583.70 2.078288
583.80 2.079651
583.90 2.081014
584.00 2.082375
584.10 2.083735
584.20 2.085094
584.30 2.086452
584.40 2.087809
584.50 2.089165
584.60 2.09052
584.70 2.091874
584.80 2.093227
584.90 2.094576
585.00 2.095911
585.10 2.097245
585.20 2.09859
585.30 2.099953
585.40 2.101315
585.50 2.102676
585.60 2.104035
585.70 2.105394
585.80 2.106751
585.90 2.108108
586.00 2.109463
586.10 2.110818
586.20 2.112198
586.30 2.113622
586.40 2.115045
586.50 2.116466
586.60 2.117887
586.70 2.119306
586.80 2.120725
586.90 2.122142
587.00 2.123558
587.10 2.124973
587.20 2.126387
587.30 2.1278
587.40 2.129077
587.50 2.130452
587.60 2.131897
587.70 2.13295
587.80 2.134848
587.90 2.136255
588.00 2.137593
588.10 2.138819
588.20 2.140045
588.30 2.14127
588.40 2.142561
588.50 2.143961
588.60 2.14536
588.70 2.146758
588.80 2.148155
588.90 2.149551
589.00 2.150946
589.10 2.15234
589.20 2.153732
589.30 2.155124
589.40 2.156514
589.50 2.157904
589.60 2.159292
589.70 2.16068
589.80 2.162066
589.90 2.163451
590.00 2.164833
590.10 2.166209
590.20 2.167585
590.30 2.16896
590.40 2.170333
590.50 2.171705
590.60 2.173077
590.70 2.174447
590.80 2.175825
590.90 2.177205
591.00 2.178585
591.10 2.179963
591.20 2.181341
591.30 2.182717
591.40 2.184092
591.50 2.185467
591.60 2.186855
591.70 2.188268
591.80 2.18968
591.90 2.191091
592.00 2.192501
592.10 2.193909
592.20 2.195317
592.30 2.196723
592.40 2.198129
592.50 2.199533
592.60 2.200936
592.70 2.202339
592.80 2.20374
592.90 2.20514
593.00 2.206539
593.10 2.207932
593.20 2.209318
593.30 2.210702
593.40 2.212085
593.50 2.213467
593.60 2.214848
593.70 2.216228
593.80 2.217607
593.90 2.218984
594.00 2.220361
594.10 2.221737
594.20 2.223112
594.30 2.224485
594.40 2.225858
594.50 2.227229
594.60 2.2286
594.70 2.229969
594.80 2.231338
594.90 2.232705
595.00 2.234071
595.10 2.235435
595.20 2.236796
595.30 2.238157
595.40 2.239516
595.50 2.240874
595.60 2.242231
595.70 2.243587
595.80 2.244942
595.90 2.246296
596.00 2.247649
596.10 2.249001
596.20 2.250351
596.30 2.251701
596.40 2.25305
596.50 2.254398
596.60 2.255744
596.70 2.25713
596.80 2.258539
596.90 2.259946
597.00 2.261353
597.10 2.262758
597.20 2.264163
597.30 2.265566
597.40 2.266968
597.50 2.268369
597.60 2.269761
597.70 2.271139
597.80 2.272515
597.90 2.27389
598.00 2.275265
598.10 2.276638
598.20 2.27801
598.30 2.279381
598.40 2.280751
598.50 2.28212
598.60 2.283488
598.70 2.284855
598.80 2.286221
598.90 2.287586
599.00 2.28895
599.10 2.290313
599.20 2.291674
599.30 2.293035
599.40 2.294424
599.50 2.295812
599.60 2.297199
599.70 2.298585
599.80 2.29997
599.90 2.301354
600.00 2.302737
600.10 2.304118
600.20 2.305499
600.30 2.306879
600.40 2.308257
600.50 2.309635
600.60 2.311011
600.70 2.312387
600.80 2.313761
600.90 2.315134
601.00 2.316507
601.10 2.317878
601.20 2.319248
601.30 2.320617
601.40 2.32198
601.50 2.323342
601.60 2.324702
601.70 2.326062
601.80 2.32742
601.90 2.328777
602.00 2.330134
602.10 2.331489
602.20 2.332843
602.30 2.334197
602.40 2.335549
602.50 2.3369
602.60 2.33825
602.70 2.339558
602.80 2.340862
602.90 2.34224
603.00 2.343617
603.10 2.344993
603.20 2.346368
603.30 2.347742
603.40 2.349115
603.50 2.350487
603.60 2.351858
603.70 2.353227
603.80 2.354596
603.90 2.355964
604.00 2.35733
604.10 2.358696
604.20 2.360061
604.30 2.361424
604.40 2.362787
604.50 2.364156
604.60 2.365525
604.70 2.366893
604.80 2.36826
604.90 2.369626
605.00 2.37099
605.10 2.372354
605.20 2.373717
605.30 2.375078
605.40 2.376439
605.50 2.377888
605.60 2.379336
605.70 2.380782
605.80 2.382228
605.90 2.383673
606.00 2.385116
606.10 2.386503
606.20 2.387889
606.30 2.389273
606.40 2.390657
606.50 2.391872
606.60 2.393087
606.70 2.394634
606.80 2.395847
606.90 2.397058
607.00 2.398603
607.10 2.399812
607.20 2.401021
607.30 2.402396
607.40 2.403769
607.50 2.405141
607.60 2.406513
607.70 2.407938
607.80 2.409363
607.90 2.410787
608.00 2.412209
608.10 2.413631
608.20 2.415051
608.30 2.416414
608.40 2.417776
608.50 2.419136
608.60 2.420496
608.70 2.421896
608.80 2.423314
608.90 2.424731
609.00 2.426147
609.10 2.427562
609.20 2.428976
609.30 2.430329
609.40 2.431682
609.50 2.433034
609.60 2.434384
609.70 2.435734
609.80 2.437082
609.90 2.43843
610.00 2.439776
610.10 2.441122
610.20 2.442466
610.30 2.44381
610.40 2.445152
610.50 2.446494
610.60 2.447834
610.70 2.449174
610.80 2.450512
610.90 2.451861
611.00 2.453208
611.10 2.454554
611.20 2.4559
611.30 2.457244
611.40 2.458587
611.50 2.45993
611.60 2.461271
611.70 2.462611
611.80 2.463951
611.90 2.465289
612.00 2.466626
612.10 2.467963
612.20 2.469298
612.30 2.470632
612.40 2.47202
612.50 2.473407
612.60 2.474793
612.70 2.476177
612.80 2.477561
612.90 2.478944
613.00 2.480325
613.10 2.481706
613.20 2.483086
613.30 2.484464
613.40 2.485842
613.50 2.487218
613.60 2.488594
613.70 2.489968
613.80 2.491342
613.90 2.492714
614.00 2.494085
614.10 2.495456
614.20 2.496825
614.30 2.498193
614.40 2.499565
614.50 2.500936
614.60 2.502306
614.70 2.503675
614.80 2.505019
614.90 2.506357
615.00 2.507694
615.10 2.509029
615.20 2.510364
615.30 2.511698
615.40 2.513031
615.50 2.514363
615.60 2.515693
615.70 2.517023
615.80 2.518352
615.90 2.51968
616.00 2.521007
616.10 2.522332
616.20 2.523657
616.30 2.524981
616.40 2.526304
616.50 2.527626
616.60 2.528947
616.70 2.530267
616.80 2.531585
616.90 2.532957
617.00 2.534328
617.10 2.535697
617.20 2.537066
617.30 2.538433
617.40 2.5398
617.50 2.541165
617.60 2.54253
617.70 2.543893
617.80 2.545255
617.90 2.546617
618.00 2.547977
618.10 2.549336
618.20 2.550695
618.30 2.552052
618.40 2.553408
618.50 2.554764
618.60 2.556118
618.70 2.557471
618.80 2.558824
618.90 2.560175
619.00 2.561525
619.10 2.562875
619.20 2.564223
619.30 2.56557
619.40 2.566916
619.50 2.568262
619.60 2.569606
619.70 2.570949
619.80 2.572291
619.90 2.573633
620.00 2.574973
620.10 2.576312
620.20 2.57765
620.30 2.578988
620.40 2.580324
620.50 2.581659
620.60 2.582993
620.70 2.584327
620.80 2.585659
620.90 2.587006
621.00 2.588379
621.10 2.589751
621.20 2.591122
621.30 2.592492
621.40 2.59386
621.50 2.595228
621.60 2.596595
621.70 2.597961
621.80 2.599326
621.90 2.60069
622.00 2.602053
622.10 2.603415
622.20 2.604776
622.30 2.606135
622.40 2.607494
622.50 2.608852
622.60 2.610209
622.70 2.611565
622.80 2.612919
622.90 2.614273
623.00 2.615626
623.10 2.616978
623.20 2.618329
623.30 2.619678
623.40 2.621027
623.50 2.622375
623.60 2.623722
623.70 2.625068
623.80 2.626412
623.90 2.627756
624.00 2.629099
624.10 2.630441
624.20 2.631782
624.30 2.633121
624.40 2.63446
624.50 2.635798
624.60 2.637135
624.70 2.638471
624.80 2.639805
624.90 2.641139
625.00 2.642472
625.10 2.643804
625.20 2.645135
625.30 2.646465
625.40 2.647794
625.50 2.649122
625.60 2.650449
625.70 2.651775
625.80 2.6531
625.90 2.654424
626.00 2.655747
626.10 2.657069
626.20 2.65839
626.30 2.65971
626.40 2.661029
626.50 2.662347
626.60 2.663664
626.70 2.664981
626.80 2.666296
626.90 2.66761
627.00 2.668923
627.10 2.670243
627.20 2.671583
627.30 2.672922
627.40 2.67426
627.50 2.675598
627.60 2.676934
627.70 2.678269
627.80 2.679603
627.90 2.680936
628.00 2.682268
628.10 2.683599
628.20 2.68493
628.30 2.686259
628.40 2.687587
628.50 2.688914
628.60 2.690241
628.70 2.691566
628.80 2.69289
628.90 2.694214
629.00 2.695536
629.10 2.696857
629.20 2.698178
629.30 2.699497
629.40 2.700816
629.50 2.702133
629.60 2.70345
629.70 2.704765
629.80 2.70608
629.90 2.707393
630.00 2.708706
630.10 2.710018
630.20 2.711328
630.30 2.712656
630.40 2.713983
630.50 2.71531
630.60 2.716636
630.70 2.717961
630.80 2.719285
630.90 2.720608
631.00 2.721929
631.10 2.72325
631.20 2.72457
631.30 2.725889
631.40 2.727207
631.50 2.728524
631.60 2.72984
631.70 2.731156
631.80 2.73247
631.90 2.733783
632.00 2.735095
632.10 2.736406
632.20 2.737717
632.30 2.739026
632.40 2.740334
632.50 2.741642
632.60 2.742948
632.70 2.744253
632.80 2.745558
632.90 2.746861
633.00 2.748164
633.10 2.749466
633.20 2.750766
633.30 2.752066
633.40 2.753375
633.50 2.754691
633.60 2.756006
633.70 2.75732
633.80 2.758633
633.90 2.759945
634.00 2.761256
634.10 2.762566
634.20 2.763875
634.30 2.765183
634.40 2.76649
634.50 2.767797
634.60 2.769102
634.70 2.770406
634.80 2.77171
634.90 2.773012
635.00 2.774313
635.10 2.775614
635.20 2.776913
635.30 2.778212
635.40 2.77951
635.50 2.780806
635.60 2.782102
635.70 2.783397
635.80 2.784691
635.90 2.785984
636.00 2.787275
636.10 2.788566
636.20 2.789856
636.30 2.791146
636.40 2.792434
636.50 2.793721
636.60 2.795041
636.70 2.796364
636.80 2.797686
636.90 2.799007
637.00 2.800327
637.10 2.801646
637.20 2.802964
637.30 2.804281
637.40 2.805597
637.50 2.806912
637.60 2.808226
637.70 2.809539
637.80 2.810852
637.90 2.812163
638.00 2.813473
638.10 2.814782
638.20 2.816091
638.30 2.817398
638.40 2.818705
638.50 2.82001
638.60 2.821315
638.70 2.822619
638.80 2.823921
638.90 2.825223
639.00 2.826524
639.10 2.827824
639.20 2.829122
639.30 2.83042
639.40 2.831717
639.50 2.833013
639.60 2.834308
639.70 2.835606
639.80 2.836915
639.90 2.838223
640.00 2.83953
640.10 2.840836
640.20 2.842141
640.30 2.843445
640.40 2.844748
640.50 2.84605
640.60 2.847352
640.70 2.848652
640.80 2.849951
640.90 2.85125
641.00 2.852547
641.10 2.853844
641.20 2.855139
641.30 2.856434
641.40 2.857728
641.50 2.85902
641.60 2.860312
641.70 2.861603
641.80 2.862893
641.90 2.864182
642.00 2.86547
642.10 2.866757
642.20 2.868043
642.30 2.869328
642.40 2.870612
642.50 2.871896
642.60 2.873178
642.70 2.874459
642.80 2.87574
642.90 2.87702
643.00 2.878299
643.10 2.879577
643.20 2.880855
643.30 2.882131
643.40 2.883407
643.50 2.884681
643.60 2.885955
643.70 2.887228
643.80 2.8885
643.90 2.889771
644.00 2.891041
644.10 2.89231
644.20 2.893578
644.30 2.894845
644.40 2.896111
644.50 2.897377
644.60 2.898641
644.70 2.899905
644.80 2.901167
644.90 2.902429
645.00 2.90369
645.10 2.904949
645.20 2.906208
645.30 2.907466
645.40 2.908723
645.50 2.909979
645.60 2.911235
645.70 2.912489
645.80 2.913742
645.90 2.914995
646.00 2.916246
646.10 2.917506
646.20 2.918789
646.30 2.920071
646.40 2.921352
646.50 2.922632
646.60 2.923912
646.70 2.92519
646.80 2.926467
646.90 2.927744
647.00 2.92902
647.10 2.930294
647.20 2.931568
647.30 2.932841
647.40 2.934113
647.50 2.935384
647.60 2.936654
647.70 2.937923
647.80 2.939191
647.90 2.940458
648.00 2.941725
648.10 2.94299
648.20 2.944254
648.30 2.945518
648.40 2.946781
648.50 2.948042
648.60 2.949303
648.70 2.950563
648.80 2.951822
648.90 2.95308
649.00 2.954337
649.10 2.955594
649.20 2.956849
649.30 2.958103
649.40 2.959374
649.50 2.960644
649.60 2.961913
649.70 2.963181
649.80 2.964448
649.90 2.965714
650.00 2.966979
650.10 2.968244
650.20 2.969507
650.30 2.97077
650.40 2.972032
650.50 2.973292
650.60 2.974552
650.70 2.975811
650.80 2.977069
650.90 2.978326
651.00 2.979582
651.10 2.980838
651.20 2.982092
651.30 2.983345
651.40 2.984598
651.50 2.98585
651.60 2.9871
651.70 2.98835
651.80 2.989599
651.90 2.990847
652.00 2.992094
652.10 2.99334
652.20 2.994586
652.30 2.99583
652.40 2.997073
652.50 2.998316
652.60 2.999575
652.70 3.000843
652.80 3.002109
652.90 3.003375
653.00 3.00464
653.10 3.005904
653.20 3.007167
653.30 3.008429
653.40 3.00969
653.50 3.01095
653.60 3.01221
653.70 3.013468
653.80 3.014726
653.90 3.015982
654.00 3.017238
654.10 3.018493
654.20 3.019747
654.30 3.020999
654.40 3.022252
654.50 3.023503
654.60 3.024753
654.70 3.026002
654.80 3.027251
654.90 3.028498
655.00 3.029745
655.10 3.030991
655.20 3.032236
655.30 3.033479
655.40 3.034722
655.50 3.035965
655.60 3.037206
655.70 3.038446
655.80 3.039691
655.90 3.040934
656.00 3.042176
656.10 3.043418
656.20 3.044659
656.30 3.045899
656.40 3.047138
656.50 3.048376
656.60 3.049613
656.70 3.050849
656.80 3.052084
656.90 3.053319
657.00 3.054552
657.10 3.055785
657.20 3.057017
657.30 3.058248
657.40 3.059478
657.50 3.060707
657.60 3.061935
657.70 3.063162
657.80 3.064206
657.90 3.065431
658.00 3.066687
658.10 3.067942
658.20 3.069197
658.30 3.07045
658.40 3.071703
658.50 3.072954
658.60 3.074205
658.70 3.075455
658.80 3.076704
658.90 3.077952
659.00 3.079199
659.10 3.080381
659.20 3.081466
659.30 3.082711
659.40 3.083955
659.50 3.085199
659.60 3.086441
659.70 3.087683
659.80 3.088923
659.90 3.090163
660.00 3.091402
660.10 3.09264
660.20 3.093877
660.30 3.095113
660.40 3.096279
660.50 3.097432
660.60 3.098583
660.70 3.099734
660.80 3.100885
660.90 3.10214
661.00 3.103395
661.10 3.104648
661.20 3.105901
661.30 3.107153
661.40 3.108404
661.50 3.109654
661.60 3.110903
661.70 3.112151
661.80 3.113399
661.90 3.114636
662.00 3.115872
662.10 3.117107
662.20 3.118342
662.30 3.119576
662.40 3.12064
662.50 3.121797
662.60 3.122953
662.70 3.124109
662.80 3.125264
662.90 3.126557
663.00 3.12785
663.10 3.129142
663.20 3.130153
663.30 3.131443
663.40 3.133011
663.50 3.134021
663.60 3.135029
663.70 3.136419
663.80 3.137808
663.90 3.139006
664.00 3.140169
664.10 3.141359
664.20 3.142548
664.30 3.143736
664.40 3.144923
664.50 3.14611
664.60 3.147296
664.70 3.148464
664.80 3.149631
664.90 3.150798
665.00 3.151964
665.10 3.153128
665.20 3.154293
665.30 3.155456
665.40 3.156618
665.50 3.158025
665.60 3.159474
665.70 3.160665
665.80 3.16182
665.90 3.162973
666.00 3.164126
666.10 3.165278
666.20 3.166429
666.30 3.16758
666.40 3.168729
666.50 3.169974
666.60 3.171234
666.70 3.172494
666.80 3.173753
666.90 3.175011
667.00 3.176268
667.10 3.177423
667.20 3.178559
667.30 3.179659
667.40 3.180759
667.50 3.181989
667.60 3.183241
667.70 3.184409
667.80 3.185487
667.90 3.186839
668.00 3.187812
668.10 3.188936
668.20 3.190183
668.30 3.191429
668.40 3.192674
668.50 3.193918
668.60 3.195161
668.70 3.196183
668.80 3.197361
668.90 3.198537
669.00 3.199713
669.10 3.200888
669.20 3.202062
669.30 3.203243
669.40 3.204424
669.50 3.205605
669.60 3.206785
669.70 3.207964
669.80 3.209142
669.90 3.210319
670.00 3.211495
670.10 3.212671
670.20 3.213845
670.30 3.215027
670.40 3.21621
670.50 3.217391
670.60 3.218572
670.70 3.219752
670.80 3.220947
670.90 3.222141
671.00 3.223334
671.10 3.224526
671.20 3.225718
671.30 3.226908
671.40 3.228098
671.50 3.229287
671.60 3.230475
671.70 3.231662
671.80 3.232848
671.90 3.233994
672.00 3.235133
672.10 3.236271
672.20 3.237408
672.30 3.238544
672.40 3.239709
672.50 3.240875
672.60 3.24204
672.70 3.243204
672.80 3.244367
672.90 3.24553
673.00 3.246691
673.10 3.247852
673.20 3.249012
673.30 3.250403
673.40 3.251611
673.50 3.252785
673.60 3.253958
673.70 3.25513
673.80 3.256302
673.90 3.257472
674.00 3.258642
674.10 3.259811
674.20 3.260979
674.30 3.262146
674.40 3.263313
674.50 3.264479
674.60 3.265643
674.70 3.266807
674.80 3.26797
674.90 3.269133
675.00 3.270294
675.10 3.271455
675.20 3.272615
675.30 3.273774
675.40 3.274936
675.50 3.276099
675.60 3.277261
675.70 3.278422
675.80 3.279582
675.90 3.280742
676.00 3.2819
676.10 3.283058
676.20 3.284215
676.30 3.285371
676.40 3.286526
676.50 3.28768
676.60 3.288834
676.70 3.289987
676.80 3.291139
676.90 3.29229
677.00 3.29344
677.10 3.294589
677.20 3.295738
677.30 3.296886
677.40 3.298033
677.50 3.299179
677.60 3.300324
677.70 3.301469
677.80 3.302613
677.90 3.303751
678.00 3.304888
678.10 3.306025
678.20 3.30716
678.30 3.308295
678.40 3.309428
678.50 3.310561
678.60 3.311694
678.70 3.312825
678.80 3.313956
678.90 3.315085
679.00 3.316214
679.10 3.317358
679.20 3.318506
679.30 3.319655
679.40 3.320802
679.50 3.321948
679.60 3.323094
679.70 3.324239
679.80 3.325383
679.90 3.326526
680.00 3.327668
680.10 3.32881
680.20 3.329951
680.30 3.331091
680.40 3.33223
680.50 3.333368
680.60 3.334505
680.70 3.335642
680.80 3.336778
680.90 3.337913
681.00 3.339047
681.10 3.340181
681.20 3.341313
681.30 3.342445
681.40 3.343576
681.50 3.344706
681.60 3.345836
681.70 3.346964
681.80 3.348092
681.90 3.349219
682.00 3.350345
682.10 3.351471
682.20 3.352595
682.30 3.353719
682.40 3.354842
682.50 3.355964
682.60 3.357085
682.70 3.358206
682.80 3.359326
682.90 3.360445
683.00 3.361563
683.10 3.36268
683.20 3.363797
683.30 3.364912
683.40 3.366027
683.50 3.367141
683.60 3.368255
683.70 3.369367
683.80 3.370479
683.90 3.37159
684.00 3.3727
684.10 3.37381
684.20 3.374918
684.30 3.376026
684.40 3.377133
684.50 3.378239
684.60 3.379345
684.70 3.380449
684.80 3.381553
684.90 3.382656
685.00 3.383759
685.10 3.38486
685.20 3.385961
685.30 3.387061
685.40 3.38816
685.50 3.389258
685.60 3.390356
685.70 3.391453
685.80 3.392549
685.90 3.393664
686.00 3.394783
686.10 3.395901
686.20 3.397019
686.30 3.398135
686.40 3.399251
686.50 3.400366
686.60 3.401481
686.70 3.402594
686.80 3.403707
686.90 3.404819
687.00 3.40593
687.10 3.407041
687.20 3.40815
687.30 3.409259
687.40 3.410367
687.50 3.411474
687.60 3.412581
687.70 3.413686
687.80 3.414791
687.90 3.415895
688.00 3.416999
688.10 3.418101
688.20 3.419203
688.30 3.420304
688.40 3.421404
688.50 3.422503
688.60 3.423602
688.70 3.4247
688.80 3.425797
688.90 3.426893
689.00 3.427989
689.10 3.429083
689.20 3.430177
689.30 3.43127
689.40 3.432363
689.50 3.433454
689.60 3.434545
689.70 3.435635
689.80 3.436724
689.90 3.437813
690.00 3.4389
690.10 3.439987
690.20 3.441074
690.30 3.442159
690.40 3.443244
690.50 3.444327
690.60 3.44541
690.70 3.446493
690.80 3.447574
690.90 3.448655
691.00 3.449735
691.10 3.450814
691.20 3.451893
691.30 3.45297
691.40 3.454047
691.50 3.455123
691.60 3.456199
691.70 3.457273
691.80 3.458347
691.90 3.45942
692.00 3.460492
692.10 3.461564
692.20 3.462635
692.30 3.463705
692.40 3.464774
692.50 3.465842
692.60 3.46691
692.70 3.46798
692.80 3.469058
692.90 3.470136
693.00 3.471213
693.10 3.472289
693.20 3.473364
693.30 3.474439
693.40 3.475513
693.50 3.476586
693.60 3.477658
693.70 3.47873
693.80 3.479801
693.90 3.480871
694.00 3.48194
694.10 3.483009
694.20 3.484077
694.30 3.485144
694.40 3.48621
694.50 3.487276
694.60 3.48834
694.70 3.489404
694.80 3.490468
694.90 3.49153
695.00 3.492592
695.10 3.493653
695.20 3.494713
695.30 3.495772
695.40 3.496831
695.50 3.497889
695.60 3.498946
695.70 3.500003
695.80 3.501059
695.90 3.502114
696.00 3.503168
696.10 3.504221
696.20 3.505274
696.30 3.506326
696.40 3.507377
696.50 3.508427
696.60 3.509484
696.70 3.510542
696.80 3.511599
696.90 3.512656
697.00 3.513711
697.10 3.514766
697.20 3.51582
697.30 3.516873
697.40 3.517926
697.50 3.518978
697.60 3.520029
697.70 3.521079
697.80 3.522129
697.90 3.523178
698.00 3.524226
698.10 3.525273
698.20 3.52632
698.30 3.527365
698.40 3.528411
698.50 3.529455
698.60 3.530499
698.70 3.531541
698.80 3.532584
698.90 3.533625
699.00 3.534666
699.10 3.535712
699.20 3.536759
699.30 3.537805
699.40 3.538851
699.50 3.539895
699.60 3.540939
699.70 3.541986
699.80 3.543031
699.90 3.544076
700.00 3.545121
700.10 3.546164
700.20 3.547207
700.30 3.548249
700.40 3.54929
700.50 3.550331
700.60 3.55137
700.70 3.552409
700.80 3.553448
700.90 3.554485
701.00 3.555522
701.10 3.556571
701.20 3.557622
701.30 3.558672
701.40 3.559722
701.50 3.560771
701.60 3.561819
701.70 3.562866
701.80 3.563913
701.90 3.564959
702.00 3.566004
702.10 3.567048
702.20 3.568092
702.30 3.569135
702.40 3.570177
702.50 3.571219
702.60 3.572256
702.70 3.573292
702.80 3.574327
702.90 3.575361
703.00 3.576395
703.10 3.577428
703.20 3.57846
703.30 3.579491
703.40 3.580522
703.50 3.581552
703.60 3.582581
703.70 3.58361
703.80 3.584638
703.90 3.585665
704.00 3.586691
704.10 3.587717
704.20 3.588731
704.30 3.589743
704.40 3.590754
704.50 3.591764
704.60 3.592774
704.70 3.593783
704.80 3.594791
704.90 3.595799
705.00 3.596805
705.10 3.597811
705.20 3.598777
705.30 3.599732
705.40 3.600686
705.50 3.60164
705.60 3.602593
705.70 3.603546
705.80 3.604598
705.90 3.605672
706.00 3.606745
706.10 3.607818
706.20 3.608791
706.30 3.609739
706.40 3.610593
706.50 3.611903
706.60 3.612966
706.70 3.613665
706.80 3.614669
706.90 3.615859
707.00 3.616849
707.10 3.617792
707.20 3.618734
707.30 3.619675
707.40 3.620682
707.50 3.621704
707.60 3.622725
707.70 3.623745
707.80 3.624764
707.90 3.625783
708.00 3.626775
708.10 3.62776
708.20 3.628744
708.30 3.629727
708.40 3.63071
708.50 3.631692
708.60 3.632673
708.70 3.633654
708.80 3.634633
708.90 3.635613
709.00 3.636601
709.10 3.637591
709.20 3.63858
709.30 3.639569
709.40 3.640557
709.50 3.641544
709.60 3.64253
709.70 3.643516
709.80 3.644501
709.90 3.645485
710.00 3.646469
710.10 3.647452
710.20 3.648434
710.30 3.649416
710.40 3.650397
710.50 3.651377
710.60 3.65236
710.70 3.653343
710.80 3.654325
710.90 3.655306
711.00 3.656287
711.10 3.657267
711.20 3.658246
711.30 3.659225
711.40 3.660203
711.50 3.66118
711.60 3.662157
711.70 3.663133
711.80 3.664108
711.90 3.665082
712.00 3.666056
712.10 3.66705
712.20 3.668049
712.30 3.669046
712.40 3.670043
712.50 3.67104
712.60 3.672035
712.70 3.67303
712.80 3.674024
712.90 3.675017
713.00 3.67601
713.10 3.677002
713.20 3.677994
713.30 3.678984
713.40 3.679974
713.50 3.680963
713.60 3.681952
713.70 3.682906
713.80 3.683792
713.90 3.684678
714.00 3.685563
714.10 3.686518
714.20 3.68749
714.30 3.68846
714.40 3.689431
714.50 3.6904
714.60 3.691369
714.70 3.692337
714.80 3.693304
714.90 3.694271
715.00 3.695237
715.10 3.696202
715.20 3.697167
715.30 3.698131
715.40 3.699094
715.50 3.700057
715.60 3.701019
715.70 3.70198
715.80 3.70294
715.90 3.7039
716.00 3.704859
716.10 3.705818
716.20 3.706776
716.30 3.707733
716.40 3.708689
716.50 3.709645
716.60 3.710595
716.70 3.711542
716.80 3.712489
716.90 3.713436
717.00 3.714382
717.10 3.715327
717.20 3.716271
717.30 3.717215
717.40 3.718158
717.50 3.7191
717.60 3.720042
717.70 3.720983
717.80 3.721923
717.90 3.722863
718.00 3.723802
718.10 3.72474
718.20 3.725682
718.30 3.726626
718.40 3.727569
718.50 3.728511
718.60 3.729453
718.70 3.730394
718.80 3.731334
718.90 3.732274
719.00 3.733213
719.10 3.734151
719.20 3.735089
719.30 3.736026
719.40 3.736962
719.50 3.737898
719.60 3.738833
719.70 3.739767
719.80 3.740701
719.90 3.741634
720.00 3.742566
720.10 3.743498
720.20 3.744429
720.30 3.74536
720.40 3.746289
720.50 3.747218
720.60 3.748147
720.70 3.749069
720.80 3.749987
720.90 3.750909
721.00 3.751831
721.10 3.752751
721.20 3.753671
721.30 3.754591
721.40 3.75551
721.50 3.756428
721.60 3.757345
721.70 3.758262
721.80 3.759178
721.90 3.760094
722.00 3.761008
722.10 3.761923
722.20 3.762836
722.30 3.763749
722.40 3.764661
722.50 3.765573
722.60 3.766484
722.70 3.767409
722.80 3.768342
722.90 3.769274
723.00 3.770206
723.10 3.771137
723.20 3.772067
723.30 3.772996
723.40 3.773925
723.50 3.774853
723.60 3.775781
723.70 3.776708
723.80 3.777634
723.90 3.778559
724.00 3.779484
724.10 3.780409
724.20 3.781309
724.30 3.782197
724.40 3.783084
724.50 3.783971
724.60 3.784857
724.70 3.785742
724.80 3.786627
724.90 3.787511
725.00 3.788394
725.10 3.789277
725.20 3.790159
725.30 3.791041
725.40 3.791922
725.50 3.792802
725.60 3.793682
725.70 3.794561
725.80 3.795462
725.90 3.796374
726.00 3.797286
726.10 3.798198
726.20 3.799109
726.30 3.800019
726.40 3.800928
726.50 3.801837
726.60 3.802745
726.70 3.803653
726.80 3.804549
726.90 3.80544
727.00 3.80633
727.10 3.80722
727.20 3.808109
727.30 3.808997
727.40 3.80991
727.50 3.810835
727.60 3.81176
727.70 3.812685
727.80 3.813533
727.90 3.81434
728.00 3.815495
728.10 3.816225
728.20 3.817059
728.30 3.817864
728.40 3.81883
728.50 3.819633
728.60 3.820511
728.70 3.821429
728.80 3.822347
728.90 3.823263
729.00 3.824154
729.10 3.825031
729.20 3.825907
729.30 3.826783
729.40 3.827658
729.50 3.828532
729.60 3.829416
729.70 3.830305
729.80 3.831193
729.90 3.83208
730.00 3.832966
730.10 3.833852
730.20 3.834738
730.30 3.835622
730.40 3.836506
730.50 3.83739
730.60 3.838269
730.70 3.839145
730.80 3.840021
730.90 3.840897
731.00 3.841771
731.10 3.842645
731.20 3.843518
731.30 3.844391
731.40 3.845263
731.50 3.846135
731.60 3.847006
731.70 3.847876
731.80 3.848745
731.90 3.849614
732.00 3.850483
732.10 3.851351
732.20 3.852221
732.30 3.853094
732.40 3.853965
732.50 3.854836
732.60 3.855707
732.70 3.856577
732.80 3.857446
732.90 3.858314
733.00 3.859182
733.10 3.860049
733.20 3.860916
733.30 3.861782
733.40 3.862648
733.50 3.863513
733.60 3.864377
733.70 3.86523
733.80 3.866076
733.90 3.866922
734.00 3.867768
734.10 3.868613
734.20 3.869457
734.30 3.870301
734.40 3.871144
734.50 3.871986
734.60 3.872828
734.70 3.873669
734.80 3.87451
734.90 3.87535
735.00 3.876189
735.10 3.877028
735.20 3.877866
735.30 3.878701
735.40 3.8795
735.50 3.880299
735.60 3.881098
735.70 3.88193
735.80 3.882781
735.90 3.883631
736.00 3.884481
736.10 3.88533
736.20 3.886179
736.30 3.887027
736.40 3.887874
736.50 3.888721
736.60 3.889567
736.70 3.890412
736.80 3.891257
736.90 3.892101
737.00 3.892945
737.10 3.893788
737.20 3.894631
737.30 3.895473
737.40 3.896314
737.50 3.897154
737.60 3.897995
737.70 3.898834
737.80 3.899673
737.90 3.900511
738.00 3.901349
738.10 3.902186
738.20 3.90302
738.30 3.903851
738.40 3.904683
738.50 3.905513
738.60 3.906343
738.70 3.907172
738.80 3.908001
738.90 3.908829
739.00 3.909657
739.10 3.910484
739.20 3.91131
739.30 3.912136
739.40 3.912961
739.50 3.913786
739.60 3.91461
739.70 3.915433
739.80 3.916256
739.90 3.917078
740.00 3.9179
740.10 3.918721
740.20 3.919541
740.30 3.920361
740.40 3.921181
740.50 3.921999
740.60 3.922817
740.70 3.923635
740.80 3.924452
740.90 3.925268
741.00 3.926084
741.10 3.926899
741.20 3.927714
741.30 3.928528
741.40 3.929341
741.50 3.930154
741.60 3.930967
741.70 3.931778
741.80 3.93259
741.90 3.9334
742.00 3.93421
742.10 3.93502
742.20 3.935828
742.30 3.936637
742.40 3.937444
742.50 3.938251
742.60 3.939058
742.70 3.939879
742.80 3.940711
742.90 3.941543
743.00 3.942374
743.10 3.943204
743.20 3.944034
743.30 3.944864
743.40 3.945692
743.50 3.946521
743.60 3.947348
743.70 3.94817
743.80 3.948971
743.90 3.94977
744.00 3.95057
744.10 3.951368
744.20 3.952167
744.30 3.952964
744.40 3.953761
744.50 3.954558
744.60 3.955354
744.70 3.956149
744.80 3.956944
744.90 3.957738
745.00 3.958531
745.10 3.959324
745.20 3.960117
745.30 3.960909
745.40 3.9617
745.50 3.962491
745.60 3.963281
745.70 3.964071
745.80 3.96486
745.90 3.965648
746.00 3.966436
746.10 3.967224
746.20 3.96801
746.30 3.968797
746.40 3.969582
746.50 3.970367
746.60 3.971152
746.70 3.971936
746.80 3.972719
746.90 3.973502
747.00 3.974285
747.10 3.975066
747.20 3.975847
747.30 3.976628
747.40 3.977408
747.50 3.978188
747.60 3.978967
747.70 3.979745
747.80 3.980523
747.90 3.9813
748.00 3.982077
748.10 3.982853
748.20 3.983628
748.30 3.984404
748.40 3.985178
748.50 3.985952
748.60 3.986725
748.70 3.987498
748.80 3.98827
748.90 3.989042
749.00 3.989813
749.10 3.990584
749.20 3.991354
749.30 3.992123
749.40 3.992892
749.50 3.993661
749.60 3.994428
749.70 3.995196
749.80 3.995962
749.90 3.996729
750.00 3.997494
750.10 3.998259
750.20 3.99902
750.30 3.999782
750.40 4.000543
750.50 4.001303
750.60 4.002062
750.70 4.002822
750.80 4.00358
750.90 4.004338
751.00 4.005096
751.10 4.005853
751.20 4.006609
751.30 4.007365
751.40 4.00812
751.50 4.008875
751.60 4.009629
751.70 4.010383
751.80 4.011136
751.90 4.011889
752.00 4.012641
752.10 4.013392
752.20 4.014143
752.30 4.014894
752.40 4.015644
752.50 4.016393
752.60 4.017142
752.70 4.01789
752.80 4.018638
752.90 4.019385
753.00 4.020132
753.10 4.020878
753.20 4.021623
753.30 4.022368
753.40 4.023113
753.50 4.023857
753.60 4.0246
753.70 4.025343
753.80 4.026086
753.90 4.026827
754.00 4.027569
754.10 4.028309
754.20 4.02905
754.30 4.029789
754.40 4.030528
754.50 4.031267
754.60 4.032005
754.70 4.032743
754.80 4.03348
754.90 4.034216
755.00 4.034952
755.10 4.035688
755.20 4.036423
755.30 4.037157
755.40 4.037891
755.50 4.038624
755.60 4.039357
755.70 4.040089
755.80 4.040821
755.90 4.041552
756.00 4.042283
756.10 4.043013
756.20 4.043742
756.30 4.044471
756.40 4.0452
756.50 4.045928
756.60 4.046656
756.70 4.047382
756.80 4.048109
756.90 4.048835
757.00 4.04956
757.10 4.050285
757.20 4.051009
757.30 4.051733
757.40 4.052457
757.50 4.053179
757.60 4.0539
757.70 4.054615
757.80 4.055329
757.90 4.056043
758.00 4.056757
758.10 4.05747
758.20 4.058182
758.30 4.058894
758.40 4.059606
758.50 4.060317
758.60 4.061027
758.70 4.061737
758.80 4.062446
758.90 4.063155
759.00 4.063863
759.10 4.064571
759.20 4.065279
759.30 4.065985
759.40 4.066692
759.50 4.067397
759.60 4.068103
759.70 4.068807
759.80 4.069512
759.90 4.070215
760.00 4.070919
760.10 4.071621
760.20 4.072324
760.30 4.073025
760.40 4.073726
760.50 4.074427
760.60 4.075127
760.70 4.075827
760.80 4.076526
760.90 4.077225
761.00 4.077923
761.10 4.07862
761.20 4.079317
761.30 4.080014
761.40 4.080715
761.50 4.081421
761.60 4.082128
761.70 4.082833
761.80 4.083539
761.90 4.084243
762.00 4.084948
762.10 4.085651
762.20 4.086354
762.30 4.087057
762.40 4.087759
762.50 4.088461
762.60 4.089162
762.70 4.089863
762.80 4.090563
762.90 4.091262
763.00 4.091962
763.10 4.09266
763.20 4.093358
763.30 4.094056
763.40 4.094753
763.50 4.09545
763.60 4.096146
763.70 4.096841
763.80 4.097536
763.90 4.098231
764.00 4.098925
764.10 4.099619
764.20 4.100312
764.30 4.101004
764.40 4.101696
764.50 4.102388
764.60 4.103079
764.70 4.103769
764.80 4.104459
764.90 4.105149
765.00 4.105838
765.10 4.106527
765.20 4.107194
765.30 4.107842
765.40 4.10849
765.50 4.109137
765.60 4.109784
765.70 4.11043
765.80 4.111076
765.90 4.111721
766.00 4.112366
766.10 4.11301
766.20 4.113654
766.30 4.114297
766.40 4.11494
766.50 4.115583
766.60 4.116225
766.70 4.116866
766.80 4.117507
766.90 4.118147
767.00 4.118788
767.10 4.119427
767.20 4.120066
767.30 4.120705
767.40 4.121343
767.50 4.121981
767.60 4.122618
767.70 4.123255
767.80 4.123891
767.90 4.124527
768.00 4.125162
768.10 4.125797
768.20 4.126431
768.30 4.127065
768.40 4.127698
768.50 4.128331
768.60 4.128964
768.70 4.129596
768.80 4.130227
768.90 4.130859
769.00 4.131489
769.10 4.132119
769.20 4.132749
769.30 4.133378
769.40 4.134007
769.50 4.134635
769.60 4.135263
769.70 4.13589
769.80 4.136517
769.90 4.137144
770.00 4.13777
770.10 4.138395
770.20 4.13902
770.30 4.139645
770.40 4.140269
770.50 4.140892
770.60 4.141516
770.70 4.142138
770.80 4.142761
770.90 4.143382
771.00 4.144004
771.10 4.144625
771.20 4.145245
771.30 4.145865
771.40 4.146484
771.50 4.147103
771.60 4.147722
771.70 4.14834
771.80 4.148958
771.90 4.149575
772.00 4.150192
772.10 4.150808
772.20 4.151424
772.30 4.152039
772.40 4.152654
772.50 4.153268
772.60 4.153882
772.70 4.154496
772.80 4.155109
772.90 4.15579
773.00 4.156471
773.10 4.157151
773.20 4.157831
773.30 4.15851
773.40 4.159188
773.50 4.159867
773.60 4.160544
773.70 4.161222
773.80 4.161898
773.90 4.162575
774.00 4.16325
774.10 4.163926
774.20 4.1646
774.30 4.165275
774.40 4.165949
774.50 4.166622
774.60 4.167295
774.70 4.167967
774.80 4.168639
774.90 4.16931
775.00 4.169981
775.10 4.170652
775.20 4.171322
775.30 4.171991
775.40 4.17266
775.50 4.173328
775.60 4.173996
775.70 4.174664
775.80 4.175331
775.90 4.175998
776.00 4.176664
776.10 4.177329
776.20 4.177994
776.30 4.178659
776.40 4.179323
776.50 4.179987
776.60 4.18065
776.70 4.181313
776.80 4.181975
776.90 4.182637
777.00 4.183298
777.10 4.183959
777.20 4.184619
777.30 4.185279
777.40 4.185938
777.50 4.186597
777.60 4.187255
777.70 4.187913
777.80 4.188571
777.90 4.189228
778.00 4.189884
778.10 4.19054
778.20 4.191196
778.30 4.191851
778.40 4.192505
778.50 4.193159
778.60 4.193813
778.70 4.194466
778.80 4.195119
778.90 4.195771
779.00 4.196423
779.10 4.197074
779.20 4.197725
779.30 4.198375
779.40 4.199025
779.50 4.199674
779.60 4.200323
779.70 4.200972
779.80 4.20162
779.90 4.202267
780.00 4.202914
780.10 4.203561
780.20 4.204207
780.30 4.204852
780.40 4.205498
780.50 4.206142
780.60 4.206696
780.70 4.207214
780.80 4.207732
780.90 4.208249
781.00 4.208766
781.10 4.209282
781.20 4.209799
781.30 4.210314
781.40 4.210829
781.50 4.211344
781.60 4.211859
781.70 4.212373
781.80 4.212887
781.90 4.2134
782.00 4.213913
782.10 4.214425
782.20 4.214937
782.30 4.215449
782.40 4.21596
782.50 4.216471
782.60 4.216982
782.70 4.217492
782.80 4.218001
782.90 4.218511
783.00 4.219019
783.10 4.219528
783.20 4.220036
783.30 4.220544
783.40 4.221051
783.50 4.221558
783.60 4.222064
783.70 4.22257
783.80 4.223076
783.90 4.223582
784.00 4.224086
784.10 4.224591
784.20 4.225095
784.30 4.225599
784.40 4.226102
784.50 4.226605
784.60 4.227143
784.70 4.227762
784.80 4.228381
784.90 4.228999
785.00 4.229617
785.10 4.230235
785.20 4.230852
785.30 4.231468
785.40 4.232084
785.50 4.2327
785.60 4.233315
785.70 4.23393
785.80 4.234544
785.90 4.235158
786.00 4.235771
786.10 4.236384
786.20 4.236997
786.30 4.237609
786.40 4.23822
786.50 4.238831
786.60 4.239442
786.70 4.240052
786.80 4.240662
786.90 4.241272
787.00 4.241881
787.10 4.242489
787.20 4.243097
787.30 4.243705
787.40 4.244312
787.50 4.244918
787.60 4.245525
787.70 4.24613
787.80 4.246736
787.90 4.247341
788.00 4.247945
788.10 4.248549
788.20 4.249153
788.30 4.249756
788.40 4.250307
788.50 4.250833
788.60 4.251359
788.70 4.251884
788.80 4.252409
788.90 4.252933
789.00 4.253457
789.10 4.253981
789.20 4.254504
789.30 4.255027
789.40 4.255549
789.50 4.256071
789.60 4.256592
789.70 4.257113
789.80 4.257634
789.90 4.258155
790.00 4.258674
790.10 4.259194
790.20 4.259713
790.30 4.260232
790.40 4.26075
790.50 4.261268
790.60 4.261786
790.70 4.262303
790.80 4.26282
790.90 4.263336
791.00 4.263852
791.10 4.264367
791.20 4.264883
791.30 4.265397
791.40 4.265912
791.50 4.266426
791.60 4.266939
791.70 4.267452
791.80 4.267965
791.90 4.268478
792.00 4.26899
792.10 4.269501
792.20 4.270012
792.30 4.270523
792.40 4.271034
792.50 4.271545
792.60 4.272055
792.70 4.272564
792.80 4.273073
792.90 4.273582
793.00 4.274091
793.10 4.274599
793.20 4.275107
793.30 4.275614
793.40 4.276121
793.50 4.276627
793.60 4.277133
793.70 4.277639
793.80 4.278144
793.90 4.278649
794.00 4.279154
794.10 4.279658
794.20 4.280162
794.30 4.280665
794.40 4.281168
794.50 4.281671
794.60 4.282173
794.70 4.282675
794.80 4.283176
794.90 4.283677
795.00 4.284178
795.10 4.284678
795.20 4.285178
795.30 4.285678
795.40 4.286177
795.50 4.286675
795.60 4.287174
795.70 4.287672
795.80 4.288169
795.90 4.288666
796.00 4.289163
796.10 4.28966
796.20 4.290156
796.30 4.290679
796.40 4.291207
796.50 4.291735
796.60 4.292262
796.70 4.292789
796.80 4.293315
796.90 4.293841
797.00 4.294367
797.10 4.294892
797.20 4.295417
797.30 4.295942
797.40 4.296466
797.50 4.29699
797.60 4.297513
797.70 4.298036
797.80 4.298558
797.90 4.299081
798.00 4.299602
798.10 4.300124
798.20 4.300645
798.30 4.301165
798.40 4.301685
798.50 4.302205
798.60 4.302724
798.70 4.303243
798.80 4.303762
798.90 4.30428
799.00 4.304798
799.10 4.305315
799.20 4.305832
799.30 4.306349
799.40 4.306865
799.50 4.307381
799.60 4.307896
799.70 4.308411
799.80 4.308926
799.90 4.30944
800.00 4.309954
800.10 4.310467
800.20 4.31098
800.30 4.311493
800.40 4.312005
800.50 4.312517
800.60 4.313029
800.70 4.31354
800.80 4.314051
800.90 4.314561
801.00 4.315071
801.10 4.31558
801.20 4.31609
801.30 4.316598
801.40 4.317107
801.50 4.317615
801.60 4.318122
801.70 4.318629
801.80 4.319136
801.90 4.319643
802.00 4.320149
802.10 4.320654
802.20 4.32116
802.30 4.321665
802.40 4.322169
802.50 4.322673
802.60 4.323177
802.70 4.32368
802.80 4.324183
802.90 4.324686
803.00 4.325188
803.10 4.32569
803.20 4.326191
803.30 4.326692
803.40 4.327193
803.50 4.327693
803.60 4.328193
803.70 4.328693
803.80 4.329192
803.90 4.329691
804.00 4.330189
804.10 4.330687
804.20 4.331171
804.30 4.331605
804.40 4.332039
804.50 4.332473
804.60 4.332906
804.70 4.333339
804.80 4.333772
804.90 4.334204
805.00 4.334636
805.10 4.335067
805.20 4.335499
805.30 4.335929
805.40 4.33636
805.50 4.33679
805.60 4.33722
805.70 4.337649
805.80 4.338079
805.90 4.338507
806.00 4.338936
806.10 4.339364
806.20 4.339792
806.30 4.340219
806.40 4.340646
806.50 4.341073
806.60 4.341499
806.70 4.341925
806.80 4.342351
806.90 4.342776
807.00 4.343201
807.10 4.343626
807.20 4.34405
807.30 4.344474
807.40 4.344897
807.50 4.345321
807.60 4.345744
807.70 4.346166
807.80 4.346588
807.90 4.34701
808.00 4.347432
808.10 4.347853
808.20 4.348274
808.30 4.348694
808.40 4.349115
808.50 4.349534
808.60 4.349954
808.70 4.350373
808.80 4.350792
808.90 4.35121
809.00 4.351629
809.10 4.352046
809.20 4.352464
809.30 4.352881
809.40 4.353298
809.50 4.353714
809.60 4.35413
809.70 4.354546
809.80 4.354961
809.90 4.355377
810.00 4.355791
810.10 4.356206
810.20 4.35662
810.30 4.357033
810.40 4.357447
810.50 4.35786
810.60 4.358273
810.70 4.358685
810.80 4.359097
810.90 4.359509
811.00 4.35992
811.10 4.360331
811.20 4.360742
811.30 4.361152
811.40 4.361562
811.50 4.361972
811.60 4.362382
811.70 4.362791
811.80 4.363199
811.90 4.363608
812.00 4.364016
812.10 4.364423
812.20 4.364831
812.30 4.365241
812.40 4.365651
812.50 4.366061
812.60 4.36647
812.70 4.36688
812.80 4.367288
812.90 4.367697
813.00 4.368105
813.10 4.368513
813.20 4.368921
813.30 4.369328
813.40 4.369735
813.50 4.370142
813.60 4.370548
813.70 4.370954
813.80 4.371359
813.90 4.371764
814.00 4.372169
814.10 4.372574
814.20 4.372978
814.30 4.373382
814.40 4.373786
814.50 4.374189
814.60 4.374592
814.70 4.374995
814.80 4.375397
814.90 4.375799
815.00 4.3762
815.10 4.376602
815.20 4.377003
815.30 4.377403
815.40 4.377804
815.50 4.378204
815.60 4.378603
815.70 4.379003
815.80 4.379402
815.90 4.3798
816.00 4.380199
816.10 4.380597
816.20 4.380994
816.30 4.381392
816.40 4.381789
816.50 4.382185
816.60 4.382582
816.70 4.382978
816.80 4.383374
816.90 4.383769
817.00 4.384164
817.10 4.384559
817.20 4.384953
817.30 4.385347
817.40 4.385741
817.50 4.386135
817.60 4.386528
817.70 4.386921
817.80 4.387313
817.90 4.387705
818.00 4.388097
818.10 4.388489
818.20 4.38888
818.30 4.389271
818.40 4.389661
818.50 4.390051
818.60 4.390441
818.70 4.390831
818.80 4.39122
818.90 4.391609
819.00 4.391998
819.10 4.392386
819.20 4.392774
819.30 4.393318
819.40 4.393966
819.50 4.394613
819.60 4.39526
819.70 4.395906
819.80 4.396552
819.90 4.397198
820.00 4.397843
820.10 4.398333
820.20 4.398668
820.30 4.399176
820.40 4.399593
820.50 4.399944
820.60 4.400294
820.70 4.400645
820.80 4.400995
820.90 4.401344
821.00 4.401694
821.10 4.402043
821.20 4.402391
821.30 4.40274
821.40 4.403088
821.50 4.403436
821.60 4.403783
821.70 4.40413
821.80 4.404477
821.90 4.404824
822.00 4.40517
822.10 4.405516
822.20 4.405862
822.30 4.406207
822.40 4.406553
822.50 4.406897
822.60 4.407242
822.70 4.407586
822.80 4.40793
822.90 4.408274
823.00 4.408617
823.10 4.40896
823.20 4.409303
823.30 4.409645
823.40 4.409988
823.50 4.410329
823.60 4.410671
823.70 4.411012
823.80 4.411353
823.90 4.411694
824.00 4.412034
824.10 4.412374
824.20 4.412714
824.30 4.413054
824.40 4.413393
824.50 4.413732
824.60 4.41407
824.70 4.414409
824.80 4.414747
824.90 4.415085
825.00 4.415422
825.10 4.415759
825.20 4.416096
825.30 4.416433
825.40 4.416769
825.50 4.417105
825.60 4.41744
825.70 4.417776
825.80 4.418111
825.90 4.418446
826.00 4.41878
826.10 4.419115
826.20 4.419448
826.30 4.419783
826.40 4.420117
826.50 4.420452
826.60 4.420785
826.70 4.421119
826.80 4.421452
826.90 4.421786
827.00 4.422118
827.10 4.422451
827.20 4.422783
827.30 4.423115
827.40 4.423446
827.50 4.423778
827.60 4.424109
827.70 4.42444
827.80 4.42477
827.90 4.4251
828.00 4.42543
828.10 4.42576
828.20 4.426089
828.30 4.426418
828.40 4.426747
828.50 4.427075
828.60 4.427419
828.70 4.427775
828.80 4.428132
828.90 4.428488
829.00 4.428843
829.10 4.429199
829.20 4.429554
829.30 4.429908
829.40 4.430263
829.50 4.430617
829.60 4.430971
829.70 4.431325
829.80 4.431678
829.90 4.432031
830.00 4.432383
830.10 4.432736
830.20 4.433088
830.30 4.43344
830.40 4.433791
830.50 4.434142
830.60 4.434493
830.70 4.434844
830.80 4.435194
830.90 4.435544
831.00 4.435894
831.10 4.436243
831.20 4.436592
831.30 4.436941
831.40 4.43729
831.50 4.437638
831.60 4.437986
831.70 4.438333
831.80 4.438681
831.90 4.439028
832.00 4.439374
832.10 4.439721
832.20 4.440067
832.30 4.440413
832.40 4.440758
832.50 4.441104
832.60 4.441449
832.70 4.441793
832.80 4.442138
832.90 4.442482
833.00 4.442825
833.10 4.443169
833.20 4.443512
833.30 4.443855
833.40 4.444198
833.50 4.44454
833.60 4.444882
833.70 4.445224
833.80 4.445565
833.90 4.445906
834.00 4.446247
834.10 4.446588
834.20 4.446928
834.30 4.447268
834.40 4.447608
834.50 4.447947
834.60 4.448286
834.70 4.448625
834.80 4.448964
834.90 4.449302
835.00 4.44964
835.10 4.449978
835.20 4.450315
835.30 4.450652
835.40 4.450989
835.50 4.451325
835.60 4.451662
835.70 4.451998
835.80 4.452333
835.90 4.452669
836.00 4.453004
836.10 4.453339
836.20 4.453673
836.30 4.454007
836.40 4.454341
836.50 4.454675
836.60 4.455008
836.70 4.455341
836.80 4.455674
836.90 4.455968
837.00 4.456244
837.10 4.456521
837.20 4.456797
837.30 4.457072
837.40 4.457348
837.50 4.457623
837.60 4.457898
837.70 4.458172
837.80 4.458447
837.90 4.458721
838.00 4.458995
838.10 4.459268
838.20 4.459542
838.30 4.459815
838.40 4.460088
838.50 4.46036
838.60 4.460633
838.70 4.460905
838.80 4.461176
838.90 4.461448
839.00 4.461719
839.10 4.46199
839.20 4.462261
839.30 4.462532
839.40 4.462802
839.50 4.463072
839.60 4.463342
839.70 4.463611
839.80 4.46388
839.90 4.464149
840.00 4.464418
840.10 4.464687
840.20 4.464955
840.30 4.465223
840.40 4.465491
840.50 4.465758
840.60 4.466025
840.70 4.466292
840.80 4.466559
840.90 4.466825
841.00 4.467092
841.10 4.467357
841.20 4.467623
841.30 4.467888
841.40 4.468153
841.50 4.468417
841.60 4.468682
841.70 4.468946
841.80 4.46921
841.90 4.469473
842.00 4.469737
842.10 4.47
842.20 4.470263
842.30 4.470525
842.40 4.470788
842.50 4.47105
842.60 4.471312
842.70 4.471573
842.80 4.471835
842.90 4.472096
843.00 4.472357
843.10 4.472617
843.20 4.472878
843.30 4.473138
843.40 4.473398
843.50 4.473657
843.60 4.473917
843.70 4.474176
843.80 4.474435
843.90 4.474693
844.00 4.474952
844.10 4.47521
844.20 4.475468
844.30 4.475725
844.40 4.475983
844.50 4.47624
844.60 4.476497
844.70 4.476753
844.80 4.47701
844.90 4.477266
845.00 4.477522
845.10 4.477777
845.20 4.478033
845.30 4.478275
845.40 4.478517
845.50 4.478759
845.60 4.479001
845.70 4.479242
845.80 4.479484
845.90 4.479725
846.00 4.479965
846.10 4.480206
846.20 4.480446
846.30 4.480686
846.40 4.480926
846.50 4.481165
846.60 4.481405
846.70 4.481644
846.80 4.481883
846.90 4.482121
847.00 4.482359
847.10 4.482598
847.20 4.482835
847.30 4.483073
847.40 4.483311
847.50 4.483548
847.60 4.483785
847.70 4.484021
847.80 4.484258
847.90 4.484494
848.00 4.48473
848.10 4.484966
848.20 4.485201
848.30 4.485436
848.40 4.485672
848.50 4.485906
848.60 4.486141
848.70 4.486375
848.80 4.486609
848.90 4.486843
849.00 4.487077
849.10 4.48731
849.20 4.487543
849.30 4.487776
849.40 4.488009
849.50 4.488241
849.60 4.488474
849.70 4.488706
849.80 4.488937
849.90 4.489169
850.00 4.4894
850.10 4.489631
850.20 4.489862
850.30 4.490093
850.40 4.490323
850.50 4.490553
850.60 4.490783
850.70 4.491013
850.80 4.491242
850.90 4.491471
851.00 4.4917
851.10 4.491929
851.20 4.492158
851.30 4.492386
851.40 4.492614
851.50 4.492842
851.60 4.493069
851.70 4.493297
851.80 4.493524
851.90 4.493751
852.00 4.493977
852.10 4.494204
852.20 4.49443
852.30 4.494656
852.40 4.494882
852.50 4.495107
852.60 4.495332
852.70 4.495557
852.80 4.495782
852.90 4.496007
853.00 4.496231
853.10 4.496455
853.20 4.496679
853.30 4.496903
853.40 4.497126
853.50 4.49735
853.60 4.497573
853.70 4.497789
853.80 4.497999
853.90 4.498209
854.00 4.498419
854.10 4.498628
854.20 4.498837
854.30 4.499046
854.40 4.499254
854.50 4.499463
854.60 4.499671
854.70 4.499879
854.80 4.500087
854.90 4.500294
855.00 4.500502
855.10 4.500709
855.20 4.500916
855.30 4.501122
855.40 4.501329
855.50 4.501535
855.60 4.501741
855.70 4.501947
855.80 4.502152
855.90 4.502358
856.00 4.502563
856.10 4.502768
856.20 4.502973
856.30 4.503177
856.40 4.503381
856.50 4.503585
856.60 4.503789
856.70 4.503993
856.80 4.504196
856.90 4.504399
857.00 4.504602
857.10 4.504805
857.20 4.505007
857.30 4.50521
857.40 4.505412
857.50 4.505614
857.60 4.505815
857.70 4.506017
857.80 4.506218
857.90 4.506419
858.00 4.50662
858.10 4.50682
858.20 4.507021
858.30 4.507221
858.40 4.507421
858.50 4.50762
858.60 4.50782
858.70 4.508019
858.80 4.508218
858.90 4.508417
859.00 4.508616
859.10 4.508814
859.20 4.509012
859.30 4.50921
859.40 4.509408
859.50 4.509606
859.60 4.509803
859.70 4.51
859.80 4.510197
859.90 4.510394
860.00 4.51059
860.10 4.510787
860.20 4.510983
860.30 4.511178
860.40 4.511374
860.50 4.51157
860.60 4.511765
860.70 4.51196
860.80 4.512155
860.90 4.512349
861.00 4.512543
861.10 4.512738
861.20 4.512932
861.30 4.513125
861.40 4.513319
861.50 4.513512
861.60 4.513705
861.70 4.513898
861.80 4.514091
861.90 4.514283
862.00 4.514475
862.10 4.514667
862.20 4.514858
862.30 4.515037
862.40 4.515216
862.50 4.515395
862.60 4.515574
862.70 4.515752
862.80 4.51593
862.90 4.516108
863.00 4.516286
863.10 4.516464
863.20 4.516641
863.30 4.516818
863.40 4.516995
863.50 4.517172
863.60 4.517349
863.70 4.517525
863.80 4.517702
863.90 4.517878
864.00 4.518053
864.10 4.518229
864.20 4.518404
864.30 4.51858
864.40 4.518755
864.50 4.518929
864.60 4.519104
864.70 4.519278
864.80 4.519452
864.90 4.519626
865.00 4.5198
865.10 4.519974
865.20 4.520147
865.30 4.52032
865.40 4.520493
865.50 4.520666
865.60 4.520839
865.70 4.521011
865.80 4.521183
865.90 4.521355
866.00 4.521527
866.10 4.521699
866.20 4.52187
866.30 4.522041
866.40 4.522212
866.50 4.522383
866.60 4.522554
866.70 4.522724
866.80 4.522894
866.90 4.523064
867.00 4.523234
867.10 4.523403
867.20 4.523573
867.30 4.523742
867.40 4.523911
867.50 4.52408
867.60 4.524248
867.70 4.524417
867.80 4.524585
867.90 4.524753
868.00 4.524921
868.10 4.525088
868.20 4.525256
868.30 4.525423
868.40 4.52559
868.50 4.525757
868.60 4.525923
868.70 4.52609
868.80 4.526256
868.90 4.526422
869.00 4.526588
869.10 4.526754
869.20 4.526919
869.30 4.527084
869.40 4.527249
869.50 4.527414
869.60 4.527579
869.70 4.527743
869.80 4.527908
869.90 4.528072
870.00 4.528236
870.10 4.528399
870.20 4.528563
870.30 4.528726
870.40 4.528889
870.50 4.529052
870.60 4.529215
870.70 4.529377
870.80 4.52954
870.90 4.529691
871.00 4.529841
871.10 4.529991
871.20 4.530141
871.30 4.53029
871.40 4.530439
871.50 4.530589
871.60 4.530738
871.70 4.530886
871.80 4.531035
871.90 4.531183
872.00 4.531331
872.10 4.531479
872.20 4.531627
872.30 4.531775
872.40 4.531922
872.50 4.53207
872.60 4.532217
872.70 4.532363
872.80 4.53251
872.90 4.532657
873.00 4.532803
873.10 4.532949
873.20 4.533095
873.30 4.533241
873.40 4.533386
873.50 4.533532
873.60 4.533677
873.70 4.533822
873.80 4.533967
873.90 4.534112
874.00 4.534256
874.10 4.5344
874.20 4.534544
874.30 4.534688
874.40 4.534832
874.50 4.534976
874.60 4.535119
874.70 4.535262
874.80 4.535405
874.90 4.535548
875.00 4.535691
875.10 4.535833
875.20 4.535975
875.30 4.536117
875.40 4.536259
875.50 4.536401
875.60 4.536542
875.70 4.536684
875.80 4.536825
875.90 4.536966
876.00 4.537107
876.10 4.537247
876.20 4.537388
876.30 4.537528
876.40 4.537668
876.50 4.537808
876.60 4.537948
876.70 4.538087
876.80 4.538227
876.90 4.538366
877.00 4.538505
877.10 4.538643
877.20 4.538782
877.30 4.538921
877.40 4.539059
877.50 4.539197
877.60 4.539335
877.70 4.539472
877.80 4.53961
877.90 4.539747
878.00 4.539884
878.10 4.540021
878.20 4.540158
878.30 4.540295
878.40 4.540431
878.50 4.540568
878.60 4.540704
878.70 4.54084
878.80 4.540975
878.90 4.541111
879.00 4.541246
879.10 4.541381
879.20 4.541516
879.30 4.541651
879.40 4.541786
879.50 4.54192
879.60 4.541986
879.70 4.542036
879.80 4.542086
879.90 4.542136
880.00 4.542186
880.10 4.542236
880.20 4.542285
880.30 4.542335
880.40 4.542384
880.50 4.542433
880.60 4.542482
880.70 4.542531
880.80 4.54258
880.90 4.542629
881.00 4.542677
881.10 4.542725
881.20 4.542773
881.30 4.542822
881.40 4.542869
881.50 4.542917
881.60 4.542965
881.70 4.543012
881.80 4.54306
881.90 4.543107
882.00 4.543154
882.10 4.543201
882.20 4.543248
882.30 4.543294
882.40 4.543341
882.50 4.543387
882.60 4.543433
882.70 4.54348
882.80 4.543526
882.90 4.543571
883.00 4.543617
883.10 4.543663
883.20 4.543708
883.30 4.543753
883.40 4.543798
883.50 4.543843
883.60 4.543888
883.70 4.543933
883.80 4.543978
883.90 4.544022
884.00 4.544127
884.10 4.544243
884.20 4.544358
884.30 4.544474
884.40 4.544589
884.50 4.544705
884.60 4.54482
884.70 4.544935
884.80 4.545049
884.90 4.545164
885.00 4.545278
885.10 4.545392
885.20 4.545506
885.30 4.54562
885.40 4.545734
885.50 4.545848
885.60 4.545961
885.70 4.546074
885.80 4.546187
885.90 4.5463
886.00 4.546413
886.10 4.546525
886.20 4.546638
886.30 4.54675
886.40 4.546862
886.50 4.546974
886.60 4.547086
886.70 4.547197
886.80 4.547309
886.90 4.54742
887.00 4.547531
887.10 4.547642
887.20 4.547753
887.30 4.547863
887.40 4.547974
887.50 4.548084
887.60 4.548194
887.70 4.548304
887.80 4.548413
887.90 4.548523
888.00 4.548632
888.10 4.548742
888.20 4.548851
888.30 4.54896
888.40 4.549028
888.50 4.54909
888.60 4.549152
888.70 4.549214
888.80 4.549276
888.90 4.549338
889.00 4.549399
889.10 4.549461
889.20 4.549522
889.30 4.549583
889.40 4.549644
889.50 4.549705
889.60 4.549765
889.70 4.549826
889.80 4.549886
889.90 4.549946
890.00 4.550006
890.10 4.550066
890.20 4.550126
890.30 4.550186
890.40 4.550245
890.50 4.550305
890.60 4.550364
890.70 4.550423
890.80 4.550482
890.90 4.550541
891.00 4.550599
891.10 4.550658
891.20 4.550716
891.30 4.550774
891.40 4.550832
891.50 4.55089
891.60 4.550948
891.70 4.551006
891.80 4.551063
891.90 4.551121
892.00 4.551178
892.10 4.551235
892.20 4.551292
892.30 4.551349
892.40 4.551406
892.50 4.551462
892.60 4.551519
892.70 4.551575
892.80 4.551631
892.90 4.551687
893.00 4.551743
893.10 4.551799
893.20 4.551854
893.30 4.55191
893.40 4.551965
893.50 4.55202
893.60 4.552075
893.70 4.55213
893.80 4.552185
893.90 4.552239
894.00 4.552294
894.10 4.552348
894.20 4.552402
894.30 4.552456
894.40 4.55251
894.50 4.552564
894.60 4.552618
894.70 4.552671
894.80 4.552725
894.90 4.552778
895.00 4.552831
895.10 4.552884
895.20 4.552937
895.30 4.552989
895.40 4.553042
895.50 4.553094
895.60 4.553147
895.70 4.553199
895.80 4.553251
895.90 4.553302
896.00 4.553354
896.10 4.553406
896.20 4.553457
896.30 4.553509
896.40 4.55356
896.50 4.553611
896.60 4.553662
896.70 4.553712
896.80 4.553763
896.90 4.553814
897.00 4.553864
897.10 4.553914
897.20 4.553962
897.30 4.553968
897.40 4.553973
897.50 4.553978
897.60 4.553983
897.70 4.553988
897.80 4.553993
897.90 4.553998
898.00 4.554002
898.10 4.554007
898.20 4.554011
898.30 4.554015
898.40 4.554019
898.50 4.554023
898.60 4.554027
898.70 4.554031
898.80 4.554035
898.90 4.554038
899.00 4.554042
899.10 4.554045
899.20 4.554048
899.30 4.554051
899.40 4.554054
899.50 4.554057
899.60 4.55406
899.70 4.554062
899.80 4.554065
899.90 4.554067
900.00 4.55407
900.10 4.554072
900.20 4.554074
900.30 4.554076
900.40 4.554078
900.50 4.554079
900.60 4.554081
900.70 4.554082
900.80 4.554084
900.90 4.554085
901.00 4.554086
901.10 4.554087
901.20 4.554088
901.30 4.554089
901.40 4.55409
901.50 4.55409
901.60 4.554091
901.70 4.554103
901.80 4.554171
901.90 4.554238
902.00 4.554306
902.10 4.554373
902.20 4.55444
902.30 4.554507
902.40 4.554573
902.50 4.55464
902.60 4.554707
902.70 4.554773
902.80 4.554839
902.90 4.554905
903.00 4.554971
903.10 4.555037
903.20 4.555102
903.30 4.555168
903.40 4.555233
903.50 4.555298
903.60 4.555363
903.70 4.555428
903.80 4.555493
903.90 4.555558
904.00 4.555622
904.10 4.555687
904.20 4.555751
904.30 4.555815
904.40 4.555879
904.50 4.555943
904.60 4.556006
904.70 4.55607
904.80 4.556133
904.90 4.556196
905.00 4.55626
905.10 4.556322
905.20 4.556385
905.30 4.556448
905.40 4.556511
905.50 4.556573
905.60 4.556635
905.70 4.556697
905.80 4.556759
905.90 4.556821
906.00 4.556883
906.10 4.556944
906.20 4.556981
906.30 4.556966
906.40 4.556951
906.50 4.556935
906.60 4.55692
906.70 4.556904
906.80 4.556888
906.90 4.556872
907.00 4.556856
907.10 4.55684
907.20 4.556824
907.30 4.556807
907.40 4.556791
907.50 4.556774
907.60 4.556758
907.70 4.556741
907.80 4.556724
907.90 4.556707
908.00 4.55669
908.10 4.556673
908.20 4.556655
908.30 4.556638
908.40 4.556621
908.50 4.556603
908.60 4.556585
908.70 4.556568
908.80 4.55655
908.90 4.556532
909.00 4.556514
909.10 4.556495
909.20 4.556477
909.30 4.556459
909.40 4.55644
909.50 4.556422
909.60 4.556403
909.70 4.556384
909.80 4.556365
909.90 4.556346
910.00 4.556327
910.10 4.556308
910.20 4.556288
910.30 4.556269
910.40 4.556249
910.50 4.55623
910.60 4.55621
910.70 4.55619
910.80 4.55617
910.90 4.55615
911.00 4.55613
911.10 4.55611
911.20 4.55609
911.30 4.556069
911.40 4.556049
911.50 4.556028
911.60 4.556007
911.70 4.555986
911.80 4.555966
911.90 4.555944
912.00 4.555923
912.10 4.555902
912.20 4.555881
912.30 4.555859
912.40 4.555838
912.50 4.555816
912.60 4.555794
912.70 4.555773
912.80 4.555751
912.90 4.555729
913.00 4.555706
913.10 4.555684
913.20 4.555662
913.30 4.555639
913.40 4.555617
913.50 4.555594
913.60 4.555572
913.70 4.555549
913.80 4.555526
913.90 4.555503
914.00 4.55548
914.10 4.555456
914.20 4.555433
914.30 4.55541
914.40 4.555386
914.50 4.555363
914.60 4.555339
914.70 4.555315
914.80 4.555291
914.90 4.555267
915.00 4.555243
915.10 4.555219
915.20 4.555194
915.30 4.555163
915.40 4.555129
915.50 4.555095
915.60 4.555061
915.70 4.555027
915.80 4.554992
915.90 4.554958
916.00 4.554923
916.10 4.554888
916.20 4.554853
916.30 4.554819
916.40 4.554784
916.50 4.554748
916.60 4.554713
916.70 4.554678
916.80 4.554643
916.90 4.554607
917.00 4.554572
917.10 4.554536
917.20 4.5545
917.30 4.554465
917.40 4.554429
917.50 4.554393
917.60 4.554356
917.70 4.55432
917.80 4.554284
917.90 4.554248
918.00 4.554211
918.10 4.554175
918.20 4.554138
918.30 4.554101
918.40 4.554064
918.50 4.554027
918.60 4.55399
918.70 4.553953
918.80 4.553916
918.90 4.553879
919.00 4.553841
919.10 4.553804
919.20 4.553766
919.30 4.553729
919.40 4.553691
919.50 4.553653
919.60 4.553615
919.70 4.553577
919.80 4.553539
919.90 4.553501
920.00 4.553462
920.10 4.553424
920.20 4.553386
920.30 4.553347
920.40 4.553308
920.50 4.55327
920.60 4.553231
920.70 4.553192
920.80 4.553153
920.90 4.553114
921.00 4.553074
921.10 4.553035
921.20 4.552996
921.30 4.552956
921.40 4.552917
921.50 4.552877
921.60 4.552837
921.70 4.552797
921.80 4.552758
921.90 4.552718
922.00 4.552677
922.10 4.552637
922.20 4.552597
922.30 4.552557
922.40 4.552516
922.50 4.552476
922.60 4.552435
922.70 4.552394
922.80 4.552353
922.90 4.552312
923.00 4.552271
923.10 4.55223
923.20 4.552189
923.30 4.552148
923.40 4.552106
923.50 4.552065
923.60 4.552023
923.70 4.551982
923.80 4.55194
923.90 4.551898
924.00 4.551856
924.10 4.551814
924.20 4.551772
924.30 4.55173
924.40 4.551686
924.50 4.551635
924.60 4.551583
924.70 4.551531
924.80 4.551479
924.90 4.551427
925.00 4.551375
925.10 4.551323
925.20 4.55127
925.30 4.551218
925.40 4.551165
925.50 4.551113
925.60 4.55106
925.70 4.551008
925.80 4.550955
925.90 4.550902
926.00 4.550849
926.10 4.550796
926.20 4.550743
926.30 4.550689
926.40 4.550636
926.50 4.550583
926.60 4.550529
926.70 4.550476
926.80 4.550422
926.90 4.550368
927.00 4.550315
927.10 4.550261
927.20 4.550207
927.30 4.550153
927.40 4.550099
927.50 4.550044
927.60 4.54999
927.70 4.549936
927.80 4.549881
927.90 4.549827
928.00 4.549772
928.10 4.549717
928.20 4.549663
928.30 4.549608
928.40 4.549553
928.50 4.549498
928.60 4.549443
928.70 4.549388
928.80 4.549332
928.90 4.549277
929.00 4.549221
929.10 4.549166
929.20 4.54911
929.30 4.549055
929.40 4.548999
929.50 4.548943
929.60 4.548887
929.70 4.548831
929.80 4.548775
929.90 4.548719
930.00 4.548663
930.10 4.548606
930.20 4.54855
930.30 4.548493
930.40 4.548437
930.50 4.54838
930.60 4.548323
930.70 4.548267
930.80 4.54821
930.90 4.548153
931.00 4.548096
931.10 4.548038
931.20 4.547981
931.30 4.547924
931.40 4.547867
931.50 4.547809
931.60 4.547752
931.70 4.547694
931.80 4.547636
931.90 4.547578
932.00 4.547521
932.10 4.547463
932.20 4.547405
932.30 4.547347
932.40 4.547288
932.50 4.54723
932.60 4.547172
932.70 4.547113
932.80 4.547055
932.90 4.546996
933.00 4.546938
933.10 4.546879
933.20 4.54682
933.30 4.546761
933.40 4.546702
933.50 4.546643
933.60 4.546584
933.70 4.546496
933.80 4.546397
933.90 4.546299
934.00 4.5462
934.10 4.546102
934.20 4.546003
934.30 4.545904
934.40 4.545805
934.50 4.545706
934.60 4.545607
934.70 4.545508
934.80 4.545409
934.90 4.54531
935.00 4.545211
935.10 4.545111
935.20 4.545012
935.30 4.544913
935.40 4.544813
935.50 4.544714
935.60 4.544614
935.70 4.544515
935.80 4.544415
935.90 4.544315
936.00 4.544215
936.10 4.544115
936.20 4.544015
936.30 4.543915
936.40 4.543815
936.50 4.543715
936.60 4.543615
936.70 4.543515
936.80 4.543414
936.90 4.543314
937.00 4.543214
937.10 4.543113
937.20 4.543013
937.30 4.542912
937.40 4.542811
937.50 4.54271
937.60 4.54261
937.70 4.542509
937.80 4.542408
937.90 4.542307
938.00 4.542206
938.10 4.542105
938.20 4.542004
938.30 4.541902
938.40 4.541801
938.50 4.5417
938.60 4.541598
938.70 4.541497
938.80 4.541395
938.90 4.541294
939.00 4.541192
939.10 4.54109
939.20 4.540989
939.30 4.540887
939.40 4.540785
939.50 4.540683
939.60 4.540581
939.70 4.540479
939.80 4.540377
939.90 4.540275
940.00 4.540172
940.10 4.54007
940.20 4.539968
940.30 4.539865
940.40 4.539763
940.50 4.53966
940.60 4.539558
940.70 4.539455
940.80 4.539352
940.90 4.53925
941.00 4.539147
941.10 4.539044
941.20 4.538941
941.30 4.538838
941.40 4.538735
941.50 4.538632
941.60 4.538529
941.70 4.538425
941.80 4.538322
941.90 4.538219
942.00 4.538115
942.10 4.538012
942.20 4.537908
942.30 4.537805
942.40 4.537701
942.50 4.537597
942.60 4.537494
942.70 4.53739
942.80 4.537286
942.90 4.537182
943.00 4.537064
943.10 4.536922
943.20 4.53678
943.30 4.536638
943.40 4.536496
943.50 4.536354
943.60 4.536212
943.70 4.536069
943.80 4.535927
943.90 4.535785
944.00 4.535643
944.10 4.5355
944.20 4.535358
944.30 4.535216
944.40 4.535073
944.50 4.534931
944.60 4.534788
944.70 4.534646
944.80 4.534503
944.90 4.53436
945.00 4.534218
945.10 4.534075
945.20 4.533932
945.30 4.533789
945.40 4.533647
945.50 4.533504
945.60 4.533361
945.70 4.533218
945.80 4.533075
945.90 4.532932
946.00 4.532789
946.10 4.532646
946.20 4.532502
946.30 4.532359
946.40 4.532216
946.50 4.532073
946.60 4.531929
946.70 4.531786
946.80 4.531642
946.90 4.531499
947.00 4.531355
947.10 4.531212
947.20 4.531068
947.30 4.530925
947.40 4.530781
947.50 4.530637
947.60 4.530494
947.70 4.53035
947.80 4.530206
947.90 4.530062
948.00 4.529918
948.10 4.529774
948.20 4.52963
948.30 4.529486
948.40 4.529342
948.50 4.529198
948.60 4.529054
948.70 4.52891
948.80 4.528766
948.90 4.528621
949.00 4.528477
949.10 4.528333
949.20 4.528188
949.30 4.528044
949.40 4.527899
949.50 4.527755
949.60 4.52761
949.70 4.527466
949.80 4.527321
949.90 4.527176
950.00 4.527032
950.10 4.526887
950.20 4.526742
950.30 4.526597
950.40 4.526453
950.50 4.526308
950.60 4.526163
950.70 4.526018
950.80 4.525873
950.90 4.525728
951.00 4.525583
951.10 4.525437
951.20 4.525292
951.30 4.525147
951.40 4.525002
951.50 4.524857
951.60 4.524711
951.70 4.524566
951.80 4.52442
951.90 4.524275
952.00 4.52413
952.10 4.523984
952.20 4.523838
952.30 4.523693
952.40 4.523547
952.50 4.523393
952.60 4.523239
952.70 4.523086
952.80 4.522932
952.90 4.522778
953.00 4.522624
953.10 4.522471
953.20 4.522317
953.30 4.522163
953.40 4.522009
953.50 4.521855
953.60 4.521701
953.70 4.521547
953.80 4.521393
953.90 4.521239
954.00 4.521085
954.10 4.52093
954.20 4.520776
954.30 4.520622
954.40 4.520468
954.50 4.520313
954.60 4.520159
954.70 4.520005
954.80 4.51985
954.90 4.519696
955.00 4.519541
955.10 4.519387
955.20 4.519232
955.30 4.519078
955.40 4.518923
955.50 4.518769
955.60 4.518614
955.70 4.518459
955.80 4.518304
955.90 4.51815
956.00 4.517995
956.10 4.51784
956.20 4.517685
956.30 4.51753
956.40 4.517375
956.50 4.51722
956.60 4.517065
956.70 4.51691
956.80 4.516755
956.90 4.5166
957.00 4.516445
957.10 4.516289
957.20 4.516134
957.30 4.515979
957.40 4.515824
957.50 4.515668
957.60 4.515513
957.70 4.515358
957.80 4.515202
957.90 4.515047
958.00 4.514891
958.10 4.514736
958.20 4.51458
958.30 4.514424
958.40 4.514269
958.50 4.514113
958.60 4.513957
958.70 4.513802
958.80 4.513646
958.90 4.51349
959.00 4.513334
959.10 4.513178
959.20 4.513023
959.30 4.512867
959.40 4.512711
959.50 4.512555
959.60 4.512399
959.70 4.512243
959.80 4.512087
959.90 4.51193
960.00 4.511774
960.10 4.511618
960.20 4.511462
960.30 4.511306
960.40 4.511149
960.50 4.510993
960.60 4.510837
960.70 4.51068
960.80 4.510524
960.90 4.510367
961.00 4.510211
961.10 4.510054
961.20 4.509898
961.30 4.509741
961.40 4.509585
961.50 4.509428
961.60 4.509271
961.70 4.509114
961.80 4.508958
961.90 4.508801
962.00 4.508638
962.10 4.508473
962.20 4.508309
962.30 4.508144
962.40 4.507979
962.50 4.507815
962.60 4.50765
962.70 4.507485
962.80 4.50732
962.90 4.507156
963.00 4.506991
963.10 4.506826
963.20 4.506661
963.30 4.506496
963.40 4.506331
963.50 4.506166
963.60 4.506001
963.70 4.505836
963.80 4.505671
963.90 4.505506
964.00 4.505341
964.10 4.505176
964.20 4.505011
964.30 4.504846
964.40 4.504681
964.50 4.504515
964.60 4.50435
964.70 4.504185
964.80 4.504019
964.90 4.503854
965.00 4.503689
965.10 4.503523
965.20 4.503358
965.30 4.503192
965.40 4.503027
965.50 4.502861
965.60 4.502696
965.70 4.50253
965.80 4.502365
965.90 4.502199
966.00 4.502033
966.10 4.501868
966.20 4.501702
966.30 4.501536
966.40 4.50137
966.50 4.501205
966.60 4.501039
966.70 4.500873
966.80 4.500707
966.90 4.500541
967.00 4.500375
967.10 4.500209
967.20 4.500043
967.30 4.499877
967.40 4.499711
967.50 4.499545
967.60 4.499379
967.70 4.499213
967.80 4.499047
967.90 4.498881
968.00 4.498714
968.10 4.498548
968.20 4.498382
968.30 4.498215
968.40 4.498049
968.50 4.497883
968.60 4.497716
968.70 4.49755
968.80 4.497384
968.90 4.497217
969.00 4.497051
969.10 4.496884
969.20 4.496718
969.30 4.496551
969.40 4.496384
969.50 4.496218
969.60 4.496051
969.70 4.495885
969.80 4.495718
969.90 4.495551
970.00 4.495384
970.10 4.495218
970.20 4.495051
970.30 4.494884
970.40 4.494717
970.50 4.49455
970.60 4.494383
970.70 4.494216
970.80 4.494049
970.90 4.493882
971.00 4.493715
971.10 4.493548
971.20 4.493381
971.30 4.493214
971.40 4.493047
971.50 4.49288
971.60 4.49269
971.70 4.492489
971.80 4.492287
971.90 4.492086
972.00 4.491884
972.10 4.491683
972.20 4.491481
972.30 4.49128
972.40 4.491078
972.50 4.490877
972.60 4.490675
972.70 4.490474
972.80 4.490272
972.90 4.49007
973.00 4.489869
973.10 4.489667
973.20 4.489465
973.30 4.489264
973.40 4.489062
973.50 4.48886
973.60 4.488659
973.70 4.488457
973.80 4.488255
973.90 4.488053
974.00 4.487852
974.10 4.48765
974.20 4.487448
974.30 4.487246
974.40 4.487045
974.50 4.486843
974.60 4.486641
974.70 4.486439
974.80 4.486237
974.90 4.486035
975.00 4.485834
975.10 4.485632
975.20 4.48543
975.30 4.485228
975.40 4.485026
975.50 4.484824
975.60 4.484622
975.70 4.48442
975.80 4.484218
975.90 4.484016
976.00 4.483814
976.10 4.483612
976.20 4.48341
976.30 4.483208
976.40 4.483006
976.50 4.482804
976.60 4.482602
976.70 4.4824
976.80 4.482198
976.90 4.481996
977.00 4.481794
977.10 4.481592
977.20 4.48139
977.30 4.481188
977.40 4.480985
977.50 4.480783
977.60 4.480581
977.70 4.480379
977.80 4.480177
977.90 4.479975
978.00 4.479772
978.10 4.47957
978.20 4.479368
978.30 4.479166
978.40 4.478964
978.50 4.478761
978.60 4.478559
978.70 4.478357
978.80 4.478154
978.90 4.477952
979.00 4.47775
979.10 4.477548
979.20 4.477345
979.30 4.477143
979.40 4.47694
979.50 4.476738
979.60 4.476536
979.70 4.476333
979.80 4.476131
979.90 4.475929
980.00 4.475726
980.10 4.475524
980.20 4.475321
980.30 4.475119
980.40 4.474916
980.50 4.474714
980.60 4.474511
980.70 4.474309
980.80 4.474106
980.90 4.473904
981.00 4.473701
981.10 4.473499
981.20 4.473296
981.30 4.47309
981.40 4.472881
981.50 4.472671
981.60 4.472461
981.70 4.472252
981.80 4.472042
981.90 4.471832
982.00 4.471623
982.10 4.471413
982.20 4.471203
982.30 4.470993
982.40 4.470784
982.50 4.470574
982.60 4.470364
982.70 4.470155
982.80 4.469945
982.90 4.469735
983.00 4.469525
983.10 4.469316
983.20 4.469106
983.30 4.468896
983.40 4.468686
983.50 4.468476
983.60 4.468267
983.70 4.468057
983.80 4.467847
983.90 4.467637
984.00 4.467427
984.10 4.467217
984.20 4.467008
984.30 4.466798
984.40 4.466588
984.50 4.466378
984.60 4.466168
984.70 4.465958
984.80 4.465748
984.90 4.465538
985.00 4.465329
985.10 4.465119
985.20 4.464909
985.30 4.464699
985.40 4.464489
985.50 4.464279
985.60 4.464069
985.70 4.463859
985.80 4.463649
985.90 4.463439
986.00 4.463229
986.10 4.463019
986.20 4.462809
986.30 4.462599
986.40 4.462389
986.50 4.462179
986.60 4.461969
986.70 4.461759
986.80 4.461549
986.90 4.461339
987.00 4.461129
987.10 4.460919
987.20 4.460709
987.30 4.460499
987.40 4.460289
987.50 4.460079
987.60 4.459869
987.70 4.459659
987.80 4.459449
987.90 4.459239
988.00 4.459029
988.10 4.458818
988.20 4.458608
988.30 4.458398
988.40 4.458188
988.50 4.457978
988.60 4.457768
988.70 4.457558
988.80 4.457348
988.90 4.457137
989.00 4.456927
989.10 4.456717
989.20 4.456507
989.30 4.456297
989.40 4.456087
989.50 4.455876
989.60 4.455666
989.70 4.455456
989.80 4.455246
989.90 4.455036
990.00 4.454825
990.10 4.454615
990.20 4.454405
990.30 4.454195
990.40 4.453984
990.50 4.453774
990.60 4.453564
990.70 4.453354
990.80 4.453143
990.90 4.452933
991.00 4.452723
991.10 4.452501
991.20 4.452258
991.30 4.452016
991.40 4.451774
991.50 4.451532
991.60 4.451289
991.70 4.451047
991.80 4.450805
991.90 4.450563
992.00 4.450321
992.10 4.450078
992.20 4.449836
992.30 4.449594
992.40 4.449352
992.50 4.44911
992.60 4.448868
992.70 4.448625
992.80 4.448383
992.90 4.448141
993.00 4.447899
993.10 4.447657
993.20 4.447415
993.30 4.447173
993.40 4.446931
993.50 4.446688
993.60 4.446446
993.70 4.446204
993.80 4.445962
993.90 4.44572
994.00 4.445478
994.10 4.445236
994.20 4.444994
994.30 4.444752
994.40 4.44451
994.50 4.444268
994.60 4.444026
994.70 4.443784
994.80 4.443542
994.90 4.4433
995.00 4.443058
995.10 4.442816
995.20 4.442574
995.30 4.442332
995.40 4.44209
995.50 4.441848
995.60 4.441606
995.70 4.441364
995.80 4.441122
995.90 4.440881
996.00 4.440639
996.10 4.440356
996.20 4.440064
996.30 4.439772
996.40 4.43948
996.50 4.439188
996.60 4.438896
996.70 4.438604
996.80 4.438312
996.90 4.438021
997.00 4.437729
997.10 4.437437
997.20 4.437146
997.30 4.436854
997.40 4.436562
997.50 4.436271
997.60 4.435979
997.70 4.435688
997.80 4.435396
997.90 4.435105
998.00 4.434813
998.10 4.434522
998.20 4.43423
998.30 4.433939
998.40 4.433647
998.50 4.433356
998.60 4.433065
998.70 4.432774
998.80 4.432482
998.90 4.432191
999.00 4.4319
999.10 4.431609
999.20 4.431318
999.30 4.431027
999.40 4.430735
999.50 4.430444
999.60 4.430153
999.70 4.429862
999.80 4.429571
999.90 4.42928
1000.00 4.42899
1000.10 4.428699
1000.20 4.428408
1000.30 4.428117
1000.40 4.427826
1000.50 4.427535
1000.60 4.427245
1000.70 4.426954
1000.80 4.426663
1000.90 4.426373
1001.00 4.426093
1001.10 4.425846
1001.20 4.425598
1001.30 4.425351
1001.40 4.425104
1001.50 4.424856
1001.60 4.424609
1001.70 4.424361
1001.80 4.424114
1001.90 4.423867
1002.00 4.423619
1002.10 4.423372
1002.20 4.423125
1002.30 4.422877
1002.40 4.42263
1002.50 4.422383
1002.60 4.422136
1002.70 4.421888
1002.80 4.421641
1002.90 4.421394
1003.00 4.421147
1003.10 4.420899
1003.20 4.420652
1003.30 4.420405
1003.40 4.420158
1003.50 4.419911
1003.60 4.419663
1003.70 4.419416
1003.80 4.419169
1003.90 4.418922
1004.00 4.418675
1004.10 4.418428
1004.20 4.418181
1004.30 4.417933
1004.40 4.417686
1004.50 4.417439
1004.60 4.417192
1004.70 4.416945
1004.80 4.416698
1004.90 4.416451
1005.00 4.416204
1005.10 4.415957
1005.20 4.41571
1005.30 4.415463
1005.40 4.415216
1005.50 4.414969
1005.60 4.414722
1005.70 4.414475
1005.80 4.414228
1005.90 4.413981
1006.00 4.413735
1006.10 4.413488
1006.20 4.413241
1006.30 4.412994
1006.40 4.412747
1006.50 4.412501
1006.60 4.412254
1006.70 4.412007
1006.80 4.411761
1006.90 4.411514
1007.00 4.411267
1007.10 4.411021
1007.20 4.410774
1007.30 4.410527
1007.40 4.410281
1007.50 4.410034
1007.60 4.409787
1007.70 4.409541
1007.80 4.409294
1007.90 4.409048
1008.00 4.408801
1008.10 4.408555
1008.20 4.408308
1008.30 4.408062
1008.40 4.407815
1008.50 4.407568
1008.60 4.407322
1008.70 4.407076
1008.80 4.406829
1008.90 4.406583
1009.00 4.406336
1009.10 4.40609
1009.20 4.405843
1009.30 4.405597
1009.40 4.40535
1009.50 4.405104
1009.60 4.404858
1009.70 4.404611
1009.80 4.404365
1009.90 4.404119
1010.00 4.403872
1010.10 4.403626
1010.20 4.40338
1010.30 4.403133
1010.40 4.402887
1010.50 4.402641
1010.60 4.402394
1010.70 4.402148
1010.80 4.401902
1010.90 4.401656
1011.00 4.4014
1011.10 4.4011
1011.20 4.4008
1011.30 4.4005
1011.40 4.4002
1011.50 4.3999
1011.60 4.3996
1011.70 4.399301
1011.80 4.399001
1011.90 4.398701
1012.00 4.398401
1012.10 4.398101
1012.20 4.397802
1012.30 4.397502
1012.40 4.397202
1012.50 4.396903
1012.60 4.396603
1012.70 4.396304
1012.80 4.396004
1012.90 4.395705
1013.00 4.395405
1013.10 4.395106
1013.20 4.394806
1013.30 4.394507
1013.40 4.394208
1013.50 4.393909
1013.60 4.393609
1013.70 4.39331
1013.80 4.393011
1013.90 4.392712
1014.00 4.392413
1014.10 4.392114
1014.20 4.391815
1014.30 4.391516
1014.40 4.391217
1014.50 4.390918
1014.60 4.390619
1014.70 4.39032
1014.80 4.390021
1014.90 4.389722
1015.00 4.389423
1015.10 4.389125
1015.20 4.388826
1015.30 4.388527
1015.40 4.388228
1015.50 4.38793
1015.60 4.387631
1015.70 4.387333
1015.80 4.387034
1015.90 4.386736
1016.00 4.386437
1016.10 4.386139
1016.20 4.38584
1016.30 4.385542
1016.40 4.385244
1016.50 4.384945
1016.60 4.384647
1016.70 4.384349
1016.80 4.384051
1016.90 4.383753
1017.00 4.383454
1017.10 4.383156
1017.20 4.382858
1017.30 4.38256
1017.40 4.382262
1017.50 4.381964
1017.60 4.381666
1017.70 4.381368
1017.80 4.38107
1017.90 4.380773
1018.00 4.380475
1018.10 4.380177
1018.20 4.379879
1018.30 4.379582
1018.40 4.379284
1018.50 4.378986
1018.60 4.378689
1018.70 4.378391
1018.80 4.378093
1018.90 4.377796
1019.00 4.377498
1019.10 4.377201
1019.20 4.376904
1019.30 4.376606
1019.40 4.376309
1019.50 4.376012
1019.60 4.375714
1019.70 4.375417
1019.80 4.37512
1019.90 4.374823
1020.00 4.374525
1020.10 4.374228
1020.20 4.373931
1020.30 4.373634
1020.40 4.373337
1020.50 4.37304
1020.60 4.372743
1020.70 4.372446
1020.80 4.372149
1020.90 4.371852
1021.00 4.371556
1021.10 4.371262
1021.20 4.371005
1021.30 4.370749
1021.40 4.370493
1021.50 4.370237
1021.60 4.369981
1021.70 4.369724
1021.80 4.369468
1021.90 4.369212
1022.00 4.368956
1022.10 4.3687
1022.20 4.368444
1022.30 4.368188
1022.40 4.367932
1022.50 4.367676
1022.60 4.36742
1022.70 4.367164
1022.80 4.366908
1022.90 4.366652
1023.00 4.366396
1023.10 4.36614
1023.20 4.365884
1023.30 4.365629
1023.40 4.365373
1023.50 4.365117
1023.60 4.364861
1023.70 4.364605
1023.80 4.364349
1023.90 4.364094
1024.00 4.363838
1024.10 4.363582
1024.20 4.363326
1024.30 4.363071
1024.40 4.362815
1024.50 4.362559
1024.60 4.362304
1024.70 4.362048
1024.80 4.361792
1024.90 4.361537
1025.00 4.361281
1025.10 4.361026
1025.20 4.36077
1025.30 4.360515
1025.40 4.360259
1025.50 4.360004
1025.60 4.359748
1025.70 4.359493
1025.80 4.359237
1025.90 4.358982
1026.00 4.358726
1026.10 4.358471
1026.20 4.358215
1026.30 4.357914
1026.40 4.357613
1026.50 4.357312
1026.60 4.357011
1026.70 4.356711
1026.80 4.35641
1026.90 4.356109
1027.00 4.355808
1027.10 4.355508
1027.20 4.355207
1027.30 4.354907
1027.40 4.354606
1027.50 4.354305
1027.60 4.354005
1027.70 4.353704
1027.80 4.353404
1027.90 4.353104
1028.00 4.352803
1028.10 4.352503
1028.20 4.352203
1028.30 4.351902
1028.40 4.351602
1028.50 4.351302
1028.60 4.351002
1028.70 4.350702
1028.80 4.350402
1028.90 4.350102
1029.00 4.349802
1029.10 4.349502
1029.20 4.349202
1029.30 4.348902
1029.40 4.348602
1029.50 4.348302
1029.60 4.348002
1029.70 4.347702
1029.80 4.347403
1029.90 4.347103
1030.00 4.346803
1030.10 4.346504
1030.20 4.346204
1030.30 4.345904
1030.40 4.345605
1030.50 4.345305
1030.60 4.345006
1030.70 4.344707
1030.80 4.344407
1030.90 4.344108
1031.00 4.343808
1031.10 4.343509
1031.20 4.34321
1031.30 4.342911
1031.40 4.342563
1031.50 4.342214
1031.60 4.341865
1031.70 4.341515
1031.80 4.341166
1031.90 4.340817
1032.00 4.340468
1032.10 4.340119
1032.20 4.33977
1032.30 4.339421
1032.40 4.339072
1032.50 4.338723
1032.60 4.338374
1032.70 4.338025
1032.80 4.337677
1032.90 4.337328
1033.00 4.336979
1033.10 4.336631
1033.20 4.336282
1033.30 4.335934
1033.40 4.335586
1033.50 4.335237
1033.60 4.334889
1033.70 4.334541
1033.80 4.334193
1033.90 4.333844
1034.00 4.333496
1034.10 4.333148
1034.20 4.3328
1034.30 4.332453
1034.40 4.332105
1034.50 4.331757
1034.60 4.331409
1034.70 4.331062
1034.80 4.330714
1034.90 4.330366
1035.00 4.330019
1035.10 4.329671
1035.20 4.329324
1035.30 4.328977
1035.40 4.328629
1035.50 4.328282
1035.60 4.327935
1035.70 4.327588
1035.80 4.327241
1035.90 4.326894
1036.00 4.326547
1036.10 4.3262
1036.20 4.325853
1036.30 4.325506
1036.40 4.325159
1036.50 4.32483
1036.60 4.324528
1036.70 4.324225
1036.80 4.323923
1036.90 4.323621
1037.00 4.323319
1037.10 4.323017
1037.20 4.322715
1037.30 4.322413
1037.40 4.322111
1037.50 4.321809
1037.60 4.321507
1037.70 4.321205
1037.80 4.320904
1037.90 4.320602
1038.00 4.3203
1038.10 4.319998
1038.20 4.319697
1038.30 4.319395
1038.40 4.319094
1038.50 4.318792
1038.60 4.318491
1038.70 4.318189
1038.80 4.317888
1038.90 4.317586
1039.00 4.317285
1039.10 4.316984
1039.20 4.316682
1039.30 4.316381
1039.40 4.31608
1039.50 4.315779
1039.60 4.315478
1039.70 4.315176
1039.80 4.314875
1039.90 4.314574
1040.00 4.314273
1040.10 4.313972
1040.20 4.313671
1040.30 4.313371
1040.40 4.31307
1040.50 4.312769
1040.60 4.312468
1040.70 4.312167
1040.80 4.311867
1040.90 4.311566
1041.00 4.311265
1041.10 4.310965
1041.20 4.310664
1041.30 4.310364
1041.40 4.310063
1041.50 4.309763
1041.60 4.309462
1041.70 4.309121
1041.80 4.308772
1041.90 4.308423
1042.00 4.308074
1042.10 4.307725
1042.20 4.307377
1042.30 4.307028
1042.40 4.306679
1042.50 4.30633
1042.60 4.305982
1042.70 4.305633
1042.80 4.305285
1042.90 4.304936
1043.00 4.304588
1043.10 4.304239
1043.20 4.303891
1043.30 4.303543
1043.40 4.303195
1043.50 4.302846
1043.60 4.302498
1043.70 4.30215
1043.80 4.301802
1043.90 4.301454
1044.00 4.301106
1044.10 4.300759
1044.20 4.300411
1044.30 4.300063
1044.40 4.299715
1044.50 4.299368
1044.60 4.29902
1044.70 4.298673
1044.80 4.298325
1044.90 4.297978
1045.00 4.297631
1045.10 4.297283
1045.20 4.296936
1045.30 4.296589
1045.40 4.296242
1045.50 4.295895
1045.60 4.295548
1045.70 4.295201
1045.80 4.294854
1045.90 4.294507
1046.00 4.29416
1046.10 4.293814
1046.20 4.293467
1046.30 4.29312
1046.40 4.292774
1046.50 4.292427
1046.60 4.292081
1046.70 4.291734
1046.80 4.291388
1046.90 4.291074
1047.00 4.290771
1047.10 4.290468
1047.20 4.290164
1047.30 4.289861
1047.40 4.289558
1047.50 4.289255
1047.60 4.288952
1047.70 4.288649
1047.80 4.288346
1047.90 4.288043
1048.00 4.287741
1048.10 4.287438
1048.20 4.287135
1048.30 4.286832
1048.40 4.28653
1048.50 4.286227
1048.60 4.285924
1048.70 4.285622
1048.80 4.285319
1048.90 4.285017
1049.00 4.284714
1049.10 4.284412
1049.20 4.284109
1049.30 4.283807
1049.40 4.283505
1049.50 4.283202
1049.60 4.2829
1049.70 4.282598
1049.80 4.282296
1049.90 4.281994
1050.00 4.281692
1050.10 4.28139
1050.20 4.281088
1050.30 4.280786
1050.40 4.280484
1050.50 4.280182
1050.60 4.27988
1050.70 4.279578
1050.80 4.279276
1050.90 4.278974
1051.00 4.278673
1051.10 4.278371
1051.20 4.278069
1051.30 4.277768
1051.40 4.277466
1051.50 4.277165
1051.60 4.276863
1051.70 4.276562
1051.80 4.27626
1051.90 4.275959
1052.00 4.275658
1052.10 4.275325
1052.20 4.274976
1052.30 4.274627
1052.40 4.274279
1052.50 4.273931
1052.60 4.273582
1052.70 4.273234
1052.80 4.272886
1052.90 4.272538
1053.00 4.27219
1053.10 4.271841
1053.20 4.271493
1053.30 4.271146
1053.40 4.270798
1053.50 4.27045
1053.60 4.270102
1053.70 4.269754
1053.80 4.269407
1053.90 4.269059
1054.00 4.268711
1054.10 4.268364
1054.20 4.268016
1054.30 4.267669
1054.40 4.267322
1054.50 4.266974
1054.60 4.266627
1054.70 4.26628
1054.80 4.265933
1054.90 4.265586
1055.00 4.265239
1055.10 4.264892
1055.20 4.264545
1055.30 4.264198
1055.40 4.263851
1055.50 4.263505
1055.60 4.263158
1055.70 4.262811
1055.80 4.262465
1055.90 4.262118
1056.00 4.261772
1056.10 4.261425
1056.20 4.261079
1056.30 4.260733
1056.40 4.260386
1056.50 4.26004
1056.60 4.259694
1056.70 4.259348
1056.80 4.259002
1056.90 4.258656
1057.00 4.25831
1057.10 4.257964
1057.20 4.257618
1057.30 4.257273
1057.40 4.256927
1057.50 4.256581
1057.60 4.256236
1057.70 4.25589
1057.80 4.255545
1057.90 4.255199
1058.00 4.254854
1058.10 4.254509
1058.20 4.254163
1058.30 4.253818
1058.40 4.253473
1058.50 4.253128
1058.60 4.252783
1058.70 4.252438
1058.80 4.252093
1058.90 4.251748
1059.00 4.251403
1059.10 4.251058
1059.20 4.250714
1059.30 4.250369
1059.40 4.250024
1059.50 4.24968
1059.60 4.249335
1059.70 4.248991
1059.80 4.248646
1059.90 4.248302
1060.00 4.247958
1060.10 4.247614
1060.20 4.247269
1060.30 4.246925
1060.40 4.246581
1060.50 4.246237
1060.60 4.245893
1060.70 4.245549
1060.80 4.245206
1060.90 4.244862
1061.00 4.244518
1061.10 4.244174
1061.20 4.243831
1061.30 4.243487
1061.40 4.243144
1061.50 4.2428
1061.60 4.242457
1061.70 4.242113
1061.80 4.24177
1061.90 4.241427
1062.00 4.241084
1062.10 4.24074
1062.20 4.240397
1062.30 4.240054
1062.40 4.239711
1062.50 4.239368
1062.60 4.239005
1062.70 4.238616
1062.80 4.238228
1062.90 4.23784
1063.00 4.237452
1063.10 4.237064
1063.20 4.236676
1063.30 4.236288
1063.40 4.235901
1063.50 4.235513
1063.60 4.235125
1063.70 4.234738
1063.80 4.23435
1063.90 4.233963
1064.00 4.233575
1064.10 4.233188
1064.20 4.232801
1064.30 4.232414
1064.40 4.232027
1064.50 4.23164
1064.60 4.231253
1064.70 4.230866
1064.80 4.230479
1064.90 4.230093
1065.00 4.229706
1065.10 4.229319
1065.20 4.228933
1065.30 4.228546
1065.40 4.22816
1065.50 4.227774
1065.60 4.227388
1065.70 4.227001
1065.80 4.226615
1065.90 4.226229
1066.00 4.225843
1066.10 4.225458
1066.20 4.225072
1066.30 4.224686
1066.40 4.2243
1066.50 4.223915
1066.60 4.223529
1066.70 4.223144
1066.80 4.222759
1066.90 4.222373
1067.00 4.221988
1067.10 4.221603
1067.20 4.221218
1067.30 4.220833
1067.40 4.220448
1067.50 4.220063
1067.60 4.219678
1067.70 4.219293
1067.80 4.218909
1067.90 4.218538
1068.00 4.218194
1068.10 4.21785
1068.20 4.217506
1068.30 4.217162
1068.40 4.216819
1068.50 4.216475
1068.60 4.216132
1068.70 4.215788
1068.80 4.215445
1068.90 4.215101
1069.00 4.214758
1069.10 4.214414
1069.20 4.214071
1069.30 4.213728
1069.40 4.213385
1069.50 4.213042
1069.60 4.212699
1069.70 4.212356
1069.80 4.212013
1069.90 4.21167
1070.00 4.211327
1070.10 4.210985
1070.20 4.210642
1070.30 4.210299
1070.40 4.209957
1070.50 4.209614
1070.60 4.209272
1070.70 4.208929
1070.80 4.208587
1070.90 4.208245
1071.00 4.207902
1071.10 4.20756
1071.20 4.207218
1071.30 4.206876
1071.40 4.206534
1071.50 4.206192
1071.60 4.20585
1071.70 4.205508
1071.80 4.205166
1071.90 4.204824
1072.00 4.204483
1072.10 4.204141
1072.20 4.203799
1072.30 4.203458
1072.40 4.203116
1072.50 4.202775
1072.60 4.202434
1072.70 4.202092
1072.80 4.201751
1072.90 4.20141
1073.00 4.201069
1073.10 4.200727
1073.20 4.200377
1073.30 4.199992
1073.40 4.199607
1073.50 4.199222
1073.60 4.198837
1073.70 4.198452
1073.80 4.198067
1073.90 4.197682
1074.00 4.197297
1074.10 4.196913
1074.20 4.196528
1074.30 4.196144
1074.40 4.195759
1074.50 4.195375
1074.60 4.194991
1074.70 4.194606
1074.80 4.194222
1074.90 4.193838
1075.00 4.193454
1075.10 4.19307
1075.20 4.192686
1075.30 4.192303
1075.40 4.191919
1075.50 4.191535
1075.60 4.191152
1075.70 4.190768
1075.80 4.190385
1075.90 4.190001
1076.00 4.189618
1076.10 4.189235
1076.20 4.188852
1076.30 4.188469
1076.40 4.188086
1076.50 4.187703
1076.60 4.18732
1076.70 4.186937
1076.80 4.186554
1076.90 4.186172
1077.00 4.185789
1077.10 4.185406
1077.20 4.185024
1077.30 4.184642
1077.40 4.184259
1077.50 4.183877
1077.60 4.183495
1077.70 4.183113
1077.80 4.182731
1077.90 4.182349
1078.00 4.181967
1078.10 4.181585
1078.20 4.181203
1078.30 4.180822
1078.40 4.18044
1078.50 4.180058
1078.60 4.179699
1078.70 4.179356
1078.80 4.179014
1078.90 4.178673
1079.00 4.178331
1079.10 4.177989
1079.20 4.177647
1079.30 4.177305
1079.40 4.176964
1079.50 4.176622
1079.60 4.17628
1079.70 4.175939
1079.80 4.175597
1079.90 4.175256
1080.00 4.174915
1080.10 4.174573
1080.20 4.174232
1080.30 4.173891
1080.40 4.17355
1080.50 4.173209
1080.60 4.172868
1080.70 4.172527
1080.80 4.172186
1080.90 4.171845
1081.00 4.171504
1081.10 4.171163
1081.20 4.170823
1081.30 4.170482
1081.40 4.170141
1081.50 4.169801
1081.60 4.16946
1081.70 4.16912
1081.80 4.16878
1081.90 4.168439
1082.00 4.168099
1082.10 4.167759
1082.20 4.167419
1082.30 4.167079
1082.40 4.166739
1082.50 4.166399
1082.60 4.166059
1082.70 4.165719
1082.80 4.165379
1082.90 4.165039
1083.00 4.164699
1083.10 4.16436
1083.20 4.16402
1083.30 4.163681
1083.40 4.163341
1083.50 4.163002
1083.60 4.162662
1083.70 4.162323
1083.80 4.161984
1083.90 4.161645
1084.00 4.161267
1084.10 4.160885
1084.20 4.160503
1084.30 4.160122
1084.40 4.15974
1084.50 4.159358
1084.60 4.158977
1084.70 4.158595
1084.80 4.158214
1084.90 4.157832
1085.00 4.157451
1085.10 4.15707
1085.20 4.156688
1085.30 4.156307
1085.40 4.155926
1085.50 4.155545
1085.60 4.155164
1085.70 4.154784
1085.80 4.154403
1085.90 4.154022
1086.00 4.153642
1086.10 4.153261
1086.20 4.152881
1086.30 4.1525
1086.40 4.15212
1086.50 4.151739
1086.60 4.151359
1086.70 4.150979
1086.80 4.150599
1086.90 4.150219
1087.00 4.149839
1087.10 4.149459
1087.20 4.14908
1087.30 4.1487
1087.40 4.14832
1087.50 4.147941
1087.60 4.147561
1087.70 4.147182
1087.80 4.146802
1087.90 4.146423
1088.00 4.146044
1088.10 4.145665
1088.20 4.145286
1088.30 4.144906
1088.40 4.144528
1088.50 4.144149
1088.60 4.14377
1088.70 4.143391
1088.80 4.143012
1088.90 4.142634
1089.00 4.142255
1089.10 4.141877
1089.20 4.141498
1089.30 4.14112
1089.40 4.140716
1089.50 4.140299
1089.60 4.139883
1089.70 4.139467
1089.80 4.139051
1089.90 4.138635
1090.00 4.138219
1090.10 4.137803
1090.20 4.137387
1090.30 4.136972
1090.40 4.136556
1090.50 4.136141
1090.60 4.135725
1090.70 4.13531
1090.80 4.134895
1090.90 4.13448
1091.00 4.134065
1091.10 4.13365
1091.20 4.133235
1091.30 4.13282
1091.40 4.132405
1091.50 4.13199
1091.60 4.131576
1091.70 4.131161
1091.80 4.130747
1091.90 4.130333
1092.00 4.129918
1092.10 4.129504
1092.20 4.12909
1092.30 4.128676
1092.40 4.128262
1092.50 4.127848
1092.60 4.127435
1092.70 4.127021
1092.80 4.126607
1092.90 4.126194
1093.00 4.12578
1093.10 4.125367
1093.20 4.124954
1093.30 4.124541
1093.40 4.124128
1093.50 4.123715
1093.60 4.123302
1093.70 4.122889
1093.80 4.122476
1093.90 4.122063
1094.00 4.121651
1094.10 4.121238
1094.20 4.120826
1094.30 4.120414
1094.40 4.120001
1094.50 4.119589
1094.60 4.119177
1094.70 4.118765
1094.80 4.11837
1094.90 4.117992
1095.00 4.117614
1095.10 4.117237
1095.20 4.116859
1095.30 4.116481
1095.40 4.116104
1095.50 4.115727
1095.60 4.115349
1095.70 4.114972
1095.80 4.114595
1095.90 4.114218
1096.00 4.11384
1096.10 4.113463
1096.20 4.113086
1096.30 4.11271
1096.40 4.112333
1096.50 4.111956
1096.60 4.111579
1096.70 4.111203
1096.80 4.110826
1096.90 4.11045
1097.00 4.110073
1097.10 4.109697
1097.20 4.109321
1097.30 4.108945
1097.40 4.108569
1097.50 4.108193
1097.60 4.107817
1097.70 4.107441
1097.80 4.107065
1097.90 4.106689
1098.00 4.106313
1098.10 4.105938
1098.20 4.105562
1098.30 4.105187
1098.40 4.104811
1098.50 4.104436
1098.60 4.104061
1098.70 4.103685
1098.80 4.10331
1098.90 4.102935
1099.00 4.10256
1099.10 4.102185
1099.20 4.10181
1099.30 4.101435
1099.40 4.101061
1099.50 4.100686
1099.60 4.100311
1099.70 4.099937
1099.80 4.099562
1099.90 4.099188
1100.00 4.098814
1100.10 4.098439
1100.20 4.098065
1100.30 4.097691
1100.40 4.097317
1100.50 4.096943
1100.60 4.096569
1100.70 4.096195
1100.80 4.095821
1100.90 4.095448
1101.00 4.095074
1101.10 4.094701
1101.20 4.094327
1101.30 4.093954
1101.40 4.09358
1101.50 4.093207
1101.60 4.092834
1101.70 4.09246
1101.80 4.092087
1101.90 4.091714
1102.00 4.091341
1102.10 4.090968
1102.20 4.090596
1102.30 4.090223
1102.40 4.08985
1102.50 4.089478
1102.60 4.089105
1102.70 4.088732
1102.80 4.08836
1102.90 4.087988
1103.00 4.087615
1103.10 4.087243
1103.20 4.086871
1103.30 4.086499
1103.40 4.086127
1103.50 4.085755
1103.60 4.085383
1103.70 4.085011
1103.80 4.08464
1103.90 4.084268
1104.00 4.083896
1104.10 4.083525
1104.20 4.083153
1104.30 4.082782
1104.40 4.08241
1104.50 4.082039
1104.60 4.081668
1104.70 4.081297
1104.80 4.080926
1104.90 4.080555
1105.00 4.080184
1105.10 4.079813
1105.20 4.079442
1105.30 4.079071
1105.40 4.078701
1105.50 4.07833
1105.60 4.07796
1105.70 4.077588
1105.80 4.077178
1105.90 4.076768
1106.00 4.076358
1106.10 4.075947
1106.20 4.075537
1106.30 4.075127
1106.40 4.074718
1106.50 4.074308
1106.60 4.073898
1106.70 4.073488
1106.80 4.073079
1106.90 4.072669
1107.00 4.07226
1107.10 4.071851
1107.20 4.071442
1107.30 4.071032
1107.40 4.070623
1107.50 4.070214
1107.60 4.069805
1107.70 4.069397
1107.80 4.068988
1107.90 4.068579
1108.00 4.068171
1108.10 4.067762
1108.20 4.067354
1108.30 4.066946
1108.40 4.066537
1108.50 4.066129
1108.60 4.065721
1108.70 4.065313
1108.80 4.064905
1108.90 4.064497
1109.00 4.06409
1109.10 4.063682
1109.20 4.063274
1109.30 4.062867
1109.40 4.062459
1109.50 4.062052
1109.60 4.061645
1109.70 4.061237
1109.80 4.06083
1109.90 4.060423
1110.00 4.060016
1110.10 4.05961
1110.20 4.059203
1110.30 4.058796
1110.40 4.058389
1110.50 4.057983
1110.60 4.057576
1110.70 4.05717
1110.80 4.056764
1110.90 4.056357
1111.00 4.055951
1111.10 4.055545
1111.20 4.055139
1111.30 4.054733
1111.40 4.054328
1111.50 4.053922
1111.60 4.053516
1111.70 4.053111
1111.80 4.052705
1111.90 4.0523
1112.00 4.051894
1112.10 4.051489
1112.20 4.051084
1112.30 4.050679
1112.40 4.050274
1112.50 4.049869
1112.60 4.049464
1112.70 4.049059
1112.80 4.048655
1112.90 4.04825
1113.00 4.047845
1113.10 4.047441
1113.20 4.047037
1113.30 4.046632
1113.40 4.046228
1113.50 4.045824
1113.60 4.04542
1113.70 4.045016
1113.80 4.044612
1113.90 4.044208
1114.00 4.043804
1114.10 4.043401
1114.20 4.042997
1114.30 4.042594
1114.40 4.04219
1114.50 4.041787
1114.60 4.041384
1114.70 4.04098
1114.80 4.040577
1114.90 4.040174
1115.00 4.039771
1115.10 4.039369
1115.20 4.038966
1115.30 4.038563
1115.40 4.03816
1115.50 4.037758
1115.60 4.037355
1115.70 4.036953
1115.80 4.036551
1115.90 4.036149
1116.00 4.035746
1116.10 4.035344
1116.20 4.034942
1116.30 4.03454
1116.40 4.034139
1116.50 4.033737
1116.60 4.033335
1116.70 4.032934
1116.80 4.032531
1116.90 4.032126
1117.00 4.031721
1117.10 4.031317
1117.20 4.030913
1117.30 4.030508
1117.40 4.030104
1117.50 4.0297
1117.60 4.029296
1117.70 4.028892
1117.80 4.028488
1117.90 4.028084
1118.00 4.027681
1118.10 4.027277
1118.20 4.026873
1118.30 4.02647
1118.40 4.026066
1118.50 4.025663
1118.60 4.02526
1118.70 4.024857
1118.80 4.024453
1118.90 4.02405
1119.00 4.023648
1119.10 4.023245
1119.20 4.022842
1119.30 4.022439
1119.40 4.022037
1119.50 4.021634
1119.60 4.021232
1119.70 4.020829
1119.80 4.020427
1119.90 4.020025
1120.00 4.019623
1120.10 4.01922
1120.20 4.018818
1120.30 4.018417
1120.40 4.018015
1120.50 4.017613
1120.60 4.017211
1120.70 4.01681
1120.80 4.016408
1120.90 4.016007
1121.00 4.015605
1121.10 4.015204
1121.20 4.014803
1121.30 4.014402
1121.40 4.014001
1121.50 4.0136
1121.60 4.013199
1121.70 4.012798
1121.80 4.012398
1121.90 4.011997
1122.00 4.011596
1122.10 4.011196
1122.20 4.010795
1122.30 4.010395
1122.40 4.009995
1122.50 4.009595
1122.60 4.009195
1122.70 4.008795
1122.80 4.008395
1122.90 4.007995
1123.00 4.007595
1123.10 4.007196
1123.20 4.006796
1123.30 4.006397
1123.40 4.005997
1123.50 4.005598
1123.60 4.005199
1123.70 4.0048
1123.80 4.004401
1123.90 4.004002
1124.00 4.003603
1124.10 4.003204
1124.20 4.002805
1124.30 4.002406
1124.40 4.002008
1124.50 4.001609
1124.60 4.001211
1124.70 4.000812
1124.80 4.000414
1124.90 4.000016
1125.00 3.999618
1125.10 3.99922
1125.20 3.998822
1125.30 3.998424
1125.40 3.998026
1125.50 3.997628
1125.60 3.997231
1125.70 3.996833
1125.80 3.996435
1125.90 3.996038
1126.00 3.995641
1126.10 3.995243
1126.20 3.994846
1126.30 3.994449
1126.40 3.994052
1126.50 3.993655
1126.60 3.993258
1126.70 3.992861
1126.80 3.992465
1126.90 3.992068
1127.00 3.991671
1127.10 3.991275
1127.20 3.990878
1127.30 3.990482
1127.40 3.990086
1127.50 3.98969
1127.60 3.989294
1127.70 3.988898
1127.80 3.988502
1127.90 3.988106
1128.00 3.987694
1128.10 3.987278
1128.20 3.986862
1128.30 3.986446
1128.40 3.986031
1128.50 3.985615
1128.60 3.985199
1128.70 3.984784
1128.80 3.984369
1128.90 3.983953
1129.00 3.983538
1129.10 3.983123
1129.20 3.982708
1129.30 3.982293
1129.40 3.981878
1129.50 3.981463
1129.60 3.981049
1129.70 3.980634
1129.80 3.980219
1129.90 3.979805
1130.00 3.979391
1130.10 3.978976
1130.20 3.978562
1130.30 3.978148
1130.40 3.977734
1130.50 3.97732
1130.60 3.976906
1130.70 3.976492
1130.80 3.976079
1130.90 3.975665
1131.00 3.975252
1131.10 3.974838
1131.20 3.974425
1131.30 3.974011
1131.40 3.973598
1131.50 3.973185
1131.60 3.972772
1131.70 3.972359
1131.80 3.971946
1131.90 3.971534
1132.00 3.971121
1132.10 3.970708
1132.20 3.970296
1132.30 3.969883
1132.40 3.969471
1132.50 3.969059
1132.60 3.968646
1132.70 3.968234
1132.80 3.967822
1132.90 3.96741
1133.00 3.966999
1133.10 3.966587
1133.20 3.966175
1133.30 3.965763
1133.40 3.965352
1133.50 3.964941
1133.60 3.964529
1133.70 3.964118
1133.80 3.963707
1133.90 3.963296
1134.00 3.962885
1134.10 3.962474
1134.20 3.962063
1134.30 3.961652
1134.40 3.961241
1134.50 3.960831
1134.60 3.96042
1134.70 3.96001
1134.80 3.959599
1134.90 3.959189
1135.00 3.958779
1135.10 3.958369
1135.20 3.957959
1135.30 3.957549
1135.40 3.957139
1135.50 3.956729
1135.60 3.95632
1135.70 3.95591
1135.80 3.9555
1135.90 3.955091
1136.00 3.954682
1136.10 3.954272
1136.20 3.953863
1136.30 3.953454
1136.40 3.953045
1136.50 3.952636
1136.60 3.952227
1136.70 3.951819
1136.80 3.95141
1136.90 3.951001
1137.00 3.950593
1137.10 3.950184
1137.20 3.949776
1137.30 3.949368
1137.40 3.948959
1137.50 3.948551
1137.60 3.948143
1137.70 3.947735
1137.80 3.947327
1137.90 3.94692
1138.00 3.946512
1138.10 3.946104
1138.20 3.945697
1138.30 3.945289
1138.40 3.944882
1138.50 3.944475
1138.60 3.944067
1138.70 3.94366
1138.80 3.943253
1138.90 3.942846
1139.00 3.942439
1139.10 3.942033
1139.20 3.941626
1139.30 3.9412
1139.40 3.940774
1139.50 3.940348
1139.60 3.939923
1139.70 3.939497
1139.80 3.939071
1139.90 3.938646
1140.00 3.93822
1140.10 3.937795
1140.20 3.93737
1140.30 3.936945
1140.40 3.936519
1140.50 3.936094
1140.60 3.93567
1140.70 3.935245
1140.80 3.93482
1140.90 3.934395
1141.00 3.933971
1141.10 3.933546
1141.20 3.933122
1141.30 3.932698
1141.40 3.932274
1141.50 3.931849
1141.60 3.931425
1141.70 3.931001
1141.80 3.930578
1141.90 3.930154
1142.00 3.92973
1142.10 3.929307
1142.20 3.928883
1142.30 3.92846
1142.40 3.928036
1142.50 3.927613
1142.60 3.92719
1142.70 3.926767
1142.80 3.926344
1142.90 3.925921
1143.00 3.925498
1143.10 3.925076
1143.20 3.924653
1143.30 3.924231
1143.40 3.923808
1143.50 3.923386
1143.60 3.922963
1143.70 3.922541
1143.80 3.922119
1143.90 3.921697
1144.00 3.921275
1144.10 3.920853
1144.20 3.920432
1144.30 3.92001
1144.40 3.919589
1144.50 3.919167
1144.60 3.918746
1144.70 3.918324
1144.80 3.917903
1144.90 3.917482
1145.00 3.917061
1145.10 3.91664
1145.20 3.916219
1145.30 3.915798
1145.40 3.915378
1145.50 3.914957
1145.60 3.914537
1145.70 3.914116
1145.80 3.913696
1145.90 3.913276
1146.00 3.912855
1146.10 3.912435
1146.20 3.912015
1146.30 3.911596
1146.40 3.911176
1146.50 3.910756
1146.60 3.910336
1146.70 3.909917
1146.80 3.909497
1146.90 3.909078
1147.00 3.908659
1147.10 3.908239
1147.20 3.90782
1147.30 3.907401
1147.40 3.906982
1147.50 3.906563
1147.60 3.906145
1147.70 3.905726
1147.80 3.905307
1147.90 3.904889
1148.00 3.90447
1148.10 3.904052
1148.20 3.903634
1148.30 3.903216
1148.40 3.902798
1148.50 3.90238
1148.60 3.901962
1148.70 3.901544
1148.80 3.901126
1148.90 3.900708
1149.00 3.900291
1149.10 3.899873
1149.20 3.899456
1149.30 3.899039
1149.40 3.898622
1149.50 3.898204
1149.60 3.897787
1149.70 3.89737
1149.80 3.896954
1149.90 3.896537
1150.00 3.89612
1150.10 3.895703
1150.20 3.895287
1150.30 3.89487
1150.40 3.894454
1150.50 3.894038
1150.60 3.893621
1150.70 3.893203
1150.80 3.892784
1150.90 3.892366
1151.00 3.891947
1151.10 3.891529
1151.20 3.891111
1151.30 3.890693
1151.40 3.890275
1151.50 3.889857
1151.60 3.889439
1151.70 3.889021
1151.80 3.888604
1151.90 3.888186
1152.00 3.887768
1152.10 3.887351
1152.20 3.886934
1152.30 3.886516
1152.40 3.886099
1152.50 3.885682
1152.60 3.885265
1152.70 3.884848
1152.80 3.884431
1152.90 3.884015
1153.00 3.883598
1153.10 3.883181
1153.20 3.882765
1153.30 3.882349
1153.40 3.881932
1153.50 3.881516
1153.60 3.8811
1153.70 3.880684
1153.80 3.880268
1153.90 3.879852
1154.00 3.879436
1154.10 3.879021
1154.20 3.878605
1154.30 3.878189
1154.40 3.877774
1154.50 3.877359
1154.60 3.876943
1154.70 3.876528
1154.80 3.876113
1154.90 3.875698
1155.00 3.875283
1155.10 3.874868
1155.20 3.874453
1155.30 3.874039
1155.40 3.873624
1155.50 3.87321
1155.60 3.872795
1155.70 3.872381
1155.80 3.871967
1155.90 3.871553
1156.00 3.871138
1156.10 3.870724
1156.20 3.870311
1156.30 3.869897
1156.40 3.869466
1156.50 3.86902
1156.60 3.868575
1156.70 3.868129
1156.80 3.867684
1156.90 3.867238
1157.00 3.866793
1157.10 3.866348
1157.20 3.865903
1157.30 3.865458
1157.40 3.865013
1157.50 3.864569
1157.60 3.864124
1157.70 3.86368
1157.80 3.863235
1157.90 3.862791
1158.00 3.862347
1158.10 3.861903
1158.20 3.861459
1158.30 3.861015
1158.40 3.860571
1158.50 3.860127
1158.60 3.859683
1158.70 3.85924
1158.80 3.858796
1158.90 3.858353
1159.00 3.85791
1159.10 3.857467
1159.20 3.857023
1159.30 3.85658
1159.40 3.856138
1159.50 3.855695
1159.60 3.855252
1159.70 3.85481
1159.80 3.854367
1159.90 3.853925
1160.00 3.853482
1160.10 3.85304
1160.20 3.852598
1160.30 3.852156
1160.40 3.851714
1160.50 3.851272
1160.60 3.85083
1160.70 3.850389
1160.80 3.849947
1160.90 3.849506
1161.00 3.849064
1161.10 3.848623
1161.20 3.848182
1161.30 3.847741
1161.40 3.8473
1161.50 3.846859
1161.60 3.846418
1161.70 3.845978
1161.80 3.845537
1161.90 3.845096
1162.00 3.844656
1162.10 3.844216
1162.20 3.843805
1162.30 3.843394
1162.40 3.842983
1162.50 3.842572
1162.60 3.842161
1162.70 3.841751
1162.80 3.84134
1162.90 3.84093
1163.00 3.840519
1163.10 3.840109
1163.20 3.839699
1163.30 3.839289
1163.40 3.838879
1163.50 3.838469
1163.60 3.838059
1163.70 3.837649
1163.80 3.837239
1163.90 3.83683
1164.00 3.83642
1164.10 3.836011
1164.20 3.835601
1164.30 3.835192
1164.40 3.834783
1164.50 3.834374
1164.60 3.833965
1164.70 3.833556
1164.80 3.833147
1164.90 3.832738
1165.00 3.83233
1165.10 3.831921
1165.20 3.831512
1165.30 3.831104
1165.40 3.830696
1165.50 3.830287
1165.60 3.829879
1165.70 3.829471
1165.80 3.829063
1165.90 3.828655
1166.00 3.828247
1166.10 3.82784
1166.20 3.827432
1166.30 3.827024
1166.40 3.826617
1166.50 3.826209
1166.60 3.825802
1166.70 3.825395
1166.80 3.824987
1166.90 3.82458
1167.00 3.824173
1167.10 3.823766
1167.20 3.82336
1167.30 3.822953
1167.40 3.822546
1167.50 3.82214
1167.60 3.821733
1167.70 3.821327
1167.80 3.82092
1167.90 3.820514
1168.00 3.82008
1168.10 3.819643
1168.20 3.819206
1168.30 3.818769
1168.40 3.818332
1168.50 3.817895
1168.60 3.817458
1168.70 3.817022
1168.80 3.816585
1168.90 3.816149
1169.00 3.815713
1169.10 3.815277
1169.20 3.81484
1169.30 3.814404
1169.40 3.813969
1169.50 3.813533
1169.60 3.813097
1169.70 3.812661
1169.80 3.812226
1169.90 3.81179
1170.00 3.811355
1170.10 3.81092
1170.20 3.810485
1170.30 3.81005
1170.40 3.809615
1170.50 3.80918
1170.60 3.808745
1170.70 3.80831
1170.80 3.807876
1170.90 3.807441
1171.00 3.807007
1171.10 3.806572
1171.20 3.806138
1171.30 3.805704
1171.40 3.80527
1171.50 3.804836
1171.60 3.804402
1171.70 3.803968
1171.80 3.803535
1171.90 3.803101
1172.00 3.802668
1172.10 3.802234
1172.20 3.801801
1172.30 3.801368
1172.40 3.800934
1172.50 3.800501
1172.60 3.800068
1172.70 3.799636
1172.80 3.799203
1172.90 3.79877
1173.00 3.798338
1173.10 3.797905
1173.20 3.797473
1173.30 3.79704
1173.40 3.796608
1173.50 3.796176
1173.60 3.795744
1173.70 3.795312
1173.80 3.794879
1173.90 3.794445
1174.00 3.794011
1174.10 3.793578
1174.20 3.793144
1174.30 3.792711
1174.40 3.792277
1174.50 3.791844
1174.60 3.791411
1174.70 3.790978
1174.80 3.790545
1174.90 3.790112
1175.00 3.789679
1175.10 3.789246
1175.20 3.788814
1175.30 3.788381
1175.40 3.787949
1175.50 3.787516
1175.60 3.787084
1175.70 3.786652
1175.80 3.78622
1175.90 3.785788
1176.00 3.785356
1176.10 3.784924
1176.20 3.784492
1176.30 3.784061
1176.40 3.783629
1176.50 3.783198
1176.60 3.782767
1176.70 3.782335
1176.80 3.781904
1176.90 3.781473
1177.00 3.781042
1177.10 3.780611
1177.20 3.78018
1177.30 3.77975
1177.40 3.779319
1177.50 3.778889
1177.60 3.778458
1177.70 3.778028
1177.80 3.777598
1177.90 3.777168
1178.00 3.776738
1178.10 3.776308
1178.20 3.775878
1178.30 3.775448
1178.40 3.775018
1178.50 3.774589
1178.60 3.774159
1178.70 3.77373
1178.80 3.7733
1178.90 3.772871
1179.00 3.772442
1179.10 3.772013
1179.20 3.771584
1179.30 3.771155
1179.40 3.770726
1179.50 3.770298
1179.60 3.769869
1179.70 3.769441
1179.80 3.769012
1179.90 3.768584
1180.00 3.768156
1180.10 3.767727
1180.20 3.767299
1180.30 3.766871
1180.40 3.766443
1180.50 3.766016
1180.60 3.765588
1180.70 3.76516
1180.80 3.764733
1180.90 3.764305
1181.00 3.763878
1181.10 3.763451
1181.20 3.763024
1181.30 3.762597
1181.40 3.76217
1181.50 3.761743
1181.60 3.761316
1181.70 3.760889
1181.80 3.760462
1181.90 3.760036
1182.00 3.75961
1182.10 3.759183
1182.20 3.758757
1182.30 3.758331
1182.40 3.757905
1182.50 3.757479
1182.60 3.757053
1182.70 3.756627
1182.80 3.756201
1182.90 3.755776
1183.00 3.75535
1183.10 3.754925
1183.20 3.754499
1183.30 3.754074
1183.40 3.753649
1183.50 3.753224
1183.60 3.752799
1183.70 3.752374
1183.80 3.751949
1183.90 3.751524
1184.00 3.7511
1184.10 3.750675
1184.20 3.750251
1184.30 3.749826
1184.40 3.749402
1184.50 3.748978
1184.60 3.748554
1184.70 3.74813
1184.80 3.747706
1184.90 3.747282
1185.00 3.746858
1185.10 3.746435
1185.20 3.746011
1185.30 3.745587
1185.40 3.745164
1185.50 3.744728
1185.60 3.744273
1185.70 3.743818
1185.80 3.743364
1185.90 3.742909
1186.00 3.742455
1186.10 3.742001
1186.20 3.741547
1186.30 3.741093
1186.40 3.740639
1186.50 3.740185
1186.60 3.739731
1186.70 3.739277
1186.80 3.738824
1186.90 3.73837
1187.00 3.737917
1187.10 3.737464
1187.20 3.737011
1187.30 3.736558
1187.40 3.736105
1187.50 3.735652
1187.60 3.735199
1187.70 3.734747
1187.80 3.734294
1187.90 3.733842
1188.00 3.733389
1188.10 3.732937
1188.20 3.732485
1188.30 3.732033
1188.40 3.731581
1188.50 3.731129
1188.60 3.730677
1188.70 3.730226
1188.80 3.729774
1188.90 3.729323
1189.00 3.728871
1189.10 3.72842
1189.20 3.727969
1189.30 3.727518
1189.40 3.727067
1189.50 3.726616
1189.60 3.726165
1189.70 3.725715
1189.80 3.725264
1189.90 3.724814
1190.00 3.724363
1190.10 3.723913
1190.20 3.723463
1190.30 3.723013
1190.40 3.722563
1190.50 3.722113
1190.60 3.721663
1190.70 3.721214
1190.80 3.720764
1190.90 3.720315
1191.00 3.719865
1191.10 3.719416
1191.20 3.718967
1191.30 3.718518
1191.40 3.718073
1191.50 3.717653
1191.60 3.717234
1191.70 3.716814
1191.80 3.716395
1191.90 3.715976
1192.00 3.715556
1192.10 3.715137
1192.20 3.714718
1192.30 3.714299
1192.40 3.71388
1192.50 3.713462
1192.60 3.713043
1192.70 3.712624
1192.80 3.712206
1192.90 3.711787
1193.00 3.711369
1193.10 3.710951
1193.20 3.710532
1193.30 3.710114
1193.40 3.709696
1193.50 3.709278
1193.60 3.708861
1193.70 3.708443
1193.80 3.708025
1193.90 3.707608
1194.00 3.70719
1194.10 3.706773
1194.20 3.706355
1194.30 3.705938
1194.40 3.705521
1194.50 3.705104
1194.60 3.704687
1194.70 3.70427
1194.80 3.703854
1194.90 3.703437
1195.00 3.70302
1195.10 3.702604
1195.20 3.702187
1195.30 3.701771
1195.40 3.701355
1195.50 3.700939
1195.60 3.700523
1195.70 3.700107
1195.80 3.699691
1195.90 3.699275
1196.00 3.698859
1196.10 3.698443
1196.20 3.698028
1196.30 3.697612
1196.40 3.697197
1196.50 3.696782
1196.60 3.696367
1196.70 3.695951
1196.80 3.695536
1196.90 3.695122
1197.00 3.694707
1197.10 3.694292
1197.20 3.693877
1197.30 3.693463
1197.40 3.693021
1197.50 3.692576
1197.60 3.692131
1197.70 3.691686
1197.80 3.691242
1197.90 3.690797
1198.00 3.690352
1198.10 3.689908
1198.20 3.689463
1198.30 3.689019
1198.40 3.688575
1198.50 3.688131
1198.60 3.687687
1198.70 3.687243
1198.80 3.686799
1198.90 3.686356
1199.00 3.685912
1199.10 3.685468
1199.20 3.685025
1199.30 3.684582
1199.40 3.684138
1199.50 3.683695
1199.60 3.683252
1199.70 3.682809
1199.80 3.682367
1199.90 3.681924
1200.00 3.681481
