# Version 2.1 - nm, norm@500 to 1, cut digits, bergeron_He_4250_75.dat_4250
# Wavelength(nm)  Flambda(ergs/cm^s/s/nm)
300.00 0.03474382
300.10 0.03485609
300.20 0.03496858
300.30 0.03508145
300.40 0.03519782
300.50 0.03531402
300.60 0.03543006
300.70 0.03554594
300.80 0.03566165
300.90 0.03577721
301.00 0.0358926
301.10 0.03600783
301.20 0.0361229
301.30 0.03623781
301.40 0.03635256
301.50 0.03646715
301.60 0.03658158
301.70 0.03669585
301.80 0.03680996
301.90 0.03692391
302.00 0.0370377
302.10 0.0371575
302.20 0.03727781
302.30 0.03739796
302.40 0.03751794
302.50 0.03763776
302.60 0.03775741
302.70 0.03787689
302.80 0.0379962
302.90 0.03811535
303.00 0.03823434
303.10 0.03835316
303.20 0.03847181
303.30 0.03859086
303.40 0.03871474
303.50 0.03883846
303.60 0.038962
303.70 0.03908537
303.80 0.03920858
303.90 0.03933161
304.00 0.03945447
304.10 0.03957716
304.20 0.03969968
304.30 0.03982203
304.40 0.03994421
304.50 0.04006622
304.60 0.0401943
304.70 0.0403229
304.80 0.04045131
304.90 0.04057955
305.00 0.04070762
305.10 0.0408355
305.20 0.04096321
305.30 0.04109074
305.40 0.0412181
305.50 0.04134529
305.60 0.04147229
305.70 0.04159912
305.80 0.04172578
305.90 0.04185226
306.00 0.04197857
306.10 0.04210471
306.20 0.04223067
306.30 0.04235646
306.40 0.0424899
306.50 0.04262549
306.60 0.0427609
306.70 0.04289612
306.80 0.04303116
306.90 0.04316601
307.00 0.04330068
307.10 0.04343516
307.20 0.04356946
307.30 0.04370357
307.40 0.0438375
307.50 0.04397125
307.60 0.04410481
307.70 0.04423819
307.80 0.04437139
307.90 0.04450441
308.00 0.04463724
308.10 0.04476989
308.20 0.04490236
308.30 0.04503465
308.40 0.04516676
308.50 0.04529869
308.60 0.04543043
308.70 0.045562
308.80 0.04569737
308.90 0.0458439
309.00 0.04597849
309.10 0.0461129
309.20 0.04624713
309.30 0.04638117
309.40 0.04651646
309.50 0.04666031
309.60 0.04680396
309.70 0.04694741
309.80 0.04709067
309.90 0.04723374
310.00 0.04737661
310.10 0.04751929
310.20 0.04766178
310.30 0.04780407
310.40 0.04794402
310.50 0.04808146
310.60 0.04821872
310.70 0.04835578
310.80 0.04849267
310.90 0.04862936
311.00 0.0487854
311.10 0.04894122
311.20 0.04909684
311.30 0.04925003
311.40 0.04939675
311.50 0.04954327
311.60 0.04968959
311.70 0.04983571
311.80 0.04998163
311.90 0.05012736
312.00 0.05027288
312.10 0.05041822
312.20 0.05054959
312.30 0.05069331
312.40 0.05085371
312.50 0.05098855
312.60 0.05114232
312.70 0.05129589
312.80 0.05144924
312.90 0.05160165
313.00 0.05175306
313.10 0.05190425
313.20 0.05205525
313.30 0.05220609
313.40 0.05235688
313.50 0.05250746
313.60 0.05265784
313.70 0.05280802
313.80 0.05295799
313.90 0.05310776
314.00 0.05325734
314.10 0.05341198
314.20 0.05356641
314.30 0.05372064
314.40 0.05387466
314.50 0.05402847
314.60 0.05418207
314.70 0.05433547
314.80 0.05449684
314.90 0.05467306
315.00 0.0548402
315.10 0.05499733
315.20 0.05515424
315.30 0.05531094
315.40 0.05546743
315.50 0.05562372
315.60 0.05577979
315.70 0.05593566
315.80 0.05609131
315.90 0.05624676
316.00 0.056402
316.10 0.05657823
316.20 0.05675421
316.30 0.05688764
316.40 0.05706319
316.50 0.05721737
316.60 0.05737134
316.70 0.05754622
316.80 0.05772086
316.90 0.05788473
317.00 0.05804838
317.10 0.05821182
317.20 0.05837503
317.30 0.05853163
317.40 0.05869164
317.50 0.05886175
317.60 0.05903164
317.70 0.05920131
317.80 0.05937075
317.90 0.05952637
318.00 0.05968553
318.10 0.05985726
318.20 0.06002876
318.30 0.06020003
318.40 0.06037108
318.50 0.0605419
318.60 0.06071249
318.70 0.06088285
318.80 0.06104049
318.90 0.06122291
319.00 0.0613926
319.10 0.06156206
319.20 0.06173159
319.30 0.06190171
319.40 0.0620716
319.50 0.06224126
319.60 0.06240632
319.70 0.06257554
319.80 0.06274453
319.90 0.0629133
320.00 0.06309125
320.10 0.06327914
320.20 0.0634546
320.30 0.06362364
320.40 0.06381494
320.50 0.06398537
320.60 0.06416382
320.70 0.06432967
320.80 0.06450025
320.90 0.06467595
321.00 0.06485142
321.10 0.06502666
321.20 0.06523755
321.30 0.06541695
321.40 0.06559612
321.50 0.06577505
321.60 0.06595374
321.70 0.0661322
321.80 0.06631126
321.90 0.06649097
322.00 0.06664758
322.10 0.06682958
322.20 0.06701134
322.30 0.06719286
322.40 0.06737414
322.50 0.06755519
322.60 0.06773599
322.70 0.06791656
322.80 0.06813054
322.90 0.06831558
323.00 0.06850039
323.10 0.06868495
323.20 0.06886927
323.30 0.06905335
323.40 0.06923719
323.50 0.06942079
323.60 0.06960415
323.70 0.06978727
323.80 0.06997015
323.90 0.07015279
324.00 0.07034678
324.10 0.07054052
324.20 0.070734
324.30 0.07091934
324.40 0.07109655
324.50 0.0712893
324.60 0.07148179
324.70 0.07167404
324.80 0.07186603
324.90 0.07205777
325.00 0.07224927
325.10 0.07244052
325.20 0.07263204
325.30 0.07282443
325.40 0.07301656
325.50 0.07321065
325.60 0.07340716
325.70 0.07360341
325.80 0.07379941
325.90 0.07399738
326.00 0.07419748
326.10 0.07439733
326.20 0.07459691
326.30 0.07478998
326.40 0.07496498
326.50 0.07516802
326.60 0.07537081
326.70 0.07557333
326.80 0.07577558
326.90 0.07597758
327.00 0.07617931
327.10 0.07638079
327.20 0.076582
327.30 0.07678295
327.40 0.07698365
327.50 0.07718408
327.60 0.07738426
327.70 0.07758417
327.80 0.07778383
327.90 0.07797487
328.00 0.07816797
328.10 0.07837466
328.20 0.07858109
328.30 0.07878725
328.40 0.07899315
328.50 0.0791992
328.60 0.07940509
328.70 0.07961072
328.80 0.07981736
328.90 0.08002737
329.00 0.08023712
329.10 0.08044659
329.20 0.0806558
329.30 0.08086473
329.40 0.0810734
329.50 0.0812818
329.60 0.08148994
329.70 0.0816978
329.80 0.0819054
329.90 0.08211273
330.00 0.08232323
330.10 0.08253767
330.20 0.08275182
330.30 0.0829657
330.40 0.08317929
330.50 0.08339257
330.60 0.08360557
330.70 0.08381831
330.80 0.08403077
330.90 0.08424296
331.00 0.08445488
331.10 0.08466653
331.20 0.0848779
331.30 0.08508901
331.40 0.08529985
331.50 0.08551089
331.60 0.08572225
331.70 0.08593334
331.80 0.08615445
331.90 0.0863757
332.00 0.08659667
332.10 0.08681736
332.20 0.08703777
332.30 0.0872579
332.40 0.08747774
332.50 0.08769731
332.60 0.08791659
332.70 0.0881356
332.80 0.08835433
332.90 0.08857277
333.00 0.08879095
333.10 0.08901389
333.20 0.08924272
333.30 0.08947126
333.40 0.08969951
333.50 0.08992747
333.60 0.09015514
333.70 0.09038253
333.80 0.09060962
333.90 0.09083643
334.00 0.09106294
334.10 0.09128804
334.20 0.09151145
334.30 0.09173459
334.40 0.09195743
334.50 0.09218
334.60 0.09240229
334.70 0.09263039
334.80 0.09286476
334.90 0.09309753
335.00 0.09333
335.10 0.09357516
335.20 0.093802
335.30 0.09402856
335.40 0.09425482
335.50 0.0944808
335.60 0.09470649
335.70 0.09494036
335.80 0.09518425
335.90 0.09542361
336.00 0.09565752
336.10 0.09589113
336.20 0.09612445
336.30 0.09635887
336.40 0.09659472
336.50 0.09683026
336.60 0.09706551
336.70 0.09730047
336.80 0.09753512
336.90 0.09777095
337.00 0.09800828
337.10 0.09824531
337.20 0.09848204
337.30 0.0987205
337.40 0.09896157
337.50 0.09920235
337.60 0.09944282
337.70 0.09968299
337.80 0.09992285
337.90 0.1001639
338.00 0.1004063
338.10 0.1006484
338.20 0.1008903
338.30 0.1011318
338.40 0.1013751
338.50 0.1016232
338.60 0.101871
338.70 0.1021185
338.80 0.1023656
338.90 0.1026125
339.00 0.102859
339.10 0.1031052
339.20 0.1033512
339.30 0.1035942
339.40 0.1038333
339.50 0.1040791
339.60 0.1043331
339.70 0.1045869
339.80 0.1048404
339.90 0.1050935
340.00 0.1053463
340.10 0.1055988
340.20 0.105851
340.30 0.1061029
340.40 0.1063544
340.50 0.1066057
340.60 0.1068566
340.70 0.1071072
340.80 0.1073588
340.90 0.1076119
341.00 0.1078659
341.10 0.1081211
341.20 0.108376
341.30 0.1086306
341.40 0.1088849
341.50 0.1091389
341.60 0.1093925
341.70 0.1096458
341.80 0.109902
341.90 0.1101616
342.00 0.1104209
342.10 0.1106799
342.20 0.1109281
342.30 0.1111879
342.40 0.1114565
342.50 0.1117185
342.60 0.1119801
342.70 0.1122415
342.80 0.1125025
342.90 0.1127632
343.00 0.1130252
343.10 0.1132888
343.20 0.113552
343.30 0.1138149
343.40 0.1140777
343.50 0.1143402
343.60 0.1146025
343.70 0.1148644
343.80 0.115126
343.90 0.1153873
344.00 0.1156531
344.10 0.1159257
344.20 0.1161979
344.30 0.1164698
344.40 0.1167413
344.50 0.1170125
344.60 0.1172898
344.70 0.1175434
344.80 0.1178305
344.90 0.1180835
345.00 0.1183635
345.10 0.1186327
345.20 0.118901
345.30 0.1191681
345.40 0.1194349
345.50 0.1197038
345.60 0.1199787
345.70 0.1202577
345.80 0.1205364
345.90 0.1208147
346.00 0.1210927
346.10 0.1213704
346.20 0.1216487
346.30 0.121928
346.40 0.122207
346.50 0.1224857
346.60 0.122764
346.70 0.1230419
346.80 0.1233195
346.90 0.1235968
347.00 0.1238738
347.10 0.1241504
347.20 0.1244305
347.30 0.124716
347.40 0.1250011
347.50 0.1252858
347.60 0.1255702
347.70 0.1258542
347.80 0.1261379
347.90 0.1264212
348.00 0.1267042
348.10 0.1269869
348.20 0.1272692
348.30 0.1275511
348.40 0.1278327
348.50 0.128114
348.60 0.1283949
348.70 0.1286808
348.80 0.1289703
348.90 0.1292628
349.00 0.1295549
349.10 0.1298467
349.20 0.1301382
349.30 0.1304292
349.40 0.13072
349.50 0.1310103
349.60 0.1313004
349.70 0.13159
349.80 0.1318793
349.90 0.1321683
350.00 0.1324569
350.10 0.1327452
350.20 0.1330331
350.30 0.133324
350.40 0.1336193
350.50 0.1339143
350.60 0.1342089
350.70 0.1345032
350.80 0.1347971
350.90 0.1350906
351.00 0.1353838
351.10 0.1356767
351.20 0.1359691
351.30 0.1362613
351.40 0.1365574
351.50 0.1368611
351.60 0.1371644
351.70 0.1374673
351.80 0.1377698
351.90 0.138072
352.00 0.1383738
352.10 0.1386753
352.20 0.1389644
352.30 0.1392595
352.40 0.1395653
352.50 0.1398706
352.60 0.1401756
352.70 0.1404803
352.80 0.1407845
352.90 0.1410884
353.00 0.1413919
353.10 0.1416951
353.20 0.1419979
353.30 0.1423003
353.40 0.1426024
353.50 0.1429096
353.60 0.1432178
353.70 0.1435256
353.80 0.1438331
353.90 0.1441432
354.00 0.1444582
354.10 0.1447728
354.20 0.1450871
354.30 0.1454009
354.40 0.1457144
354.50 0.1460276
354.60 0.1463403
354.70 0.1466527
354.80 0.1469655
354.90 0.1472791
355.00 0.1475924
355.10 0.1479052
355.20 0.1482177
355.30 0.1485313
355.40 0.1488444
355.50 0.1491572
355.60 0.1494695
355.70 0.1497858
355.80 0.1501036
355.90 0.1504268
356.00 0.1507517
356.10 0.151074
356.20 0.151396
356.30 0.1517176
356.40 0.1520388
356.50 0.1523597
356.60 0.1526801
356.70 0.1530002
356.80 0.1533198
356.90 0.1536391
357.00 0.153958
357.10 0.1542766
357.20 0.1545947
357.30 0.1549125
357.40 0.1552336
357.50 0.1555609
357.60 0.1558879
357.70 0.1562144
357.80 0.1565481
357.90 0.1568814
358.00 0.1572121
358.10 0.1575418
358.20 0.1578712
358.30 0.1582001
358.40 0.1585287
358.50 0.1588568
358.60 0.1591846
358.70 0.159512
358.80 0.159839
358.90 0.1601656
359.00 0.1604908
359.10 0.1608137
359.20 0.1611377
359.30 0.1614703
359.40 0.1618026
359.50 0.1621433
359.60 0.1624859
359.70 0.1628281
359.80 0.1631588
359.90 0.1634892
360.00 0.1638233
360.10 0.1641641
360.20 0.1645045
360.30 0.1648444
360.40 0.165184
360.50 0.1655232
360.60 0.1658516
360.70 0.1661909
360.80 0.1665298
360.90 0.1668683
361.00 0.1671977
361.10 0.1675471
361.20 0.1679052
361.30 0.1682339
361.40 0.1685769
361.50 0.1689228
361.60 0.1692458
361.70 0.1695892
361.80 0.1699342
361.90 0.1702824
362.00 0.1706301
362.10 0.170983
362.20 0.1713336
362.30 0.1716776
362.40 0.1720213
362.50 0.1723646
362.60 0.1727074
362.70 0.1730574
362.80 0.1734088
362.90 0.1737612
363.00 0.1741132
363.10 0.1744573
363.20 0.174801
363.30 0.1751456
363.40 0.1754982
363.50 0.1758503
363.60 0.176202
363.70 0.1765569
363.80 0.1769042
363.90 0.1772639
364.00 0.1776231
364.10 0.1779818
364.20 0.1783402
364.30 0.178688
364.40 0.1790328
364.50 0.1793854
364.60 0.1797421
364.70 0.1800984
364.80 0.1804542
364.90 0.1808165
365.00 0.1811783
365.10 0.1815397
365.20 0.1819007
365.30 0.1822612
365.40 0.1826214
365.50 0.1829811
365.60 0.1833404
365.70 0.1837007
365.80 0.1840606
365.90 0.1844175
366.00 0.1847734
366.10 0.1851382
366.20 0.1855026
366.30 0.1858666
366.40 0.1862302
366.50 0.1865978
366.60 0.1869733
366.70 0.1873366
366.80 0.1876994
366.90 0.1880656
367.00 0.1884381
367.10 0.1888102
367.20 0.1891819
367.30 0.1895531
367.40 0.1899239
367.50 0.1902915
367.60 0.1906581
367.70 0.1910242
367.80 0.1913899
367.90 0.1917552
368.00 0.1921357
368.10 0.1925111
368.20 0.1928853
368.30 0.1932593
368.40 0.1936328
368.50 0.194006
368.60 0.1943786
368.70 0.1947509
368.80 0.1951227
368.90 0.1955023
369.00 0.1958813
369.10 0.196256
369.20 0.1966205
369.30 0.1970005
369.40 0.19738
369.50 0.1977591
369.60 0.1981456
369.70 0.1985317
369.80 0.1989098
369.90 0.1992874
370.00 0.1996646
370.10 0.2000502
370.20 0.2004215
370.30 0.2007919
370.40 0.2011922
370.50 0.2015776
370.60 0.2019471
370.70 0.2023358
370.80 0.202717
370.90 0.2030978
371.00 0.203483
371.10 0.2038678
371.20 0.2042626
371.30 0.2046568
371.40 0.2050377
371.50 0.2054245
371.60 0.2058108
371.70 0.2061966
371.80 0.206582
371.90 0.2069669
372.00 0.2073677
372.10 0.2077587
372.20 0.2081515
372.30 0.2085438
372.40 0.2089356
372.50 0.209327
372.60 0.209718
372.70 0.2101085
372.80 0.210496
372.90 0.2108831
373.00 0.2112899
373.10 0.2116964
373.20 0.2120846
373.30 0.2124724
373.40 0.2128749
373.50 0.2132618
373.60 0.2136634
373.70 0.2140494
373.80 0.2144681
373.90 0.2148504
374.00 0.2152501
374.10 0.2156495
374.20 0.2160483
374.30 0.2164467
374.40 0.2168598
374.50 0.2172672
374.60 0.2176656
374.70 0.2180634
374.80 0.2184608
374.90 0.2188578
375.00 0.219263
375.10 0.2196678
375.20 0.2200721
375.30 0.2204789
375.40 0.2208851
375.50 0.2212909
375.60 0.2216963
375.70 0.2221011
375.80 0.2225055
375.90 0.2229095
376.00 0.2233248
376.10 0.2237344
376.20 0.2241435
376.30 0.2245521
376.40 0.2249603
376.50 0.2253713
376.60 0.225787
376.70 0.2262023
376.80 0.2266138
376.90 0.2270217
377.00 0.2274291
377.10 0.2278361
377.20 0.2282447
377.30 0.2286612
377.40 0.2290773
377.50 0.2294929
377.60 0.2299137
377.70 0.230334
377.80 0.2307538
377.90 0.2311732
378.00 0.231578
378.10 0.2319969
378.20 0.2324156
378.30 0.2328339
378.40 0.2332516
378.50 0.233669
378.60 0.2340858
378.70 0.2345021
378.80 0.234918
378.90 0.2353358
379.00 0.2357576
379.10 0.2361872
379.20 0.2366163
379.30 0.2370436
379.40 0.2374691
379.50 0.237894
379.60 0.2383159
379.70 0.2387357
379.80 0.2391636
379.90 0.239591
380.00 0.2400179
380.10 0.2404443
380.20 0.2408702
380.30 0.2412957
380.40 0.2417206
380.50 0.2421451
380.60 0.2425682
380.70 0.2429986
380.80 0.2434285
380.90 0.2438579
381.00 0.2442868
381.10 0.2447236
381.20 0.2451541
381.30 0.2455864
381.40 0.246011
381.50 0.246449
381.60 0.2468847
381.70 0.2473198
381.80 0.2477379
381.90 0.2481888
382.00 0.2486103
382.10 0.2490603
382.20 0.2495039
382.30 0.2499384
382.40 0.2503719
382.50 0.250804
382.60 0.2512357
382.70 0.2516687
382.80 0.2521066
382.90 0.2525472
383.00 0.2529873
383.10 0.253427
383.20 0.2538665
383.30 0.2543074
383.40 0.254749
383.50 0.255192
383.60 0.2556292
383.70 0.2560758
383.80 0.2565218
383.90 0.2569674
384.00 0.2574125
384.10 0.2578571
384.20 0.2583012
384.30 0.2587448
384.40 0.2591896
384.50 0.2596357
384.60 0.2600812
384.70 0.2605263
384.80 0.2609748
384.90 0.2614299
385.00 0.2618704
385.10 0.2623113
385.20 0.2627775
385.30 0.2632203
385.40 0.2636689
385.50 0.2641233
385.60 0.2645772
385.70 0.2650305
385.80 0.2654817
385.90 0.2659262
386.00 0.2663716
386.10 0.2668196
386.20 0.2672843
386.30 0.2677485
386.40 0.268206
386.50 0.2686513
386.60 0.2691073
386.70 0.2695628
386.80 0.2700179
386.90 0.2704724
387.00 0.270932
387.10 0.2713862
387.20 0.2718574
387.30 0.2722917
387.40 0.2727562
387.50 0.2732296
387.60 0.2736825
387.70 0.2741471
387.80 0.2746111
387.90 0.2750746
388.00 0.2755342
388.10 0.2759949
388.20 0.2764418
388.30 0.2769057
388.40 0.2773691
388.50 0.2778354
388.60 0.2783055
388.70 0.2787622
388.80 0.2792367
388.90 0.2797056
389.00 0.2802703
389.10 0.2806556
389.20 0.2810405
389.30 0.2815706
389.40 0.2819988
389.50 0.282479
389.60 0.2830259
389.70 0.283518
389.80 0.2839887
389.90 0.2844589
390.00 0.2849286
390.10 0.2853977
390.20 0.2858664
390.30 0.2863348
390.40 0.2868031
390.50 0.2872708
390.60 0.2877381
390.70 0.2882048
390.80 0.2886775
390.90 0.2891561
391.00 0.2895994
391.10 0.2899889
391.20 0.2904222
391.30 0.2909732
391.40 0.2914695
391.50 0.2919653
391.60 0.2924605
391.70 0.2929552
391.80 0.2934494
391.90 0.2938828
392.00 0.2942806
392.10 0.2947267
392.20 0.2952026
392.30 0.2957993
392.40 0.2962224
392.50 0.2966399
392.60 0.2971757
392.70 0.2977108
392.80 0.2982454
392.90 0.2986614
393.00 0.2990927
393.10 0.2996229
393.20 0.3002423
393.30 0.3006372
393.40 0.3010507
393.50 0.301598
393.60 0.3021048
393.70 0.3026343
393.80 0.303151
393.90 0.303543
394.00 0.3039646
394.10 0.3045367
394.20 0.3049355
394.30 0.3054126
394.40 0.3060366
394.50 0.3063807
394.60 0.3069851
394.70 0.3075603
394.80 0.3080277
394.90 0.3084931
395.00 0.3089412
395.10 0.309439
395.20 0.3098579
395.30 0.310319
395.40 0.3107797
395.50 0.3112712
395.60 0.3117739
395.70 0.3122815
395.80 0.3128038
395.90 0.3133255
396.00 0.3138447
396.10 0.314349
396.20 0.3148648
396.30 0.31538
396.40 0.3158946
396.50 0.3164087
396.60 0.3169222
396.70 0.3174422
396.80 0.3179595
396.90 0.3183048
397.00 0.3189237
397.10 0.3194344
397.20 0.3198561
397.30 0.3204796
397.40 0.3209086
397.50 0.3213371
397.60 0.3217719
397.70 0.3222747
397.80 0.3227769
397.90 0.3232799
398.00 0.3237858
398.10 0.3242911
398.20 0.3248422
398.30 0.3254449
398.40 0.3260425
398.50 0.3264942
398.60 0.3269149
398.70 0.3273875
398.80 0.3278754
398.90 0.3284106
399.00 0.3290341
399.10 0.3294614
399.20 0.3299667
399.30 0.3304716
399.40 0.3309758
399.50 0.3314796
399.60 0.3319886
399.70 0.3324993
399.80 0.3330094
399.90 0.3335189
400.00 0.3340321
400.10 0.3346791
400.20 0.3351024
400.30 0.3356778
400.40 0.3362409
400.50 0.3366063
400.60 0.3371837
400.70 0.3376747
400.80 0.3381653
400.90 0.3386553
401.00 0.3392067
401.10 0.339897
401.20 0.3403181
401.30 0.3408515
401.40 0.341378
401.50 0.341889
401.60 0.3423973
401.70 0.3428324
401.80 0.3434429
401.90 0.3439895
402.00 0.3443469
402.10 0.3449329
402.20 0.3455468
402.30 0.3460488
402.40 0.3466064
402.50 0.347123
402.60 0.3475011
402.70 0.3480839
402.80 0.3485636
402.90 0.3491471
403.00 0.3497561
403.10 0.3502601
403.20 0.3508859
403.30 0.3513127
403.40 0.3519135
403.50 0.3523936
403.60 0.3528368
403.70 0.3533771
403.80 0.3540034
403.90 0.3545656
404.00 0.3550772
404.10 0.3555304
404.20 0.3560025
404.30 0.3564741
404.40 0.3572159
404.50 0.3576745
404.60 0.3581445
404.70 0.3586139
404.80 0.3592346
404.90 0.3598095
405.00 0.3602953
405.10 0.3608182
405.20 0.3613771
405.30 0.3619353
405.40 0.3624868
405.50 0.3630377
405.60 0.3635881
405.70 0.3641378
405.80 0.364687
405.90 0.3652355
406.00 0.3657793
406.10 0.3663225
406.20 0.3668651
406.30 0.3674071
406.40 0.3679269
406.50 0.3684524
406.60 0.3689738
406.70 0.3694804
406.80 0.3699985
406.90 0.3706254
407.00 0.3711591
407.10 0.3716922
407.20 0.3722248
407.30 0.3727568
407.40 0.3732882
407.50 0.373819
407.60 0.3743493
407.70 0.374879
407.80 0.3754082
407.90 0.3759404
408.00 0.3765902
408.10 0.3771998
408.20 0.3777381
408.30 0.3782977
408.40 0.3788568
408.50 0.3793797
408.60 0.3798962
408.70 0.3804121
408.80 0.3809464
408.90 0.3815988
409.00 0.3821411
409.10 0.3826827
409.20 0.3832238
409.30 0.3837644
409.40 0.3843039
409.50 0.3848301
409.60 0.3853557
409.70 0.3858777
409.80 0.3863866
409.90 0.3869034
410.00 0.387693
410.10 0.3881334
410.20 0.3886992
410.30 0.3892958
410.40 0.3898819
410.50 0.3904359
410.60 0.3909894
410.70 0.3915359
410.80 0.3920565
410.90 0.3925765
411.00 0.3931475
411.10 0.3937371
411.20 0.394326
411.30 0.3948867
411.40 0.3953409
411.50 0.3959441
411.60 0.3965467
411.70 0.3971396
411.80 0.3976959
411.90 0.3982266
412.00 0.398657
412.10 0.3993363
412.20 0.3997656
412.30 0.4004468
412.40 0.4008989
412.50 0.4015664
412.60 0.4020824
412.70 0.4026488
412.80 0.4032273
412.90 0.4038947
413.00 0.4043659
413.10 0.4049579
413.20 0.4055493
413.30 0.4061401
413.40 0.4067303
413.50 0.4073173
413.60 0.4078866
413.70 0.4084317
413.80 0.4089762
413.90 0.4095202
414.00 0.4100636
414.10 0.4106064
414.20 0.4112671
414.30 0.4117841
414.40 0.4123991
414.50 0.4128789
414.60 0.4135583
414.70 0.4140976
414.80 0.414651
414.90 0.4152507
415.00 0.4158497
415.10 0.4164481
415.20 0.4170379
415.30 0.4176019
415.40 0.4181654
415.50 0.4187291
415.60 0.4193185
415.70 0.4199072
415.80 0.4204798
415.90 0.4210024
416.00 0.4215245
416.10 0.4220654
416.20 0.4226833
416.30 0.4233006
416.40 0.4239173
416.50 0.4245307
416.60 0.4250589
416.70 0.4256012
416.80 0.4262344
416.90 0.4267675
417.00 0.4273442
417.10 0.4279386
417.20 0.428585
417.30 0.4292284
417.40 0.4297957
417.50 0.4303625
417.60 0.4309402
417.70 0.4315619
417.80 0.4321235
417.90 0.4326846
418.00 0.4332451
418.10 0.4338049
418.20 0.4343643
418.30 0.4349276
418.40 0.4356069
418.50 0.4361863
418.60 0.4367652
418.70 0.4373434
418.80 0.437921
418.90 0.438498
419.00 0.4390744
419.10 0.4396502
419.20 0.4402254
419.30 0.440802
419.40 0.4414425
419.50 0.4420824
419.60 0.4427141
419.70 0.4433153
419.80 0.4439159
419.90 0.4445131
420.00 0.4451009
420.10 0.4456881
420.20 0.4462746
420.30 0.4468605
420.40 0.4474459
420.50 0.4480306
420.60 0.4486147
420.70 0.4491982
420.80 0.4497811
420.90 0.4503653
421.00 0.4510108
421.10 0.4516557
421.20 0.452281
421.30 0.4528491
421.40 0.4534166
421.50 0.4539835
421.60 0.4545499
421.70 0.4551156
421.80 0.4556808
421.90 0.4562819
422.00 0.4569982
422.10 0.4576773
422.20 0.45821
422.30 0.458742
422.40 0.4592763
422.50 0.459898
422.60 0.4605191
422.70 0.4611395
422.80 0.4617593
422.90 0.4623785
423.00 0.462997
423.10 0.4636149
423.20 0.4642322
423.30 0.4648488
423.40 0.4654648
423.50 0.4660801
423.60 0.4666949
423.70 0.4673089
423.80 0.4679224
423.90 0.4685352
424.00 0.4691474
424.10 0.469759
424.20 0.4703699
424.30 0.4709802
424.40 0.471416
424.50 0.4720484
424.60 0.4726802
424.70 0.4733114
424.80 0.4739419
424.90 0.4745718
425.00 0.475201
425.10 0.4758296
425.20 0.4764575
425.30 0.4770848
425.40 0.4777096
425.50 0.4783216
425.60 0.4789328
425.70 0.4795435
425.80 0.4801536
425.90 0.480763
426.00 0.4813718
426.10 0.4819799
426.20 0.4825875
426.30 0.4831944
426.40 0.4838007
426.50 0.4844064
426.60 0.4850114
426.70 0.4856159
426.80 0.4862197
426.90 0.4868237
427.00 0.4874532
427.10 0.488082
427.20 0.4887102
427.30 0.4893378
427.40 0.4899647
427.50 0.490591
427.60 0.4912166
427.70 0.4918416
427.80 0.4924659
427.90 0.4930897
428.00 0.4937128
428.10 0.4943352
428.20 0.494957
428.30 0.4955782
428.40 0.4961987
428.50 0.4968186
428.60 0.4974379
428.70 0.4980566
428.80 0.4986757
428.90 0.4993087
429.00 0.4999411
429.10 0.5005729
429.20 0.501204
429.30 0.5018344
429.40 0.5024643
429.50 0.5030935
429.60 0.503722
429.70 0.5043499
429.80 0.5049772
429.90 0.5056038
430.00 0.5062298
430.10 0.5068552
430.20 0.5074799
430.30 0.508104
430.40 0.5087274
430.50 0.5093502
430.60 0.5099724
430.70 0.5105939
430.80 0.5112149
430.90 0.5118351
431.00 0.5124548
431.10 0.5130738
431.20 0.5136922
431.30 0.5143122
431.40 0.5149612
431.50 0.5156095
431.60 0.5162572
431.70 0.5169043
431.80 0.5175506
431.90 0.5181963
432.00 0.5188414
432.10 0.5194858
432.20 0.5201296
432.30 0.5207727
432.40 0.5214151
432.50 0.5220569
432.60 0.5226981
432.70 0.5233386
432.80 0.5239785
432.90 0.5246177
433.00 0.5252562
433.10 0.5258942
433.20 0.5265315
433.30 0.527168
433.40 0.5278031
433.50 0.5284376
433.60 0.5290714
433.70 0.5297046
433.80 0.53033
433.90 0.5309459
434.00 0.5315824
434.10 0.5322311
434.20 0.5328792
434.30 0.5335266
434.40 0.5341734
434.50 0.5348195
434.60 0.535465
434.70 0.5361098
434.80 0.5367538
434.90 0.5373952
435.00 0.538036
435.10 0.5386761
435.20 0.5393155
435.30 0.5399544
435.40 0.5405925
435.50 0.5412301
435.60 0.541867
435.70 0.5425032
435.80 0.5431388
435.90 0.5437738
436.00 0.5444081
436.10 0.5450418
436.20 0.5456749
436.30 0.5463454
436.40 0.547056
436.50 0.5476885
436.60 0.5483203
436.70 0.5489516
436.80 0.5495822
436.90 0.5502121
437.00 0.5508414
437.10 0.5514701
437.20 0.5521106
437.30 0.552762
437.40 0.553414
437.50 0.5540829
437.60 0.5547511
437.70 0.5554186
437.80 0.5560855
437.90 0.5567517
438.00 0.5574177
438.10 0.5580896
438.20 0.5587608
438.30 0.5594538
438.40 0.5601435
438.50 0.560769
438.60 0.5613707
438.70 0.5620335
438.80 0.5626571
438.90 0.56328
439.00 0.5638946
439.10 0.5646262
439.20 0.5653493
439.30 0.5659696
439.40 0.5665894
439.50 0.5672085
439.60 0.5678493
439.70 0.5685903
439.80 0.5692092
439.90 0.5698997
440.00 0.5705896
440.10 0.5712787
440.20 0.571965
440.30 0.5726227
440.40 0.5732797
440.50 0.573936
440.60 0.5745917
440.70 0.5752467
440.80 0.5759011
440.90 0.5765548
441.00 0.5772078
441.10 0.5778603
441.20 0.5785139
441.30 0.5791913
441.40 0.579846
441.50 0.5804731
441.60 0.5810996
441.70 0.5819143
441.80 0.5825784
441.90 0.5832417
442.00 0.5839045
442.10 0.5845665
442.20 0.5852279
442.30 0.5858886
442.40 0.5865475
442.50 0.5872042
442.60 0.5878603
442.70 0.5884722
442.80 0.5890269
442.90 0.5896937
443.00 0.5903932
443.10 0.5911325
443.20 0.5918357
443.30 0.5925056
443.40 0.5931896
443.50 0.593891
443.60 0.5944248
443.70 0.595098
443.80 0.5958242
443.90 0.5964154
444.00 0.5971725
444.10 0.5978698
444.20 0.598561
444.30 0.5992128
444.40 0.5998434
444.50 0.6004733
444.60 0.6011475
444.70 0.6018757
444.80 0.6025764
444.90 0.6032517
445.00 0.6039264
445.10 0.6046004
445.20 0.60527
445.30 0.6059345
445.40 0.6065984
445.50 0.6072616
445.60 0.6079241
445.70 0.608586
445.80 0.6092515
445.90 0.6099202
446.00 0.6105882
446.10 0.6112556
446.20 0.6119244
446.30 0.6125818
446.40 0.613361
446.50 0.6140421
446.60 0.6147226
446.70 0.6154024
446.80 0.6160815
446.90 0.61676
447.00 0.6174293
447.10 0.618064
447.20 0.6187828
447.30 0.6194163
447.40 0.6201422
447.50 0.6208166
447.60 0.621502
447.70 0.6221973
447.80 0.622785
447.90 0.6234913
448.00 0.6241789
448.10 0.6248494
448.20 0.6255192
448.30 0.6261884
448.40 0.6268569
448.50 0.6275247
448.60 0.6281907
448.70 0.6288551
448.80 0.6295228
448.90 0.6302431
449.00 0.6309626
449.10 0.6316815
449.20 0.6323996
449.30 0.6330871
449.40 0.6337354
449.50 0.634383
449.60 0.6350539
449.70 0.6357461
449.80 0.6364376
449.90 0.6371284
450.00 0.6378186
450.10 0.638508
450.20 0.6391968
450.30 0.639885
450.40 0.640575
450.50 0.6412644
450.60 0.6419531
450.70 0.6426411
450.80 0.6433284
450.90 0.6440151
451.00 0.6447369
451.10 0.645458
451.20 0.6461605
451.30 0.6468244
451.40 0.647473
451.50 0.6481211
451.60 0.6488722
451.70 0.6495189
451.80 0.650165
451.90 0.6509141
452.00 0.6515588
452.10 0.6522029
452.20 0.6528982
452.30 0.6535928
452.40 0.6542866
452.50 0.6549799
452.60 0.6556682
452.70 0.6563706
452.80 0.657086
452.90 0.6578007
453.00 0.6585148
453.10 0.6592281
453.20 0.659913
453.30 0.6605972
453.40 0.6612808
453.50 0.6619637
453.60 0.6626459
453.70 0.6633275
453.80 0.6640264
453.90 0.6647466
454.00 0.6654662
454.10 0.6661851
454.20 0.6668656
454.30 0.6675456
454.40 0.6682248
454.50 0.6689034
454.60 0.6695814
454.70 0.6702697
454.80 0.6709674
454.90 0.6716645
455.00 0.672361
455.10 0.6730567
455.20 0.6737518
455.30 0.6744462
455.40 0.6751399
455.50 0.6758329
455.60 0.6765253
455.70 0.677217
455.80 0.6779582
455.90 0.6786986
456.00 0.6794383
456.10 0.6801632
456.20 0.6808493
456.30 0.6815347
456.40 0.6822195
456.50 0.6829036
456.60 0.683587
456.70 0.6842698
456.80 0.6849519
456.90 0.6856333
457.00 0.6863141
457.10 0.6869942
457.20 0.6877718
457.30 0.6884772
457.40 0.6891818
457.50 0.6898858
457.60 0.6905891
457.70 0.6912917
457.80 0.6919936
457.90 0.6926949
458.00 0.6933954
458.10 0.6940953
458.20 0.6947945
458.30 0.6954931
458.40 0.696191
458.50 0.6968881
458.60 0.6975847
458.70 0.6982963
458.80 0.6990136
458.90 0.6997303
459.00 0.7004462
459.10 0.7011615
459.20 0.7018761
459.30 0.7025791
459.40 0.7032814
459.50 0.703983
459.60 0.704684
459.70 0.7053843
459.80 0.7060839
459.90 0.7067828
460.00 0.707481
460.10 0.7081786
460.20 0.7088755
460.30 0.7095717
460.40 0.7102673
460.50 0.7109622
460.60 0.7116564
460.70 0.712379
460.80 0.7131153
460.90 0.7138508
461.00 0.7145856
461.10 0.7153198
461.20 0.7160523
461.30 0.7167838
461.40 0.717477
461.50 0.7181603
461.60 0.7188428
461.70 0.7195248
461.80 0.7202414
461.90 0.7209574
462.00 0.7216728
462.10 0.7223874
462.20 0.7231013
462.30 0.7238146
462.40 0.7245272
462.50 0.725239
462.60 0.7259503
462.70 0.7266608
462.80 0.7273706
462.90 0.7280798
463.00 0.7287883
463.10 0.7294961
463.20 0.7302076
463.30 0.7309202
463.40 0.7316322
463.50 0.7323434
463.60 0.733054
463.70 0.7337639
463.80 0.7344731
463.90 0.7351983
464.00 0.7359269
464.10 0.7366547
464.20 0.7373819
464.30 0.7381084
464.40 0.7388342
464.50 0.7395593
464.60 0.7402838
464.70 0.7409966
464.80 0.7417044
464.90 0.7424115
465.00 0.7431179
465.10 0.7438237
465.20 0.7445287
465.30 0.7452457
465.40 0.7459705
465.50 0.7466945
465.60 0.7474178
465.70 0.7481405
465.80 0.7488625
465.90 0.7495509
466.00 0.7502305
466.10 0.7509094
466.20 0.7515877
466.30 0.7523021
466.40 0.7530307
466.50 0.7537587
466.60 0.754486
466.70 0.7552125
466.80 0.7559384
466.90 0.7566636
467.00 0.7573881
467.10 0.7581119
467.20 0.7588351
467.30 0.7595705
467.40 0.7602811
467.50 0.7609837
467.60 0.7616855
467.70 0.7623868
467.80 0.7630873
467.90 0.763814
468.00 0.764551
468.10 0.7652873
468.20 0.7660229
468.30 0.7667578
468.40 0.767492
468.50 0.7681571
468.60 0.7689779
468.70 0.769622
468.80 0.7704427
468.90 0.7711519
469.00 0.7718824
469.10 0.772612
469.20 0.7733407
469.30 0.7740686
469.40 0.7747959
469.50 0.7755088
469.60 0.7762154
469.70 0.7769213
469.80 0.7776266
469.90 0.7783579
470.00 0.7791448
470.10 0.7798673
470.20 0.7805889
470.30 0.7813098
470.40 0.78203
470.50 0.7827495
470.60 0.7834685
470.70 0.7841869
470.80 0.7849046
470.90 0.7856216
471.00 0.7863386
471.10 0.7870537
471.20 0.7876922
471.30 0.7885018
471.40 0.7891201
471.50 0.7899283
471.60 0.7906215
471.70 0.7913331
471.80 0.792082
471.90 0.7928398
472.00 0.7935968
472.10 0.7943532
472.20 0.7950709
472.30 0.7957786
472.40 0.7964856
472.50 0.7971919
472.60 0.7978975
472.70 0.7986016
472.80 0.7993358
472.90 0.8000771
473.00 0.8008177
473.10 0.8015576
473.20 0.8022969
473.30 0.8030354
473.40 0.8037732
473.50 0.8045103
473.60 0.8052468
473.70 0.8059825
473.80 0.806706
473.90 0.8074259
474.00 0.8081452
474.10 0.8088637
474.20 0.8095822
474.30 0.8103002
474.40 0.8110176
474.50 0.8117342
474.60 0.8124525
474.70 0.8131929
474.80 0.8139326
474.90 0.8146716
475.00 0.8154099
475.10 0.8161476
475.20 0.8168845
475.30 0.8176208
475.40 0.818345
475.50 0.8190658
475.60 0.8197859
475.70 0.8205053
475.80 0.8212241
475.90 0.8219421
476.00 0.8226595
476.10 0.8233762
476.20 0.8241059
476.30 0.8248404
476.40 0.8255742
476.50 0.8263074
476.60 0.8270398
476.70 0.8277716
476.80 0.8285027
476.90 0.8292437
477.00 0.8299866
477.10 0.8307288
477.20 0.8314703
477.30 0.8322111
477.40 0.8329512
477.50 0.8336906
477.60 0.8344294
477.70 0.8351674
477.80 0.8359048
477.90 0.8366414
478.00 0.8373774
478.10 0.8381127
478.20 0.8388473
478.30 0.8395812
478.40 0.8403144
478.50 0.841047
478.60 0.8417788
478.70 0.8424968
478.80 0.8432087
478.90 0.8439264
479.00 0.8446451
479.10 0.845363
479.20 0.8460803
479.30 0.8467969
479.40 0.8475307
479.50 0.8482741
479.60 0.8490169
479.70 0.8497589
479.80 0.8505003
479.90 0.851241
480.00 0.851981
480.10 0.8527203
480.20 0.8534589
480.30 0.8541968
480.40 0.8549341
480.50 0.8556706
480.60 0.8564065
480.70 0.8571417
480.80 0.8578761
480.90 0.85861
481.00 0.8593431
481.10 0.8600755
481.20 0.8608224
481.30 0.8615686
481.40 0.862314
481.50 0.8630588
481.60 0.8638029
481.70 0.8645463
481.80 0.865289
481.90 0.8660311
482.00 0.8667724
482.10 0.867513
482.20 0.868253
482.30 0.8689928
482.40 0.8697319
482.50 0.8704703
482.60 0.871208
482.70 0.871945
482.80 0.8726814
482.90 0.873417
483.00 0.874152
483.10 0.8748863
483.20 0.8756199
483.30 0.8763528
483.40 0.8770851
483.50 0.8778166
483.60 0.8785475
483.70 0.8792771
483.80 0.880006
483.90 0.8807342
484.00 0.8814617
484.10 0.8821886
484.20 0.882915
484.30 0.8836407
484.40 0.8843658
484.50 0.8850902
484.60 0.8858139
484.70 0.8865387
484.80 0.8872854
484.90 0.8880315
485.00 0.8887768
485.10 0.8895215
485.20 0.8902655
485.30 0.8910087
485.40 0.8917513
485.50 0.8924932
485.60 0.8932345
485.70 0.8939835
485.80 0.8947318
485.90 0.8954794
486.00 0.8962263
486.10 0.8969726
486.20 0.8977181
486.30 0.898463
486.40 0.8992072
486.50 0.8999507
486.60 0.9006935
486.70 0.9014346
486.80 0.9021619
486.90 0.9028886
487.00 0.9036146
487.10 0.9043399
487.20 0.9050786
487.30 0.9058166
487.40 0.906554
487.50 0.9072907
487.60 0.9080267
487.70 0.908762
487.80 0.9094966
487.90 0.9102306
488.00 0.9109638
488.10 0.9116964
488.20 0.9124295
488.30 0.9131767
488.40 0.9139233
488.50 0.9146692
488.60 0.9154144
488.70 0.9161589
488.80 0.9168919
488.90 0.9176241
489.00 0.9183591
489.10 0.9191021
489.20 0.9198445
489.30 0.9205861
489.40 0.9213271
489.50 0.9220674
489.60 0.922807
489.70 0.923546
489.80 0.924306
489.90 0.9250423
490.00 0.925778
490.10 0.9265129
490.20 0.9272472
490.30 0.9279809
490.40 0.928747
490.50 0.9295124
490.60 0.9302771
490.70 0.9310411
490.80 0.9317855
490.90 0.9323913
491.00 0.9332411
491.10 0.9340024
491.20 0.9346752
491.30 0.9354351
491.40 0.9361869
491.50 0.9369528
491.60 0.9376464
491.70 0.9384327
491.80 0.9392053
491.90 0.9398049
492.00 0.9405643
492.10 0.9413756
492.20 0.9421446
492.30 0.9428255
492.40 0.9435661
492.50 0.9443252
492.60 0.9450683
492.70 0.9458186
492.80 0.9465682
492.90 0.9473171
493.00 0.9480654
493.10 0.9488145
493.20 0.9495629
493.30 0.9503106
493.40 0.9510576
493.50 0.951804
493.60 0.9525384
493.70 0.9532546
493.80 0.9539702
493.90 0.9547135
494.00 0.9555006
494.10 0.9562711
494.20 0.957007
494.30 0.9577423
494.40 0.9584768
494.50 0.9592107
494.60 0.9599458
494.70 0.9607049
494.80 0.9614549
494.90 0.9621802
495.00 0.9629047
495.10 0.9636286
495.20 0.9643634
495.30 0.9650974
495.40 0.9658308
495.50 0.9665636
495.60 0.9672956
495.70 0.968027
495.80 0.9687577
495.90 0.9694877
496.00 0.9702171
496.10 0.9709839
496.20 0.9718241
496.30 0.972573
496.40 0.9733213
496.50 0.9740688
496.60 0.9748157
496.70 0.9755437
496.80 0.9762711
496.90 0.9769978
497.00 0.9777239
497.10 0.9784493
497.20 0.979174
497.30 0.9799103
497.40 0.9806807
497.50 0.9814504
497.60 0.9821973
497.70 0.9828994
497.80 0.983635
497.90 0.9843699
498.00 0.9851041
498.10 0.9858377
498.20 0.9865706
498.30 0.9873029
498.40 0.9880345
498.50 0.9887654
498.60 0.9894956
498.70 0.9902907
498.80 0.9910851
498.90 0.9917974
499.00 0.992509
499.10 0.99322
499.20 0.9939861
499.30 0.9948318
499.40 0.9955681
499.50 0.9963037
499.60 0.9970387
499.70 0.9977736
499.80 0.9985164
499.90 0.9992585
500.00 1
500.10 1.000741
500.20 1.001477
500.30 1.002205
500.40 1.002932
500.50 1.003658
500.60 1.004383
500.70 1.005108
500.80 1.005847
500.90 1.006614
501.00 1.007381
501.10 1.008148
501.20 1.008797
501.30 1.009574
501.40 1.010378
501.50 1.011069
501.60 1.011777
501.70 1.012568
501.80 1.013281
501.90 1.014054
502.00 1.014809
502.10 1.015524
502.20 1.016242
502.30 1.016988
502.40 1.017732
502.50 1.018473
502.60 1.019214
502.70 1.019953
502.80 1.020692
502.90 1.02143
503.00 1.022171
503.10 1.022919
503.20 1.023666
503.30 1.024412
503.40 1.025152
503.50 1.025874
503.60 1.026596
503.70 1.027317
503.80 1.028047
503.90 1.028844
504.00 1.029622
504.10 1.030363
504.20 1.031103
504.30 1.031842
504.40 1.032586
504.50 1.033341
504.60 1.034009
504.70 1.034788
504.80 1.035487
504.90 1.036294
505.00 1.036941
505.10 1.037693
505.20 1.038448
505.30 1.039216
505.40 1.039983
505.50 1.040749
505.60 1.041505
505.70 1.042241
505.80 1.042976
505.90 1.04371
506.00 1.044444
506.10 1.045177
506.20 1.04591
506.30 1.046643
506.40 1.047375
506.50 1.048106
506.60 1.048836
506.70 1.049566
506.80 1.050295
506.90 1.051024
507.00 1.051752
507.10 1.052511
507.20 1.053315
507.30 1.054052
507.40 1.054788
507.50 1.055523
507.60 1.056258
507.70 1.056992
507.80 1.057725
507.90 1.058458
508.00 1.05919
508.10 1.059921
508.20 1.060652
508.30 1.061382
508.40 1.062111
508.50 1.06284
508.60 1.063568
508.70 1.064295
508.80 1.065051
508.90 1.06581
509.00 1.066539
509.10 1.067274
509.20 1.068019
509.30 1.068764
509.40 1.069508
509.50 1.070252
509.60 1.070994
509.70 1.071737
509.80 1.072478
509.90 1.073219
510.00 1.073959
510.10 1.074698
510.20 1.075437
510.30 1.076175
510.40 1.076909
510.50 1.077642
510.60 1.078375
510.70 1.079107
510.80 1.079838
510.90 1.080569
511.00 1.081299
511.10 1.082029
511.20 1.082757
511.30 1.083486
511.40 1.084213
511.50 1.08494
511.60 1.085672
511.70 1.086416
511.80 1.087159
511.90 1.087902
512.00 1.088644
512.10 1.089385
512.20 1.090126
512.30 1.090867
512.40 1.091612
512.50 1.092356
512.60 1.093099
512.70 1.093842
512.80 1.094584
512.90 1.095325
513.00 1.096065
513.10 1.096805
513.20 1.097545
513.30 1.098283
513.40 1.099021
513.50 1.099759
513.60 1.100495
513.70 1.101231
513.80 1.101966
513.90 1.102701
514.00 1.103438
514.10 1.104175
514.20 1.10491
514.30 1.105646
514.40 1.10638
514.50 1.107114
514.60 1.107848
514.70 1.10858
514.80 1.109312
514.90 1.110044
515.00 1.110774
515.10 1.111504
515.20 1.112234
515.30 1.112963
515.40 1.113691
515.50 1.114418
515.60 1.115145
515.70 1.115871
515.80 1.116597
515.90 1.117321
516.00 1.118046
516.10 1.118769
516.20 1.119492
516.30 1.120214
516.40 1.120936
516.50 1.12166
516.60 1.122399
516.70 1.123138
516.80 1.123876
516.90 1.124614
517.00 1.12535
517.10 1.126086
517.20 1.126822
517.30 1.127556
517.40 1.128291
517.50 1.129024
517.60 1.129757
517.70 1.130489
517.80 1.13122
517.90 1.131951
518.00 1.132682
518.10 1.133411
518.20 1.13414
518.30 1.134868
518.40 1.135596
518.50 1.136323
518.60 1.137049
518.70 1.137775
518.80 1.1385
518.90 1.139224
519.00 1.139948
519.10 1.140681
519.20 1.141425
519.30 1.142168
519.40 1.142911
519.50 1.143653
519.60 1.144394
519.70 1.145135
519.80 1.145875
519.90 1.146614
520.00 1.147353
520.10 1.14809
520.20 1.148828
520.30 1.149565
520.40 1.150301
520.50 1.151036
520.60 1.151771
520.70 1.152505
520.80 1.153238
520.90 1.153971
521.00 1.154703
521.10 1.155435
521.20 1.156165
521.30 1.156896
521.40 1.157625
521.50 1.158354
521.60 1.159082
521.70 1.15981
521.80 1.160537
521.90 1.161263
522.00 1.161989
522.10 1.162714
522.20 1.163438
522.30 1.164162
522.40 1.164885
522.50 1.165608
522.60 1.16633
522.70 1.167051
522.80 1.167772
522.90 1.168491
523.00 1.169211
523.10 1.169929
523.20 1.170648
523.30 1.171365
523.40 1.172082
523.50 1.172798
523.60 1.173513
523.70 1.174228
523.80 1.174942
523.90 1.175656
524.00 1.176369
524.10 1.177081
524.20 1.177793
524.30 1.178518
524.40 1.179252
524.50 1.179986
524.60 1.180719
524.70 1.181451
524.80 1.182183
524.90 1.182915
525.00 1.183645
525.10 1.184375
525.20 1.185104
525.30 1.185833
525.40 1.186561
525.50 1.187288
525.60 1.188015
525.70 1.188741
525.80 1.189467
525.90 1.190191
526.00 1.190916
526.10 1.191639
526.20 1.192362
526.30 1.193084
526.40 1.193806
526.50 1.194527
526.60 1.195247
526.70 1.195967
526.80 1.196686
526.90 1.197404
527.00 1.198122
527.10 1.198839
527.20 1.199556
527.30 1.200272
527.40 1.200987
527.50 1.201702
527.60 1.202416
527.70 1.203129
527.80 1.203842
527.90 1.204554
528.00 1.205266
528.10 1.205977
528.20 1.206687
528.30 1.207397
528.40 1.208106
528.50 1.208814
528.60 1.209522
528.70 1.210229
528.80 1.210936
528.90 1.211642
529.00 1.212347
529.10 1.213052
529.20 1.213756
529.30 1.214459
529.40 1.215162
529.50 1.215868
529.60 1.216595
529.70 1.217321
529.80 1.218046
529.90 1.218771
530.00 1.219496
530.10 1.220219
530.20 1.220942
530.30 1.221665
530.40 1.222386
530.50 1.223108
530.60 1.223828
530.70 1.224548
530.80 1.225267
530.90 1.225986
531.00 1.226704
531.10 1.227421
531.20 1.228138
531.30 1.228854
531.40 1.229569
531.50 1.230284
531.60 1.230999
531.70 1.231712
531.80 1.232425
531.90 1.233137
532.00 1.233849
532.10 1.23456
532.20 1.235275
532.30 1.235991
532.40 1.236706
532.50 1.237421
532.60 1.238135
532.70 1.238848
532.80 1.239561
532.90 1.240273
533.00 1.240985
533.10 1.241696
533.20 1.242406
533.30 1.243116
533.40 1.243825
533.50 1.244534
533.60 1.245242
533.70 1.245949
533.80 1.246655
533.90 1.247361
534.00 1.248067
534.10 1.248772
534.20 1.249476
534.30 1.250179
534.40 1.250882
534.50 1.251585
534.60 1.252286
534.70 1.252987
534.80 1.253692
534.90 1.25441
535.00 1.255128
535.10 1.255845
535.20 1.256562
535.30 1.257278
535.40 1.257993
535.50 1.258708
535.60 1.259422
535.70 1.260136
535.80 1.260849
535.90 1.261561
536.00 1.262273
536.10 1.262984
536.20 1.263694
536.30 1.264404
536.40 1.265113
536.50 1.265822
536.60 1.26653
536.70 1.267237
536.80 1.267944
536.90 1.26865
537.00 1.269356
537.10 1.27006
537.20 1.270765
537.30 1.271468
537.40 1.272172
537.50 1.272874
537.60 1.273576
537.70 1.274277
537.80 1.274978
537.90 1.275678
538.00 1.276377
538.10 1.277076
538.20 1.277774
538.30 1.278472
538.40 1.279169
538.50 1.279865
538.60 1.280561
538.70 1.281256
538.80 1.281951
538.90 1.282645
539.00 1.283338
539.10 1.284031
539.20 1.284723
539.30 1.285414
539.40 1.286105
539.50 1.286796
539.60 1.287485
539.70 1.288175
539.80 1.288863
539.90 1.289551
540.00 1.290238
540.10 1.290925
540.20 1.291626
540.30 1.292332
540.40 1.293038
540.50 1.293743
540.60 1.294448
540.70 1.295152
540.80 1.295855
540.90 1.296558
541.00 1.29726
541.10 1.297961
541.20 1.298662
541.30 1.299363
541.40 1.300062
541.50 1.300761
541.60 1.30146
541.70 1.302158
541.80 1.302855
541.90 1.303551
542.00 1.304248
542.10 1.304943
542.20 1.305638
542.30 1.306332
542.40 1.307026
542.50 1.307719
542.60 1.308411
542.70 1.309103
542.80 1.309794
542.90 1.310485
543.00 1.311175
543.10 1.311864
543.20 1.312553
543.30 1.313242
543.40 1.313929
543.50 1.314616
543.60 1.315303
543.70 1.315989
543.80 1.316674
543.90 1.317359
544.00 1.318043
544.10 1.318726
544.20 1.319409
544.30 1.320091
544.40 1.320773
544.50 1.321454
544.60 1.322135
544.70 1.322815
544.80 1.323494
544.90 1.324173
545.00 1.324851
545.10 1.325529
545.20 1.326206
545.30 1.326882
545.40 1.327558
545.50 1.328233
545.60 1.32892
545.70 1.329611
545.80 1.330302
545.90 1.330991
546.00 1.331681
546.10 1.332369
546.20 1.333058
546.30 1.333745
546.40 1.334432
546.50 1.335118
546.60 1.335804
546.70 1.336489
546.80 1.337174
546.90 1.337858
547.00 1.338541
547.10 1.339224
547.20 1.339906
547.30 1.340588
547.40 1.341269
547.50 1.341949
547.60 1.342629
547.70 1.343308
547.80 1.343987
547.90 1.344665
548.00 1.345342
548.10 1.346019
548.20 1.346696
548.30 1.347376
548.40 1.348062
548.50 1.348747
548.60 1.349432
548.70 1.350116
548.80 1.3508
548.90 1.351483
549.00 1.352165
549.10 1.352847
549.20 1.353528
549.30 1.354209
549.40 1.354889
549.50 1.355568
549.60 1.356247
549.70 1.356925
549.80 1.357603
549.90 1.35828
550.00 1.358957
550.10 1.359633
550.20 1.360308
550.30 1.360983
550.40 1.361657
550.50 1.362331
550.60 1.363004
550.70 1.363676
550.80 1.364348
550.90 1.365019
551.00 1.36569
551.10 1.366358
551.20 1.367026
551.30 1.367693
551.40 1.36836
551.50 1.369026
551.60 1.369692
551.70 1.370357
551.80 1.371021
551.90 1.371685
552.00 1.372349
552.10 1.373011
552.20 1.373673
552.30 1.374335
552.40 1.374996
552.50 1.375656
552.60 1.376316
552.70 1.376976
552.80 1.377634
552.90 1.378293
553.00 1.37895
553.10 1.379607
553.20 1.380264
553.30 1.38092
553.40 1.381575
553.50 1.38223
553.60 1.382884
553.70 1.383538
553.80 1.384221
553.90 1.384923
554.00 1.385625
554.10 1.386327
554.20 1.387028
554.30 1.387728
554.40 1.388428
554.50 1.389127
554.60 1.389825
554.70 1.390523
554.80 1.39122
554.90 1.391917
555.00 1.392613
555.10 1.393308
555.20 1.394003
555.30 1.394698
555.40 1.395391
555.50 1.396084
555.60 1.396777
555.70 1.397469
555.80 1.39816
555.90 1.398851
556.00 1.399541
556.10 1.400231
556.20 1.40092
556.30 1.401608
556.40 1.402296
556.50 1.402981
556.60 1.403632
556.70 1.404282
556.80 1.404931
556.90 1.40558
557.00 1.406228
557.10 1.406875
557.20 1.407522
557.30 1.408169
557.40 1.408814
557.50 1.40946
557.60 1.410105
557.70 1.410749
557.80 1.411393
557.90 1.412036
558.00 1.412678
558.10 1.41332
558.20 1.413962
558.30 1.414603
558.40 1.415243
558.50 1.415883
558.60 1.416522
558.70 1.417161
558.80 1.417799
558.90 1.418437
559.00 1.419074
559.10 1.41971
559.20 1.420346
559.30 1.420982
559.40 1.421617
559.50 1.422251
559.60 1.422885
559.70 1.423518
559.80 1.424151
559.90 1.424783
560.00 1.425415
560.10 1.426046
560.20 1.426676
560.30 1.427306
560.40 1.427936
560.50 1.428565
560.60 1.429193
560.70 1.429821
560.80 1.430448
560.90 1.431075
561.00 1.431701
561.10 1.432327
561.20 1.432952
561.30 1.433577
561.40 1.434201
561.50 1.434824
561.60 1.435447
561.70 1.43607
561.80 1.436692
561.90 1.437313
562.00 1.437934
562.10 1.438578
562.20 1.439258
562.30 1.439938
562.40 1.440616
562.50 1.441294
562.60 1.441972
562.70 1.442649
562.80 1.443325
562.90 1.444001
563.00 1.444676
563.10 1.445351
563.20 1.446025
563.30 1.446699
563.40 1.447372
563.50 1.448044
563.60 1.448716
563.70 1.449387
563.80 1.450058
563.90 1.450728
564.00 1.451398
564.10 1.452067
564.20 1.452735
564.30 1.453403
564.40 1.45407
564.50 1.454737
564.60 1.455403
564.70 1.456069
564.80 1.456734
564.90 1.457385
565.00 1.458002
565.10 1.458618
565.20 1.459235
565.30 1.45985
565.40 1.460465
565.50 1.46108
565.60 1.461694
565.70 1.462307
565.80 1.46292
565.90 1.463532
566.00 1.464144
566.10 1.464756
566.20 1.465366
566.30 1.465977
566.40 1.466587
566.50 1.467196
566.60 1.467805
566.70 1.468413
566.80 1.469021
566.90 1.469628
567.00 1.470234
567.10 1.470841
567.20 1.471446
567.30 1.472051
567.40 1.472656
567.50 1.47326
567.60 1.473863
567.70 1.474473
567.80 1.475111
567.90 1.475748
568.00 1.476384
568.10 1.47702
568.20 1.477655
568.30 1.47829
568.40 1.478925
568.50 1.479558
568.60 1.480192
568.70 1.480824
568.80 1.481456
568.90 1.482088
569.00 1.482719
569.10 1.48335
569.20 1.48398
569.30 1.484609
569.40 1.485238
569.50 1.485866
569.60 1.486494
569.70 1.487122
569.80 1.487748
569.90 1.488375
570.00 1.489001
570.10 1.489626
570.20 1.49025
570.30 1.490875
570.40 1.491498
570.50 1.492121
570.60 1.492744
570.70 1.493366
570.80 1.493987
570.90 1.494608
571.00 1.495229
571.10 1.495849
571.20 1.496468
571.30 1.497087
571.40 1.497705
571.50 1.498323
571.60 1.498941
571.70 1.499557
571.80 1.500174
571.90 1.500789
572.00 1.501405
572.10 1.502019
572.20 1.502633
572.30 1.503247
572.40 1.50386
572.50 1.504473
572.60 1.505085
572.70 1.505697
572.80 1.506308
572.90 1.506918
573.00 1.507528
573.10 1.508138
573.20 1.508747
573.30 1.509355
573.40 1.509976
573.50 1.510613
573.60 1.51125
573.70 1.511886
573.80 1.512521
573.90 1.513156
574.00 1.513791
574.10 1.514425
574.20 1.515059
574.30 1.515692
574.40 1.516324
574.50 1.516956
574.60 1.517587
574.70 1.518218
574.80 1.518848
574.90 1.519478
575.00 1.520107
575.10 1.520736
575.20 1.521364
575.30 1.521992
575.40 1.522619
575.50 1.523246
575.60 1.523872
575.70 1.524497
575.80 1.525122
575.90 1.525747
576.00 1.526371
576.10 1.526994
576.20 1.527617
576.30 1.52824
576.40 1.528862
576.50 1.529483
576.60 1.530104
576.70 1.530724
576.80 1.531344
576.90 1.531963
577.00 1.532582
577.10 1.5332
577.20 1.533818
577.30 1.534435
577.40 1.535052
577.50 1.535668
577.60 1.536257
577.70 1.536804
577.80 1.537351
577.90 1.537897
578.00 1.538443
578.10 1.538988
578.20 1.539532
578.30 1.540077
578.40 1.54062
578.50 1.541164
578.60 1.541706
578.70 1.542249
578.80 1.542791
578.90 1.543332
579.00 1.543873
579.10 1.544422
579.20 1.545059
579.30 1.545695
579.40 1.546331
579.50 1.546966
579.60 1.5476
579.70 1.548235
579.80 1.548868
579.90 1.549501
580.00 1.550134
580.10 1.550753
580.20 1.55135
580.30 1.551948
580.40 1.552544
580.50 1.55314
580.60 1.553736
580.70 1.554331
580.80 1.554926
580.90 1.55552
581.00 1.556113
581.10 1.556707
581.20 1.557299
581.30 1.557891
581.40 1.558483
581.50 1.559074
581.60 1.559665
581.70 1.560255
581.80 1.560844
581.90 1.561433
582.00 1.562022
582.10 1.562626
582.20 1.563255
582.30 1.563884
582.40 1.564512
582.50 1.56514
582.60 1.565767
582.70 1.566394
582.80 1.56702
582.90 1.567646
583.00 1.568271
583.10 1.568895
583.20 1.569519
583.30 1.570143
583.40 1.570766
583.50 1.571388
583.60 1.571999
583.70 1.57259
583.80 1.573181
583.90 1.573771
584.00 1.574361
584.10 1.574951
584.20 1.575539
584.30 1.576128
584.40 1.576716
584.50 1.577303
584.60 1.57789
584.70 1.578476
584.80 1.579062
584.90 1.579604
585.00 1.579948
585.10 1.580291
585.20 1.580722
585.30 1.581294
585.40 1.581866
585.50 1.582438
585.60 1.583009
585.70 1.583579
585.80 1.584149
585.90 1.584719
586.00 1.585288
586.10 1.585856
586.20 1.586471
586.30 1.587162
586.40 1.587852
586.50 1.588542
586.60 1.589231
586.70 1.589919
586.80 1.59049
586.90 1.590871
587.00 1.59125
587.10 1.59163
587.20 1.592125
587.30 1.592811
587.40 1.59303
587.50 1.594266
587.60 1.594398
587.70 1.595082
587.80 1.59623
587.90 1.596913
588.00 1.597478
588.10 1.597853
588.20 1.598228
588.30 1.598602
588.40 1.599092
588.50 1.599772
588.60 1.60045
588.70 1.601129
588.80 1.601806
588.90 1.602483
589.00 1.603114
589.10 1.603668
589.20 1.604221
589.30 1.604774
589.40 1.605327
589.50 1.605879
589.60 1.60643
589.70 1.606982
589.80 1.607532
589.90 1.608083
590.00 1.608637
590.10 1.609199
590.20 1.60976
590.30 1.610321
590.40 1.610882
590.50 1.611441
590.60 1.612001
590.70 1.61256
590.80 1.613062
590.90 1.613537
591.00 1.614013
591.10 1.614487
591.20 1.614962
591.30 1.615436
591.40 1.61591
591.50 1.616383
591.60 1.616897
591.70 1.61748
591.80 1.618062
591.90 1.618643
592.00 1.619224
592.10 1.619805
592.20 1.620385
592.30 1.620964
592.40 1.621543
592.50 1.622122
592.60 1.6227
592.70 1.623277
592.80 1.623854
592.90 1.624431
593.00 1.625007
593.10 1.625567
593.20 1.626102
593.30 1.626637
593.40 1.627171
593.50 1.627705
593.60 1.628238
593.70 1.628771
593.80 1.629303
593.90 1.629835
594.00 1.630367
594.10 1.630898
594.20 1.631428
594.30 1.631958
594.40 1.632488
594.50 1.633017
594.60 1.633546
594.70 1.634074
594.80 1.634602
594.90 1.635129
595.00 1.635656
595.10 1.636206
595.20 1.636794
595.30 1.637382
595.40 1.637969
595.50 1.638555
595.60 1.639141
595.70 1.639727
595.80 1.640312
595.90 1.640896
596.00 1.64148
596.10 1.642064
596.20 1.642647
596.30 1.643229
596.40 1.643812
596.50 1.644393
596.60 1.644974
596.70 1.645492
596.80 1.64597
596.90 1.646447
597.00 1.646924
597.10 1.647401
597.20 1.647877
597.30 1.648353
597.40 1.648829
597.50 1.649304
597.60 1.649803
597.70 1.650343
597.80 1.650881
597.90 1.65142
598.00 1.651958
598.10 1.652495
598.20 1.653032
598.30 1.653569
598.40 1.654105
598.50 1.65464
598.60 1.655175
598.70 1.65571
598.80 1.656244
598.90 1.656778
599.00 1.657312
599.10 1.657845
599.20 1.658377
599.30 1.658909
599.40 1.659475
599.50 1.660041
599.60 1.660606
599.70 1.661171
599.80 1.661736
599.90 1.662299
600.00 1.662863
600.10 1.663426
600.20 1.663988
600.30 1.66455
600.40 1.665112
600.50 1.665673
600.60 1.666234
600.70 1.666794
600.80 1.667353
600.90 1.667913
601.00 1.668471
601.10 1.66903
601.20 1.669588
601.30 1.670145
601.40 1.670666
601.50 1.671187
601.60 1.671707
601.70 1.672227
601.80 1.672747
601.90 1.673266
602.00 1.673784
602.10 1.674303
602.20 1.67482
602.30 1.675338
602.40 1.675855
602.50 1.676371
602.60 1.676887
602.70 1.67752
602.80 1.678159
602.90 1.678622
603.00 1.679084
603.10 1.679546
603.20 1.680007
603.30 1.680468
603.40 1.680929
603.50 1.681389
603.60 1.681849
603.70 1.682309
603.80 1.682768
603.90 1.683227
604.00 1.683685
604.10 1.684143
604.20 1.684601
604.30 1.685058
604.40 1.685515
604.50 1.686116
604.60 1.686717
604.70 1.687317
604.80 1.687917
604.90 1.688516
605.00 1.689115
605.10 1.689713
605.20 1.690311
605.30 1.690908
605.40 1.691505
605.50 1.691909
605.60 1.692312
605.70 1.692715
605.80 1.693118
605.90 1.693521
606.00 1.693923
606.10 1.694517
606.20 1.69511
606.30 1.695703
606.40 1.696295
606.50 1.696887
606.60 1.697478
606.70 1.697494
606.80 1.698085
606.90 1.698675
607.00 1.69869
607.10 1.699279
607.20 1.699868
607.30 1.700457
607.40 1.701044
607.50 1.701632
607.60 1.702219
607.70 1.702805
607.80 1.703391
607.90 1.703977
608.00 1.704562
608.10 1.705147
608.20 1.705731
608.30 1.706232
608.40 1.706733
608.50 1.707233
608.60 1.707734
608.70 1.708194
608.80 1.708637
608.90 1.70908
609.00 1.709522
609.10 1.709963
609.20 1.710405
609.30 1.710913
609.40 1.71142
609.50 1.711927
609.60 1.712434
609.70 1.71294
609.80 1.713446
609.90 1.713952
610.00 1.714457
610.10 1.714961
610.20 1.715465
610.30 1.715969
610.40 1.716472
610.50 1.716975
610.60 1.717478
610.70 1.71798
610.80 1.718482
610.90 1.718978
611.00 1.719474
611.10 1.71997
611.20 1.720465
611.30 1.72096
611.40 1.721454
611.50 1.721948
611.60 1.722442
611.70 1.722935
611.80 1.723428
611.90 1.72392
612.00 1.724412
612.10 1.724903
612.20 1.725394
612.30 1.725885
612.40 1.726338
612.50 1.72679
612.60 1.727242
612.70 1.727693
612.80 1.728144
612.90 1.728595
613.00 1.729045
613.10 1.729495
613.20 1.729945
613.30 1.730394
613.40 1.730843
613.50 1.731291
613.60 1.731739
613.70 1.732187
613.80 1.732634
613.90 1.733081
614.00 1.733527
614.10 1.733973
614.20 1.734419
614.30 1.734864
614.40 1.735376
614.50 1.735887
614.60 1.736397
614.70 1.736907
614.80 1.737418
614.90 1.737928
615.00 1.738438
615.10 1.738947
615.20 1.739456
615.30 1.739965
615.40 1.740473
615.50 1.740981
615.60 1.741488
615.70 1.741995
615.80 1.742502
615.90 1.743008
616.00 1.743513
616.10 1.744019
616.20 1.744523
616.30 1.745028
616.40 1.745532
616.50 1.746035
616.60 1.746538
616.70 1.747041
616.80 1.747543
616.90 1.74799
617.00 1.748436
617.10 1.748882
617.20 1.749327
617.30 1.749772
617.40 1.750217
617.50 1.750661
617.60 1.751105
617.70 1.751549
617.80 1.751992
617.90 1.752435
618.00 1.752877
618.10 1.753319
618.20 1.753761
618.30 1.754202
618.40 1.754643
618.50 1.755083
618.60 1.755523
618.70 1.755963
618.80 1.756402
618.90 1.756841
619.00 1.75728
619.10 1.757718
619.20 1.758156
619.30 1.758593
619.40 1.759031
619.50 1.759467
619.60 1.759904
619.70 1.76034
619.80 1.760775
619.90 1.76121
620.00 1.761645
620.10 1.76208
620.20 1.762514
620.30 1.762948
620.40 1.763381
620.50 1.763814
620.60 1.764247
620.70 1.764679
620.80 1.765111
620.90 1.765552
621.00 1.766009
621.10 1.766466
621.20 1.766922
621.30 1.767378
621.40 1.767834
621.50 1.768289
621.60 1.768744
621.70 1.769198
621.80 1.769653
621.90 1.770106
622.00 1.77056
622.10 1.771013
622.20 1.771465
622.30 1.771917
622.40 1.772369
622.50 1.772821
622.60 1.773272
622.70 1.773722
622.80 1.774172
622.90 1.774622
623.00 1.775072
623.10 1.775521
623.20 1.77597
623.30 1.776418
623.40 1.776866
623.50 1.777314
623.60 1.777761
623.70 1.778208
623.80 1.778654
623.90 1.7791
624.00 1.779546
624.10 1.779992
624.20 1.780437
624.30 1.780881
624.40 1.781325
624.50 1.781769
624.60 1.782213
624.70 1.782656
624.80 1.783098
624.90 1.783541
625.00 1.783983
625.10 1.784424
625.20 1.784866
625.30 1.785306
625.40 1.785747
625.50 1.786187
625.60 1.786627
625.70 1.787066
625.80 1.787505
625.90 1.787944
626.00 1.788382
626.10 1.78882
626.20 1.789257
626.30 1.789695
626.40 1.790131
626.50 1.790568
626.60 1.791004
626.70 1.791439
626.80 1.791875
626.90 1.79231
627.00 1.792744
627.10 1.793185
627.20 1.793643
627.30 1.794101
627.40 1.794559
627.50 1.795016
627.60 1.795473
627.70 1.795929
627.80 1.796385
627.90 1.796841
628.00 1.797296
628.10 1.797751
628.20 1.798206
628.30 1.79866
628.40 1.799114
628.50 1.799567
628.60 1.80002
628.70 1.800473
628.80 1.800925
628.90 1.801377
629.00 1.801828
629.10 1.80228
629.20 1.80273
629.30 1.803181
629.40 1.803631
629.50 1.80408
629.60 1.80453
629.70 1.804978
629.80 1.805427
629.90 1.805875
630.00 1.806323
630.10 1.80677
630.20 1.807217
630.30 1.807632
630.40 1.808044
630.50 1.808456
630.60 1.808867
630.70 1.809278
630.80 1.809688
630.90 1.810099
631.00 1.810508
631.10 1.810918
631.20 1.811327
631.30 1.811736
631.40 1.812144
631.50 1.812552
631.60 1.81296
631.70 1.813367
631.80 1.813774
631.90 1.814181
632.00 1.814588
632.10 1.814993
632.20 1.815399
632.30 1.815804
632.40 1.816209
632.50 1.816614
632.60 1.817018
632.70 1.817422
632.80 1.817826
632.90 1.818229
633.00 1.818632
633.10 1.819034
633.20 1.819437
633.30 1.819838
633.40 1.820253
633.50 1.820679
633.60 1.821103
633.70 1.821528
633.80 1.821952
633.90 1.822376
634.00 1.822799
634.10 1.823222
634.20 1.823645
634.30 1.824068
634.40 1.82449
634.50 1.824911
634.60 1.825332
634.70 1.825753
634.80 1.826174
634.90 1.826594
635.00 1.827014
635.10 1.827434
635.20 1.827853
635.30 1.828272
635.40 1.82869
635.50 1.829108
635.60 1.829526
635.70 1.829943
635.80 1.83036
635.90 1.830777
636.00 1.831193
636.10 1.831609
636.20 1.832025
636.30 1.83244
636.40 1.832855
636.50 1.83327
636.60 1.833654
636.70 1.834035
636.80 1.834415
636.90 1.834795
637.00 1.835174
637.10 1.835554
637.20 1.835932
637.30 1.836311
637.40 1.836689
637.50 1.837067
637.60 1.837445
637.70 1.837822
637.80 1.838199
637.90 1.838576
638.00 1.838952
638.10 1.839328
638.20 1.839704
638.30 1.840079
638.40 1.840454
638.50 1.840829
638.60 1.841203
638.70 1.841577
638.80 1.841951
638.90 1.842324
639.00 1.842698
639.10 1.84307
639.20 1.843443
639.30 1.843815
639.40 1.844187
639.50 1.844558
639.60 1.844929
639.70 1.845305
639.80 1.845699
639.90 1.846092
640.00 1.846484
640.10 1.846877
640.20 1.847269
640.30 1.84766
640.40 1.848052
640.50 1.848443
640.60 1.848833
640.70 1.849224
640.80 1.849614
640.90 1.850003
641.00 1.850393
641.10 1.850782
641.20 1.85117
641.30 1.851559
641.40 1.851947
641.50 1.852334
641.60 1.852722
641.70 1.853109
641.80 1.853495
641.90 1.853882
642.00 1.854268
642.10 1.854653
642.20 1.855039
642.30 1.855424
642.40 1.855809
642.50 1.856193
642.60 1.856577
642.70 1.856961
642.80 1.857344
642.90 1.857727
643.00 1.85811
643.10 1.858493
643.20 1.858875
643.30 1.859257
643.40 1.859639
643.50 1.86002
643.60 1.860401
643.70 1.860782
643.80 1.861163
643.90 1.861543
644.00 1.861922
644.10 1.862302
644.20 1.862681
644.30 1.86306
644.40 1.863438
644.50 1.863816
644.60 1.864194
644.70 1.864572
644.80 1.864949
644.90 1.865326
645.00 1.865702
645.10 1.866078
645.20 1.866454
645.30 1.86683
645.40 1.867205
645.50 1.86758
645.60 1.867954
645.70 1.868329
645.80 1.868703
645.90 1.869076
646.00 1.869449
646.10 1.86982
646.20 1.870183
646.30 1.870546
646.40 1.870909
646.50 1.871271
646.60 1.871633
646.70 1.871995
646.80 1.872356
646.90 1.872717
647.00 1.873078
647.10 1.873438
647.20 1.873798
647.30 1.874158
647.40 1.874517
647.50 1.874877
647.60 1.875235
647.70 1.875594
647.80 1.875952
647.90 1.87631
648.00 1.876668
648.10 1.877025
648.20 1.877382
648.30 1.877739
648.40 1.878095
648.50 1.878451
648.60 1.878807
648.70 1.879162
648.80 1.879517
648.90 1.879872
649.00 1.880227
649.10 1.880581
649.20 1.880935
649.30 1.881289
649.40 1.881642
649.50 1.881994
649.60 1.882347
649.70 1.882699
649.80 1.88305
649.90 1.883402
650.00 1.883753
650.10 1.884104
650.20 1.884454
650.30 1.884805
650.40 1.885155
650.50 1.885504
650.60 1.885854
650.70 1.886203
650.80 1.886551
650.90 1.8869
651.00 1.887248
651.10 1.887596
651.20 1.887943
651.30 1.88829
651.40 1.888637
651.50 1.888984
651.60 1.88933
651.70 1.889676
651.80 1.890022
651.90 1.890367
652.00 1.890713
652.10 1.891057
652.20 1.891402
652.30 1.891746
652.40 1.89209
652.50 1.892434
652.60 1.892769
652.70 1.8931
652.80 1.89343
652.90 1.893761
653.00 1.894091
653.10 1.89442
653.20 1.89475
653.30 1.895079
653.40 1.895408
653.50 1.895736
653.60 1.896064
653.70 1.896392
653.80 1.89672
653.90 1.897047
654.00 1.897374
654.10 1.897701
654.20 1.898028
654.30 1.898354
654.40 1.89868
654.50 1.899005
654.60 1.899331
654.70 1.899656
654.80 1.89998
654.90 1.900305
655.00 1.900629
655.10 1.900953
655.20 1.901277
655.30 1.9016
655.40 1.901923
655.50 1.902246
655.60 1.902568
655.70 1.902891
655.80 1.903196
655.90 1.903502
656.00 1.903807
656.10 1.904112
656.20 1.904417
656.30 1.904722
656.40 1.905026
656.50 1.90533
656.60 1.905634
656.70 1.905937
656.80 1.90624
656.90 1.906543
657.00 1.906846
657.10 1.907148
657.20 1.90745
657.30 1.907752
657.40 1.908053
657.50 1.908355
657.60 1.908656
657.70 1.908956
657.80 1.909227
657.90 1.909576
658.00 1.909938
658.10 1.9103
658.20 1.910662
658.30 1.911023
658.40 1.911384
658.50 1.911745
658.60 1.912106
658.70 1.912466
658.80 1.912826
658.90 1.913185
659.00 1.913544
659.10 1.913806
659.20 1.913922
659.30 1.914302
659.40 1.914682
659.50 1.915062
659.60 1.915442
659.70 1.915821
659.80 1.9162
659.90 1.916579
660.00 1.916957
660.10 1.917335
660.20 1.917713
660.30 1.91809
660.40 1.918334
660.50 1.918553
660.60 1.918773
660.70 1.918992
660.80 1.919211
660.90 1.919503
661.00 1.919795
661.10 1.920086
661.20 1.920377
661.30 1.920668
661.40 1.920958
661.50 1.921248
661.60 1.921538
661.70 1.921828
661.80 1.922117
661.90 1.922475
662.00 1.922832
662.10 1.923189
662.20 1.923546
662.30 1.923903
662.40 1.924427
662.50 1.92457
662.60 1.924713
662.70 1.924855
662.80 1.924997
662.90 1.92538
663.00 1.925763
663.10 1.926145
663.20 1.926527
663.30 1.926909
663.40 1.92729
663.50 1.927671
663.60 1.928052
663.70 1.928365
663.80 1.928678
663.90 1.928673
664.00 1.928611
664.10 1.92899
664.20 1.929369
664.30 1.929748
664.40 1.930126
664.50 1.930505
664.60 1.930882
664.70 1.931125
664.80 1.931367
664.90 1.931609
665.00 1.93185
665.10 1.932091
665.20 1.932333
665.30 1.932573
665.40 1.932814
665.50 1.933235
665.60 1.933688
665.70 1.93443
665.80 1.934599
665.90 1.934768
666.00 1.934937
666.10 1.935106
666.20 1.935274
666.30 1.935442
666.40 1.93561
666.50 1.935952
666.60 1.936324
666.70 1.936696
666.80 1.937068
666.90 1.937439
667.00 1.93781
667.10 1.938246
667.20 1.938693
667.30 1.938997
667.40 1.9393
667.50 1.939256
667.60 1.93915
667.70 1.939709
667.80 1.940256
667.90 1.940328
668.00 1.940696
668.10 1.940921
668.20 1.941289
668.30 1.941656
668.40 1.942023
668.50 1.942389
668.60 1.942756
668.70 1.942317
668.80 1.942655
668.90 1.942993
669.00 1.943331
669.10 1.943668
669.20 1.944006
669.30 1.944286
669.40 1.944555
669.50 1.944825
669.60 1.945094
669.70 1.945363
669.80 1.945631
669.90 1.9459
670.00 1.946168
670.10 1.946436
670.20 1.946704
670.30 1.947076
670.40 1.947467
670.50 1.947857
670.60 1.948247
670.70 1.948636
670.80 1.948899
670.90 1.949162
671.00 1.949425
671.10 1.949687
671.20 1.949949
671.30 1.950211
671.40 1.950473
671.50 1.950734
671.60 1.950995
671.70 1.951256
671.80 1.951517
671.90 1.95171
672.00 1.951892
672.10 1.952073
672.20 1.952254
672.30 1.952435
672.40 1.952688
672.50 1.952947
672.60 1.953204
672.70 1.953462
672.80 1.953719
672.90 1.953977
673.00 1.954234
673.10 1.95449
673.20 1.954747
673.30 1.954978
673.40 1.955274
673.50 1.95558
673.60 1.955886
673.70 1.956192
673.80 1.956497
673.90 1.956803
674.00 1.957108
674.10 1.957412
674.20 1.957717
674.30 1.958021
674.40 1.958325
674.50 1.958628
674.60 1.958932
674.70 1.959235
674.80 1.959538
674.90 1.95984
675.00 1.960142
675.10 1.960444
675.20 1.960746
675.30 1.961048
675.40 1.961294
675.50 1.96153
675.60 1.961766
675.70 1.962001
675.80 1.962236
675.90 1.962472
676.00 1.962706
676.10 1.962941
676.20 1.963176
676.30 1.96341
676.40 1.963644
676.50 1.963878
676.60 1.964111
676.70 1.964344
676.80 1.964578
676.90 1.96481
677.00 1.965043
677.10 1.965276
677.20 1.965508
677.30 1.96574
677.40 1.965971
677.50 1.966203
677.60 1.966434
677.70 1.966665
677.80 1.966896
677.90 1.967147
678.00 1.967401
678.10 1.967654
678.20 1.967907
678.30 1.968161
678.40 1.968413
678.50 1.968666
678.60 1.968918
678.70 1.96917
678.80 1.969422
678.90 1.969674
679.00 1.969925
679.10 1.970172
679.20 1.970417
679.30 1.970661
679.40 1.970905
679.50 1.971149
679.60 1.971393
679.70 1.971636
679.80 1.971879
679.90 1.972122
680.00 1.972365
680.10 1.972608
680.20 1.97285
680.30 1.973092
680.40 1.973334
680.50 1.973575
680.60 1.973817
680.70 1.974058
680.80 1.974299
680.90 1.97454
681.00 1.97478
681.10 1.97502
681.20 1.97526
681.30 1.9755
681.40 1.97574
681.50 1.975979
681.60 1.976218
681.70 1.976457
681.80 1.976696
681.90 1.976934
682.00 1.977172
682.10 1.97741
682.20 1.977648
682.30 1.977886
682.40 1.978123
682.50 1.97836
682.60 1.978597
682.70 1.978833
682.80 1.97907
682.90 1.979306
683.00 1.979542
683.10 1.979778
683.20 1.980013
683.30 1.980249
683.40 1.980484
683.50 1.980719
683.60 1.980953
683.70 1.981188
683.80 1.981422
683.90 1.981656
684.00 1.98189
684.10 1.982123
684.20 1.982356
684.30 1.982589
684.40 1.982822
684.50 1.983055
684.60 1.983287
684.70 1.98352
684.80 1.983752
684.90 1.983983
685.00 1.984215
685.10 1.984446
685.20 1.984677
685.30 1.984908
685.40 1.985139
685.50 1.985369
685.60 1.9856
685.70 1.98583
685.80 1.986059
685.90 1.986282
686.00 1.986504
686.10 1.986725
686.20 1.986945
686.30 1.987166
686.40 1.987386
686.50 1.987607
686.60 1.987826
686.70 1.988046
686.80 1.988266
686.90 1.988485
687.00 1.988704
687.10 1.988923
687.20 1.989142
687.30 1.98936
687.40 1.989578
687.50 1.989796
687.60 1.990014
687.70 1.990232
687.80 1.990449
687.90 1.990667
688.00 1.990883
688.10 1.9911
688.20 1.991317
688.30 1.991533
688.40 1.991749
688.50 1.991965
688.60 1.992181
688.70 1.992397
688.80 1.992612
688.90 1.992827
689.00 1.993042
689.10 1.993256
689.20 1.993471
689.30 1.993685
689.40 1.993899
689.50 1.994113
689.60 1.994327
689.70 1.99454
689.80 1.994753
689.90 1.994966
690.00 1.995179
690.10 1.995392
690.20 1.995604
690.30 1.995816
690.40 1.996028
690.50 1.99624
690.60 1.996452
690.70 1.996663
690.80 1.996874
690.90 1.997085
691.00 1.997296
691.10 1.997507
691.20 1.997717
691.30 1.997927
691.40 1.998137
691.50 1.998347
691.60 1.998556
691.70 1.998766
691.80 1.998975
691.90 1.999184
692.00 1.999392
692.10 1.999601
692.20 1.999809
692.30 2.000017
692.40 2.000225
692.50 2.000433
692.60 2.00064
692.70 2.000847
692.80 2.00105
692.90 2.001254
693.00 2.001457
693.10 2.00166
693.20 2.001863
693.30 2.002065
693.40 2.002268
693.50 2.00247
693.60 2.002672
693.70 2.002874
693.80 2.003075
693.90 2.003277
694.00 2.003478
694.10 2.003679
694.20 2.00388
694.30 2.00408
694.40 2.004281
694.50 2.004481
694.60 2.004681
694.70 2.004881
694.80 2.00508
694.90 2.00528
695.00 2.005479
695.10 2.005678
695.20 2.005877
695.30 2.006076
695.40 2.006274
695.50 2.006472
695.60 2.00667
695.70 2.006868
695.80 2.007066
695.90 2.007263
696.00 2.00746
696.10 2.007657
696.20 2.007854
696.30 2.008051
696.40 2.008247
696.50 2.008444
696.60 2.008636
696.70 2.008827
696.80 2.009018
696.90 2.009209
697.00 2.009399
697.10 2.00959
697.20 2.00978
697.30 2.00997
697.40 2.01016
697.50 2.010349
697.60 2.010539
697.70 2.010728
697.80 2.010917
697.90 2.011106
698.00 2.011295
698.10 2.011483
698.20 2.011671
698.30 2.01186
698.40 2.012047
698.50 2.012235
698.60 2.012423
698.70 2.01261
698.80 2.012797
698.90 2.012984
699.00 2.013171
699.10 2.013339
699.20 2.013502
699.30 2.013665
699.40 2.013828
699.50 2.01399
699.60 2.014153
699.70 2.014312
699.80 2.01447
699.90 2.014628
700.00 2.014786
700.10 2.014943
700.20 2.015101
700.30 2.015258
700.40 2.015415
700.50 2.015572
700.60 2.015729
700.70 2.015886
700.80 2.016042
700.90 2.016199
701.00 2.016355
701.10 2.016523
701.20 2.016695
701.30 2.016866
701.40 2.017037
701.50 2.017207
701.60 2.017378
701.70 2.017548
701.80 2.017719
701.90 2.017889
702.00 2.018059
702.10 2.018228
702.20 2.018398
702.30 2.018567
702.40 2.018736
702.50 2.018905
702.60 2.01908
702.70 2.019256
702.80 2.019431
702.90 2.019607
703.00 2.019782
703.10 2.019957
703.20 2.020132
703.30 2.020306
703.40 2.020481
703.50 2.020655
703.60 2.020829
703.70 2.021003
703.80 2.021177
703.90 2.021351
704.00 2.021524
704.10 2.021697
704.20 2.021888
704.30 2.022082
704.40 2.022276
704.50 2.02247
704.60 2.022663
704.70 2.022857
704.80 2.02305
704.90 2.023243
705.00 2.023436
705.10 2.023629
705.20 2.023775
705.30 2.023911
705.40 2.024046
705.50 2.024181
705.60 2.024316
705.70 2.024451
705.80 2.024529
705.90 2.024592
706.00 2.024656
706.10 2.02472
706.20 2.024955
706.30 2.025231
706.40 2.025667
706.50 2.025316
706.60 2.02539
706.70 2.025643
706.80 2.025757
706.90 2.026031
707.00 2.026134
707.10 2.026196
707.20 2.026258
707.30 2.02632
707.40 2.026553
707.50 2.026826
707.60 2.027099
707.70 2.027372
707.80 2.027644
707.90 2.027917
708.00 2.028052
708.10 2.028155
708.20 2.028257
708.30 2.02836
708.40 2.028462
708.50 2.028565
708.60 2.028667
708.70 2.028769
708.80 2.028871
708.90 2.028972
709.00 2.029125
709.10 2.02929
709.20 2.029454
709.30 2.029619
709.40 2.029783
709.50 2.029947
709.60 2.03011
709.70 2.030274
709.80 2.030438
709.90 2.030601
710.00 2.030764
710.10 2.030927
710.20 2.031089
710.30 2.031252
710.40 2.031414
710.50 2.031577
710.60 2.031733
710.70 2.031888
710.80 2.032043
710.90 2.032197
711.00 2.032352
711.10 2.032506
711.20 2.03266
711.30 2.032814
711.40 2.032967
711.50 2.033121
711.60 2.033274
711.70 2.033428
711.80 2.033581
711.90 2.033733
712.00 2.033886
712.10 2.034027
712.20 2.034165
712.30 2.034303
712.40 2.034441
712.50 2.034578
712.60 2.034716
712.70 2.034853
712.80 2.03499
712.90 2.035127
713.00 2.035264
713.10 2.035401
713.20 2.035537
713.30 2.035674
713.40 2.03581
713.50 2.035946
713.60 2.036082
713.70 2.036218
713.80 2.036356
713.90 2.036494
714.00 2.036631
714.10 2.03676
714.20 2.036887
714.30 2.037014
714.40 2.037141
714.50 2.037268
714.60 2.037394
714.70 2.03752
714.80 2.037646
714.90 2.037772
715.00 2.037898
715.10 2.038024
715.20 2.03815
715.30 2.038275
715.40 2.0384
715.50 2.038525
715.60 2.03865
715.70 2.038775
715.80 2.0389
715.90 2.039024
716.00 2.039148
716.10 2.039273
716.20 2.039397
716.30 2.039521
716.40 2.039644
716.50 2.039768
716.60 2.039868
716.70 2.039962
716.80 2.040055
716.90 2.040149
717.00 2.040243
717.10 2.040336
717.20 2.04043
717.30 2.040523
717.40 2.040616
717.50 2.040709
717.60 2.040802
717.70 2.040894
717.80 2.040987
717.90 2.041079
718.00 2.041172
718.10 2.041264
718.20 2.041375
718.30 2.041496
718.40 2.041617
718.50 2.041738
718.60 2.041858
718.70 2.041979
718.80 2.042099
718.90 2.042219
719.00 2.042339
719.10 2.042459
719.20 2.042579
719.30 2.042698
719.40 2.042818
719.50 2.042937
719.60 2.043056
719.70 2.043175
719.80 2.043294
719.90 2.043413
720.00 2.043532
720.10 2.04365
720.20 2.043768
720.30 2.043887
720.40 2.044005
720.50 2.044122
720.60 2.04424
720.70 2.04454
720.80 2.044937
720.90 2.045049
721.00 2.045149
721.10 2.045249
721.20 2.045349
721.30 2.045449
721.40 2.045548
721.50 2.045648
721.60 2.045747
721.70 2.045846
721.80 2.045945
721.90 2.046044
722.00 2.046143
722.10 2.046242
722.20 2.04634
722.30 2.046438
722.40 2.046537
722.50 2.046635
722.60 2.046733
722.70 2.04682
722.80 2.046903
722.90 2.046985
723.00 2.047066
723.10 2.047148
723.20 2.04723
723.30 2.047311
723.40 2.047393
723.50 2.047474
723.60 2.047555
723.70 2.047636
723.80 2.047717
723.90 2.047798
724.00 2.047878
724.10 2.047959
724.20 2.048079
724.30 2.04822
724.40 2.04836
724.50 2.048501
724.60 2.048641
724.70 2.048781
724.80 2.048921
724.90 2.049061
725.00 2.049201
725.10 2.04934
725.20 2.04948
725.30 2.049619
725.40 2.049758
725.50 2.049897
725.60 2.050036
725.70 2.050174
725.80 2.050274
725.90 2.050352
726.00 2.05043
726.10 2.050508
726.20 2.050585
726.30 2.050663
726.40 2.05074
726.50 2.050818
726.60 2.050895
726.70 2.050972
726.80 2.051066
726.90 2.05117
727.00 2.051273
727.10 2.051377
727.20 2.05148
727.30 2.051583
727.40 2.051642
727.50 2.051678
727.60 2.051714
727.70 2.05175
727.80 2.051916
727.90 2.052152
728.00 2.051867
728.10 2.052153
728.20 2.052338
728.30 2.052572
728.40 2.052528
728.50 2.052762
728.60 2.052867
728.70 2.052902
728.80 2.052936
728.90 2.052971
729.00 2.053048
729.10 2.053149
729.20 2.05325
729.30 2.05335
729.40 2.05345
729.50 2.05355
729.60 2.053633
729.70 2.053707
729.80 2.05378
729.90 2.053853
730.00 2.053926
730.10 2.053999
730.20 2.054072
730.30 2.054145
730.40 2.054217
730.50 2.05429
730.60 2.054368
730.70 2.054451
730.80 2.054533
730.90 2.054615
731.00 2.054696
731.10 2.054778
731.20 2.05486
731.30 2.054941
731.40 2.055022
731.50 2.055103
731.60 2.055184
731.70 2.055265
731.80 2.055346
731.90 2.055427
732.00 2.055507
732.10 2.055588
732.20 2.055662
732.30 2.055732
732.40 2.055802
732.50 2.055872
732.60 2.055942
732.70 2.056012
732.80 2.056082
732.90 2.056152
733.00 2.056221
733.10 2.056291
733.20 2.05636
733.30 2.056429
733.40 2.056498
733.50 2.056567
733.60 2.056636
733.70 2.056728
733.80 2.056832
733.90 2.056936
734.00 2.057039
734.10 2.057143
734.20 2.057246
734.30 2.057349
734.40 2.057453
734.50 2.057556
734.60 2.057658
734.70 2.057761
734.80 2.057864
734.90 2.057966
735.00 2.058069
735.10 2.058171
735.20 2.058273
735.30 2.058358
735.40 2.058255
735.50 2.058152
735.60 2.058049
735.70 2.058056
735.80 2.058122
735.90 2.058188
736.00 2.058255
736.10 2.058321
736.20 2.058386
736.30 2.058452
736.40 2.058518
736.50 2.058584
736.60 2.058649
736.70 2.058714
736.80 2.05878
736.90 2.058845
737.00 2.05891
737.10 2.058975
737.20 2.059039
737.30 2.059104
737.40 2.059169
737.50 2.059233
737.60 2.059298
737.70 2.059362
737.80 2.059426
737.90 2.05949
738.00 2.059554
738.10 2.059618
738.20 2.059681
738.30 2.059743
738.40 2.059805
738.50 2.059867
738.60 2.059929
738.70 2.05999
738.80 2.060052
738.90 2.060114
739.00 2.060175
739.10 2.060236
739.20 2.060298
739.30 2.060359
739.40 2.06042
739.50 2.060481
739.60 2.060542
739.70 2.060602
739.80 2.060663
739.90 2.060723
740.00 2.060784
740.10 2.060844
740.20 2.060904
740.30 2.060964
740.40 2.061024
740.50 2.061084
740.60 2.061144
740.70 2.061203
740.80 2.061263
740.90 2.061322
741.00 2.061381
741.10 2.06144
741.20 2.0615
741.30 2.061559
741.40 2.061617
741.50 2.061676
741.60 2.061735
741.70 2.061793
741.80 2.061852
741.90 2.06191
742.00 2.061968
742.10 2.062026
742.20 2.062084
742.30 2.062142
742.40 2.0622
742.50 2.062258
742.60 2.062315
742.70 2.062362
742.80 2.0624
742.90 2.062438
743.00 2.062476
743.10 2.062514
743.20 2.062551
743.30 2.062589
743.40 2.062626
743.50 2.062663
743.60 2.062701
743.70 2.062739
743.80 2.062783
743.90 2.062827
744.00 2.062871
744.10 2.062915
744.20 2.062959
744.30 2.063002
744.40 2.063046
744.50 2.063089
744.60 2.063133
744.70 2.063176
744.80 2.063219
744.90 2.063262
745.00 2.063305
745.10 2.063348
745.20 2.063391
745.30 2.063433
745.40 2.063476
745.50 2.063518
745.60 2.063561
745.70 2.063603
745.80 2.063645
745.90 2.063687
746.00 2.063729
746.10 2.063771
746.20 2.063813
746.30 2.063855
746.40 2.063896
746.50 2.063938
746.60 2.063979
746.70 2.06402
746.80 2.064062
746.90 2.064103
747.00 2.064144
747.10 2.064185
747.20 2.064226
747.30 2.064266
747.40 2.064307
747.50 2.064347
747.60 2.064388
747.70 2.064428
747.80 2.064469
747.90 2.064509
748.00 2.064549
748.10 2.064589
748.20 2.064629
748.30 2.064668
748.40 2.064708
748.50 2.064748
748.60 2.064787
748.70 2.064827
748.80 2.064866
748.90 2.064905
749.00 2.064944
749.10 2.064983
749.20 2.065022
749.30 2.065061
749.40 2.0651
749.50 2.065138
749.60 2.065177
749.70 2.065215
749.80 2.065254
749.90 2.065292
750.00 2.06533
750.10 2.065366
750.20 2.065398
750.30 2.065429
750.40 2.06546
750.50 2.065491
750.60 2.065522
750.70 2.065553
750.80 2.065583
750.90 2.065614
751.00 2.065645
751.10 2.065675
751.20 2.065706
751.30 2.065736
751.40 2.065766
751.50 2.065796
751.60 2.065826
751.70 2.065856
751.80 2.065886
751.90 2.065916
752.00 2.065946
752.10 2.065975
752.20 2.066005
752.30 2.066034
752.40 2.066063
752.50 2.066093
752.60 2.066122
752.70 2.066151
752.80 2.06618
752.90 2.066209
753.00 2.066238
753.10 2.066266
753.20 2.066295
753.30 2.066323
753.40 2.066352
753.50 2.06638
753.60 2.066408
753.70 2.066437
753.80 2.066465
753.90 2.066493
754.00 2.066521
754.10 2.066549
754.20 2.066576
754.30 2.066604
754.40 2.066631
754.50 2.066659
754.60 2.066686
754.70 2.066714
754.80 2.066741
754.90 2.066768
755.00 2.066795
755.10 2.066822
755.20 2.066849
755.30 2.066876
755.40 2.066902
755.50 2.066929
755.60 2.066956
755.70 2.066982
755.80 2.067008
755.90 2.067035
756.00 2.067061
756.10 2.067087
756.20 2.067113
756.30 2.067139
756.40 2.067165
756.50 2.06719
756.60 2.067216
756.70 2.067242
756.80 2.067267
756.90 2.067293
757.00 2.067318
757.10 2.067343
757.20 2.067368
757.30 2.067393
757.40 2.067418
757.50 2.067443
757.60 2.067466
757.70 2.067485
757.80 2.067504
757.90 2.067523
758.00 2.067542
758.10 2.067561
758.20 2.067579
758.30 2.067598
758.40 2.067616
758.50 2.067635
758.60 2.067653
758.70 2.067671
758.80 2.067689
758.90 2.067707
759.00 2.067725
759.10 2.067743
759.20 2.067761
759.30 2.067778
759.40 2.067796
759.50 2.067814
759.60 2.067831
759.70 2.067848
759.80 2.067866
759.90 2.067883
760.00 2.0679
760.10 2.067917
760.20 2.067934
760.30 2.067951
760.40 2.067968
760.50 2.067984
760.60 2.068001
760.70 2.068018
760.80 2.068034
760.90 2.068051
761.00 2.068067
761.10 2.068083
761.20 2.068099
761.30 2.068115
761.40 2.068124
761.50 2.06812
761.60 2.068117
761.70 2.068114
761.80 2.06811
761.90 2.068106
762.00 2.068103
762.10 2.068099
762.20 2.068095
762.30 2.068091
762.40 2.068087
762.50 2.068083
762.60 2.068079
762.70 2.068075
762.80 2.068071
762.90 2.068066
763.00 2.068062
763.10 2.068057
763.20 2.068053
763.30 2.068048
763.40 2.068044
763.50 2.068039
763.60 2.068034
763.70 2.068029
763.80 2.068024
763.90 2.068019
764.00 2.068014
764.10 2.068009
764.20 2.068004
764.30 2.067999
764.40 2.067993
764.50 2.067988
764.60 2.067983
764.70 2.067977
764.80 2.067971
764.90 2.067966
765.00 2.06796
765.10 2.067954
765.20 2.067945
765.30 2.067934
765.40 2.067923
765.50 2.067911
765.60 2.0679
765.70 2.067889
765.80 2.067877
765.90 2.067865
766.00 2.067854
766.10 2.067842
766.20 2.06783
766.30 2.067818
766.40 2.067806
766.50 2.067794
766.60 2.067782
766.70 2.06777
766.80 2.067758
766.90 2.067745
767.00 2.067733
767.10 2.067721
767.20 2.067708
767.30 2.067696
767.40 2.067683
767.50 2.06767
767.60 2.067658
767.70 2.067645
767.80 2.067632
767.90 2.067619
768.00 2.067606
768.10 2.067593
768.20 2.06758
768.30 2.067567
768.40 2.067553
768.50 2.06754
768.60 2.067527
768.70 2.067513
768.80 2.0675
768.90 2.067486
769.00 2.067473
769.10 2.067459
769.20 2.067445
769.30 2.067431
769.40 2.067418
769.50 2.067404
769.60 2.06739
769.70 2.067376
769.80 2.067361
769.90 2.067347
770.00 2.067333
770.10 2.067319
770.20 2.067304
770.30 2.06729
770.40 2.067275
770.50 2.067261
770.60 2.067246
770.70 2.067232
770.80 2.067217
770.90 2.067202
771.00 2.067187
771.10 2.067172
771.20 2.067157
771.30 2.067142
771.40 2.067127
771.50 2.067112
771.60 2.067097
771.70 2.067081
771.80 2.067066
771.90 2.067051
772.00 2.067035
772.10 2.06702
772.20 2.067004
772.30 2.066988
772.40 2.066973
772.50 2.066957
772.60 2.066941
772.70 2.066925
772.80 2.066909
772.90 2.066879
773.00 2.066848
773.10 2.066818
773.20 2.066788
773.30 2.066757
773.40 2.066726
773.50 2.066696
773.60 2.066665
773.70 2.066634
773.80 2.066604
773.90 2.066573
774.00 2.066542
774.10 2.066511
774.20 2.06648
774.30 2.066449
774.40 2.066418
774.50 2.066387
774.60 2.066355
774.70 2.066324
774.80 2.066293
774.90 2.066262
775.00 2.06623
775.10 2.066199
775.20 2.066167
775.30 2.066136
775.40 2.066104
775.50 2.066072
775.60 2.06604
775.70 2.066009
775.80 2.065977
775.90 2.065945
776.00 2.065913
776.10 2.065881
776.20 2.065849
776.30 2.065817
776.40 2.065785
776.50 2.065753
776.60 2.06572
776.70 2.065688
776.80 2.065656
776.90 2.065623
777.00 2.065591
777.10 2.065558
777.20 2.065526
777.30 2.065493
777.40 2.06546
777.50 2.065428
777.60 2.065395
777.70 2.065362
777.80 2.065329
777.90 2.065296
778.00 2.065263
778.10 2.06523
778.20 2.065197
778.30 2.065164
778.40 2.065131
778.50 2.065098
778.60 2.065064
778.70 2.065031
778.80 2.064998
778.90 2.064964
779.00 2.064931
779.10 2.064897
779.20 2.064864
779.30 2.06483
779.40 2.064796
779.50 2.064762
779.60 2.064729
779.70 2.064695
779.80 2.064661
779.90 2.064627
780.00 2.064593
780.10 2.064559
780.20 2.064525
780.30 2.064491
780.40 2.064457
780.50 2.064422
780.60 2.064378
780.70 2.064331
780.80 2.064283
780.90 2.064236
781.00 2.064188
781.10 2.06414
781.20 2.064093
781.30 2.064045
781.40 2.063997
781.50 2.063949
781.60 2.063901
781.70 2.063853
781.80 2.063805
781.90 2.063757
782.00 2.063709
782.10 2.063661
782.20 2.063613
782.30 2.063565
782.40 2.063516
782.50 2.063468
782.60 2.06342
782.70 2.063371
782.80 2.063323
782.90 2.063275
783.00 2.063226
783.10 2.063177
783.20 2.063129
783.30 2.06308
783.40 2.063032
783.50 2.062983
783.60 2.062934
783.70 2.062885
783.80 2.062836
783.90 2.062787
784.00 2.062739
784.10 2.06269
784.20 2.062641
784.30 2.062591
784.40 2.062542
784.50 2.062493
784.60 2.062444
784.70 2.062393
784.80 2.062343
784.90 2.062292
785.00 2.062242
785.10 2.062191
785.20 2.06214
785.30 2.06209
785.40 2.062039
785.50 2.061988
785.60 2.061937
785.70 2.061886
785.80 2.061835
785.90 2.061784
786.00 2.061733
786.10 2.061682
786.20 2.061631
786.30 2.06158
786.40 2.061529
786.50 2.061478
786.60 2.061427
786.70 2.061375
786.80 2.061324
786.90 2.061273
787.00 2.061221
787.10 2.06117
787.20 2.061118
787.30 2.061067
787.40 2.061015
787.50 2.060964
787.60 2.060912
787.70 2.06086
787.80 2.060809
787.90 2.060757
788.00 2.060705
788.10 2.060653
788.20 2.060601
788.30 2.060549
788.40 2.060495
788.50 2.060439
788.60 2.060382
788.70 2.060326
788.80 2.06027
788.90 2.060214
789.00 2.060158
789.10 2.060101
789.20 2.060045
789.30 2.059988
789.40 2.059932
789.50 2.059876
789.60 2.059819
789.70 2.059763
789.80 2.059706
789.90 2.059649
790.00 2.059593
790.10 2.059536
790.20 2.059479
790.30 2.059422
790.40 2.059366
790.50 2.059309
790.60 2.059252
790.70 2.059195
790.80 2.059138
790.90 2.059081
791.00 2.059024
791.10 2.058967
791.20 2.05891
791.30 2.058853
791.40 2.058796
791.50 2.058738
791.60 2.058681
791.70 2.058624
791.80 2.058567
791.90 2.058509
792.00 2.058452
792.10 2.058394
792.20 2.058337
792.30 2.058279
792.40 2.058222
792.50 2.058164
792.60 2.058107
792.70 2.058049
792.80 2.057992
792.90 2.057934
793.00 2.057877
793.10 2.057819
793.20 2.057761
793.30 2.057703
793.40 2.057646
793.50 2.057588
793.60 2.05753
793.70 2.057472
793.80 2.057414
793.90 2.057356
794.00 2.057298
794.10 2.05724
794.20 2.057182
794.30 2.057124
794.40 2.057066
794.50 2.057008
794.60 2.056949
794.70 2.056891
794.80 2.056833
794.90 2.056774
795.00 2.056716
795.10 2.056658
795.20 2.056599
795.30 2.056541
795.40 2.056482
795.50 2.056424
795.60 2.056365
795.70 2.056307
795.80 2.056248
795.90 2.056189
796.00 2.056131
796.10 2.056072
796.20 2.056013
796.30 2.055936
796.40 2.055856
796.50 2.055776
796.60 2.055695
796.70 2.055615
796.80 2.055535
796.90 2.055454
797.00 2.055374
797.10 2.055294
797.20 2.055213
797.30 2.055133
797.40 2.055052
797.50 2.054972
797.60 2.054891
797.70 2.054811
797.80 2.05473
797.90 2.05465
798.00 2.054569
798.10 2.054488
798.20 2.054408
798.30 2.054327
798.40 2.054246
798.50 2.054166
798.60 2.054085
798.70 2.054004
798.80 2.053923
798.90 2.053842
799.00 2.053762
799.10 2.053681
799.20 2.0536
799.30 2.053519
799.40 2.053438
799.50 2.053357
799.60 2.053276
799.70 2.053195
799.80 2.053114
799.90 2.053033
800.00 2.052952
800.10 2.052871
800.20 2.052789
800.30 2.052708
800.40 2.052627
800.50 2.052546
800.60 2.052465
800.70 2.052383
800.80 2.052302
800.90 2.052221
801.00 2.052139
801.10 2.052058
801.20 2.051977
801.30 2.051895
801.40 2.051814
801.50 2.051732
801.60 2.051651
801.70 2.05157
801.80 2.051488
801.90 2.051406
802.00 2.051325
802.10 2.051243
802.20 2.051162
802.30 2.05108
802.40 2.050998
802.50 2.050917
802.60 2.050835
802.70 2.050753
802.80 2.050672
802.90 2.05059
803.00 2.050508
803.10 2.050426
803.20 2.050344
803.30 2.050263
803.40 2.050181
803.50 2.050099
803.60 2.050017
803.70 2.049935
803.80 2.049853
803.90 2.049771
804.00 2.049689
804.10 2.049607
804.20 2.049524
804.30 2.049438
804.40 2.049351
804.50 2.049265
804.60 2.049178
804.70 2.049092
804.80 2.049006
804.90 2.048919
805.00 2.048833
805.10 2.048746
805.20 2.04866
805.30 2.048573
805.40 2.048486
805.50 2.0484
805.60 2.048313
805.70 2.048227
805.80 2.04814
805.90 2.048053
806.00 2.047967
806.10 2.04788
806.20 2.047793
806.30 2.047707
806.40 2.04762
806.50 2.047533
806.60 2.047446
806.70 2.047359
806.80 2.047273
806.90 2.047186
807.00 2.047099
807.10 2.047012
807.20 2.046925
807.30 2.046838
807.40 2.046751
807.50 2.046664
807.60 2.046577
807.70 2.04649
807.80 2.046403
807.90 2.046316
808.00 2.046229
808.10 2.046142
808.20 2.046055
808.30 2.045968
808.40 2.04588
808.50 2.045793
808.60 2.045706
808.70 2.045619
808.80 2.045532
808.90 2.045444
809.00 2.045357
809.10 2.04527
809.20 2.045182
809.30 2.045095
809.40 2.045008
809.50 2.04492
809.60 2.044833
809.70 2.044746
809.80 2.044658
809.90 2.044571
810.00 2.044483
810.10 2.044396
810.20 2.044308
810.30 2.044221
810.40 2.044133
810.50 2.044046
810.60 2.043958
810.70 2.04387
810.80 2.043783
810.90 2.043695
811.00 2.043608
811.10 2.04352
811.20 2.043432
811.30 2.043344
811.40 2.043257
811.50 2.043169
811.60 2.043081
811.70 2.042993
811.80 2.042906
811.90 2.042818
812.00 2.04273
812.10 2.042642
812.20 2.042554
812.30 2.042449
812.40 2.042339
812.50 2.042229
812.60 2.04212
812.70 2.04201
812.80 2.0419
812.90 2.04179
813.00 2.04168
813.10 2.04157
813.20 2.041461
813.30 2.041351
813.40 2.041241
813.50 2.041131
813.60 2.041021
813.70 2.040911
813.80 2.040801
813.90 2.040692
814.00 2.040582
814.10 2.040472
814.20 2.040362
814.30 2.040252
814.40 2.040142
814.50 2.040032
814.60 2.039922
814.70 2.039812
814.80 2.039702
814.90 2.039592
815.00 2.039482
815.10 2.039372
815.20 2.039262
815.30 2.039152
815.40 2.039042
815.50 2.038932
815.60 2.038822
815.70 2.038712
815.80 2.038602
815.90 2.038492
816.00 2.038382
816.10 2.038272
816.20 2.038162
816.30 2.038052
816.40 2.037942
816.50 2.037832
816.60 2.037722
816.70 2.037612
816.80 2.037502
816.90 2.037391
817.00 2.037281
817.10 2.037171
817.20 2.037061
817.30 2.036951
817.40 2.036841
817.50 2.036731
817.60 2.03662
817.70 2.03651
817.80 2.0364
817.90 2.03629
818.00 2.03618
818.10 2.03607
818.20 2.035959
818.30 2.035849
818.40 2.035739
818.50 2.035629
818.60 2.035518
818.70 2.035408
818.80 2.035298
818.90 2.035188
819.00 2.035077
819.10 2.034967
819.20 2.034857
819.30 2.034782
819.40 2.03473
819.50 2.034678
819.60 2.034626
819.70 2.034574
819.80 2.034522
819.90 2.034469
820.00 2.034417
820.10 2.034325
820.20 2.034072
820.30 2.033848
820.40 2.03369
820.50 2.033578
820.60 2.033466
820.70 2.033354
820.80 2.033243
820.90 2.033131
821.00 2.033019
821.10 2.032907
821.20 2.032795
821.30 2.032684
821.40 2.032572
821.50 2.03246
821.60 2.032348
821.70 2.032236
821.80 2.032124
821.90 2.032013
822.00 2.031901
822.10 2.031789
822.20 2.031677
822.30 2.031565
822.40 2.031453
822.50 2.031341
822.60 2.03123
822.70 2.031118
822.80 2.031006
822.90 2.030894
823.00 2.030782
823.10 2.03067
823.20 2.030558
823.30 2.030446
823.40 2.030334
823.50 2.030222
823.60 2.030111
823.70 2.029999
823.80 2.029887
823.90 2.029775
824.00 2.029663
824.10 2.029551
824.20 2.029439
824.30 2.029327
824.40 2.029215
824.50 2.029103
824.60 2.028991
824.70 2.028879
824.80 2.028767
824.90 2.028655
825.00 2.028543
825.10 2.028431
825.20 2.028319
825.30 2.028207
825.40 2.028095
825.50 2.027983
825.60 2.027871
825.70 2.027759
825.80 2.027647
825.90 2.027535
826.00 2.027423
826.10 2.027311
826.20 2.027198
826.30 2.027085
826.40 2.026971
826.50 2.026857
826.60 2.026743
826.70 2.026629
826.80 2.026515
826.90 2.0264
827.00 2.026286
827.10 2.026172
827.20 2.026058
827.30 2.025944
827.40 2.02583
827.50 2.025716
827.60 2.025601
827.70 2.025487
827.80 2.025373
827.90 2.025259
828.00 2.025145
828.10 2.025031
828.20 2.024916
828.30 2.024802
828.40 2.024688
828.50 2.024574
828.60 2.02445
828.70 2.024319
828.80 2.024188
828.90 2.024057
829.00 2.023925
829.10 2.023794
829.20 2.023663
829.30 2.023531
829.40 2.0234
829.50 2.023269
829.60 2.023138
829.70 2.023006
829.80 2.022875
829.90 2.022744
830.00 2.022613
830.10 2.022481
830.20 2.02235
830.30 2.022219
830.40 2.022088
830.50 2.021956
830.60 2.021825
830.70 2.021694
830.80 2.021563
830.90 2.021432
831.00 2.0213
831.10 2.021169
831.20 2.021038
831.30 2.020907
831.40 2.020776
831.50 2.020644
831.60 2.020513
831.70 2.020382
831.80 2.020251
831.90 2.02012
832.00 2.019989
832.10 2.019857
832.20 2.019726
832.30 2.019595
832.40 2.019464
832.50 2.019333
832.60 2.019202
832.70 2.019071
832.80 2.01894
832.90 2.018808
833.00 2.018677
833.10 2.018546
833.20 2.018415
833.30 2.018284
833.40 2.018153
833.50 2.018022
833.60 2.017891
833.70 2.01776
833.80 2.017629
833.90 2.017498
834.00 2.017366
834.10 2.017235
834.20 2.017104
834.30 2.016973
834.40 2.016842
834.50 2.016711
834.60 2.01658
834.70 2.016449
834.80 2.016318
834.90 2.016187
835.00 2.016056
835.10 2.015925
835.20 2.015794
835.30 2.015663
835.40 2.015532
835.50 2.015401
835.60 2.01527
835.70 2.015139
835.80 2.015008
835.90 2.014877
836.00 2.014746
836.10 2.014615
836.20 2.014484
836.30 2.014353
836.40 2.014223
836.50 2.014092
836.60 2.013961
836.70 2.01383
836.80 2.013699
836.90 2.013556
837.00 2.013407
837.10 2.013258
837.20 2.013109
837.30 2.01296
837.40 2.012812
837.50 2.012663
837.60 2.012514
837.70 2.012365
837.80 2.012217
837.90 2.012068
838.00 2.011919
838.10 2.01177
838.20 2.011622
838.30 2.011473
838.40 2.011325
838.50 2.011176
838.60 2.011027
838.70 2.010879
838.80 2.01073
838.90 2.010582
839.00 2.010433
839.10 2.010284
839.20 2.010136
839.30 2.009987
839.40 2.009839
839.50 2.00969
839.60 2.009542
839.70 2.009393
839.80 2.009245
839.90 2.009097
840.00 2.008948
840.10 2.0088
840.20 2.008651
840.30 2.008503
840.40 2.008355
840.50 2.008206
840.60 2.008058
840.70 2.00791
840.80 2.007761
840.90 2.007613
841.00 2.007465
841.10 2.007329
841.20 2.007195
841.30 2.007061
841.40 2.006926
841.50 2.006792
841.60 2.006658
841.70 2.006524
841.80 2.00639
841.90 2.006256
842.00 2.006122
842.10 2.005989
842.20 2.005855
842.30 2.005721
842.40 2.005587
842.50 2.005453
842.60 2.005319
842.70 2.005185
842.80 2.005051
842.90 2.004917
843.00 2.004783
843.10 2.004649
843.20 2.004515
843.30 2.004381
843.40 2.004248
843.50 2.004114
843.60 2.00398
843.70 2.003846
843.80 2.003712
843.90 2.003578
844.00 2.003444
844.10 2.003311
844.20 2.003177
844.30 2.003043
844.40 2.002909
844.50 2.002775
844.60 2.002642
844.70 2.002508
844.80 2.002374
844.90 2.00224
845.00 2.002106
845.10 2.001973
845.20 2.001839
845.30 2.001681
845.40 2.001523
845.50 2.001365
845.60 2.001207
845.70 2.001049
845.80 2.000891
845.90 2.000733
846.00 2.000575
846.10 2.000417
846.20 2.000259
846.30 2.000101
846.40 1.999943
846.50 1.999785
846.60 1.999628
846.70 1.99947
846.80 1.999312
846.90 1.999154
847.00 1.998996
847.10 1.998839
847.20 1.998681
847.30 1.998523
847.40 1.998366
847.50 1.998208
847.60 1.99805
847.70 1.997893
847.80 1.997735
847.90 1.997577
848.00 1.99742
848.10 1.997262
848.20 1.997105
848.30 1.996947
848.40 1.99679
848.50 1.996632
848.60 1.996475
848.70 1.996317
848.80 1.99616
848.90 1.996003
849.00 1.995845
849.10 1.995688
849.20 1.995531
849.30 1.995373
849.40 1.995216
849.50 1.995059
849.60 1.994901
849.70 1.994744
849.80 1.994587
849.90 1.99443
850.00 1.994272
850.10 1.994115
850.20 1.993958
850.30 1.993801
850.40 1.993644
850.50 1.993487
850.60 1.99333
850.70 1.993173
850.80 1.993016
850.90 1.992859
851.00 1.992702
851.10 1.992545
851.20 1.992388
851.30 1.992231
851.40 1.992074
851.50 1.991917
851.60 1.99176
851.70 1.991603
851.80 1.991446
851.90 1.991289
852.00 1.991132
852.10 1.990976
852.20 1.990819
852.30 1.990662
852.40 1.990505
852.50 1.990349
852.60 1.990192
852.70 1.990035
852.80 1.989879
852.90 1.989722
853.00 1.989565
853.10 1.989409
853.20 1.989252
853.30 1.989096
853.40 1.988939
853.50 1.988782
853.60 1.988626
853.70 1.988471
853.80 1.988319
853.90 1.988166
854.00 1.988013
854.10 1.98786
854.20 1.987708
854.30 1.987555
854.40 1.987403
854.50 1.98725
854.60 1.987097
854.70 1.986945
854.80 1.986792
854.90 1.98664
855.00 1.986487
855.10 1.986335
855.20 1.986182
855.30 1.98603
855.40 1.985877
855.50 1.985725
855.60 1.985572
855.70 1.98542
855.80 1.985268
855.90 1.985115
856.00 1.984963
856.10 1.984811
856.20 1.984658
856.30 1.984506
856.40 1.984354
856.50 1.984202
856.60 1.984049
856.70 1.983897
856.80 1.983745
856.90 1.983593
857.00 1.98344
857.10 1.983288
857.20 1.983136
857.30 1.982984
857.40 1.982832
857.50 1.98268
857.60 1.982528
857.70 1.982376
857.80 1.982224
857.90 1.982072
858.00 1.981909
858.10 1.981743
858.20 1.981578
858.30 1.981413
858.40 1.981247
858.50 1.981082
858.60 1.980916
858.70 1.980751
858.80 1.980586
858.90 1.980421
859.00 1.980255
859.10 1.98009
859.20 1.979925
859.30 1.97976
859.40 1.979595
859.50 1.979429
859.60 1.979264
859.70 1.979099
859.80 1.978934
859.90 1.978769
860.00 1.978604
860.10 1.978439
860.20 1.978274
860.30 1.978109
860.40 1.977944
860.50 1.977779
860.60 1.977614
860.70 1.97745
860.80 1.977285
860.90 1.97712
861.00 1.976955
861.10 1.97679
861.20 1.976626
861.30 1.976461
861.40 1.976296
861.50 1.976132
861.60 1.975967
861.70 1.975802
861.80 1.975638
861.90 1.975473
862.00 1.975309
862.10 1.975144
862.20 1.974978
862.30 1.974804
862.40 1.97463
862.50 1.974456
862.60 1.974282
862.70 1.974109
862.80 1.973935
862.90 1.973761
863.00 1.973587
863.10 1.973413
863.20 1.973239
863.30 1.973066
863.40 1.972892
863.50 1.972718
863.60 1.972545
863.70 1.972371
863.80 1.972197
863.90 1.972024
864.00 1.97185
864.10 1.971677
864.20 1.971503
864.30 1.97133
864.40 1.971156
864.50 1.970983
864.60 1.97081
864.70 1.970636
864.80 1.970463
864.90 1.97029
865.00 1.970116
865.10 1.969943
865.20 1.96977
865.30 1.969597
865.40 1.969423
865.50 1.96925
865.60 1.969077
865.70 1.968904
865.80 1.968731
865.90 1.968558
866.00 1.968385
866.10 1.968212
866.20 1.968039
866.30 1.967866
866.40 1.967693
866.50 1.96752
866.60 1.967348
866.70 1.967175
866.80 1.967002
866.90 1.966829
867.00 1.966657
867.10 1.966484
867.20 1.966311
867.30 1.966139
867.40 1.965966
867.50 1.965793
867.60 1.965621
867.70 1.965448
867.80 1.965276
867.90 1.965103
868.00 1.964931
868.10 1.964758
868.20 1.964586
868.30 1.964414
868.40 1.964241
868.50 1.964069
868.60 1.963897
868.70 1.963724
868.80 1.963552
868.90 1.96338
869.00 1.963208
869.10 1.963036
869.20 1.962863
869.30 1.962691
869.40 1.962519
869.50 1.962347
869.60 1.962175
869.70 1.962003
869.80 1.961831
869.90 1.961659
870.00 1.961487
870.10 1.961316
870.20 1.961144
870.30 1.960972
870.40 1.9608
870.50 1.960628
870.60 1.960457
870.70 1.960285
870.80 1.960113
870.90 1.959933
871.00 1.959752
871.10 1.959572
871.20 1.959391
871.30 1.95921
871.40 1.95903
871.50 1.958849
871.60 1.958668
871.70 1.958488
871.80 1.958307
871.90 1.958127
872.00 1.957946
872.10 1.957766
872.20 1.957585
872.30 1.957405
872.40 1.957225
872.50 1.957044
872.60 1.956864
872.70 1.956684
872.80 1.956504
872.90 1.956323
873.00 1.956143
873.10 1.955963
873.20 1.955783
873.30 1.955603
873.40 1.955423
873.50 1.955243
873.60 1.955063
873.70 1.954883
873.80 1.954703
873.90 1.954523
874.00 1.954343
874.10 1.954163
874.20 1.953984
874.30 1.953804
874.40 1.953624
874.50 1.953444
874.60 1.953265
874.70 1.953085
874.80 1.952905
874.90 1.952726
875.00 1.952546
875.10 1.952367
875.20 1.952187
875.30 1.952008
875.40 1.951829
875.50 1.951649
875.60 1.95147
875.70 1.95129
875.80 1.951111
875.90 1.950932
876.00 1.950753
876.10 1.950573
876.20 1.950394
876.30 1.950215
876.40 1.950036
876.50 1.949857
876.60 1.949678
876.70 1.949499
876.80 1.94932
876.90 1.949141
877.00 1.948962
877.10 1.948783
877.20 1.948604
877.30 1.948425
877.40 1.948247
877.50 1.948068
877.60 1.947889
877.70 1.94771
877.80 1.947532
877.90 1.947353
878.00 1.947174
878.10 1.946996
878.20 1.946817
878.30 1.946639
878.40 1.94646
878.50 1.946282
878.60 1.946103
878.70 1.945925
878.80 1.945747
878.90 1.945568
879.00 1.94539
879.10 1.945212
879.20 1.945033
879.30 1.944855
879.40 1.944677
879.50 1.944499
879.60 1.944308
879.70 1.944115
879.80 1.943922
879.90 1.943729
880.00 1.943536
880.10 1.943343
880.20 1.94315
880.30 1.942957
880.40 1.942764
880.50 1.942571
880.60 1.942378
880.70 1.942186
880.80 1.941993
880.90 1.9418
881.00 1.941607
881.10 1.941415
881.20 1.941222
881.30 1.94103
881.40 1.940837
881.50 1.940645
881.60 1.940452
881.70 1.94026
881.80 1.940067
881.90 1.939875
882.00 1.939683
882.10 1.93949
882.20 1.939298
882.30 1.939106
882.40 1.938914
882.50 1.938722
882.60 1.93853
882.70 1.938337
882.80 1.938145
882.90 1.937953
883.00 1.937762
883.10 1.93757
883.20 1.937378
883.30 1.937186
883.40 1.936994
883.50 1.936802
883.60 1.936611
883.70 1.936419
883.80 1.936227
883.90 1.936036
884.00 1.935844
884.10 1.935653
884.20 1.935461
884.30 1.93527
884.40 1.935079
884.50 1.934887
884.60 1.934696
884.70 1.934505
884.80 1.934314
884.90 1.934122
885.00 1.933931
885.10 1.93374
885.20 1.933549
885.30 1.933358
885.40 1.933167
885.50 1.932976
885.60 1.932785
885.70 1.932594
885.80 1.932403
885.90 1.932213
886.00 1.932022
886.10 1.931831
886.20 1.93164
886.30 1.93145
886.40 1.931259
886.50 1.931069
886.60 1.930878
886.70 1.930687
886.80 1.930497
886.90 1.930307
887.00 1.930116
887.10 1.929926
887.20 1.929735
887.30 1.929545
887.40 1.929355
887.50 1.929165
887.60 1.928975
887.70 1.928784
887.80 1.928594
887.90 1.928404
888.00 1.928214
888.10 1.928024
888.20 1.927834
888.30 1.927644
888.40 1.927452
888.50 1.92726
888.60 1.927068
888.70 1.926876
888.80 1.926683
888.90 1.926491
889.00 1.926299
889.10 1.926107
889.20 1.925915
889.30 1.925723
889.40 1.925531
889.50 1.925339
889.60 1.925147
889.70 1.924955
889.80 1.924764
889.90 1.924572
890.00 1.92438
890.10 1.924188
890.20 1.923997
890.30 1.923805
890.40 1.923614
890.50 1.923422
890.60 1.923231
890.70 1.923039
890.80 1.922848
890.90 1.922656
891.00 1.922465
891.10 1.922274
891.20 1.922082
891.30 1.921891
891.40 1.9217
891.50 1.921509
891.60 1.921318
891.70 1.921126
891.80 1.920935
891.90 1.920744
892.00 1.920553
892.10 1.920362
892.20 1.920172
892.30 1.919981
892.40 1.91979
892.50 1.919599
892.60 1.919408
892.70 1.919218
892.80 1.919027
892.90 1.918836
893.00 1.918646
893.10 1.918455
893.20 1.918265
893.30 1.918074
893.40 1.917884
893.50 1.917693
893.60 1.917503
893.70 1.917312
893.80 1.917122
893.90 1.916932
894.00 1.916742
894.10 1.916551
894.20 1.916361
894.30 1.916171
894.40 1.915981
894.50 1.915791
894.60 1.915601
894.70 1.915411
894.80 1.915221
894.90 1.915031
895.00 1.914841
895.10 1.914651
895.20 1.914462
895.30 1.914272
895.40 1.914082
895.50 1.913893
895.60 1.913703
895.70 1.913513
895.80 1.913324
895.90 1.913134
896.00 1.912945
896.10 1.912755
896.20 1.912566
896.30 1.912376
896.40 1.912187
896.50 1.911998
896.60 1.911808
896.70 1.911619
896.80 1.91143
896.90 1.911241
897.00 1.911052
897.10 1.910863
897.20 1.910673
897.30 1.91047
897.40 1.910267
897.50 1.910064
897.60 1.909861
897.70 1.909658
897.80 1.909455
897.90 1.909252
898.00 1.90905
898.10 1.908847
898.20 1.908644
898.30 1.908441
898.40 1.908239
898.50 1.908036
898.60 1.907834
898.70 1.907631
898.80 1.907429
898.90 1.907226
899.00 1.907024
899.10 1.906822
899.20 1.906619
899.30 1.906417
899.40 1.906215
899.50 1.906013
899.60 1.905811
899.70 1.905609
899.80 1.905407
899.90 1.905205
900.00 1.905003
900.10 1.904801
900.20 1.904599
900.30 1.904397
900.40 1.904196
900.50 1.903994
900.60 1.903792
900.70 1.90359
900.80 1.903389
900.90 1.903187
901.00 1.902986
901.10 1.902784
901.20 1.902583
901.30 1.902382
901.40 1.90218
901.50 1.901979
901.60 1.901778
901.70 1.901574
901.80 1.901362
901.90 1.901149
902.00 1.900936
902.10 1.900724
902.20 1.900511
902.30 1.900299
902.40 1.900086
902.50 1.899874
902.60 1.899661
902.70 1.899449
902.80 1.899237
902.90 1.899024
903.00 1.898812
903.10 1.8986
903.20 1.898388
903.30 1.898176
903.40 1.897964
903.50 1.897752
903.60 1.89754
903.70 1.897328
903.80 1.897116
903.90 1.896904
904.00 1.896693
904.10 1.896481
904.20 1.896269
904.30 1.896058
904.40 1.895846
904.50 1.895635
904.60 1.895423
904.70 1.895212
904.80 1.895001
904.90 1.894789
905.00 1.894578
905.10 1.894367
905.20 1.894156
905.30 1.893945
905.40 1.893733
905.50 1.893522
905.60 1.893311
905.70 1.893101
905.80 1.89289
905.90 1.892679
906.00 1.892468
906.10 1.892257
906.20 1.89205
906.30 1.891848
906.40 1.891647
906.50 1.891446
906.60 1.891245
906.70 1.891043
906.80 1.890842
906.90 1.890641
907.00 1.89044
907.10 1.890239
907.20 1.890038
907.30 1.889837
907.40 1.889637
907.50 1.889436
907.60 1.889235
907.70 1.889034
907.80 1.888834
907.90 1.888633
908.00 1.888432
908.10 1.888232
908.20 1.888031
908.30 1.887831
908.40 1.88763
908.50 1.88743
908.60 1.88723
908.70 1.887029
908.80 1.886829
908.90 1.886629
909.00 1.886429
909.10 1.886229
909.20 1.886029
909.30 1.885829
909.40 1.885629
909.50 1.885429
909.60 1.885229
909.70 1.885029
909.80 1.884829
909.90 1.884629
910.00 1.884429
910.10 1.88423
910.20 1.88403
910.30 1.88383
910.40 1.883631
910.50 1.883431
910.60 1.883232
910.70 1.883032
910.80 1.882822
910.90 1.882611
911.00 1.8824
911.10 1.88219
911.20 1.881979
911.30 1.881769
911.40 1.881558
911.50 1.881348
911.60 1.881138
911.70 1.880928
911.80 1.880717
911.90 1.880507
912.00 1.880297
912.10 1.880087
912.20 1.879877
912.30 1.879667
912.40 1.879457
912.50 1.879247
912.60 1.879037
912.70 1.878828
912.80 1.878618
912.90 1.878408
913.00 1.878199
913.10 1.877989
913.20 1.877779
913.30 1.87757
913.40 1.87736
913.50 1.877151
913.60 1.876942
913.70 1.876732
913.80 1.876523
913.90 1.876314
914.00 1.876105
914.10 1.875896
914.20 1.875687
914.30 1.875477
914.40 1.875268
914.50 1.87506
914.60 1.874851
914.70 1.874642
914.80 1.874433
914.90 1.874224
915.00 1.874016
915.10 1.873807
915.20 1.873598
915.30 1.873388
915.40 1.873178
915.50 1.872967
915.60 1.872757
915.70 1.872547
915.80 1.872336
915.90 1.872126
916.00 1.871916
916.10 1.871706
916.20 1.871496
916.30 1.871285
916.40 1.871075
916.50 1.870865
916.60 1.870655
916.70 1.870446
916.80 1.870236
916.90 1.870026
917.00 1.869816
917.10 1.869607
917.20 1.869397
917.30 1.869187
917.40 1.868978
917.50 1.868768
917.60 1.868559
917.70 1.868349
917.80 1.86814
917.90 1.867931
918.00 1.867721
918.10 1.867512
918.20 1.867303
918.30 1.867094
918.40 1.866885
918.50 1.866676
918.60 1.866467
918.70 1.866258
918.80 1.866049
918.90 1.86584
919.00 1.865631
919.10 1.865422
919.20 1.865214
919.30 1.865005
919.40 1.864796
919.50 1.864588
919.60 1.864379
919.70 1.864171
919.80 1.863962
919.90 1.863744
920.00 1.863524
920.10 1.863305
920.20 1.863086
920.30 1.862867
920.40 1.862648
920.50 1.862429
920.60 1.86221
920.70 1.861991
920.80 1.861772
920.90 1.861553
921.00 1.861335
921.10 1.861116
921.20 1.860897
921.30 1.860679
921.40 1.86046
921.50 1.860242
921.60 1.860023
921.70 1.859805
921.80 1.859586
921.90 1.859368
922.00 1.85915
922.10 1.858932
922.20 1.858713
922.30 1.858495
922.40 1.858277
922.50 1.858059
922.60 1.857841
922.70 1.857623
922.80 1.857406
922.90 1.857188
923.00 1.85697
923.10 1.856752
923.20 1.856535
923.30 1.856317
923.40 1.8561
923.50 1.855882
923.60 1.855665
923.70 1.855447
923.80 1.85523
923.90 1.855013
924.00 1.854795
924.10 1.854578
924.20 1.854361
924.30 1.854144
924.40 1.853927
924.50 1.853708
924.60 1.853489
924.70 1.85327
924.80 1.853052
924.90 1.852833
925.00 1.852615
925.10 1.852396
925.20 1.852178
925.30 1.851959
925.40 1.851741
925.50 1.851523
925.60 1.851304
925.70 1.851086
925.80 1.850868
925.90 1.85065
926.00 1.850432
926.10 1.850214
926.20 1.849996
926.30 1.849778
926.40 1.84956
926.50 1.849342
926.60 1.849125
926.70 1.848907
926.80 1.848689
926.90 1.848472
927.00 1.848254
927.10 1.848037
927.20 1.847819
927.30 1.847602
927.40 1.847385
927.50 1.847167
927.60 1.84695
927.70 1.846733
927.80 1.846516
927.90 1.846299
928.00 1.846082
928.10 1.845865
928.20 1.845648
928.30 1.845431
928.40 1.845214
928.50 1.844997
928.60 1.844781
928.70 1.844564
928.80 1.844347
928.90 1.844131
929.00 1.843914
929.10 1.843687
929.20 1.84346
929.30 1.843233
929.40 1.843007
929.50 1.84278
929.60 1.842553
929.70 1.842326
929.80 1.842099
929.90 1.841873
930.00 1.841646
930.10 1.84142
930.20 1.841193
930.30 1.840967
930.40 1.84074
930.50 1.840514
930.60 1.840288
930.70 1.840062
930.80 1.839835
930.90 1.839609
931.00 1.839383
931.10 1.839157
931.20 1.838931
931.30 1.838705
931.40 1.83848
931.50 1.838254
931.60 1.838028
931.70 1.837802
931.80 1.837577
931.90 1.837351
932.00 1.837126
932.10 1.8369
932.20 1.836675
932.30 1.83645
932.40 1.836224
932.50 1.835999
932.60 1.835774
932.70 1.835549
932.80 1.835324
932.90 1.835099
933.00 1.834874
933.10 1.834649
933.20 1.834424
933.30 1.834199
933.40 1.833975
933.50 1.83375
933.60 1.833525
933.70 1.833303
933.80 1.833082
933.90 1.832861
934.00 1.832641
934.10 1.83242
934.20 1.832199
934.30 1.831978
934.40 1.831758
934.50 1.831537
934.60 1.831316
934.70 1.831096
934.80 1.830875
934.90 1.830655
935.00 1.830435
935.10 1.830214
935.20 1.829994
935.30 1.829774
935.40 1.829554
935.50 1.829334
935.60 1.829114
935.70 1.828894
935.80 1.828674
935.90 1.828454
936.00 1.828234
936.10 1.828014
936.20 1.827795
936.30 1.827575
936.40 1.827355
936.50 1.827136
936.60 1.826916
936.70 1.826697
936.80 1.826477
936.90 1.826258
937.00 1.826039
937.10 1.82582
937.20 1.8256
937.30 1.825381
937.40 1.825162
937.50 1.824943
937.60 1.824724
937.70 1.824505
937.80 1.824286
937.90 1.824067
938.00 1.823849
938.10 1.82363
938.20 1.823411
938.30 1.823193
938.40 1.822974
938.50 1.822755
938.60 1.822537
938.70 1.822319
938.80 1.8221
938.90 1.821882
939.00 1.821664
939.10 1.821445
939.20 1.821227
939.30 1.821009
939.40 1.820791
939.50 1.820573
939.60 1.820355
939.70 1.820137
939.80 1.819919
939.90 1.819702
940.00 1.819484
940.10 1.819266
940.20 1.819048
940.30 1.818831
940.40 1.818613
940.50 1.818396
940.60 1.818178
940.70 1.817961
940.80 1.817744
940.90 1.817526
941.00 1.817309
941.10 1.817092
941.20 1.816875
941.30 1.816658
941.40 1.816441
941.50 1.816224
941.60 1.816007
941.70 1.81579
941.80 1.815573
941.90 1.815356
942.00 1.81514
942.10 1.814923
942.20 1.814706
942.30 1.81449
942.40 1.814273
942.50 1.814057
942.60 1.81384
942.70 1.813624
942.80 1.813408
942.90 1.813191
943.00 1.812969
943.10 1.812736
943.20 1.812503
943.30 1.81227
943.40 1.812037
943.50 1.811804
943.60 1.811572
943.70 1.811339
943.80 1.811107
943.90 1.810874
944.00 1.810642
944.10 1.810409
944.20 1.810177
944.30 1.809944
944.40 1.809712
944.50 1.80948
944.60 1.809248
944.70 1.809016
944.80 1.808784
944.90 1.808552
945.00 1.80832
945.10 1.808088
945.20 1.807856
945.30 1.807625
945.40 1.807393
945.50 1.807162
945.60 1.80693
945.70 1.806698
945.80 1.806467
945.90 1.806236
946.00 1.806004
946.10 1.805773
946.20 1.805542
946.30 1.805311
946.40 1.80508
946.50 1.804849
946.60 1.804618
946.70 1.804387
946.80 1.804156
946.90 1.803925
947.00 1.803694
947.10 1.803464
947.20 1.803233
947.30 1.803003
947.40 1.802772
947.50 1.802542
947.60 1.802311
947.70 1.802081
947.80 1.801851
947.90 1.80162
948.00 1.80139
948.10 1.80116
948.20 1.80093
948.30 1.8007
948.40 1.80047
948.50 1.80024
948.60 1.80001
948.70 1.799781
948.80 1.799551
948.90 1.799321
949.00 1.799092
949.10 1.798862
949.20 1.798633
949.30 1.798403
949.40 1.798174
949.50 1.797945
949.60 1.797715
949.70 1.797486
949.80 1.797257
949.90 1.797028
950.00 1.796799
950.10 1.79657
950.20 1.796341
950.30 1.796112
950.40 1.795883
950.50 1.795655
950.60 1.795426
950.70 1.795197
950.80 1.794969
950.90 1.79474
951.00 1.794512
951.10 1.794283
951.20 1.794055
951.30 1.793827
951.40 1.793598
951.50 1.79337
951.60 1.793142
951.70 1.792914
951.80 1.792686
951.90 1.792458
952.00 1.79223
952.10 1.792002
952.20 1.791774
952.30 1.791547
952.40 1.791319
952.50 1.79109
952.60 1.790861
952.70 1.790632
952.80 1.790403
952.90 1.790174
953.00 1.789945
953.10 1.789717
953.20 1.789488
953.30 1.789259
953.40 1.789031
953.50 1.788802
953.60 1.788574
953.70 1.788345
953.80 1.788117
953.90 1.787889
954.00 1.78766
954.10 1.787432
954.20 1.787204
954.30 1.786976
954.40 1.786748
954.50 1.78652
954.60 1.786292
954.70 1.786064
954.80 1.785837
954.90 1.785609
955.00 1.785381
955.10 1.785153
955.20 1.784926
955.30 1.784698
955.40 1.784471
955.50 1.784244
955.60 1.784016
955.70 1.783789
955.80 1.783562
955.90 1.783335
956.00 1.783107
956.10 1.78288
956.20 1.782653
956.30 1.782426
956.40 1.7822
956.50 1.781973
956.60 1.781746
956.70 1.781519
956.80 1.781293
956.90 1.781066
957.00 1.780839
957.10 1.780613
957.20 1.780382
957.30 1.780146
957.40 1.77991
957.50 1.779674
957.60 1.779438
957.70 1.779202
957.80 1.778966
957.90 1.778731
958.00 1.778495
958.10 1.778259
958.20 1.778024
958.30 1.777788
958.40 1.777553
958.50 1.777317
958.60 1.777082
958.70 1.776847
958.80 1.776612
958.90 1.776377
959.00 1.776141
959.10 1.775906
959.20 1.775672
959.30 1.775437
959.40 1.775202
959.50 1.774967
959.60 1.774732
959.70 1.774498
959.80 1.774263
959.90 1.774028
960.00 1.773794
960.10 1.77356
960.20 1.773325
960.30 1.773091
960.40 1.772857
960.50 1.772622
960.60 1.772388
960.70 1.772154
960.80 1.77192
960.90 1.771686
961.00 1.771452
961.10 1.771219
961.20 1.770985
961.30 1.770751
961.40 1.770517
961.50 1.770284
961.60 1.77005
961.70 1.769817
961.80 1.769583
961.90 1.76935
962.00 1.769116
962.10 1.768881
962.20 1.768647
962.30 1.768412
962.40 1.768178
962.50 1.767943
962.60 1.767709
962.70 1.767475
962.80 1.767241
962.90 1.767007
963.00 1.766773
963.10 1.766539
963.20 1.766305
963.30 1.766071
963.40 1.765837
963.50 1.765603
963.60 1.76537
963.70 1.765136
963.80 1.764902
963.90 1.764669
964.00 1.764435
964.10 1.764202
964.20 1.763969
964.30 1.763735
964.40 1.763502
964.50 1.763269
964.60 1.763036
964.70 1.762803
964.80 1.76257
964.90 1.762337
965.00 1.762104
965.10 1.761871
965.20 1.761639
965.30 1.761406
965.40 1.761173
965.50 1.760941
965.60 1.760708
965.70 1.760476
965.80 1.760243
965.90 1.760011
966.00 1.759779
966.10 1.759547
966.20 1.759314
966.30 1.759082
966.40 1.75885
966.50 1.758618
966.60 1.758386
966.70 1.758154
966.80 1.757923
966.90 1.757691
967.00 1.757459
967.10 1.757228
967.20 1.756996
967.30 1.756764
967.40 1.756533
967.50 1.756302
967.60 1.75607
967.70 1.755839
967.80 1.755608
967.90 1.755377
968.00 1.755145
968.10 1.754914
968.20 1.754683
968.30 1.754452
968.40 1.754222
968.50 1.753991
968.60 1.75376
968.70 1.753529
968.80 1.753299
968.90 1.753068
969.00 1.752838
969.10 1.752607
969.20 1.752377
969.30 1.752146
969.40 1.751916
969.50 1.751686
969.60 1.751456
969.70 1.751225
969.80 1.750995
969.90 1.750765
970.00 1.750535
970.10 1.750306
970.20 1.750076
970.30 1.749846
970.40 1.749616
970.50 1.749386
970.60 1.749157
970.70 1.748927
970.80 1.748698
970.90 1.748468
971.00 1.748239
971.10 1.74801
971.20 1.74778
971.30 1.747551
971.40 1.747322
971.50 1.747093
971.60 1.746857
971.70 1.746618
971.80 1.746378
971.90 1.746139
972.00 1.745899
972.10 1.74566
972.20 1.745421
972.30 1.745182
972.40 1.744943
972.50 1.744704
972.60 1.744465
972.70 1.744226
972.80 1.743987
972.90 1.743748
973.00 1.74351
973.10 1.743271
973.20 1.743032
973.30 1.742794
973.40 1.742556
973.50 1.742317
973.60 1.742079
973.70 1.741841
973.80 1.741602
973.90 1.741364
974.00 1.741126
974.10 1.740888
974.20 1.74065
974.30 1.740412
974.40 1.740174
974.50 1.739937
974.60 1.739699
974.70 1.739461
974.80 1.739224
974.90 1.738986
975.00 1.738749
975.10 1.738511
975.20 1.738274
975.30 1.738036
975.40 1.737799
975.50 1.737562
975.60 1.737325
975.70 1.737088
975.80 1.736851
975.90 1.736614
976.00 1.736377
976.10 1.73614
976.20 1.735903
976.30 1.735667
976.40 1.73543
976.50 1.735194
976.60 1.734957
976.70 1.734721
976.80 1.734484
976.90 1.734248
977.00 1.734012
977.10 1.733775
977.20 1.733539
977.30 1.733303
977.40 1.733067
977.50 1.732831
977.60 1.732595
977.70 1.732359
977.80 1.732124
977.90 1.731888
978.00 1.731652
978.10 1.731417
978.20 1.731181
978.30 1.730946
978.40 1.73071
978.50 1.730475
978.60 1.73024
978.70 1.730004
978.80 1.729769
978.90 1.729534
979.00 1.729299
979.10 1.729064
979.20 1.728829
979.30 1.728594
979.40 1.728359
979.50 1.728125
979.60 1.72789
979.70 1.727655
979.80 1.727421
979.90 1.727186
980.00 1.726952
980.10 1.726717
980.20 1.726483
980.30 1.726249
980.40 1.726014
980.50 1.72578
980.60 1.725546
980.70 1.725312
980.80 1.725078
980.90 1.724844
981.00 1.72461
981.10 1.724376
981.20 1.724143
981.30 1.723906
981.40 1.723667
981.50 1.723428
981.60 1.723189
981.70 1.722949
981.80 1.72271
981.90 1.722471
982.00 1.722232
982.10 1.721994
982.20 1.721755
982.30 1.721516
982.40 1.721277
982.50 1.721039
982.60 1.7208
982.70 1.720562
982.80 1.720323
982.90 1.720085
983.00 1.719847
983.10 1.719608
983.20 1.71937
983.30 1.719132
983.40 1.718894
983.50 1.718656
983.60 1.718418
983.70 1.71818
983.80 1.717942
983.90 1.717705
984.00 1.717467
984.10 1.717229
984.20 1.716992
984.30 1.716754
984.40 1.716517
984.50 1.71628
984.60 1.716042
984.70 1.715805
984.80 1.715568
984.90 1.715331
985.00 1.715094
985.10 1.714857
985.20 1.71462
985.30 1.714383
985.40 1.714146
985.50 1.713909
985.60 1.713672
985.70 1.713436
985.80 1.713199
985.90 1.712963
986.00 1.712726
986.10 1.71249
986.20 1.712253
986.30 1.712017
986.40 1.711781
986.50 1.711545
986.60 1.711309
986.70 1.711072
986.80 1.710837
986.90 1.710601
987.00 1.710365
987.10 1.710129
987.20 1.709893
987.30 1.709657
987.40 1.709422
987.50 1.709186
987.60 1.708951
987.70 1.708715
987.80 1.70848
987.90 1.708245
988.00 1.708009
988.10 1.707774
988.20 1.707539
988.30 1.707304
988.40 1.707069
988.50 1.706834
988.60 1.706599
988.70 1.706364
988.80 1.706129
988.90 1.705895
989.00 1.70566
989.10 1.705425
989.20 1.705191
989.30 1.704956
989.40 1.704722
989.50 1.704488
989.60 1.704253
989.70 1.704019
989.80 1.703785
989.90 1.703551
990.00 1.703317
990.10 1.703083
990.20 1.702849
990.30 1.702615
990.40 1.702381
990.50 1.702147
990.60 1.701914
990.70 1.70168
990.80 1.701446
990.90 1.701213
991.00 1.700979
991.10 1.700744
991.20 1.700505
991.30 1.700267
991.40 1.700028
991.50 1.699789
991.60 1.699551
991.70 1.699312
991.80 1.699074
991.90 1.698836
992.00 1.698597
992.10 1.698359
992.20 1.698121
992.30 1.697883
992.40 1.697645
992.50 1.697407
992.60 1.697169
992.70 1.696931
992.80 1.696693
992.90 1.696456
993.00 1.696218
993.10 1.69598
993.20 1.695743
993.30 1.695505
993.40 1.695268
993.50 1.695031
993.60 1.694793
993.70 1.694556
993.80 1.694319
993.90 1.694082
994.00 1.693845
994.10 1.693608
994.20 1.693371
994.30 1.693134
994.40 1.692897
994.50 1.69266
994.60 1.692424
994.70 1.692187
994.80 1.691951
994.90 1.691714
995.00 1.691478
995.10 1.691241
995.20 1.691005
995.30 1.690769
995.40 1.690533
995.50 1.690296
995.60 1.69006
995.70 1.689824
995.80 1.689588
995.90 1.689352
996.00 1.689117
996.10 1.688874
996.20 1.688629
996.30 1.688385
996.40 1.688141
996.50 1.687897
996.60 1.687653
996.70 1.687409
996.80 1.687165
996.90 1.686921
997.00 1.686677
997.10 1.686433
997.20 1.68619
997.30 1.685946
997.40 1.685702
997.50 1.685459
997.60 1.685215
997.70 1.684972
997.80 1.684729
997.90 1.684485
998.00 1.684242
998.10 1.683999
998.20 1.683756
998.30 1.683513
998.40 1.68327
998.50 1.683027
998.60 1.682784
998.70 1.682542
998.80 1.682299
998.90 1.682056
999.00 1.681814
999.10 1.681571
999.20 1.681329
999.30 1.681087
999.40 1.680844
999.50 1.680602
999.60 1.68036
999.70 1.680118
999.80 1.679876
999.90 1.679634
1000.00 1.679392
1000.10 1.67915
1000.20 1.678908
1000.30 1.678666
1000.40 1.678425
1000.50 1.678183
1000.60 1.677942
1000.70 1.6777
1000.80 1.677459
1000.90 1.677217
1001.00 1.676978
1001.10 1.676744
1001.20 1.676511
1001.30 1.676277
1001.40 1.676044
1001.50 1.67581
1001.60 1.675577
1001.70 1.675343
1001.80 1.67511
1001.90 1.674877
1002.00 1.674644
1002.10 1.674411
1002.20 1.674178
1002.30 1.673945
1002.40 1.673712
1002.50 1.673479
1002.60 1.673246
1002.70 1.673013
1002.80 1.672781
1002.90 1.672548
1003.00 1.672315
1003.10 1.672083
1003.20 1.67185
1003.30 1.671618
1003.40 1.671386
1003.50 1.671153
1003.60 1.670921
1003.70 1.670689
1003.80 1.670457
1003.90 1.670225
1004.00 1.669993
1004.10 1.669761
1004.20 1.669529
1004.30 1.669297
1004.40 1.669066
1004.50 1.668834
1004.60 1.668602
1004.70 1.668371
1004.80 1.668139
1004.90 1.667908
1005.00 1.667676
1005.10 1.667445
1005.20 1.667214
1005.30 1.666983
1005.40 1.666751
1005.50 1.66652
1005.60 1.666289
1005.70 1.666058
1005.80 1.665827
1005.90 1.665597
1006.00 1.665362
1006.10 1.665115
1006.20 1.664868
1006.30 1.66462
1006.40 1.664373
1006.50 1.664126
1006.60 1.663879
1006.70 1.663632
1006.80 1.663385
1006.90 1.663138
1007.00 1.662891
1007.10 1.662644
1007.20 1.662397
1007.30 1.662151
1007.40 1.661904
1007.50 1.661658
1007.60 1.661411
1007.70 1.661165
1007.80 1.660918
1007.90 1.660672
1008.00 1.660426
1008.10 1.66018
1008.20 1.659934
1008.30 1.659688
1008.40 1.659442
1008.50 1.659196
1008.60 1.65895
1008.70 1.658704
1008.80 1.658459
1008.90 1.658213
1009.00 1.657968
1009.10 1.657722
1009.20 1.657477
1009.30 1.657231
1009.40 1.656986
1009.50 1.656741
1009.60 1.656496
1009.70 1.656251
1009.80 1.656006
1009.90 1.655761
1010.00 1.655516
1010.10 1.655271
1010.20 1.655026
1010.30 1.654781
1010.40 1.654537
1010.50 1.654292
1010.60 1.654048
1010.70 1.653803
1010.80 1.653559
1010.90 1.653315
1011.00 1.653072
1011.10 1.652835
1011.20 1.652598
1011.30 1.652361
1011.40 1.652125
1011.50 1.651888
1011.60 1.651651
1011.70 1.651415
1011.80 1.651179
1011.90 1.650942
1012.00 1.650706
1012.10 1.65047
1012.20 1.650234
1012.30 1.649998
1012.40 1.649761
1012.50 1.649526
1012.60 1.64929
1012.70 1.649054
1012.80 1.648818
1012.90 1.648582
1013.00 1.648347
1013.10 1.648111
1013.20 1.647875
1013.30 1.64764
1013.40 1.647404
1013.50 1.647169
1013.60 1.646934
1013.70 1.646699
1013.80 1.646463
1013.90 1.646228
1014.00 1.645993
1014.10 1.645758
1014.20 1.645523
1014.30 1.645288
1014.40 1.645054
1014.50 1.644819
1014.60 1.644584
1014.70 1.644349
1014.80 1.644115
1014.90 1.64388
1015.00 1.643646
1015.10 1.643412
1015.20 1.643177
1015.30 1.642943
1015.40 1.642709
1015.50 1.642475
1015.60 1.64224
1015.70 1.642006
1015.80 1.641772
1015.90 1.641539
1016.00 1.641305
1016.10 1.641066
1016.20 1.640824
1016.30 1.640582
1016.40 1.640341
1016.50 1.640099
1016.60 1.639857
1016.70 1.639616
1016.80 1.639374
1016.90 1.639133
1017.00 1.638892
1017.10 1.63865
1017.20 1.638409
1017.30 1.638168
1017.40 1.637927
1017.50 1.637686
1017.60 1.637445
1017.70 1.637204
1017.80 1.636963
1017.90 1.636722
1018.00 1.636482
1018.10 1.636241
1018.20 1.636
1018.30 1.63576
1018.40 1.635519
1018.50 1.635279
1018.60 1.635039
1018.70 1.634798
1018.80 1.634558
1018.90 1.634318
1019.00 1.634078
1019.10 1.633838
1019.20 1.633598
1019.30 1.633358
1019.40 1.633118
1019.50 1.632879
1019.60 1.632639
1019.70 1.632399
1019.80 1.63216
1019.90 1.63192
1020.00 1.631681
1020.10 1.631441
1020.20 1.631202
1020.30 1.630963
1020.40 1.630724
1020.50 1.630484
1020.60 1.630245
1020.70 1.630006
1020.80 1.629767
1020.90 1.629528
1021.00 1.62929
1021.10 1.62905
1021.20 1.628803
1021.30 1.628555
1021.40 1.628308
1021.50 1.628061
1021.60 1.627814
1021.70 1.627567
1021.80 1.627319
1021.90 1.627072
1022.00 1.626826
1022.10 1.626579
1022.20 1.626332
1022.30 1.626085
1022.40 1.625838
1022.50 1.625592
1022.60 1.625345
1022.70 1.625099
1022.80 1.624852
1022.90 1.624606
1023.00 1.62436
1023.10 1.624114
1023.20 1.623867
1023.30 1.623621
1023.40 1.623375
1023.50 1.623129
1023.60 1.622884
1023.70 1.622638
1023.80 1.622392
1023.90 1.622146
1024.00 1.621901
1024.10 1.621655
1024.20 1.62141
1024.30 1.621164
1024.40 1.620919
1024.50 1.620673
1024.60 1.620428
1024.70 1.620183
1024.80 1.619938
1024.90 1.619693
1025.00 1.619448
1025.10 1.619203
1025.20 1.618958
1025.30 1.618713
1025.40 1.618469
1025.50 1.618224
1025.60 1.617979
1025.70 1.617735
1025.80 1.61749
1025.90 1.617246
1026.00 1.617002
1026.10 1.616757
1026.20 1.616513
1026.30 1.616277
1026.40 1.616041
1026.50 1.615805
1026.60 1.615569
1026.70 1.615333
1026.80 1.615097
1026.90 1.614861
1027.00 1.614625
1027.10 1.614389
1027.20 1.614154
1027.30 1.613918
1027.40 1.613682
1027.50 1.613447
1027.60 1.613211
1027.70 1.612976
1027.80 1.612741
1027.90 1.612505
1028.00 1.61227
1028.10 1.612035
1028.20 1.6118
1028.30 1.611565
1028.40 1.61133
1028.50 1.611095
1028.60 1.61086
1028.70 1.610625
1028.80 1.610391
1028.90 1.610156
1029.00 1.609921
1029.10 1.609687
1029.20 1.609452
1029.30 1.609218
1029.40 1.608984
1029.50 1.608749
1029.60 1.608515
1029.70 1.608281
1029.80 1.608047
1029.90 1.607813
1030.00 1.607579
1030.10 1.607345
1030.20 1.607111
1030.30 1.606877
1030.40 1.606643
1030.50 1.60641
1030.60 1.606176
1030.70 1.605943
1030.80 1.605709
1030.90 1.605476
1031.00 1.605242
1031.10 1.605009
1031.20 1.604776
1031.30 1.604542
1031.40 1.604301
1031.50 1.60406
1031.60 1.603818
1031.70 1.603577
1031.80 1.603335
1031.90 1.603094
1032.00 1.602853
1032.10 1.602611
1032.20 1.60237
1032.30 1.602129
1032.40 1.601888
1032.50 1.601647
1032.60 1.601406
1032.70 1.601165
1032.80 1.600925
1032.90 1.600684
1033.00 1.600443
1033.10 1.600203
1033.20 1.599962
1033.30 1.599722
1033.40 1.599481
1033.50 1.599241
1033.60 1.599001
1033.70 1.598761
1033.80 1.59852
1033.90 1.59828
1034.00 1.59804
1034.10 1.5978
1034.20 1.597561
1034.30 1.597321
1034.40 1.597081
1034.50 1.596841
1034.60 1.596602
1034.70 1.596362
1034.80 1.596123
1034.90 1.595883
1035.00 1.595644
1035.10 1.595404
1035.20 1.595165
1035.30 1.594926
1035.40 1.594687
1035.50 1.594448
1035.60 1.594209
1035.70 1.59397
1035.80 1.593731
1035.90 1.593492
1036.00 1.593253
1036.10 1.593015
1036.20 1.592776
1036.30 1.592538
1036.40 1.592299
1036.50 1.592058
1036.60 1.591812
1036.70 1.591566
1036.80 1.59132
1036.90 1.591074
1037.00 1.590828
1037.10 1.590583
1037.20 1.590337
1037.30 1.590091
1037.40 1.589846
1037.50 1.589601
1037.60 1.589355
1037.70 1.58911
1037.80 1.588865
1037.90 1.588619
1038.00 1.588374
1038.10 1.588129
1038.20 1.587884
1038.30 1.587639
1038.40 1.587395
1038.50 1.58715
1038.60 1.586905
1038.70 1.586661
1038.80 1.586416
1038.90 1.586171
1039.00 1.585927
1039.10 1.585683
1039.20 1.585438
1039.30 1.585194
1039.40 1.58495
1039.50 1.584706
1039.60 1.584462
1039.70 1.584218
1039.80 1.583974
1039.90 1.58373
1040.00 1.583486
1040.10 1.583242
1040.20 1.582999
1040.30 1.582755
1040.40 1.582512
1040.50 1.582268
1040.60 1.582025
1040.70 1.581781
1040.80 1.581538
1040.90 1.581295
1041.00 1.581052
1041.10 1.580809
1041.20 1.580565
1041.30 1.580323
1041.40 1.58008
1041.50 1.579837
1041.60 1.579594
1041.70 1.579351
1041.80 1.579108
1041.90 1.578864
1042.00 1.578621
1042.10 1.578378
1042.20 1.578135
1042.30 1.577892
1042.40 1.577649
1042.50 1.577407
1042.60 1.577164
1042.70 1.576921
1042.80 1.576679
1042.90 1.576436
1043.00 1.576194
1043.10 1.575951
1043.20 1.575709
1043.30 1.575467
1043.40 1.575224
1043.50 1.574982
1043.60 1.57474
1043.70 1.574498
1043.80 1.574256
1043.90 1.574014
1044.00 1.573772
1044.10 1.573531
1044.20 1.573289
1044.30 1.573047
1044.40 1.572806
1044.50 1.572564
1044.60 1.572323
1044.70 1.572081
1044.80 1.57184
1044.90 1.571599
1045.00 1.571357
1045.10 1.571116
1045.20 1.570875
1045.30 1.570634
1045.40 1.570393
1045.50 1.570152
1045.60 1.569912
1045.70 1.569671
1045.80 1.56943
1045.90 1.569189
1046.00 1.568949
1046.10 1.568708
1046.20 1.568468
1046.30 1.568228
1046.40 1.567987
1046.50 1.567747
1046.60 1.567507
1046.70 1.567267
1046.80 1.567027
1046.90 1.566787
1047.00 1.566547
1047.10 1.566307
1047.20 1.566067
1047.30 1.565827
1047.40 1.565588
1047.50 1.565348
1047.60 1.565108
1047.70 1.564869
1047.80 1.564629
1047.90 1.56439
1048.00 1.564151
1048.10 1.563911
1048.20 1.563672
1048.30 1.563433
1048.40 1.563194
1048.50 1.562955
1048.60 1.562716
1048.70 1.562477
1048.80 1.562239
1048.90 1.562
1049.00 1.561761
1049.10 1.561522
1049.20 1.561284
1049.30 1.561045
1049.40 1.560807
1049.50 1.560569
1049.60 1.56033
1049.70 1.560092
1049.80 1.559854
1049.90 1.559616
1050.00 1.559378
1050.10 1.55914
1050.20 1.558902
1050.30 1.558664
1050.40 1.558426
1050.50 1.558188
1050.60 1.557951
1050.70 1.557713
1050.80 1.557476
1050.90 1.557238
1051.00 1.557001
1051.10 1.556763
1051.20 1.556526
1051.30 1.556289
1051.40 1.556052
1051.50 1.555814
1051.60 1.555577
1051.70 1.55534
1051.80 1.555103
1051.90 1.554867
1052.00 1.55463
1052.10 1.55439
1052.20 1.554149
1052.30 1.553908
1052.40 1.553668
1052.50 1.553427
1052.60 1.553186
1052.70 1.552946
1052.80 1.552705
1052.90 1.552465
1053.00 1.552224
1053.10 1.551984
1053.20 1.551744
1053.30 1.551503
1053.40 1.551263
1053.50 1.551023
1053.60 1.550783
1053.70 1.550543
1053.80 1.550303
1053.90 1.550063
1054.00 1.549824
1054.10 1.549584
1054.20 1.549344
1054.30 1.549105
1054.40 1.548865
1054.50 1.548626
1054.60 1.548386
1054.70 1.548147
1054.80 1.547908
1054.90 1.547669
1055.00 1.547429
1055.10 1.54719
1055.20 1.546951
1055.30 1.546712
1055.40 1.546474
1055.50 1.546235
1055.60 1.545996
1055.70 1.545757
1055.80 1.545519
1055.90 1.54528
1056.00 1.545042
1056.10 1.544803
1056.20 1.544565
1056.30 1.544326
1056.40 1.544088
1056.50 1.54385
1056.60 1.543612
1056.70 1.543374
1056.80 1.543136
1056.90 1.542898
1057.00 1.54266
1057.10 1.542422
1057.20 1.542184
1057.30 1.541947
1057.40 1.541709
1057.50 1.541471
1057.60 1.541234
1057.70 1.540996
1057.80 1.540759
1057.90 1.540522
1058.00 1.540284
1058.10 1.540047
1058.20 1.53981
1058.30 1.539573
1058.40 1.539336
1058.50 1.539099
1058.60 1.538862
1058.70 1.538625
1058.80 1.538389
1058.90 1.538152
1059.00 1.537915
1059.10 1.537679
1059.20 1.537442
1059.30 1.537206
1059.40 1.536969
1059.50 1.536733
1059.60 1.536497
1059.70 1.53626
1059.80 1.536024
1059.90 1.535788
1060.00 1.535552
1060.10 1.535316
1060.20 1.53508
1060.30 1.534844
1060.40 1.534609
1060.50 1.534373
1060.60 1.534137
1060.70 1.533902
1060.80 1.533666
1060.90 1.533431
1061.00 1.533195
1061.10 1.53296
1061.20 1.532725
1061.30 1.532489
1061.40 1.532254
1061.50 1.532019
1061.60 1.531784
1061.70 1.531549
1061.80 1.531314
1061.90 1.531079
1062.00 1.530845
1062.10 1.53061
1062.20 1.530375
1062.30 1.530141
1062.40 1.529906
1062.50 1.529672
1062.60 1.529432
1062.70 1.529187
1062.80 1.528941
1062.90 1.528696
1063.00 1.52845
1063.10 1.528205
1063.20 1.52796
1063.30 1.527715
1063.40 1.52747
1063.50 1.527225
1063.60 1.52698
1063.70 1.526735
1063.80 1.526491
1063.90 1.526246
1064.00 1.526001
1064.10 1.525757
1064.20 1.525512
1064.30 1.525268
1064.40 1.525023
1064.50 1.524779
1064.60 1.524535
1064.70 1.524291
1064.80 1.524047
1064.90 1.523802
1065.00 1.523558
1065.10 1.523315
1065.20 1.523071
1065.30 1.522827
1065.40 1.522583
1065.50 1.52234
1065.60 1.522096
1065.70 1.521852
1065.80 1.521609
1065.90 1.521366
1066.00 1.521122
1066.10 1.520879
1066.20 1.520636
1066.30 1.520393
1066.40 1.520149
1066.50 1.519906
1066.60 1.519664
1066.70 1.519421
1066.80 1.519178
1066.90 1.518935
1067.00 1.518692
1067.10 1.51845
1067.20 1.518207
1067.30 1.517965
1067.40 1.517722
1067.50 1.51748
1067.60 1.517238
1067.70 1.516995
1067.80 1.516753
1067.90 1.516513
1068.00 1.516278
1068.10 1.516043
1068.20 1.515808
1068.30 1.515573
1068.40 1.515339
1068.50 1.515104
1068.60 1.514869
1068.70 1.514635
1068.80 1.5144
1068.90 1.514166
1069.00 1.513931
1069.10 1.513697
1069.20 1.513462
1069.30 1.513228
1069.40 1.512994
1069.50 1.51276
1069.60 1.512526
1069.70 1.512292
1069.80 1.512058
1069.90 1.511824
1070.00 1.51159
1070.10 1.511356
1070.20 1.511123
1070.30 1.510889
1070.40 1.510655
1070.50 1.510422
1070.60 1.510188
1070.70 1.509955
1070.80 1.509722
1070.90 1.509488
1071.00 1.509255
1071.10 1.509022
1071.20 1.508789
1071.30 1.508556
1071.40 1.508323
1071.50 1.50809
1071.60 1.507857
1071.70 1.507624
1071.80 1.507392
1071.90 1.507159
1072.00 1.506926
1072.10 1.506694
1072.20 1.506461
1072.30 1.506229
1072.40 1.505996
1072.50 1.505764
1072.60 1.505532
1072.70 1.5053
1072.80 1.505067
1072.90 1.504835
1073.00 1.504603
1073.10 1.504371
1073.20 1.504138
1073.30 1.503899
1073.40 1.50366
1073.50 1.503421
1073.60 1.503182
1073.70 1.502943
1073.80 1.502704
1073.90 1.502465
1074.00 1.502226
1074.10 1.501988
1074.20 1.501749
1074.30 1.501511
1074.40 1.501272
1074.50 1.501034
1074.60 1.500795
1074.70 1.500557
1074.80 1.500319
1074.90 1.500081
1075.00 1.499843
1075.10 1.499605
1075.20 1.499367
1075.30 1.499129
1075.40 1.498891
1075.50 1.498653
1075.60 1.498415
1075.70 1.498178
1075.80 1.49794
1075.90 1.497703
1076.00 1.497465
1076.10 1.497228
1076.20 1.49699
1076.30 1.496753
1076.40 1.496516
1076.50 1.496279
1076.60 1.496042
1076.70 1.495805
1076.80 1.495568
1076.90 1.495331
1077.00 1.495094
1077.10 1.494857
1077.20 1.49462
1077.30 1.494384
1077.40 1.494147
1077.50 1.49391
1077.60 1.493674
1077.70 1.493438
1077.80 1.493201
1077.90 1.492965
1078.00 1.492729
1078.10 1.492493
1078.20 1.492256
1078.30 1.49202
1078.40 1.491784
1078.50 1.491548
1078.60 1.491313
1078.70 1.491077
1078.80 1.490841
1078.90 1.490605
1079.00 1.49037
1079.10 1.490134
1079.20 1.489899
1079.30 1.489663
1079.40 1.489428
1079.50 1.489193
1079.60 1.488957
1079.70 1.488722
1079.80 1.488487
1079.90 1.488252
1080.00 1.488017
1080.10 1.487782
1080.20 1.487547
1080.30 1.487312
1080.40 1.487078
1080.50 1.486843
1080.60 1.486608
1080.70 1.486374
1080.80 1.486139
1080.90 1.485905
1081.00 1.485671
1081.10 1.485436
1081.20 1.485202
1081.30 1.484968
1081.40 1.484734
1081.50 1.4845
1081.60 1.484266
1081.70 1.484032
1081.80 1.483798
1081.90 1.483564
1082.00 1.48333
1082.10 1.483096
1082.20 1.482863
1082.30 1.482629
1082.40 1.482396
1082.50 1.482162
1082.60 1.481929
1082.70 1.481695
1082.80 1.481462
1082.90 1.481229
1083.00 1.480996
1083.10 1.480763
1083.20 1.48053
1083.30 1.480297
1083.40 1.480064
1083.50 1.479831
1083.60 1.479598
1083.70 1.479365
1083.80 1.479133
1083.90 1.4789
1084.00 1.478661
1084.10 1.478422
1084.20 1.478182
1084.30 1.477943
1084.40 1.477703
1084.50 1.477464
1084.60 1.477225
1084.70 1.476986
1084.80 1.476747
1084.90 1.476508
1085.00 1.476269
1085.10 1.47603
1085.20 1.475791
1085.30 1.475552
1085.40 1.475313
1085.50 1.475075
1085.60 1.474836
1085.70 1.474598
1085.80 1.474359
1085.90 1.474121
1086.00 1.473882
1086.10 1.473644
1086.20 1.473406
1086.30 1.473168
1086.40 1.47293
1086.50 1.472692
1086.60 1.472454
1086.70 1.472216
1086.80 1.471978
1086.90 1.47174
1087.00 1.471502
1087.10 1.471265
1087.20 1.471027
1087.30 1.47079
1087.40 1.470552
1087.50 1.470315
1087.60 1.470077
1087.70 1.46984
1087.80 1.469603
1087.90 1.469366
1088.00 1.469129
1088.10 1.468892
1088.20 1.468655
1088.30 1.468418
1088.40 1.468181
1088.50 1.467944
1088.60 1.467708
1088.70 1.467471
1088.80 1.467234
1088.90 1.466998
1089.00 1.466761
1089.10 1.466525
1089.20 1.466289
1089.30 1.466052
1089.40 1.465816
1089.50 1.46558
1089.60 1.465344
1089.70 1.465108
1089.80 1.464872
1089.90 1.464636
1090.00 1.4644
1090.10 1.464164
1090.20 1.463929
1090.30 1.463693
1090.40 1.463457
1090.50 1.463222
1090.60 1.462986
1090.70 1.462751
1090.80 1.462516
1090.90 1.46228
1091.00 1.462045
1091.10 1.46181
1091.20 1.461575
1091.30 1.46134
1091.40 1.461105
1091.50 1.46087
1091.60 1.460635
1091.70 1.4604
1091.80 1.460165
1091.90 1.459931
1092.00 1.459696
1092.10 1.459462
1092.20 1.459227
1092.30 1.458993
1092.40 1.458758
1092.50 1.458524
1092.60 1.45829
1092.70 1.458056
1092.80 1.457822
1092.90 1.457587
1093.00 1.457353
1093.10 1.45712
1093.20 1.456886
1093.30 1.456652
1093.40 1.456418
1093.50 1.456184
1093.60 1.455951
1093.70 1.455717
1093.80 1.455484
1093.90 1.45525
1094.00 1.455017
1094.10 1.454784
1094.20 1.45455
1094.30 1.454317
1094.40 1.454084
1094.50 1.453851
1094.60 1.453618
1094.70 1.453385
1094.80 1.45315
1094.90 1.452914
1095.00 1.452678
1095.10 1.452441
1095.20 1.452205
1095.30 1.451969
1095.40 1.451733
1095.50 1.451497
1095.60 1.451261
1095.70 1.451025
1095.80 1.450789
1095.90 1.450553
1096.00 1.450318
1096.10 1.450082
1096.20 1.449846
1096.30 1.449611
1096.40 1.449375
1096.50 1.44914
1096.60 1.448905
1096.70 1.448669
1096.80 1.448434
1096.90 1.448199
1097.00 1.447964
1097.10 1.447729
1097.20 1.447494
1097.30 1.447259
1097.40 1.447024
1097.50 1.446789
1097.60 1.446555
1097.70 1.44632
1097.80 1.446085
1097.90 1.445851
1098.00 1.445616
1098.10 1.445382
1098.20 1.445148
1098.30 1.444913
1098.40 1.444679
1098.50 1.444445
1098.60 1.444211
1098.70 1.443977
1098.80 1.443743
1098.90 1.443509
1099.00 1.443275
1099.10 1.443041
1099.20 1.442808
1099.30 1.442574
1099.40 1.44234
1099.50 1.442107
1099.60 1.441873
1099.70 1.44164
1099.80 1.441406
1099.90 1.441173
1100.00 1.44094
1100.10 1.440707
1100.20 1.440474
1100.30 1.44024
1100.40 1.440007
1100.50 1.439775
1100.60 1.439542
1100.70 1.439309
1100.80 1.439076
1100.90 1.438843
1101.00 1.438611
1101.10 1.438378
1101.20 1.438146
1101.30 1.437913
1101.40 1.437681
1101.50 1.437448
1101.60 1.437216
1101.70 1.436984
1101.80 1.436752
1101.90 1.43652
1102.00 1.436288
1102.10 1.436056
1102.20 1.435824
1102.30 1.435592
1102.40 1.43536
1102.50 1.435128
1102.60 1.434897
1102.70 1.434665
1102.80 1.434434
1102.90 1.434202
1103.00 1.433971
1103.10 1.433739
1103.20 1.433508
1103.30 1.433277
1103.40 1.433046
1103.50 1.432814
1103.60 1.432583
1103.70 1.432352
1103.80 1.432121
1103.90 1.43189
1104.00 1.43166
1104.10 1.431429
1104.20 1.431198
1104.30 1.430968
1104.40 1.430737
1104.50 1.430506
1104.60 1.430276
1104.70 1.430046
1104.80 1.429815
1104.90 1.429585
1105.00 1.429355
1105.10 1.429125
1105.20 1.428894
1105.30 1.428664
1105.40 1.428434
1105.50 1.428204
1105.60 1.427975
1105.70 1.427745
1105.80 1.427512
1105.90 1.427278
1106.00 1.427045
1106.10 1.426812
1106.20 1.42658
1106.30 1.426347
1106.40 1.426114
1106.50 1.425881
1106.60 1.425648
1106.70 1.425416
1106.80 1.425183
1106.90 1.424951
1107.00 1.424718
1107.10 1.424486
1107.20 1.424254
1107.30 1.424021
1107.40 1.423789
1107.50 1.423557
1107.60 1.423325
1107.70 1.423093
1107.80 1.422861
1107.90 1.422629
1108.00 1.422397
1108.10 1.422166
1108.20 1.421934
1108.30 1.421702
1108.40 1.421471
1108.50 1.421239
1108.60 1.421008
1108.70 1.420776
1108.80 1.420545
1108.90 1.420314
1109.00 1.420083
1109.10 1.419851
1109.20 1.41962
1109.30 1.419389
1109.40 1.419158
1109.50 1.418927
1109.60 1.418696
1109.70 1.418466
1109.80 1.418235
1109.90 1.418004
1110.00 1.417774
1110.10 1.417543
1110.20 1.417313
1110.30 1.417082
1110.40 1.416852
1110.50 1.416621
1110.60 1.416391
1110.70 1.416161
1110.80 1.415931
1110.90 1.415701
1111.00 1.415471
1111.10 1.415241
1111.20 1.415011
1111.30 1.414781
1111.40 1.414551
1111.50 1.414322
1111.60 1.414092
1111.70 1.413862
1111.80 1.413633
1111.90 1.413403
1112.00 1.413174
1112.10 1.412945
1112.20 1.412715
1112.30 1.412486
1112.40 1.412257
1112.50 1.412028
1112.60 1.411799
1112.70 1.41157
1112.80 1.411341
1112.90 1.411112
1113.00 1.410883
1113.10 1.410654
1113.20 1.410425
1113.30 1.410197
1113.40 1.409968
1113.50 1.40974
1113.60 1.409511
1113.70 1.409283
1113.80 1.409054
1113.90 1.408826
1114.00 1.408598
1114.10 1.40837
1114.20 1.408142
1114.30 1.407914
1114.40 1.407686
1114.50 1.407458
1114.60 1.40723
1114.70 1.407002
1114.80 1.406774
1114.90 1.406547
1115.00 1.406319
1115.10 1.406091
1115.20 1.405864
1115.30 1.405636
1115.40 1.405409
1115.50 1.405182
1115.60 1.404954
1115.70 1.404727
1115.80 1.4045
1115.90 1.404273
1116.00 1.404046
1116.10 1.403819
1116.20 1.403592
1116.30 1.403365
1116.40 1.403138
1116.50 1.402911
1116.60 1.402685
1116.70 1.402458
1116.80 1.402229
1116.90 1.401996
1117.00 1.401763
1117.10 1.40153
1117.20 1.401298
1117.30 1.401065
1117.40 1.400832
1117.50 1.4006
1117.60 1.400368
1117.70 1.400135
1117.80 1.399903
1117.90 1.399671
1118.00 1.399439
1118.10 1.399206
1118.20 1.398974
1118.30 1.398742
1118.40 1.39851
1118.50 1.398279
1118.60 1.398047
1118.70 1.397815
1118.80 1.397583
1118.90 1.397352
1119.00 1.39712
1119.10 1.396889
1119.20 1.396657
1119.30 1.396426
1119.40 1.396194
1119.50 1.395963
1119.60 1.395732
1119.70 1.395501
1119.80 1.39527
1119.90 1.395039
1120.00 1.394808
1120.10 1.394577
1120.20 1.394346
1120.30 1.394115
1120.40 1.393884
1120.50 1.393654
1120.60 1.393423
1120.70 1.393193
1120.80 1.392962
1120.90 1.392732
1121.00 1.392501
1121.10 1.392271
1121.20 1.392041
1121.30 1.391811
1121.40 1.39158
1121.50 1.39135
1121.60 1.39112
1121.70 1.39089
1121.80 1.390661
1121.90 1.390431
1122.00 1.390201
1122.10 1.389971
1122.20 1.389742
1122.30 1.389512
1122.40 1.389283
1122.50 1.389053
1122.60 1.388824
1122.70 1.388594
1122.80 1.388365
1122.90 1.388136
1123.00 1.387907
1123.10 1.387678
1123.20 1.387449
1123.30 1.38722
1123.40 1.386991
1123.50 1.386762
1123.60 1.386533
1123.70 1.386304
1123.80 1.386075
1123.90 1.385847
1124.00 1.385618
1124.10 1.38539
1124.20 1.385161
1124.30 1.384933
1124.40 1.384705
1124.50 1.384476
1124.60 1.384248
1124.70 1.38402
1124.80 1.383792
1124.90 1.383564
1125.00 1.383336
1125.10 1.383108
1125.20 1.38288
1125.30 1.382652
1125.40 1.382425
1125.50 1.382197
1125.60 1.381969
1125.70 1.381742
1125.80 1.381514
1125.90 1.381287
1126.00 1.381059
1126.10 1.380832
1126.20 1.380605
1126.30 1.380378
1126.40 1.38015
1126.50 1.379923
1126.60 1.379696
1126.70 1.379469
1126.80 1.379242
1126.90 1.379016
1127.00 1.378789
1127.10 1.378562
1127.20 1.378335
1127.30 1.378109
1127.40 1.377882
1127.50 1.377656
1127.60 1.377429
1127.70 1.377203
1127.80 1.376976
1127.90 1.37675
1128.00 1.376522
1128.10 1.376292
1128.20 1.376063
1128.30 1.375834
1128.40 1.375605
1128.50 1.375376
1128.60 1.375147
1128.70 1.374918
1128.80 1.374689
1128.90 1.37446
1129.00 1.374231
1129.10 1.374003
1129.20 1.373774
1129.30 1.373546
1129.40 1.373317
1129.50 1.373089
1129.60 1.37286
1129.70 1.372632
1129.80 1.372404
1129.90 1.372175
1130.00 1.371947
1130.10 1.371719
1130.20 1.371491
1130.30 1.371263
1130.40 1.371035
1130.50 1.370807
1130.60 1.37058
1130.70 1.370352
1130.80 1.370124
1130.90 1.369896
1131.00 1.369669
1131.10 1.369441
1131.20 1.369214
1131.30 1.368987
1131.40 1.368759
1131.50 1.368532
1131.60 1.368305
1131.70 1.368078
1131.80 1.367851
1131.90 1.367624
1132.00 1.367397
1132.10 1.36717
1132.20 1.366943
1132.30 1.366716
1132.40 1.366489
1132.50 1.366263
1132.60 1.366036
1132.70 1.365809
1132.80 1.365583
1132.90 1.365356
1133.00 1.36513
1133.10 1.364904
1133.20 1.364678
1133.30 1.364451
1133.40 1.364225
1133.50 1.363999
1133.60 1.363773
1133.70 1.363547
1133.80 1.363321
1133.90 1.363095
1134.00 1.362869
1134.10 1.362644
1134.20 1.362418
1134.30 1.362192
1134.40 1.361967
1134.50 1.361741
1134.60 1.361516
1134.70 1.361291
1134.80 1.361065
1134.90 1.36084
1135.00 1.360615
1135.10 1.36039
1135.20 1.360164
1135.30 1.359939
1135.40 1.359714
1135.50 1.35949
1135.60 1.359265
1135.70 1.35904
1135.80 1.358815
1135.90 1.35859
1136.00 1.358366
1136.10 1.358141
1136.20 1.357917
1136.30 1.357692
1136.40 1.357468
1136.50 1.357243
1136.60 1.357019
1136.70 1.356795
1136.80 1.356571
1136.90 1.356347
1137.00 1.356123
1137.10 1.355899
1137.20 1.355675
1137.30 1.355451
1137.40 1.355227
1137.50 1.355003
1137.60 1.35478
1137.70 1.354556
1137.80 1.354332
1137.90 1.354109
1138.00 1.353885
1138.10 1.353662
1138.20 1.353439
1138.30 1.353215
1138.40 1.352992
1138.50 1.352769
1138.60 1.352546
1138.70 1.352323
1138.80 1.3521
1138.90 1.351877
1139.00 1.351654
1139.10 1.351431
1139.20 1.351208
1139.30 1.35098
1139.40 1.350751
1139.50 1.350523
1139.60 1.350294
1139.70 1.350066
1139.80 1.349837
1139.90 1.349609
1140.00 1.349381
1140.10 1.349153
1140.20 1.348925
1140.30 1.348697
1140.40 1.348469
1140.50 1.348241
1140.60 1.348013
1140.70 1.347785
1140.80 1.347558
1140.90 1.34733
1141.00 1.347102
1141.10 1.346875
1141.20 1.346647
1141.30 1.34642
1141.40 1.346193
1141.50 1.345965
1141.60 1.345738
1141.70 1.345511
1141.80 1.345284
1141.90 1.345057
1142.00 1.34483
1142.10 1.344603
1142.20 1.344376
1142.30 1.344149
1142.40 1.343922
1142.50 1.343696
1142.60 1.343469
1142.70 1.343242
1142.80 1.343016
1142.90 1.342789
1143.00 1.342563
1143.10 1.342337
1143.20 1.34211
1143.30 1.341884
1143.40 1.341658
1143.50 1.341432
1143.60 1.341206
1143.70 1.34098
1143.80 1.340754
1143.90 1.340528
1144.00 1.340302
1144.10 1.340076
1144.20 1.339851
1144.30 1.339625
1144.40 1.339399
1144.50 1.339174
1144.60 1.338948
1144.70 1.338723
1144.80 1.338498
1144.90 1.338272
1145.00 1.338047
1145.10 1.337822
1145.20 1.337597
1145.30 1.337372
1145.40 1.337147
1145.50 1.336922
1145.60 1.336697
1145.70 1.336472
1145.80 1.336247
1145.90 1.336023
1146.00 1.335798
1146.10 1.335573
1146.20 1.335349
1146.30 1.335124
1146.40 1.3349
1146.50 1.334675
1146.60 1.334451
1146.70 1.334227
1146.80 1.334003
1146.90 1.333779
1147.00 1.333554
1147.10 1.33333
1147.20 1.333106
1147.30 1.332883
1147.40 1.332659
1147.50 1.332435
1147.60 1.332211
1147.70 1.331988
1147.80 1.331764
1147.90 1.33154
1148.00 1.331317
1148.10 1.331093
1148.20 1.33087
1148.30 1.330647
1148.40 1.330423
1148.50 1.3302
1148.60 1.329977
1148.70 1.329754
1148.80 1.329531
1148.90 1.329308
1149.00 1.329085
1149.10 1.328862
1149.20 1.328639
1149.30 1.328417
1149.40 1.328194
1149.50 1.327971
1149.60 1.327749
1149.70 1.327526
1149.80 1.327304
1149.90 1.327081
1150.00 1.326859
1150.10 1.326637
1150.20 1.326414
1150.30 1.326192
1150.40 1.32597
1150.50 1.325748
1150.60 1.325526
1150.70 1.325307
1150.80 1.325088
1150.90 1.324868
1151.00 1.324649
1151.10 1.32443
1151.20 1.324211
1151.30 1.323992
1151.40 1.323774
1151.50 1.323555
1151.60 1.323336
1151.70 1.323117
1151.80 1.322899
1151.90 1.32268
1152.00 1.322462
1152.10 1.322243
1152.20 1.322025
1152.30 1.321806
1152.40 1.321588
1152.50 1.32137
1152.60 1.321152
1152.70 1.320933
1152.80 1.320715
1152.90 1.320497
1153.00 1.320279
1153.10 1.320061
1153.20 1.319844
1153.30 1.319626
1153.40 1.319408
1153.50 1.31919
1153.60 1.318973
1153.70 1.318755
1153.80 1.318538
1153.90 1.31832
1154.00 1.318103
1154.10 1.317885
1154.20 1.317668
1154.30 1.317451
1154.40 1.317234
1154.50 1.317017
1154.60 1.316799
1154.70 1.316582
1154.80 1.316365
1154.90 1.316149
1155.00 1.315932
1155.10 1.315715
1155.20 1.315498
1155.30 1.315281
1155.40 1.315065
1155.50 1.314848
1155.60 1.314632
1155.70 1.314415
1155.80 1.314199
1155.90 1.313982
1156.00 1.313766
1156.10 1.31355
1156.20 1.313334
1156.30 1.313118
1156.40 1.312899
1156.50 1.312677
1156.60 1.312456
1156.70 1.312234
1156.80 1.312013
1156.90 1.311791
1157.00 1.31157
1157.10 1.311349
1157.20 1.311128
1157.30 1.310907
1157.40 1.310686
1157.50 1.310465
1157.60 1.310244
1157.70 1.310023
1157.80 1.309802
1157.90 1.309581
1158.00 1.309361
1158.10 1.30914
1158.20 1.30892
1158.30 1.308699
1158.40 1.308479
1158.50 1.308258
1158.60 1.308038
1158.70 1.307818
1158.80 1.307597
1158.90 1.307377
1159.00 1.307157
1159.10 1.306937
1159.20 1.306717
1159.30 1.306497
1159.40 1.306277
1159.50 1.306057
1159.60 1.305838
1159.70 1.305618
1159.80 1.305398
1159.90 1.305179
1160.00 1.304959
1160.10 1.30474
1160.20 1.30452
1160.30 1.304301
1160.40 1.304081
1160.50 1.303862
1160.60 1.303643
1160.70 1.303424
1160.80 1.303205
1160.90 1.302986
1161.00 1.302767
1161.10 1.302548
1161.20 1.302329
1161.30 1.30211
1161.40 1.301891
1161.50 1.301673
1161.60 1.301454
1161.70 1.301235
1161.80 1.301017
1161.90 1.300798
1162.00 1.30058
1162.10 1.300361
1162.20 1.300138
1162.30 1.299914
1162.40 1.29969
1162.50 1.299467
1162.60 1.299243
1162.70 1.29902
1162.80 1.298796
1162.90 1.298573
1163.00 1.29835
1163.10 1.298126
1163.20 1.297903
1163.30 1.29768
1163.40 1.297457
1163.50 1.297234
1163.60 1.297011
1163.70 1.296788
1163.80 1.296565
1163.90 1.296342
1164.00 1.29612
1164.10 1.295897
1164.20 1.295674
1164.30 1.295452
1164.40 1.295229
1164.50 1.295007
1164.60 1.294785
1164.70 1.294562
1164.80 1.29434
1164.90 1.294118
1165.00 1.293896
1165.10 1.293673
1165.20 1.293451
1165.30 1.293229
1165.40 1.293008
1165.50 1.292786
1165.60 1.292564
1165.70 1.292342
1165.80 1.29212
1165.90 1.291899
1166.00 1.291677
1166.10 1.291456
1166.20 1.291234
1166.30 1.291013
1166.40 1.290791
1166.50 1.29057
1166.60 1.290349
1166.70 1.290128
1166.80 1.289907
1166.90 1.289685
1167.00 1.289464
1167.10 1.289243
1167.20 1.289023
1167.30 1.288802
1167.40 1.288581
1167.50 1.28836
1167.60 1.28814
1167.70 1.287919
1167.80 1.287698
1167.90 1.287478
1168.00 1.287262
1168.10 1.287047
1168.20 1.286832
1168.30 1.286617
1168.40 1.286402
1168.50 1.286187
1168.60 1.285973
1168.70 1.285758
1168.80 1.285543
1168.90 1.285329
1169.00 1.285114
1169.10 1.2849
1169.20 1.284685
1169.30 1.284471
1169.40 1.284256
1169.50 1.284042
1169.60 1.283828
1169.70 1.283614
1169.80 1.2834
1169.90 1.283186
1170.00 1.282972
1170.10 1.282758
1170.20 1.282544
1170.30 1.28233
1170.40 1.282116
1170.50 1.281902
1170.60 1.281689
1170.70 1.281475
1170.80 1.281261
1170.90 1.281048
1171.00 1.280834
1171.10 1.280621
1171.20 1.280408
1171.30 1.280194
1171.40 1.279981
1171.50 1.279768
1171.60 1.279555
1171.70 1.279342
1171.80 1.279129
1171.90 1.278916
1172.00 1.278703
1172.10 1.27849
1172.20 1.278277
1172.30 1.278064
1172.40 1.277851
1172.50 1.277639
1172.60 1.277426
1172.70 1.277214
1172.80 1.277001
1172.90 1.276789
1173.00 1.276576
1173.10 1.276364
1173.20 1.276152
1173.30 1.275939
1173.40 1.275727
1173.50 1.275515
1173.60 1.275303
1173.70 1.275091
1173.80 1.274875
1173.90 1.274658
1174.00 1.274441
1174.10 1.274224
1174.20 1.274006
1174.30 1.27379
1174.40 1.273573
1174.50 1.273356
1174.60 1.273139
1174.70 1.272922
1174.80 1.272705
1174.90 1.272489
1175.00 1.272272
1175.10 1.272056
1175.20 1.271839
1175.30 1.271623
1175.40 1.271406
1175.50 1.27119
1175.60 1.270974
1175.70 1.270758
1175.80 1.270542
1175.90 1.270325
1176.00 1.270109
1176.10 1.269893
1176.20 1.269678
1176.30 1.269462
1176.40 1.269246
1176.50 1.26903
1176.60 1.268814
1176.70 1.268599
1176.80 1.268383
1176.90 1.268168
1177.00 1.267952
1177.10 1.267737
1177.20 1.267521
1177.30 1.267306
1177.40 1.267091
1177.50 1.266876
1177.60 1.26666
1177.70 1.266445
1177.80 1.26623
1177.90 1.266015
1178.00 1.2658
1178.10 1.265585
1178.20 1.265371
1178.30 1.265156
1178.40 1.264941
1178.50 1.264727
1178.60 1.264512
1178.70 1.264297
1178.80 1.264083
1178.90 1.263868
1179.00 1.263654
1179.10 1.26344
1179.20 1.263225
1179.30 1.263011
1179.40 1.262797
1179.50 1.262583
1179.60 1.262368
1179.70 1.262149
1179.80 1.26193
1179.90 1.261711
1180.00 1.261492
1180.10 1.261273
1180.20 1.261054
1180.30 1.260835
1180.40 1.260616
1180.50 1.260398
1180.60 1.260179
1180.70 1.25996
1180.80 1.259742
1180.90 1.259523
1181.00 1.259305
1181.10 1.259086
1181.20 1.258868
1181.30 1.25865
1181.40 1.258431
1181.50 1.258213
1181.60 1.257995
1181.70 1.257777
1181.80 1.257559
1181.90 1.257341
1182.00 1.257123
1182.10 1.256905
1182.20 1.256688
1182.30 1.25647
1182.40 1.256252
1182.50 1.256034
1182.60 1.255817
1182.70 1.255599
1182.80 1.255382
1182.90 1.255165
1183.00 1.254947
1183.10 1.25473
1183.20 1.254513
1183.30 1.254295
1183.40 1.254078
1183.50 1.253861
1183.60 1.253644
1183.70 1.253427
1183.80 1.25321
1183.90 1.252994
1184.00 1.252777
1184.10 1.25256
1184.20 1.252343
1184.30 1.252127
1184.40 1.25191
1184.50 1.251694
1184.60 1.251477
1184.70 1.251261
1184.80 1.251044
1184.90 1.250828
1185.00 1.250612
1185.10 1.250396
1185.20 1.25018
1185.30 1.249963
1185.40 1.249747
1185.50 1.249534
1185.60 1.249323
1185.70 1.249112
1185.80 1.248902
1185.90 1.248691
1186.00 1.24848
1186.10 1.24827
1186.20 1.248059
1186.30 1.247849
1186.40 1.247639
1186.50 1.247428
1186.60 1.247218
1186.70 1.247008
1186.80 1.246798
1186.90 1.246588
1187.00 1.246378
1187.10 1.246168
1187.20 1.245958
1187.30 1.245748
1187.40 1.245538
1187.50 1.245328
1187.60 1.245119
1187.70 1.244909
1187.80 1.244699
1187.90 1.24449
1188.00 1.24428
1188.10 1.244071
1188.20 1.243861
1188.30 1.243652
1188.40 1.243443
1188.50 1.243234
1188.60 1.243024
1188.70 1.242815
1188.80 1.242606
1188.90 1.242397
1189.00 1.242188
1189.10 1.241979
1189.20 1.24177
1189.30 1.241562
1189.40 1.241353
1189.50 1.241144
1189.60 1.240935
1189.70 1.240727
1189.80 1.240518
1189.90 1.24031
1190.00 1.240101
1190.10 1.239893
1190.20 1.239685
1190.30 1.239476
1190.40 1.239268
1190.50 1.23906
1190.60 1.238852
1190.70 1.238644
1190.80 1.238436
1190.90 1.238228
1191.00 1.23802
1191.10 1.237812
1191.20 1.237604
1191.30 1.237396
1191.40 1.237188
1191.50 1.236975
1191.60 1.236762
1191.70 1.23655
1191.80 1.236337
1191.90 1.236125
1192.00 1.235912
1192.10 1.2357
1192.20 1.235488
1192.30 1.235275
1192.40 1.235063
1192.50 1.234851
1192.60 1.234639
1192.70 1.234427
1192.80 1.234215
1192.90 1.234003
1193.00 1.233791
1193.10 1.233579
1193.20 1.233368
1193.30 1.233156
1193.40 1.232944
1193.50 1.232733
1193.60 1.232521
1193.70 1.232309
1193.80 1.232098
1193.90 1.231887
1194.00 1.231675
1194.10 1.231464
1194.20 1.231253
1194.30 1.231042
1194.40 1.23083
1194.50 1.230619
1194.60 1.230408
1194.70 1.230197
1194.80 1.229986
1194.90 1.229776
1195.00 1.229565
1195.10 1.229354
1195.20 1.229143
1195.30 1.228933
1195.40 1.228722
1195.50 1.228511
1195.60 1.228301
1195.70 1.228091
1195.80 1.22788
1195.90 1.22767
1196.00 1.227459
1196.10 1.227249
1196.20 1.227039
1196.30 1.226829
1196.40 1.226619
1196.50 1.226409
1196.60 1.226199
1196.70 1.225989
1196.80 1.225779
1196.90 1.225569
1197.00 1.22536
1197.10 1.22515
1197.20 1.22494
1197.30 1.224731
1197.40 1.224521
1197.50 1.224312
1197.60 1.224102
1197.70 1.223893
1197.80 1.223684
1197.90 1.223475
1198.00 1.223265
1198.10 1.223056
1198.20 1.222847
1198.30 1.222638
1198.40 1.222429
1198.50 1.22222
1198.60 1.222011
1198.70 1.221803
1198.80 1.221594
1198.90 1.221385
1199.00 1.221177
1199.10 1.220968
1199.20 1.220759
1199.30 1.220551
1199.40 1.220342
1199.50 1.220134
1199.60 1.219926
1199.70 1.219717
1199.80 1.219509
1199.90 1.219301
1200.00 1.219093
