# Version 2.1 - nm, norm@500 to 1, cut digits, bergeron_He_6500_70.dat_6500
# Wavelength(nm)  Flambda(ergs/cm^s/s/nm)
300.00 0.6808789
300.10 0.6814209
300.20 0.681955
300.30 0.6824981
300.40 0.6831065
300.50 0.683714
300.60 0.6843206
300.70 0.6849262
300.80 0.6855308
300.90 0.6861345
301.00 0.6867372
301.10 0.687339
301.20 0.6879398
301.30 0.6885396
301.40 0.6891386
301.50 0.6897365
301.60 0.6903336
301.70 0.6909297
301.80 0.6915248
301.90 0.692119
302.00 0.6927123
302.10 0.6933279
302.20 0.6939452
302.30 0.6945614
302.40 0.6951768
302.50 0.6957911
302.60 0.6964045
302.70 0.6970169
302.80 0.6976284
302.90 0.6982389
303.00 0.6988484
303.10 0.699457
303.20 0.7000647
303.30 0.70067
303.40 0.7012624
303.50 0.7018538
303.60 0.7024443
303.70 0.7030338
303.80 0.7036225
303.90 0.7042102
304.00 0.7047969
304.10 0.7053828
304.20 0.7059677
304.30 0.7065517
304.40 0.7071348
304.50 0.707717
304.60 0.7083071
304.70 0.7088972
304.80 0.7094864
304.90 0.7100747
305.00 0.7106621
305.10 0.7112485
305.20 0.711834
305.30 0.7124186
305.40 0.7130023
305.50 0.713585
305.60 0.7141669
305.70 0.7147478
305.80 0.7153278
305.90 0.7159069
306.00 0.7164851
306.10 0.7170624
306.20 0.7176388
306.30 0.7182143
306.40 0.7187943
306.50 0.7193751
306.60 0.7199549
306.70 0.7205339
306.80 0.7211119
306.90 0.7216891
307.00 0.7222653
307.10 0.7228406
307.20 0.723415
307.30 0.7239886
307.40 0.7245612
307.50 0.7251329
307.60 0.7257037
307.70 0.7262737
307.80 0.7268427
307.90 0.7274109
308.00 0.7279781
308.10 0.7285445
308.20 0.72911
308.30 0.7296746
308.40 0.7302383
308.50 0.7308011
308.60 0.731363
308.70 0.7319241
308.80 0.7324822
308.90 0.7330338
309.00 0.7335692
309.10 0.7341038
309.20 0.7346376
309.30 0.7351705
309.40 0.735711
309.50 0.7363018
309.60 0.7368917
309.70 0.7374806
309.80 0.7380687
309.90 0.7386558
310.00 0.739242
310.10 0.7398274
310.20 0.7404118
310.30 0.7409953
310.40 0.7415624
310.50 0.7421118
310.60 0.7426604
310.70 0.7432081
310.80 0.7437549
310.90 0.7443009
311.00 0.744845
311.10 0.7453883
311.20 0.7459308
311.30 0.7464772
311.40 0.7470365
311.50 0.747595
311.60 0.7481526
311.70 0.7487093
311.80 0.7492652
311.90 0.7498202
312.00 0.7503743
312.10 0.7509276
312.20 0.7515264
312.30 0.7520848
312.40 0.7525861
312.50 0.7530659
312.60 0.7536019
312.70 0.754137
312.80 0.7546713
312.90 0.755233
313.00 0.7558243
313.10 0.7564146
313.20 0.7570041
313.30 0.757584
313.40 0.7581383
313.50 0.7586916
313.60 0.7592442
313.70 0.7597958
313.80 0.7603466
313.90 0.7608966
314.00 0.7614457
314.10 0.7619621
314.20 0.7624778
314.30 0.7629926
314.40 0.7635067
314.50 0.7640199
314.60 0.7645324
314.70 0.765044
314.80 0.7656275
314.90 0.7662885
315.00 0.7668097
315.10 0.7673167
315.20 0.7678229
315.30 0.7683283
315.40 0.7688329
315.50 0.7693367
315.60 0.7698397
315.70 0.7704038
315.80 0.770967
315.90 0.7715293
316.00 0.7720908
316.10 0.7725897
316.20 0.7730878
316.30 0.7737084
316.40 0.7742049
316.50 0.7748237
316.60 0.7753185
316.70 0.7758125
316.80 0.7763058
316.90 0.7768597
317.00 0.7774128
317.10 0.7779649
317.20 0.7785163
317.30 0.7790112
317.40 0.7795181
317.50 0.780061
317.60 0.7806029
317.70 0.7811441
317.80 0.7816844
317.90 0.782156
318.00 0.7826782
318.10 0.7832221
318.20 0.7837651
318.30 0.7843073
318.40 0.7848329
318.50 0.7853126
318.60 0.7858548
318.70 0.786333
318.80 0.7867377
318.90 0.7872872
319.00 0.7879425
319.10 0.7884176
319.20 0.7889065
319.30 0.7894364
319.40 0.7899655
319.50 0.7904938
319.60 0.7910378
319.70 0.7915644
319.80 0.7920902
319.90 0.7926152
320.00 0.7931125
320.10 0.7935798
320.20 0.7940408
320.30 0.7946277
320.40 0.7949967
320.50 0.7955571
320.60 0.7961455
320.70 0.7966083
320.80 0.7970991
320.90 0.7976203
321.00 0.7981406
321.10 0.7986602
321.20 0.7991885
321.30 0.7996831
321.40 0.8001769
321.50 0.80067
321.60 0.8011623
321.70 0.8016538
321.80 0.8021334
321.90 0.8026
322.00 0.8031004
322.10 0.8036071
322.20 0.8041131
322.30 0.8046182
322.40 0.8051226
322.50 0.8056262
322.60 0.806129
322.70 0.806631
322.80 0.8071508
322.90 0.8076593
323.00 0.808167
323.10 0.808674
323.20 0.8091802
323.30 0.8096855
323.40 0.8101901
323.50 0.8106939
323.60 0.811197
323.70 0.8116993
323.80 0.8122008
323.90 0.8127015
324.00 0.813205
324.10 0.8137077
324.20 0.8142097
324.30 0.8146845
324.40 0.8151336
324.50 0.8156359
324.60 0.8161374
324.70 0.8166382
324.80 0.8171382
324.90 0.8176374
325.00 0.8181358
325.10 0.8186335
325.20 0.8191224
325.30 0.8195933
325.40 0.8200636
325.50 0.8205437
325.60 0.8210359
325.70 0.8215274
325.80 0.8220181
325.90 0.8225063
326.00 0.8229916
326.10 0.8234762
326.20 0.82396
326.30 0.8244252
326.40 0.8248388
326.50 0.8253215
326.60 0.8258035
326.70 0.8262847
326.80 0.8267652
326.90 0.8272449
327.00 0.8277239
327.10 0.8282022
327.20 0.8286797
327.30 0.8291565
327.40 0.8296325
327.50 0.8301078
327.60 0.8305824
327.70 0.8310562
327.80 0.8315293
327.90 0.8319592
328.00 0.8323863
328.10 0.8328665
328.20 0.833346
328.30 0.8338247
328.40 0.8343027
328.50 0.8348164
328.60 0.8353378
328.70 0.8358585
328.80 0.8363621
328.90 0.8368189
329.00 0.8372749
329.10 0.8377302
329.20 0.8381849
329.30 0.8386388
329.40 0.839092
329.50 0.8395445
329.60 0.8399964
329.70 0.8404475
329.80 0.8408979
329.90 0.8413476
330.00 0.8418015
330.10 0.8422608
330.20 0.8427193
330.30 0.8431772
330.40 0.8436419
330.50 0.844114
330.60 0.8445855
330.70 0.8450562
330.80 0.8455261
330.90 0.8459954
331.00 0.8464639
331.10 0.8469317
331.20 0.8473988
331.30 0.8478652
331.40 0.8483309
331.50 0.8487619
331.60 0.8491509
331.70 0.8495392
331.80 0.8500024
331.90 0.850468
332.00 0.850933
332.10 0.8513972
332.20 0.8518607
332.30 0.8523235
332.40 0.8527855
332.50 0.8532469
332.60 0.8537076
332.70 0.8541675
332.80 0.8546268
332.90 0.8550853
333.00 0.8555431
333.10 0.8559935
333.20 0.8564351
333.30 0.8568759
333.40 0.857316
333.50 0.8577555
333.60 0.8581943
333.70 0.8586324
333.80 0.8590698
333.90 0.8595066
334.00 0.8599426
334.10 0.8603813
334.20 0.8608234
334.30 0.8612648
334.40 0.8617055
334.50 0.8621456
334.60 0.8625849
334.70 0.8629753
334.80 0.8633724
334.90 0.863864
335.00 0.8643549
335.10 0.8647148
335.20 0.8651867
335.30 0.8654879
335.40 0.8660681
335.50 0.8664283
335.60 0.8668701
335.70 0.8673167
335.80 0.8677844
335.90 0.8682269
336.00 0.8686386
336.10 0.8690497
336.20 0.8694602
336.30 0.8698781
336.40 0.8703055
336.50 0.8707321
336.60 0.8711581
336.70 0.8715835
336.80 0.8720082
336.90 0.8724441
337.00 0.872894
337.10 0.8733432
337.20 0.8737917
337.30 0.8742313
337.40 0.8746583
337.50 0.8750846
337.60 0.8755103
337.70 0.8759353
337.80 0.8763596
337.90 0.8767737
338.00 0.8771754
338.10 0.8775765
338.20 0.877977
338.30 0.8783768
338.40 0.878784
338.50 0.8792102
338.60 0.8796357
338.70 0.8800606
338.80 0.8804848
338.90 0.8809084
339.00 0.8813313
339.10 0.8817536
339.20 0.8821752
339.30 0.8825689
339.40 0.8829228
339.50 0.8833041
339.60 0.8837187
339.70 0.8841327
339.80 0.8845461
339.90 0.8849589
340.00 0.885371
340.10 0.8857825
340.20 0.8861933
340.30 0.8866035
340.40 0.887013
340.50 0.887422
340.60 0.8878303
340.70 0.8882379
340.80 0.8886198
340.90 0.8889647
341.00 0.8893371
341.10 0.8897432
341.20 0.8901486
341.30 0.8905533
341.40 0.8909575
341.50 0.891361
341.60 0.8917639
341.70 0.8921662
341.80 0.8925769
341.90 0.8929981
342.00 0.8934186
342.10 0.8938385
342.20 0.89428
342.30 0.894695
342.40 0.8950845
342.50 0.8954791
342.60 0.8958731
342.70 0.8962664
342.80 0.8966592
342.90 0.8970513
343.00 0.8974283
343.10 0.8977868
343.20 0.8981448
343.30 0.8985023
343.40 0.8988842
343.50 0.8993015
343.60 0.8997182
343.70 0.9001342
343.80 0.9005496
343.90 0.9009644
344.00 0.9013572
344.10 0.9017186
344.20 0.9020795
344.30 0.9024398
344.40 0.9028209
344.50 0.903232
344.60 0.9036798
344.70 0.9039911
344.80 0.9042966
344.90 0.904809
345.00 0.9050709
345.10 0.9054783
345.20 0.905876
345.30 0.9062599
345.40 0.9066431
345.50 0.9070645
345.60 0.9074922
345.70 0.9078616
345.80 0.9082303
345.90 0.9085985
346.00 0.9089661
346.10 0.9093332
346.20 0.9097052
346.30 0.9100848
346.40 0.9104638
346.50 0.9108422
346.60 0.9112201
346.70 0.9115973
346.80 0.911974
346.90 0.91235
347.00 0.9127255
347.10 0.9131004
347.20 0.9134721
347.30 0.9138394
347.40 0.9142061
347.50 0.9145723
347.60 0.9149379
347.70 0.9153029
347.80 0.9156673
347.90 0.9160312
348.00 0.9163945
348.10 0.9167573
348.20 0.9171194
348.30 0.917481
348.40 0.9178421
348.50 0.9182026
348.60 0.9185625
348.70 0.9189335
348.80 0.919304
348.90 0.9196685
349.00 0.9200325
349.10 0.920396
349.20 0.9207588
349.30 0.9211211
349.40 0.9214829
349.50 0.921844
349.60 0.9222046
349.70 0.9225647
349.80 0.9229241
349.90 0.9232831
350.00 0.9236414
350.10 0.9239992
350.20 0.9243564
350.30 0.9247085
350.40 0.9250533
350.50 0.9253977
350.60 0.9257414
350.70 0.9260846
350.80 0.9264273
350.90 0.9267695
351.00 0.9271111
351.10 0.9274521
351.20 0.9277926
351.30 0.9281326
351.40 0.9284778
351.50 0.9288326
351.60 0.9291869
351.70 0.9295406
351.80 0.9298937
351.90 0.9302463
352.00 0.9305984
352.10 0.9309499
352.20 0.9312299
352.30 0.9315313
352.40 0.9318751
352.50 0.9322184
352.60 0.9325611
352.70 0.9329033
352.80 0.9332449
352.90 0.933586
353.00 0.9339266
353.10 0.9342666
353.20 0.9346062
353.30 0.9349451
353.40 0.9352836
353.50 0.9356391
353.60 0.9359985
353.70 0.9363574
353.80 0.9367157
353.90 0.937063
354.00 0.9373913
354.10 0.937719
354.20 0.9380462
354.30 0.9383729
354.40 0.9386991
354.50 0.9390248
354.60 0.93935
354.70 0.9396746
354.80 0.9399948
354.90 0.9403088
355.00 0.9406223
355.10 0.9409352
355.20 0.9412477
355.30 0.9415792
355.40 0.9419102
355.50 0.9422407
355.60 0.9425706
355.70 0.9428844
355.80 0.9431906
355.90 0.943571
356.00 0.9439287
356.10 0.9442472
356.20 0.9445652
356.30 0.9448827
356.40 0.9451996
356.50 0.9455161
356.60 0.9458321
356.70 0.9461475
356.80 0.9464625
356.90 0.9467769
357.00 0.9470909
357.10 0.9474044
357.20 0.9477173
357.30 0.9480298
357.40 0.9483488
357.50 0.9486798
357.60 0.9490103
357.70 0.9493403
357.80 0.9495978
357.90 0.9498549
358.00 0.9501601
358.10 0.950477
358.20 0.9507933
358.30 0.9511091
358.40 0.9514245
358.50 0.9517393
358.60 0.9520536
358.70 0.9523675
358.80 0.9526808
358.90 0.9529936
359.00 0.9533114
359.10 0.9536382
359.20 0.9539597
359.30 0.9542487
359.40 0.9545372
359.50 0.9548243
359.60 0.9551108
359.70 0.9553967
359.80 0.9557317
359.90 0.9560662
360.00 0.9563949
360.10 0.9567138
360.20 0.9570323
360.30 0.9573502
360.40 0.9576677
360.50 0.9579846
360.60 0.9581484
360.70 0.9584703
360.80 0.9587916
360.90 0.9591125
361.00 0.9593695
361.10 0.9597089
361.20 0.9599548
361.30 0.9603304
361.40 0.9605638
361.50 0.9608911
361.60 0.9611557
361.70 0.9614727
361.80 0.9617753
361.90 0.962053
362.00 0.9623303
362.10 0.9625875
362.20 0.9628542
362.30 0.9631469
362.40 0.9634391
362.50 0.9637308
362.60 0.964022
362.70 0.9643841
362.80 0.9646228
362.90 0.9649298
363.00 0.9652364
363.10 0.9655588
363.20 0.9658809
363.30 0.9660805
363.40 0.9662959
363.50 0.9666976
363.60 0.9669122
363.70 0.9671885
363.80 0.9675265
363.90 0.967793
364.00 0.9680591
364.10 0.9683247
364.20 0.9685899
364.30 0.9688783
364.40 0.9691721
364.50 0.9693916
364.60 0.9697228
364.70 0.9700536
364.80 0.9703838
364.90 0.9705929
365.00 0.9708017
365.10 0.9711951
365.20 0.971403
365.30 0.9717029
365.40 0.9720024
365.50 0.972209
365.60 0.9724153
365.70 0.9727219
365.80 0.9730279
365.90 0.9733186
366.00 0.9736051
366.10 0.9738871
366.20 0.9741687
366.30 0.9744498
366.40 0.9747305
366.50 0.9749821
366.60 0.9751921
366.70 0.975494
366.80 0.9757955
366.90 0.9760813
367.00 0.9763399
367.10 0.976598
367.20 0.9768557
367.30 0.977113
367.40 0.9773699
367.50 0.977645
367.60 0.9779244
367.70 0.9781606
367.80 0.9783964
367.90 0.9786319
368.00 0.9788956
368.10 0.979265
368.20 0.9795211
368.30 0.9797756
368.40 0.9800297
368.50 0.9802834
368.60 0.9805367
368.70 0.9807896
368.80 0.9810421
368.90 0.9812449
369.00 0.981483
369.10 0.9817514
369.20 0.9819514
369.30 0.9822033
369.40 0.9824548
369.50 0.9827059
369.60 0.9829827
369.70 0.9832589
369.80 0.9835074
369.90 0.9837552
370.00 0.9840025
370.10 0.9843718
370.20 0.9845647
370.30 0.9847525
370.40 0.9850325
370.50 0.9853049
370.60 0.9854915
370.70 0.9858662
370.80 0.9860485
370.90 0.9862304
371.00 0.9865083
371.10 0.9867866
371.20 0.9870565
371.30 0.9873259
371.40 0.9874476
371.50 0.9877147
371.60 0.9879815
371.70 0.9882478
371.80 0.9885136
371.90 0.988779
372.00 0.9889175
372.10 0.9891494
372.20 0.9893894
372.30 0.9896291
372.40 0.9898683
372.50 0.9901071
372.60 0.9903456
372.70 0.9905836
372.80 0.9908469
372.90 0.9911097
373.00 0.99138
373.10 0.9916499
373.20 0.9918269
373.30 0.9920035
373.40 0.9923567
373.50 0.9925326
373.60 0.9927081
373.70 0.9930599
373.80 0.9932512
373.90 0.9934092
374.00 0.9936715
374.10 0.9939333
374.20 0.9941948
374.30 0.9944558
374.40 0.9946944
374.50 0.9947964
374.60 0.9950546
374.70 0.9953161
374.80 0.9955771
374.90 0.9958377
375.00 0.9960666
375.10 0.9962952
375.20 0.9965234
375.30 0.9967428
375.40 0.9969619
375.50 0.9971806
375.60 0.997399
375.70 0.9976169
375.80 0.9978345
375.90 0.9980518
376.00 0.9982118
376.10 0.9984401
376.20 0.9986687
376.30 0.998897
376.40 0.9991248
376.50 0.999337
376.60 0.9995259
376.70 0.9997145
376.80 0.999928
376.90 1.000166
377.00 1.000404
377.10 1.000642
377.20 1.000877
377.30 1.001102
377.40 1.001327
377.50 1.001551
377.60 1.001735
377.70 1.001919
377.80 1.002102
377.90 1.002285
378.00 1.00252
378.10 1.002729
378.20 1.002938
378.30 1.003145
378.40 1.003353
378.50 1.00356
378.60 1.003767
378.70 1.003973
378.80 1.004179
378.90 1.004395
379.00 1.004628
379.10 1.004853
379.20 1.005078
379.30 1.005285
379.40 1.005473
379.50 1.005662
379.60 1.00585
379.70 1.006045
379.80 1.006265
379.90 1.006483
380.00 1.006702
380.10 1.00692
380.20 1.007137
380.30 1.007355
380.40 1.007571
380.50 1.007788
380.60 1.007901
380.70 1.008106
380.80 1.008311
380.90 1.008516
381.00 1.00872
381.10 1.008934
381.20 1.009152
381.30 1.009296
381.40 1.009562
381.50 1.009728
381.60 1.0099
381.70 1.010064
381.80 1.01025
381.90 1.010482
382.00 1.010713
382.10 1.01086
382.20 1.011108
382.30 1.011254
382.40 1.011429
382.50 1.011648
382.60 1.011867
382.70 1.012061
382.80 1.012232
382.90 1.012409
383.00 1.012586
383.10 1.012763
383.20 1.012947
383.30 1.01316
383.40 1.013365
383.50 1.013555
383.60 1.013761
383.70 1.013939
383.80 1.014116
383.90 1.014293
384.00 1.01447
384.10 1.014647
384.20 1.014823
384.30 1.014999
384.40 1.015173
384.50 1.015345
384.60 1.015517
384.70 1.015688
384.80 1.015875
384.90 1.016101
385.00 1.016287
385.10 1.016471
385.20 1.016581
385.30 1.016728
385.40 1.016905
385.50 1.017113
385.60 1.01732
385.70 1.017527
385.80 1.017722
385.90 1.017872
386.00 1.018036
386.10 1.018213
386.20 1.018388
386.30 1.018562
386.40 1.018713
386.50 1.018889
386.60 1.019065
386.70 1.019198
386.80 1.019454
386.90 1.019627
387.00 1.019763
387.10 1.019977
387.20 1.020133
387.30 1.020244
387.40 1.020372
387.50 1.020624
387.60 1.020773
387.70 1.020944
387.80 1.021115
387.90 1.021285
388.00 1.021468
388.10 1.021651
388.20 1.02174
388.30 1.021889
388.40 1.022037
388.50 1.0222
388.60 1.022379
388.70 1.022647
388.80 1.022779
388.90 1.022916
389.00 1.023079
389.10 1.023237
389.20 1.023352
389.30 1.02352
389.40 1.023662
389.50 1.02381
389.60 1.023982
389.70 1.02419
389.80 1.024354
389.90 1.024519
390.00 1.024683
390.10 1.024847
390.20 1.02501
390.30 1.025171
390.40 1.02533
390.50 1.025488
390.60 1.025646
390.70 1.025804
390.80 1.02594
390.90 1.026053
391.00 1.026213
391.10 1.026393
391.20 1.026562
391.30 1.026699
391.40 1.026845
391.50 1.026991
391.60 1.027137
391.70 1.027282
391.80 1.027427
391.90 1.02754
392.00 1.027654
392.10 1.027824
392.20 1.028005
392.30 1.028215
392.40 1.028343
392.50 1.02847
392.60 1.028614
392.70 1.02873
392.80 1.028846
392.90 1.028983
393.00 1.029139
393.10 1.029302
393.20 1.029467
393.30 1.029581
393.40 1.029718
393.50 1.029851
393.60 1.029999
393.70 1.03021
393.80 1.030308
393.90 1.030421
394.00 1.030546
394.10 1.030733
394.20 1.030855
394.30 1.030999
394.40 1.031135
394.50 1.031194
394.60 1.031379
394.70 1.031553
394.80 1.031684
394.90 1.031815
395.00 1.03195
395.10 1.032031
395.20 1.032185
395.30 1.032331
395.40 1.032477
395.50 1.032603
395.60 1.032722
395.70 1.032841
395.80 1.032963
395.90 1.033084
396.00 1.033217
396.10 1.033425
396.20 1.033532
396.30 1.033681
396.40 1.033787
396.50 1.033919
396.60 1.033999
396.70 1.034215
396.80 1.034317
396.90 1.034433
397.00 1.034522
397.10 1.034653
397.20 1.034871
397.30 1.035008
397.40 1.035125
397.50 1.035243
397.60 1.035357
397.70 1.035445
397.80 1.035532
397.90 1.035636
398.00 1.035783
398.10 1.035929
398.20 1.036062
398.30 1.036179
398.40 1.036294
398.50 1.036372
398.60 1.0365
398.70 1.036621
398.80 1.036734
398.90 1.036866
399.00 1.037035
399.10 1.037192
399.20 1.037312
399.30 1.037431
399.40 1.03755
399.50 1.037668
399.60 1.037777
399.70 1.037882
399.80 1.037987
399.90 1.038091
400.00 1.038194
400.10 1.038268
400.20 1.038387
400.30 1.038493
400.40 1.038582
400.50 1.038815
400.60 1.038899
400.70 1.038995
400.80 1.039076
400.90 1.039145
401.00 1.039312
401.10 1.039438
401.20 1.039505
401.30 1.039577
401.40 1.03971
401.50 1.039872
401.60 1.040031
401.70 1.040101
401.80 1.040222
401.90 1.040315
402.00 1.040403
402.10 1.040479
402.20 1.040592
402.30 1.040687
402.40 1.040812
402.50 1.040848
402.60 1.040964
402.70 1.041183
402.80 1.041198
402.90 1.041305
403.00 1.041471
403.10 1.041547
403.20 1.041654
403.30 1.041721
403.40 1.041838
403.50 1.041948
403.60 1.042046
403.70 1.042085
403.80 1.042192
403.90 1.042277
404.00 1.042374
404.10 1.04259
404.20 1.042678
404.30 1.042766
404.40 1.042868
404.50 1.042866
404.60 1.043028
404.70 1.043115
404.80 1.04322
404.90 1.043289
405.00 1.043396
405.10 1.043483
405.20 1.043558
405.30 1.043633
405.40 1.043743
405.50 1.043853
405.60 1.043963
405.70 1.044073
405.80 1.044183
405.90 1.044292
406.00 1.04438
406.10 1.044467
406.20 1.044555
406.30 1.044642
406.40 1.044725
406.50 1.044795
406.60 1.044876
406.70 1.044978
406.80 1.045046
406.90 1.045142
407.00 1.045224
407.10 1.045306
407.20 1.045387
407.30 1.045469
407.40 1.04555
407.50 1.045631
407.60 1.045712
407.70 1.045792
407.80 1.045873
407.90 1.045952
408.00 1.046006
408.10 1.046095
408.20 1.046193
408.30 1.046259
408.40 1.046325
408.50 1.046412
408.60 1.046513
408.70 1.046614
408.80 1.046704
408.90 1.046721
409.00 1.046804
409.10 1.046886
409.20 1.046968
409.30 1.04705
409.40 1.047131
409.50 1.047191
409.60 1.047251
409.70 1.047319
409.80 1.047417
409.90 1.047514
410.00 1.047572
410.10 1.047673
410.20 1.047742
410.30 1.047804
410.40 1.047867
410.50 1.047934
410.60 1.048001
410.70 1.048071
410.80 1.048152
410.90 1.048234
411.00 1.048306
411.10 1.048375
411.20 1.048443
411.30 1.048521
411.40 1.048632
411.50 1.048689
411.60 1.048745
411.70 1.048805
411.80 1.048877
411.90 1.048978
412.00 1.04905
412.10 1.049158
412.20 1.049194
412.30 1.049244
412.40 1.049352
412.50 1.049366
412.60 1.049375
412.70 1.049466
412.80 1.049577
412.90 1.049567
413.00 1.049753
413.10 1.049819
413.20 1.049884
413.30 1.049949
413.40 1.050014
413.50 1.050054
413.60 1.050027
413.70 1.050096
413.80 1.050164
413.90 1.050233
414.00 1.050301
414.10 1.050369
414.20 1.050472
414.30 1.050525
414.40 1.050492
414.50 1.050657
414.60 1.050707
414.70 1.050774
414.80 1.050832
414.90 1.050863
415.00 1.050894
415.10 1.050924
415.20 1.050965
415.30 1.051038
415.40 1.051111
415.50 1.051183
415.60 1.05124
415.70 1.051297
415.80 1.051354
415.90 1.051411
416.00 1.051468
416.10 1.051522
416.20 1.051563
416.30 1.051604
416.40 1.051645
416.50 1.051686
416.60 1.05175
416.70 1.051807
416.80 1.051884
416.90 1.051868
417.00 1.05196
417.10 1.052063
417.20 1.052055
417.30 1.052048
417.40 1.052094
417.50 1.05214
417.60 1.052197
417.70 1.052295
417.80 1.052333
417.90 1.052371
418.00 1.052409
418.10 1.052446
418.20 1.052484
418.30 1.052521
418.40 1.052556
418.50 1.052604
418.60 1.052651
418.70 1.052698
418.80 1.052745
418.90 1.052792
419.00 1.052839
419.10 1.052885
419.20 1.052932
419.30 1.052978
419.40 1.053021
419.50 1.053063
419.60 1.053101
419.70 1.05312
419.80 1.053138
419.90 1.053163
420.00 1.053209
420.10 1.053256
420.20 1.053302
420.30 1.053347
420.40 1.053393
420.50 1.053439
420.60 1.053484
420.70 1.053529
420.80 1.053574
420.90 1.053619
421.00 1.053669
421.10 1.053719
421.20 1.053765
421.30 1.0538
421.40 1.053835
421.50 1.05387
421.60 1.053905
421.70 1.053939
421.80 1.053973
421.90 1.053993
422.00 1.053969
422.10 1.053963
422.20 1.054031
422.30 1.054099
422.40 1.054166
422.50 1.054191
422.60 1.054215
422.70 1.05424
422.80 1.054264
422.90 1.054288
423.00 1.054312
423.10 1.054336
423.20 1.054359
423.30 1.054383
423.40 1.054406
423.50 1.05443
423.60 1.054453
423.70 1.054476
423.80 1.054499
423.90 1.054521
424.00 1.054544
424.10 1.054566
424.20 1.054589
424.30 1.054611
424.40 1.054661
424.50 1.054689
424.60 1.054718
424.70 1.054746
424.80 1.054774
424.90 1.054802
425.00 1.05483
425.10 1.054857
425.20 1.054885
425.30 1.054912
425.40 1.054938
425.50 1.054957
425.60 1.054975
425.70 1.054993
425.80 1.055011
425.90 1.055029
426.00 1.055047
426.10 1.055065
426.20 1.055082
426.30 1.055099
426.40 1.055117
426.50 1.055134
426.60 1.055151
426.70 1.055167
426.80 1.055184
426.90 1.055201
427.00 1.055213
427.10 1.055225
427.20 1.055237
427.30 1.055249
427.40 1.055261
427.50 1.055273
427.60 1.055285
427.70 1.055296
427.80 1.055307
427.90 1.055319
428.00 1.05533
428.10 1.055341
428.20 1.055351
428.30 1.055362
428.40 1.055373
428.50 1.055383
428.60 1.055394
428.70 1.055404
428.80 1.055414
428.90 1.05542
429.00 1.055427
429.10 1.055433
429.20 1.05544
429.30 1.055446
429.40 1.055452
429.50 1.055458
429.60 1.055464
429.70 1.055469
429.80 1.055475
429.90 1.05548
430.00 1.055486
430.10 1.055491
430.20 1.055496
430.30 1.055501
430.40 1.055506
430.50 1.055511
430.60 1.055515
430.70 1.05552
430.80 1.055524
430.90 1.055528
431.00 1.055533
431.10 1.055537
431.20 1.055541
431.30 1.055544
431.40 1.055545
431.50 1.055546
431.60 1.055547
431.70 1.055548
431.80 1.055548
431.90 1.055549
432.00 1.055549
432.10 1.055549
432.20 1.055549
432.30 1.055549
432.40 1.055549
432.50 1.055549
432.60 1.055549
432.70 1.055548
432.80 1.055548
432.90 1.055547
433.00 1.055546
433.10 1.055545
433.20 1.055544
433.30 1.055543
433.40 1.055539
433.50 1.055535
433.60 1.055531
433.70 1.055527
433.80 1.055499
433.90 1.055442
434.00 1.055423
434.10 1.055426
434.20 1.05543
434.30 1.055433
434.40 1.055437
434.50 1.05544
434.60 1.055443
434.70 1.055446
434.80 1.055448
434.90 1.055435
435.00 1.055422
435.10 1.055409
435.20 1.055397
435.30 1.055384
435.40 1.05537
435.50 1.055357
435.60 1.055344
435.70 1.055331
435.80 1.055317
435.90 1.055303
436.00 1.05529
436.10 1.055276
436.20 1.055262
436.30 1.055248
436.40 1.055233
436.50 1.055213
436.60 1.055192
436.70 1.055171
436.80 1.055151
436.90 1.05513
437.00 1.055109
437.10 1.055088
437.20 1.055073
437.30 1.055064
437.40 1.055055
437.50 1.055046
437.60 1.055036
437.70 1.055026
437.80 1.055016
437.90 1.055005
438.00 1.054993
438.10 1.054953
438.20 1.054913
438.30 1.054904
438.40 1.05487
438.50 1.054902
438.60 1.054921
438.70 1.054847
438.80 1.054803
438.90 1.054823
439.00 1.0548
439.10 1.054767
439.20 1.054734
439.30 1.054702
439.40 1.054669
439.50 1.054636
439.60 1.054604
439.70 1.054595
439.80 1.054587
439.90 1.054573
440.00 1.054559
440.10 1.054545
440.20 1.054531
440.30 1.05451
440.40 1.054489
440.50 1.054468
440.60 1.054446
440.70 1.054425
440.80 1.054404
440.90 1.054382
441.00 1.05436
441.10 1.054339
441.20 1.054312
441.30 1.054226
441.40 1.054177
441.50 1.054174
441.60 1.054172
441.70 1.054175
441.80 1.054142
441.90 1.054108
442.00 1.054074
442.10 1.054041
442.20 1.054007
442.30 1.053973
442.40 1.053945
442.50 1.053923
442.60 1.0539
442.70 1.053848
442.80 1.053757
442.90 1.053746
443.00 1.053732
443.10 1.053712
443.20 1.053676
443.30 1.053625
443.40 1.053581
443.50 1.053544
443.60 1.053577
443.70 1.053494
443.80 1.053504
443.90 1.053468
444.00 1.053362
444.10 1.053326
444.20 1.053342
444.30 1.053273
444.40 1.053228
444.50 1.053183
444.60 1.053149
444.70 1.053127
444.80 1.053094
444.90 1.053049
445.00 1.053004
445.10 1.052959
445.20 1.05292
445.30 1.052888
445.40 1.052855
445.50 1.052823
445.60 1.05279
445.70 1.052757
445.80 1.052718
445.90 1.052673
446.00 1.052627
446.10 1.052582
446.20 1.052592
446.30 1.052523
446.40 1.052493
446.50 1.052455
446.60 1.052416
446.70 1.052378
446.80 1.052339
446.90 1.0523
447.00 1.052234
447.10 1.052159
447.20 1.052157
447.30 1.052081
447.40 1.052106
447.50 1.052067
447.60 1.052014
447.70 1.051949
447.80 1.051926
447.90 1.051902
448.00 1.05186
448.10 1.0518
448.20 1.05174
448.30 1.051679
448.40 1.051619
448.50 1.051559
448.60 1.051521
448.70 1.051502
448.80 1.051481
448.90 1.051437
449.00 1.051392
449.10 1.051348
449.20 1.051303
449.30 1.05119
449.40 1.051165
449.50 1.051141
449.60 1.051096
449.70 1.051034
449.80 1.050972
449.90 1.05091
450.00 1.050848
450.10 1.050786
450.20 1.050724
450.30 1.050662
450.40 1.050621
450.50 1.05058
450.60 1.050539
450.70 1.050497
450.80 1.050456
450.90 1.050415
451.00 1.05034
451.10 1.050266
451.20 1.050223
451.30 1.050249
451.40 1.050147
451.50 1.050045
451.60 1.050003
451.70 1.050022
451.80 1.049919
451.90 1.049877
452.00 1.049835
452.10 1.049793
452.20 1.049721
452.30 1.049649
452.40 1.049576
452.50 1.049504
452.60 1.049447
452.70 1.0494
452.80 1.049363
452.90 1.049325
453.00 1.049287
453.10 1.049249
453.20 1.049189
453.30 1.04913
453.40 1.04907
453.50 1.04901
453.60 1.04895
453.70 1.04889
453.80 1.048821
453.90 1.048741
454.00 1.04866
454.10 1.04858
454.20 1.048533
454.30 1.048486
454.40 1.048438
454.50 1.048391
454.60 1.048344
454.70 1.048287
454.80 1.048223
454.90 1.048159
455.00 1.048095
455.10 1.04803
455.20 1.047966
455.30 1.047901
455.40 1.047837
455.50 1.047772
455.60 1.047708
455.70 1.047643
455.80 1.047565
455.90 1.047488
456.00 1.04741
456.10 1.047336
456.20 1.047274
456.30 1.047212
456.40 1.047149
456.50 1.047087
456.60 1.047024
456.70 1.046962
456.80 1.046899
456.90 1.046837
457.00 1.046774
457.10 1.046712
457.20 1.046679
457.30 1.04661
457.40 1.04654
457.50 1.04647
457.60 1.0464
457.70 1.04633
457.80 1.04626
457.90 1.04619
458.00 1.04612
458.10 1.04605
458.20 1.04598
458.30 1.045909
458.40 1.045839
458.50 1.045769
458.60 1.045698
458.70 1.045631
458.80 1.045565
458.90 1.0455
459.00 1.045434
459.10 1.045368
459.20 1.045301
459.30 1.045222
459.40 1.045142
459.50 1.045062
459.60 1.044982
459.70 1.044902
459.80 1.044822
459.90 1.044742
460.00 1.044662
460.10 1.044582
460.20 1.044502
460.30 1.044422
460.40 1.044342
460.50 1.044261
460.60 1.044181
460.70 1.044118
460.80 1.044063
460.90 1.044008
461.00 1.043953
461.10 1.043898
461.20 1.043819
461.30 1.04373
461.40 1.043643
461.50 1.043557
461.60 1.04347
461.70 1.043384
461.80 1.043304
461.90 1.043225
462.00 1.043145
462.10 1.043065
462.20 1.042986
462.30 1.042906
462.40 1.042826
462.50 1.042747
462.60 1.042667
462.70 1.042587
462.80 1.042507
462.90 1.042427
463.00 1.042347
463.10 1.042267
463.20 1.042185
463.30 1.042101
463.40 1.042017
463.50 1.041932
463.60 1.041848
463.70 1.041764
463.80 1.04168
463.90 1.041599
464.00 1.041518
464.10 1.041437
464.20 1.041356
464.30 1.041276
464.40 1.041195
464.50 1.041114
464.60 1.041033
464.70 1.040957
464.80 1.040883
464.90 1.040808
465.00 1.040734
465.10 1.04066
465.20 1.040586
465.30 1.0405
465.40 1.040406
465.50 1.040312
465.60 1.040218
465.70 1.040125
465.80 1.040031
465.90 1.039944
466.00 1.039859
466.10 1.039773
466.20 1.039688
466.30 1.039604
466.40 1.039521
466.50 1.039438
466.60 1.039355
466.70 1.039272
466.80 1.039189
466.90 1.039106
467.00 1.039023
467.10 1.03894
467.20 1.038857
467.30 1.038782
467.40 1.038696
467.50 1.038606
467.60 1.038516
467.70 1.038427
467.80 1.038337
467.90 1.038236
468.00 1.03813
468.10 1.038024
468.20 1.037918
468.30 1.037813
468.40 1.037707
468.50 1.037673
468.60 1.037523
468.70 1.037462
468.80 1.03741
468.90 1.037313
469.00 1.037192
469.10 1.037098
469.20 1.03702
469.30 1.036942
469.40 1.036864
469.50 1.036768
469.60 1.036665
469.70 1.036561
469.80 1.036458
469.90 1.036359
470.00 1.036244
470.10 1.036151
470.20 1.036073
470.30 1.035996
470.40 1.035919
470.50 1.035842
470.60 1.035741
470.70 1.035635
470.80 1.035529
470.90 1.035423
471.00 1.035295
471.10 1.035204
471.20 1.035172
471.30 1.035038
471.40 1.034959
471.50 1.034798
471.60 1.034725
471.70 1.034674
471.80 1.034579
471.90 1.034473
472.00 1.034367
472.10 1.03426
472.20 1.034167
472.30 1.034077
472.40 1.033986
472.50 1.033896
472.60 1.033806
472.70 1.033641
472.80 1.033526
472.90 1.033431
473.00 1.033336
473.10 1.03324
473.20 1.033145
473.30 1.03305
473.40 1.032955
473.50 1.03286
473.60 1.032764
473.70 1.032669
473.80 1.032559
473.90 1.032446
474.00 1.032332
474.10 1.032219
474.20 1.032113
474.30 1.03201
474.40 1.031907
474.50 1.031804
474.60 1.031701
474.70 1.031596
474.80 1.031492
474.90 1.031388
475.00 1.031283
475.10 1.031179
475.20 1.031075
475.30 1.03097
475.40 1.030872
475.50 1.030776
475.60 1.030679
475.70 1.030583
475.80 1.030486
475.90 1.03039
476.00 1.030293
476.10 1.030197
476.20 1.030096
476.30 1.029994
476.40 1.029892
476.50 1.02979
476.60 1.029688
476.70 1.029586
476.80 1.029484
476.90 1.029372
477.00 1.029258
477.10 1.029144
477.20 1.02903
477.30 1.028916
477.40 1.028802
477.50 1.028688
477.60 1.028574
477.70 1.02846
477.80 1.028346
477.90 1.028233
478.00 1.028119
478.10 1.028005
478.20 1.027891
478.30 1.027777
478.40 1.027663
478.50 1.027549
478.60 1.027435
478.70 1.027337
478.80 1.027246
478.90 1.027135
479.00 1.027018
479.10 1.026901
479.20 1.026784
479.30 1.026667
479.40 1.026553
479.50 1.026441
479.60 1.02633
479.70 1.026218
479.80 1.026106
479.90 1.025995
480.00 1.025883
480.10 1.025771
480.20 1.025659
480.30 1.025548
480.40 1.025436
480.50 1.025324
480.60 1.025213
480.70 1.025101
480.80 1.024989
480.90 1.024877
481.00 1.024766
481.10 1.024654
481.20 1.02454
481.30 1.024426
481.40 1.024312
481.50 1.024198
481.60 1.024084
481.70 1.02397
481.80 1.023856
481.90 1.023742
482.00 1.023628
482.10 1.023515
482.20 1.023401
482.30 1.023285
482.40 1.02317
482.50 1.023054
482.60 1.022939
482.70 1.022824
482.80 1.022708
482.90 1.022593
483.00 1.022478
483.10 1.022362
483.20 1.022247
483.30 1.022132
483.40 1.022017
483.50 1.021901
483.60 1.021786
483.70 1.021662
483.80 1.021538
483.90 1.021414
484.00 1.02129
484.10 1.021166
484.20 1.021042
484.30 1.02092
484.40 1.020797
484.50 1.020674
484.60 1.020551
484.70 1.020429
484.80 1.020309
484.90 1.020189
485.00 1.020069
485.10 1.019949
485.20 1.019828
485.30 1.019708
485.40 1.019588
485.50 1.019468
485.60 1.019348
485.70 1.019225
485.80 1.019102
485.90 1.018979
486.00 1.018856
486.10 1.018733
486.20 1.018609
486.30 1.018486
486.40 1.018363
486.50 1.01824
486.60 1.018117
486.70 1.017995
486.80 1.017884
486.90 1.017772
487.00 1.017661
487.10 1.01755
487.20 1.017427
487.30 1.017304
487.40 1.017181
487.50 1.017058
487.60 1.016935
487.70 1.016812
487.80 1.016689
487.90 1.016566
488.00 1.016444
488.10 1.016321
488.20 1.016197
488.30 1.016067
488.40 1.015936
488.50 1.015806
488.60 1.015675
488.70 1.015545
488.80 1.015395
488.90 1.015245
489.00 1.015104
489.10 1.014987
489.20 1.014869
489.30 1.014752
489.40 1.014634
489.50 1.014516
489.60 1.014399
489.70 1.014281
489.80 1.014093
489.90 1.013962
490.00 1.013832
490.10 1.013702
490.20 1.013572
490.30 1.013442
490.40 1.013336
490.50 1.013231
490.60 1.013125
490.70 1.013019
490.80 1.012831
490.90 1.012706
491.00 1.012549
491.10 1.012495
491.20 1.012338
491.30 1.012181
491.40 1.012096
491.50 1.01197
491.60 1.01185
491.70 1.01171
491.80 1.011572
491.90 1.011446
492.00 1.011257
492.10 1.011169
492.20 1.011046
492.30 1.01089
492.40 1.010736
492.50 1.01061
492.60 1.010525
492.70 1.010394
492.80 1.010263
492.90 1.010132
493.00 1.01
493.10 1.009851
493.20 1.009701
493.30 1.009552
493.40 1.009403
493.50 1.009253
493.60 1.009166
493.70 1.009022
493.80 1.008878
493.90 1.008744
494.00 1.008629
494.10 1.008506
494.20 1.008367
494.30 1.008229
494.40 1.00809
494.50 1.007951
494.60 1.007809
494.70 1.007624
494.80 1.007462
494.90 1.007364
495.00 1.007266
495.10 1.007168
495.20 1.007073
495.30 1.006978
495.40 1.006883
495.50 1.006788
495.60 1.006692
495.70 1.006597
495.80 1.006502
495.90 1.006407
496.00 1.006312
496.10 1.006118
496.20 1.00573
496.30 1.00557
496.40 1.005411
496.50 1.005252
496.60 1.005093
496.70 1.004985
496.80 1.004877
496.90 1.004769
497.00 1.004661
497.10 1.004553
497.20 1.004445
497.30 1.004348
497.40 1.004283
497.50 1.004219
497.60 1.004045
497.70 1.003657
497.80 1.003474
497.90 1.00329
498.00 1.003106
498.10 1.002923
498.20 1.002739
498.30 1.002556
498.40 1.002373
498.50 1.002189
498.60 1.002006
498.70 1.0021
498.80 1.002194
498.90 1.002062
499.00 1.001929
499.10 1.001797
499.20 1.001578
499.30 1.001239
499.40 1.001074
499.50 1.000909
499.60 1.000744
499.70 1.000577
499.80 1.000385
499.90 1.000192
500.00 1
500.10 0.9998077
500.20 0.9996543
500.30 0.9995831
500.40 0.999512
500.50 0.9994408
500.60 0.9993696
500.70 0.9992984
500.80 0.999217
500.90 0.9991142
501.00 0.9990113
501.10 0.9989085
501.20 0.998667
501.30 0.9987593
501.40 0.9986946
501.50 0.9982963
501.60 0.9978983
501.70 0.9977945
501.80 0.9980825
501.90 0.9976848
502.00 0.9974265
502.10 0.9974641
502.20 0.9974711
502.30 0.997074
502.40 0.9967813
502.50 0.9967102
502.60 0.9966391
502.70 0.9965679
502.80 0.9964967
502.90 0.9964256
503.00 0.9963272
503.10 0.9961712
503.20 0.9960152
503.30 0.9958592
503.40 0.9957021
503.50 0.9955416
503.60 0.9953812
503.70 0.9952208
503.80 0.9950323
503.90 0.9946374
504.00 0.9943193
504.10 0.9941639
504.20 0.9940086
504.30 0.9938532
504.40 0.9937619
504.50 0.9938525
504.60 0.993817
504.70 0.9934232
504.80 0.9930297
504.90 0.9936038
505.00 0.9932104
505.10 0.9928171
505.20 0.9924879
505.30 0.9923403
505.40 0.9921927
505.50 0.9920452
505.60 0.9919212
505.70 0.9918472
505.80 0.9917732
505.90 0.9916992
506.00 0.9916252
506.10 0.9915512
506.20 0.9914505
506.30 0.9912741
506.40 0.9910978
506.50 0.9909216
506.60 0.9907454
506.70 0.9905693
506.80 0.9903932
506.90 0.9902172
507.00 0.9900413
507.10 0.9897968
507.20 0.9894688
507.30 0.9893184
507.40 0.989168
507.50 0.9890176
507.60 0.9888672
507.70 0.9887169
507.80 0.9885667
507.90 0.9884165
508.00 0.9882663
508.10 0.9881161
508.20 0.9879661
508.30 0.987816
508.40 0.987666
508.50 0.987516
508.60 0.9873661
508.70 0.9872162
508.80 0.9874808
508.90 0.9875689
509.00 0.9871809
509.10 0.9868689
509.20 0.9867179
509.30 0.986567
509.40 0.9864161
509.50 0.9862653
509.60 0.9861145
509.70 0.9859638
509.80 0.9858131
509.90 0.9856624
510.00 0.9855118
510.10 0.9853612
510.20 0.9852107
510.30 0.985056
510.40 0.9848896
510.50 0.9847232
510.60 0.9845568
510.70 0.9843905
510.80 0.9842243
510.90 0.9840581
511.00 0.9838919
511.10 0.9837259
511.20 0.9835598
511.30 0.9833939
511.40 0.9832279
511.50 0.9830621
511.60 0.9829118
511.70 0.9827945
511.80 0.9826772
511.90 0.9825599
512.00 0.9824427
512.10 0.9823255
512.20 0.9822082
512.30 0.9820814
512.40 0.9819272
512.50 0.9817731
512.60 0.981619
512.70 0.981465
512.80 0.981311
512.90 0.9811571
513.00 0.9810032
513.10 0.9808493
513.20 0.9806955
513.30 0.9805417
513.40 0.980388
513.50 0.9802343
513.60 0.9800807
513.70 0.9799271
513.80 0.9797736
513.90 0.9796201
514.00 0.9794582
514.10 0.9792951
514.20 0.979132
514.30 0.978969
514.40 0.978806
514.50 0.9786431
514.60 0.9784802
514.70 0.9783174
514.80 0.9781546
514.90 0.9779919
515.00 0.9778292
515.10 0.9776666
515.20 0.977504
515.30 0.9773415
515.40 0.9771791
515.50 0.9770167
515.60 0.9768543
515.70 0.976692
515.80 0.9765298
515.90 0.9763676
516.00 0.9762054
516.10 0.9760433
516.20 0.9758813
516.30 0.9757193
516.40 0.9755574
516.50 0.9753955
516.60 0.9752338
516.70 0.9750721
516.80 0.9749104
516.90 0.9747488
517.00 0.9745873
517.10 0.9744258
517.20 0.9742644
517.30 0.974103
517.40 0.9739417
517.50 0.9737804
517.60 0.9736192
517.70 0.973458
517.80 0.9732969
517.90 0.9731358
518.00 0.9729748
518.10 0.9728138
518.20 0.9726529
518.30 0.9724921
518.40 0.9723313
518.50 0.9721705
518.60 0.9720098
518.70 0.9718491
518.80 0.9716885
518.90 0.971528
519.00 0.9713675
519.10 0.971206
519.20 0.9710434
519.30 0.9708809
519.40 0.9707184
519.50 0.970556
519.60 0.9703936
519.70 0.9702313
519.80 0.9700691
519.90 0.9699069
520.00 0.9697447
520.10 0.9695826
520.20 0.9694206
520.30 0.9692586
520.40 0.9690966
520.50 0.9689347
520.60 0.9687729
520.70 0.9686111
520.80 0.9684494
520.90 0.9682877
521.00 0.9681261
521.10 0.9679645
521.20 0.967803
521.30 0.9676415
521.40 0.9674801
521.50 0.9673188
521.60 0.9671574
521.70 0.9669962
521.80 0.966835
521.90 0.9666738
522.00 0.9665127
522.10 0.9663517
522.20 0.9661907
522.30 0.9660298
522.40 0.9658689
522.50 0.965708
522.60 0.9655472
522.70 0.9653865
522.80 0.9652258
522.90 0.9650652
523.00 0.9649046
523.10 0.9647441
523.20 0.9645836
523.30 0.9644232
523.40 0.9642629
523.50 0.9641025
523.60 0.9639423
523.70 0.9637821
523.80 0.9636219
523.90 0.9634618
524.00 0.9633018
524.10 0.9631418
524.20 0.9629818
524.30 0.9628112
524.40 0.9626322
524.50 0.9624533
524.60 0.9622745
524.70 0.9620957
524.80 0.961917
524.90 0.9617384
525.00 0.9615598
525.10 0.9613813
525.20 0.9612029
525.30 0.9610245
525.40 0.9608462
525.50 0.960668
525.60 0.9604898
525.70 0.9603117
525.80 0.9601336
525.90 0.9599557
526.00 0.9597777
526.10 0.9595999
526.20 0.9594221
526.30 0.9592444
526.40 0.9590668
526.50 0.9588892
526.60 0.9587117
526.70 0.9585342
526.80 0.9583568
526.90 0.9581795
527.00 0.9580023
527.10 0.9578251
527.20 0.957648
527.30 0.9574709
527.40 0.9572939
527.50 0.957117
527.60 0.9569401
527.70 0.9567634
527.80 0.9565866
527.90 0.95641
528.00 0.9562334
528.10 0.9560568
528.20 0.9558804
528.30 0.955704
528.40 0.9555276
528.50 0.9553513
528.60 0.9551751
528.70 0.954999
528.80 0.9548229
528.90 0.9546469
529.00 0.954471
529.10 0.9542951
529.20 0.9541193
529.30 0.9539435
529.40 0.9537678
529.50 0.9535943
529.60 0.9534334
529.70 0.9532726
529.80 0.9531119
529.90 0.9529512
530.00 0.9527906
530.10 0.95263
530.20 0.9524695
530.30 0.952309
530.40 0.9521486
530.50 0.9519883
530.60 0.951828
530.70 0.9516677
530.80 0.9515075
530.90 0.9513474
531.00 0.9511873
531.10 0.9510272
531.20 0.9508673
531.30 0.9507073
531.40 0.9505474
531.50 0.9503876
531.60 0.9502278
531.70 0.9500681
531.80 0.9499085
531.90 0.9497488
532.00 0.9495893
532.10 0.9494298
532.20 0.9492704
532.30 0.949111
532.40 0.9489518
532.50 0.9487925
532.60 0.9486334
532.70 0.9484742
532.80 0.9483152
532.90 0.9481562
533.00 0.9479972
533.10 0.9478383
533.20 0.9476794
533.30 0.9475206
533.40 0.9473619
533.50 0.9472032
533.60 0.9470445
533.70 0.946886
533.80 0.9467274
533.90 0.9465689
534.00 0.9464105
534.10 0.9462521
534.20 0.9460938
534.30 0.9459355
534.40 0.9457773
534.50 0.9456191
534.60 0.945461
534.70 0.9453029
534.80 0.9451384
534.90 0.9449462
535.00 0.9447541
535.10 0.9445621
535.20 0.9443701
535.30 0.9441783
535.40 0.9439865
535.50 0.9437948
535.60 0.9436032
535.70 0.9434116
535.80 0.9432201
535.90 0.9430287
536.00 0.9428374
536.10 0.9426462
536.20 0.942455
536.30 0.9422639
536.40 0.9420729
536.50 0.9418819
536.60 0.9416911
536.70 0.9415003
536.80 0.9413096
536.90 0.941119
537.00 0.9409284
537.10 0.9407379
537.20 0.9405475
537.30 0.9403572
537.40 0.940167
537.50 0.9399768
537.60 0.9397867
537.70 0.9395967
537.80 0.9394067
537.90 0.9392169
538.00 0.9390271
538.10 0.9388374
538.20 0.9386477
538.30 0.9384582
538.40 0.9382687
538.50 0.9380793
538.60 0.93789
538.70 0.9377007
538.80 0.9375115
538.90 0.9373224
539.00 0.9371334
539.10 0.9369444
539.20 0.9367556
539.30 0.9365668
539.40 0.936378
539.50 0.9361894
539.60 0.9360008
539.70 0.9358123
539.80 0.9356239
539.90 0.9354355
540.00 0.9352473
540.10 0.9350591
540.20 0.9348809
540.30 0.934707
540.40 0.9345331
540.50 0.9343593
540.60 0.9341855
540.70 0.9340118
540.80 0.9338382
540.90 0.9336646
541.00 0.9334911
541.10 0.9333176
541.20 0.9331443
541.30 0.9329709
541.40 0.9327977
541.50 0.9326245
541.60 0.9324514
541.70 0.9322783
541.80 0.9321053
541.90 0.9319324
542.00 0.9317596
542.10 0.9315868
542.20 0.931414
542.30 0.9312413
542.40 0.9310687
542.50 0.9308962
542.60 0.9307237
542.70 0.9305513
542.80 0.9303789
542.90 0.9302067
543.00 0.9300344
543.10 0.9298623
543.20 0.9296902
543.30 0.9295181
543.40 0.9293462
543.50 0.9291743
543.60 0.9290024
543.70 0.9288307
543.80 0.9286589
543.90 0.9284873
544.00 0.9283157
544.10 0.9281442
544.20 0.9279727
544.30 0.9278013
544.40 0.92763
544.50 0.9274587
544.60 0.9272875
544.70 0.9271164
544.80 0.9269453
544.90 0.9267743
545.00 0.9266033
545.10 0.9264324
545.20 0.9262616
545.30 0.9260908
545.40 0.9259201
545.50 0.9257495
545.60 0.9255671
545.70 0.9253797
545.80 0.9251924
545.90 0.9250051
546.00 0.924818
546.10 0.9246309
546.20 0.9244438
546.30 0.9242569
546.40 0.92407
546.50 0.9238832
546.60 0.9236965
546.70 0.9235099
546.80 0.9233233
546.90 0.9231368
547.00 0.9229504
547.10 0.9227641
547.20 0.9225778
547.30 0.9223916
547.40 0.9222055
547.50 0.9220194
547.60 0.9218335
547.70 0.9216476
547.80 0.9214618
547.90 0.921276
548.00 0.9210903
548.10 0.9209047
548.20 0.9207192
548.30 0.9205338
548.40 0.9203485
548.50 0.9201632
548.60 0.919978
548.70 0.9197929
548.80 0.9196079
548.90 0.919423
549.00 0.9192381
549.10 0.9190533
549.20 0.9188686
549.30 0.9186839
549.40 0.9184993
549.50 0.9183148
549.60 0.9181304
549.70 0.917946
549.80 0.9177617
549.90 0.9175775
550.00 0.9173933
550.10 0.9172093
550.20 0.9170253
550.30 0.9168414
550.40 0.9166575
550.50 0.9164737
550.60 0.91629
550.70 0.9161064
550.80 0.9159228
550.90 0.9157393
551.00 0.9155557
551.10 0.9153708
551.20 0.9151861
551.30 0.9150014
551.40 0.9148167
551.50 0.9146322
551.60 0.9144477
551.70 0.9142633
551.80 0.9140789
551.90 0.9138947
552.00 0.9137105
552.10 0.9135264
552.20 0.9133423
552.30 0.9131584
552.40 0.9129745
552.50 0.9127906
552.60 0.9126069
552.70 0.9124232
552.80 0.9122396
552.90 0.9120561
553.00 0.9118726
553.10 0.9116892
553.20 0.9115059
553.30 0.9113227
553.40 0.9111395
553.50 0.9109564
553.60 0.9107734
553.70 0.9105904
553.80 0.9104076
553.90 0.9102248
554.00 0.910042
554.10 0.9098594
554.20 0.9096768
554.30 0.9094943
554.40 0.9093118
554.50 0.9091295
554.60 0.9089472
554.70 0.908765
554.80 0.9085828
554.90 0.9084007
555.00 0.9082187
555.10 0.9080368
555.20 0.9078549
555.30 0.9076732
555.40 0.9074914
555.50 0.9073098
555.60 0.9071282
555.70 0.9069467
555.80 0.9067653
555.90 0.9065839
556.00 0.9064026
556.10 0.9062214
556.20 0.9060403
556.30 0.9058592
556.40 0.9056782
556.50 0.9054972
556.60 0.9053149
556.70 0.9051327
556.80 0.9049506
556.90 0.9047685
557.00 0.9045865
557.10 0.9044046
557.20 0.9042228
557.30 0.904041
557.40 0.9038593
557.50 0.9036776
557.60 0.9034961
557.70 0.9033146
557.80 0.9031332
557.90 0.9029518
558.00 0.9027706
558.10 0.9025894
558.20 0.9024082
558.30 0.9022272
558.40 0.9020462
558.50 0.9018653
558.60 0.9016844
558.70 0.9015037
558.80 0.901323
558.90 0.9011423
559.00 0.9009618
559.10 0.9007813
559.20 0.9006009
559.30 0.9004206
559.40 0.9002403
559.50 0.9000601
559.60 0.89988
559.70 0.8996999
559.80 0.8995199
559.90 0.89934
560.00 0.8991602
560.10 0.8989804
560.20 0.8988007
560.30 0.8986211
560.40 0.8984415
560.50 0.898262
560.60 0.8980826
560.70 0.8979033
560.80 0.897724
560.90 0.8975448
561.00 0.8973657
561.10 0.8971866
561.20 0.8970076
561.30 0.8968287
561.40 0.8966498
561.50 0.8964711
561.60 0.8962924
561.70 0.8961137
561.80 0.8959351
561.90 0.8957566
562.00 0.8955782
562.10 0.8953882
562.20 0.8951807
562.30 0.8949734
562.40 0.8947661
562.50 0.8945589
562.60 0.8943518
562.70 0.8941448
562.80 0.8939378
562.90 0.893731
563.00 0.8935243
563.10 0.8933176
563.20 0.8931111
563.30 0.8929046
563.40 0.8926982
563.50 0.8924919
563.60 0.8922858
563.70 0.8920796
563.80 0.8918736
563.90 0.8916677
564.00 0.8914619
564.10 0.8912561
564.20 0.8910505
564.30 0.8908449
564.40 0.8906394
564.50 0.890434
564.60 0.8902287
564.70 0.8900235
564.80 0.8898184
564.90 0.8896214
565.00 0.889444
565.10 0.8892666
565.20 0.8890894
565.30 0.8889122
565.40 0.888735
565.50 0.888558
565.60 0.888381
565.70 0.8882041
565.80 0.8880272
565.90 0.8878504
566.00 0.8876737
566.10 0.8874971
566.20 0.8873205
566.30 0.887144
566.40 0.8869676
566.50 0.8867912
566.60 0.8866149
566.70 0.8864387
566.80 0.8862625
566.90 0.8860864
567.00 0.8859104
567.10 0.8857345
567.20 0.8855586
567.30 0.8853828
567.40 0.885207
567.50 0.8850313
567.60 0.8848557
567.70 0.8846774
567.80 0.8844871
567.90 0.8842968
568.00 0.8841067
568.10 0.8839166
568.20 0.8837266
568.30 0.8835367
568.40 0.8833469
568.50 0.8831571
568.60 0.8829674
568.70 0.8827778
568.80 0.8825883
568.90 0.8823989
569.00 0.8822095
569.10 0.8820202
569.20 0.881831
569.30 0.8816419
569.40 0.8814529
569.50 0.8812639
569.60 0.881075
569.70 0.8808862
569.80 0.8806975
569.90 0.8805088
570.00 0.8803202
570.10 0.8801317
570.20 0.8799433
570.30 0.8797549
570.40 0.8795667
570.50 0.8793785
570.60 0.8791904
570.70 0.8790024
570.80 0.8788144
570.90 0.8786265
571.00 0.8784387
571.10 0.878251
571.20 0.8780634
571.30 0.8778758
571.40 0.8776883
571.50 0.8775009
571.60 0.8773136
571.70 0.8771263
571.80 0.8769391
571.90 0.876752
572.00 0.876565
572.10 0.876378
572.20 0.8761912
572.30 0.8760044
572.40 0.8758177
572.50 0.875631
572.60 0.8754445
572.70 0.875258
572.80 0.8750716
572.90 0.8748852
573.00 0.874699
573.10 0.8745128
573.20 0.8743267
573.30 0.8741407
573.40 0.8739497
573.50 0.873752
573.60 0.8735544
573.70 0.8733568
573.80 0.8731593
573.90 0.8729619
574.00 0.8727646
574.10 0.8725674
574.20 0.8723703
574.30 0.8721732
574.40 0.8719763
574.50 0.8717794
574.60 0.8715826
574.70 0.8713859
574.80 0.8711892
574.90 0.8709927
575.00 0.8707962
575.10 0.8705998
575.20 0.8704035
575.30 0.8702073
575.40 0.8700112
575.50 0.8698152
575.60 0.8696192
575.70 0.8694233
575.80 0.8692275
575.90 0.8690318
576.00 0.8688362
576.10 0.8686407
576.20 0.8684452
576.30 0.8682498
576.40 0.8680545
576.50 0.8678593
576.60 0.8676642
576.70 0.8674692
576.80 0.8672742
576.90 0.8670793
577.00 0.8668845
577.10 0.8666898
577.20 0.8664952
577.30 0.8663006
577.40 0.8661062
577.50 0.8659118
577.60 0.8657325
577.70 0.8655778
577.80 0.8654232
577.90 0.8652686
578.00 0.8651141
578.10 0.8649596
578.20 0.8648052
578.30 0.8646508
578.40 0.8644965
578.50 0.8643423
578.60 0.8641881
578.70 0.8640339
578.80 0.8638799
578.90 0.8637258
579.00 0.8635718
579.10 0.8634118
579.20 0.8631894
579.30 0.8629671
579.40 0.8627449
579.50 0.8625228
579.60 0.8623008
579.70 0.8620789
579.80 0.8618571
579.90 0.8616354
580.00 0.8614138
580.10 0.8612054
580.20 0.8610185
580.30 0.8608316
580.40 0.8606449
580.50 0.8604581
580.60 0.8602715
580.70 0.860085
580.80 0.8598985
580.90 0.8597121
581.00 0.8595258
581.10 0.8593395
581.20 0.8591534
581.30 0.8589673
581.40 0.8587812
581.50 0.8585953
581.60 0.8584095
581.70 0.8582237
581.80 0.858038
581.90 0.8578523
582.00 0.8576668
582.10 0.8574767
582.20 0.8572792
582.30 0.8570818
582.40 0.8568844
582.50 0.8566871
582.60 0.85649
582.70 0.8562929
582.80 0.8560958
582.90 0.8558989
583.00 0.8557021
583.10 0.8555053
583.20 0.8553086
583.30 0.8551121
583.40 0.8549155
583.50 0.8547191
583.60 0.8545278
583.70 0.8543447
583.80 0.8541617
583.90 0.8539787
584.00 0.8537959
584.10 0.8536131
584.20 0.8534304
584.30 0.8532477
584.40 0.8530652
584.50 0.8528827
584.60 0.8527003
584.70 0.8525179
584.80 0.8523357
584.90 0.8521338
585.00 0.8518425
585.10 0.8515514
585.20 0.8512877
585.30 0.8510688
585.40 0.8508501
585.50 0.8506314
585.60 0.8504128
585.70 0.8501944
585.80 0.849976
585.90 0.8497577
586.00 0.8495395
586.10 0.8493215
586.20 0.8491217
586.30 0.8489516
586.40 0.8487816
586.50 0.8486117
586.60 0.8484419
586.70 0.8482721
586.80 0.8481251
586.90 0.8480151
587.00 0.8479051
587.10 0.8477952
587.20 0.8476173
587.30 0.8473287
587.40 0.8470402
587.50 0.8467519
587.60 0.8464637
587.70 0.8468897
587.80 0.8466016
587.90 0.8463136
588.00 0.8460258
588.10 0.8457381
588.20 0.8454506
588.30 0.8451632
588.40 0.844921
588.50 0.8447526
588.60 0.8445842
588.70 0.8444159
588.80 0.8442477
588.90 0.8440795
589.00 0.8439204
589.10 0.8437761
589.20 0.8436318
589.30 0.8434875
589.40 0.8433433
589.50 0.8431992
589.60 0.8430551
589.70 0.842911
589.80 0.842767
589.90 0.842623
590.00 0.8424603
590.10 0.8422669
590.20 0.8420736
590.30 0.8418803
590.40 0.8416872
590.50 0.8414941
590.60 0.8413011
590.70 0.8411082
590.80 0.8409106
590.90 0.8407111
591.00 0.8405115
591.10 0.8403121
591.20 0.8401128
591.30 0.8399135
591.40 0.8397144
591.50 0.8395153
591.60 0.8393198
591.70 0.8391301
591.80 0.8389404
591.90 0.8387508
592.00 0.8385613
592.10 0.8383719
592.20 0.8381825
592.30 0.8379933
592.40 0.8378041
592.50 0.837615
592.60 0.8374259
592.70 0.837237
592.80 0.8370481
592.90 0.8368593
593.00 0.8366706
593.10 0.8364731
593.20 0.8362612
593.30 0.8360494
593.40 0.8358377
593.50 0.8356261
593.60 0.8354145
593.70 0.8352031
593.80 0.8349918
593.90 0.8347805
594.00 0.8345694
594.10 0.8343583
594.20 0.8341474
594.30 0.8339365
594.40 0.8337257
594.50 0.8335151
594.60 0.8333045
594.70 0.833094
594.80 0.8328836
594.90 0.8326733
595.00 0.8324631
595.10 0.8322601
595.20 0.8320689
595.30 0.8318776
595.40 0.8316865
595.50 0.8314955
595.60 0.8313045
595.70 0.8311136
595.80 0.8309229
595.90 0.8307321
596.00 0.8305415
596.10 0.830351
596.20 0.8301605
596.30 0.8299701
596.40 0.8297798
596.50 0.8295896
596.60 0.8293994
596.70 0.8292013
596.80 0.8289984
596.90 0.8287956
597.00 0.8285928
597.10 0.8283902
597.20 0.8281876
597.30 0.8279851
597.40 0.8277828
597.50 0.8275805
597.60 0.8273801
597.70 0.8271827
597.80 0.8269854
597.90 0.8267882
598.00 0.826591
598.10 0.826394
598.20 0.826197
598.30 0.8260002
598.40 0.8258034
598.50 0.8256067
598.60 0.8254101
598.70 0.8252135
598.80 0.8250171
598.90 0.8248207
599.00 0.8246244
599.10 0.8244283
599.20 0.8242321
599.30 0.8240361
599.40 0.8238642
599.50 0.8236923
599.60 0.8235205
599.70 0.8233487
599.80 0.823177
599.90 0.8230054
600.00 0.8228338
600.10 0.8226624
600.20 0.822491
600.30 0.8223196
600.40 0.8221483
600.50 0.8219771
600.60 0.821806
600.70 0.8216349
600.80 0.8214639
600.90 0.821293
601.00 0.8211221
601.10 0.8209513
601.20 0.8207806
601.30 0.82061
601.40 0.8203893
601.50 0.8201688
601.60 0.8199484
601.70 0.8197281
601.80 0.8195079
601.90 0.8192877
602.00 0.8190677
602.10 0.8188478
602.20 0.818628
602.30 0.8184083
602.40 0.8181887
602.50 0.8179691
602.60 0.8177497
602.70 0.8178118
602.80 0.8178885
602.90 0.8176597
603.00 0.8174309
603.10 0.8172022
603.20 0.8169736
603.30 0.8167452
603.40 0.8165168
603.50 0.8162886
603.60 0.8160604
603.70 0.8158324
603.80 0.8156045
603.90 0.8153766
604.00 0.8151489
604.10 0.8149213
604.20 0.8146938
604.30 0.8144664
604.40 0.8142391
604.50 0.8140372
604.60 0.8138354
604.70 0.8136337
604.80 0.8134321
604.90 0.8132306
605.00 0.8130292
605.10 0.8128278
605.20 0.8126266
605.30 0.8124254
605.40 0.8122243
605.50 0.8120682
605.60 0.8119121
605.70 0.8117561
605.80 0.8116001
605.90 0.8114442
606.00 0.8112884
606.10 0.8111885
606.20 0.8110887
606.30 0.8109889
606.40 0.8108891
606.50 0.8106218
606.60 0.8103545
606.70 0.8100874
606.80 0.8098204
606.90 0.8095536
607.00 0.8092868
607.10 0.8093548
607.20 0.8094228
607.30 0.8091562
607.40 0.8088898
607.50 0.8086235
607.60 0.8083574
607.70 0.8082027
607.80 0.808048
607.90 0.8078934
608.00 0.8077389
608.10 0.8075844
608.20 0.80743
608.30 0.8071645
608.40 0.8068992
608.50 0.806634
608.60 0.806369
608.70 0.8061848
608.80 0.8060369
608.90 0.8058891
609.00 0.8057413
609.10 0.8055936
609.20 0.8054459
609.30 0.8052231
609.40 0.8050004
609.50 0.8047777
609.60 0.8045552
609.70 0.8043328
609.80 0.8041104
609.90 0.8038882
610.00 0.8036661
610.10 0.8034441
610.20 0.8032221
610.30 0.8030003
610.40 0.8027786
610.50 0.802557
610.60 0.8023355
610.70 0.8021141
610.80 0.8018928
610.90 0.8017184
611.00 0.8015441
611.10 0.8013698
611.20 0.8011956
611.30 0.8010215
611.40 0.8008475
611.50 0.8006735
611.60 0.8004996
611.70 0.8003258
611.80 0.8001521
611.90 0.7999784
612.00 0.7998048
612.10 0.7996312
612.20 0.7994578
612.30 0.7992844
612.40 0.7990891
612.50 0.798894
612.60 0.7986989
612.70 0.7985039
612.80 0.798309
612.90 0.7981142
613.00 0.7979194
613.10 0.7977248
613.20 0.7975302
613.30 0.7973357
613.40 0.7971413
613.50 0.796947
613.60 0.7967527
613.70 0.7965586
613.80 0.7963645
613.90 0.7961705
614.00 0.7959767
614.10 0.7957828
614.20 0.7955891
614.30 0.7953955
614.40 0.7952932
614.50 0.7951911
614.60 0.7950889
614.70 0.7949867
614.80 0.7948068
614.90 0.7946109
615.00 0.7944151
615.10 0.7942194
615.20 0.7940238
615.30 0.7938283
615.40 0.7936328
615.50 0.7934375
615.60 0.7932422
615.70 0.793047
615.80 0.7928519
615.90 0.7926569
616.00 0.792462
616.10 0.7922672
616.20 0.7920724
616.30 0.7918777
616.40 0.7916831
616.50 0.7914886
616.60 0.7912942
616.70 0.7910999
616.80 0.7909056
616.90 0.790713
617.00 0.7905205
617.10 0.7903281
617.20 0.7901357
617.30 0.7899434
617.40 0.7897512
617.50 0.7895591
617.60 0.7893671
617.70 0.7891752
617.80 0.7889833
617.90 0.7887915
618.00 0.7885998
618.10 0.7884082
618.20 0.7882167
618.30 0.7880253
618.40 0.7878339
618.50 0.7876426
618.60 0.7874514
618.70 0.7872603
618.80 0.7870693
618.90 0.7868783
619.00 0.7866875
619.10 0.7864967
619.20 0.786306
619.30 0.7861154
619.40 0.7859248
619.50 0.7857344
619.60 0.785544
619.70 0.7853537
619.80 0.7851635
619.90 0.7849734
620.00 0.7847833
620.10 0.7845934
620.20 0.7844035
620.30 0.7842137
620.40 0.784024
620.50 0.7838343
620.60 0.7836448
620.70 0.7834553
620.80 0.7832659
620.90 0.7830725
621.00 0.7828718
621.10 0.7826712
621.20 0.7824707
621.30 0.7822703
621.40 0.78207
621.50 0.7818697
621.60 0.7816696
621.70 0.7814695
621.80 0.7812696
621.90 0.7810697
622.00 0.7808699
622.10 0.7806702
622.20 0.7804706
622.30 0.780271
622.40 0.7800716
622.50 0.7798722
622.60 0.779673
622.70 0.7794738
622.80 0.7792747
622.90 0.7790757
623.00 0.7788768
623.10 0.778678
623.20 0.7784792
623.30 0.7782806
623.40 0.778082
623.50 0.7778836
623.60 0.7776852
623.70 0.7774869
623.80 0.7772886
623.90 0.7770905
624.00 0.7768925
624.10 0.7766945
624.20 0.7764967
624.30 0.7762989
624.40 0.7761012
624.50 0.7759036
624.60 0.7757061
624.70 0.7755086
624.80 0.7753113
624.90 0.775114
625.00 0.7749169
625.10 0.7747198
625.20 0.7745228
625.30 0.7743259
625.40 0.774129
625.50 0.7739323
625.60 0.7737356
625.70 0.7735391
625.80 0.7733426
625.90 0.7731462
626.00 0.7729499
626.10 0.7727537
626.20 0.7725575
626.30 0.7723615
626.40 0.7721655
626.50 0.7719696
626.60 0.7717738
626.70 0.7715781
626.80 0.7713825
626.90 0.771187
627.00 0.7709915
627.10 0.7707987
627.20 0.7706129
627.30 0.7704272
627.40 0.7702416
627.50 0.7700561
627.60 0.7698706
627.70 0.7696852
627.80 0.7694999
627.90 0.7693147
628.00 0.7691296
628.10 0.7689445
628.20 0.7687595
628.30 0.7685746
628.40 0.7683898
628.50 0.7682051
628.60 0.7680204
628.70 0.7678358
628.80 0.7676513
628.90 0.7674669
629.00 0.7672825
629.10 0.7670982
629.20 0.766914
629.30 0.7667299
629.40 0.7665459
629.50 0.7663619
629.60 0.766178
629.70 0.7659942
629.80 0.7658105
629.90 0.7656268
630.00 0.7654433
630.10 0.7652598
630.20 0.7650763
630.30 0.764893
630.40 0.7647097
630.50 0.7645265
630.60 0.7643434
630.70 0.7641603
630.80 0.7639774
630.90 0.7637945
631.00 0.7636117
631.10 0.7634289
631.20 0.7632463
631.30 0.7630637
631.40 0.7628812
631.50 0.7626988
631.60 0.7625164
631.70 0.7623341
631.80 0.7621519
631.90 0.7619698
632.00 0.7617878
632.10 0.7616058
632.20 0.7614239
632.30 0.7612421
632.40 0.7610604
632.50 0.7608787
632.60 0.7606971
632.70 0.7605156
632.80 0.7603342
632.90 0.7601529
633.00 0.7599716
633.10 0.7597904
633.20 0.7596093
633.30 0.7594282
633.40 0.7592361
633.50 0.7590352
633.60 0.7588345
633.70 0.7586338
633.80 0.7584332
633.90 0.7582327
634.00 0.7580323
634.10 0.757832
634.20 0.7576317
634.30 0.7574316
634.40 0.7572315
634.50 0.7570316
634.60 0.7568317
634.70 0.7566319
634.80 0.7564322
634.90 0.7562326
635.00 0.7560331
635.10 0.7558336
635.20 0.7556343
635.30 0.755435
635.40 0.7552358
635.50 0.7550368
635.60 0.7548378
635.70 0.7546388
635.80 0.75444
635.90 0.7542413
636.00 0.7540426
636.10 0.7538441
636.20 0.7536456
636.30 0.7534472
636.40 0.7532489
636.50 0.7530507
636.60 0.7528699
636.70 0.752691
636.80 0.7525123
636.90 0.7523336
637.00 0.752155
637.10 0.7519764
637.20 0.751798
637.30 0.7516196
637.40 0.7514413
637.50 0.751263
637.60 0.7510848
637.70 0.7509068
637.80 0.7507287
637.90 0.7505508
638.00 0.7503729
638.10 0.7501951
638.20 0.7500174
638.30 0.7498398
638.40 0.7496622
638.50 0.7494847
638.60 0.7493073
638.70 0.7491299
638.80 0.7489527
638.90 0.7487755
639.00 0.7485984
639.10 0.7484213
639.20 0.7482443
639.30 0.7480674
639.40 0.7478906
639.50 0.7477138
639.60 0.7475372
639.70 0.7473561
639.80 0.7471602
639.90 0.7469643
640.00 0.7467686
640.10 0.7465729
640.20 0.7463773
640.30 0.7461818
640.40 0.7459864
640.50 0.745791
640.60 0.7455958
640.70 0.7454006
640.80 0.7452055
640.90 0.7450105
641.00 0.7448156
641.10 0.7446208
641.20 0.7444261
641.30 0.7442314
641.40 0.7440369
641.50 0.7438424
641.60 0.743648
641.70 0.7434537
641.80 0.7432595
641.90 0.7430653
642.00 0.7428713
642.10 0.7426773
642.20 0.7424834
642.30 0.7422896
642.40 0.7420959
642.50 0.7419022
642.60 0.7417087
642.70 0.7415152
642.80 0.7413219
642.90 0.7411286
643.00 0.7409354
643.10 0.7407423
643.20 0.7405492
643.30 0.7403563
643.40 0.7401634
643.50 0.7399706
643.60 0.739778
643.70 0.7395853
643.80 0.7393928
643.90 0.7392004
644.00 0.739008
644.10 0.7388157
644.20 0.7386236
644.30 0.7384315
644.40 0.7382394
644.50 0.7380475
644.60 0.7378556
644.70 0.7376639
644.80 0.7374722
644.90 0.7372806
645.00 0.7370891
645.10 0.7368976
645.20 0.7367063
645.30 0.736515
645.40 0.7363238
645.50 0.7361327
645.60 0.7359417
645.70 0.7357507
645.80 0.7355599
645.90 0.7353691
646.00 0.7351784
646.10 0.7349925
646.20 0.7348199
646.30 0.7346473
646.40 0.7344749
646.50 0.7343025
646.60 0.7341302
646.70 0.7339579
646.80 0.7337857
646.90 0.7336136
647.00 0.7334416
647.10 0.7332696
647.20 0.7330977
647.30 0.7329259
647.40 0.7327542
647.50 0.7325825
647.60 0.7324109
647.70 0.7322393
647.80 0.7320679
647.90 0.7318965
648.00 0.7317252
648.10 0.7315539
648.20 0.7313827
648.30 0.7312116
648.40 0.7310406
648.50 0.7308696
648.60 0.7306987
648.70 0.7305279
648.80 0.7303571
648.90 0.7301864
649.00 0.7300158
649.10 0.7298453
649.20 0.7296748
649.30 0.7295044
649.40 0.7293167
649.50 0.7291283
649.60 0.72894
649.70 0.7287518
649.80 0.7285637
649.90 0.7283756
650.00 0.7281877
650.10 0.7279998
650.20 0.727812
650.30 0.7276243
650.40 0.7274366
650.50 0.7272491
650.60 0.7270616
650.70 0.7268742
650.80 0.7266869
650.90 0.7264996
651.00 0.7263125
651.10 0.7261254
651.20 0.7259384
651.30 0.7257515
651.40 0.7255647
651.50 0.7253779
651.60 0.7251913
651.70 0.7250047
651.80 0.7248182
651.90 0.7246317
652.00 0.7244454
652.10 0.7242591
652.20 0.7240729
652.30 0.7238868
652.40 0.7237008
652.50 0.7235148
652.60 0.7233294
652.70 0.7231444
652.80 0.7229594
652.90 0.7227746
653.00 0.7225898
653.10 0.722405
653.20 0.7222204
653.30 0.7220358
653.40 0.7218513
653.50 0.7216669
653.60 0.7214826
653.70 0.7212983
653.80 0.7211142
653.90 0.7209301
654.00 0.7207461
654.10 0.7205621
654.20 0.7203783
654.30 0.7201945
654.40 0.7200108
654.50 0.7198272
654.60 0.7196436
654.70 0.7194602
654.80 0.7192768
654.90 0.7190935
655.00 0.7189103
655.10 0.7187271
655.20 0.718544
655.30 0.7183611
655.40 0.7181781
655.50 0.7179953
655.60 0.7178125
655.70 0.7176299
655.80 0.7174397
655.90 0.7172496
656.00 0.7170596
656.10 0.7168697
656.20 0.7166799
656.30 0.7164901
656.40 0.7163004
656.50 0.7161108
656.60 0.7159213
656.70 0.7157319
656.80 0.7155426
656.90 0.7153533
657.00 0.7151641
657.10 0.714975
657.20 0.714786
657.30 0.7145971
657.40 0.7144082
657.50 0.7142195
657.60 0.7140308
657.70 0.7138422
657.80 0.7136252
657.90 0.7134471
658.00 0.7132761
658.10 0.713105
658.20 0.7129341
658.30 0.7127632
658.40 0.7125924
658.50 0.7124217
658.60 0.7122511
658.70 0.7120805
658.80 0.71191
658.90 0.7117395
659.00 0.7115691
659.10 0.7113806
659.20 0.7111648
659.30 0.7109491
659.40 0.7107334
659.50 0.7105179
659.60 0.7103025
659.70 0.7100872
659.80 0.7098719
659.90 0.7096568
660.00 0.7094418
660.10 0.7092268
660.20 0.709012
660.30 0.7087973
660.40 0.7086817
660.50 0.7085837
660.60 0.7084858
660.70 0.7083878
660.80 0.7082899
660.90 0.7080755
661.00 0.7078613
661.10 0.7076472
661.20 0.7074332
661.30 0.7072192
661.40 0.7070054
661.50 0.7067916
661.60 0.706578
661.70 0.7063644
661.80 0.706151
661.90 0.7060469
662.00 0.7059429
662.10 0.705839
662.20 0.705735
662.30 0.7056311
662.40 0.7054344
662.50 0.7052215
662.60 0.7050086
662.70 0.7047959
662.80 0.7045832
662.90 0.7043706
663.00 0.7041582
663.10 0.7039458
663.20 0.7037335
663.30 0.7035214
663.40 0.7033093
663.50 0.7030973
663.60 0.7028854
663.70 0.7026736
663.80 0.7024619
663.90 0.7022503
664.00 0.7020388
664.10 0.7019206
664.20 0.7018025
664.30 0.7016843
664.40 0.7015662
664.50 0.7014482
664.60 0.7013302
664.70 0.7011192
664.80 0.7009083
664.90 0.7006974
665.00 0.7004867
665.10 0.7002761
665.20 0.7000656
665.30 0.6998551
665.40 0.6996448
665.50 0.6994346
665.60 0.6992244
665.70 0.69905
665.80 0.6989129
665.90 0.6987758
666.00 0.6986387
666.10 0.6985017
666.20 0.6983648
666.30 0.6982279
666.40 0.6980911
666.50 0.6978925
666.60 0.6976831
666.70 0.6974739
666.80 0.6972647
666.90 0.6970556
667.00 0.6968466
667.10 0.6966377
667.20 0.6964289
667.30 0.6962202
667.40 0.6960115
667.50 0.695803
667.60 0.6955946
667.70 0.6953862
667.80 0.695178
667.90 0.6949698
668.00 0.6947618
668.10 0.6947886
668.20 0.6948569
668.30 0.6946904
668.40 0.6944825
668.50 0.6942748
668.60 0.6940671
668.70 0.6938595
668.80 0.6936521
668.90 0.6934447
669.00 0.6932374
669.10 0.6930302
669.20 0.6928231
669.30 0.6926629
669.40 0.692511
669.50 0.6923591
669.60 0.6922073
669.70 0.6920556
669.80 0.691904
669.90 0.6917524
670.00 0.6916008
670.10 0.6914494
670.20 0.691298
670.30 0.6910999
670.40 0.6908938
670.50 0.6906877
670.60 0.6904817
670.70 0.6902759
670.80 0.6900701
670.90 0.6898644
671.00 0.6896588
671.10 0.6894532
671.20 0.6892478
671.30 0.6890425
671.40 0.6888372
671.50 0.6886321
671.60 0.688427
671.70 0.6882221
671.80 0.6880172
671.90 0.6879068
672.00 0.6878131
672.10 0.6877194
672.20 0.6876257
672.30 0.6875321
672.40 0.6873354
672.50 0.687131
672.60 0.6869267
672.70 0.6867225
672.80 0.6865183
672.90 0.6863143
673.00 0.6861104
673.10 0.6859065
673.20 0.6857028
673.30 0.6854991
673.40 0.6853186
673.50 0.6851423
673.60 0.6849661
673.70 0.6847899
673.80 0.6846138
673.90 0.6844378
674.00 0.6842619
674.10 0.684086
674.20 0.6839102
674.30 0.6837345
674.40 0.6835589
674.50 0.6833833
674.60 0.6832078
674.70 0.6830324
674.80 0.6828571
674.90 0.6826818
675.00 0.6825066
675.10 0.6823315
675.20 0.6821564
675.30 0.6819815
675.40 0.681802
675.50 0.6816217
675.60 0.6814416
675.70 0.6812615
675.80 0.6810815
675.90 0.6809016
676.00 0.6807217
676.10 0.680542
676.20 0.6803623
676.30 0.6801826
676.40 0.6800031
676.50 0.6798236
676.60 0.6796443
676.70 0.6794649
676.80 0.6792857
676.90 0.6791065
677.00 0.6789275
677.10 0.6787485
677.20 0.6785695
677.30 0.6783907
677.40 0.6782119
677.50 0.6780332
677.60 0.6778546
677.70 0.677676
677.80 0.6774975
677.90 0.6773009
678.00 0.6771011
678.10 0.6769014
678.20 0.6767018
678.30 0.6765023
678.40 0.6763029
678.50 0.6761035
678.60 0.6759043
678.70 0.6757051
678.80 0.6755061
678.90 0.6753071
679.00 0.6751082
679.10 0.6749259
679.20 0.6747508
679.30 0.6745758
679.40 0.6744008
679.50 0.6742259
679.60 0.6740511
679.70 0.6738764
679.80 0.6737017
679.90 0.6735271
680.00 0.6733526
680.10 0.6731782
680.20 0.6730038
680.30 0.6728295
680.40 0.6726553
680.50 0.6724811
680.60 0.6723071
680.70 0.6721331
680.80 0.6719591
680.90 0.6717853
681.00 0.6716115
681.10 0.6714378
681.20 0.6712642
681.30 0.6710906
681.40 0.6709171
681.50 0.6707437
681.60 0.6705703
681.70 0.6703971
681.80 0.6702239
681.90 0.6700507
682.00 0.6698777
682.10 0.6697047
682.20 0.6695318
682.30 0.669359
682.40 0.6691862
682.50 0.6690135
682.60 0.6688409
682.70 0.6686683
682.80 0.6684959
682.90 0.6683235
683.00 0.6681511
683.10 0.6679789
683.20 0.6678067
683.30 0.6676346
683.40 0.6674626
683.50 0.6672906
683.60 0.6671187
683.70 0.6669469
683.80 0.6667751
683.90 0.6666034
684.00 0.6664318
684.10 0.6662603
684.20 0.6660888
684.30 0.6659174
684.40 0.6657461
684.50 0.6655749
684.60 0.6654037
684.70 0.6652326
684.80 0.6650615
684.90 0.6648906
685.00 0.6647197
685.10 0.6645489
685.20 0.6643781
685.30 0.6642074
685.40 0.6640368
685.50 0.6638663
685.60 0.6636958
685.70 0.6635255
685.80 0.6633551
685.90 0.6631786
686.00 0.6630005
686.10 0.6628226
686.20 0.6626447
686.30 0.6624668
686.40 0.6622891
686.50 0.6621114
686.60 0.6619338
686.70 0.6617563
686.80 0.6615788
686.90 0.6614015
687.00 0.6612242
687.10 0.661047
687.20 0.6608698
687.30 0.6606927
687.40 0.6605157
687.50 0.6603388
687.60 0.660162
687.70 0.6599852
687.80 0.6598085
687.90 0.6596319
688.00 0.6594553
688.10 0.6592789
688.20 0.6591025
688.30 0.6589261
688.40 0.6587499
688.50 0.6585737
688.60 0.6583976
688.70 0.6582216
688.80 0.6580457
688.90 0.6578698
689.00 0.657694
689.10 0.6575183
689.20 0.6573426
689.30 0.657167
689.40 0.6569915
689.50 0.6568161
689.60 0.6566407
689.70 0.6564655
689.80 0.6562902
689.90 0.6561151
690.00 0.6559401
690.10 0.6557651
690.20 0.6555902
690.30 0.6554153
690.40 0.6552406
690.50 0.6550659
690.60 0.6548912
690.70 0.6547167
690.80 0.6545422
690.90 0.6543678
691.00 0.6541935
691.10 0.6540193
691.20 0.6538451
691.30 0.653671
691.40 0.653497
691.50 0.653323
691.60 0.6531491
691.70 0.6529753
691.80 0.6528016
691.90 0.6526279
692.00 0.6524543
692.10 0.6522808
692.20 0.6521074
692.30 0.651934
692.40 0.6517607
692.50 0.6515875
692.60 0.6514143
692.70 0.6512409
692.80 0.6510663
692.90 0.6508918
693.00 0.6507173
693.10 0.6505429
693.20 0.6503686
693.30 0.6501944
693.40 0.6500202
693.50 0.6498461
693.60 0.6496721
693.70 0.6494981
693.80 0.6493243
693.90 0.6491505
694.00 0.6489767
694.10 0.6488031
694.20 0.6486295
694.30 0.648456
694.40 0.6482826
694.50 0.6481092
694.60 0.6479359
694.70 0.6477627
694.80 0.6475896
694.90 0.6474165
695.00 0.6472435
695.10 0.6470706
695.20 0.6468977
695.30 0.646725
695.40 0.6465522
695.50 0.6463796
695.60 0.6462071
695.70 0.6460346
695.80 0.6458621
695.90 0.6456898
696.00 0.6455175
696.10 0.6453453
696.20 0.6451732
696.30 0.6450012
696.40 0.6448292
696.50 0.6446573
696.60 0.6444912
696.70 0.6443265
696.80 0.6441619
696.90 0.6439974
697.00 0.6438329
697.10 0.6436685
697.20 0.6435041
697.30 0.6433399
697.40 0.6431757
697.50 0.6430115
697.60 0.6428475
697.70 0.6426835
697.80 0.6425196
697.90 0.6423557
698.00 0.6421919
698.10 0.6420282
698.20 0.6418645
698.30 0.6417009
698.40 0.6415374
698.50 0.6413739
698.60 0.6412106
698.70 0.6410472
698.80 0.640884
698.90 0.6407208
699.00 0.6405577
699.10 0.6403783
699.20 0.6401951
699.30 0.640012
699.40 0.639829
699.50 0.6396461
699.60 0.6394632
699.70 0.6392805
699.80 0.6390978
699.90 0.6389152
700.00 0.6387326
700.10 0.6385502
700.20 0.6383678
700.30 0.6381855
700.40 0.6380033
700.50 0.6378211
700.60 0.6376391
700.70 0.6374571
700.80 0.6372752
700.90 0.6370933
701.00 0.6369116
701.10 0.636757
701.20 0.6366088
701.30 0.6364607
701.40 0.6363127
701.50 0.6361647
701.60 0.6360168
701.70 0.6358689
701.80 0.6357211
701.90 0.6355733
702.00 0.6354256
702.10 0.635278
702.20 0.6351304
702.30 0.6349829
702.40 0.6348354
702.50 0.634688
702.60 0.6345137
702.70 0.6343331
702.80 0.6341526
702.90 0.6339722
703.00 0.6337918
703.10 0.6336116
703.20 0.6334314
703.30 0.6332512
703.40 0.6330712
703.50 0.6328912
703.60 0.6327113
703.70 0.6325315
703.80 0.6323518
703.90 0.6321721
704.00 0.6319926
704.10 0.6318131
704.20 0.6316336
704.30 0.6314543
704.40 0.631275
704.50 0.6310958
704.60 0.6309167
704.70 0.6307376
704.80 0.6305587
704.90 0.6303798
705.00 0.6302009
705.10 0.6300222
705.20 0.6299105
705.30 0.6298145
705.40 0.6297186
705.50 0.6296226
705.60 0.6295268
705.70 0.6294309
705.80 0.6292682
705.90 0.62909
706.00 0.6289118
706.10 0.6287336
706.20 0.6285556
706.30 0.6283776
706.40 0.6281997
706.50 0.6280219
706.60 0.6278441
706.70 0.6276665
706.80 0.6274889
706.90 0.6273114
707.00 0.6271339
707.10 0.6269565
707.20 0.6267792
707.30 0.626602
707.40 0.6264249
707.50 0.6262478
707.60 0.6260708
707.70 0.6258939
707.80 0.6257171
707.90 0.6255403
708.00 0.6253636
708.10 0.625187
708.20 0.6250104
708.30 0.624834
708.40 0.6246576
708.50 0.6244813
708.60 0.624305
708.70 0.6241288
708.80 0.6239527
708.90 0.6237767
709.00 0.6236008
709.10 0.6234249
709.20 0.6232491
709.30 0.6230734
709.40 0.6228977
709.50 0.6227221
709.60 0.6225466
709.70 0.6223712
709.80 0.6221959
709.90 0.6220206
710.00 0.6218454
710.10 0.6216703
710.20 0.6214952
710.30 0.6213202
710.40 0.6211453
710.50 0.6209705
710.60 0.6208221
710.70 0.6206799
710.80 0.6205379
710.90 0.6203958
711.00 0.6202538
711.10 0.6201119
711.20 0.6199701
711.30 0.6198283
711.40 0.6196865
711.50 0.6195448
711.60 0.6194032
711.70 0.6192616
711.80 0.61912
711.90 0.6189786
712.00 0.6188371
712.10 0.6186695
712.20 0.6184958
712.30 0.6183221
712.40 0.6181485
712.50 0.617975
712.60 0.6178016
712.70 0.6176283
712.80 0.617455
712.90 0.6172818
713.00 0.6171086
713.10 0.6169356
713.20 0.6167626
713.30 0.6165896
713.40 0.6164168
713.50 0.616244
713.60 0.6160713
713.70 0.6158987
713.80 0.6157261
713.90 0.6155536
714.00 0.6153812
714.10 0.6152089
714.20 0.6150366
714.30 0.6148644
714.40 0.6146923
714.50 0.6145203
714.60 0.6143483
714.70 0.6141764
714.80 0.6140045
714.90 0.6138328
715.00 0.6136611
715.10 0.6134895
715.20 0.6133179
715.30 0.6131465
715.40 0.6129751
715.50 0.6128037
715.60 0.6126325
715.70 0.6124613
715.80 0.6122902
715.90 0.6121191
716.00 0.6119482
716.10 0.6117773
716.20 0.6116064
716.30 0.6114357
716.40 0.611265
716.50 0.6110944
716.60 0.6109479
716.70 0.6108071
716.80 0.6106664
716.90 0.6105258
717.00 0.6103852
717.10 0.6102446
717.20 0.6101041
717.30 0.6099637
717.40 0.6098233
717.50 0.609683
717.60 0.6095427
717.70 0.6094025
717.80 0.6092623
717.90 0.6091222
718.00 0.6089822
718.10 0.6088422
718.20 0.608683
718.30 0.6085135
718.40 0.6083441
718.50 0.6081748
718.60 0.6080055
718.70 0.6078364
718.80 0.6076672
718.90 0.6074982
719.00 0.6073292
719.10 0.6071603
719.20 0.6069915
719.30 0.6068227
719.40 0.606654
719.50 0.6064854
719.60 0.6063169
719.70 0.6061484
719.80 0.60598
719.90 0.6058116
720.00 0.6056434
720.10 0.6054752
720.20 0.605307
720.30 0.605139
720.40 0.604971
720.50 0.6048031
720.60 0.6046352
720.70 0.6044675
720.80 0.6042997
720.90 0.6041321
721.00 0.6039645
721.10 0.603797
721.20 0.6036296
721.30 0.6034622
721.40 0.603295
721.50 0.6031277
721.60 0.6029606
721.70 0.6027935
721.80 0.6026265
721.90 0.6024595
722.00 0.6022927
722.10 0.6021259
722.20 0.6019591
722.30 0.6017925
722.40 0.6016259
722.50 0.6014593
722.60 0.6012929
722.70 0.6011265
722.80 0.6009602
722.90 0.6007939
723.00 0.6006277
723.10 0.6004616
723.20 0.6002956
723.30 0.6001296
723.40 0.5999637
723.50 0.5997978
723.60 0.5996321
723.70 0.5994664
723.80 0.5993007
723.90 0.5991352
724.00 0.5989697
724.10 0.5988042
724.20 0.5986389
724.30 0.5984736
724.40 0.5983084
724.50 0.5981432
724.60 0.5979781
724.70 0.5978131
724.80 0.5976482
724.90 0.5974833
725.00 0.5973185
725.10 0.5971537
725.20 0.5969891
725.30 0.5968245
725.40 0.5966599
725.50 0.5964954
725.60 0.596331
725.70 0.5961667
725.80 0.5960024
725.90 0.5958382
726.00 0.5956741
726.10 0.59551
726.20 0.5953461
726.30 0.5951821
726.40 0.5950183
726.50 0.5948545
726.60 0.5946907
726.70 0.5945271
726.80 0.5943635
726.90 0.5942
727.00 0.5940365
727.10 0.5938731
727.20 0.5937098
727.30 0.5935466
727.40 0.5933834
727.50 0.5932203
727.60 0.5930572
727.70 0.5928942
727.80 0.5927313
727.90 0.5925685
728.00 0.5924057
728.10 0.592243
728.20 0.5920803
728.30 0.5919177
728.40 0.5917552
728.50 0.5915928
728.60 0.5914304
728.70 0.5912681
728.80 0.5911058
728.90 0.5909436
729.00 0.5907815
729.10 0.5906195
729.20 0.5904575
729.30 0.5902956
729.40 0.5901337
729.50 0.589972
729.60 0.5898404
729.70 0.589725
729.80 0.5896097
729.90 0.5894945
730.00 0.5893793
730.10 0.5892641
730.20 0.589149
730.30 0.5890339
730.40 0.5889188
730.50 0.5888038
730.60 0.5886588
730.70 0.5884977
730.80 0.5883367
730.90 0.5881757
731.00 0.5880148
731.10 0.5878539
731.20 0.5876931
731.30 0.5875324
731.40 0.5873718
731.50 0.5872112
731.60 0.5870507
731.70 0.5868902
731.80 0.5867298
731.90 0.5865695
732.00 0.5864093
732.10 0.5862491
732.20 0.586089
732.30 0.5859289
732.40 0.5857689
732.50 0.585609
732.60 0.5854491
732.70 0.5852893
732.80 0.5851296
732.90 0.5849699
733.00 0.5848103
733.10 0.5846508
733.20 0.5844913
733.30 0.5843319
733.40 0.5841726
733.50 0.5840133
733.60 0.5838541
733.70 0.583695
733.80 0.5835359
733.90 0.5833769
734.00 0.5832179
734.10 0.5830591
734.20 0.5829002
734.30 0.5827415
734.40 0.5825828
734.50 0.5824242
734.60 0.5822656
734.70 0.5821071
734.80 0.5819487
734.90 0.5817903
735.00 0.581632
735.10 0.5814738
735.20 0.5813156
735.30 0.5811575
735.40 0.5809995
735.50 0.5808415
735.60 0.5806836
735.70 0.5805257
735.80 0.580368
735.90 0.5802102
736.00 0.5800526
736.10 0.579895
736.20 0.5797375
736.30 0.57958
736.40 0.5794226
736.50 0.5792653
736.60 0.579108
736.70 0.5789508
736.80 0.5787936
736.90 0.5786366
737.00 0.5784796
737.10 0.5783226
737.20 0.5781657
737.30 0.5780089
737.40 0.5778521
737.50 0.5776954
737.60 0.5775388
737.70 0.5773822
737.80 0.5772257
737.90 0.5770693
738.00 0.5769129
738.10 0.5767566
738.20 0.5766004
738.30 0.5764442
738.40 0.5762881
738.50 0.576132
738.60 0.575976
738.70 0.5758201
738.80 0.5756642
738.90 0.5755084
739.00 0.5753526
739.10 0.575197
739.20 0.5750413
739.30 0.5748858
739.40 0.5747303
739.50 0.5745749
739.60 0.5744195
739.70 0.5742642
739.80 0.574109
739.90 0.5739538
740.00 0.5737987
740.10 0.5736436
740.20 0.5734887
740.30 0.5733337
740.40 0.5731789
740.50 0.5730241
740.60 0.5728693
740.70 0.5727147
740.80 0.5725601
740.90 0.5724055
741.00 0.572251
741.10 0.5720966
741.20 0.5719422
741.30 0.5717879
741.40 0.5716337
741.50 0.5714795
741.60 0.5713254
741.70 0.5711714
741.80 0.5710174
741.90 0.5708635
742.00 0.5707096
742.10 0.5705558
742.20 0.5704021
742.30 0.5702484
742.40 0.5700948
742.50 0.5699412
742.60 0.5697877
742.70 0.5696343
742.80 0.5694809
742.90 0.5693276
743.00 0.5691744
743.10 0.5690212
743.20 0.5688681
743.30 0.5687151
743.40 0.5685621
743.50 0.5684091
743.60 0.5682563
743.70 0.5681021
743.80 0.5679423
743.90 0.5677827
744.00 0.5676231
744.10 0.5674636
744.20 0.5673041
744.30 0.5671447
744.40 0.5669854
744.50 0.5668261
744.60 0.5666669
744.70 0.5665078
744.80 0.5663487
744.90 0.5661897
745.00 0.5660308
745.10 0.5658719
745.20 0.5657131
745.30 0.5655543
745.40 0.5653957
745.50 0.5652371
745.60 0.5650785
745.70 0.56492
745.80 0.5647616
745.90 0.5646032
746.00 0.5644449
746.10 0.5642867
746.20 0.5641286
746.30 0.5639705
746.40 0.5638124
746.50 0.5636545
746.60 0.5634966
746.70 0.5633387
746.80 0.5631809
746.90 0.5630232
747.00 0.5628656
747.10 0.562708
747.20 0.5625505
747.30 0.562393
747.40 0.5622356
747.50 0.5620783
747.60 0.561921
747.70 0.5617638
747.80 0.5616067
747.90 0.5614496
748.00 0.5612926
748.10 0.5611357
748.20 0.5609788
748.30 0.560822
748.40 0.5606652
748.50 0.5605086
748.60 0.5603519
748.70 0.5601954
748.80 0.5600389
748.90 0.5598824
749.00 0.5597261
749.10 0.5595698
749.20 0.5594135
749.30 0.5592574
749.40 0.5591012
749.50 0.5589452
749.60 0.5587892
749.70 0.5586333
749.80 0.5584774
749.90 0.5583216
750.00 0.5581659
750.10 0.5580121
750.20 0.5578634
750.30 0.5577147
750.40 0.557566
750.50 0.5574175
750.60 0.557269
750.70 0.5571205
750.80 0.5569721
750.90 0.5568238
751.00 0.5566755
751.10 0.5565273
751.20 0.5563791
751.30 0.556231
751.40 0.556083
751.50 0.555935
751.60 0.555787
751.70 0.5556392
751.80 0.5554914
751.90 0.5553436
752.00 0.5551959
752.10 0.5550483
752.20 0.5549007
752.30 0.5547532
752.40 0.5546058
752.50 0.5544584
752.60 0.5543111
752.70 0.5541638
752.80 0.5540166
752.90 0.5538694
753.00 0.5537223
753.10 0.5535753
753.20 0.5534283
753.30 0.5532813
753.40 0.5531345
753.50 0.5529877
753.60 0.5528409
753.70 0.5526942
753.80 0.5525476
753.90 0.552392
754.00 0.5522339
754.10 0.5520759
754.20 0.551918
754.30 0.5517601
754.40 0.5516022
754.50 0.5514445
754.60 0.5512868
754.70 0.5511292
754.80 0.5509716
754.90 0.5508141
755.00 0.5506566
755.10 0.5504993
755.20 0.550342
755.30 0.5501847
755.40 0.5500275
755.50 0.5498704
755.60 0.5497133
755.70 0.5495564
755.80 0.5493994
755.90 0.5492426
756.00 0.5490858
756.10 0.548929
756.20 0.5487724
756.30 0.5486157
756.40 0.5484592
756.50 0.5483027
756.60 0.5481463
756.70 0.5479899
756.80 0.5478337
756.90 0.5476774
757.00 0.5475213
757.10 0.5473652
757.20 0.5472091
757.30 0.5470532
757.40 0.5468972
757.50 0.5467414
757.60 0.5465888
757.70 0.5464446
757.80 0.5463003
757.90 0.5461562
758.00 0.5460121
758.10 0.5458681
758.20 0.5457241
758.30 0.5455802
758.40 0.5454363
758.50 0.5452925
758.60 0.5451487
758.70 0.545005
758.80 0.5448614
758.90 0.5447178
759.00 0.5445743
759.10 0.5444308
759.20 0.5442874
759.30 0.544144
759.40 0.5440007
759.50 0.5438575
759.60 0.5437143
759.70 0.5435712
759.80 0.5434281
759.90 0.5432851
760.00 0.5431421
760.10 0.5429992
760.20 0.5428564
760.30 0.5427136
760.40 0.5425709
760.50 0.5424282
760.60 0.5422855
760.70 0.542143
760.80 0.5420005
760.90 0.541858
761.00 0.5417156
761.10 0.5415733
761.20 0.541431
761.30 0.5412888
761.40 0.5411421
761.50 0.5409888
761.60 0.5408355
761.70 0.5406823
761.80 0.5405291
761.90 0.540376
762.00 0.540223
762.10 0.54007
762.20 0.5399171
762.30 0.5397642
762.40 0.5396114
762.50 0.5394587
762.60 0.539306
762.70 0.5391534
762.80 0.5390009
762.90 0.5388484
763.00 0.538696
763.10 0.5385436
763.20 0.5383913
763.30 0.5382391
763.40 0.5380869
763.50 0.5379348
763.60 0.5377828
763.70 0.5376308
763.80 0.5374789
763.90 0.537327
764.00 0.5371752
764.10 0.5370234
764.20 0.5368717
764.30 0.5367201
764.40 0.5365686
764.50 0.5364171
764.60 0.5362656
764.70 0.5361142
764.80 0.5359629
764.90 0.5358117
765.00 0.5356605
765.10 0.5355093
765.20 0.5353612
765.30 0.5352158
765.40 0.5350704
765.50 0.5349251
765.60 0.5347799
765.70 0.5346347
765.80 0.5344896
765.90 0.5343446
766.00 0.5341996
766.10 0.5340546
766.20 0.5339097
766.30 0.5337649
766.40 0.5336201
766.50 0.5334754
766.60 0.5333308
766.70 0.5331862
766.80 0.5330416
766.90 0.5328971
767.00 0.5327527
767.10 0.5326084
767.20 0.532464
767.30 0.5323198
767.40 0.5321756
767.50 0.5320314
767.60 0.5318874
767.70 0.5317433
767.80 0.5315994
767.90 0.5314555
768.00 0.5313116
768.10 0.5311678
768.20 0.5310241
768.30 0.5308804
768.40 0.5307367
768.50 0.5305932
768.60 0.5304497
768.70 0.5303062
768.80 0.5301628
768.90 0.5300195
769.00 0.5298762
769.10 0.5297329
769.20 0.5295898
769.30 0.5294466
769.40 0.5293036
769.50 0.5291606
769.60 0.5290176
769.70 0.5288747
769.80 0.5287319
769.90 0.5285891
770.00 0.5284464
770.10 0.5283037
770.20 0.5281611
770.30 0.5280186
770.40 0.5278761
770.50 0.5277336
770.60 0.5275912
770.70 0.5274489
770.80 0.5273066
770.90 0.5271644
771.00 0.5270223
771.10 0.5268802
771.20 0.5267381
771.30 0.5265961
771.40 0.5264542
771.50 0.5263123
771.60 0.5261705
771.70 0.5260287
771.80 0.525887
771.90 0.5257453
772.00 0.5256037
772.10 0.5254622
772.20 0.5253207
772.30 0.5251792
772.40 0.5250379
772.50 0.5248965
772.60 0.5247553
772.70 0.5246141
772.80 0.5244729
772.90 0.5243319
773.00 0.5241909
773.10 0.5240499
773.20 0.523909
773.30 0.5237682
773.40 0.5236274
773.50 0.5234867
773.60 0.5233461
773.70 0.5232055
773.80 0.5230649
773.90 0.5229244
774.00 0.522784
774.10 0.5226436
774.20 0.5225032
774.30 0.522363
774.40 0.5222228
774.50 0.5220826
774.60 0.5219425
774.70 0.5218024
774.80 0.5216624
774.90 0.5215225
775.00 0.5213826
775.10 0.5212427
775.20 0.521103
775.30 0.5209632
775.40 0.5208236
775.50 0.5206839
775.60 0.5205444
775.70 0.5204049
775.80 0.5202654
775.90 0.520126
776.00 0.5199867
776.10 0.5198474
776.20 0.5197082
776.30 0.519569
776.40 0.5194298
776.50 0.5192908
776.60 0.5191518
776.70 0.5190128
776.80 0.5188739
776.90 0.518735
777.00 0.5185962
777.10 0.5184575
777.20 0.5183188
777.30 0.5181802
777.40 0.5180416
777.50 0.517903
777.60 0.5177646
777.70 0.5176261
777.80 0.5174878
777.90 0.5173495
778.00 0.5172112
778.10 0.517073
778.20 0.5169349
778.30 0.5167968
778.40 0.5166587
778.50 0.5165207
778.60 0.5163828
778.70 0.5162449
778.80 0.5161071
778.90 0.5159693
779.00 0.5158316
779.10 0.5156939
779.20 0.5155563
779.30 0.5154187
779.40 0.5152812
779.50 0.5151438
779.60 0.5150064
779.70 0.514869
779.80 0.5147318
779.90 0.5145945
780.00 0.5144573
780.10 0.5143202
780.20 0.5141831
780.30 0.5140461
780.40 0.5139091
780.50 0.5137722
780.60 0.5136319
780.70 0.5134903
780.80 0.5133488
780.90 0.5132073
781.00 0.5130659
781.10 0.5129245
781.20 0.5127832
781.30 0.512642
781.40 0.5125008
781.50 0.5123596
781.60 0.5122186
781.70 0.5120775
781.80 0.5119366
781.90 0.5117956
782.00 0.5116548
782.10 0.511514
782.20 0.5113732
782.30 0.5112325
782.40 0.5110919
782.50 0.5109513
782.60 0.5108107
782.70 0.5106703
782.80 0.5105298
782.90 0.5103895
783.00 0.5102492
783.10 0.5101089
783.20 0.5099687
783.30 0.5098286
783.40 0.5096885
783.50 0.5095484
783.60 0.5094085
783.70 0.5092685
783.80 0.5091287
783.90 0.5089888
784.00 0.5088491
784.10 0.5087094
784.20 0.5085697
784.30 0.5084301
784.40 0.5082906
784.50 0.5081511
784.60 0.5080114
784.70 0.5078713
784.80 0.5077312
784.90 0.5075912
785.00 0.5074513
785.10 0.5073114
785.20 0.5071716
785.30 0.5070318
785.40 0.506892
785.50 0.5067524
785.60 0.5066127
785.70 0.5064732
785.80 0.5063337
785.90 0.5061942
786.00 0.5060548
786.10 0.5059155
786.20 0.5057762
786.30 0.5056369
786.40 0.5054977
786.50 0.5053586
786.60 0.5052195
786.70 0.5050805
786.80 0.5049415
786.90 0.5048026
787.00 0.5046638
787.10 0.504525
787.20 0.5043862
787.30 0.5042475
787.40 0.5041089
787.50 0.5039703
787.60 0.5038317
787.70 0.5036933
787.80 0.5035548
787.90 0.5034165
788.00 0.5032781
788.10 0.5031399
788.20 0.5030017
788.30 0.5028635
788.40 0.5027257
788.50 0.5025882
788.60 0.5024507
788.70 0.5023132
788.80 0.5021758
788.90 0.5020384
789.00 0.5019011
789.10 0.5017639
789.20 0.5016267
789.30 0.5014895
789.40 0.5013525
789.50 0.5012154
789.60 0.5010784
789.70 0.5009415
789.80 0.5008046
789.90 0.5006678
790.00 0.500531
790.10 0.5003943
790.20 0.5002577
790.30 0.5001211
790.40 0.4999845
790.50 0.499848
790.60 0.4997115
790.70 0.4995752
790.80 0.4994388
790.90 0.4993025
791.00 0.4991663
791.10 0.4990301
791.20 0.498894
791.30 0.4987579
791.40 0.4986219
791.50 0.4984859
791.60 0.49835
791.70 0.4982141
791.80 0.4980783
791.90 0.4979425
792.00 0.4978068
792.10 0.4976712
792.20 0.4975356
792.30 0.4974
792.40 0.4972645
792.50 0.497129
792.60 0.4969937
792.70 0.4968583
792.80 0.496723
792.90 0.4965878
793.00 0.4964526
793.10 0.4963175
793.20 0.4961824
793.30 0.4960473
793.40 0.4959124
793.50 0.4957774
793.60 0.4956426
793.70 0.4955077
793.80 0.495373
793.90 0.4952383
794.00 0.4951036
794.10 0.494969
794.20 0.4948344
794.30 0.4946999
794.40 0.4945655
794.50 0.4944311
794.60 0.4942967
794.70 0.4941624
794.80 0.4940282
794.90 0.493894
795.00 0.4937598
795.10 0.4936257
795.20 0.4934917
795.30 0.4933577
795.40 0.4932238
795.50 0.4930899
795.60 0.492956
795.70 0.4928223
795.80 0.4926885
795.90 0.4925549
796.00 0.4924212
796.10 0.4922877
796.20 0.4921541
796.30 0.4920166
796.40 0.4918784
796.50 0.4917403
796.60 0.4916022
796.70 0.4914641
796.80 0.4913262
796.90 0.4911882
797.00 0.4910503
797.10 0.4909125
797.20 0.4907747
797.30 0.490637
797.40 0.4904994
797.50 0.4903617
797.60 0.4902242
797.70 0.4900867
797.80 0.4899492
797.90 0.4898118
798.00 0.4896745
798.10 0.4895372
798.20 0.4893999
798.30 0.4892628
798.40 0.4891256
798.50 0.4889886
798.60 0.4888515
798.70 0.4887146
798.80 0.4885776
798.90 0.4884408
799.00 0.488304
799.10 0.4881672
799.20 0.4880305
799.30 0.4878938
799.40 0.4877572
799.50 0.4876207
799.60 0.4874842
799.70 0.4873478
799.80 0.4872114
799.90 0.487075
800.00 0.4869388
800.10 0.4868025
800.20 0.4866664
800.30 0.4865302
800.40 0.4863942
800.50 0.4862581
800.60 0.4861222
800.70 0.4859863
800.80 0.4858504
800.90 0.4857146
801.00 0.4855789
801.10 0.4854432
801.20 0.4853075
801.30 0.4851719
801.40 0.4850364
801.50 0.4849009
801.60 0.4847654
801.70 0.4846301
801.80 0.4844947
801.90 0.4843594
802.00 0.4842242
802.10 0.484089
802.20 0.4839539
802.30 0.4838188
802.40 0.4836838
802.50 0.4835489
802.60 0.4834139
802.70 0.4832791
802.80 0.4831443
802.90 0.4830095
803.00 0.4828748
803.10 0.4827402
803.20 0.4826055
803.30 0.482471
803.40 0.4823365
803.50 0.4822021
803.60 0.4820677
803.70 0.4819333
803.80 0.481799
803.90 0.4816648
804.00 0.4815306
804.10 0.4813965
804.20 0.4812635
804.30 0.4811343
804.40 0.4810052
804.50 0.4808762
804.60 0.4807472
804.70 0.4806182
804.80 0.4804893
804.90 0.4803605
805.00 0.4802317
805.10 0.4801029
805.20 0.4799742
805.30 0.4798456
805.40 0.479717
805.50 0.4795884
805.60 0.4794599
805.70 0.4793314
805.80 0.479203
805.90 0.4790747
806.00 0.4789464
806.10 0.4788181
806.20 0.4786899
806.30 0.4785617
806.40 0.4784336
806.50 0.4783055
806.60 0.4781775
806.70 0.4780495
806.80 0.4779216
806.90 0.4777938
807.00 0.4776659
807.10 0.4775382
807.20 0.4774104
807.30 0.4772827
807.40 0.4771551
807.50 0.4770275
807.60 0.4769
807.70 0.4767725
807.80 0.4766451
807.90 0.4765177
808.00 0.4763904
808.10 0.4762631
808.20 0.4761357
808.30 0.4759992
808.40 0.4758626
808.50 0.4757262
808.60 0.4755897
808.70 0.4754534
808.80 0.4753171
808.90 0.4751808
809.00 0.4750446
809.10 0.4749084
809.20 0.4747723
809.30 0.4746363
809.40 0.4745003
809.50 0.4743643
809.60 0.4742284
809.70 0.4740926
809.80 0.4739568
809.90 0.4738211
810.00 0.4736854
810.10 0.4735498
810.20 0.4734142
810.30 0.4732787
810.40 0.4731432
810.50 0.4730078
810.60 0.4728724
810.70 0.4727371
810.80 0.4726018
810.90 0.4724666
811.00 0.4723314
811.10 0.4721963
811.20 0.4720613
811.30 0.4719263
811.40 0.4717913
811.50 0.4716564
811.60 0.4715216
811.70 0.4713868
811.80 0.4712521
811.90 0.4711174
812.00 0.4709827
812.10 0.4708481
812.20 0.4707136
812.30 0.4705855
812.40 0.470459
812.50 0.4703325
812.60 0.4702062
812.70 0.4700798
812.80 0.4699535
812.90 0.4698273
813.00 0.4697011
813.10 0.4695749
813.20 0.4694488
813.30 0.4693227
813.40 0.4691967
813.50 0.4690708
813.60 0.4689448
813.70 0.468819
813.80 0.4686932
813.90 0.4685674
814.00 0.4684417
814.10 0.468316
814.20 0.4681904
814.30 0.4680648
814.40 0.4679392
814.50 0.4678138
814.60 0.4676883
814.70 0.4675629
814.80 0.4674376
814.90 0.4673123
815.00 0.467187
815.10 0.4670618
815.20 0.4669367
815.30 0.4668116
815.40 0.4666865
815.50 0.4665615
815.60 0.4664365
815.70 0.4663116
815.80 0.4661867
815.90 0.4660619
816.00 0.4659371
816.10 0.4658124
816.20 0.4656877
816.30 0.4655631
816.40 0.4654385
816.50 0.465314
816.60 0.4651895
816.70 0.465065
816.80 0.4649406
816.90 0.4648163
817.00 0.464692
817.10 0.4645677
817.20 0.4644435
817.30 0.4643193
817.40 0.4641952
817.50 0.4640711
817.60 0.4639471
817.70 0.4638231
817.80 0.4636992
817.90 0.4635753
818.00 0.4634515
818.10 0.4633277
818.20 0.4632039
818.30 0.4630802
818.40 0.4629566
818.50 0.462833
818.60 0.4627094
818.70 0.4625859
818.80 0.4624625
818.90 0.462339
819.00 0.4622157
819.10 0.4620923
819.20 0.4619691
819.30 0.4618262
819.40 0.4616703
819.50 0.4615145
819.60 0.4613587
819.70 0.4612031
819.80 0.4610474
819.90 0.4608919
820.00 0.4607363
820.10 0.4605848
820.20 0.4604725
820.30 0.4603602
820.40 0.4602408
820.50 0.4601162
820.60 0.4599916
820.70 0.4598671
820.80 0.4597427
820.90 0.4596182
821.00 0.4594939
821.10 0.4593696
821.20 0.4592453
821.30 0.4591211
821.40 0.4589969
821.50 0.4588727
821.60 0.4587487
821.70 0.4586246
821.80 0.4585006
821.90 0.4583767
822.00 0.4582528
822.10 0.4581289
822.20 0.4580051
822.30 0.4578814
822.40 0.4577577
822.50 0.457634
822.60 0.4575104
822.70 0.4573868
822.80 0.4572633
822.90 0.4571398
823.00 0.4570164
823.10 0.456893
823.20 0.4567697
823.30 0.4566464
823.40 0.4565231
823.50 0.4563999
823.60 0.4562768
823.70 0.4561537
823.80 0.4560306
823.90 0.4559076
824.00 0.4557846
824.10 0.4556617
824.20 0.4555388
824.30 0.455416
824.40 0.4552932
824.50 0.4551705
824.60 0.4550478
824.70 0.4549251
824.80 0.4548025
824.90 0.45468
825.00 0.4545575
825.10 0.454435
825.20 0.4543126
825.30 0.4541902
825.40 0.4540679
825.50 0.4539456
825.60 0.4538234
825.70 0.4537012
825.80 0.4535791
825.90 0.453457
826.00 0.4533349
826.10 0.4532129
826.20 0.453091
826.30 0.452967
826.40 0.4528417
826.50 0.4527165
826.60 0.4525913
826.70 0.4524662
826.80 0.4523411
826.90 0.4522161
827.00 0.4520911
827.10 0.4519661
827.20 0.4518412
827.30 0.4517164
827.40 0.4515916
827.50 0.4514668
827.60 0.4513421
827.70 0.4512174
827.80 0.4510928
827.90 0.4509682
828.00 0.4508437
828.10 0.4507192
828.20 0.4505948
828.30 0.4504704
828.40 0.4503461
828.50 0.4502218
828.60 0.4500989
828.70 0.4499773
828.80 0.4498557
828.90 0.4497342
829.00 0.4496127
829.10 0.4494913
829.20 0.4493699
829.30 0.4492485
829.40 0.4491272
829.50 0.449006
829.60 0.4488847
829.70 0.4487636
829.80 0.4486424
829.90 0.4485214
830.00 0.4484003
830.10 0.4482793
830.20 0.4481584
830.30 0.4480375
830.40 0.4479166
830.50 0.4477958
830.60 0.4476751
830.70 0.4475544
830.80 0.4474337
830.90 0.4473131
831.00 0.4471925
831.10 0.4470719
831.20 0.4469514
831.30 0.446831
831.40 0.4467106
831.50 0.4465902
831.60 0.4464699
831.70 0.4463497
831.80 0.4462294
831.90 0.4461093
832.00 0.4459891
832.10 0.445869
832.20 0.445749
832.30 0.445629
832.40 0.445509
832.50 0.4453891
832.60 0.4452693
832.70 0.4451495
832.80 0.4450297
832.90 0.4449099
833.00 0.4447903
833.10 0.4446706
833.20 0.444551
833.30 0.4444315
833.40 0.444312
833.50 0.4441925
833.60 0.4440731
833.70 0.4439537
833.80 0.4438344
833.90 0.4437151
834.00 0.4435959
834.10 0.4434767
834.20 0.4433575
834.30 0.4432384
834.40 0.4431193
834.50 0.4430003
834.60 0.4428814
834.70 0.4427624
834.80 0.4426435
834.90 0.4425247
835.00 0.4424059
835.10 0.4422872
835.20 0.4421684
835.30 0.4420498
835.40 0.4419312
835.50 0.4418126
835.60 0.4416941
835.70 0.4415756
835.80 0.4414571
835.90 0.4413387
836.00 0.4412204
836.10 0.4411021
836.20 0.4409838
836.30 0.4408656
836.40 0.4407474
836.50 0.4406293
836.60 0.4405112
836.70 0.4403931
836.80 0.4402751
836.90 0.4401543
837.00 0.4400323
837.10 0.4399104
837.20 0.4397885
837.30 0.4396666
837.40 0.4395448
837.50 0.439423
837.60 0.4393013
837.70 0.4391796
837.80 0.439058
837.90 0.4389364
838.00 0.4388149
838.10 0.4386934
838.20 0.4385719
838.30 0.4384505
838.40 0.4383292
838.50 0.4382079
838.60 0.4380866
838.70 0.4379654
838.80 0.4378442
838.90 0.4377231
839.00 0.437602
839.10 0.4374809
839.20 0.4373599
839.30 0.437239
839.40 0.4371181
839.50 0.4369972
839.60 0.4368764
839.70 0.4367556
839.80 0.4366349
839.90 0.4365142
840.00 0.4363936
840.10 0.436273
840.20 0.4361525
840.30 0.436032
840.40 0.4359115
840.50 0.4357911
840.60 0.4356708
840.70 0.4355504
840.80 0.4354302
840.90 0.4353099
841.00 0.4351897
841.10 0.4350696
841.20 0.4349495
841.30 0.4348295
841.40 0.4347095
841.50 0.4345895
841.60 0.4344696
841.70 0.4343497
841.80 0.4342299
841.90 0.4341101
842.00 0.4339904
842.10 0.4338707
842.20 0.4337511
842.30 0.4336315
842.40 0.4335119
842.50 0.4333924
842.60 0.4332729
842.70 0.4331535
842.80 0.4330341
842.90 0.4329148
843.00 0.4327955
843.10 0.4326763
843.20 0.4325571
843.30 0.4324379
843.40 0.4323188
843.50 0.4321997
843.60 0.4320807
843.70 0.4319618
843.80 0.4318428
843.90 0.4317239
844.00 0.4316051
844.10 0.4314863
844.20 0.4313675
844.30 0.4312488
844.40 0.4311301
844.50 0.4310115
844.60 0.4308929
844.70 0.4307744
844.80 0.4306559
844.90 0.4305375
845.00 0.4304191
845.10 0.4303007
845.20 0.4301824
845.30 0.4300643
845.40 0.4299462
845.50 0.4298282
845.60 0.4297102
845.70 0.4295923
845.80 0.4294744
845.90 0.4293565
846.00 0.4292387
846.10 0.429121
846.20 0.4290032
846.30 0.4288856
846.40 0.4287679
846.50 0.4286504
846.60 0.4285328
846.70 0.4284153
846.80 0.4282979
846.90 0.4281804
847.00 0.4280631
847.10 0.4279457
847.20 0.4278285
847.30 0.4277112
847.40 0.427594
847.50 0.4274769
847.60 0.4273598
847.70 0.4272427
847.80 0.4271257
847.90 0.4270087
848.00 0.4268918
848.10 0.4267749
848.20 0.426658
848.30 0.4265412
848.40 0.4264245
848.50 0.4263077
848.60 0.4261911
848.70 0.4260744
848.80 0.4259578
848.90 0.4258413
849.00 0.4257248
849.10 0.4256083
849.20 0.4254919
849.30 0.4253755
849.40 0.4252592
849.50 0.4251429
849.60 0.4250267
849.70 0.4249105
849.80 0.4247943
849.90 0.4246782
850.00 0.4245621
850.10 0.4244461
850.20 0.4243301
850.30 0.4242142
850.40 0.4240983
850.50 0.4239824
850.60 0.4238666
850.70 0.4237508
850.80 0.4236351
850.90 0.4235194
851.00 0.4234037
851.10 0.4232881
851.20 0.4231726
851.30 0.4230571
851.40 0.4229416
851.50 0.4228261
851.60 0.4227108
851.70 0.4225954
851.80 0.4224801
851.90 0.4223648
852.00 0.4222496
852.10 0.4221344
852.20 0.4220193
852.30 0.4219042
852.40 0.4217892
852.50 0.4216742
852.60 0.4215592
852.70 0.4214443
852.80 0.4213294
852.90 0.4212145
853.00 0.4210997
853.10 0.420985
853.20 0.4208703
853.30 0.4207556
853.40 0.420641
853.50 0.4205264
853.60 0.4204119
853.70 0.4202974
853.80 0.4201831
853.90 0.4200689
854.00 0.4199546
854.10 0.4198405
854.20 0.4197263
854.30 0.4196122
854.40 0.4194982
854.50 0.4193842
854.60 0.4192702
854.70 0.4191563
854.80 0.4190424
854.90 0.4189286
855.00 0.4188148
855.10 0.418701
855.20 0.4185873
855.30 0.4184736
855.40 0.41836
855.50 0.4182464
855.60 0.4181329
855.70 0.4180193
855.80 0.4179059
855.90 0.4177925
856.00 0.4176791
856.10 0.4175657
856.20 0.4174524
856.30 0.4173392
856.40 0.417226
856.50 0.4171128
856.60 0.4169997
856.70 0.4168866
856.80 0.4167735
856.90 0.4166605
857.00 0.4165475
857.10 0.4164346
857.20 0.4163217
857.30 0.4162089
857.40 0.4160961
857.50 0.4159833
857.60 0.4158706
857.70 0.4157579
857.80 0.4156453
857.90 0.4155327
858.00 0.4154201
858.10 0.4153076
858.20 0.4151951
858.30 0.4150827
858.40 0.4149703
858.50 0.414858
858.60 0.4147457
858.70 0.4146334
858.80 0.4145212
858.90 0.414409
859.00 0.4142969
859.10 0.4141847
859.20 0.4140727
859.30 0.4139607
859.40 0.4138487
859.50 0.4137367
859.60 0.4136248
859.70 0.413513
859.80 0.4134012
859.90 0.4132894
860.00 0.4131777
860.10 0.413066
860.20 0.4129543
860.30 0.4128427
860.40 0.4127311
860.50 0.4126196
860.60 0.4125081
860.70 0.4123967
860.80 0.4122853
860.90 0.4121739
861.00 0.4120626
861.10 0.4119513
861.20 0.41184
861.30 0.4117288
861.40 0.4116177
861.50 0.4115065
861.60 0.4113954
861.70 0.4112844
861.80 0.4111734
861.90 0.4110624
862.00 0.4109515
862.10 0.4108406
862.20 0.4107293
862.30 0.4106148
862.40 0.4105004
862.50 0.410386
862.60 0.4102716
862.70 0.4101573
862.80 0.410043
862.90 0.4099288
863.00 0.4098146
863.10 0.4097004
863.20 0.4095863
863.30 0.4094722
863.40 0.4093582
863.50 0.4092442
863.60 0.4091303
863.70 0.4090163
863.80 0.4089025
863.90 0.4087887
864.00 0.4086749
864.10 0.4085611
864.20 0.4084474
864.30 0.4083338
864.40 0.4082202
864.50 0.4081066
864.60 0.4079931
864.70 0.4078796
864.80 0.4077661
864.90 0.4076527
865.00 0.4075394
865.10 0.407426
865.20 0.4073128
865.30 0.4071995
865.40 0.4070863
865.50 0.4069732
865.60 0.40686
865.70 0.406747
865.80 0.4066339
865.90 0.4065209
866.00 0.406408
866.10 0.4062951
866.20 0.4061822
866.30 0.4060694
866.40 0.4059566
866.50 0.4058439
866.60 0.4057312
866.70 0.4056185
866.80 0.4055059
866.90 0.4053933
867.00 0.4052808
867.10 0.4051683
867.20 0.4050558
867.30 0.4049434
867.40 0.404831
867.50 0.4047187
867.60 0.4046064
867.70 0.4044941
867.80 0.4043819
867.90 0.4042698
868.00 0.4041576
868.10 0.4040455
868.20 0.4039335
868.30 0.4038215
868.40 0.4037095
868.50 0.4035976
868.60 0.4034857
868.70 0.4033739
868.80 0.4032621
868.90 0.4031503
869.00 0.4030386
869.10 0.4029269
869.20 0.4028153
869.30 0.4027037
869.40 0.4025921
869.50 0.4024806
869.60 0.4023691
869.70 0.4022577
869.80 0.4021463
869.90 0.402035
870.00 0.4019236
870.10 0.4018124
870.20 0.4017011
870.30 0.4015899
870.40 0.4014788
870.50 0.4013677
870.60 0.4012566
870.70 0.4011456
870.80 0.4010346
870.90 0.4009272
871.00 0.4008202
871.10 0.4007132
871.20 0.4006063
871.30 0.4004995
871.40 0.4003926
871.50 0.4002858
871.60 0.4001791
871.70 0.4000723
871.80 0.3999657
871.90 0.399859
872.00 0.3997524
872.10 0.3996458
872.20 0.3995393
872.30 0.3994328
872.40 0.3993264
872.50 0.39922
872.60 0.3991136
872.70 0.3990073
872.80 0.398901
872.90 0.3987947
873.00 0.3986885
873.10 0.3985823
873.20 0.3984761
873.30 0.39837
873.40 0.398264
873.50 0.3981579
873.60 0.3980519
873.70 0.397946
873.80 0.3978401
873.90 0.3977342
874.00 0.3976284
874.10 0.3975225
874.20 0.3974168
874.30 0.3973111
874.40 0.3972054
874.50 0.3970997
874.60 0.3969941
874.70 0.3968885
874.80 0.396783
874.90 0.3966775
875.00 0.396572
875.10 0.3964666
875.20 0.3963586
875.30 0.3962458
875.40 0.3961331
875.50 0.3960205
875.60 0.3959078
875.70 0.3957953
875.80 0.3956827
875.90 0.3955702
876.00 0.3954578
876.10 0.3953454
876.20 0.395233
876.30 0.3951207
876.40 0.3950084
876.50 0.3948961
876.60 0.3947839
876.70 0.3946718
876.80 0.3945596
876.90 0.3944476
877.00 0.3943355
877.10 0.3942235
877.20 0.3941116
877.30 0.3939996
877.40 0.3938878
877.50 0.3937759
877.60 0.3936641
877.70 0.3935524
877.80 0.3934406
877.90 0.393329
878.00 0.3932173
878.10 0.3931057
878.20 0.3929942
878.30 0.3928827
878.40 0.3927712
878.50 0.3926598
878.60 0.3925484
878.70 0.392437
878.80 0.3923257
878.90 0.3922144
879.00 0.3921032
879.10 0.391992
879.20 0.3918809
879.30 0.3917698
879.40 0.3916587
879.50 0.3915477
879.60 0.3914428
879.70 0.3913393
879.80 0.3912359
879.90 0.3911325
880.00 0.3910291
880.10 0.3909257
880.20 0.3908224
880.30 0.3907192
880.40 0.390616
880.50 0.3905128
880.60 0.3904096
880.70 0.3903065
880.80 0.3902034
880.90 0.3901004
881.00 0.3899974
881.10 0.3898944
881.20 0.3897915
881.30 0.3896886
881.40 0.3895857
881.50 0.3894829
881.60 0.3893801
881.70 0.3892774
881.80 0.3891747
881.90 0.389072
882.00 0.3889694
882.10 0.3888668
882.20 0.3887642
882.30 0.3886617
882.40 0.3885592
882.50 0.3884567
882.60 0.3883543
882.70 0.3882519
882.80 0.3881496
882.90 0.3880473
883.00 0.387945
883.10 0.3878428
883.20 0.3877406
883.30 0.3876384
883.40 0.3875363
883.50 0.3874342
883.60 0.3873321
883.70 0.3872301
883.80 0.3871281
883.90 0.3870262
884.00 0.3869243
884.10 0.3868224
884.20 0.3867205
884.30 0.3866187
884.40 0.386517
884.50 0.3864152
884.60 0.3863135
884.70 0.3862119
884.80 0.3861103
884.90 0.3860087
885.00 0.3859071
885.10 0.3858056
885.20 0.3857041
885.30 0.3856027
885.40 0.3855013
885.50 0.3853999
885.60 0.3852986
885.70 0.3851973
885.80 0.385096
885.90 0.3849948
886.00 0.3848936
886.10 0.3847924
886.20 0.3846913
886.30 0.3845902
886.40 0.3844892
886.50 0.3843882
886.60 0.3842872
886.70 0.3841862
886.80 0.3840853
886.90 0.3839845
887.00 0.3838836
887.10 0.3837828
887.20 0.3836821
887.30 0.3835813
887.40 0.3834807
887.50 0.38338
887.60 0.3832794
887.70 0.3831788
887.80 0.3830782
887.90 0.3829777
888.00 0.3828772
888.10 0.3827768
888.20 0.3826764
888.30 0.382576
888.40 0.3824697
888.50 0.3823625
888.60 0.3822554
888.70 0.3821482
888.80 0.3820412
888.90 0.3819341
889.00 0.3818271
889.10 0.3817202
889.20 0.3816132
889.30 0.3815064
889.40 0.3813995
889.50 0.3812927
889.60 0.3811859
889.70 0.3810792
889.80 0.3809725
889.90 0.3808659
890.00 0.3807593
890.10 0.3806527
890.20 0.3805461
890.30 0.3804396
890.40 0.3803332
890.50 0.3802268
890.60 0.3801204
890.70 0.380014
890.80 0.3799077
890.90 0.3798015
891.00 0.3796952
891.10 0.379589
891.20 0.3794829
891.30 0.3793768
891.40 0.3792707
891.50 0.3791646
891.60 0.3790586
891.70 0.3789527
891.80 0.3788467
891.90 0.3787408
892.00 0.378635
892.10 0.3785292
892.20 0.3784234
892.30 0.3783177
892.40 0.378212
892.50 0.3781063
892.60 0.3780007
892.70 0.3778951
892.80 0.3777895
892.90 0.377684
893.00 0.3775786
893.10 0.3774731
893.20 0.3773677
893.30 0.3772624
893.40 0.377157
893.50 0.3770518
893.60 0.3769465
893.70 0.3768413
893.80 0.3767361
893.90 0.376631
894.00 0.3765259
894.10 0.3764208
894.20 0.3763158
894.30 0.3762108
894.40 0.3761059
894.50 0.376001
894.60 0.3758961
894.70 0.3757913
894.80 0.3756865
894.90 0.3755817
895.00 0.375477
895.10 0.3753723
895.20 0.3752677
895.30 0.3751631
895.40 0.3750585
895.50 0.374954
895.60 0.3748495
895.70 0.374745
895.80 0.3746406
895.90 0.3745362
896.00 0.3744318
896.10 0.3743275
896.20 0.3742233
896.30 0.374119
896.40 0.3740148
896.50 0.3739107
896.60 0.3738065
896.70 0.3737025
896.80 0.3735984
896.90 0.3734944
897.00 0.3733904
897.10 0.3732865
897.20 0.3731829
897.30 0.373086
897.40 0.3729892
897.50 0.3728925
897.60 0.3727957
897.70 0.372699
897.80 0.3726024
897.90 0.3725057
898.00 0.3724092
898.10 0.3723126
898.20 0.3722161
898.30 0.3721196
898.40 0.3720231
898.50 0.3719267
898.60 0.3718303
898.70 0.3717339
898.80 0.3716376
898.90 0.3715413
899.00 0.3714451
899.10 0.3713488
899.20 0.3712527
899.30 0.3711565
899.40 0.3710604
899.50 0.3709643
899.60 0.3708682
899.70 0.3707722
899.80 0.3706762
899.90 0.3705803
900.00 0.3704843
900.10 0.3703885
900.20 0.3702926
900.30 0.3701968
900.40 0.370101
900.50 0.3700052
900.60 0.3699095
900.70 0.3698138
900.80 0.3697182
900.90 0.3696226
901.00 0.369527
901.10 0.3694314
901.20 0.3693359
901.30 0.3692404
901.40 0.3691449
901.50 0.3690495
901.60 0.3689541
901.70 0.3688576
901.80 0.3687555
901.90 0.3686534
902.00 0.3685514
902.10 0.3684495
902.20 0.3683475
902.30 0.3682456
902.40 0.3681438
902.50 0.3680419
902.60 0.3679401
902.70 0.3678384
902.80 0.3677367
902.90 0.367635
903.00 0.3675333
903.10 0.3674317
903.20 0.3673301
903.30 0.3672286
903.40 0.3671271
903.50 0.3670256
903.60 0.3669242
903.70 0.3668228
903.80 0.3667214
903.90 0.3666201
904.00 0.3665188
904.10 0.3664176
904.20 0.3663164
904.30 0.3662152
904.40 0.366114
904.50 0.3660129
904.60 0.3659118
904.70 0.3658108
904.80 0.3657098
904.90 0.3656088
905.00 0.3655079
905.10 0.365407
905.20 0.3653061
905.30 0.3652053
905.40 0.3651045
905.50 0.3650038
905.60 0.3649031
905.70 0.3648024
905.80 0.3647017
905.90 0.3646011
906.00 0.3645006
906.10 0.3644
906.20 0.3642996
906.30 0.3641993
906.40 0.3640991
906.50 0.3639989
906.60 0.3638987
906.70 0.3637986
906.80 0.3636985
906.90 0.3635984
907.00 0.3634984
907.10 0.3633984
907.20 0.3632985
907.30 0.3631986
907.40 0.3630987
907.50 0.3629988
907.60 0.362899
907.70 0.3627992
907.80 0.3626995
907.90 0.3625998
908.00 0.3625001
908.10 0.3624005
908.20 0.3623009
908.30 0.3622013
908.40 0.3621018
908.50 0.3620023
908.60 0.3619028
908.70 0.3618034
908.80 0.361704
908.90 0.3616047
909.00 0.3615054
909.10 0.3614061
909.20 0.3613068
909.30 0.3612076
909.40 0.3611084
909.50 0.3610093
909.60 0.3609102
909.70 0.3608111
909.80 0.3607121
909.90 0.360613
910.00 0.3605141
910.10 0.3604151
910.20 0.3603162
910.30 0.3602174
910.40 0.3601185
910.50 0.3600197
910.60 0.359921
910.70 0.3598223
910.80 0.3597236
910.90 0.3596249
911.00 0.3595263
911.10 0.3594277
911.20 0.3593291
911.30 0.3592306
911.40 0.3591321
911.50 0.3590337
911.60 0.3589353
911.70 0.3588369
911.80 0.3587385
911.90 0.3586402
912.00 0.3585419
912.10 0.3584437
912.20 0.3583455
912.30 0.3582473
912.40 0.3581492
912.50 0.3580511
912.60 0.357953
912.70 0.357855
912.80 0.357757
912.90 0.357659
913.00 0.3575611
913.10 0.3574632
913.20 0.3573653
913.30 0.3572675
913.40 0.3571697
913.50 0.3570719
913.60 0.3569742
913.70 0.3568765
913.80 0.3567788
913.90 0.3566812
914.00 0.3565836
914.10 0.356486
914.20 0.3563885
914.30 0.356291
914.40 0.3561936
914.50 0.3560962
914.60 0.3559988
914.70 0.3559014
914.80 0.3558041
914.90 0.3557068
915.00 0.3556096
915.10 0.3555123
915.20 0.3554152
915.30 0.3553227
915.40 0.3552322
915.50 0.3551417
915.60 0.3550513
915.70 0.3549609
915.80 0.3548705
915.90 0.3547802
916.00 0.3546899
916.10 0.3545996
916.20 0.3545093
916.30 0.3544191
916.40 0.3543289
916.50 0.3542388
916.60 0.3541487
916.70 0.3540586
916.80 0.3539685
916.90 0.3538785
917.00 0.3537885
917.10 0.3536985
917.20 0.3536086
917.30 0.3535187
917.40 0.3534288
917.50 0.353339
917.60 0.3532492
917.70 0.3531594
917.80 0.3530696
917.90 0.3529799
918.00 0.3528902
918.10 0.3528006
918.20 0.3527109
918.30 0.3526214
918.40 0.3525318
918.50 0.3524422
918.60 0.3523527
918.70 0.3522633
918.80 0.3521738
918.90 0.3520844
919.00 0.351995
919.10 0.3519057
919.20 0.3518164
919.30 0.3517271
919.40 0.3516378
919.50 0.3515486
919.60 0.3514594
919.70 0.3513702
919.80 0.3512811
919.90 0.351186
920.00 0.3510905
920.10 0.3509951
920.20 0.3508997
920.30 0.3508044
920.40 0.3507091
920.50 0.3506138
920.60 0.3505186
920.70 0.3504233
920.80 0.3503282
920.90 0.350233
921.00 0.3501379
921.10 0.3500428
921.20 0.3499478
921.30 0.3498528
921.40 0.3497578
921.50 0.3496628
921.60 0.3495679
921.70 0.349473
921.80 0.3493782
921.90 0.3492834
922.00 0.3491886
922.10 0.3490938
922.20 0.3489991
922.30 0.3489044
922.40 0.3488098
922.50 0.3487152
922.60 0.3486206
922.70 0.348526
922.80 0.3484315
922.90 0.348337
923.00 0.3482426
923.10 0.3481482
923.20 0.3480538
923.30 0.3479594
923.40 0.3478651
923.50 0.3477708
923.60 0.3476765
923.70 0.3475823
923.80 0.3474881
923.90 0.347394
924.00 0.3472998
924.10 0.3472057
924.20 0.3471117
924.30 0.3470176
924.40 0.3469237
924.50 0.3468299
924.60 0.3467362
924.70 0.3466424
924.80 0.3465488
924.90 0.3464551
925.00 0.3463615
925.10 0.3462679
925.20 0.3461744
925.30 0.3460808
925.40 0.3459874
925.50 0.3458939
925.60 0.3458005
925.70 0.3457071
925.80 0.3456137
925.90 0.3455204
926.00 0.3454271
926.10 0.3453339
926.20 0.3452406
926.30 0.3451474
926.40 0.3450543
926.50 0.3449612
926.60 0.3448681
926.70 0.344775
926.80 0.344682
926.90 0.344589
927.00 0.344496
927.10 0.344403
927.20 0.3443101
927.30 0.3442173
927.40 0.3441244
927.50 0.3440316
927.60 0.3439388
927.70 0.3438461
927.80 0.3437534
927.90 0.3436607
928.00 0.3435681
928.10 0.3434754
928.20 0.3433828
928.30 0.3432903
928.40 0.3431978
928.50 0.3431053
928.60 0.3430128
928.70 0.3429204
928.80 0.342828
928.90 0.3427356
929.00 0.3426433
929.10 0.342551
929.20 0.3424587
929.30 0.3423665
929.40 0.3422743
929.50 0.3421821
929.60 0.34209
929.70 0.3419979
929.80 0.3419058
929.90 0.3418138
930.00 0.3417218
930.10 0.3416298
930.20 0.3415378
930.30 0.3414459
930.40 0.341354
930.50 0.3412622
930.60 0.3411703
930.70 0.3410785
930.80 0.3409868
930.90 0.3408951
931.00 0.3408034
931.10 0.3407117
931.20 0.3406201
931.30 0.3405285
931.40 0.3404369
931.50 0.3403453
931.60 0.3402538
931.70 0.3401624
931.80 0.3400709
931.90 0.3399795
932.00 0.3398881
932.10 0.3397968
932.20 0.3397054
932.30 0.3396142
932.40 0.3395229
932.50 0.3394317
932.60 0.3393405
932.70 0.3392493
932.80 0.3391582
932.90 0.3390671
933.00 0.338976
933.10 0.338885
933.20 0.338794
933.30 0.338703
933.40 0.3386121
933.50 0.3385211
933.60 0.3384303
933.70 0.3383395
933.80 0.3382489
933.90 0.3381583
934.00 0.3380677
934.10 0.3379772
934.20 0.3378867
934.30 0.3377962
934.40 0.3377057
934.50 0.3376153
934.60 0.3375249
934.70 0.3374345
934.80 0.3373442
934.90 0.3372539
935.00 0.3371637
935.10 0.3370734
935.20 0.3369832
935.30 0.336893
935.40 0.3368029
935.50 0.3367128
935.60 0.3366227
935.70 0.3365327
935.80 0.3364426
935.90 0.3363526
936.00 0.3362627
936.10 0.3361728
936.20 0.3360829
936.30 0.335993
936.40 0.3359032
936.50 0.3358133
936.60 0.3357236
936.70 0.3356338
936.80 0.3355441
936.90 0.3354544
937.00 0.3353648
937.10 0.3352752
937.20 0.3351856
937.30 0.335096
937.40 0.3350065
937.50 0.334917
937.60 0.3348275
937.70 0.3347381
937.80 0.3346487
937.90 0.3345593
938.00 0.33447
938.10 0.3343806
938.20 0.3342914
938.30 0.3342021
938.40 0.3341129
938.50 0.3340237
938.60 0.3339345
938.70 0.3338454
938.80 0.3337563
938.90 0.3336672
939.00 0.3335782
939.10 0.3334892
939.20 0.3334002
939.30 0.3333112
939.40 0.3332223
939.50 0.3331334
939.60 0.3330446
939.70 0.3329557
939.80 0.3328669
939.90 0.3327782
940.00 0.3326894
940.10 0.3326007
940.20 0.332512
940.30 0.3324234
940.40 0.3323348
940.50 0.3322462
940.60 0.3321576
940.70 0.3320691
940.80 0.3319806
940.90 0.3318921
941.00 0.3318037
941.10 0.3317153
941.20 0.3316269
941.30 0.3315386
941.40 0.3314502
941.50 0.331362
941.60 0.3312737
941.70 0.3311855
941.80 0.3310973
941.90 0.3310091
942.00 0.330921
942.10 0.3308329
942.20 0.3307448
942.30 0.3306567
942.40 0.3305687
942.50 0.3304807
942.60 0.3303928
942.70 0.3303049
942.80 0.330217
942.90 0.3301291
943.00 0.3300402
943.10 0.3299496
943.20 0.3298591
943.30 0.3297686
943.40 0.3296781
943.50 0.3295877
943.60 0.3294972
943.70 0.3294069
943.80 0.3293165
943.90 0.3292262
944.00 0.3291359
944.10 0.3290456
944.20 0.3289554
944.30 0.3288652
944.40 0.328775
944.50 0.3286849
944.60 0.3285948
944.70 0.3285047
944.80 0.3284147
944.90 0.3283246
945.00 0.3282347
945.10 0.3281447
945.20 0.3280548
945.30 0.3279649
945.40 0.327875
945.50 0.3277852
945.60 0.3276954
945.70 0.3276056
945.80 0.3275159
945.90 0.3274262
946.00 0.3273365
946.10 0.3272469
946.20 0.3271572
946.30 0.3270677
946.40 0.3269781
946.50 0.3268886
946.60 0.3267991
946.70 0.3267096
946.80 0.3266202
946.90 0.3265308
947.00 0.3264414
947.10 0.3263521
947.20 0.3262628
947.30 0.3261735
947.40 0.3260842
947.50 0.325995
947.60 0.3259058
947.70 0.3258167
947.80 0.3257275
947.90 0.3256384
948.00 0.3255494
948.10 0.3254603
948.20 0.3253713
948.30 0.3252823
948.40 0.3251934
948.50 0.3251045
948.60 0.3250156
948.70 0.3249267
948.80 0.3248379
948.90 0.3247491
949.00 0.3246604
949.10 0.3245716
949.20 0.3244829
949.30 0.3243942
949.40 0.3243056
949.50 0.324217
949.60 0.3241284
949.70 0.3240398
949.80 0.3239513
949.90 0.3238628
950.00 0.3237744
950.10 0.3236859
950.20 0.3235975
950.30 0.3235092
950.40 0.3234208
950.50 0.3233325
950.60 0.3232442
950.70 0.323156
950.80 0.3230677
950.90 0.3229795
951.00 0.3228914
951.10 0.3228032
951.20 0.3227151
951.30 0.3226271
951.40 0.322539
951.50 0.322451
951.60 0.322363
951.70 0.3222751
951.80 0.3221871
951.90 0.3220992
952.00 0.3220114
952.10 0.3219235
952.20 0.3218357
952.30 0.321748
952.40 0.3216605
952.50 0.3215758
952.60 0.3214912
952.70 0.3214066
952.80 0.321322
952.90 0.3212374
953.00 0.3211529
953.10 0.3210684
953.20 0.320984
953.30 0.3208995
953.40 0.3208151
953.50 0.3207307
953.60 0.3206464
953.70 0.3205621
953.80 0.3204778
953.90 0.3203935
954.00 0.3203093
954.10 0.3202251
954.20 0.3201409
954.30 0.3200567
954.40 0.3199726
954.50 0.3198885
954.60 0.3198044
954.70 0.3197204
954.80 0.3196364
954.90 0.3195524
955.00 0.3194685
955.10 0.3193845
955.20 0.3193006
955.30 0.3192168
955.40 0.3191329
955.50 0.3190491
955.60 0.3189653
955.70 0.3188816
955.80 0.3187978
955.90 0.3187141
956.00 0.3186304
956.10 0.3185468
956.20 0.3184632
956.30 0.3183796
956.40 0.318296
956.50 0.3182125
956.60 0.318129
956.70 0.3180455
956.80 0.3179621
956.90 0.3178786
957.00 0.3177952
957.10 0.3177119
957.20 0.3176285
957.30 0.3175452
957.40 0.317462
957.50 0.3173787
957.60 0.3172955
957.70 0.3172123
957.80 0.3171291
957.90 0.317046
958.00 0.3169628
958.10 0.3168798
958.20 0.3167967
958.30 0.3167137
958.40 0.3166307
958.50 0.3165477
958.60 0.3164647
958.70 0.3163818
958.80 0.3162989
958.90 0.316216
959.00 0.3161332
959.10 0.3160504
959.20 0.3159676
959.30 0.3158849
959.40 0.3158021
959.50 0.3157194
959.60 0.3156368
959.70 0.3155541
959.80 0.3154715
959.90 0.3153889
960.00 0.3153063
960.10 0.3152238
960.20 0.3151413
960.30 0.3150588
960.40 0.3149764
960.50 0.314894
960.60 0.3148116
960.70 0.3147292
960.80 0.3146468
960.90 0.3145645
961.00 0.3144822
961.10 0.3144
961.20 0.3143178
961.30 0.3142355
961.40 0.3141534
961.50 0.3140712
961.60 0.3139891
961.70 0.313907
961.80 0.3138249
961.90 0.3137429
962.00 0.3136587
962.10 0.3135741
962.20 0.3134895
962.30 0.313405
962.40 0.3133205
962.50 0.313236
962.60 0.3131516
962.70 0.3130672
962.80 0.3129828
962.90 0.3128984
963.00 0.3128141
963.10 0.3127298
963.20 0.3126455
963.30 0.3125612
963.40 0.312477
963.50 0.3123928
963.60 0.3123087
963.70 0.3122245
963.80 0.3121404
963.90 0.3120563
964.00 0.3119723
964.10 0.3118883
964.20 0.3118043
964.30 0.3117203
964.40 0.3116363
964.50 0.3115524
964.60 0.3114686
964.70 0.3113847
964.80 0.3113009
964.90 0.3112171
965.00 0.3111333
965.10 0.3110496
965.20 0.3109658
965.30 0.3108822
965.40 0.3107985
965.50 0.3107149
965.60 0.3106313
965.70 0.3105477
965.80 0.3104641
965.90 0.3103806
966.00 0.3102971
966.10 0.3102137
966.20 0.3101302
966.30 0.3100468
966.40 0.3099634
966.50 0.3098801
966.60 0.3097968
966.70 0.3097135
966.80 0.3096302
966.90 0.309547
967.00 0.3094637
967.10 0.3093806
967.20 0.3092974
967.30 0.3092143
967.40 0.3091312
967.50 0.3090481
967.60 0.308965
967.70 0.308882
967.80 0.308799
967.90 0.3087161
968.00 0.3086331
968.10 0.3085502
968.20 0.3084674
968.30 0.3083845
968.40 0.3083017
968.50 0.3082189
968.60 0.3081361
968.70 0.3080534
968.80 0.3079707
968.90 0.307888
969.00 0.3078053
969.10 0.3077227
969.20 0.3076401
969.30 0.3075575
969.40 0.3074749
969.50 0.3073924
969.60 0.3073099
969.70 0.3072275
969.80 0.307145
969.90 0.3070626
970.00 0.3069802
970.10 0.3068979
970.20 0.3068155
970.30 0.3067332
970.40 0.306651
970.50 0.3065687
970.60 0.3064865
970.70 0.3064043
970.80 0.3063221
970.90 0.30624
971.00 0.3061579
971.10 0.3060758
971.20 0.3059938
971.30 0.3059117
971.40 0.3058297
971.50 0.3057477
971.60 0.3056659
971.70 0.3055842
971.80 0.3055025
971.90 0.3054208
972.00 0.3053392
972.10 0.3052575
972.20 0.3051759
972.30 0.3050944
972.40 0.3050128
972.50 0.3049313
972.60 0.3048498
972.70 0.3047684
972.80 0.3046869
972.90 0.3046055
973.00 0.3045242
973.10 0.3044428
973.20 0.3043615
973.30 0.3042802
973.40 0.3041989
973.50 0.3041177
973.60 0.3040364
973.70 0.3039553
973.80 0.3038741
973.90 0.303793
974.00 0.3037118
974.10 0.3036308
974.20 0.3035497
974.30 0.3034687
974.40 0.3033877
974.50 0.3033067
974.60 0.3032258
974.70 0.3031448
974.80 0.3030639
974.90 0.3029831
975.00 0.3029022
975.10 0.3028214
975.20 0.3027406
975.30 0.3026599
975.40 0.3025791
975.50 0.3024984
975.60 0.3024177
975.70 0.3023371
975.80 0.3022565
975.90 0.3021759
976.00 0.3020953
976.10 0.3020147
976.20 0.3019342
976.30 0.3018537
976.40 0.3017733
976.50 0.3016928
976.60 0.3016124
976.70 0.301532
976.80 0.3014517
976.90 0.3013713
977.00 0.301291
977.10 0.3012107
977.20 0.3011305
977.30 0.3010503
977.40 0.3009701
977.50 0.3008899
977.60 0.3008097
977.70 0.3007296
977.80 0.3006495
977.90 0.3005694
978.00 0.3004894
978.10 0.3004094
978.20 0.3003294
978.30 0.3002494
978.40 0.3001695
978.50 0.3000896
978.60 0.3000097
978.70 0.2999298
978.80 0.29985
978.90 0.2997702
979.00 0.2996904
979.10 0.2996107
979.20 0.299531
979.30 0.2994513
979.40 0.2993716
979.50 0.2992919
979.60 0.2992123
979.70 0.2991327
979.80 0.2990531
979.90 0.2989736
980.00 0.2988941
980.10 0.2988146
980.20 0.2987351
980.30 0.2986557
980.40 0.2985763
980.50 0.2984969
980.60 0.2984175
980.70 0.2983382
980.80 0.2982589
980.90 0.2981796
981.00 0.2981004
981.10 0.2980211
981.20 0.2979419
981.30 0.2978629
981.40 0.2977839
981.50 0.297705
981.60 0.297626
981.70 0.2975472
981.80 0.2974683
981.90 0.2973895
982.00 0.2973107
982.10 0.2972319
982.20 0.2971531
982.30 0.2970744
982.40 0.2969957
982.50 0.296917
982.60 0.2968383
982.70 0.2967597
982.80 0.2966811
982.90 0.2966025
983.00 0.296524
983.10 0.2964455
983.20 0.296367
983.30 0.2962885
983.40 0.29621
983.50 0.2961316
983.60 0.2960532
983.70 0.2959749
983.80 0.2958965
983.90 0.2958182
984.00 0.2957399
984.10 0.2956616
984.20 0.2955834
984.30 0.2955052
984.40 0.295427
984.50 0.2953488
984.60 0.2952707
984.70 0.2951926
984.80 0.2951145
984.90 0.2950364
985.00 0.2949584
985.10 0.2948804
985.20 0.2948024
985.30 0.2947244
985.40 0.2946465
985.50 0.2945686
985.60 0.2944907
985.70 0.2944128
985.80 0.294335
985.90 0.2942572
986.00 0.2941794
986.10 0.2941017
986.20 0.2940239
986.30 0.2939462
986.40 0.2938686
986.50 0.2937909
986.60 0.2937133
986.70 0.2936357
986.80 0.2935581
986.90 0.2934805
987.00 0.293403
987.10 0.2933255
987.20 0.293248
987.30 0.2931706
987.40 0.2930932
987.50 0.2930158
987.60 0.2929384
987.70 0.292861
987.80 0.2927837
987.90 0.2927064
988.00 0.2926292
988.10 0.2925519
988.20 0.2924747
988.30 0.2923975
988.40 0.2923203
988.50 0.2922432
988.60 0.292166
988.70 0.292089
988.80 0.2920119
988.90 0.2919348
989.00 0.2918578
989.10 0.2917808
989.20 0.2917039
989.30 0.2916269
989.40 0.29155
989.50 0.2914731
989.60 0.2913962
989.70 0.2913194
989.80 0.2912426
989.90 0.2911658
990.00 0.291089
990.10 0.2910123
990.20 0.2909355
990.30 0.2908588
990.40 0.2907822
990.50 0.2907055
990.60 0.2906289
990.70 0.2905523
990.80 0.2904757
990.90 0.2903992
991.00 0.2903227
991.10 0.2902472
991.20 0.2901734
991.30 0.2900997
991.40 0.290026
991.50 0.2899523
991.60 0.2898786
991.70 0.289805
991.80 0.2897314
991.90 0.2896578
992.00 0.2895842
992.10 0.2895107
992.20 0.2894371
992.30 0.2893636
992.40 0.2892902
992.50 0.2892167
992.60 0.2891433
992.70 0.2890699
992.80 0.2889965
992.90 0.2889231
993.00 0.2888498
993.10 0.2887765
993.20 0.2887032
993.30 0.28863
993.40 0.2885567
993.50 0.2884835
993.60 0.2884103
993.70 0.2883371
993.80 0.288264
993.90 0.2881909
994.00 0.2881178
994.10 0.2880447
994.20 0.2879717
994.30 0.2878986
994.40 0.2878256
994.50 0.2877527
994.60 0.2876797
994.70 0.2876068
994.80 0.2875339
994.90 0.287461
995.00 0.2873881
995.10 0.2873153
995.20 0.2872425
995.30 0.2871697
995.40 0.2870969
995.50 0.2870242
995.60 0.2869514
995.70 0.2868787
995.80 0.2868061
995.90 0.2867334
996.00 0.2866608
996.10 0.2865841
996.20 0.2865065
996.30 0.2864289
996.40 0.2863514
996.50 0.2862739
996.60 0.2861964
996.70 0.2861189
996.80 0.2860415
996.90 0.2859641
997.00 0.2858867
997.10 0.2858093
997.20 0.285732
997.30 0.2856547
997.40 0.2855774
997.50 0.2855001
997.60 0.2854229
997.70 0.2853457
997.80 0.2852685
997.90 0.2851913
998.00 0.2851142
998.10 0.2850371
998.20 0.28496
998.30 0.2848829
998.40 0.2848059
998.50 0.2847289
998.60 0.2846519
998.70 0.2845749
998.80 0.284498
998.90 0.2844211
999.00 0.2843442
999.10 0.2842674
999.20 0.2841905
999.30 0.2841137
999.40 0.2840369
999.50 0.2839602
999.60 0.2838834
999.70 0.2838067
999.80 0.28373
999.90 0.2836534
1000.00 0.2835768
1000.10 0.2835001
1000.20 0.2834236
1000.30 0.283347
1000.40 0.2832705
1000.50 0.283194
1000.60 0.2831175
1000.70 0.283041
1000.80 0.2829646
1000.90 0.2828882
1001.00 0.2828118
1001.10 0.2827357
1001.20 0.2826595
1001.30 0.2825834
1001.40 0.2825073
1001.50 0.2824313
1001.60 0.2823552
1001.70 0.2822792
1001.80 0.2822032
1001.90 0.2821272
1002.00 0.2820513
1002.10 0.2819754
1002.20 0.2818995
1002.30 0.2818236
1002.40 0.2817478
1002.50 0.281672
1002.60 0.2815962
1002.70 0.2815204
1002.80 0.2814446
1002.90 0.2813689
1003.00 0.2812932
1003.10 0.2812176
1003.20 0.2811419
1003.30 0.2810663
1003.40 0.2809907
1003.50 0.2809151
1003.60 0.2808396
1003.70 0.280764
1003.80 0.2806885
1003.90 0.2806131
1004.00 0.2805376
1004.10 0.2804622
1004.20 0.2803868
1004.30 0.2803114
1004.40 0.2802361
1004.50 0.2801607
1004.60 0.2800854
1004.70 0.2800102
1004.80 0.2799349
1004.90 0.2798597
1005.00 0.2797845
1005.10 0.2797093
1005.20 0.2796341
1005.30 0.279559
1005.40 0.2794839
1005.50 0.2794088
1005.60 0.2793337
1005.70 0.2792587
1005.80 0.2791837
1005.90 0.2791087
1006.00 0.2790348
1006.10 0.2789647
1006.20 0.2788946
1006.30 0.2788246
1006.40 0.2787546
1006.50 0.2786846
1006.60 0.2786147
1006.70 0.2785447
1006.80 0.2784748
1006.90 0.2784049
1007.00 0.278335
1007.10 0.2782652
1007.20 0.2781954
1007.30 0.2781256
1007.40 0.2780558
1007.50 0.277986
1007.60 0.2779163
1007.70 0.2778465
1007.80 0.2777769
1007.90 0.2777072
1008.00 0.2776375
1008.10 0.2775679
1008.20 0.2774983
1008.30 0.2774287
1008.40 0.2773592
1008.50 0.2772896
1008.60 0.2772201
1008.70 0.2771506
1008.80 0.2770811
1008.90 0.2770117
1009.00 0.2769422
1009.10 0.2768728
1009.20 0.2768035
1009.30 0.2767341
1009.40 0.2766648
1009.50 0.2765954
1009.60 0.2765261
1009.70 0.2764569
1009.80 0.2763876
1009.90 0.2763184
1010.00 0.2762492
1010.10 0.27618
1010.20 0.2761108
1010.30 0.2760417
1010.40 0.2759726
1010.50 0.2759035
1010.60 0.2758344
1010.70 0.2757653
1010.80 0.2756963
1010.90 0.2756273
1011.00 0.2755575
1011.10 0.2754839
1011.20 0.2754103
1011.30 0.2753368
1011.40 0.2752633
1011.50 0.2751898
1011.60 0.2751163
1011.70 0.2750428
1011.80 0.2749694
1011.90 0.274896
1012.00 0.2748226
1012.10 0.2747493
1012.20 0.2746759
1012.30 0.2746026
1012.40 0.2745293
1012.50 0.2744561
1012.60 0.2743828
1012.70 0.2743096
1012.80 0.2742364
1012.90 0.2741633
1013.00 0.2740901
1013.10 0.274017
1013.20 0.2739439
1013.30 0.2738708
1013.40 0.2737978
1013.50 0.2737248
1013.60 0.2736517
1013.70 0.2735788
1013.80 0.2735058
1013.90 0.2734329
1014.00 0.27336
1014.10 0.2732871
1014.20 0.2732142
1014.30 0.2731414
1014.40 0.2730686
1014.50 0.2729958
1014.60 0.272923
1014.70 0.2728503
1014.80 0.2727775
1014.90 0.2727048
1015.00 0.2726322
1015.10 0.2725595
1015.20 0.2724869
1015.30 0.2724143
1015.40 0.2723417
1015.50 0.2722691
1015.60 0.2721966
1015.70 0.2721241
1015.80 0.2720516
1015.90 0.2719791
1016.00 0.2719067
1016.10 0.2718343
1016.20 0.2717619
1016.30 0.2716895
1016.40 0.2716171
1016.50 0.2715448
1016.60 0.2714725
1016.70 0.2714002
1016.80 0.271328
1016.90 0.2712557
1017.00 0.2711835
1017.10 0.2711113
1017.20 0.2710392
1017.30 0.270967
1017.40 0.2708949
1017.50 0.2708228
1017.60 0.2707508
1017.70 0.2706787
1017.80 0.2706067
1017.90 0.2705347
1018.00 0.2704627
1018.10 0.2703907
1018.20 0.2703188
1018.30 0.2702469
1018.40 0.270175
1018.50 0.2701031
1018.60 0.2700313
1018.70 0.2699595
1018.80 0.2698877
1018.90 0.2698159
1019.00 0.2697442
1019.10 0.2696724
1019.20 0.2696007
1019.30 0.2695291
1019.40 0.2694574
1019.50 0.2693858
1019.60 0.2693142
1019.70 0.2692426
1019.80 0.269171
1019.90 0.2690995
1020.00 0.2690279
1020.10 0.2689564
1020.20 0.268885
1020.30 0.2688135
1020.40 0.2687421
1020.50 0.2686707
1020.60 0.2685993
1020.70 0.2685279
1020.80 0.2684566
1020.90 0.2683853
1021.00 0.268314
1021.10 0.2682431
1021.20 0.2681766
1021.30 0.2681102
1021.40 0.2680438
1021.50 0.2679775
1021.60 0.2679111
1021.70 0.2678448
1021.80 0.2677785
1021.90 0.2677122
1022.00 0.267646
1022.10 0.2675797
1022.20 0.2675135
1022.30 0.2674473
1022.40 0.2673811
1022.50 0.267315
1022.60 0.2672488
1022.70 0.2671827
1022.80 0.2671166
1022.90 0.2670505
1023.00 0.2669845
1023.10 0.2669185
1023.20 0.2668524
1023.30 0.2667865
1023.40 0.2667205
1023.50 0.2666545
1023.60 0.2665886
1023.70 0.2665227
1023.80 0.2664568
1023.90 0.2663909
1024.00 0.2663251
1024.10 0.2662593
1024.20 0.2661935
1024.30 0.2661277
1024.40 0.2660619
1024.50 0.2659962
1024.60 0.2659304
1024.70 0.2658647
1024.80 0.2657991
1024.90 0.2657334
1025.00 0.2656678
1025.10 0.2656021
1025.20 0.2655365
1025.30 0.265471
1025.40 0.2654054
1025.50 0.2653399
1025.60 0.2652744
1025.70 0.2652089
1025.80 0.2651434
1025.90 0.2650779
1026.00 0.2650125
1026.10 0.2649471
1026.20 0.2648816
1026.30 0.2648117
1026.40 0.2647417
1026.50 0.2646718
1026.60 0.2646019
1026.70 0.264532
1026.80 0.2644622
1026.90 0.2643924
1027.00 0.2643225
1027.10 0.2642528
1027.20 0.264183
1027.30 0.2641133
1027.40 0.2640435
1027.50 0.2639738
1027.60 0.2639042
1027.70 0.2638345
1027.80 0.2637649
1027.90 0.2636953
1028.00 0.2636257
1028.10 0.2635561
1028.20 0.2634866
1028.30 0.2634171
1028.40 0.2633476
1028.50 0.2632781
1028.60 0.2632086
1028.70 0.2631392
1028.80 0.2630698
1028.90 0.2630004
1029.00 0.262931
1029.10 0.2628617
1029.20 0.2627924
1029.30 0.2627231
1029.40 0.2626538
1029.50 0.2625845
1029.60 0.2625153
1029.70 0.2624461
1029.80 0.2623769
1029.90 0.2623077
1030.00 0.2622386
1030.10 0.2621695
1030.20 0.2621004
1030.30 0.2620313
1030.40 0.2619622
1030.50 0.2618932
1030.60 0.2618242
1030.70 0.2617552
1030.80 0.2616862
1030.90 0.2616172
1031.00 0.2615483
1031.10 0.2614794
1031.20 0.2614105
1031.30 0.2613417
1031.40 0.261273
1031.50 0.2612044
1031.60 0.2611357
1031.70 0.2610672
1031.80 0.2609986
1031.90 0.26093
1032.00 0.2608615
1032.10 0.260793
1032.20 0.2607245
1032.30 0.2606561
1032.40 0.2605876
1032.50 0.2605192
1032.60 0.2604508
1032.70 0.2603824
1032.80 0.2603141
1032.90 0.2602457
1033.00 0.2601774
1033.10 0.2601091
1033.20 0.2600409
1033.30 0.2599726
1033.40 0.2599044
1033.50 0.2598362
1033.60 0.259768
1033.70 0.2596998
1033.80 0.2596317
1033.90 0.2595636
1034.00 0.2594955
1034.10 0.2594274
1034.20 0.2593594
1034.30 0.2592913
1034.40 0.2592233
1034.50 0.2591553
1034.60 0.2590874
1034.70 0.2590194
1034.80 0.2589515
1034.90 0.2588836
1035.00 0.2588157
1035.10 0.2587479
1035.20 0.25868
1035.30 0.2586122
1035.40 0.2585444
1035.50 0.2584766
1035.60 0.2584089
1035.70 0.2583411
1035.80 0.2582734
1035.90 0.2582057
1036.00 0.2581381
1036.10 0.2580704
1036.20 0.2580028
1036.30 0.2579352
1036.40 0.2578676
1036.50 0.2578001
1036.60 0.2577325
1036.70 0.257665
1036.80 0.2575975
1036.90 0.25753
1037.00 0.2574625
1037.10 0.2573951
1037.20 0.2573277
1037.30 0.2572603
1037.40 0.2571929
1037.50 0.2571256
1037.60 0.2570582
1037.70 0.2569909
1037.80 0.2569236
1037.90 0.2568564
1038.00 0.2567891
1038.10 0.2567219
1038.20 0.2566547
1038.30 0.2565875
1038.40 0.2565204
1038.50 0.2564532
1038.60 0.2563861
1038.70 0.256319
1038.80 0.2562519
1038.90 0.2561849
1039.00 0.2561178
1039.10 0.2560508
1039.20 0.2559838
1039.30 0.2559168
1039.40 0.2558499
1039.50 0.255783
1039.60 0.2557161
1039.70 0.2556492
1039.80 0.2555823
1039.90 0.2555154
1040.00 0.2554486
1040.10 0.2553818
1040.20 0.255315
1040.30 0.2552483
1040.40 0.2551815
1040.50 0.2551148
1040.60 0.2550481
1040.70 0.2549814
1040.80 0.2549148
1040.90 0.2548481
1041.00 0.2547815
1041.10 0.2547149
1041.20 0.2546484
1041.30 0.2545818
1041.40 0.2545153
1041.50 0.2544488
1041.60 0.2543823
1041.70 0.2543159
1041.80 0.2542497
1041.90 0.2541834
1042.00 0.2541172
1042.10 0.254051
1042.20 0.2539848
1042.30 0.2539186
1042.40 0.2538525
1042.50 0.2537863
1042.60 0.2537202
1042.70 0.2536541
1042.80 0.2535881
1042.90 0.253522
1043.00 0.253456
1043.10 0.25339
1043.20 0.253324
1043.30 0.2532581
1043.40 0.2531921
1043.50 0.2531262
1043.60 0.2530603
1043.70 0.2529944
1043.80 0.2529285
1043.90 0.2528627
1044.00 0.2527969
1044.10 0.2527311
1044.20 0.2526653
1044.30 0.2525996
1044.40 0.2525338
1044.50 0.2524681
1044.60 0.2524024
1044.70 0.2523367
1044.80 0.2522711
1044.90 0.2522054
1045.00 0.2521398
1045.10 0.2520742
1045.20 0.2520087
1045.30 0.2519431
1045.40 0.2518776
1045.50 0.2518121
1045.60 0.2517466
1045.70 0.2516811
1045.80 0.2516157
1045.90 0.2515502
1046.00 0.2514848
1046.10 0.2514194
1046.20 0.2513541
1046.30 0.2512887
1046.40 0.2512234
1046.50 0.2511581
1046.60 0.2510928
1046.70 0.2510275
1046.80 0.2509623
1046.90 0.2508971
1047.00 0.2508319
1047.10 0.2507667
1047.20 0.2507015
1047.30 0.2506364
1047.40 0.2505713
1047.50 0.2505061
1047.60 0.2504411
1047.70 0.250376
1047.80 0.250311
1047.90 0.2502459
1048.00 0.2501809
1048.10 0.250116
1048.20 0.250051
1048.30 0.2499861
1048.40 0.2499211
1048.50 0.2498562
1048.60 0.2497914
1048.70 0.2497265
1048.80 0.2496616
1048.90 0.2495968
1049.00 0.249532
1049.10 0.2494673
1049.20 0.2494025
1049.30 0.2493378
1049.40 0.249273
1049.50 0.2492083
1049.60 0.2491437
1049.70 0.249079
1049.80 0.2490144
1049.90 0.2489497
1050.00 0.2488851
1050.10 0.2488206
1050.20 0.248756
1050.30 0.2486915
1050.40 0.2486269
1050.50 0.2485625
1050.60 0.248498
1050.70 0.2484335
1050.80 0.2483691
1050.90 0.2483047
1051.00 0.2482403
1051.10 0.2481759
1051.20 0.2481115
1051.30 0.2480472
1051.40 0.2479829
1051.50 0.2479186
1051.60 0.2478543
1051.70 0.24779
1051.80 0.2477258
1051.90 0.2476616
1052.00 0.2475974
1052.10 0.2475333
1052.20 0.2474693
1052.30 0.2474054
1052.40 0.2473414
1052.50 0.2472775
1052.60 0.2472136
1052.70 0.2471497
1052.80 0.2470858
1052.90 0.247022
1053.00 0.2469581
1053.10 0.2468943
1053.20 0.2468305
1053.30 0.2467668
1053.40 0.246703
1053.50 0.2466393
1053.60 0.2465756
1053.70 0.2465119
1053.80 0.2464482
1053.90 0.2463846
1054.00 0.2463209
1054.10 0.2462573
1054.20 0.2461937
1054.30 0.2461302
1054.40 0.2460666
1054.50 0.2460031
1054.60 0.2459396
1054.70 0.2458761
1054.80 0.2458126
1054.90 0.2457491
1055.00 0.2456857
1055.10 0.2456223
1055.20 0.2455589
1055.30 0.2454955
1055.40 0.2454322
1055.50 0.2453688
1055.60 0.2453055
1055.70 0.2452422
1055.80 0.2451789
1055.90 0.2451157
1056.00 0.2450524
1056.10 0.2449892
1056.20 0.244926
1056.30 0.2448628
1056.40 0.2447997
1056.50 0.2447365
1056.60 0.2446734
1056.70 0.2446103
1056.80 0.2445472
1056.90 0.2444842
1057.00 0.2444211
1057.10 0.2443581
1057.20 0.2442951
1057.30 0.2442321
1057.40 0.2441692
1057.50 0.2441062
1057.60 0.2440433
1057.70 0.2439804
1057.80 0.2439175
1057.90 0.2438546
1058.00 0.2437918
1058.10 0.2437289
1058.20 0.2436661
1058.30 0.2436033
1058.40 0.2435406
1058.50 0.2434778
1058.60 0.2434151
1058.70 0.2433524
1058.80 0.2432897
1058.90 0.243227
1059.00 0.2431643
1059.10 0.2431017
1059.20 0.2430391
1059.30 0.2429765
1059.40 0.2429139
1059.50 0.2428514
1059.60 0.2427888
1059.70 0.2427263
1059.80 0.2426638
1059.90 0.2426013
1060.00 0.2425389
1060.10 0.2424764
1060.20 0.242414
1060.30 0.2423516
1060.40 0.2422892
1060.50 0.2422268
1060.60 0.2421645
1060.70 0.2421022
1060.80 0.2420398
1060.90 0.2419776
1061.00 0.2419153
1061.10 0.241853
1061.20 0.2417908
1061.30 0.2417286
1061.40 0.2416664
1061.50 0.2416042
1061.60 0.2415421
1061.70 0.2414799
1061.80 0.2414178
1061.90 0.2413557
1062.00 0.2412936
1062.10 0.2412316
1062.20 0.2411695
1062.30 0.2411075
1062.40 0.2410455
1062.50 0.2409835
1062.60 0.2409216
1062.70 0.2408599
1062.80 0.2407981
1062.90 0.2407364
1063.00 0.2406746
1063.10 0.2406129
1063.20 0.2405512
1063.30 0.2404896
1063.40 0.2404279
1063.50 0.2403663
1063.60 0.2403047
1063.70 0.2402431
1063.80 0.2401815
1063.90 0.24012
1064.00 0.2400584
1064.10 0.2399969
1064.20 0.2399354
1064.30 0.2398739
1064.40 0.2398125
1064.50 0.239751
1064.60 0.2396896
1064.70 0.2396282
1064.80 0.2395668
1064.90 0.2395055
1065.00 0.2394441
1065.10 0.2393828
1065.20 0.2393215
1065.30 0.2392602
1065.40 0.2391989
1065.50 0.2391377
1065.60 0.2390764
1065.70 0.2390152
1065.80 0.238954
1065.90 0.2388928
1066.00 0.2388317
1066.10 0.2387705
1066.20 0.2387094
1066.30 0.2386483
1066.40 0.2385872
1066.50 0.2385262
1066.60 0.2384651
1066.70 0.2384041
1066.80 0.2383431
1066.90 0.2382821
1067.00 0.2382211
1067.10 0.2381602
1067.20 0.2380992
1067.30 0.2380383
1067.40 0.2379774
1067.50 0.2379166
1067.60 0.2378557
1067.70 0.2377949
1067.80 0.237734
1067.90 0.2376732
1068.00 0.2376124
1068.10 0.2375517
1068.20 0.2374909
1068.30 0.2374302
1068.40 0.2373695
1068.50 0.2373088
1068.60 0.2372481
1068.70 0.2371874
1068.80 0.2371268
1068.90 0.2370662
1069.00 0.2370056
1069.10 0.236945
1069.20 0.2368844
1069.30 0.2368239
1069.40 0.2367634
1069.50 0.2367028
1069.60 0.2366424
1069.70 0.2365819
1069.80 0.2365214
1069.90 0.236461
1070.00 0.2364006
1070.10 0.2363402
1070.20 0.2362798
1070.30 0.2362194
1070.40 0.2361591
1070.50 0.2360988
1070.60 0.2360385
1070.70 0.2359782
1070.80 0.2359179
1070.90 0.2358576
1071.00 0.2357974
1071.10 0.2357372
1071.20 0.235677
1071.30 0.2356168
1071.40 0.2355567
1071.50 0.2354965
1071.60 0.2354364
1071.70 0.2353763
1071.80 0.2353162
1071.90 0.2352561
1072.00 0.2351961
1072.10 0.2351361
1072.20 0.235076
1072.30 0.235016
1072.40 0.2349561
1072.50 0.2348961
1072.60 0.2348362
1072.70 0.2347762
1072.80 0.2347163
1072.90 0.2346565
1073.00 0.2345966
1073.10 0.2345367
1073.20 0.2344769
1073.30 0.2344173
1073.40 0.2343577
1073.50 0.234298
1073.60 0.2342385
1073.70 0.2341789
1073.80 0.2341193
1073.90 0.2340598
1074.00 0.2340003
1074.10 0.2339407
1074.20 0.2338813
1074.30 0.2338218
1074.40 0.2337623
1074.50 0.2337029
1074.60 0.2336435
1074.70 0.2335841
1074.80 0.2335247
1074.90 0.2334654
1075.00 0.233406
1075.10 0.2333467
1075.20 0.2332874
1075.30 0.2332281
1075.40 0.2331688
1075.50 0.2331096
1075.60 0.2330503
1075.70 0.2329911
1075.80 0.2329319
1075.90 0.2328727
1076.00 0.2328136
1076.10 0.2327544
1076.20 0.2326953
1076.30 0.2326362
1076.40 0.2325771
1076.50 0.232518
1076.60 0.232459
1076.70 0.2323999
1076.80 0.2323409
1076.90 0.2322819
1077.00 0.2322229
1077.10 0.232164
1077.20 0.232105
1077.30 0.2320461
1077.40 0.2319872
1077.50 0.2319283
1077.60 0.2318694
1077.70 0.2318106
1077.80 0.2317517
1077.90 0.2316929
1078.00 0.2316341
1078.10 0.2315753
1078.20 0.2315165
1078.30 0.2314578
1078.40 0.2313991
1078.50 0.2313403
1078.60 0.2312816
1078.70 0.231223
1078.80 0.2311643
1078.90 0.2311057
1079.00 0.231047
1079.10 0.2309884
1079.20 0.2309298
1079.30 0.2308713
1079.40 0.2308127
1079.50 0.2307542
1079.60 0.2306956
1079.70 0.2306371
1079.80 0.2305787
1079.90 0.2305202
1080.00 0.2304617
1080.10 0.2304033
1080.20 0.2303449
1080.30 0.2302865
1080.40 0.2302281
1080.50 0.2301698
1080.60 0.2301114
1080.70 0.2300531
1080.80 0.2299948
1080.90 0.2299365
1081.00 0.2298782
1081.10 0.22982
1081.20 0.2297617
1081.30 0.2297035
1081.40 0.2296453
1081.50 0.2295871
1081.60 0.229529
1081.70 0.2294708
1081.80 0.2294127
1081.90 0.2293546
1082.00 0.2292965
1082.10 0.2292384
1082.20 0.2291803
1082.30 0.2291223
1082.40 0.2290643
1082.50 0.2290062
1082.60 0.2289483
1082.70 0.2288903
1082.80 0.2288323
1082.90 0.2287744
1083.00 0.2287165
1083.10 0.2286586
1083.20 0.2286007
1083.30 0.2285428
1083.40 0.228485
1083.50 0.2284271
1083.60 0.2283693
1083.70 0.2283115
1083.80 0.2282537
1083.90 0.228196
1084.00 0.2281384
1084.10 0.2280808
1084.20 0.2280232
1084.30 0.2279657
1084.40 0.2279082
1084.50 0.2278507
1084.60 0.2277932
1084.70 0.2277357
1084.80 0.2276782
1084.90 0.2276208
1085.00 0.2275634
1085.10 0.227506
1085.20 0.2274486
1085.30 0.2273912
1085.40 0.2273339
1085.50 0.2272766
1085.60 0.2272193
1085.70 0.227162
1085.80 0.2271047
1085.90 0.2270474
1086.00 0.2269902
1086.10 0.2269329
1086.20 0.2268757
1086.30 0.2268185
1086.40 0.2267614
1086.50 0.2267042
1086.60 0.2266471
1086.70 0.2265899
1086.80 0.2265328
1086.90 0.2264757
1087.00 0.2264187
1087.10 0.2263616
1087.20 0.2263046
1087.30 0.2262476
1087.40 0.2261906
1087.50 0.2261336
1087.60 0.2260766
1087.70 0.2260196
1087.80 0.2259627
1087.90 0.2259058
1088.00 0.2258489
1088.10 0.225792
1088.20 0.2257351
1088.30 0.2256783
1088.40 0.2256215
1088.50 0.2255646
1088.60 0.2255078
1088.70 0.2254511
1088.80 0.2253943
1088.90 0.2253375
1089.00 0.2252808
1089.10 0.2252241
1089.20 0.2251674
1089.30 0.2251107
1089.40 0.2250541
1089.50 0.2249974
1089.60 0.2249408
1089.70 0.2248842
1089.80 0.2248276
1089.90 0.224771
1090.00 0.2247144
1090.10 0.2246579
1090.20 0.2246013
1090.30 0.2245448
1090.40 0.2244883
1090.50 0.2244319
1090.60 0.2243754
1090.70 0.224319
1090.80 0.2242625
1090.90 0.2242061
1091.00 0.2241497
1091.10 0.2240933
1091.20 0.224037
1091.30 0.2239806
1091.40 0.2239243
1091.50 0.223868
1091.60 0.2238117
1091.70 0.2237554
1091.80 0.2236992
1091.90 0.2236429
1092.00 0.2235867
1092.10 0.2235305
1092.20 0.2234743
1092.30 0.2234181
1092.40 0.223362
1092.50 0.2233058
1092.60 0.2232497
1092.70 0.2231936
1092.80 0.2231375
1092.90 0.2230814
1093.00 0.2230254
1093.10 0.2229693
1093.20 0.2229133
1093.30 0.2228573
1093.40 0.2228013
1093.50 0.2227454
1093.60 0.2226894
1093.70 0.2226335
1093.80 0.2225775
1093.90 0.2225216
1094.00 0.2224657
1094.10 0.2224099
1094.20 0.222354
1094.30 0.2222982
1094.40 0.2222423
1094.50 0.2221865
1094.60 0.2221307
1094.70 0.222075
1094.80 0.2220193
1094.90 0.2219637
1095.00 0.2219081
1095.10 0.2218526
1095.20 0.221797
1095.30 0.2217415
1095.40 0.221686
1095.50 0.2216305
1095.60 0.2215751
1095.70 0.2215196
1095.80 0.2214642
1095.90 0.2214088
1096.00 0.2213533
1096.10 0.221298
1096.20 0.2212426
1096.30 0.2211872
1096.40 0.2211319
1096.50 0.2210766
1096.60 0.2210213
1096.70 0.220966
1096.80 0.2209107
1096.90 0.2208555
1097.00 0.2208002
1097.10 0.220745
1097.20 0.2206898
1097.30 0.2206346
1097.40 0.2205794
1097.50 0.2205243
1097.60 0.2204691
1097.70 0.220414
1097.80 0.2203589
1097.90 0.2203038
1098.00 0.2202487
1098.10 0.2201937
1098.20 0.2201386
1098.30 0.2200836
1098.40 0.2200286
1098.50 0.2199736
1098.60 0.2199186
1098.70 0.2198637
1098.80 0.2198087
1098.90 0.2197538
1099.00 0.2196989
1099.10 0.219644
1099.20 0.2195891
1099.30 0.2195342
1099.40 0.2194794
1099.50 0.2194246
1099.60 0.2193697
1099.70 0.219315
1099.80 0.2192602
1099.90 0.2192054
1100.00 0.2191507
1100.10 0.2190959
1100.20 0.2190412
1100.30 0.2189865
1100.40 0.2189318
1100.50 0.2188772
1100.60 0.2188225
1100.70 0.2187679
1100.80 0.2187133
1100.90 0.2186587
1101.00 0.2186041
1101.10 0.2185495
1101.20 0.2184949
1101.30 0.2184404
1101.40 0.2183859
1101.50 0.2183314
1101.60 0.2182769
1101.70 0.2182224
1101.80 0.218168
1101.90 0.2181135
1102.00 0.2180591
1102.10 0.2180047
1102.20 0.2179503
1102.30 0.2178959
1102.40 0.2178416
1102.50 0.2177872
1102.60 0.2177329
1102.70 0.2176786
1102.80 0.2176243
1102.90 0.21757
1103.00 0.2175158
1103.10 0.2174615
1103.20 0.2174073
1103.30 0.2173531
1103.40 0.2172989
1103.50 0.2172447
1103.60 0.2171905
1103.70 0.2171364
1103.80 0.2170822
1103.90 0.2170281
1104.00 0.216974
1104.10 0.2169199
1104.20 0.2168659
1104.30 0.2168118
1104.40 0.2167578
1104.50 0.2167038
1104.60 0.2166497
1104.70 0.2165958
1104.80 0.2165418
1104.90 0.2164878
1105.00 0.2164339
1105.10 0.21638
1105.20 0.216326
1105.30 0.2162722
1105.40 0.2162183
1105.50 0.2161644
1105.60 0.2161106
1105.70 0.2160567
1105.80 0.2160012
1105.90 0.2159457
1106.00 0.2158903
1106.10 0.2158348
1106.20 0.2157794
1106.30 0.215724
1106.40 0.2156686
1106.50 0.2156132
1106.60 0.2155579
1106.70 0.2155025
1106.80 0.2154472
1106.90 0.2153919
1107.00 0.2153366
1107.10 0.2152813
1107.20 0.2152261
1107.30 0.2151708
1107.40 0.2151156
1107.50 0.2150604
1107.60 0.2150052
1107.70 0.21495
1107.80 0.2148948
1107.90 0.2148397
1108.00 0.2147845
1108.10 0.2147294
1108.20 0.2146743
1108.30 0.2146193
1108.40 0.2145642
1108.50 0.2145091
1108.60 0.2144541
1108.70 0.2143991
1108.80 0.2143441
1108.90 0.2142891
1109.00 0.2142341
1109.10 0.2141792
1109.20 0.2141243
1109.30 0.2140693
1109.40 0.2140144
1109.50 0.2139596
1109.60 0.2139047
1109.70 0.2138498
1109.80 0.213795
1109.90 0.2137402
1110.00 0.2136854
1110.10 0.2136306
1110.20 0.2135758
1110.30 0.2135211
1110.40 0.2134663
1110.50 0.2134116
1110.60 0.2133569
1110.70 0.2133022
1110.80 0.2132475
1110.90 0.2131929
1111.00 0.2131382
1111.10 0.2130836
1111.20 0.213029
1111.30 0.2129744
1111.40 0.2129198
1111.50 0.2128653
1111.60 0.2128107
1111.70 0.2127562
1111.80 0.2127017
1111.90 0.2126472
1112.00 0.2125927
1112.10 0.2125383
1112.20 0.2124838
1112.30 0.2124294
1112.40 0.212375
1112.50 0.2123206
1112.60 0.2122662
1112.70 0.2122118
1112.80 0.2121575
1112.90 0.2121031
1113.00 0.2120488
1113.10 0.2119945
1113.20 0.2119402
1113.30 0.211886
1113.40 0.2118317
1113.50 0.2117775
1113.60 0.2117232
1113.70 0.211669
1113.80 0.2116149
1113.90 0.2115607
1114.00 0.2115065
1114.10 0.2114524
1114.20 0.2113983
1114.30 0.2113441
1114.40 0.2112901
1114.50 0.211236
1114.60 0.2111819
1114.70 0.2111279
1114.80 0.2110738
1114.90 0.2110198
1115.00 0.2109658
1115.10 0.2109119
1115.20 0.2108579
1115.30 0.2108039
1115.40 0.21075
1115.50 0.2106961
1115.60 0.2106422
1115.70 0.2105883
1115.80 0.2105344
1115.90 0.2104806
1116.00 0.2104267
1116.10 0.2103729
1116.20 0.2103191
1116.30 0.2102653
1116.40 0.2102115
1116.50 0.2101578
1116.60 0.210104
1116.70 0.2100503
1116.80 0.2099975
1116.90 0.2099457
1117.00 0.209894
1117.10 0.2098422
1117.20 0.2097905
1117.30 0.2097388
1117.40 0.2096871
1117.50 0.2096354
1117.60 0.2095838
1117.70 0.2095321
1117.80 0.2094805
1117.90 0.2094289
1118.00 0.2093773
1118.10 0.2093257
1118.20 0.2092742
1118.30 0.2092226
1118.40 0.2091711
1118.50 0.2091195
1118.60 0.209068
1118.70 0.2090165
1118.80 0.2089651
1118.90 0.2089136
1119.00 0.2088622
1119.10 0.2088107
1119.20 0.2087593
1119.30 0.2087079
1119.40 0.2086565
1119.50 0.2086051
1119.60 0.2085538
1119.70 0.2085025
1119.80 0.2084511
1119.90 0.2083998
1120.00 0.2083485
1120.10 0.2082972
1120.20 0.208246
1120.30 0.2081947
1120.40 0.2081435
1120.50 0.2080923
1120.60 0.208041
1120.70 0.2079899
1120.80 0.2079387
1120.90 0.2078875
1121.00 0.2078364
1121.10 0.2077852
1121.20 0.2077341
1121.30 0.207683
1121.40 0.2076319
1121.50 0.2075809
1121.60 0.2075298
1121.70 0.2074788
1121.80 0.2074277
1121.90 0.2073767
1122.00 0.2073257
1122.10 0.2072747
1122.20 0.2072238
1122.30 0.2071728
1122.40 0.2071219
1122.50 0.207071
1122.60 0.20702
1122.70 0.2069691
1122.80 0.2069183
1122.90 0.2068674
1123.00 0.2068165
1123.10 0.2067657
1123.20 0.2067149
1123.30 0.2066641
1123.40 0.2066133
1123.50 0.2065625
1123.60 0.2065117
1123.70 0.206461
1123.80 0.2064103
1123.90 0.2063595
1124.00 0.2063088
1124.10 0.2062582
1124.20 0.2062075
1124.30 0.2061568
1124.40 0.2061062
1124.50 0.2060555
1124.60 0.2060049
1124.70 0.2059543
1124.80 0.2059037
1124.90 0.2058532
1125.00 0.2058026
1125.10 0.2057521
1125.20 0.2057015
1125.30 0.205651
1125.40 0.2056005
1125.50 0.2055501
1125.60 0.2054996
1125.70 0.2054491
1125.80 0.2053987
1125.90 0.2053483
1126.00 0.2052979
1126.10 0.2052475
1126.20 0.2051971
1126.30 0.2051467
1126.40 0.2050964
1126.50 0.205046
1126.60 0.2049957
1126.70 0.2049454
1126.80 0.2048951
1126.90 0.2048448
1127.00 0.2047946
1127.10 0.2047443
1127.20 0.2046941
1127.30 0.2046439
1127.40 0.2045937
1127.50 0.2045435
1127.60 0.2044933
1127.70 0.2044431
1127.80 0.204393
1127.90 0.2043429
1128.00 0.2042915
1128.10 0.2042398
1128.20 0.2041882
1128.30 0.2041365
1128.40 0.2040849
1128.50 0.2040333
1128.60 0.2039817
1128.70 0.2039301
1128.80 0.2038785
1128.90 0.2038269
1129.00 0.2037754
1129.10 0.2037239
1129.20 0.2036724
1129.30 0.2036209
1129.40 0.2035694
1129.50 0.2035179
1129.60 0.2034664
1129.70 0.203415
1129.80 0.2033636
1129.90 0.2033122
1130.00 0.2032608
1130.10 0.2032094
1130.20 0.203158
1130.30 0.2031067
1130.40 0.2030554
1130.50 0.203004
1130.60 0.2029527
1130.70 0.2029014
1130.80 0.2028502
1130.90 0.2027989
1131.00 0.2027477
1131.10 0.2026964
1131.20 0.2026452
1131.30 0.202594
1131.40 0.2025428
1131.50 0.2024917
1131.60 0.2024405
1131.70 0.2023894
1131.80 0.2023383
1131.90 0.2022871
1132.00 0.202236
1132.10 0.202185
1132.20 0.2021339
1132.30 0.2020829
1132.40 0.2020318
1132.50 0.2019808
1132.60 0.2019298
1132.70 0.2018788
1132.80 0.2018278
1132.90 0.2017769
1133.00 0.2017259
1133.10 0.201675
1133.20 0.2016241
1133.30 0.2015732
1133.40 0.2015223
1133.50 0.2014714
1133.60 0.2014206
1133.70 0.2013697
1133.80 0.2013189
1133.90 0.2012681
1134.00 0.2012173
1134.10 0.2011665
1134.20 0.2011157
1134.30 0.201065
1134.40 0.2010142
1134.50 0.2009635
1134.60 0.2009128
1134.70 0.2008621
1134.80 0.2008114
1134.90 0.2007608
1135.00 0.2007101
1135.10 0.2006595
1135.20 0.2006088
1135.30 0.2005582
1135.40 0.2005077
1135.50 0.2004571
1135.60 0.2004065
1135.70 0.200356
1135.80 0.2003054
1135.90 0.2002549
1136.00 0.2002044
1136.10 0.2001539
1136.20 0.2001035
1136.30 0.200053
1136.40 0.2000025
1136.50 0.1999521
1136.60 0.1999017
1136.70 0.1998513
1136.80 0.1998009
1136.90 0.1997505
1137.00 0.1997002
1137.10 0.1996498
1137.20 0.1995995
1137.30 0.1995492
1137.40 0.1994989
1137.50 0.1994486
1137.60 0.1993984
1137.70 0.1993481
1137.80 0.1992979
1137.90 0.1992476
1138.00 0.1991974
1138.10 0.1991472
1138.20 0.199097
1138.30 0.1990469
1138.40 0.1989967
1138.50 0.1989466
1138.60 0.1988965
1138.70 0.1988464
1138.80 0.1987963
1138.90 0.1987462
1139.00 0.1986961
1139.10 0.1986461
1139.20 0.198596
1139.30 0.1985462
1139.40 0.1984963
1139.50 0.1984465
1139.60 0.1983966
1139.70 0.1983468
1139.80 0.198297
1139.90 0.1982472
1140.00 0.1981975
1140.10 0.1981477
1140.20 0.198098
1140.30 0.1980482
1140.40 0.1979985
1140.50 0.1979488
1140.60 0.1978991
1140.70 0.1978495
1140.80 0.1977998
1140.90 0.1977502
1141.00 0.1977005
1141.10 0.1976509
1141.20 0.1976013
1141.30 0.1975517
1141.40 0.1975022
1141.50 0.1974526
1141.60 0.1974031
1141.70 0.1973535
1141.80 0.197304
1141.90 0.1972545
1142.00 0.197205
1142.10 0.1971556
1142.20 0.1971061
1142.30 0.1970567
1142.40 0.1970072
1142.50 0.1969578
1142.60 0.1969084
1142.70 0.196859
1142.80 0.1968097
1142.90 0.1967603
1143.00 0.196711
1143.10 0.1966617
1143.20 0.1966123
1143.30 0.196563
1143.40 0.1965138
1143.50 0.1964645
1143.60 0.1964152
1143.70 0.196366
1143.80 0.1963168
1143.90 0.1962675
1144.00 0.1962183
1144.10 0.1961692
1144.20 0.19612
1144.30 0.1960708
1144.40 0.1960217
1144.50 0.1959726
1144.60 0.1959234
1144.70 0.1958743
1144.80 0.1958253
1144.90 0.1957762
1145.00 0.1957271
1145.10 0.1956781
1145.20 0.1956291
1145.30 0.19558
1145.40 0.195531
1145.50 0.1954821
1145.60 0.1954331
1145.70 0.1953841
1145.80 0.1953352
1145.90 0.1952863
1146.00 0.1952373
1146.10 0.1951884
1146.20 0.1951395
1146.30 0.1950907
1146.40 0.1950418
1146.50 0.194993
1146.60 0.1949441
1146.70 0.1948953
1146.80 0.1948465
1146.90 0.1947977
1147.00 0.1947489
1147.10 0.1947002
1147.20 0.1946514
1147.30 0.1946027
1147.40 0.194554
1147.50 0.1945053
1147.60 0.1944566
1147.70 0.1944079
1147.80 0.1943593
1147.90 0.1943106
1148.00 0.194262
1148.10 0.1942133
1148.20 0.1941647
1148.30 0.1941161
1148.40 0.1940676
1148.50 0.194019
1148.60 0.1939704
1148.70 0.1939219
1148.80 0.1938734
1148.90 0.1938249
1149.00 0.1937764
1149.10 0.1937279
1149.20 0.1936794
1149.30 0.193631
1149.40 0.1935825
1149.50 0.1935341
1149.60 0.1934857
1149.70 0.1934373
1149.80 0.1933889
1149.90 0.1933405
1150.00 0.1932922
1150.10 0.1932439
1150.20 0.1931955
1150.30 0.1931472
1150.40 0.1930989
1150.50 0.1930506
1150.60 0.1930025
1150.70 0.192956
1150.80 0.1929095
1150.90 0.192863
1151.00 0.1928165
1151.10 0.1927701
1151.20 0.1927237
1151.30 0.1926773
1151.40 0.1926308
1151.50 0.1925845
1151.60 0.1925381
1151.70 0.1924917
1151.80 0.1924454
1151.90 0.192399
1152.00 0.1923527
1152.10 0.1923064
1152.20 0.1922601
1152.30 0.1922138
1152.40 0.1921675
1152.50 0.1921213
1152.60 0.192075
1152.70 0.1920288
1152.80 0.1919826
1152.90 0.1919364
1153.00 0.1918902
1153.10 0.191844
1153.20 0.1917978
1153.30 0.1917517
1153.40 0.1917055
1153.50 0.1916594
1153.60 0.1916133
1153.70 0.1915672
1153.80 0.1915211
1153.90 0.191475
1154.00 0.191429
1154.10 0.1913829
1154.20 0.1913369
1154.30 0.1912909
1154.40 0.1912448
1154.50 0.1911989
1154.60 0.1911529
1154.70 0.1911069
1154.80 0.1910609
1154.90 0.191015
1155.00 0.1909691
1155.10 0.1909231
1155.20 0.1908772
1155.30 0.1908313
1155.40 0.1907855
1155.50 0.1907396
1155.60 0.1906937
1155.70 0.1906479
1155.80 0.1906021
1155.90 0.1905563
1156.00 0.1905105
1156.10 0.1904647
1156.20 0.1904189
1156.30 0.1903731
1156.40 0.1903274
1156.50 0.1902817
1156.60 0.1902359
1156.70 0.1901902
1156.80 0.1901445
1156.90 0.1900989
1157.00 0.1900532
1157.10 0.1900075
1157.20 0.1899619
1157.30 0.1899163
1157.40 0.1898707
1157.50 0.1898251
1157.60 0.1897795
1157.70 0.1897339
1157.80 0.1896883
1157.90 0.1896428
1158.00 0.1895972
1158.10 0.1895517
1158.20 0.1895062
1158.30 0.1894607
1158.40 0.1894152
1158.50 0.1893697
1158.60 0.1893243
1158.70 0.1892788
1158.80 0.1892334
1158.90 0.189188
1159.00 0.1891426
1159.10 0.1890972
1159.20 0.1890518
1159.30 0.1890064
1159.40 0.1889611
1159.50 0.1889157
1159.60 0.1888704
1159.70 0.1888251
1159.80 0.1887798
1159.90 0.1887345
1160.00 0.1886892
1160.10 0.1886439
1160.20 0.1885987
1160.30 0.1885534
1160.40 0.1885082
1160.50 0.188463
1160.60 0.1884178
1160.70 0.1883726
1160.80 0.1883274
1160.90 0.1882822
1161.00 0.1882371
1161.10 0.1881919
1161.20 0.1881468
1161.30 0.1881017
1161.40 0.1880566
1161.50 0.1880115
1161.60 0.1879664
1161.70 0.1879214
1161.80 0.1878763
1161.90 0.1878313
1162.00 0.1877862
1162.10 0.1877412
1162.20 0.1876932
1162.30 0.1876452
1162.40 0.1875972
1162.50 0.1875492
1162.60 0.1875013
1162.70 0.1874533
1162.80 0.1874054
1162.90 0.1873575
1163.00 0.1873095
1163.10 0.1872617
1163.20 0.1872138
1163.30 0.1871659
1163.40 0.187118
1163.50 0.1870702
1163.60 0.1870224
1163.70 0.1869746
1163.80 0.1869268
1163.90 0.186879
1164.00 0.1868312
1164.10 0.1867834
1164.20 0.1867357
1164.30 0.186688
1164.40 0.1866402
1164.50 0.1865925
1164.60 0.1865448
1164.70 0.1864972
1164.80 0.1864495
1164.90 0.1864018
1165.00 0.1863542
1165.10 0.1863066
1165.20 0.186259
1165.30 0.1862114
1165.40 0.1861638
1165.50 0.1861162
1165.60 0.1860687
1165.70 0.1860211
1165.80 0.1859736
1165.90 0.1859261
1166.00 0.1858786
1166.10 0.1858311
1166.20 0.1857836
1166.30 0.1857362
1166.40 0.1856887
1166.50 0.1856413
1166.60 0.1855939
1166.70 0.1855464
1166.80 0.1854991
1166.90 0.1854517
1167.00 0.1854043
1167.10 0.185357
1167.20 0.1853096
1167.30 0.1852623
1167.40 0.185215
1167.50 0.1851677
1167.60 0.1851204
1167.70 0.1850731
1167.80 0.1850259
1167.90 0.1849786
1168.00 0.1849342
1168.10 0.1848901
1168.20 0.184846
1168.30 0.1848019
1168.40 0.1847578
1168.50 0.1847138
1168.60 0.1846697
1168.70 0.1846257
1168.80 0.1845817
1168.90 0.1845377
1169.00 0.1844937
1169.10 0.1844497
1169.20 0.1844057
1169.30 0.1843618
1169.40 0.1843178
1169.50 0.1842739
1169.60 0.18423
1169.70 0.1841861
1169.80 0.1841422
1169.90 0.1840983
1170.00 0.1840544
1170.10 0.1840106
1170.20 0.1839667
1170.30 0.1839229
1170.40 0.1838791
1170.50 0.1838353
1170.60 0.1837915
1170.70 0.1837477
1170.80 0.1837039
1170.90 0.1836602
1171.00 0.1836164
1171.10 0.1835727
1171.20 0.183529
1171.30 0.1834852
1171.40 0.1834415
1171.50 0.1833979
1171.60 0.1833542
1171.70 0.1833105
1171.80 0.1832669
1171.90 0.1832232
1172.00 0.1831796
1172.10 0.183136
1172.20 0.1830924
1172.30 0.1830488
1172.40 0.1830052
1172.50 0.1829617
1172.60 0.1829181
1172.70 0.1828746
1172.80 0.182831
1172.90 0.1827875
1173.00 0.182744
1173.10 0.1827005
1173.20 0.1826571
1173.30 0.1826136
1173.40 0.1825701
1173.50 0.1825267
1173.60 0.1824833
1173.70 0.1824398
1173.80 0.1823941
1173.90 0.1823478
1174.00 0.1823015
1174.10 0.1822552
1174.20 0.1822089
1174.30 0.1821626
1174.40 0.1821164
1174.50 0.1820701
1174.60 0.1820239
1174.70 0.1819777
1174.80 0.1819315
1174.90 0.1818853
1175.00 0.1818391
1175.10 0.1817929
1175.20 0.1817468
1175.30 0.1817006
1175.40 0.1816545
1175.50 0.1816084
1175.60 0.1815623
1175.70 0.1815162
1175.80 0.1814701
1175.90 0.1814241
1176.00 0.181378
1176.10 0.181332
1176.20 0.181286
1176.30 0.18124
1176.40 0.181194
1176.50 0.181148
1176.60 0.181102
1176.70 0.1810561
1176.80 0.1810101
1176.90 0.1809642
1177.00 0.1809183
1177.10 0.1808724
1177.20 0.1808265
1177.30 0.1807806
1177.40 0.1807347
1177.50 0.1806889
1177.60 0.180643
1177.70 0.1805972
1177.80 0.1805514
1177.90 0.1805056
1178.00 0.1804598
1178.10 0.180414
1178.20 0.1803683
1178.30 0.1803225
1178.40 0.1802768
1178.50 0.180231
1178.60 0.1801853
1178.70 0.1801396
1178.80 0.1800939
1178.90 0.1800483
1179.00 0.1800026
1179.10 0.179957
1179.20 0.1799113
1179.30 0.1798657
1179.40 0.1798201
1179.50 0.1797745
1179.60 0.1797293
1179.70 0.1796867
1179.80 0.1796442
1179.90 0.1796017
1180.00 0.1795591
1180.10 0.1795166
1180.20 0.1794742
1180.30 0.1794317
1180.40 0.1793892
1180.50 0.1793468
1180.60 0.1793043
1180.70 0.1792619
1180.80 0.1792195
1180.90 0.1791771
1181.00 0.1791347
1181.10 0.1790923
1181.20 0.1790499
1181.30 0.1790076
1181.40 0.1789652
1181.50 0.1789229
1181.60 0.1788806
1181.70 0.1788382
1181.80 0.1787959
1181.90 0.1787537
1182.00 0.1787114
1182.10 0.1786691
1182.20 0.1786269
1182.30 0.1785846
1182.40 0.1785424
1182.50 0.1785002
1182.60 0.178458
1182.70 0.1784158
1182.80 0.1783736
1182.90 0.1783314
1183.00 0.1782893
1183.10 0.1782471
1183.20 0.178205
1183.30 0.1781629
1183.40 0.1781207
1183.50 0.1780786
1183.60 0.1780366
1183.70 0.1779945
1183.80 0.1779524
1183.90 0.1779104
1184.00 0.1778683
1184.10 0.1778263
1184.20 0.1777843
1184.30 0.1777423
1184.40 0.1777003
1184.50 0.1776583
1184.60 0.1776163
1184.70 0.1775744
1184.80 0.1775324
1184.90 0.1774905
1185.00 0.1774485
1185.10 0.1774066
1185.20 0.1773647
1185.30 0.1773228
1185.40 0.177281
1185.50 0.1772379
1185.60 0.1771932
1185.70 0.1771485
1185.80 0.1771038
1185.90 0.1770592
1186.00 0.1770145
1186.10 0.1769699
1186.20 0.1769253
1186.30 0.1768807
1186.40 0.1768361
1186.50 0.1767915
1186.60 0.1767469
1186.70 0.1767023
1186.80 0.1766578
1186.90 0.1766133
1187.00 0.1765687
1187.10 0.1765242
1187.20 0.1764797
1187.30 0.1764352
1187.40 0.1763908
1187.50 0.1763463
1187.60 0.1763018
1187.70 0.1762574
1187.80 0.176213
1187.90 0.1761686
1188.00 0.1761242
1188.10 0.1760798
1188.20 0.1760354
1188.30 0.1759911
1188.40 0.1759467
1188.50 0.1759024
1188.60 0.175858
1188.70 0.1758137
1188.80 0.1757694
1188.90 0.1757252
1189.00 0.1756809
1189.10 0.1756366
1189.20 0.1755924
1189.30 0.1755481
1189.40 0.1755039
1189.50 0.1754597
1189.60 0.1754155
1189.70 0.1753713
1189.80 0.1753271
1189.90 0.175283
1190.00 0.1752388
1190.10 0.1751947
1190.20 0.1751506
1190.30 0.1751064
1190.40 0.1750623
1190.50 0.1750182
1190.60 0.1749742
1190.70 0.1749301
1190.80 0.1748861
1190.90 0.174842
1191.00 0.174798
1191.10 0.174754
1191.20 0.17471
1191.30 0.174666
1191.40 0.1746224
1191.50 0.1745814
1191.60 0.1745404
1191.70 0.1744994
1191.80 0.1744584
1191.90 0.1744174
1192.00 0.1743764
1192.10 0.1743354
1192.20 0.1742945
1192.30 0.1742535
1192.40 0.1742126
1192.50 0.1741717
1192.60 0.1741308
1192.70 0.1740899
1192.80 0.174049
1192.90 0.1740081
1193.00 0.1739672
1193.10 0.1739264
1193.20 0.1738855
1193.30 0.1738447
1193.40 0.1738039
1193.50 0.1737631
1193.60 0.1737223
1193.70 0.1736815
1193.80 0.1736407
1193.90 0.1736
1194.00 0.1735592
1194.10 0.1735185
1194.20 0.1734777
1194.30 0.173437
1194.40 0.1733963
1194.50 0.1733556
1194.60 0.1733149
1194.70 0.1732743
1194.80 0.1732336
1194.90 0.1731929
1195.00 0.1731523
1195.10 0.1731117
1195.20 0.1730711
1195.30 0.1730304
1195.40 0.1729898
1195.50 0.1729493
1195.60 0.1729087
1195.70 0.1728681
1195.80 0.1728276
1195.90 0.172787
1196.00 0.1727465
1196.10 0.172706
1196.20 0.1726655
1196.30 0.172625
1196.40 0.1725845
1196.50 0.172544
1196.60 0.1725036
1196.70 0.1724631
1196.80 0.1724227
1196.90 0.1723822
1197.00 0.1723418
1197.10 0.1723014
1197.20 0.172261
1197.30 0.1722206
1197.40 0.1721788
1197.50 0.1721369
1197.60 0.1720949
1197.70 0.172053
1197.80 0.172011
1197.90 0.1719691
1198.00 0.1719272
1198.10 0.1718853
1198.20 0.1718434
1198.30 0.1718015
1198.40 0.1717597
1198.50 0.1717178
1198.60 0.171676
1198.70 0.1716341
1198.80 0.1715923
1198.90 0.1715505
1199.00 0.1715087
1199.10 0.1714669
1199.20 0.1714252
1199.30 0.1713834
1199.40 0.1713417
1199.50 0.1712999
1199.60 0.1712582
1199.70 0.1712165
1199.80 0.1711748
1199.90 0.1711331
1200.00 0.1710914
