# Version 2.1 - nm, norm@500 to 1, cut digits, bergeron_He_9000_90.dat_9000
# Wavelength(nm)  Flambda(ergs/cm^s/s/nm)
300.00 1.682068
300.10 1.681911
300.20 1.681733
300.30 1.681577
300.40 1.681567
300.50 1.681557
300.60 1.681546
300.70 1.681535
300.80 1.681523
300.90 1.681511
301.00 1.681499
301.10 1.681487
301.20 1.681474
301.30 1.681461
301.40 1.681447
301.50 1.681433
301.60 1.681419
301.70 1.681404
301.80 1.681389
301.90 1.681374
302.00 1.681358
302.10 1.681382
302.20 1.68141
302.30 1.681437
302.40 1.681464
302.50 1.68149
302.60 1.681516
302.70 1.681542
302.80 1.681567
302.90 1.681592
303.00 1.681616
303.10 1.68164
303.20 1.681664
303.30 1.681679
303.40 1.681617
303.50 1.681556
303.60 1.681494
303.70 1.681432
303.80 1.68137
303.90 1.681307
304.00 1.681244
304.10 1.681181
304.20 1.681118
304.30 1.681054
304.40 1.68099
304.50 1.680926
304.60 1.680891
304.70 1.680859
304.80 1.680827
304.90 1.680795
305.00 1.680762
305.10 1.680729
305.20 1.680696
305.30 1.680662
305.40 1.680628
305.50 1.680593
305.60 1.680559
305.70 1.680524
305.80 1.680488
305.90 1.680453
306.00 1.680417
306.10 1.680381
306.20 1.680344
306.30 1.680307
306.40 1.680241
306.50 1.680167
306.60 1.680092
306.70 1.680017
306.80 1.679941
306.90 1.679865
307.00 1.679789
307.10 1.679713
307.20 1.679637
307.30 1.67956
307.40 1.679483
307.50 1.679406
307.60 1.679328
307.70 1.67925
307.80 1.679172
307.90 1.679094
308.00 1.679015
308.10 1.678937
308.20 1.678858
308.30 1.678778
308.40 1.678699
308.50 1.678619
308.60 1.678539
308.70 1.678459
308.80 1.678456
308.90 1.678673
309.00 1.678601
309.10 1.678528
309.20 1.678455
309.30 1.678381
309.40 1.678297
309.50 1.678145
309.60 1.677992
309.70 1.677839
309.80 1.677687
309.90 1.677534
310.00 1.677381
310.10 1.677227
310.20 1.677074
310.30 1.676921
310.40 1.676821
310.50 1.67678
310.60 1.676738
310.70 1.676697
310.80 1.676655
310.90 1.676612
311.00 1.676618
311.10 1.676623
311.20 1.676628
311.30 1.676607
311.40 1.676512
311.50 1.676417
311.60 1.676322
311.70 1.676226
311.80 1.67613
311.90 1.676034
312.00 1.675938
312.10 1.675841
312.20 1.675549
312.30 1.675191
312.40 1.675011
312.50 1.674958
312.60 1.674965
312.70 1.674971
312.80 1.674978
312.90 1.674922
313.00 1.6748
313.10 1.674678
313.20 1.674556
313.30 1.674445
313.40 1.674366
313.50 1.674287
313.60 1.674208
313.70 1.674128
313.80 1.674049
313.90 1.673969
314.00 1.673888
314.10 1.673747
314.20 1.673605
314.30 1.673463
314.40 1.673321
314.50 1.673179
314.60 1.673036
314.70 1.672894
314.80 1.672776
314.90 1.672497
315.00 1.671969
315.10 1.671961
315.20 1.671952
315.30 1.671943
315.40 1.671934
315.50 1.671925
315.60 1.671915
315.70 1.671643
315.80 1.67137
315.90 1.671098
316.00 1.670826
316.10 1.670946
316.20 1.671065
316.30 1.670792
316.40 1.670911
316.50 1.670247
316.60 1.669974
316.70 1.670092
316.80 1.67021
316.90 1.669937
317.00 1.669663
317.10 1.66939
317.20 1.669117
317.30 1.66896
317.40 1.668808
317.50 1.66867
317.60 1.668532
317.70 1.668393
317.80 1.668254
317.90 1.668226
318.00 1.668684
318.10 1.66841
318.20 1.668136
318.30 1.667862
318.40 1.667688
318.50 1.6678
318.60 1.667611
318.70 1.667337
318.80 1.667062
318.90 1.666903
319.00 1.666814
319.10 1.666924
319.20 1.666946
319.30 1.666716
319.40 1.666485
319.50 1.666255
319.60 1.665899
319.70 1.665872
319.80 1.665844
319.90 1.665816
320.00 1.665669
320.10 1.665394
320.20 1.665094
320.30 1.665011
320.40 1.664965
320.50 1.66469
320.60 1.6642
320.70 1.664306
320.80 1.664229
320.90 1.663953
321.00 1.663677
321.10 1.663402
321.20 1.663726
321.30 1.663479
321.40 1.663232
321.50 1.662985
321.60 1.662738
321.70 1.662491
321.80 1.662357
321.90 1.662347
322.00 1.661804
322.10 1.661712
322.20 1.66162
322.30 1.661528
322.40 1.661436
322.50 1.661343
322.60 1.66125
322.70 1.661157
322.80 1.660841
322.90 1.66068
323.00 1.66052
323.10 1.660359
323.20 1.660199
323.30 1.660038
323.40 1.659877
323.50 1.659716
323.60 1.659554
323.70 1.659393
323.80 1.659232
323.90 1.65907
324.00 1.658845
324.10 1.65862
324.20 1.658394
324.30 1.65821
324.40 1.658079
324.50 1.657879
324.60 1.657678
324.70 1.657477
324.80 1.657277
324.90 1.657076
325.00 1.656875
325.10 1.656674
325.20 1.656459
325.30 1.656216
325.40 1.655972
325.50 1.655715
325.60 1.655444
325.70 1.655172
325.80 1.6549
325.90 1.654691
326.00 1.65455
326.10 1.654409
326.20 1.654268
326.30 1.654204
326.40 1.654359
326.50 1.654156
326.60 1.653953
326.70 1.65375
326.80 1.653547
326.90 1.653344
327.00 1.653141
327.10 1.652938
327.20 1.652735
327.30 1.652531
327.40 1.652328
327.50 1.652125
327.60 1.651921
327.70 1.651718
327.80 1.651514
327.90 1.651264
328.00 1.651
328.10 1.650779
328.20 1.650557
328.30 1.650336
328.40 1.650114
328.50 1.649922
328.60 1.649736
328.70 1.64955
328.80 1.649359
328.90 1.649154
329.00 1.648949
329.10 1.648744
329.20 1.648539
329.30 1.648333
329.40 1.648128
329.50 1.647923
329.60 1.647717
329.70 1.647512
329.80 1.647306
329.90 1.647101
330.00 1.646865
330.10 1.646592
330.20 1.64632
330.30 1.646047
330.40 1.645802
330.50 1.645587
330.60 1.645372
330.70 1.645157
330.80 1.644942
330.90 1.644727
331.00 1.644512
331.10 1.644297
331.20 1.644082
331.30 1.643867
331.40 1.643651
331.50 1.643345
331.60 1.642926
331.70 1.642508
331.80 1.6423
331.90 1.642101
332.00 1.641902
332.10 1.641702
332.20 1.641503
332.30 1.641304
332.40 1.641104
332.50 1.640904
332.60 1.640705
332.70 1.640505
332.80 1.640305
332.90 1.640105
333.00 1.639906
333.10 1.639671
333.20 1.639393
333.30 1.639115
333.40 1.638837
333.50 1.638559
333.60 1.638282
333.70 1.638004
333.80 1.637726
333.90 1.637449
334.00 1.637171
334.10 1.636946
334.20 1.636786
334.30 1.636625
334.40 1.636465
334.50 1.636304
334.60 1.636143
334.70 1.635917
334.80 1.635665
334.90 1.635489
335.00 1.635313
335.10 1.634819
335.20 1.634542
335.30 1.634037
335.40 1.634109
335.50 1.634092
335.60 1.633554
335.70 1.633155
335.80 1.632877
335.90 1.6326
336.00 1.632323
336.10 1.632046
336.20 1.631769
336.30 1.631544
336.40 1.631382
336.50 1.631221
336.60 1.631059
336.70 1.630897
336.80 1.630735
336.90 1.630518
337.00 1.630234
337.10 1.62995
337.20 1.629666
337.30 1.629387
337.40 1.629115
337.50 1.628842
337.60 1.62857
337.70 1.628298
337.80 1.628026
337.90 1.627742
338.00 1.627444
338.10 1.627146
338.20 1.626848
338.30 1.62655
338.40 1.626261
338.50 1.625994
338.60 1.625727
338.70 1.62546
338.80 1.625193
338.90 1.624925
339.00 1.624658
339.10 1.624391
339.20 1.624124
339.30 1.623859
339.40 1.623597
339.50 1.623351
339.60 1.623125
339.70 1.622899
339.80 1.622673
339.90 1.622447
340.00 1.622221
340.10 1.621995
340.20 1.621769
340.30 1.621543
340.40 1.621316
340.50 1.62109
340.60 1.620864
340.70 1.620638
340.80 1.620397
340.90 1.620135
341.00 1.619867
341.10 1.619591
341.20 1.619315
341.30 1.619039
341.40 1.618764
341.50 1.618488
341.60 1.618213
341.70 1.617937
341.80 1.617644
341.90 1.617329
342.00 1.617014
342.10 1.616699
342.20 1.616259
342.30 1.616085
342.40 1.615939
342.50 1.615556
342.60 1.615173
342.70 1.614791
342.80 1.614409
342.90 1.614027
343.00 1.61369
343.10 1.613409
343.20 1.613128
343.30 1.612847
343.40 1.612569
343.50 1.612294
343.60 1.61202
343.70 1.611746
343.80 1.611472
343.90 1.611198
344.00 1.610924
344.10 1.61065
344.20 1.610376
344.30 1.610102
344.40 1.609828
344.50 1.609554
344.60 1.60967
344.70 1.609082
344.80 1.609122
344.90 1.608535
345.00 1.608186
345.10 1.607912
345.20 1.607642
345.30 1.607378
345.40 1.607113
345.50 1.606833
345.60 1.606545
345.70 1.606272
345.80 1.605999
345.90 1.605725
346.00 1.605452
346.10 1.605179
346.20 1.604879
346.30 1.604541
346.40 1.604203
346.50 1.603865
346.60 1.603527
346.70 1.603189
346.80 1.602851
346.90 1.602514
347.00 1.602176
347.10 1.601839
347.20 1.601516
347.30 1.601215
347.40 1.600915
347.50 1.600614
347.60 1.600313
347.70 1.600012
347.80 1.599712
347.90 1.599411
348.00 1.599111
348.10 1.598811
348.20 1.59851
348.30 1.59821
348.40 1.59791
348.50 1.59761
348.60 1.59731
348.70 1.597268
348.80 1.597162
348.90 1.596848
349.00 1.596534
349.10 1.59622
349.20 1.595906
349.30 1.595592
349.40 1.595278
349.50 1.594964
349.60 1.594651
349.70 1.594337
349.80 1.594024
349.90 1.593711
350.00 1.593397
350.10 1.593084
350.20 1.592771
350.30 1.592451
350.40 1.59212
350.50 1.591789
350.60 1.591459
350.70 1.591128
350.80 1.590798
350.90 1.590467
351.00 1.590137
351.10 1.589807
351.20 1.589477
351.30 1.589147
351.40 1.588825
351.50 1.588517
351.60 1.588208
351.70 1.5879
351.80 1.587592
351.90 1.587284
352.00 1.586976
352.10 1.586668
352.20 1.586208
352.30 1.585803
352.40 1.585502
352.50 1.5852
352.60 1.584898
352.70 1.584597
352.80 1.584296
352.90 1.583994
353.00 1.583693
353.10 1.583392
353.20 1.583091
353.30 1.58279
353.40 1.582489
353.50 1.582165
353.60 1.581835
353.70 1.581506
353.80 1.581176
353.90 1.580845
354.00 1.580511
354.10 1.580177
354.20 1.579844
354.30 1.579511
354.40 1.579177
354.50 1.578844
354.60 1.578511
354.70 1.578178
354.80 1.577849
354.90 1.577524
355.00 1.5772
355.10 1.576876
355.20 1.576552
355.30 1.576241
355.40 1.57593
355.50 1.575619
355.60 1.575309
355.70 1.574968
355.80 1.574615
355.90 1.574468
356.00 1.57425
356.10 1.573923
356.20 1.573595
356.30 1.573268
356.40 1.572941
356.50 1.572614
356.60 1.572287
356.70 1.571961
356.80 1.571634
356.90 1.571308
357.00 1.570981
357.10 1.570655
357.20 1.570329
357.30 1.570003
357.40 1.569676
357.50 1.569345
357.60 1.569015
357.70 1.568685
357.80 1.568087
357.90 1.567489
358.00 1.567138
358.10 1.566848
358.20 1.566559
358.30 1.566269
358.40 1.56598
358.50 1.565691
358.60 1.565402
358.70 1.565113
358.80 1.564824
358.90 1.564535
359.00 1.564233
359.10 1.563907
359.20 1.563578
359.30 1.563229
359.40 1.562881
359.50 1.562462
359.60 1.562026
359.70 1.561591
359.80 1.561182
359.90 1.560773
360.00 1.560402
360.10 1.560098
360.20 1.559795
360.30 1.559491
360.40 1.559188
360.50 1.558885
360.60 1.558243
360.70 1.557982
360.80 1.557721
360.90 1.557459
361.00 1.556982
361.10 1.556788
361.20 1.55646
361.30 1.556199
361.40 1.555908
361.50 1.555318
361.60 1.555033
361.70 1.554773
361.80 1.554465
361.90 1.554074
362.00 1.553683
362.10 1.55325
362.20 1.552847
362.30 1.552514
362.40 1.552181
362.50 1.551848
362.60 1.551515
362.70 1.551096
362.80 1.551101
362.90 1.550542
363.00 1.549984
363.10 1.549671
363.20 1.549361
363.30 1.549211
363.40 1.548506
363.50 1.5481
363.60 1.547841
363.70 1.547649
363.80 1.547325
363.90 1.546897
364.00 1.54647
364.10 1.546043
364.20 1.545616
364.30 1.545378
364.40 1.545186
364.50 1.544932
364.60 1.544476
364.70 1.544021
364.80 1.543566
364.90 1.543309
365.00 1.543052
365.10 1.542795
365.20 1.542244
365.30 1.541988
365.40 1.541437
365.50 1.541181
365.60 1.540924
365.70 1.540615
365.80 1.540305
365.90 1.53983
366.00 1.539314
366.10 1.539048
366.20 1.538782
366.30 1.538517
366.40 1.538251
366.50 1.537452
366.60 1.537196
366.70 1.5368
366.80 1.536403
366.90 1.536037
367.00 1.535724
367.10 1.53541
367.20 1.535097
367.30 1.534784
367.40 1.534471
367.50 1.533998
367.60 1.533486
367.70 1.53311
367.80 1.532734
367.90 1.532358
368.00 1.53218
368.10 1.531637
368.20 1.531331
368.30 1.53103
368.40 1.530729
368.50 1.530428
368.60 1.530127
368.70 1.529826
368.80 1.529525
368.90 1.529034
369.00 1.52846
369.10 1.52795
369.20 1.527701
369.30 1.527449
369.40 1.527196
369.50 1.526944
369.60 1.526403
369.70 1.525863
369.80 1.525501
369.90 1.525141
370.00 1.524781
370.10 1.524287
370.20 1.52403
370.30 1.523778
370.40 1.523533
370.50 1.522989
370.60 1.52246
370.70 1.522209
370.80 1.521956
370.90 1.521702
371.00 1.521171
371.10 1.520637
371.20 1.520384
371.30 1.520131
371.40 1.519509
371.50 1.51922
371.60 1.518931
371.70 1.518642
371.80 1.518354
371.90 1.518065
372.00 1.517416
372.10 1.517005
372.20 1.516662
372.30 1.516318
372.40 1.515975
372.50 1.515632
372.60 1.515289
372.70 1.514947
372.80 1.514415
372.90 1.513883
373.00 1.513635
373.10 1.51339
373.20 1.51286
373.30 1.512331
373.40 1.512084
373.50 1.511836
373.60 1.511589
373.70 1.51078
373.80 1.510655
373.90 1.510286
374.00 1.509898
374.10 1.509512
374.20 1.509125
374.30 1.508738
374.40 1.508282
374.50 1.508232
374.60 1.507856
374.70 1.507471
374.80 1.507086
374.90 1.506702
375.00 1.50627
375.10 1.505839
375.20 1.505407
375.30 1.505003
375.40 1.504599
375.50 1.504194
375.60 1.503791
375.70 1.503387
375.80 1.502983
375.90 1.50258
376.00 1.50233
376.10 1.501896
376.20 1.501459
376.30 1.501023
376.40 1.500587
376.50 1.500236
376.60 1.500011
376.70 1.499787
376.80 1.499469
376.90 1.49906
377.00 1.49865
377.10 1.498241
377.20 1.497824
377.30 1.497373
377.40 1.496922
377.50 1.496472
377.60 1.496158
377.70 1.495844
377.80 1.495529
377.90 1.495215
378.00 1.494711
378.10 1.494297
378.20 1.493888
378.30 1.493479
378.40 1.49307
378.50 1.492661
378.60 1.492252
378.70 1.491844
378.80 1.491436
378.90 1.491037
379.00 1.490654
379.10 1.490304
379.20 1.489955
379.30 1.489563
379.40 1.489129
379.50 1.488696
379.60 1.488305
379.70 1.487966
379.80 1.487579
379.90 1.487192
380.00 1.486806
380.10 1.48642
380.20 1.486034
380.30 1.485648
380.40 1.485263
380.50 1.484878
380.60 1.484298
380.70 1.48401
380.80 1.483722
380.90 1.483435
381.00 1.483147
381.10 1.482706
381.20 1.482131
381.30 1.481893
381.40 1.481309
381.50 1.481085
381.60 1.48064
381.70 1.480004
381.80 1.479628
381.90 1.47939
382.00 1.479153
382.10 1.478648
382.20 1.47825
382.30 1.477745
382.40 1.477279
382.50 1.476872
382.60 1.476466
382.70 1.476148
382.80 1.475839
382.90 1.475443
383.00 1.475046
383.10 1.47465
383.20 1.474237
383.30 1.473763
383.40 1.473323
383.50 1.472936
383.60 1.472732
383.70 1.472316
383.80 1.471899
383.90 1.471483
384.00 1.471067
384.10 1.470651
384.20 1.470235
384.30 1.46982
384.40 1.469416
384.50 1.469022
384.60 1.468629
384.70 1.468236
384.80 1.467895
384.90 1.467612
385.00 1.467077
385.10 1.466556
385.20 1.46643
385.30 1.465937
385.40 1.465495
385.50 1.465104
385.60 1.464713
385.70 1.464322
385.80 1.463919
385.90 1.463468
386.00 1.46305
386.10 1.462668
386.20 1.462317
386.30 1.461966
386.40 1.46154
386.50 1.461181
386.60 1.460949
386.70 1.460194
386.80 1.459963
386.90 1.459732
387.00 1.459253
387.10 1.458747
387.20 1.458373
387.30 1.457777
387.40 1.457669
387.50 1.457304
387.60 1.456634
387.70 1.456274
387.80 1.455914
387.90 1.455554
388.00 1.45524
388.10 1.454883
388.20 1.454299
388.30 1.45388
388.40 1.453462
388.50 1.453087
388.60 1.452699
388.70 1.452421
388.80 1.451918
388.90 1.451496
389.00 1.451268
389.10 1.450735
389.20 1.450519
389.30 1.450159
389.40 1.44968
389.50 1.449268
389.60 1.448867
389.70 1.448247
389.80 1.447855
389.90 1.447463
390.00 1.447072
390.10 1.44668
390.20 1.446289
390.30 1.44588
390.40 1.44545
390.50 1.44502
390.60 1.44459
390.70 1.444161
390.80 1.443722
390.90 1.443273
391.00 1.443193
391.10 1.442704
391.20 1.442308
391.30 1.442058
391.40 1.441578
391.50 1.441097
391.60 1.440617
391.70 1.440137
391.80 1.439657
391.90 1.439282
392.00 1.439011
392.10 1.438718
392.20 1.438386
392.30 1.437826
392.40 1.437429
392.50 1.437206
392.60 1.436474
392.70 1.436251
392.80 1.435863
392.90 1.435391
393.00 1.434931
393.10 1.434517
393.20 1.434145
393.30 1.433669
393.40 1.433171
393.50 1.432949
393.60 1.432531
393.70 1.431999
393.80 1.4318
393.90 1.431326
394.00 1.430829
394.10 1.430344
394.20 1.430131
394.30 1.429661
394.40 1.42944
394.50 1.428716
394.60 1.428273
394.70 1.427869
394.80 1.427607
394.90 1.427331
395.00 1.426682
395.10 1.426389
395.20 1.425929
395.30 1.425534
395.40 1.42514
395.50 1.424805
395.60 1.424492
395.70 1.424112
395.80 1.42355
395.90 1.422988
396.00 1.422467
396.10 1.422262
396.20 1.421793
396.30 1.421258
396.40 1.42104
396.50 1.420741
396.60 1.420106
396.70 1.419888
396.80 1.419375
396.90 1.418955
397.00 1.418738
397.10 1.418023
397.20 1.417806
397.30 1.417177
397.40 1.416776
397.50 1.416376
397.60 1.415979
397.70 1.415618
397.80 1.415258
397.90 1.414899
398.00 1.414541
398.10 1.414184
398.20 1.413756
398.30 1.413249
398.40 1.412747
398.50 1.412418
398.60 1.411812
398.70 1.411426
398.80 1.411121
398.90 1.410803
399.00 1.41046
399.10 1.409784
399.20 1.409416
399.30 1.409049
399.40 1.408682
399.50 1.408314
399.60 1.40793
399.70 1.407539
399.80 1.407148
399.90 1.406757
400.00 1.406357
400.10 1.405654
400.20 1.405441
400.30 1.404894
400.40 1.404385
400.50 1.404314
400.60 1.403791
400.70 1.403335
400.80 1.402701
400.90 1.402489
401.00 1.401819
401.10 1.401578
401.20 1.401262
401.30 1.400668
401.40 1.400233
401.50 1.399896
401.60 1.39956
401.70 1.399237
401.80 1.398641
401.90 1.398199
402.00 1.397752
402.10 1.397525
402.20 1.396893
402.30 1.39662
402.40 1.396256
402.50 1.395716
402.60 1.395507
402.70 1.394814
402.80 1.394604
402.90 1.394105
403.00 1.393655
403.10 1.393494
403.20 1.392814
403.30 1.392495
403.40 1.391904
403.50 1.39144
403.60 1.391046
403.70 1.390799
403.80 1.390599
403.90 1.390183
404.00 1.389695
404.10 1.389007
404.20 1.38856
404.30 1.388113
404.40 1.387906
404.50 1.387459
404.60 1.387013
404.70 1.386806
404.80 1.386135
404.90 1.385915
405.00 1.385606
405.10 1.385161
405.20 1.384648
405.30 1.384135
405.40 1.383691
405.50 1.383247
405.60 1.382803
405.70 1.38236
405.80 1.381916
405.90 1.381474
406.00 1.38108
406.10 1.380687
406.20 1.380294
406.30 1.379902
406.40 1.379501
406.50 1.379296
406.60 1.378618
406.70 1.378236
406.80 1.377929
406.90 1.37754
407.00 1.3771
407.10 1.37666
407.20 1.37622
407.30 1.375781
407.40 1.375342
407.50 1.374903
407.60 1.374464
407.70 1.374026
407.80 1.373588
407.90 1.373151
408.00 1.372735
408.10 1.372504
408.20 1.372189
408.30 1.37167
408.40 1.371152
408.50 1.370992
408.60 1.370483
408.70 1.369975
408.80 1.369509
408.90 1.369292
409.00 1.368802
409.10 1.368313
409.20 1.367824
409.30 1.367335
409.40 1.366852
409.50 1.366514
409.60 1.366178
409.70 1.365818
409.80 1.365367
409.90 1.364923
410.00 1.36471
410.10 1.364044
410.20 1.36367
410.30 1.36337
410.40 1.363018
410.50 1.362508
410.60 1.361997
410.70 1.361494
410.80 1.361019
410.90 1.360545
411.00 1.360125
411.10 1.359727
411.20 1.359328
411.30 1.358956
411.40 1.358685
411.50 1.358188
411.60 1.357692
411.70 1.357209
411.80 1.356781
411.90 1.356539
412.00 1.356111
412.10 1.355799
412.20 1.355257
412.30 1.354678
412.40 1.35442
412.50 1.354208
412.60 1.353552
412.70 1.353182
412.80 1.352885
412.90 1.352505
413.00 1.351916
413.10 1.351535
413.20 1.351154
413.30 1.350774
413.40 1.350393
413.50 1.349959
413.60 1.349361
413.70 1.348938
413.80 1.348515
413.90 1.348092
414.00 1.34767
414.10 1.347247
414.20 1.346771
414.30 1.346577
414.40 1.345927
414.50 1.345734
414.60 1.34514
414.70 1.344719
414.80 1.344299
414.90 1.343879
415.00 1.343459
415.10 1.343039
415.20 1.342633
415.30 1.34227
415.40 1.341907
415.50 1.34154
415.60 1.341057
415.70 1.340575
415.80 1.340125
415.90 1.339779
416.00 1.339433
416.10 1.339071
416.20 1.338645
416.30 1.338219
416.40 1.337793
416.50 1.337368
416.60 1.336952
416.70 1.336529
416.80 1.335888
416.90 1.335489
417.00 1.335057
417.10 1.334875
417.20 1.33446
417.30 1.334044
417.40 1.333564
417.50 1.333084
417.60 1.332573
417.70 1.331941
417.80 1.331528
417.90 1.331116
418.00 1.330703
418.10 1.330291
418.20 1.329879
418.30 1.329478
418.40 1.32932
418.50 1.328879
418.60 1.328438
418.70 1.327998
418.80 1.327558
418.90 1.327119
419.00 1.326679
419.10 1.32624
419.20 1.325801
419.30 1.325361
419.40 1.324887
419.50 1.324413
419.60 1.323968
419.70 1.323637
419.80 1.323308
419.90 1.322958
420.00 1.322546
420.10 1.322134
420.20 1.321722
420.30 1.32131
420.40 1.320899
420.50 1.320488
420.60 1.320077
420.70 1.319667
420.80 1.319256
420.90 1.318845
421.00 1.318377
421.10 1.31791
421.20 1.317451
421.30 1.317015
421.40 1.316579
421.50 1.316143
421.60 1.315707
421.70 1.315272
421.80 1.314837
421.90 1.314409
422.00 1.314002
422.10 1.31358
422.20 1.313096
422.30 1.312613
422.40 1.312132
422.50 1.311711
422.60 1.31129
422.70 1.310869
422.80 1.310449
422.90 1.310028
423.00 1.309608
423.10 1.309188
423.20 1.308769
423.30 1.30835
423.40 1.307931
423.50 1.307512
423.60 1.307093
423.70 1.306675
423.80 1.306257
423.90 1.305839
424.00 1.305421
424.10 1.305004
424.20 1.304587
424.30 1.30417
424.40 1.303713
424.50 1.303318
424.60 1.302924
424.70 1.30253
424.80 1.302136
424.90 1.301743
425.00 1.30135
425.10 1.300957
425.20 1.300564
425.30 1.300171
425.40 1.299773
425.50 1.299334
425.60 1.298895
425.70 1.298457
425.80 1.298019
425.90 1.297581
426.00 1.297144
426.10 1.296707
426.20 1.29627
426.30 1.295833
426.40 1.295397
426.50 1.294961
426.60 1.294525
426.70 1.294089
426.80 1.293654
426.90 1.293219
427.00 1.292795
427.10 1.292371
427.20 1.291947
427.30 1.291524
427.40 1.291101
427.50 1.290678
427.60 1.290255
427.70 1.289833
427.80 1.28941
427.90 1.288989
428.00 1.288567
428.10 1.288145
428.20 1.287724
428.30 1.287303
428.40 1.286883
428.50 1.286462
428.60 1.286042
428.70 1.285622
428.80 1.285203
428.90 1.284791
429.00 1.28438
429.10 1.283969
429.20 1.283558
429.30 1.283147
429.40 1.282737
429.50 1.282326
429.60 1.281916
429.70 1.281507
429.80 1.281097
429.90 1.280688
430.00 1.280279
430.10 1.27987
430.20 1.279462
430.30 1.279053
430.40 1.278645
430.50 1.278237
430.60 1.27783
430.70 1.277422
430.80 1.277015
430.90 1.276608
431.00 1.276202
431.10 1.275795
431.20 1.275389
431.30 1.274982
431.40 1.27456
431.50 1.274137
431.60 1.273715
431.70 1.273294
431.80 1.272872
431.90 1.272451
432.00 1.27203
432.10 1.271609
432.20 1.271189
432.30 1.270769
432.40 1.270349
432.50 1.269929
432.60 1.269509
432.70 1.26909
432.80 1.268671
432.90 1.268253
433.00 1.267834
433.10 1.267416
433.20 1.266998
433.30 1.266575
433.40 1.266081
433.50 1.265587
433.60 1.265094
433.70 1.264601
433.80 1.26417
433.90 1.263815
434.00 1.263409
434.10 1.262973
434.20 1.262537
434.30 1.262102
434.40 1.261667
434.50 1.261232
434.60 1.260797
434.70 1.260363
434.80 1.25993
434.90 1.259521
435.00 1.259112
435.10 1.258703
435.20 1.258295
435.30 1.257886
435.40 1.257478
435.50 1.257071
435.60 1.256663
435.70 1.256256
435.80 1.255849
435.90 1.255442
436.00 1.255035
436.10 1.254629
436.20 1.254223
436.30 1.253741
436.40 1.253178
436.50 1.252767
436.60 1.252357
436.70 1.251947
436.80 1.251537
436.90 1.251127
437.00 1.250718
437.10 1.250309
437.20 1.249902
437.30 1.249498
437.40 1.249092
437.50 1.248657
437.60 1.248223
437.70 1.247789
437.80 1.247356
437.90 1.246923
438.00 1.246491
438.10 1.246078
438.20 1.245665
438.30 1.245263
438.40 1.245036
438.50 1.244673
438.60 1.244295
438.70 1.243727
438.80 1.243161
438.90 1.243001
439.00 1.242449
439.10 1.242087
439.20 1.241717
439.30 1.241254
439.40 1.24079
439.50 1.240327
439.60 1.239857
439.70 1.23949
439.80 1.239177
439.90 1.238706
440.00 1.238235
440.10 1.237765
440.20 1.2373
440.30 1.2369
440.40 1.2365
440.50 1.2361
440.60 1.235701
440.70 1.235301
440.80 1.234902
440.90 1.234504
441.00 1.234105
441.10 1.233707
441.20 1.233297
441.30 1.232739
441.40 1.232242
441.50 1.231821
441.60 1.2314
441.70 1.231311
441.80 1.230876
441.90 1.230441
442.00 1.230007
442.10 1.229573
442.20 1.22914
442.30 1.228706
442.40 1.228277
442.50 1.227854
442.60 1.22743
442.70 1.226954
442.80 1.226417
442.90 1.22611
443.00 1.225786
443.10 1.225439
443.20 1.224986
443.30 1.224433
443.40 1.223971
443.50 1.223618
443.60 1.223176
443.70 1.222874
443.80 1.222472
443.90 1.221921
444.00 1.22146
444.10 1.221109
444.20 1.220669
444.30 1.220516
444.40 1.219967
444.50 1.219418
444.60 1.218962
444.70 1.21862
444.80 1.218221
444.90 1.217771
445.00 1.217321
445.10 1.216871
445.20 1.216438
445.30 1.216025
445.40 1.215612
445.50 1.2152
445.60 1.214788
445.70 1.214376
445.80 1.213996
445.90 1.213645
446.00 1.213294
446.10 1.212944
446.20 1.212507
446.30 1.211964
446.40 1.211523
446.50 1.211177
446.60 1.210831
446.70 1.210486
446.80 1.210038
446.90 1.209497
447.00 1.208955
447.10 1.208807
447.20 1.208266
447.30 1.207726
447.40 1.207578
447.50 1.207038
447.60 1.206633
447.70 1.206351
447.80 1.205813
447.90 1.205274
448.00 1.204804
448.10 1.204396
448.20 1.203989
448.30 1.203582
448.40 1.203175
448.50 1.202769
448.60 1.202378
448.70 1.202001
448.80 1.201619
448.90 1.201168
449.00 1.200717
449.10 1.200266
449.20 1.199816
449.30 1.199717
449.40 1.199183
449.50 1.198649
449.60 1.198197
449.70 1.197819
449.80 1.197441
449.90 1.197063
450.00 1.196685
450.10 1.196308
450.20 1.195931
450.30 1.195554
450.40 1.195152
450.50 1.19475
450.60 1.194349
450.70 1.193948
450.80 1.193547
450.90 1.193146
451.00 1.192617
451.10 1.192088
451.20 1.191747
451.30 1.191417
451.40 1.190889
451.50 1.190361
451.60 1.190219
451.70 1.189692
451.80 1.189165
451.90 1.189023
452.00 1.188497
452.10 1.187971
452.20 1.187542
452.30 1.187112
452.40 1.186683
452.50 1.186255
452.60 1.185989
452.70 1.185633
452.80 1.185194
452.90 1.184755
453.00 1.184317
453.10 1.183879
453.20 1.183473
453.30 1.183067
453.40 1.182662
453.50 1.182257
453.60 1.181852
453.70 1.181447
453.80 1.18104
453.90 1.18063
454.00 1.180221
454.10 1.179811
454.20 1.17943
454.30 1.17905
454.40 1.178669
454.50 1.178289
454.60 1.177909
454.70 1.177514
454.80 1.177104
454.90 1.176695
455.00 1.176286
455.10 1.175877
455.20 1.175468
455.30 1.17506
455.40 1.174652
455.50 1.174244
455.60 1.173836
455.70 1.173428
455.80 1.173015
455.90 1.172601
456.00 1.172188
456.10 1.171776
456.20 1.171368
456.30 1.17096
456.40 1.170552
456.50 1.170144
456.60 1.169736
456.70 1.169329
456.80 1.168922
456.90 1.168515
457.00 1.168109
457.10 1.167702
457.20 1.167242
457.30 1.166836
457.40 1.166431
457.50 1.166026
457.60 1.165621
457.70 1.165217
457.80 1.164812
457.90 1.164408
458.00 1.164005
458.10 1.163601
458.20 1.163198
458.30 1.162795
458.40 1.162392
458.50 1.161989
458.60 1.161587
458.70 1.161157
458.80 1.160716
458.90 1.160276
459.00 1.159835
459.10 1.159395
459.20 1.158955
459.30 1.158554
459.40 1.158154
459.50 1.157753
459.60 1.157353
459.70 1.156953
459.80 1.156554
459.90 1.156154
460.00 1.155755
460.10 1.155356
460.20 1.154957
460.30 1.154559
460.40 1.154161
460.50 1.153763
460.60 1.153365
460.70 1.152948
460.80 1.152522
460.90 1.152097
461.00 1.151671
461.10 1.151246
461.20 1.150906
461.30 1.150599
461.40 1.150139
461.50 1.149641
461.60 1.149143
461.70 1.148645
461.80 1.148251
461.90 1.147856
462.00 1.147462
462.10 1.147069
462.20 1.146675
462.30 1.146282
462.40 1.145889
462.50 1.145496
462.60 1.145103
462.70 1.144711
462.80 1.144318
462.90 1.143927
463.00 1.143535
463.10 1.143143
463.20 1.142755
463.30 1.142367
463.40 1.14198
463.50 1.141593
463.60 1.141206
463.70 1.140819
463.80 1.140433
463.90 1.140034
464.00 1.139633
464.10 1.139232
464.20 1.138831
464.30 1.138431
464.40 1.13803
464.50 1.13763
464.60 1.13723
464.70 1.136809
464.80 1.136379
464.90 1.13595
465.00 1.135521
465.10 1.135092
465.20 1.134663
465.30 1.134237
465.40 1.133812
465.50 1.133387
465.60 1.132962
465.70 1.132538
465.80 1.132114
465.90 1.131712
466.00 1.131314
466.10 1.130917
466.20 1.13052
466.30 1.130138
466.40 1.129761
466.50 1.129385
466.60 1.129009
466.70 1.128633
466.80 1.128258
466.90 1.127882
467.00 1.127507
467.10 1.127132
467.20 1.126758
467.30 1.126307
467.40 1.125881
467.50 1.12547
467.60 1.125059
467.70 1.124648
467.80 1.124238
467.90 1.123842
468.00 1.123451
468.10 1.12306
468.20 1.12267
468.30 1.122217
468.40 1.121737
468.50 1.121535
468.60 1.121137
468.70 1.120659
468.80 1.120181
468.90 1.119703
469.00 1.119487
469.10 1.119168
469.20 1.11878
469.30 1.118392
469.40 1.118005
469.50 1.117609
469.60 1.11721
469.70 1.116811
469.80 1.116412
469.90 1.116008
470.00 1.115533
470.10 1.11511
470.20 1.114707
470.30 1.114306
470.40 1.113904
470.50 1.113503
470.60 1.113115
470.70 1.11273
470.80 1.112346
470.90 1.111962
471.00 1.111508
471.10 1.111036
471.20 1.110564
471.30 1.110446
471.40 1.109975
471.50 1.109504
471.60 1.109034
471.70 1.108564
471.80 1.108164
471.90 1.107783
472.00 1.107401
472.10 1.10702
472.20 1.106624
472.30 1.106225
472.40 1.105825
472.50 1.105426
472.60 1.105028
472.70 1.10458
472.80 1.104169
472.90 1.103772
473.00 1.103376
473.10 1.102979
473.20 1.102583
473.30 1.102187
473.40 1.101792
473.50 1.101396
473.60 1.101001
473.70 1.100606
473.80 1.100224
473.90 1.099845
474.00 1.099466
474.10 1.099088
474.20 1.098703
474.30 1.098315
474.40 1.097927
474.50 1.09754
474.60 1.097155
474.70 1.096788
474.80 1.096421
474.90 1.096055
475.00 1.095689
475.10 1.095323
475.20 1.094957
475.30 1.094592
475.40 1.094185
475.50 1.093767
475.60 1.09335
475.70 1.092933
475.80 1.092517
475.90 1.092101
476.00 1.091685
476.10 1.091269
476.20 1.090858
476.30 1.09045
476.40 1.090043
476.50 1.089635
476.60 1.089228
476.70 1.088821
476.80 1.088414
476.90 1.088029
477.00 1.087649
477.10 1.087269
477.20 1.086889
477.30 1.08651
477.40 1.086131
477.50 1.085752
477.60 1.085374
477.70 1.084995
477.80 1.084617
477.90 1.084239
478.00 1.083861
478.10 1.083484
478.20 1.083107
478.30 1.08273
478.40 1.082353
478.50 1.081976
478.60 1.0816
478.70 1.08117
478.80 1.080718
478.90 1.08032
479.00 1.079935
479.10 1.07955
479.20 1.079166
479.30 1.078781
479.40 1.078392
479.50 1.078001
479.60 1.077609
479.70 1.077218
479.80 1.076827
479.90 1.076436
480.00 1.076046
480.10 1.075655
480.20 1.075265
480.30 1.074875
480.40 1.074486
480.50 1.074096
480.60 1.073707
480.70 1.073318
480.80 1.072929
480.90 1.072541
481.00 1.072153
481.10 1.071765
481.20 1.071381
481.30 1.070998
481.40 1.070615
481.50 1.070232
481.60 1.06985
481.70 1.069467
481.80 1.069085
481.90 1.068703
482.00 1.068322
482.10 1.06794
482.20 1.067558
482.30 1.067163
482.40 1.066769
482.50 1.066375
482.60 1.065981
482.70 1.065587
482.80 1.065193
482.90 1.0648
483.00 1.064407
483.10 1.064014
483.20 1.063621
483.30 1.063229
483.40 1.062837
483.50 1.062445
483.60 1.062053
483.70 1.061677
483.80 1.061302
483.90 1.060926
484.00 1.060551
484.10 1.060176
484.20 1.059799
484.30 1.05942
484.40 1.059042
484.50 1.058665
484.60 1.058287
484.70 1.057908
484.80 1.057508
484.90 1.057109
485.00 1.05671
485.10 1.056311
485.20 1.055912
485.30 1.055514
485.40 1.055116
485.50 1.054718
485.60 1.05432
485.70 1.053947
485.80 1.053574
485.90 1.053201
486.00 1.052828
486.10 1.052456
486.20 1.052084
486.30 1.051712
486.40 1.05134
486.50 1.050969
486.60 1.050597
486.70 1.050222
486.80 1.04979
486.90 1.049359
487.00 1.048928
487.10 1.048498
487.20 1.048128
487.30 1.047758
487.40 1.047389
487.50 1.047019
487.60 1.04665
487.70 1.046281
487.80 1.045913
487.90 1.045544
488.00 1.045176
488.10 1.044808
488.20 1.044441
488.30 1.044078
488.40 1.043715
488.50 1.043353
488.60 1.04299
488.70 1.042628
488.80 1.042202
488.90 1.041775
489.00 1.041362
489.10 1.040981
489.20 1.040601
489.30 1.04022
489.40 1.03984
489.50 1.03946
489.60 1.039081
489.70 1.038701
489.80 1.038282
489.90 1.037922
490.00 1.037563
490.10 1.037204
490.20 1.036845
490.30 1.036487
490.40 1.036064
490.50 1.035642
490.60 1.03522
490.70 1.034798
490.80 1.034397
490.90 1.03428
491.00 1.033859
491.10 1.033438
491.20 1.033017
491.30 1.032597
491.40 1.032176
491.50 1.031756
491.60 1.031383
491.70 1.031107
491.80 1.030822
491.90 1.030403
492.00 1.029984
492.10 1.029566
492.20 1.029147
492.30 1.028729
492.40 1.028333
492.50 1.028217
492.60 1.0278
492.70 1.027383
492.80 1.026966
492.90 1.026549
493.00 1.026137
493.10 1.025785
493.20 1.025432
493.30 1.02508
493.40 1.024728
493.50 1.024376
493.60 1.023961
493.70 1.023547
493.80 1.023132
493.90 1.022718
494.00 1.022304
494.10 1.02191
494.20 1.021557
494.30 1.021205
494.40 1.020853
494.50 1.020501
494.60 1.020145
494.70 1.019733
494.80 1.019346
494.90 1.019033
495.00 1.018719
495.10 1.018406
495.20 1.018028
495.30 1.01765
495.40 1.017272
495.50 1.016894
495.60 1.016517
495.70 1.01614
495.80 1.015763
495.90 1.015386
496.00 1.01501
496.10 1.014623
496.20 1.014214
496.30 1.013805
496.40 1.013397
496.50 1.012989
496.60 1.012581
496.70 1.01222
496.80 1.01186
496.90 1.0115
497.00 1.01114
497.10 1.01078
497.20 1.010421
497.30 1.010049
497.40 1.009643
497.50 1.009237
497.60 1.008832
497.70 1.008429
497.80 1.008058
497.90 1.007688
498.00 1.007319
498.10 1.006949
498.20 1.00658
498.30 1.006211
498.40 1.005842
498.50 1.005473
498.60 1.005104
498.70 1.004859
498.80 1.004614
498.90 1.004211
499.00 1.003809
499.10 1.003406
499.20 1.003004
499.30 1.002603
499.40 1.002201
499.50 1.0018
499.60 1.001399
499.70 1.001003
499.80 1.000668
499.90 1.000334
500.00 1
500.10 0.9996661
500.20 0.9993113
500.30 0.9989119
500.40 0.9985127
500.50 0.9981137
500.60 0.997715
500.70 0.9973165
500.80 0.9969484
500.90 0.9966445
501.00 0.9963407
501.10 0.9960371
501.20 0.9956397
501.30 0.9952425
501.40 0.9948456
501.50 0.9944489
501.60 0.9940524
501.70 0.9936562
501.80 0.99331
501.90 0.9930698
502.00 0.99278
502.10 0.9923846
502.20 0.9919894
502.30 0.9915945
502.40 0.9911998
502.50 0.9908053
502.60 0.9904111
502.70 0.9900171
502.80 0.9896233
502.90 0.9892298
503.00 0.9888609
503.10 0.9885442
503.20 0.9882276
503.30 0.9879111
503.40 0.9875751
503.50 0.9871828
503.60 0.9867908
503.70 0.986399
503.80 0.9860075
503.90 0.9856162
504.00 0.9852494
504.10 0.9849346
504.20 0.9846199
504.30 0.9843054
504.40 0.9839713
504.50 0.9835812
504.60 0.9831914
504.70 0.9828019
504.80 0.9824125
504.90 0.9820234
505.00 0.9816345
505.10 0.9812459
505.20 0.9808777
505.30 0.9805675
505.40 0.9802574
505.50 0.9799474
505.60 0.9796128
505.70 0.9792254
505.80 0.9788382
505.90 0.9784513
506.00 0.9780646
506.10 0.9776781
506.20 0.9773008
506.30 0.976949
506.40 0.9765974
506.50 0.976246
506.60 0.9758948
506.70 0.9755438
506.80 0.975193
506.90 0.9748424
507.00 0.974492
507.10 0.9741309
507.20 0.9737517
507.30 0.9733869
507.40 0.9730223
507.50 0.9726579
507.60 0.9722937
507.70 0.9719298
507.80 0.971566
507.90 0.9712024
508.00 0.9708391
508.10 0.970476
508.20 0.9701131
508.30 0.9697504
508.40 0.9693879
508.50 0.9690256
508.60 0.9686635
508.70 0.9683016
508.80 0.9679351
508.90 0.9675547
509.00 0.9671746
509.10 0.9668027
509.20 0.966448
509.30 0.9660936
509.40 0.9657394
509.50 0.9653854
509.60 0.9650316
509.70 0.964678
509.80 0.9643246
509.90 0.9639714
510.00 0.9636184
510.10 0.9632656
510.20 0.962913
510.30 0.9625602
510.40 0.9622063
510.50 0.9618526
510.60 0.9614991
510.70 0.9611459
510.80 0.9607928
510.90 0.9604399
511.00 0.9600873
511.10 0.9597348
511.20 0.9593825
511.30 0.9590305
511.40 0.9586786
511.50 0.958327
511.60 0.9579681
511.70 0.9575937
511.80 0.9572195
511.90 0.9568456
512.00 0.9564719
512.10 0.9560983
512.20 0.9557251
512.30 0.9553567
512.40 0.9550021
512.50 0.9546476
512.60 0.9542934
512.70 0.9539393
512.80 0.9535855
512.90 0.9532319
513.00 0.9528784
513.10 0.9525252
513.20 0.9521722
513.30 0.9518194
513.40 0.9514668
513.50 0.9511143
513.60 0.9507621
513.70 0.9504101
513.80 0.9500583
513.90 0.9497067
514.00 0.9493497
514.10 0.9489919
514.20 0.9486344
514.30 0.948277
514.40 0.9479199
514.50 0.947563
514.60 0.9472063
514.70 0.9468498
514.80 0.9464935
514.90 0.9461374
515.00 0.9457815
515.10 0.9454258
515.20 0.9450703
515.30 0.944715
515.40 0.94436
515.50 0.9440051
515.60 0.9436504
515.70 0.943296
515.80 0.9429417
515.90 0.9425876
516.00 0.9422338
516.10 0.9418801
516.20 0.9415267
516.30 0.9411735
516.40 0.9408204
516.50 0.9404676
516.60 0.940115
516.70 0.9397625
516.80 0.9394103
516.90 0.9390583
517.00 0.9387065
517.10 0.9383548
517.20 0.9380034
517.30 0.9376522
517.40 0.9373012
517.50 0.9369504
517.60 0.9365998
517.70 0.9362494
517.80 0.9358992
517.90 0.9355492
518.00 0.9351994
518.10 0.9348497
518.20 0.9345003
518.30 0.9341511
518.40 0.9338021
518.50 0.9334533
518.60 0.9331047
518.70 0.9327563
518.80 0.9324081
518.90 0.9320601
519.00 0.9317123
519.10 0.931362
519.20 0.9310088
519.30 0.9306559
519.40 0.9303032
519.50 0.9299507
519.60 0.9295984
519.70 0.9292462
519.80 0.9288943
519.90 0.9285426
520.00 0.9281911
520.10 0.9278398
520.20 0.9274887
520.30 0.9271378
520.40 0.9267871
520.50 0.9264366
520.60 0.9260863
520.70 0.9257361
520.80 0.9253862
520.90 0.9250365
521.00 0.924687
521.10 0.9243377
521.20 0.9239886
521.30 0.9236397
521.40 0.923291
521.50 0.9229425
521.60 0.9225942
521.70 0.9222461
521.80 0.9218982
521.90 0.9215505
522.00 0.921203
522.10 0.9208557
522.20 0.9205086
522.30 0.9201617
522.40 0.919815
522.50 0.9194684
522.60 0.9191221
522.70 0.918776
522.80 0.9184301
522.90 0.9180844
523.00 0.9177388
523.10 0.9173935
523.20 0.9170484
523.30 0.9167034
523.40 0.9163587
523.50 0.9160141
523.60 0.9156698
523.70 0.9153256
523.80 0.9149817
523.90 0.9146379
524.00 0.9142944
524.10 0.913951
524.20 0.9136078
524.30 0.9132648
524.40 0.912922
524.50 0.9125793
524.60 0.9122369
524.70 0.9118946
524.80 0.9115526
524.90 0.9112107
525.00 0.910869
525.10 0.9105276
525.20 0.9101863
525.30 0.9098452
525.40 0.9095043
525.50 0.9091636
525.60 0.9088231
525.70 0.9084828
525.80 0.9081427
525.90 0.9078027
526.00 0.907463
526.10 0.9071235
526.20 0.9067841
526.30 0.906445
526.40 0.906106
526.50 0.9057672
526.60 0.9054286
526.70 0.9050903
526.80 0.9047521
526.90 0.9044141
527.00 0.9040762
527.10 0.9037386
527.20 0.9034012
527.30 0.903064
527.40 0.9027269
527.50 0.90239
527.60 0.9020534
527.70 0.9017169
527.80 0.9013806
527.90 0.9010445
528.00 0.9007086
528.10 0.9003729
528.20 0.9000374
528.30 0.899702
528.40 0.8993669
528.50 0.8990319
528.60 0.8986971
528.70 0.8983626
528.80 0.8980282
528.90 0.897694
529.00 0.8973599
529.10 0.8970261
529.20 0.8966925
529.30 0.896359
529.40 0.8960258
529.50 0.8956919
529.60 0.8953537
529.70 0.8950157
529.80 0.8946779
529.90 0.8943402
530.00 0.8940028
530.10 0.8936655
530.20 0.8933284
530.30 0.8929915
530.40 0.8926548
530.50 0.8923183
530.60 0.891982
530.70 0.8916459
530.80 0.89131
530.90 0.8909742
531.00 0.8906387
531.10 0.8903033
531.20 0.8899682
531.30 0.8896332
531.40 0.8892984
531.50 0.8889638
531.60 0.8886293
531.70 0.8882951
531.80 0.8879611
531.90 0.8876272
532.00 0.8872936
532.10 0.8869601
532.20 0.8866268
532.30 0.8862937
532.40 0.8859608
532.50 0.8856281
532.60 0.8852955
532.70 0.8849632
532.80 0.884631
532.90 0.884299
533.00 0.8839673
533.10 0.8836357
533.20 0.8833042
533.30 0.882973
533.40 0.882642
533.50 0.8823111
533.60 0.8819804
533.70 0.88165
533.80 0.8813197
533.90 0.8809895
534.00 0.8806596
534.10 0.8803299
534.20 0.8800003
534.30 0.8796709
534.40 0.8793418
534.50 0.8790128
534.60 0.8786839
534.70 0.8783553
534.80 0.8780249
534.90 0.8776864
535.00 0.8773481
535.10 0.8770099
535.20 0.876672
535.30 0.8763343
535.40 0.8759967
535.50 0.8756593
535.60 0.8753222
535.70 0.8749852
535.80 0.8746484
535.90 0.8743118
536.00 0.8739754
536.10 0.8736392
536.20 0.8733031
536.30 0.8729673
536.40 0.8726316
536.50 0.8722962
536.60 0.8719609
536.70 0.8716258
536.80 0.8712909
536.90 0.8709562
537.00 0.8706217
537.10 0.8702874
537.20 0.8699532
537.30 0.8696193
537.40 0.8692855
537.50 0.868952
537.60 0.8686186
537.70 0.8682854
537.80 0.8679524
537.90 0.8676195
538.00 0.8672869
538.10 0.8669545
538.20 0.8666222
538.30 0.8662901
538.40 0.8659582
538.50 0.8656265
538.60 0.865295
538.70 0.8649637
538.80 0.8646326
538.90 0.8643016
539.00 0.8639708
539.10 0.8636403
539.20 0.8633099
539.30 0.8629796
539.40 0.8626496
539.50 0.8623198
539.60 0.8619901
539.70 0.8616607
539.80 0.8613314
539.90 0.8610023
540.00 0.8606734
540.10 0.8603446
540.20 0.8600197
540.30 0.8596964
540.40 0.8593733
540.50 0.8590503
540.60 0.8587276
540.70 0.858405
540.80 0.8580826
540.90 0.8577604
541.00 0.8574384
541.10 0.8571165
541.20 0.8567949
541.30 0.8564734
541.40 0.856152
541.50 0.8558309
541.60 0.85551
541.70 0.8551892
541.80 0.8548686
541.90 0.8545482
542.00 0.8542279
542.10 0.8539078
542.20 0.853588
542.30 0.8532682
542.40 0.8529487
542.50 0.8526294
542.60 0.8523102
542.70 0.8519912
542.80 0.8516724
542.90 0.8513537
543.00 0.8510352
543.10 0.850717
543.20 0.8503988
543.30 0.8500809
543.40 0.8497631
543.50 0.8494456
543.60 0.8491281
543.70 0.8488109
543.80 0.8484939
543.90 0.848177
544.00 0.8478603
544.10 0.8475437
544.20 0.8472274
544.30 0.8469112
544.40 0.8465952
544.50 0.8462794
544.60 0.8459637
544.70 0.8456482
544.80 0.8453329
544.90 0.8450178
545.00 0.8447028
545.10 0.844388
545.20 0.8440734
545.30 0.843759
545.40 0.8434447
545.50 0.8431307
545.60 0.8428134
545.70 0.8424949
545.80 0.8421765
545.90 0.8418584
546.00 0.8415404
546.10 0.8412226
546.20 0.840905
546.30 0.8405875
546.40 0.8402702
546.50 0.8399531
546.60 0.8396362
546.70 0.8393194
546.80 0.8390029
546.90 0.8386865
547.00 0.8383702
547.10 0.8380542
547.20 0.8377383
547.30 0.8374226
547.40 0.8371071
547.50 0.8367917
547.60 0.8364765
547.70 0.8361615
547.80 0.8358467
547.90 0.835532
548.00 0.8352176
548.10 0.8349033
548.20 0.8345891
548.30 0.8342711
548.40 0.8339478
548.50 0.8336246
548.60 0.8333016
548.70 0.8329788
548.80 0.8326562
548.90 0.8323338
549.00 0.8320115
549.10 0.8316894
549.20 0.8313675
549.30 0.8310458
549.40 0.8307242
549.50 0.8304028
549.60 0.8300816
549.70 0.8297606
549.80 0.8294398
549.90 0.8291191
550.00 0.8287987
550.10 0.8284784
550.20 0.8281582
550.30 0.8278383
550.40 0.8275185
550.50 0.8271989
550.60 0.8268795
550.70 0.8265603
550.80 0.8262412
550.90 0.8259223
551.00 0.8256051
551.10 0.8252961
551.20 0.8249873
551.30 0.8246787
551.40 0.8243702
551.50 0.824062
551.60 0.8237538
551.70 0.8234459
551.80 0.8231381
551.90 0.8228305
552.00 0.8225231
552.10 0.8222158
552.20 0.8219087
552.30 0.8216018
552.40 0.821295
552.50 0.8209884
552.60 0.820682
552.70 0.8203757
552.80 0.8200696
552.90 0.8197637
553.00 0.8194579
553.10 0.8191523
553.20 0.8188469
553.30 0.8185417
553.40 0.8182366
553.50 0.8179317
553.60 0.8176269
553.70 0.8173223
553.80 0.8170123
553.90 0.8166988
554.00 0.8163854
554.10 0.8160723
554.20 0.8157592
554.30 0.8154464
554.40 0.8151337
554.50 0.8148213
554.60 0.8145089
554.70 0.8141968
554.80 0.8138848
554.90 0.813573
555.00 0.8132614
555.10 0.8129499
555.20 0.8126386
555.30 0.8123275
555.40 0.8120166
555.50 0.8117058
555.60 0.8113952
555.70 0.8110848
555.80 0.8107745
555.90 0.8104644
556.00 0.8101545
556.10 0.8098447
556.20 0.8095352
556.30 0.8092258
556.40 0.8089165
556.50 0.8086075
556.60 0.8082987
556.70 0.8079902
556.80 0.8076818
556.90 0.8073736
557.00 0.8070656
557.10 0.8067577
557.20 0.80645
557.30 0.8061425
557.40 0.8058351
557.50 0.8055279
557.60 0.8052209
557.70 0.804914
557.80 0.8046073
557.90 0.8043008
558.00 0.8039945
558.10 0.8036883
558.20 0.8033823
558.30 0.8030764
558.40 0.8027707
558.50 0.8024652
558.60 0.8021599
558.70 0.8018547
558.80 0.8015497
558.90 0.8012448
559.00 0.8009401
559.10 0.8006356
559.20 0.8003313
559.30 0.8000271
559.40 0.7997231
559.50 0.7994192
559.60 0.7991156
559.70 0.798812
559.80 0.7985087
559.90 0.7982055
560.00 0.7979025
560.10 0.7975996
560.20 0.797297
560.30 0.7969944
560.40 0.7966921
560.50 0.7963899
560.60 0.7960879
560.70 0.795786
560.80 0.7954843
560.90 0.7951828
561.00 0.7948814
561.10 0.7945802
561.20 0.7942792
561.30 0.7939783
561.40 0.7936776
561.50 0.793377
561.60 0.7930766
561.70 0.7927764
561.80 0.7924764
561.90 0.7921765
562.00 0.7918767
562.10 0.7915772
562.20 0.791278
562.30 0.790979
562.40 0.7906801
562.50 0.7903813
562.60 0.7900827
562.70 0.7897843
562.80 0.7894861
562.90 0.789188
563.00 0.7888901
563.10 0.7885923
563.20 0.7882947
563.30 0.7879973
563.40 0.7877
563.50 0.7874029
563.60 0.7871059
563.70 0.7868091
563.80 0.7865125
563.90 0.786216
564.00 0.7859197
564.10 0.7856236
564.20 0.7853276
564.30 0.7850317
564.40 0.7847361
564.50 0.7844406
564.60 0.7841452
564.70 0.78385
564.80 0.783555
564.90 0.7832576
565.00 0.7829541
565.10 0.7826508
565.20 0.7823477
565.30 0.7820447
565.40 0.781742
565.50 0.7814393
565.60 0.7811369
565.70 0.7808346
565.80 0.7805324
565.90 0.7802305
566.00 0.7799287
566.10 0.779627
566.20 0.7793255
566.30 0.7790242
566.40 0.7787231
566.50 0.7784221
566.60 0.7781213
566.70 0.7778206
566.80 0.7775201
566.90 0.7772198
567.00 0.7769196
567.10 0.7766196
567.20 0.7763198
567.30 0.7760201
567.40 0.7757206
567.50 0.7754213
567.60 0.7751221
567.70 0.7748239
567.80 0.7745296
567.90 0.7742355
568.00 0.7739415
568.10 0.7736476
568.20 0.7733539
568.30 0.7730604
568.40 0.7727671
568.50 0.7724739
568.60 0.7721808
568.70 0.7718879
568.80 0.7715952
568.90 0.7713026
569.00 0.7710102
569.10 0.770718
569.20 0.7704259
569.30 0.7701339
569.40 0.7698421
569.50 0.7695505
569.60 0.769259
569.70 0.7689677
569.80 0.7686766
569.90 0.7683856
570.00 0.7680947
570.10 0.7678041
570.20 0.7675135
570.30 0.7672232
570.40 0.766933
570.50 0.7666429
570.60 0.766353
570.70 0.7660633
570.80 0.7657737
570.90 0.7654842
571.00 0.765195
571.10 0.7649058
571.20 0.7646169
571.30 0.7643281
571.40 0.7640394
571.50 0.7637509
571.60 0.7634626
571.70 0.7631744
571.80 0.7628863
571.90 0.7625985
572.00 0.7623107
572.10 0.7620232
572.20 0.7617357
572.30 0.7614485
572.40 0.7611614
572.50 0.7608744
572.60 0.7605876
572.70 0.760301
572.80 0.7600145
572.90 0.7597282
573.00 0.759442
573.10 0.7591559
573.20 0.7588701
573.30 0.7585843
573.40 0.7582957
573.50 0.7580029
573.60 0.7577103
573.70 0.7574178
573.80 0.7571255
573.90 0.7568334
574.00 0.7565414
574.10 0.7562496
574.20 0.7559579
574.30 0.7556664
574.40 0.755375
574.50 0.7550838
574.60 0.7547928
574.70 0.7545019
574.80 0.7542112
574.90 0.7539206
575.00 0.7536302
575.10 0.75334
575.20 0.7530498
575.30 0.7527599
575.40 0.7524701
575.50 0.7521805
575.60 0.751891
575.70 0.7516017
575.80 0.7513125
575.90 0.7510235
576.00 0.7507347
576.10 0.750446
576.20 0.7501574
576.30 0.749869
576.40 0.7495808
576.50 0.7492927
576.60 0.7490048
576.70 0.748717
576.80 0.7484294
576.90 0.7481419
577.00 0.7478546
577.10 0.7475675
577.20 0.7472805
577.30 0.7469936
577.40 0.7467069
577.50 0.7464204
577.60 0.7461388
577.70 0.7458651
577.80 0.7455916
577.90 0.7453183
578.00 0.745045
578.10 0.744772
578.20 0.744499
578.30 0.7442262
578.40 0.7439536
578.50 0.7436811
578.60 0.7434087
578.70 0.7431365
578.80 0.7428645
578.90 0.7425925
579.00 0.7423207
579.10 0.7420483
579.20 0.741768
579.30 0.7414879
579.40 0.7412079
579.50 0.7409281
579.60 0.7406484
579.70 0.7403689
579.80 0.7400895
579.90 0.7398103
580.00 0.7395312
580.10 0.7392481
580.20 0.7389583
580.30 0.7386687
580.40 0.7383793
580.50 0.73809
580.60 0.7378009
580.70 0.737512
580.80 0.7372232
580.90 0.7369345
581.00 0.736646
581.10 0.7363577
581.20 0.7360695
581.30 0.7357815
581.40 0.7354936
581.50 0.7352059
581.60 0.7349183
581.70 0.7346309
581.80 0.7343436
581.90 0.7340565
582.00 0.7337696
582.10 0.7334842
582.20 0.7332014
582.30 0.7329188
582.40 0.7326363
582.50 0.732354
582.60 0.7320718
582.70 0.7317898
582.80 0.7315079
582.90 0.7312261
583.00 0.7309446
583.10 0.7306631
583.20 0.7303818
583.30 0.7301007
583.40 0.7298197
583.50 0.7295389
583.60 0.7292632
583.70 0.7289959
583.80 0.7287288
583.90 0.7284618
584.00 0.7281949
584.10 0.7279282
584.20 0.7276616
584.30 0.7273952
584.40 0.7271289
584.50 0.7268627
584.60 0.7265967
584.70 0.7263308
584.80 0.726065
584.90 0.7257878
585.00 0.7254579
585.10 0.7251281
585.20 0.7248209
585.30 0.7245504
585.40 0.72428
585.50 0.7240097
585.60 0.7237396
585.70 0.7234696
585.80 0.7231998
585.90 0.7229301
586.00 0.7226606
586.10 0.7223912
586.20 0.7221161
586.30 0.7218318
586.40 0.7215476
586.50 0.7212636
586.60 0.7209798
586.70 0.720696
586.80 0.7204269
586.90 0.7201814
587.00 0.7199361
587.10 0.7196908
587.20 0.7194457
587.30 0.7192008
587.40 0.7189559
587.50 0.7187112
587.60 0.7182452
587.70 0.7179951
587.80 0.7177508
587.90 0.7175066
588.00 0.7172411
588.10 0.7169405
588.20 0.7166401
588.30 0.7163399
588.40 0.7160613
588.50 0.715818
588.60 0.7155748
588.70 0.7153317
588.80 0.7150887
588.90 0.7148459
589.00 0.714586
589.10 0.7142982
589.20 0.7140106
589.30 0.7137232
589.40 0.7134358
589.50 0.7131487
589.60 0.7128617
589.70 0.7125749
589.80 0.7122882
589.90 0.7120016
590.00 0.7117212
590.10 0.7114508
590.20 0.7111804
590.30 0.7109102
590.40 0.7106402
590.50 0.7103703
590.60 0.7101005
590.70 0.7098309
590.80 0.7095629
590.90 0.7092957
591.00 0.7090287
591.10 0.7087618
591.20 0.7084951
591.30 0.7082285
591.40 0.707962
591.50 0.7076957
591.60 0.7074284
591.70 0.7071594
591.80 0.7068906
591.90 0.7066219
592.00 0.7063534
592.10 0.706085
592.20 0.7058168
592.30 0.7055487
592.40 0.7052807
592.50 0.7050129
592.60 0.7047452
592.70 0.7044776
592.80 0.7042102
592.90 0.703943
593.00 0.7036758
593.10 0.7034074
593.20 0.7031369
593.30 0.7028665
593.40 0.7025962
593.50 0.7023261
593.60 0.7020561
593.70 0.7017862
593.80 0.7015165
593.90 0.701247
594.00 0.7009775
594.10 0.7007083
594.20 0.7004391
594.30 0.7001701
594.40 0.6999013
594.50 0.6996326
594.60 0.699364
594.70 0.6990956
594.80 0.6988273
594.90 0.6985591
595.00 0.6982911
595.10 0.6980252
595.20 0.6977626
595.30 0.6975001
595.40 0.6972377
595.50 0.6969755
595.60 0.6967135
595.70 0.6964515
595.80 0.6961897
595.90 0.6959281
596.00 0.6956665
596.10 0.6954052
596.20 0.6951439
596.30 0.6948828
596.40 0.6946218
596.50 0.694361
596.60 0.6941003
596.70 0.6938422
596.80 0.6935859
596.90 0.6933297
597.00 0.6930737
597.10 0.6928177
597.20 0.6925619
597.30 0.6923063
597.40 0.6920508
597.50 0.6917954
597.60 0.6915347
597.70 0.6912655
597.80 0.6909963
597.90 0.6907274
598.00 0.6904585
598.10 0.6901898
598.20 0.6899213
598.30 0.6896529
598.40 0.6893846
598.50 0.6891165
598.60 0.6888485
598.70 0.6885806
598.80 0.6883129
598.90 0.6880453
599.00 0.6877779
599.10 0.6875106
599.20 0.6872435
599.30 0.6869764
599.40 0.6867145
599.50 0.6864527
599.60 0.686191
599.70 0.6859295
599.80 0.6856681
599.90 0.6854069
600.00 0.6851458
600.10 0.6848848
600.20 0.6846239
600.30 0.6843632
600.40 0.6841026
600.50 0.6838422
600.60 0.6835819
600.70 0.6833217
600.80 0.6830617
600.90 0.6828018
601.00 0.682542
601.10 0.6822824
601.20 0.6820229
601.30 0.6817636
601.40 0.6815036
601.50 0.6812438
601.60 0.6809842
601.70 0.6807247
601.80 0.6804653
601.90 0.680206
602.00 0.6799469
602.10 0.6796879
602.20 0.6794291
602.30 0.6791703
602.40 0.6789118
602.50 0.6786533
602.60 0.678395
602.70 0.6781683
602.80 0.6779433
602.90 0.6776914
603.00 0.6774397
603.10 0.6771881
603.20 0.6769367
603.30 0.6766854
603.40 0.6764342
603.50 0.6761831
603.60 0.6759322
603.70 0.6756814
603.80 0.6754307
603.90 0.6751802
604.00 0.6749298
604.10 0.6746795
604.20 0.6744293
604.30 0.6741793
604.40 0.6739294
604.50 0.6736635
604.60 0.6733978
604.70 0.6731322
604.80 0.6728668
604.90 0.6726015
605.00 0.6723363
605.10 0.6720713
605.20 0.6718064
605.30 0.6715416
605.40 0.671277
605.50 0.6710196
605.60 0.6707624
605.70 0.6705053
605.80 0.6702484
605.90 0.6699916
606.00 0.6697349
606.10 0.6695139
606.20 0.669293
606.30 0.6690723
606.40 0.6688516
606.50 0.6685245
606.60 0.6681976
606.70 0.6679773
606.80 0.6677572
606.90 0.6675371
607.00 0.6673172
607.10 0.666991
607.20 0.666665
607.30 0.6664455
607.40 0.6662261
607.50 0.6660068
607.60 0.6657876
607.70 0.6655331
607.80 0.6652787
607.90 0.6650245
608.00 0.6647704
608.10 0.6645165
608.20 0.6642626
608.30 0.6639951
608.40 0.6637277
608.50 0.6634604
608.60 0.6631933
608.70 0.6629345
608.80 0.6626796
608.90 0.6624248
609.00 0.6621701
609.10 0.6619155
609.20 0.6616611
609.30 0.6614044
609.40 0.6611477
609.50 0.6608912
609.60 0.6606349
609.70 0.6603786
609.80 0.6601225
609.90 0.6598665
610.00 0.6596107
610.10 0.659355
610.20 0.6590994
610.30 0.658844
610.40 0.6585887
610.50 0.6583335
610.60 0.6580784
610.70 0.6578235
610.80 0.6575687
610.90 0.6573255
611.00 0.6570823
611.10 0.6568393
611.20 0.6565964
611.30 0.6563536
611.40 0.656111
611.50 0.6558684
611.60 0.655626
611.70 0.6553838
611.80 0.6551416
611.90 0.6548996
612.00 0.6546576
612.10 0.6544159
612.20 0.6541742
612.30 0.6539326
612.40 0.6536877
612.50 0.653443
612.60 0.6531983
612.70 0.6529538
612.80 0.6527094
612.90 0.6524651
613.00 0.6522209
613.10 0.6519769
613.20 0.651733
613.30 0.6514892
613.40 0.6512456
613.50 0.651002
613.60 0.6507586
613.70 0.6505153
613.80 0.6502722
613.90 0.6500291
614.00 0.6497862
614.10 0.6495434
614.20 0.6493008
614.30 0.6490582
614.40 0.6487971
614.50 0.6485362
614.60 0.6482754
614.70 0.6480147
614.80 0.6477624
614.90 0.6475119
615.00 0.6472616
615.10 0.6470113
615.20 0.6467612
615.30 0.6465113
615.40 0.6462614
615.50 0.6460117
615.60 0.6457621
615.70 0.6455126
615.80 0.6452633
615.90 0.6450141
616.00 0.644765
616.10 0.6445161
616.20 0.6442672
616.30 0.6440185
616.40 0.64377
616.50 0.6435215
616.60 0.6432732
616.70 0.643025
616.80 0.642777
616.90 0.6425331
617.00 0.6422894
617.10 0.6420458
617.20 0.6418023
617.30 0.6415589
617.40 0.6413157
617.50 0.6410726
617.60 0.6408296
617.70 0.6405867
617.80 0.640344
617.90 0.6401014
618.00 0.6398589
618.10 0.6396165
618.20 0.6393742
618.30 0.6391321
618.40 0.6388901
618.50 0.6386482
618.60 0.6384065
618.70 0.6381648
618.80 0.6379233
618.90 0.6376819
619.00 0.6374407
619.10 0.6371995
619.20 0.6369585
619.30 0.6367176
619.40 0.6364768
619.50 0.6362362
619.60 0.6359957
619.70 0.6357553
619.80 0.635515
619.90 0.6352748
620.00 0.6350348
620.10 0.6347948
620.20 0.634555
620.30 0.6343154
620.40 0.6340758
620.50 0.6338364
620.60 0.6335971
620.70 0.6333579
620.80 0.6331188
620.90 0.6328795
621.00 0.6326397
621.10 0.6324
621.20 0.6321604
621.30 0.6319209
621.40 0.6316816
621.50 0.6314424
621.60 0.6312033
621.70 0.6309643
621.80 0.6307254
621.90 0.6304867
622.00 0.6302481
622.10 0.6300096
622.20 0.6297712
622.30 0.6295329
622.40 0.6292948
622.50 0.6290568
622.60 0.6288189
622.70 0.6285811
622.80 0.6283435
622.90 0.628106
623.00 0.6278686
623.10 0.6276313
623.20 0.6273941
623.30 0.627157
623.40 0.6269201
623.50 0.6266833
623.60 0.6264466
623.70 0.62621
623.80 0.6259736
623.90 0.6257373
624.00 0.625501
624.10 0.6252649
624.20 0.625029
624.30 0.6247931
624.40 0.6245574
624.50 0.6243218
624.60 0.6240863
624.70 0.6238509
624.80 0.6236156
624.90 0.6233805
625.00 0.6231455
625.10 0.6229105
625.20 0.6226758
625.30 0.6224411
625.40 0.6222065
625.50 0.6219721
625.60 0.6217378
625.70 0.6215036
625.80 0.6212695
625.90 0.6210356
626.00 0.6208017
626.10 0.620568
626.20 0.6203344
626.30 0.6201009
626.40 0.6198675
626.50 0.6196343
626.60 0.6194011
626.70 0.6191681
626.80 0.6189352
626.90 0.6187024
627.00 0.6184697
627.10 0.6182364
627.20 0.6180012
627.30 0.617766
627.40 0.617531
627.50 0.617296
627.60 0.6170613
627.70 0.6168266
627.80 0.616592
627.90 0.6163576
628.00 0.6161232
628.10 0.615889
628.20 0.615655
628.30 0.615421
628.40 0.6151871
628.50 0.6149534
628.60 0.6147198
628.70 0.6144863
628.80 0.6142529
628.90 0.6140196
629.00 0.6137865
629.10 0.6135534
629.20 0.6133205
629.30 0.6130877
629.40 0.6128551
629.50 0.6126225
629.60 0.61239
629.70 0.6121577
629.80 0.6119255
629.90 0.6116934
630.00 0.6114614
630.10 0.6112296
630.20 0.6109978
630.30 0.6107662
630.40 0.6105347
630.50 0.6103033
630.60 0.610072
630.70 0.6098409
630.80 0.6096099
630.90 0.6093789
631.00 0.6091481
631.10 0.6089174
631.20 0.6086869
631.30 0.6084564
631.40 0.6082261
631.50 0.6079958
631.60 0.6077657
631.70 0.6075357
631.80 0.6073058
631.90 0.6070761
632.00 0.6068464
632.10 0.6066169
632.20 0.6063874
632.30 0.6061581
632.40 0.6059289
632.50 0.6056999
632.60 0.6054709
632.70 0.6052421
632.80 0.6050133
632.90 0.6047847
633.00 0.6045562
633.10 0.6043278
633.20 0.6040995
633.30 0.6038714
633.40 0.6036435
633.50 0.6034159
633.60 0.6031884
633.70 0.6029611
633.80 0.6027338
633.90 0.6025067
634.00 0.6022797
634.10 0.6020528
634.20 0.601826
634.30 0.6015993
634.40 0.6013728
634.50 0.6011463
634.60 0.60092
634.70 0.6006938
634.80 0.6004676
634.90 0.6002416
635.00 0.6000158
635.10 0.59979
635.20 0.5995643
635.30 0.5993388
635.40 0.5991133
635.50 0.598888
635.60 0.5986628
635.70 0.5984377
635.80 0.5982127
635.90 0.5979878
636.00 0.5977631
636.10 0.5975384
636.20 0.5973139
636.30 0.5970894
636.40 0.5968651
636.50 0.5966409
636.60 0.5964168
636.70 0.5961929
636.80 0.595969
636.90 0.5957453
637.00 0.5955216
637.10 0.5952981
637.20 0.5950747
637.30 0.5948514
637.40 0.5946282
637.50 0.5944051
637.60 0.5941821
637.70 0.5939592
637.80 0.5937365
637.90 0.5935139
638.00 0.5932913
638.10 0.5930689
638.20 0.5928466
638.30 0.5926244
638.40 0.5924023
638.50 0.5921803
638.60 0.5919584
638.70 0.5917367
638.80 0.591515
638.90 0.5912935
639.00 0.5910721
639.10 0.5908507
639.20 0.5906295
639.30 0.5904084
639.40 0.5901874
639.50 0.5899665
639.60 0.5897458
639.70 0.5895252
639.80 0.589305
639.90 0.5890849
640.00 0.5888649
640.10 0.5886451
640.20 0.5884253
640.30 0.5882057
640.40 0.5879861
640.50 0.5877667
640.60 0.5875474
640.70 0.5873281
640.80 0.587109
640.90 0.58689
641.00 0.5866711
641.10 0.5864524
641.20 0.5862337
641.30 0.5860151
641.40 0.5857967
641.50 0.5855783
641.60 0.5853601
641.70 0.5851419
641.80 0.5849239
641.90 0.584706
642.00 0.5844881
642.10 0.5842704
642.20 0.5840528
642.30 0.5838353
642.40 0.583618
642.50 0.5834007
642.60 0.5831835
642.70 0.5829664
642.80 0.5827495
642.90 0.5825312
643.00 0.5823085
643.10 0.5820859
643.20 0.5818635
643.30 0.5816411
643.40 0.5814189
643.50 0.5811967
643.60 0.5809747
643.70 0.5807528
643.80 0.580531
643.90 0.5803093
644.00 0.5800877
644.10 0.5798662
644.20 0.5796449
644.30 0.5794236
644.40 0.5792025
644.50 0.5789814
644.60 0.5787605
644.70 0.5785397
644.80 0.578319
644.90 0.5780984
645.00 0.5778779
645.10 0.5776575
645.20 0.5774372
645.30 0.5772171
645.40 0.576997
645.50 0.5767771
645.60 0.5765572
645.70 0.5763375
645.80 0.5761179
645.90 0.5758983
646.00 0.5756789
646.10 0.5754597
646.20 0.575241
646.30 0.5750223
646.40 0.5748037
646.50 0.5745853
646.60 0.5743669
646.70 0.5741487
646.80 0.5739305
646.90 0.5737125
647.00 0.5734946
647.10 0.5732768
647.20 0.5730591
647.30 0.5728415
647.40 0.572624
647.50 0.5724066
647.60 0.5721893
647.70 0.5719721
647.80 0.5717551
647.90 0.5715381
648.00 0.5713213
648.10 0.5711045
648.20 0.5708879
648.30 0.5706713
648.40 0.5704549
648.50 0.5702386
648.60 0.5700224
648.70 0.5698063
648.80 0.5695903
648.90 0.5693744
649.00 0.5691586
649.10 0.5689429
649.20 0.5687273
649.30 0.5685119
649.40 0.568302
649.50 0.5680925
649.60 0.5678831
649.70 0.5676738
649.80 0.5674646
649.90 0.5672556
650.00 0.5670466
650.10 0.5668377
650.20 0.5666289
650.30 0.5664202
650.40 0.5662116
650.50 0.5660032
650.60 0.5657948
650.70 0.5655865
650.80 0.5653783
650.90 0.5651703
651.00 0.5649623
651.10 0.5647544
651.20 0.5645466
651.30 0.564339
651.40 0.5641314
651.50 0.5639239
651.60 0.5637166
651.70 0.5635093
651.80 0.5633021
651.90 0.5630951
652.00 0.5628881
652.10 0.5626812
652.20 0.5624745
652.30 0.5622678
652.40 0.5620613
652.50 0.5618548
652.60 0.5616442
652.70 0.5614314
652.80 0.5612187
652.90 0.5610061
653.00 0.5607936
653.10 0.5605813
653.20 0.560369
653.30 0.5601568
653.40 0.5599448
653.50 0.5597328
653.60 0.559521
653.70 0.5593092
653.80 0.5590976
653.90 0.558886
654.00 0.5586746
654.10 0.5584632
654.20 0.558252
654.30 0.5580409
654.40 0.5578298
654.50 0.5576189
654.60 0.5574081
654.70 0.5571974
654.80 0.5569868
654.90 0.5567762
655.00 0.5565658
655.10 0.5563555
655.20 0.5561453
655.30 0.5559352
655.40 0.5557252
655.50 0.5555153
655.60 0.5553055
655.70 0.5550958
655.80 0.5548901
655.90 0.5546844
656.00 0.5544789
656.10 0.5542735
656.20 0.5540681
656.30 0.5538629
656.40 0.5536577
656.50 0.5534527
656.60 0.5532478
656.70 0.5530429
656.80 0.5528382
656.90 0.5526335
657.00 0.552429
657.10 0.5522245
657.20 0.5520202
657.30 0.551816
657.40 0.5516118
657.50 0.5514078
657.60 0.5512038
657.70 0.5509999
657.80 0.5506749
657.90 0.5504591
658.00 0.5502627
658.10 0.5500664
658.20 0.5498702
658.30 0.5496741
658.40 0.5494781
658.50 0.5492822
658.60 0.5490864
658.70 0.5488906
658.80 0.548695
658.90 0.5484994
659.00 0.548304
659.10 0.5480687
659.20 0.5477735
659.30 0.547575
659.40 0.5473766
659.50 0.5471783
659.60 0.54698
659.70 0.5467819
659.80 0.5465839
659.90 0.5463859
660.00 0.5461881
660.10 0.5459904
660.20 0.5457927
660.30 0.5455951
660.40 0.5453936
660.50 0.5451914
660.60 0.5449893
660.70 0.5447873
660.80 0.5445854
660.90 0.5443847
661.00 0.5441841
661.10 0.5439836
661.20 0.5437832
661.30 0.5435829
661.40 0.5433827
661.50 0.5431826
661.60 0.5429826
661.70 0.5427827
661.80 0.5425829
661.90 0.5423842
662.00 0.5421856
662.10 0.5419871
662.20 0.5417887
662.30 0.5415904
662.40 0.541243
662.50 0.5410796
662.60 0.5409163
662.70 0.5407531
662.80 0.5405899
662.90 0.5403376
663.00 0.5400854
663.10 0.5399226
663.20 0.5397597
663.30 0.5394188
663.40 0.5392562
663.50 0.5390937
663.60 0.5389312
663.70 0.538686
663.80 0.538441
663.90 0.5382664
664.00 0.5381043
664.10 0.5379126
664.20 0.537721
664.30 0.5375295
664.40 0.5373381
664.50 0.5371468
664.60 0.5369556
664.70 0.5367505
664.80 0.5365455
664.90 0.5363406
665.00 0.5361358
665.10 0.5359311
665.20 0.5357265
665.30 0.535522
665.40 0.5353176
665.50 0.5350689
665.60 0.5348124
665.70 0.5346404
665.80 0.5344567
665.90 0.534273
666.00 0.5340895
666.10 0.533906
666.20 0.5337226
666.30 0.5335393
666.40 0.5333561
666.50 0.5331425
666.60 0.5329238
666.70 0.5327051
666.80 0.5324866
666.90 0.5322681
667.00 0.5320498
667.10 0.5318815
667.20 0.5317221
667.30 0.5314808
667.40 0.5312397
667.50 0.5310683
667.60 0.5309092
667.70 0.5307502
667.80 0.5305363
667.90 0.5302566
668.00 0.5300979
668.10 0.5299392
668.20 0.5297806
668.30 0.5295847
668.40 0.5293824
668.50 0.5291802
668.60 0.528978
668.70 0.5286379
668.80 0.5284458
668.90 0.5282538
669.00 0.5280619
669.10 0.52787
669.20 0.5276783
669.30 0.5274858
669.40 0.5272932
669.50 0.5271007
669.60 0.5269083
669.70 0.526716
669.80 0.5265238
669.90 0.5263317
670.00 0.5261396
670.10 0.5259477
670.20 0.5257558
670.30 0.5255632
670.40 0.5253704
670.50 0.5251778
670.60 0.5249852
670.70 0.5247927
670.80 0.5245894
670.90 0.5243861
671.00 0.524183
671.10 0.52398
671.20 0.523777
671.30 0.5235742
671.40 0.5233714
671.50 0.5231688
671.60 0.5229662
671.70 0.5227638
671.80 0.5225614
671.90 0.5223688
672.00 0.5221781
672.10 0.5219874
672.20 0.5217969
672.30 0.5216064
672.40 0.5214127
672.50 0.5212188
672.60 0.521025
672.70 0.5208313
672.80 0.5206377
672.90 0.5204442
673.00 0.5202508
673.10 0.5200574
673.20 0.5198642
673.30 0.5197098
673.40 0.5195187
673.50 0.5193212
673.60 0.5191239
673.70 0.5189266
673.80 0.5187294
673.90 0.5185323
674.00 0.5183353
674.10 0.5181384
674.20 0.5179416
674.30 0.5177448
674.40 0.5175482
674.50 0.5173517
674.60 0.5171552
674.70 0.5169589
674.80 0.5167626
674.90 0.5165665
675.00 0.5163704
675.10 0.5161744
675.20 0.5159786
675.30 0.5157828
675.40 0.5155944
675.50 0.5154074
675.60 0.5152205
675.70 0.5150336
675.80 0.5148469
675.90 0.5146602
676.00 0.5144737
676.10 0.5142872
676.20 0.5141008
676.30 0.5139145
676.40 0.5137283
676.50 0.5135421
676.60 0.5133561
676.70 0.5131701
676.80 0.5129843
676.90 0.5127985
677.00 0.5126128
677.10 0.5124272
677.20 0.5122417
677.30 0.5120562
677.40 0.5118709
677.50 0.5116856
677.60 0.5115005
677.70 0.5113154
677.80 0.5111304
677.90 0.5109387
678.00 0.5107459
678.10 0.5105531
678.20 0.5103605
678.30 0.5101679
678.40 0.5099755
678.50 0.5097831
678.60 0.5095909
678.70 0.5093987
678.80 0.5092066
678.90 0.5090146
679.00 0.5088227
679.10 0.5086322
679.20 0.5084424
679.30 0.5082527
679.40 0.508063
679.50 0.5078735
679.60 0.507684
679.70 0.5074947
679.80 0.5073054
679.90 0.5071162
680.00 0.5069271
680.10 0.5067381
680.20 0.5065492
680.30 0.5063604
680.40 0.5061716
680.50 0.505983
680.60 0.5057944
680.70 0.5056059
680.80 0.5054176
680.90 0.5052293
681.00 0.5050411
681.10 0.5048529
681.20 0.5046649
681.30 0.504477
681.40 0.5042891
681.50 0.5041014
681.60 0.5039137
681.70 0.5037261
681.80 0.5035386
681.90 0.5033512
682.00 0.5031639
682.10 0.5029767
682.20 0.5027895
682.30 0.5026025
682.40 0.5024155
682.50 0.5022286
682.60 0.5020418
682.70 0.5018551
682.80 0.5016685
682.90 0.501482
683.00 0.5012955
683.10 0.5011092
683.20 0.5009229
683.30 0.5007367
683.40 0.5005506
683.50 0.5003646
683.60 0.5001787
683.70 0.4999929
683.80 0.4998072
683.90 0.4996215
684.00 0.4994359
684.10 0.4992505
684.20 0.4990651
684.30 0.4988798
684.40 0.4986945
684.50 0.4985094
684.60 0.4983244
684.70 0.4981394
684.80 0.4979545
684.90 0.4977698
685.00 0.4975851
685.10 0.4974004
685.20 0.4972159
685.30 0.4970315
685.40 0.4968471
685.50 0.4966629
685.60 0.4964787
685.70 0.4962946
685.80 0.4961106
685.90 0.495927
686.00 0.4957436
686.10 0.4955602
686.20 0.4953769
686.30 0.4951938
686.40 0.4950107
686.50 0.4948276
686.60 0.4946447
686.70 0.4944619
686.80 0.4942791
686.90 0.4940965
687.00 0.4939139
687.10 0.4937314
687.20 0.493549
687.30 0.4933666
687.40 0.4931844
687.50 0.4930023
687.60 0.4928202
687.70 0.4926382
687.80 0.4924563
687.90 0.4922745
688.00 0.4920927
688.10 0.4919111
688.20 0.4917295
688.30 0.4915481
688.40 0.4913667
688.50 0.4911854
688.60 0.4910041
688.70 0.490823
688.80 0.490642
688.90 0.490461
689.00 0.4902801
689.10 0.4900993
689.20 0.4899186
689.30 0.489738
689.40 0.4895574
689.50 0.4893769
689.60 0.4891966
689.70 0.4890163
689.80 0.4888361
689.90 0.4886559
690.00 0.4884759
690.10 0.4882959
690.20 0.488116
690.30 0.4879363
690.40 0.4877565
690.50 0.4875769
690.60 0.4873974
690.70 0.4872179
690.80 0.4870385
690.90 0.4868593
691.00 0.48668
691.10 0.4865009
691.20 0.4863219
691.30 0.4861429
691.40 0.4859641
691.50 0.4857853
691.60 0.4856066
691.70 0.4854279
691.80 0.4852494
691.90 0.4850709
692.00 0.4848925
692.10 0.4847143
692.20 0.484536
692.30 0.4843579
692.40 0.4841799
692.50 0.4840019
692.60 0.483824
692.70 0.4836462
692.80 0.4834683
692.90 0.4832905
693.00 0.4831128
693.10 0.4829351
693.20 0.4827575
693.30 0.4825801
693.40 0.4824027
693.50 0.4822253
693.60 0.4820481
693.70 0.4818709
693.80 0.4816939
693.90 0.4815169
694.00 0.48134
694.10 0.4811631
694.20 0.4809864
694.30 0.4808097
694.40 0.4806332
694.50 0.4804567
694.60 0.4802802
694.70 0.4801039
694.80 0.4799277
694.90 0.4797515
695.00 0.4795754
695.10 0.4793994
695.20 0.4792234
695.30 0.4790476
695.40 0.4788718
695.50 0.4786962
695.60 0.4785205
695.70 0.478345
695.80 0.4781696
695.90 0.4779942
696.00 0.4778189
696.10 0.4776438
696.20 0.4774686
696.30 0.4772936
696.40 0.4771186
696.50 0.4769438
696.60 0.4767682
696.70 0.4765926
696.80 0.4764171
696.90 0.4762416
697.00 0.4760662
697.10 0.4758909
697.20 0.4757157
697.30 0.4755406
697.40 0.4753655
697.50 0.4751906
697.60 0.4750157
697.70 0.4748409
697.80 0.4746661
697.90 0.4744915
698.00 0.4743169
698.10 0.4741424
698.20 0.473968
698.30 0.4737937
698.40 0.4736194
698.50 0.4734453
698.60 0.4732712
698.70 0.4730972
698.80 0.4729233
698.90 0.4727494
699.00 0.4725756
699.10 0.4723888
699.20 0.4721989
699.30 0.4720092
699.40 0.4718195
699.50 0.4716299
699.60 0.4714404
699.70 0.4712707
699.80 0.471102
699.90 0.4709335
700.00 0.470765
700.10 0.4705966
700.20 0.4704282
700.30 0.47026
700.40 0.4700918
700.50 0.4699237
700.60 0.4697557
700.70 0.4695877
700.80 0.4694198
700.90 0.469252
701.00 0.4690843
701.10 0.4689096
701.20 0.4687334
701.30 0.4685572
701.40 0.4683811
701.50 0.4682051
701.60 0.4680291
701.70 0.4678533
701.80 0.4676775
701.90 0.4675018
702.00 0.4673262
702.10 0.4671507
702.20 0.4669753
702.30 0.4667999
702.40 0.4666246
702.50 0.4664494
702.60 0.4662764
702.70 0.466104
702.80 0.4659317
702.90 0.4657595
703.00 0.4655873
703.10 0.4654152
703.20 0.4652432
703.30 0.4650713
703.40 0.4648995
703.50 0.4647277
703.60 0.464556
703.70 0.4643844
703.80 0.4642129
703.90 0.4640415
704.00 0.4638701
704.10 0.4636988
704.20 0.463534
704.30 0.4633708
704.40 0.4632076
704.50 0.4630445
704.60 0.4628815
704.70 0.4627186
704.80 0.4625557
704.90 0.4623929
705.00 0.4622302
705.10 0.4620676
705.20 0.461888
705.30 0.4617045
705.40 0.461521
705.50 0.4613377
705.60 0.4611545
705.70 0.4609713
705.80 0.4607988
705.90 0.460629
706.00 0.4604592
706.10 0.4602894
706.20 0.4601516
706.30 0.4600213
706.40 0.459734
706.50 0.4596038
706.60 0.4594738
706.70 0.4593437
706.80 0.4591502
706.90 0.4589419
707.00 0.4587654
707.10 0.4585964
707.20 0.4584275
707.30 0.4582587
707.40 0.4581006
707.50 0.457945
707.60 0.4577895
707.70 0.457634
707.80 0.4574786
707.90 0.4573233
708.00 0.4571512
708.10 0.4569752
708.20 0.4567992
708.30 0.4566234
708.40 0.4564476
708.50 0.4562719
708.60 0.4560963
708.70 0.4559207
708.80 0.4557453
708.90 0.4555699
709.00 0.4554009
709.10 0.4552335
709.20 0.4550662
709.30 0.4548989
709.40 0.4547317
709.50 0.4545646
709.60 0.4543976
709.70 0.4542306
709.80 0.4540637
709.90 0.4538969
710.00 0.4537302
710.10 0.4535635
710.20 0.453397
710.30 0.4532305
710.40 0.453064
710.50 0.4528977
710.60 0.4527377
710.70 0.4525792
710.80 0.4524209
710.90 0.4522626
711.00 0.4521043
711.10 0.4519462
711.20 0.4517881
711.30 0.4516301
711.40 0.4514721
711.50 0.4513143
711.60 0.4511565
711.70 0.4509987
711.80 0.4508411
711.90 0.4506835
712.00 0.450526
712.10 0.4503632
712.20 0.4501992
712.30 0.4500353
712.40 0.4498714
712.50 0.4497077
712.60 0.449544
712.70 0.4493804
712.80 0.4492169
712.90 0.4490534
713.00 0.44889
713.10 0.4487267
713.20 0.4485635
713.30 0.4484003
713.40 0.4482372
713.50 0.4480742
713.60 0.4479113
713.70 0.4477463
713.80 0.4475771
713.90 0.447408
714.00 0.447239
714.10 0.4470706
714.20 0.4469024
714.30 0.4467342
714.40 0.4465662
714.50 0.4463982
714.60 0.4462303
714.70 0.4460624
714.80 0.4458947
714.90 0.445727
715.00 0.4455594
715.10 0.4453918
715.20 0.4452244
715.30 0.445057
715.40 0.4448897
715.50 0.4447224
715.60 0.4445553
715.70 0.4443882
715.80 0.4442212
715.90 0.4440543
716.00 0.4438874
716.10 0.4437206
716.20 0.4435539
716.30 0.4433873
716.40 0.4432208
716.50 0.4430543
716.60 0.4428919
716.70 0.4427306
716.80 0.4425693
716.90 0.4424081
717.00 0.4422469
717.10 0.4420858
717.20 0.4419248
717.30 0.4417639
717.40 0.441603
717.50 0.4414423
717.60 0.4412816
717.70 0.4411209
717.80 0.4409603
717.90 0.4407999
718.00 0.4406394
718.10 0.4404791
718.20 0.4403195
718.30 0.4401605
718.40 0.4400015
718.50 0.4398426
718.60 0.4396837
718.70 0.439525
718.80 0.4393662
718.90 0.4392076
719.00 0.4390491
719.10 0.4388906
719.20 0.4387321
719.30 0.4385738
719.40 0.4384155
719.50 0.4382573
719.60 0.4380992
719.70 0.4379411
719.80 0.4377831
719.90 0.4376252
720.00 0.4374673
720.10 0.4373096
720.20 0.4371519
720.30 0.4369942
720.40 0.4368366
720.50 0.4366791
720.60 0.4365217
720.70 0.4363879
720.80 0.4362668
720.90 0.4361063
721.00 0.4359441
721.10 0.435782
721.20 0.43562
721.30 0.4354581
721.40 0.4352962
721.50 0.4351345
721.60 0.4349727
721.70 0.4348111
721.80 0.4346495
721.90 0.434488
722.00 0.4343266
722.10 0.4341653
722.20 0.434004
722.30 0.4338428
722.40 0.4336817
722.50 0.4335206
722.60 0.4333596
722.70 0.4331993
722.80 0.4330395
722.90 0.4328797
723.00 0.4327199
723.10 0.4325603
723.20 0.4324007
723.30 0.4322412
723.40 0.4320817
723.50 0.4319223
723.60 0.431763
723.70 0.4316038
723.80 0.4314446
723.90 0.4312855
724.00 0.4311265
724.10 0.4309676
724.20 0.4308103
724.30 0.430654
724.40 0.4304978
724.50 0.4303416
724.60 0.4301855
724.70 0.4300295
724.80 0.4298735
724.90 0.4297176
725.00 0.4295618
725.10 0.429406
725.20 0.4292503
725.30 0.4290947
725.40 0.4289392
725.50 0.4287837
725.60 0.4286283
725.70 0.4284729
725.80 0.4283225
725.90 0.4281748
726.00 0.4280271
726.10 0.4278794
726.20 0.4277319
726.30 0.4275844
726.40 0.4274369
726.50 0.4272895
726.60 0.4271422
726.70 0.426995
726.80 0.426835
726.90 0.4266681
727.00 0.4265013
727.10 0.4263345
727.20 0.4261678
727.30 0.4260013
727.40 0.4258428
727.50 0.4256887
727.60 0.4255346
727.70 0.4253807
727.80 0.4252508
727.90 0.425134
728.00 0.4248693
728.10 0.4247526
728.20 0.4246359
728.30 0.4245193
728.40 0.4243548
728.50 0.4241644
728.60 0.4239981
728.70 0.4238448
728.80 0.4236916
728.90 0.4235385
729.00 0.4233934
729.10 0.4232527
729.20 0.4231121
729.30 0.4229715
729.40 0.4228309
729.50 0.4226905
729.60 0.4225373
729.70 0.4223773
729.80 0.4222174
729.90 0.4220576
730.00 0.4218978
730.10 0.4217381
730.20 0.4215785
730.30 0.421419
730.40 0.4212595
730.50 0.4211001
730.60 0.4209455
730.70 0.4207936
730.80 0.4206417
730.90 0.42049
731.00 0.4203382
731.10 0.4201866
731.20 0.420035
731.30 0.4198835
731.40 0.419732
731.50 0.4195807
731.60 0.4194293
731.70 0.4192781
731.80 0.4191269
731.90 0.4189758
732.00 0.4188247
732.10 0.4186738
732.20 0.4185213
732.30 0.418368
732.40 0.4182148
732.50 0.4180616
732.60 0.4179085
732.70 0.4177555
732.80 0.4176026
732.90 0.4174497
733.00 0.4172969
733.10 0.4171442
733.20 0.4169915
733.30 0.4168389
733.40 0.4166864
733.50 0.4165339
733.60 0.4163815
733.70 0.4162316
733.80 0.416083
733.90 0.4159344
734.00 0.415786
734.10 0.4156376
734.20 0.4154893
734.30 0.415341
734.40 0.4151928
734.50 0.4150447
734.60 0.4148966
734.70 0.4147486
734.80 0.4146007
734.90 0.4144528
735.00 0.414305
735.10 0.4141573
735.20 0.4140096
735.30 0.4138614
735.40 0.4137066
735.50 0.4135519
735.60 0.4133972
735.70 0.4132437
735.80 0.4130908
735.90 0.412938
736.00 0.4127853
736.10 0.4126326
736.20 0.41248
736.30 0.4123275
736.40 0.412175
736.50 0.4120226
736.60 0.4118703
736.70 0.4117181
736.80 0.4115659
736.90 0.4114138
737.00 0.4112617
737.10 0.4111097
737.20 0.4109578
737.30 0.4108059
737.40 0.4106542
737.50 0.4105024
737.60 0.4103508
737.70 0.4101992
737.80 0.4100477
737.90 0.4098962
738.00 0.4097449
738.10 0.4095935
738.20 0.4094457
738.30 0.4092997
738.40 0.4091538
738.50 0.4090079
738.60 0.4088621
738.70 0.4087164
738.80 0.4085707
738.90 0.4084251
739.00 0.4082795
739.10 0.4081341
739.20 0.4079886
739.30 0.4078433
739.40 0.407698
739.50 0.4075528
739.60 0.4074076
739.70 0.4072625
739.80 0.4071175
739.90 0.4069725
740.00 0.4068276
740.10 0.4066828
740.20 0.406538
740.30 0.4063933
740.40 0.4062486
740.50 0.406104
740.60 0.4059595
740.70 0.405815
740.80 0.4056706
740.90 0.4055263
741.00 0.405382
741.10 0.4052378
741.20 0.4050937
741.30 0.4049496
741.40 0.4048056
741.50 0.4046616
741.60 0.4045177
741.70 0.4043739
741.80 0.4042301
741.90 0.4040864
742.00 0.4039428
742.10 0.4037992
742.20 0.4036557
742.30 0.4035122
742.40 0.4033688
742.50 0.4032255
742.60 0.4030822
742.70 0.4029354
742.80 0.4027858
742.90 0.4026361
743.00 0.4024866
743.10 0.4023371
743.20 0.4021877
743.30 0.4020384
743.40 0.4018891
743.50 0.4017399
743.60 0.4015908
743.70 0.4014428
743.80 0.4012994
743.90 0.401156
744.00 0.4010128
744.10 0.4008695
744.20 0.4007264
744.30 0.4005833
744.40 0.4004402
744.50 0.4002973
744.60 0.4001544
744.70 0.4000115
744.80 0.3998687
744.90 0.399726
745.00 0.3995833
745.10 0.3994407
745.20 0.3992982
745.30 0.3991557
745.40 0.3990133
745.50 0.398871
745.60 0.3987287
745.70 0.3985864
745.80 0.3984443
745.90 0.3983022
746.00 0.3981601
746.10 0.3980182
746.20 0.3978762
746.30 0.3977344
746.40 0.3975926
746.50 0.3974509
746.60 0.3973092
746.70 0.3971676
746.80 0.397026
746.90 0.3968846
747.00 0.3967431
747.10 0.3966018
747.20 0.3964605
747.30 0.3963192
747.40 0.396178
747.50 0.3960369
747.60 0.3958959
747.70 0.3957549
747.80 0.3956139
747.90 0.3954731
748.00 0.3953323
748.10 0.3951915
748.20 0.3950508
748.30 0.3949102
748.40 0.3947696
748.50 0.3946291
748.60 0.3944887
748.70 0.3943483
748.80 0.394208
748.90 0.3940677
749.00 0.3939275
749.10 0.3937874
749.20 0.3936473
749.30 0.3935073
749.40 0.3933673
749.50 0.3932274
749.60 0.3930876
749.70 0.3929478
749.80 0.3928081
749.90 0.3926684
750.00 0.3925288
750.10 0.3923887
750.20 0.3922469
750.30 0.3921052
750.40 0.3919636
750.50 0.391822
750.60 0.3916805
750.70 0.3915391
750.80 0.3913977
750.90 0.3912564
751.00 0.3911151
751.10 0.3909739
751.20 0.3908328
751.30 0.3906917
751.40 0.3905507
751.50 0.3904098
751.60 0.3902689
751.70 0.390128
751.80 0.3899873
751.90 0.3898466
752.00 0.3897059
752.10 0.3895653
752.20 0.3894248
752.30 0.3892843
752.40 0.3891439
752.50 0.3890036
752.60 0.3888633
752.70 0.3887231
752.80 0.3885829
752.90 0.3884428
753.00 0.3883028
753.10 0.3881628
753.20 0.3880229
753.30 0.387883
753.40 0.3877432
753.50 0.3876035
753.60 0.3874638
753.70 0.3873242
753.80 0.3871847
753.90 0.3870452
754.00 0.3869057
754.10 0.3867664
754.20 0.386627
754.30 0.3864878
754.40 0.3863486
754.50 0.3862095
754.60 0.3860704
754.70 0.3859314
754.80 0.3857924
754.90 0.3856535
755.00 0.3855147
755.10 0.3853759
755.20 0.3852372
755.30 0.3850986
755.40 0.38496
755.50 0.3848215
755.60 0.384683
755.70 0.3845446
755.80 0.3844062
755.90 0.3842679
756.00 0.3841297
756.10 0.3839915
756.20 0.3838534
756.30 0.3837154
756.40 0.3835774
756.50 0.3834394
756.60 0.3833015
756.70 0.3831637
756.80 0.383026
756.90 0.3828883
757.00 0.3827506
757.10 0.3826131
757.20 0.3824755
757.30 0.3823381
757.40 0.3822007
757.50 0.3820633
757.60 0.3819262
757.70 0.3817893
757.80 0.3816525
757.90 0.3815158
758.00 0.3813791
758.10 0.3812425
758.20 0.3811059
758.30 0.3809694
758.40 0.380833
758.50 0.3806966
758.60 0.3805602
758.70 0.380424
758.80 0.3802878
758.90 0.3801516
759.00 0.3800155
759.10 0.3798795
759.20 0.3797435
759.30 0.3796076
759.40 0.3794717
759.50 0.3793359
759.60 0.3792002
759.70 0.3790645
759.80 0.3789289
759.90 0.3787933
760.00 0.3786578
760.10 0.3785223
760.20 0.3783869
760.30 0.3782516
760.40 0.3781163
760.50 0.3779811
760.60 0.377846
760.70 0.3777108
760.80 0.3775758
760.90 0.3774408
761.00 0.3773059
761.10 0.377171
761.20 0.3770362
761.30 0.3769014
761.40 0.3767667
761.50 0.3766321
761.60 0.3764975
761.70 0.376363
761.80 0.3762285
761.90 0.3760941
762.00 0.3759598
762.10 0.3758255
762.20 0.3756912
762.30 0.3755571
762.40 0.3754229
762.50 0.3752889
762.60 0.3751549
762.70 0.3750209
762.80 0.374887
762.90 0.3747532
763.00 0.3746194
763.10 0.3744857
763.20 0.374352
763.30 0.3742184
763.40 0.3740849
763.50 0.3739514
763.60 0.3738179
763.70 0.3736846
763.80 0.3735512
763.90 0.373418
764.00 0.3732848
764.10 0.3731516
764.20 0.3730185
764.30 0.3728855
764.40 0.3727525
764.50 0.3726196
764.60 0.3724867
764.70 0.3723539
764.80 0.3722212
764.90 0.3720885
765.00 0.3719558
765.10 0.3718232
765.20 0.3716909
765.30 0.3715588
765.40 0.3714267
765.50 0.3712947
765.60 0.3711628
765.70 0.3710309
765.80 0.370899
765.90 0.3707673
766.00 0.3706355
766.10 0.3705039
766.20 0.3703723
766.30 0.3702407
766.40 0.3701092
766.50 0.3699778
766.60 0.3698464
766.70 0.369715
766.80 0.3695838
766.90 0.3694525
767.00 0.3693214
767.10 0.3691903
767.20 0.3690592
767.30 0.3689282
767.40 0.3687973
767.50 0.3686664
767.60 0.3685356
767.70 0.3684048
767.80 0.3682741
767.90 0.3681434
768.00 0.3680128
768.10 0.3678822
768.20 0.3677517
768.30 0.3676213
768.40 0.3674909
768.50 0.3673606
768.60 0.3672303
768.70 0.3671001
768.80 0.3669699
768.90 0.3668398
769.00 0.3667098
769.10 0.3665798
769.20 0.3664498
769.30 0.3663199
769.40 0.3661901
769.50 0.3660603
769.60 0.3659306
769.70 0.3658009
769.80 0.3656713
769.90 0.3655418
770.00 0.3654123
770.10 0.3652828
770.20 0.3651534
770.30 0.3650241
770.40 0.3648948
770.50 0.3647656
770.60 0.3646364
770.70 0.3645073
770.80 0.3643782
770.90 0.3642492
771.00 0.3641203
771.10 0.3639914
771.20 0.3638625
771.30 0.3637337
771.40 0.363605
771.50 0.3634763
771.60 0.3633477
771.70 0.3632191
771.80 0.3630906
771.90 0.3629621
772.00 0.3628337
772.10 0.3627054
772.20 0.3625771
772.30 0.3624488
772.40 0.3623206
772.50 0.3621925
772.60 0.3620644
772.70 0.3619364
772.80 0.3618084
772.90 0.3616808
773.00 0.3615533
773.10 0.3614258
773.20 0.3612984
773.30 0.361171
773.40 0.3610437
773.50 0.3609164
773.60 0.3607892
773.70 0.3606621
773.80 0.360535
773.90 0.3604079
774.00 0.3602809
774.10 0.360154
774.20 0.3600271
774.30 0.3599003
774.40 0.3597735
774.50 0.3596468
774.60 0.3595201
774.70 0.3593935
774.80 0.3592669
774.90 0.3591404
775.00 0.359014
775.10 0.3588876
775.20 0.3587612
775.30 0.3586349
775.40 0.3585087
775.50 0.3583825
775.60 0.3582563
775.70 0.3581302
775.80 0.3580042
775.90 0.3578782
776.00 0.3577523
776.10 0.3576264
776.20 0.3575006
776.30 0.3573748
776.40 0.3572491
776.50 0.3571235
776.60 0.3569979
776.70 0.3568723
776.80 0.3567468
776.90 0.3566214
777.00 0.356496
777.10 0.3563706
777.20 0.3562453
777.30 0.3561201
777.40 0.3559949
777.50 0.3558698
777.60 0.3557447
777.70 0.3556196
777.80 0.3554947
777.90 0.3553697
778.00 0.3552449
778.10 0.3551201
778.20 0.3549953
778.30 0.3548706
778.40 0.3547459
778.50 0.3546213
778.60 0.3544967
778.70 0.3543722
778.80 0.3542478
778.90 0.3541234
779.00 0.353999
779.10 0.3538747
779.20 0.3537505
779.30 0.3536263
779.40 0.3535022
779.50 0.3533781
779.60 0.353254
779.70 0.3531301
779.80 0.3530061
779.90 0.3528823
780.00 0.3527584
780.10 0.3526346
780.20 0.3525109
780.30 0.3523873
780.40 0.3522636
780.50 0.3521401
780.60 0.3520153
780.70 0.3518901
780.80 0.351765
780.90 0.3516399
781.00 0.3515149
781.10 0.3513899
781.20 0.351265
781.30 0.3511401
781.40 0.3510153
781.50 0.3508906
781.60 0.3507659
781.70 0.3506412
781.80 0.3505166
781.90 0.350392
782.00 0.3502675
782.10 0.3501431
782.20 0.3500187
782.30 0.3498944
782.40 0.3497701
782.50 0.3496458
782.60 0.3495216
782.70 0.3493975
782.80 0.3492734
782.90 0.3491494
783.00 0.3490254
783.10 0.3489015
783.20 0.3487776
783.30 0.3486538
783.40 0.34853
783.50 0.3484063
783.60 0.3482826
783.70 0.348159
783.80 0.3480355
783.90 0.3479119
784.00 0.3477885
784.10 0.3476651
784.20 0.3475417
784.30 0.3474184
784.40 0.3472952
784.50 0.347172
784.60 0.347049
784.70 0.3469268
784.80 0.3468045
784.90 0.3466823
785.00 0.3465602
785.10 0.3464381
785.20 0.3463161
785.30 0.3461941
785.40 0.3460722
785.50 0.3459503
785.60 0.3458285
785.70 0.3457067
785.80 0.345585
785.90 0.3454633
786.00 0.3453417
786.10 0.3452201
786.20 0.3450986
786.30 0.3449771
786.40 0.3448557
786.50 0.3447343
786.60 0.344613
786.70 0.3444917
786.80 0.3443705
786.90 0.3442493
787.00 0.3441282
787.10 0.3440072
787.20 0.3438861
787.30 0.3437652
787.40 0.3436443
787.50 0.3435234
787.60 0.3434026
787.70 0.3432818
787.80 0.3431611
787.90 0.3430404
788.00 0.3429198
788.10 0.3427993
788.20 0.3426787
788.30 0.3425583
788.40 0.3424367
788.50 0.3423147
788.60 0.3421927
788.70 0.3420708
788.80 0.3419489
788.90 0.341827
789.00 0.3417053
789.10 0.3415835
789.20 0.3414618
789.30 0.3413402
789.40 0.3412186
789.50 0.3410971
789.60 0.3409756
789.70 0.3408542
789.80 0.3407328
789.90 0.3406115
790.00 0.3404902
790.10 0.3403689
790.20 0.3402478
790.30 0.3401266
790.40 0.3400056
790.50 0.3398845
790.60 0.3397635
790.70 0.3396426
790.80 0.3395217
790.90 0.3394009
791.00 0.3392801
791.10 0.3391594
791.20 0.3390387
791.30 0.3389181
791.40 0.3387975
791.50 0.338677
791.60 0.3385565
791.70 0.3384361
791.80 0.3383157
791.90 0.3381954
792.00 0.3380751
792.10 0.3379549
792.20 0.3378347
792.30 0.3377154
792.40 0.3375985
792.50 0.3374816
792.60 0.3373648
792.70 0.337248
792.80 0.3371313
792.90 0.3370146
793.00 0.336898
793.10 0.3367814
793.20 0.3366649
793.30 0.3365484
793.40 0.3364319
793.50 0.3363156
793.60 0.3361992
793.70 0.3360829
793.80 0.3359667
793.90 0.3358505
794.00 0.3357343
794.10 0.3356182
794.20 0.3355022
794.30 0.3353862
794.40 0.3352702
794.50 0.3351543
794.60 0.3350385
794.70 0.3349226
794.80 0.3348069
794.90 0.3346912
795.00 0.3345755
795.10 0.3344599
795.20 0.3343443
795.30 0.3342288
795.40 0.3341133
795.50 0.3339978
795.60 0.3338825
795.70 0.3337671
795.80 0.3336518
795.90 0.3335366
796.00 0.3334214
796.10 0.3333062
796.20 0.3331911
796.30 0.333075
796.40 0.3329588
796.50 0.3328426
796.60 0.3327265
796.70 0.3326104
796.80 0.3324943
796.90 0.3323783
797.00 0.3322623
797.10 0.3321464
797.20 0.3320306
797.30 0.3319148
797.40 0.331799
797.50 0.3316833
797.60 0.3315676
797.70 0.331452
797.80 0.3313364
797.90 0.3312209
798.00 0.3311054
798.10 0.33099
798.20 0.3308746
798.30 0.3307592
798.40 0.330644
798.50 0.3305287
798.60 0.3304135
798.70 0.3302984
798.80 0.3301833
798.90 0.3300682
799.00 0.3299532
799.10 0.3298382
799.20 0.3297233
799.30 0.3296085
799.40 0.3294936
799.50 0.3293789
799.60 0.3292641
799.70 0.3291495
799.80 0.3290348
799.90 0.3289203
800.00 0.3288057
800.10 0.3286912
800.20 0.3285768
800.30 0.3284624
800.40 0.328348
800.50 0.3282337
800.60 0.3281195
800.70 0.3280053
800.80 0.3278911
800.90 0.327777
801.00 0.3276629
801.10 0.3275489
801.20 0.3274349
801.30 0.327321
801.40 0.3272071
801.50 0.3270933
801.60 0.3269795
801.70 0.3268658
801.80 0.3267521
801.90 0.3266384
802.00 0.3265248
802.10 0.3264113
802.20 0.3262978
802.30 0.3261843
802.40 0.3260709
802.50 0.3259575
802.60 0.3258442
802.70 0.3257309
802.80 0.3256177
802.90 0.3255045
803.00 0.3253914
803.10 0.3252783
803.20 0.3251652
803.30 0.3250522
803.40 0.3249393
803.50 0.3248264
803.60 0.3247135
803.70 0.3246007
803.80 0.3244879
803.90 0.3243752
804.00 0.3242625
804.10 0.3241499
804.20 0.3240371
804.30 0.3239233
804.40 0.3238097
804.50 0.323696
804.60 0.3235824
804.70 0.3234689
804.80 0.3233554
804.90 0.323242
805.00 0.3231286
805.10 0.3230152
805.20 0.3229019
805.30 0.3227886
805.40 0.3226754
805.50 0.3225622
805.60 0.3224491
805.70 0.322336
805.80 0.322223
805.90 0.32211
806.00 0.3219971
806.10 0.3218842
806.20 0.3217714
806.30 0.3216586
806.40 0.3215458
806.50 0.3214331
806.60 0.3213204
806.70 0.3212078
806.80 0.3210952
806.90 0.3209827
807.00 0.3208702
807.10 0.3207578
807.20 0.3206454
807.30 0.3205331
807.40 0.3204208
807.50 0.3203085
807.60 0.3201963
807.70 0.3200842
807.80 0.3199721
807.90 0.31986
808.00 0.319748
808.10 0.319636
808.20 0.3195241
808.30 0.3194122
808.40 0.3193003
808.50 0.3191885
808.60 0.3190768
808.70 0.3189651
808.80 0.3188534
808.90 0.3187418
809.00 0.3186303
809.10 0.3185187
809.20 0.3184073
809.30 0.3182958
809.40 0.3181845
809.50 0.3180731
809.60 0.3179618
809.70 0.3178506
809.80 0.3177394
809.90 0.3176282
810.00 0.3175171
810.10 0.317406
810.20 0.317295
810.30 0.317184
810.40 0.3170731
810.50 0.3169622
810.60 0.3168514
810.70 0.3167406
810.80 0.3166298
810.90 0.3165191
811.00 0.3164085
811.10 0.3162978
811.20 0.3161873
811.30 0.3160767
811.40 0.3159663
811.50 0.3158558
811.60 0.3157454
811.70 0.3156351
811.80 0.3155248
811.90 0.3154145
812.00 0.3153043
812.10 0.3151941
812.20 0.315084
812.30 0.3149756
812.40 0.3148676
812.50 0.3147596
812.60 0.3146517
812.70 0.3145438
812.80 0.314436
812.90 0.3143282
813.00 0.3142205
813.10 0.3141128
813.20 0.3140052
813.30 0.3138976
813.40 0.31379
813.50 0.3136825
813.60 0.313575
813.70 0.3134676
813.80 0.3133602
813.90 0.3132528
814.00 0.3131455
814.10 0.3130383
814.20 0.3129311
814.30 0.3128239
814.40 0.3127168
814.50 0.3126097
814.60 0.3125026
814.70 0.3123956
814.80 0.3122887
814.90 0.3121818
815.00 0.3120749
815.10 0.3119681
815.20 0.3118613
815.30 0.3117545
815.40 0.3116478
815.50 0.3115412
815.60 0.3114346
815.70 0.311328
815.80 0.3112215
815.90 0.311115
816.00 0.3110086
816.10 0.3109022
816.20 0.3107958
816.30 0.3106895
816.40 0.3105832
816.50 0.310477
816.60 0.3103708
816.70 0.3102647
816.80 0.3101586
816.90 0.3100525
817.00 0.3099465
817.10 0.3098405
817.20 0.3097346
817.30 0.3096287
817.40 0.3095229
817.50 0.3094171
817.60 0.3093113
817.70 0.3092056
817.80 0.3090999
817.90 0.3089943
818.00 0.3088887
818.10 0.3087832
818.20 0.3086777
818.30 0.3085722
818.40 0.3084668
818.50 0.3083614
818.60 0.3082561
818.70 0.3081508
818.80 0.3080455
818.90 0.3079403
819.00 0.3078351
819.10 0.30773
819.20 0.3076249
819.30 0.3075132
819.40 0.3073969
819.50 0.3072808
819.60 0.3071647
819.70 0.3070486
819.80 0.3069325
819.90 0.3068166
820.00 0.3067006
820.10 0.3065884
820.20 0.3065137
820.30 0.306439
820.40 0.3063459
820.50 0.3062397
820.60 0.3061335
820.70 0.3060273
820.80 0.3059211
820.90 0.3058151
821.00 0.305709
821.10 0.305603
821.20 0.305497
821.30 0.3053911
821.40 0.3052852
821.50 0.3051794
821.60 0.3050736
821.70 0.3049679
821.80 0.3048622
821.90 0.3047565
822.00 0.3046509
822.10 0.3045453
822.20 0.3044397
822.30 0.3043342
822.40 0.3042288
822.50 0.3041234
822.60 0.304018
822.70 0.3039127
822.80 0.3038074
822.90 0.3037022
823.00 0.303597
823.10 0.3034918
823.20 0.3033867
823.30 0.3032816
823.40 0.3031766
823.50 0.3030716
823.60 0.3029666
823.70 0.3028617
823.80 0.3027569
823.90 0.302652
824.00 0.3025473
824.10 0.3024425
824.20 0.3023378
824.30 0.3022332
824.40 0.3021286
824.50 0.302024
824.60 0.3019195
824.70 0.301815
824.80 0.3017105
824.90 0.3016061
825.00 0.3015018
825.10 0.3013974
825.20 0.3012932
825.30 0.3011889
825.40 0.3010847
825.50 0.3009806
825.60 0.3008765
825.70 0.3007724
825.80 0.3006684
825.90 0.3005644
826.00 0.3004604
826.10 0.3003565
826.20 0.3002527
826.30 0.3001496
826.40 0.3000471
826.50 0.2999446
826.60 0.2998422
826.70 0.2997398
826.80 0.2996375
826.90 0.2995352
827.00 0.2994329
827.10 0.2993307
827.20 0.2992285
827.30 0.2991264
827.40 0.2990243
827.50 0.2989222
827.60 0.2988202
827.70 0.2987182
827.80 0.2986163
827.90 0.2985144
828.00 0.2984125
828.10 0.2983107
828.20 0.298209
828.30 0.2981072
828.40 0.2980055
828.50 0.2979039
828.60 0.2978019
828.70 0.2976997
828.80 0.2975976
828.90 0.2974955
829.00 0.2973934
829.10 0.2972914
829.20 0.2971894
829.30 0.2970875
829.40 0.2969856
829.50 0.2968837
829.60 0.2967819
829.70 0.2966801
829.80 0.2965784
829.90 0.2964767
830.00 0.2963751
830.10 0.2962734
830.20 0.2961719
830.30 0.2960703
830.40 0.2959688
830.50 0.2958674
830.60 0.295766
830.70 0.2956646
830.80 0.2955632
830.90 0.295462
831.00 0.2953607
831.10 0.2952595
831.20 0.2951583
831.30 0.2950572
831.40 0.2949561
831.50 0.294855
831.60 0.294754
831.70 0.294653
831.80 0.2945521
831.90 0.2944512
832.00 0.2943504
832.10 0.2942496
832.20 0.2941488
832.30 0.294048
832.40 0.2939474
832.50 0.2938467
832.60 0.2937461
832.70 0.2936455
832.80 0.293545
832.90 0.2934445
833.00 0.293344
833.10 0.2932436
833.20 0.2931432
833.30 0.2930429
833.40 0.2929426
833.50 0.2928424
833.60 0.2927421
833.70 0.292642
833.80 0.2925418
833.90 0.2924417
834.00 0.2923417
834.10 0.2922417
834.20 0.2921417
834.30 0.2920417
834.40 0.2919418
834.50 0.291842
834.60 0.2917422
834.70 0.2916424
834.80 0.2915426
834.90 0.2914429
835.00 0.2913433
835.10 0.2912437
835.20 0.2911441
835.30 0.2910445
835.40 0.290945
835.50 0.2908456
835.60 0.2907461
835.70 0.2906467
835.80 0.2905474
835.90 0.2904481
836.00 0.2903488
836.10 0.2902496
836.20 0.2901504
836.30 0.2900512
836.40 0.2899521
836.50 0.289853
836.60 0.289754
836.70 0.289655
836.80 0.2895561
836.90 0.2894573
837.00 0.2893588
837.10 0.2892602
837.20 0.2891617
837.30 0.2890632
837.40 0.2889648
837.50 0.2888664
837.60 0.2887681
837.70 0.2886698
837.80 0.2885715
837.90 0.2884733
838.00 0.2883751
838.10 0.2882769
838.20 0.2881788
838.30 0.2880807
838.40 0.2879827
838.50 0.2878847
838.60 0.2877867
838.70 0.2876888
838.80 0.2875909
838.90 0.287493
839.00 0.2873952
839.10 0.2872974
839.20 0.2871997
839.30 0.287102
839.40 0.2870044
839.50 0.2869067
839.60 0.2868092
839.70 0.2867116
839.80 0.2866141
839.90 0.2865166
840.00 0.2864192
840.10 0.2863218
840.20 0.2862245
840.30 0.2861272
840.40 0.2860299
840.50 0.2859327
840.60 0.2858355
840.70 0.2857383
840.80 0.2856412
840.90 0.2855441
841.00 0.285447
841.10 0.28535
841.20 0.2852531
841.30 0.2851562
841.40 0.2850593
841.50 0.2849624
841.60 0.2848656
841.70 0.2847688
841.80 0.2846721
841.90 0.2845754
842.00 0.2844788
842.10 0.2843821
842.20 0.2842855
842.30 0.284189
842.40 0.2840925
842.50 0.283996
842.60 0.2838996
842.70 0.2838032
842.80 0.2837068
842.90 0.2836105
843.00 0.2835142
843.10 0.283418
843.20 0.2833218
843.30 0.2832256
843.40 0.2831295
843.50 0.2830334
843.60 0.2829374
843.70 0.2828413
843.80 0.2827454
843.90 0.2826494
844.00 0.2825535
844.10 0.2824576
844.20 0.2823618
844.30 0.282266
844.40 0.2821703
844.50 0.2820746
844.60 0.2819789
844.70 0.2818832
844.80 0.2817876
844.90 0.2816921
845.00 0.2815965
845.10 0.281501
845.20 0.2814056
845.30 0.2813104
845.40 0.2812153
845.50 0.2811203
845.60 0.2810252
845.70 0.2809303
845.80 0.2808353
845.90 0.2807404
846.00 0.2806455
846.10 0.2805507
846.20 0.2804559
846.30 0.2803611
846.40 0.2802664
846.50 0.2801717
846.60 0.280077
846.70 0.2799824
846.80 0.2798878
846.90 0.2797933
847.00 0.2796988
847.10 0.2796043
847.20 0.2795098
847.30 0.2794154
847.40 0.2793211
847.50 0.2792268
847.60 0.2791325
847.70 0.2790382
847.80 0.278944
847.90 0.2788498
848.00 0.2787557
848.10 0.2786616
848.20 0.2785675
848.30 0.2784735
848.40 0.2783795
848.50 0.2782855
848.60 0.2781916
848.70 0.2780977
848.80 0.2780039
848.90 0.27791
849.00 0.2778163
849.10 0.2777225
849.20 0.2776288
849.30 0.2775352
849.40 0.2774415
849.50 0.2773479
849.60 0.2772544
849.70 0.2771609
849.80 0.2770674
849.90 0.2769739
850.00 0.2768805
850.10 0.2767871
850.20 0.2766938
850.30 0.2766005
850.40 0.2765072
850.50 0.276414
850.60 0.2763208
850.70 0.2762276
850.80 0.2761345
850.90 0.2760414
851.00 0.2759484
851.10 0.2758554
851.20 0.2757624
851.30 0.2756694
851.40 0.2755765
851.50 0.2754837
851.60 0.2753908
851.70 0.275298
851.80 0.2752053
851.90 0.2751125
852.00 0.2750199
852.10 0.2749272
852.20 0.2748346
852.30 0.274742
852.40 0.2746495
852.50 0.2745569
852.60 0.2744645
852.70 0.274372
852.80 0.2742796
852.90 0.2741873
853.00 0.2740949
853.10 0.2740026
853.20 0.2739104
853.30 0.2738181
853.40 0.273726
853.50 0.2736338
853.60 0.2735417
853.70 0.2734485
853.80 0.2733542
853.90 0.27326
854.00 0.2731658
854.10 0.2730716
854.20 0.2729774
854.30 0.2728833
854.40 0.2727893
854.50 0.2726952
854.60 0.2726012
854.70 0.2725073
854.80 0.2724133
854.90 0.2723195
855.00 0.2722256
855.10 0.2721318
855.20 0.272038
855.30 0.2719443
855.40 0.2718506
855.50 0.2717569
855.60 0.2716633
855.70 0.2715697
855.80 0.2714761
855.90 0.2713826
856.00 0.2712891
856.10 0.2711956
856.20 0.2711022
856.30 0.2710088
856.40 0.2709155
856.50 0.2708222
856.60 0.2707289
856.70 0.2706357
856.80 0.2705425
856.90 0.2704493
857.00 0.2703562
857.10 0.2702631
857.20 0.2701701
857.30 0.270077
857.40 0.2699841
857.50 0.2698911
857.60 0.2697982
857.70 0.2697053
857.80 0.2696125
857.90 0.2695197
858.00 0.2694289
858.10 0.2693387
858.20 0.2692485
858.30 0.2691583
858.40 0.2690682
858.50 0.2689781
858.60 0.268888
858.70 0.268798
858.80 0.268708
858.90 0.268618
859.00 0.2685281
859.10 0.2684382
859.20 0.2683484
859.30 0.2682586
859.40 0.2681688
859.50 0.268079
859.60 0.2679893
859.70 0.2678996
859.80 0.26781
859.90 0.2677204
860.00 0.2676308
860.10 0.2675412
860.20 0.2674517
860.30 0.2673623
860.40 0.2672728
860.50 0.2671834
860.60 0.267094
860.70 0.2670047
860.80 0.2669154
860.90 0.2668261
861.00 0.2667369
861.10 0.2666477
861.20 0.2665585
861.30 0.2664694
861.40 0.2663803
861.50 0.2662912
861.60 0.2662022
861.70 0.2661132
861.80 0.2660242
861.90 0.2659353
862.00 0.2658464
862.10 0.2657576
862.20 0.2656688
862.30 0.2655803
862.40 0.2654918
862.50 0.2654033
862.60 0.2653149
862.70 0.2652265
862.80 0.2651382
862.90 0.2650498
863.00 0.2649616
863.10 0.2648733
863.20 0.2647851
863.30 0.2646969
863.40 0.2646088
863.50 0.2645207
863.60 0.2644326
863.70 0.2643445
863.80 0.2642565
863.90 0.2641685
864.00 0.2640806
864.10 0.2639927
864.20 0.2639048
864.30 0.263817
864.40 0.2637291
864.50 0.2636414
864.60 0.2635536
864.70 0.2634659
864.80 0.2633782
864.90 0.2632906
865.00 0.263203
865.10 0.2631154
865.20 0.2630279
865.30 0.2629403
865.40 0.2628529
865.50 0.2627654
865.60 0.262678
865.70 0.2625906
865.80 0.2625033
865.90 0.262416
866.00 0.2623287
866.10 0.2622415
866.20 0.2621543
866.30 0.2620671
866.40 0.2619799
866.50 0.2618928
866.60 0.2618058
866.70 0.2617187
866.80 0.2616317
866.90 0.2615447
867.00 0.2614578
867.10 0.2613709
867.20 0.261284
867.30 0.2611972
867.40 0.2611103
867.50 0.2610236
867.60 0.2609368
867.70 0.2608501
867.80 0.2607634
867.90 0.2606768
868.00 0.2605902
868.10 0.2605036
868.20 0.260417
868.30 0.2603305
868.40 0.260244
868.50 0.2601576
868.60 0.2600712
868.70 0.2599848
868.80 0.2598984
868.90 0.2598121
869.00 0.2597258
869.10 0.2596396
869.20 0.2595534
869.30 0.2594672
869.40 0.259381
869.50 0.2592949
869.60 0.2592088
869.70 0.2591228
869.80 0.2590368
869.90 0.2589508
870.00 0.2588648
870.10 0.2587789
870.20 0.258693
870.30 0.2586071
870.40 0.2585213
870.50 0.2584355
870.60 0.2583498
870.70 0.258264
870.80 0.2581783
870.90 0.2580908
871.00 0.258003
871.10 0.2579153
871.20 0.2578276
871.30 0.25774
871.40 0.2576524
871.50 0.2575648
871.60 0.2574773
871.70 0.2573898
871.80 0.2573023
871.90 0.2572148
872.00 0.2571274
872.10 0.2570401
872.20 0.2569527
872.30 0.2568654
872.40 0.2567781
872.50 0.2566909
872.60 0.2566037
872.70 0.2565165
872.80 0.2564294
872.90 0.2563423
873.00 0.2562552
873.10 0.2561681
873.20 0.2560811
873.30 0.2559941
873.40 0.2559072
873.50 0.2558203
873.60 0.2557334
873.70 0.2556466
873.80 0.2555598
873.90 0.255473
874.00 0.2553862
874.10 0.2552995
874.20 0.2552128
874.30 0.2551262
874.40 0.2550396
874.50 0.254953
874.60 0.2548665
874.70 0.2547799
874.80 0.2546935
874.90 0.254607
875.00 0.2545206
875.10 0.2544342
875.20 0.2543487
875.30 0.2542647
875.40 0.2541808
875.50 0.2540969
875.60 0.254013
875.70 0.2539292
875.80 0.2538454
875.90 0.2537616
876.00 0.2536779
876.10 0.2535941
876.20 0.2535105
876.30 0.2534268
876.40 0.2533432
876.50 0.2532596
876.60 0.253176
876.70 0.2530925
876.80 0.253009
876.90 0.2529256
877.00 0.2528421
877.10 0.2527587
877.20 0.2526754
877.30 0.252592
877.40 0.2525087
877.50 0.2524255
877.60 0.2523422
877.70 0.252259
877.80 0.2521758
877.90 0.2520927
878.00 0.2520096
878.10 0.2519265
878.20 0.2518434
878.30 0.2517604
878.40 0.2516774
878.50 0.2515945
878.60 0.2515115
878.70 0.2514286
878.80 0.2513458
878.90 0.2512629
879.00 0.2511801
879.10 0.2510974
879.20 0.2510146
879.30 0.2509319
879.40 0.2508492
879.50 0.2507666
879.60 0.2506823
879.70 0.2505976
879.80 0.250513
879.90 0.2504285
880.00 0.2503439
880.10 0.2502594
880.20 0.250175
880.30 0.2500905
880.40 0.2500061
880.50 0.2499217
880.60 0.2498374
880.70 0.2497531
880.80 0.2496688
880.90 0.2495845
881.00 0.2495003
881.10 0.2494161
881.20 0.249332
881.30 0.2492479
881.40 0.2491638
881.50 0.2490797
881.60 0.2489957
881.70 0.2489117
881.80 0.2488277
881.90 0.2487438
882.00 0.2486599
882.10 0.248576
882.20 0.2484922
882.30 0.2484084
882.40 0.2483246
882.50 0.2482409
882.60 0.2481572
882.70 0.2480735
882.80 0.2479898
882.90 0.2479062
883.00 0.2478226
883.10 0.2477391
883.20 0.2476556
883.30 0.2475721
883.40 0.2474886
883.50 0.2474052
883.60 0.2473218
883.70 0.2472384
883.80 0.2471551
883.90 0.2470718
884.00 0.2469904
884.10 0.2469095
884.20 0.2468285
884.30 0.2467476
884.40 0.2466667
884.50 0.2465859
884.60 0.2465051
884.70 0.2464243
884.80 0.2463436
884.90 0.2462628
885.00 0.2461821
885.10 0.2461015
885.20 0.2460208
885.30 0.2459402
885.40 0.2458597
885.50 0.2457791
885.60 0.2456986
885.70 0.2456181
885.80 0.2455377
885.90 0.2454573
886.00 0.2453769
886.10 0.2452965
886.20 0.2452162
886.30 0.2451359
886.40 0.2450556
886.50 0.2449754
886.60 0.2448952
886.70 0.244815
886.80 0.2447348
886.90 0.2446547
887.00 0.2445746
887.10 0.2444945
887.20 0.2444145
887.30 0.2443345
887.40 0.2442545
887.50 0.2441746
887.60 0.2440947
887.70 0.2440148
887.80 0.243935
887.90 0.2438551
888.00 0.2437753
888.10 0.2436956
888.20 0.2436158
888.30 0.2435361
888.40 0.2434557
888.50 0.2433752
888.60 0.2432947
888.70 0.2432143
888.80 0.2431338
888.90 0.2430534
889.00 0.2429731
889.10 0.2428927
889.20 0.2428124
889.30 0.2427322
889.40 0.2426519
889.50 0.2425717
889.60 0.2424915
889.70 0.2424114
889.80 0.2423312
889.90 0.2422512
890.00 0.2421711
890.10 0.2420911
890.20 0.2420111
890.30 0.2419311
890.40 0.2418511
890.50 0.2417712
890.60 0.2416913
890.70 0.2416115
890.80 0.2415317
890.90 0.2414519
891.00 0.2413721
891.10 0.2412924
891.20 0.2412126
891.30 0.241133
891.40 0.2410533
891.50 0.2409737
891.60 0.2408941
891.70 0.2408146
891.80 0.240735
891.90 0.2406555
892.00 0.2405761
892.10 0.2404966
892.20 0.2404172
892.30 0.2403378
892.40 0.2402585
892.50 0.2401792
892.60 0.2400999
892.70 0.2400206
892.80 0.2399414
892.90 0.2398622
893.00 0.239783
893.10 0.2397039
893.20 0.2396247
893.30 0.2395457
893.40 0.2394666
893.50 0.2393876
893.60 0.2393086
893.70 0.2392296
893.80 0.2391507
893.90 0.2390718
894.00 0.2389929
894.10 0.238914
894.20 0.2388352
894.30 0.2387564
894.40 0.2386776
894.50 0.2385989
894.60 0.2385202
894.70 0.2384415
894.80 0.2383629
894.90 0.2382843
895.00 0.2382057
895.10 0.2381271
895.20 0.2380486
895.30 0.2379701
895.40 0.2378916
895.50 0.2378132
895.60 0.2377348
895.70 0.2376564
895.80 0.237578
895.90 0.2374997
896.00 0.2374214
896.10 0.2373431
896.20 0.2372649
896.30 0.2371867
896.40 0.2371085
896.50 0.2370304
896.60 0.2369522
896.70 0.2368741
896.80 0.2367961
896.90 0.236718
897.00 0.23664
897.10 0.2365621
897.20 0.2364842
897.30 0.2364076
897.40 0.236331
897.50 0.2362545
897.60 0.236178
897.70 0.2361015
897.80 0.2360251
897.90 0.2359487
898.00 0.2358723
898.10 0.2357959
898.20 0.2357196
898.30 0.2356433
898.40 0.235567
898.50 0.2354908
898.60 0.2354145
898.70 0.2353383
898.80 0.2352622
898.90 0.2351861
899.00 0.2351099
899.10 0.2350339
899.20 0.2349578
899.30 0.2348818
899.40 0.2348058
899.50 0.2347298
899.60 0.2346539
899.70 0.234578
899.80 0.2345021
899.90 0.2344262
900.00 0.2343504
900.10 0.2342746
900.20 0.2341989
900.30 0.2341231
900.40 0.2340474
900.50 0.2339717
900.60 0.2338961
900.70 0.2338204
900.80 0.2337448
900.90 0.2336692
901.00 0.2335937
901.10 0.2335182
901.20 0.2334427
901.30 0.2333672
901.40 0.2332918
901.50 0.2332164
901.60 0.233141
901.70 0.2330652
901.80 0.2329878
901.90 0.2329103
902.00 0.2328329
902.10 0.2327555
902.20 0.2326782
902.30 0.2326008
902.40 0.2325235
902.50 0.2324462
902.60 0.232369
902.70 0.2322918
902.80 0.2322146
902.90 0.2321374
903.00 0.2320603
903.10 0.2319832
903.20 0.2319061
903.30 0.2318291
903.40 0.2317521
903.50 0.2316751
903.60 0.2315981
903.70 0.2315212
903.80 0.2314443
903.90 0.2313674
904.00 0.2312905
904.10 0.2312137
904.20 0.2311369
904.30 0.2310602
904.40 0.2309834
904.50 0.2309067
904.60 0.23083
904.70 0.2307534
904.80 0.2306768
904.90 0.2306002
905.00 0.2305236
905.10 0.2304471
905.20 0.2303706
905.30 0.2302941
905.40 0.2302176
905.50 0.2301412
905.60 0.2300648
905.70 0.2299884
905.80 0.2299121
905.90 0.2298358
906.00 0.2297595
906.10 0.2296832
906.20 0.2296071
906.30 0.2295312
906.40 0.2294552
906.50 0.2293793
906.60 0.2293035
906.70 0.2292277
906.80 0.2291518
906.90 0.2290761
907.00 0.2290003
907.10 0.2289246
907.20 0.2288489
907.30 0.2287732
907.40 0.2286976
907.50 0.228622
907.60 0.2285464
907.70 0.2284708
907.80 0.2283953
907.90 0.2283198
908.00 0.2282443
908.10 0.2281689
908.20 0.2280935
908.30 0.2280181
908.40 0.2279427
908.50 0.2278674
908.60 0.2277921
908.70 0.2277168
908.80 0.2276415
908.90 0.2275663
909.00 0.2274911
909.10 0.227416
909.20 0.2273408
909.30 0.2272657
909.40 0.2271906
909.50 0.2271155
909.60 0.2270405
909.70 0.2269655
909.80 0.2268905
909.90 0.2268156
910.00 0.2267407
910.10 0.2266658
910.20 0.2265909
910.30 0.2265161
910.40 0.2264413
910.50 0.2263665
910.60 0.2262917
910.70 0.226217
910.80 0.2261444
910.90 0.2260718
911.00 0.2259992
911.10 0.2259267
911.20 0.2258542
911.30 0.2257817
911.40 0.2257092
911.50 0.2256368
911.60 0.2255644
911.70 0.225492
911.80 0.2254197
911.90 0.2253473
912.00 0.225275
912.10 0.2252028
912.20 0.2251305
912.30 0.2250583
912.40 0.2249861
912.50 0.2249139
912.60 0.2248418
912.70 0.2247697
912.80 0.2246976
912.90 0.2246255
913.00 0.2245535
913.10 0.2244815
913.20 0.2244095
913.30 0.2243375
913.40 0.2242656
913.50 0.2241937
913.60 0.2241218
913.70 0.22405
913.80 0.2239781
913.90 0.2239063
914.00 0.2238345
914.10 0.2237628
914.20 0.2236911
914.30 0.2236194
914.40 0.2235477
914.50 0.2234761
914.60 0.2234044
914.70 0.2233328
914.80 0.2232613
914.90 0.2231897
915.00 0.2231182
915.10 0.2230467
915.20 0.2229753
915.30 0.2229025
915.40 0.2228293
915.50 0.2227561
915.60 0.2226829
915.70 0.2226098
915.80 0.2225366
915.90 0.2224635
916.00 0.2223905
916.10 0.2223174
916.20 0.2222444
916.30 0.2221714
916.40 0.2220984
916.50 0.2220255
916.60 0.2219526
916.70 0.2218797
916.80 0.2218068
916.90 0.221734
917.00 0.2216612
917.10 0.2215884
917.20 0.2215156
917.30 0.2214429
917.40 0.2213702
917.50 0.2212975
917.60 0.2212249
917.70 0.2211523
917.80 0.2210797
917.90 0.2210071
918.00 0.2209345
918.10 0.220862
918.20 0.2207895
918.30 0.2207171
918.40 0.2206446
918.50 0.2205722
918.60 0.2204998
918.70 0.2204275
918.80 0.2203551
918.90 0.2202828
919.00 0.2202106
919.10 0.2201383
919.20 0.2200661
919.30 0.2199939
919.40 0.2199217
919.50 0.2198495
919.60 0.2197774
919.70 0.2197053
919.80 0.2196332
919.90 0.2195631
920.00 0.2194931
920.10 0.2194231
920.20 0.2193532
920.30 0.2192833
920.40 0.2192134
920.50 0.2191435
920.60 0.2190737
920.70 0.2190038
920.80 0.218934
920.90 0.2188643
921.00 0.2187945
921.10 0.2187248
921.20 0.2186551
921.30 0.2185855
921.40 0.2185158
921.50 0.2184462
921.60 0.2183766
921.70 0.218307
921.80 0.2182375
921.90 0.218168
922.00 0.2180985
922.10 0.218029
922.20 0.2179596
922.30 0.2178901
922.40 0.2178208
922.50 0.2177514
922.60 0.217682
922.70 0.2176127
922.80 0.2175434
922.90 0.2174742
923.00 0.2174049
923.10 0.2173357
923.20 0.2172665
923.30 0.2171973
923.40 0.2171282
923.50 0.2170591
923.60 0.21699
923.70 0.2169209
923.80 0.2168519
923.90 0.2167829
924.00 0.2167139
924.10 0.2166449
924.20 0.2165759
924.30 0.216507
924.40 0.2164378
924.50 0.2163672
924.60 0.2162966
924.70 0.216226
924.80 0.2161554
924.90 0.2160849
925.00 0.2160144
925.10 0.2159439
925.20 0.2158734
925.30 0.215803
925.40 0.2157326
925.50 0.2156622
925.60 0.2155919
925.70 0.2155215
925.80 0.2154512
925.90 0.2153809
926.00 0.2153107
926.10 0.2152404
926.20 0.2151702
926.30 0.2151001
926.40 0.2150299
926.50 0.2149598
926.60 0.2148897
926.70 0.2148196
926.80 0.2147495
926.90 0.2146795
927.00 0.2146095
927.10 0.2145395
927.20 0.2144696
927.30 0.2143997
927.40 0.2143298
927.50 0.2142599
927.60 0.21419
927.70 0.2141202
927.80 0.2140504
927.90 0.2139806
928.00 0.2139109
928.10 0.2138412
928.20 0.2137715
928.30 0.2137018
928.40 0.2136321
928.50 0.2135625
928.60 0.2134929
928.70 0.2134233
928.80 0.2133538
928.90 0.2132842
929.00 0.2132147
929.10 0.2131472
929.20 0.2130797
929.30 0.2130122
929.40 0.2129448
929.50 0.2128774
929.60 0.21281
929.70 0.2127426
929.80 0.2126753
929.90 0.2126079
930.00 0.2125407
930.10 0.2124734
930.20 0.2124061
930.30 0.2123389
930.40 0.2122717
930.50 0.2122045
930.60 0.2121374
930.70 0.2120703
930.80 0.2120032
930.90 0.2119361
931.00 0.211869
931.10 0.211802
931.20 0.211735
931.30 0.211668
931.40 0.2116011
931.50 0.2115341
931.60 0.2114672
931.70 0.2114003
931.80 0.2113335
931.90 0.2112666
932.00 0.2111998
932.10 0.211133
932.20 0.2110662
932.30 0.2109995
932.40 0.2109328
932.50 0.2108661
932.60 0.2107994
932.70 0.2107328
932.80 0.2106661
932.90 0.2105995
933.00 0.210533
933.10 0.2104664
933.20 0.2103999
933.30 0.2103334
933.40 0.2102669
933.50 0.2102004
933.60 0.210134
933.70 0.2100663
933.80 0.2099982
933.90 0.2099301
934.00 0.2098621
934.10 0.209794
934.20 0.209726
934.30 0.2096581
934.40 0.2095901
934.50 0.2095222
934.60 0.2094543
934.70 0.2093864
934.80 0.2093185
934.90 0.2092507
935.00 0.2091829
935.10 0.2091151
935.20 0.2090473
935.30 0.2089796
935.40 0.2089119
935.50 0.2088442
935.60 0.2087765
935.70 0.2087089
935.80 0.2086412
935.90 0.2085736
936.00 0.2085061
936.10 0.2084385
936.20 0.208371
936.30 0.2083035
936.40 0.208236
936.50 0.2081686
936.60 0.2081012
936.70 0.2080338
936.80 0.2079664
936.90 0.207899
937.00 0.2078317
937.10 0.2077644
937.20 0.2076971
937.30 0.2076299
937.40 0.2075626
937.50 0.2074954
937.60 0.2074282
937.70 0.2073611
937.80 0.2072939
937.90 0.2072268
938.00 0.2071597
938.10 0.2070927
938.20 0.2070256
938.30 0.2069586
938.40 0.2068916
938.50 0.2068246
938.60 0.2067577
938.70 0.2066908
938.80 0.2066239
938.90 0.206557
939.00 0.2064901
939.10 0.2064233
939.20 0.2063565
939.30 0.2062897
939.40 0.206223
939.50 0.2061562
939.60 0.2060895
939.70 0.2060228
939.80 0.2059562
939.90 0.2058895
940.00 0.2058229
940.10 0.2057563
940.20 0.2056898
940.30 0.2056232
940.40 0.2055567
940.50 0.2054902
940.60 0.2054237
940.70 0.2053573
940.80 0.2052909
940.90 0.2052245
941.00 0.2051581
941.10 0.2050917
941.20 0.2050254
941.30 0.2049591
941.40 0.2048928
941.50 0.2048265
941.60 0.2047603
941.70 0.2046941
941.80 0.2046279
941.90 0.2045617
942.00 0.2044956
942.10 0.2044295
942.20 0.2043634
942.30 0.2042973
942.40 0.2042313
942.50 0.2041652
942.60 0.2040992
942.70 0.2040333
942.80 0.2039673
942.90 0.2039014
943.00 0.2038359
943.10 0.2037712
943.20 0.2037065
943.30 0.2036418
943.40 0.2035771
943.50 0.2035125
943.60 0.2034479
943.70 0.2033833
943.80 0.2033188
943.90 0.2032542
944.00 0.2031897
944.10 0.2031252
944.20 0.2030607
944.30 0.2029963
944.40 0.2029318
944.50 0.2028674
944.60 0.2028031
944.70 0.2027387
944.80 0.2026744
944.90 0.20261
945.00 0.2025458
945.10 0.2024815
945.20 0.2024172
945.30 0.202353
945.40 0.2022888
945.50 0.2022246
945.60 0.2021605
945.70 0.2020963
945.80 0.2020322
945.90 0.2019681
946.00 0.2019041
946.10 0.20184
946.20 0.201776
946.30 0.201712
946.40 0.201648
946.50 0.2015841
946.60 0.2015202
946.70 0.2014563
946.80 0.2013924
946.90 0.2013285
947.00 0.2012647
947.10 0.2012009
947.20 0.2011371
947.30 0.2010733
947.40 0.2010095
947.50 0.2009458
947.60 0.2008821
947.70 0.2008184
947.80 0.2007548
947.90 0.2006911
948.00 0.2006275
948.10 0.2005639
948.20 0.2005003
948.30 0.2004368
948.40 0.2003733
948.50 0.2003098
948.60 0.2002463
948.70 0.2001828
948.80 0.2001194
948.90 0.200056
949.00 0.1999926
949.10 0.1999292
949.20 0.1998659
949.30 0.1998025
949.40 0.1997392
949.50 0.1996759
949.60 0.1996127
949.70 0.1995495
949.80 0.1994862
949.90 0.199423
950.00 0.1993599
950.10 0.1992967
950.20 0.1992336
950.30 0.1991705
950.40 0.1991074
950.50 0.1990444
950.60 0.1989813
950.70 0.1989183
950.80 0.1988553
950.90 0.1987923
951.00 0.1987294
951.10 0.1986665
951.20 0.1986036
951.30 0.1985407
951.40 0.1984778
951.50 0.198415
951.60 0.1983522
951.70 0.1982894
951.80 0.1982266
951.90 0.1981638
952.00 0.1981011
952.10 0.1980384
952.20 0.1979757
952.30 0.1979131
952.40 0.1978504
952.50 0.197787
952.60 0.1977237
952.70 0.1976605
952.80 0.1975972
952.90 0.197534
953.00 0.1974708
953.10 0.1974076
953.20 0.1973444
953.30 0.1972813
953.40 0.1972182
953.50 0.1971551
953.60 0.197092
953.70 0.197029
953.80 0.1969659
953.90 0.1969029
954.00 0.1968399
954.10 0.196777
954.20 0.196714
954.30 0.1966511
954.40 0.1965882
954.50 0.1965253
954.60 0.1964625
954.70 0.1963997
954.80 0.1963368
954.90 0.1962741
955.00 0.1962113
955.10 0.1961485
955.20 0.1960858
955.30 0.1960231
955.40 0.1959604
955.50 0.1958978
955.60 0.1958352
955.70 0.1957725
955.80 0.19571
955.90 0.1956474
956.00 0.1955848
956.10 0.1955223
956.20 0.1954598
956.30 0.1953973
956.40 0.1953349
956.50 0.1952724
956.60 0.19521
956.70 0.1951476
956.80 0.1950853
956.90 0.1950229
957.00 0.1949606
957.10 0.1948983
957.20 0.1948368
957.30 0.1947764
957.40 0.1947159
957.50 0.1946555
957.60 0.1945951
957.70 0.1945347
957.80 0.1944743
957.90 0.194414
958.00 0.1943537
958.10 0.1942934
958.20 0.1942331
958.30 0.1941729
958.40 0.1941126
958.50 0.1940524
958.60 0.1939922
958.70 0.193932
958.80 0.1938719
958.90 0.1938118
959.00 0.1937516
959.10 0.1936916
959.20 0.1936315
959.30 0.1935714
959.40 0.1935114
959.50 0.1934514
959.60 0.1933914
959.70 0.1933315
959.80 0.1932715
959.90 0.1932116
960.00 0.1931517
960.10 0.1930918
960.20 0.193032
960.30 0.1929721
960.40 0.1929123
960.50 0.1928525
960.60 0.1927927
960.70 0.192733
960.80 0.1926732
960.90 0.1926135
961.00 0.1925538
961.10 0.1924941
961.20 0.1924345
961.30 0.1923749
961.40 0.1923152
961.50 0.1922557
961.60 0.1921961
961.70 0.1921365
961.80 0.192077
961.90 0.1920175
962.00 0.1919567
962.10 0.1918957
962.20 0.1918346
962.30 0.1917736
962.40 0.1917127
962.50 0.1916517
962.60 0.1915908
962.70 0.1915299
962.80 0.191469
962.90 0.1914081
963.00 0.1913473
963.10 0.1912865
963.20 0.1912257
963.30 0.1911649
963.40 0.1911041
963.50 0.1910434
963.60 0.1909827
963.70 0.190922
963.80 0.1908613
963.90 0.1908006
964.00 0.19074
964.10 0.1906794
964.20 0.1906188
964.30 0.1905582
964.40 0.1904977
964.50 0.1904372
964.60 0.1903766
964.70 0.1903162
964.80 0.1902557
964.90 0.1901952
965.00 0.1901348
965.10 0.1900744
965.20 0.190014
965.30 0.1899537
965.40 0.1898933
965.50 0.189833
965.60 0.1897727
965.70 0.1897124
965.80 0.1896522
965.90 0.189592
966.00 0.1895317
966.10 0.1894715
966.20 0.1894114
966.30 0.1893512
966.40 0.1892911
966.50 0.189231
966.60 0.1891709
966.70 0.1891108
966.80 0.1890508
966.90 0.1889908
967.00 0.1889307
967.10 0.1888708
967.20 0.1888108
967.30 0.1887509
967.40 0.1886909
967.50 0.188631
967.60 0.1885711
967.70 0.1885113
967.80 0.1884514
967.90 0.1883916
968.00 0.1883318
968.10 0.188272
968.20 0.1882123
968.30 0.1881526
968.40 0.1880928
968.50 0.1880331
968.60 0.1879735
968.70 0.1879138
968.80 0.1878542
968.90 0.1877946
969.00 0.187735
969.10 0.1876754
969.20 0.1876159
969.30 0.1875563
969.40 0.1874968
969.50 0.1874373
969.60 0.1873779
969.70 0.1873184
969.80 0.187259
969.90 0.1871996
970.00 0.1871402
970.10 0.1870808
970.20 0.1870215
970.30 0.1869621
970.40 0.1869028
970.50 0.1868436
970.60 0.1867843
970.70 0.1867251
970.80 0.1866658
970.90 0.1866066
971.00 0.1865474
971.10 0.1864883
971.20 0.1864291
971.30 0.18637
971.40 0.1863109
971.50 0.1862518
971.60 0.1861935
971.70 0.1861355
971.80 0.1860775
971.90 0.1860196
972.00 0.1859617
972.10 0.1859038
972.20 0.1858459
972.30 0.185788
972.40 0.1857302
972.50 0.1856724
972.60 0.1856146
972.70 0.1855568
972.80 0.185499
972.90 0.1854413
973.00 0.1853836
973.10 0.1853259
973.20 0.1852682
973.30 0.1852105
973.40 0.1851529
973.50 0.1850952
973.60 0.1850376
973.70 0.1849801
973.80 0.1849225
973.90 0.184865
974.00 0.1848074
974.10 0.1847499
974.20 0.1846924
974.30 0.184635
974.40 0.1845775
974.50 0.1845201
974.60 0.1844627
974.70 0.1844053
974.80 0.1843479
974.90 0.1842906
975.00 0.1842333
975.10 0.184176
975.20 0.1841187
975.30 0.1840614
975.40 0.1840042
975.50 0.1839469
975.60 0.1838897
975.70 0.1838325
975.80 0.1837754
975.90 0.1837182
976.00 0.1836611
976.10 0.183604
976.20 0.1835469
976.30 0.1834898
976.40 0.1834328
976.50 0.1833757
976.60 0.1833187
976.70 0.1832617
976.80 0.1832047
976.90 0.1831478
977.00 0.1830908
977.10 0.1830339
977.20 0.182977
977.30 0.1829202
977.40 0.1828633
977.50 0.1828065
977.60 0.1827496
977.70 0.1826928
977.80 0.1826361
977.90 0.1825793
978.00 0.1825226
978.10 0.1824658
978.20 0.1824091
978.30 0.1823524
978.40 0.1822958
978.50 0.1822391
978.60 0.1821825
978.70 0.1821259
978.80 0.1820693
978.90 0.1820128
979.00 0.1819562
979.10 0.1818997
979.20 0.1818432
979.30 0.1817867
979.40 0.1817302
979.50 0.1816738
979.60 0.1816173
979.70 0.1815609
979.80 0.1815045
979.90 0.1814481
980.00 0.1813918
980.10 0.1813354
980.20 0.1812791
980.30 0.1812228
980.40 0.1811666
980.50 0.1811103
980.60 0.1810541
980.70 0.1809978
980.80 0.1809416
980.90 0.1808855
981.00 0.1808293
981.10 0.1807731
981.20 0.180717
981.30 0.1806606
981.40 0.1806039
981.50 0.1805472
981.60 0.1804905
981.70 0.1804338
981.80 0.1803772
981.90 0.1803205
982.00 0.1802639
982.10 0.1802073
982.20 0.1801508
982.30 0.1800942
982.40 0.1800377
982.50 0.1799812
982.60 0.1799247
982.70 0.1798682
982.80 0.1798118
982.90 0.1797553
983.00 0.1796989
983.10 0.1796425
983.20 0.1795861
983.30 0.1795298
983.40 0.1794734
983.50 0.1794171
983.60 0.1793608
983.70 0.1793045
983.80 0.1792483
983.90 0.179192
984.00 0.1791358
984.10 0.1790796
984.20 0.1790234
984.30 0.1789673
984.40 0.1789111
984.50 0.178855
984.60 0.1787989
984.70 0.1787428
984.80 0.1786867
984.90 0.1786307
985.00 0.1785746
985.10 0.1785186
985.20 0.1784626
985.30 0.1784067
985.40 0.1783507
985.50 0.1782948
985.60 0.1782388
985.70 0.1781829
985.80 0.1781271
985.90 0.1780712
986.00 0.1780154
986.10 0.1779595
986.20 0.1779037
986.30 0.1778479
986.40 0.1777922
986.50 0.1777364
986.60 0.1776807
986.70 0.177625
986.80 0.1775693
986.90 0.1775136
987.00 0.177458
987.10 0.1774024
987.20 0.1773467
987.30 0.1772911
987.40 0.1772356
987.50 0.17718
987.60 0.1771245
987.70 0.1770689
987.80 0.1770134
987.90 0.176958
988.00 0.1769025
988.10 0.1768471
988.20 0.1767916
988.30 0.1767362
988.40 0.1766808
988.50 0.1766255
988.60 0.1765701
988.70 0.1765148
988.80 0.1764595
988.90 0.1764042
989.00 0.1763489
989.10 0.1762936
989.20 0.1762384
989.30 0.1761832
989.40 0.176128
989.50 0.1760728
989.60 0.1760176
989.70 0.1759625
989.80 0.1759074
989.90 0.1758523
990.00 0.1757972
990.10 0.1757421
990.20 0.175687
990.30 0.175632
990.40 0.175577
990.50 0.175522
990.60 0.175467
990.70 0.1754121
990.80 0.1753571
990.90 0.1753022
991.00 0.1752473
991.10 0.1751931
991.20 0.17514
991.30 0.175087
991.40 0.175034
991.50 0.1749809
991.60 0.174928
991.70 0.174875
991.80 0.174822
991.90 0.1747691
992.00 0.1747162
992.10 0.1746633
992.20 0.1746104
992.30 0.1745575
992.40 0.1745047
992.50 0.1744518
992.60 0.174399
992.70 0.1743462
992.80 0.1742934
992.90 0.1742407
993.00 0.1741879
993.10 0.1741352
993.20 0.1740825
993.30 0.1740298
993.40 0.1739771
993.50 0.1739245
993.60 0.1738718
993.70 0.1738192
993.80 0.1737666
993.90 0.173714
994.00 0.1736615
994.10 0.1736089
994.20 0.1735564
994.30 0.1735039
994.40 0.1734514
994.50 0.1733989
994.60 0.1733464
994.70 0.173294
994.80 0.1732416
994.90 0.1731892
995.00 0.1731368
995.10 0.1730844
995.20 0.173032
995.30 0.1729797
995.40 0.1729274
995.50 0.1728751
995.60 0.1728228
995.70 0.1727705
995.80 0.1727183
995.90 0.172666
996.00 0.1726138
996.10 0.1725603
996.20 0.1725065
996.30 0.1724528
996.40 0.1723991
996.50 0.1723453
996.60 0.1722916
996.70 0.172238
996.80 0.1721843
996.90 0.1721307
997.00 0.172077
997.10 0.1720234
997.20 0.1719698
997.30 0.1719163
997.40 0.1718627
997.50 0.1718092
997.60 0.1717557
997.70 0.1717022
997.80 0.1716487
997.90 0.1715952
998.00 0.1715418
998.10 0.1714883
998.20 0.1714349
998.30 0.1713815
998.40 0.1713282
998.50 0.1712748
998.60 0.1712215
998.70 0.1711681
998.80 0.1711148
998.90 0.1710616
999.00 0.1710083
999.10 0.170955
999.20 0.1709018
999.30 0.1708486
999.40 0.1707954
999.50 0.1707422
999.60 0.1706891
999.70 0.1706359
999.80 0.1705828
999.90 0.1705297
1000.00 0.1704766
1000.10 0.1704235
1000.20 0.1703705
1000.30 0.1703174
1000.40 0.1702644
1000.50 0.1702114
1000.60 0.1701584
1000.70 0.1701055
1000.80 0.1700525
1000.90 0.1699996
1001.00 0.1699467
1001.10 0.169894
1001.20 0.1698414
1001.30 0.1697887
1001.40 0.169736
1001.50 0.1696834
1001.60 0.1696308
1001.70 0.1695782
1001.80 0.1695256
1001.90 0.169473
1002.00 0.1694205
1002.10 0.1693679
1002.20 0.1693154
1002.30 0.1692629
1002.40 0.1692105
1002.50 0.169158
1002.60 0.1691056
1002.70 0.1690531
1002.80 0.1690007
1002.90 0.1689483
1003.00 0.168896
1003.10 0.1688436
1003.20 0.1687913
1003.30 0.1687389
1003.40 0.1686866
1003.50 0.1686344
1003.60 0.1685821
1003.70 0.1685298
1003.80 0.1684776
1003.90 0.1684254
1004.00 0.1683732
1004.10 0.168321
1004.20 0.1682689
1004.30 0.1682167
1004.40 0.1681646
1004.50 0.1681125
1004.60 0.1680604
1004.70 0.1680083
1004.80 0.1679562
1004.90 0.1679042
1005.00 0.1678522
1005.10 0.1678002
1005.20 0.1677482
1005.30 0.1676962
1005.40 0.1676443
1005.50 0.1675923
1005.60 0.1675404
1005.70 0.1674885
1005.80 0.1674366
1005.90 0.1673847
1006.00 0.1673332
1006.10 0.1672829
1006.20 0.1672327
1006.30 0.1671824
1006.40 0.1671322
1006.50 0.1670819
1006.60 0.1670317
1006.70 0.1669815
1006.80 0.1669314
1006.90 0.1668812
1007.00 0.1668311
1007.10 0.166781
1007.20 0.1667309
1007.30 0.1666808
1007.40 0.1666307
1007.50 0.1665806
1007.60 0.1665306
1007.70 0.1664806
1007.80 0.1664306
1007.90 0.1663806
1008.00 0.1663306
1008.10 0.1662807
1008.20 0.1662307
1008.30 0.1661808
1008.40 0.1661309
1008.50 0.166081
1008.60 0.1660311
1008.70 0.1659813
1008.80 0.1659314
1008.90 0.1658816
1009.00 0.1658318
1009.10 0.165782
1009.20 0.1657322
1009.30 0.1656825
1009.40 0.1656327
1009.50 0.165583
1009.60 0.1655333
1009.70 0.1654836
1009.80 0.1654339
1009.90 0.1653843
1010.00 0.1653346
1010.10 0.165285
1010.20 0.1652354
1010.30 0.1651858
1010.40 0.1651362
1010.50 0.1650867
1010.60 0.1650371
1010.70 0.1649876
1010.80 0.1649381
1010.90 0.1648886
1011.00 0.1648389
1011.10 0.1647881
1011.20 0.1647373
1011.30 0.1646865
1011.40 0.1646357
1011.50 0.164585
1011.60 0.1645343
1011.70 0.1644835
1011.80 0.1644329
1011.90 0.1643822
1012.00 0.1643315
1012.10 0.1642809
1012.20 0.1642303
1012.30 0.1641796
1012.40 0.1641291
1012.50 0.1640785
1012.60 0.1640279
1012.70 0.1639774
1012.80 0.1639269
1012.90 0.1638764
1013.00 0.1638259
1013.10 0.1637754
1013.20 0.1637249
1013.30 0.1636745
1013.40 0.1636241
1013.50 0.1635737
1013.60 0.1635233
1013.70 0.1634729
1013.80 0.1634225
1013.90 0.1633722
1014.00 0.1633219
1014.10 0.1632716
1014.20 0.1632213
1014.30 0.163171
1014.40 0.1631208
1014.50 0.1630705
1014.60 0.1630203
1014.70 0.1629701
1014.80 0.1629199
1014.90 0.1628697
1015.00 0.1628196
1015.10 0.1627694
1015.20 0.1627193
1015.30 0.1626692
1015.40 0.1626191
1015.50 0.162569
1015.60 0.162519
1015.70 0.1624689
1015.80 0.1624189
1015.90 0.1623689
1016.00 0.1623189
1016.10 0.1622689
1016.20 0.162219
1016.30 0.162169
1016.40 0.1621191
1016.50 0.1620692
1016.60 0.1620193
1016.70 0.1619694
1016.80 0.1619196
1016.90 0.1618697
1017.00 0.1618199
1017.10 0.1617701
1017.20 0.1617203
1017.30 0.1616705
1017.40 0.1616208
1017.50 0.161571
1017.60 0.1615213
1017.70 0.1614716
1017.80 0.1614219
1017.90 0.1613722
1018.00 0.1613225
1018.10 0.1612729
1018.20 0.1612233
1018.30 0.1611737
1018.40 0.1611241
1018.50 0.1610745
1018.60 0.1610249
1018.70 0.1609754
1018.80 0.1609258
1018.90 0.1608763
1019.00 0.1608268
1019.10 0.1607773
1019.20 0.1607279
1019.30 0.1606784
1019.40 0.160629
1019.50 0.1605796
1019.60 0.1605302
1019.70 0.1604808
1019.80 0.1604314
1019.90 0.1603821
1020.00 0.1603327
1020.10 0.1602834
1020.20 0.1602341
1020.30 0.1601848
1020.40 0.1601356
1020.50 0.1600863
1020.60 0.1600371
1020.70 0.1599878
1020.80 0.1599386
1020.90 0.1598895
1021.00 0.1598403
1021.10 0.1597911
1021.20 0.1597422
1021.30 0.1596932
1021.40 0.1596443
1021.50 0.1595954
1021.60 0.1595465
1021.70 0.1594976
1021.80 0.1594487
1021.90 0.1593999
1022.00 0.1593511
1022.10 0.1593022
1022.20 0.1592534
1022.30 0.1592046
1022.40 0.1591559
1022.50 0.1591071
1022.60 0.1590584
1022.70 0.1590097
1022.80 0.158961
1022.90 0.1589123
1023.00 0.1588636
1023.10 0.1588149
1023.20 0.1587663
1023.30 0.1587177
1023.40 0.1586691
1023.50 0.1586205
1023.60 0.1585719
1023.70 0.1585233
1023.80 0.1584748
1023.90 0.1584263
1024.00 0.1583777
1024.10 0.1583292
1024.20 0.1582808
1024.30 0.1582323
1024.40 0.1581838
1024.50 0.1581354
1024.60 0.158087
1024.70 0.1580386
1024.80 0.1579902
1024.90 0.1579418
1025.00 0.1578935
1025.10 0.1578451
1025.20 0.1577968
1025.30 0.1577485
1025.40 0.1577002
1025.50 0.1576519
1025.60 0.1576037
1025.70 0.1575554
1025.80 0.1575072
1025.90 0.157459
1026.00 0.1574108
1026.10 0.1573626
1026.20 0.1573145
1026.30 0.1572678
1026.40 0.1572211
1026.50 0.1571744
1026.60 0.1571278
1026.70 0.1570812
1026.80 0.1570345
1026.90 0.1569879
1027.00 0.1569413
1027.10 0.1568948
1027.20 0.1568482
1027.30 0.1568017
1027.40 0.1567551
1027.50 0.1567086
1027.60 0.1566621
1027.70 0.1566157
1027.80 0.1565692
1027.90 0.1565227
1028.00 0.1564763
1028.10 0.1564299
1028.20 0.1563835
1028.30 0.1563371
1028.40 0.1562907
1028.50 0.1562443
1028.60 0.156198
1028.70 0.1561517
1028.80 0.1561054
1028.90 0.1560591
1029.00 0.1560128
1029.10 0.1559665
1029.20 0.1559202
1029.30 0.155874
1029.40 0.1558278
1029.50 0.1557816
1029.60 0.1557354
1029.70 0.1556892
1029.80 0.155643
1029.90 0.1555969
1030.00 0.1555507
1030.10 0.1555046
1030.20 0.1554585
1030.30 0.1554124
1030.40 0.1553663
1030.50 0.1553203
1030.60 0.1552742
1030.70 0.1552282
1030.80 0.1551822
1030.90 0.1551362
1031.00 0.1550902
1031.10 0.1550442
1031.20 0.1549983
1031.30 0.1549523
1031.40 0.1549052
1031.50 0.154858
1031.60 0.1548108
1031.70 0.1547637
1031.80 0.1547166
1031.90 0.1546694
1032.00 0.1546223
1032.10 0.1545752
1032.20 0.1545282
1032.30 0.1544811
1032.40 0.1544341
1032.50 0.1543871
1032.60 0.15434
1032.70 0.154293
1032.80 0.1542461
1032.90 0.1541991
1033.00 0.1541521
1033.10 0.1541052
1033.20 0.1540583
1033.30 0.1540114
1033.40 0.1539645
1033.50 0.1539176
1033.60 0.1538708
1033.70 0.1538239
1033.80 0.1537771
1033.90 0.1537303
1034.00 0.1536835
1034.10 0.1536367
1034.20 0.1535899
1034.30 0.1535432
1034.40 0.1534964
1034.50 0.1534497
1034.60 0.153403
1034.70 0.1533563
1034.80 0.1533097
1034.90 0.153263
1035.00 0.1532163
1035.10 0.1531697
1035.20 0.1531231
1035.30 0.1530765
1035.40 0.1530299
1035.50 0.1529833
1035.60 0.1529368
1035.70 0.1528903
1035.80 0.1528437
1035.90 0.1527972
1036.00 0.1527507
1036.10 0.1527042
1036.20 0.1526578
1036.30 0.1526113
1036.40 0.1525649
1036.50 0.1525185
1036.60 0.1524721
1036.70 0.1524257
1036.80 0.1523793
1036.90 0.1523329
1037.00 0.1522866
1037.10 0.1522403
1037.20 0.1521939
1037.30 0.1521476
1037.40 0.1521014
1037.50 0.1520551
1037.60 0.1520088
1037.70 0.1519626
1037.80 0.1519164
1037.90 0.1518702
1038.00 0.151824
1038.10 0.1517778
1038.20 0.1517316
1038.30 0.1516855
1038.40 0.1516393
1038.50 0.1515932
1038.60 0.1515471
1038.70 0.151501
1038.80 0.1514549
1038.90 0.1514089
1039.00 0.1513628
1039.10 0.1513168
1039.20 0.1512708
1039.30 0.1512248
1039.40 0.1511788
1039.50 0.1511328
1039.60 0.1510868
1039.70 0.1510409
1039.80 0.150995
1039.90 0.1509491
1040.00 0.1509032
1040.10 0.1508573
1040.20 0.1508114
1040.30 0.1507656
1040.40 0.1507197
1040.50 0.1506739
1040.60 0.1506281
1040.70 0.1505823
1040.80 0.1505365
1040.90 0.1504907
1041.00 0.150445
1041.10 0.1503993
1041.20 0.1503535
1041.30 0.1503078
1041.40 0.1502621
1041.50 0.1502165
1041.60 0.1501708
1041.70 0.1501265
1041.80 0.1500824
1041.90 0.1500383
1042.00 0.1499943
1042.10 0.1499502
1042.20 0.1499062
1042.30 0.1498622
1042.40 0.1498182
1042.50 0.1497742
1042.60 0.1497303
1042.70 0.1496863
1042.80 0.1496424
1042.90 0.1495985
1043.00 0.1495546
1043.10 0.1495107
1043.20 0.1494668
1043.30 0.1494229
1043.40 0.1493791
1043.50 0.1493352
1043.60 0.1492914
1043.70 0.1492476
1043.80 0.1492038
1043.90 0.14916
1044.00 0.1491163
1044.10 0.1490725
1044.20 0.1490288
1044.30 0.148985
1044.40 0.1489413
1044.50 0.1488976
1044.60 0.148854
1044.70 0.1488103
1044.80 0.1487666
1044.90 0.148723
1045.00 0.1486794
1045.10 0.1486358
1045.20 0.1485922
1045.30 0.1485486
1045.40 0.148505
1045.50 0.1484614
1045.60 0.1484179
1045.70 0.1483744
1045.80 0.1483309
1045.90 0.1482874
1046.00 0.1482439
1046.10 0.1482004
1046.20 0.1481569
1046.30 0.1481135
1046.40 0.1480701
1046.50 0.1480266
1046.60 0.1479832
1046.70 0.1479398
1046.80 0.1478965
1046.90 0.1478521
1047.00 0.1478074
1047.10 0.1477626
1047.20 0.147718
1047.30 0.1476733
1047.40 0.1476286
1047.50 0.147584
1047.60 0.1475393
1047.70 0.1474947
1047.80 0.1474501
1047.90 0.1474055
1048.00 0.1473609
1048.10 0.1473164
1048.20 0.1472718
1048.30 0.1472273
1048.40 0.1471828
1048.50 0.1471383
1048.60 0.1470938
1048.70 0.1470493
1048.80 0.1470048
1048.90 0.1469604
1049.00 0.1469159
1049.10 0.1468715
1049.20 0.1468271
1049.30 0.1467827
1049.40 0.1467383
1049.50 0.146694
1049.60 0.1466496
1049.70 0.1466053
1049.80 0.146561
1049.90 0.1465167
1050.00 0.1464724
1050.10 0.1464281
1050.20 0.1463838
1050.30 0.1463396
1050.40 0.1462953
1050.50 0.1462511
1050.60 0.1462069
1050.70 0.1461627
1050.80 0.1461185
1050.90 0.1460744
1051.00 0.1460302
1051.10 0.1459861
1051.20 0.145942
1051.30 0.1458979
1051.40 0.1458538
1051.50 0.1458097
1051.60 0.1457656
1051.70 0.1457216
1051.80 0.1456775
1051.90 0.1456335
1052.00 0.1455895
1052.10 0.1455461
1052.20 0.1455029
1052.30 0.1454598
1052.40 0.1454167
1052.50 0.1453736
1052.60 0.1453305
1052.70 0.1452874
1052.80 0.1452443
1052.90 0.1452013
1053.00 0.1451583
1053.10 0.1451152
1053.20 0.1450722
1053.30 0.1450292
1053.40 0.1449863
1053.50 0.1449433
1053.60 0.1449003
1053.70 0.1448574
1053.80 0.1448145
1053.90 0.1447716
1054.00 0.1447287
1054.10 0.1446858
1054.20 0.1446429
1054.30 0.1446001
1054.40 0.1445572
1054.50 0.1445144
1054.60 0.1444716
1054.70 0.1444288
1054.80 0.144386
1054.90 0.1443432
1055.00 0.1443004
1055.10 0.1442577
1055.20 0.144215
1055.30 0.1441722
1055.40 0.1441295
1055.50 0.1440868
1055.60 0.1440442
1055.70 0.1440015
1055.80 0.1439588
1055.90 0.1439162
1056.00 0.1438736
1056.10 0.143831
1056.20 0.1437884
1056.30 0.1437458
1056.40 0.1437032
1056.50 0.1436606
1056.60 0.1436181
1056.70 0.1435756
1056.80 0.143533
1056.90 0.1434905
1057.00 0.1434481
1057.10 0.1434056
1057.20 0.1433631
1057.30 0.1433207
1057.40 0.1432782
1057.50 0.1432358
1057.60 0.1431934
1057.70 0.143151
1057.80 0.1431086
1057.90 0.1430663
1058.00 0.1430239
1058.10 0.1429816
1058.20 0.1429392
1058.30 0.1428969
1058.40 0.1428546
1058.50 0.1428123
1058.60 0.14277
1058.70 0.1427278
1058.80 0.1426855
1058.90 0.1426433
1059.00 0.1426011
1059.10 0.1425589
1059.20 0.1425167
1059.30 0.1424745
1059.40 0.1424323
1059.50 0.1423902
1059.60 0.142348
1059.70 0.1423059
1059.80 0.1422638
1059.90 0.1422217
1060.00 0.1421796
1060.10 0.1421375
1060.20 0.1420955
1060.30 0.1420534
1060.40 0.1420114
1060.50 0.1419694
1060.60 0.1419274
1060.70 0.1418854
1060.80 0.1418434
1060.90 0.1418014
1061.00 0.1417595
1061.10 0.1417175
1061.20 0.1416756
1061.30 0.1416337
1061.40 0.1415918
1061.50 0.1415499
1061.60 0.141508
1061.70 0.1414662
1061.80 0.1414243
1061.90 0.1413825
1062.00 0.1413407
1062.10 0.1412988
1062.20 0.1412571
1062.30 0.1412153
1062.40 0.1411735
1062.50 0.1411317
1062.60 0.1410898
1062.70 0.1410475
1062.80 0.1410053
1062.90 0.1409631
1063.00 0.1409209
1063.10 0.1408787
1063.20 0.1408366
1063.30 0.1407944
1063.40 0.1407523
1063.50 0.1407102
1063.60 0.1406681
1063.70 0.140626
1063.80 0.1405839
1063.90 0.1405418
1064.00 0.1404997
1064.10 0.1404577
1064.20 0.1404157
1064.30 0.1403736
1064.40 0.1403316
1064.50 0.1402896
1064.60 0.1402477
1064.70 0.1402057
1064.80 0.1401638
1064.90 0.1401218
1065.00 0.1400799
1065.10 0.140038
1065.20 0.1399961
1065.30 0.1399542
1065.40 0.1399123
1065.50 0.1398705
1065.60 0.1398286
1065.70 0.1397868
1065.80 0.139745
1065.90 0.1397032
1066.00 0.1396614
1066.10 0.1396196
1066.20 0.1395778
1066.30 0.1395361
1066.40 0.1394943
1066.50 0.1394526
1066.60 0.1394109
1066.70 0.1393692
1066.80 0.1393275
1066.90 0.1392858
1067.00 0.1392442
1067.10 0.1392025
1067.20 0.1391609
1067.30 0.1391193
1067.40 0.1390777
1067.50 0.1390361
1067.60 0.1389945
1067.70 0.1389529
1067.80 0.1389113
1067.90 0.1388702
1068.00 0.13883
1068.10 0.1387898
1068.20 0.1387496
1068.30 0.1387094
1068.40 0.1386692
1068.50 0.138629
1068.60 0.1385888
1068.70 0.1385487
1068.80 0.1385085
1068.90 0.1384684
1069.00 0.1384283
1069.10 0.1383882
1069.20 0.1383481
1069.30 0.138308
1069.40 0.138268
1069.50 0.1382279
1069.60 0.1381879
1069.70 0.1381479
1069.80 0.1381079
1069.90 0.1380679
1070.00 0.1380279
1070.10 0.1379879
1070.20 0.1379479
1070.30 0.137908
1070.40 0.1378681
1070.50 0.1378281
1070.60 0.1377882
1070.70 0.1377483
1070.80 0.1377084
1070.90 0.1376686
1071.00 0.1376287
1071.10 0.1375888
1071.20 0.137549
1071.30 0.1375092
1071.40 0.1374694
1071.50 0.1374296
1071.60 0.1373898
1071.70 0.13735
1071.80 0.1373103
1071.90 0.1372705
1072.00 0.1372308
1072.10 0.137191
1072.20 0.1371513
1072.30 0.1371116
1072.40 0.1370719
1072.50 0.1370323
1072.60 0.1369926
1072.70 0.136953
1072.80 0.1369133
1072.90 0.1368737
1073.00 0.1368341
1073.10 0.1367945
1073.20 0.1367547
1073.30 0.136714
1073.40 0.1366733
1073.50 0.1366326
1073.60 0.1365919
1073.70 0.1365513
1073.80 0.1365106
1073.90 0.13647
1074.00 0.1364294
1074.10 0.1363888
1074.20 0.1363482
1074.30 0.1363076
1074.40 0.1362671
1074.50 0.1362265
1074.60 0.136186
1074.70 0.1361455
1074.80 0.136105
1074.90 0.1360645
1075.00 0.136024
1075.10 0.1359835
1075.20 0.135943
1075.30 0.1359026
1075.40 0.1358622
1075.50 0.1358217
1075.60 0.1357813
1075.70 0.1357409
1075.80 0.1357005
1075.90 0.1356602
1076.00 0.1356198
1076.10 0.1355795
1076.20 0.1355391
1076.30 0.1354988
1076.40 0.1354585
1076.50 0.1354182
1076.60 0.1353779
1076.70 0.1353377
1076.80 0.1352974
1076.90 0.1352572
1077.00 0.1352169
1077.10 0.1351767
1077.20 0.1351365
1077.30 0.1350963
1077.40 0.1350561
1077.50 0.135016
1077.60 0.1349758
1077.70 0.1349357
1077.80 0.1348955
1077.90 0.1348554
1078.00 0.1348153
1078.10 0.1347752
1078.20 0.1347351
1078.30 0.1346951
1078.40 0.134655
1078.50 0.134615
1078.60 0.1345756
1078.70 0.1345369
1078.80 0.1344981
1078.90 0.1344594
1079.00 0.1344206
1079.10 0.1343819
1079.20 0.1343432
1079.30 0.1343045
1079.40 0.1342658
1079.50 0.1342272
1079.60 0.1341885
1079.70 0.1341499
1079.80 0.1341113
1079.90 0.1340726
1080.00 0.134034
1080.10 0.1339954
1080.20 0.1339569
1080.30 0.1339183
1080.40 0.1338797
1080.50 0.1338412
1080.60 0.1338026
1080.70 0.1337641
1080.80 0.1337256
1080.90 0.1336871
1081.00 0.1336486
1081.10 0.1336102
1081.20 0.1335717
1081.30 0.1335332
1081.40 0.1334948
1081.50 0.1334564
1081.60 0.133418
1081.70 0.1333796
1081.80 0.1333412
1081.90 0.1333028
1082.00 0.1332644
1082.10 0.1332261
1082.20 0.1331877
1082.30 0.1331494
1082.40 0.1331111
1082.50 0.1330728
1082.60 0.1330345
1082.70 0.1329962
1082.80 0.1329579
1082.90 0.1329196
1083.00 0.1328814
1083.10 0.1328432
1083.20 0.1328049
1083.30 0.1327667
1083.40 0.1327285
1083.50 0.1326903
1083.60 0.1326522
1083.70 0.132614
1083.80 0.1325758
1083.90 0.1325377
1084.00 0.1324986
1084.10 0.1324594
1084.20 0.1324202
1084.30 0.132381
1084.40 0.1323418
1084.50 0.1323026
1084.60 0.1322635
1084.70 0.1322244
1084.80 0.1321852
1084.90 0.1321461
1085.00 0.132107
1085.10 0.1320679
1085.20 0.1320288
1085.30 0.1319898
1085.40 0.1319507
1085.50 0.1319117
1085.60 0.1318726
1085.70 0.1318336
1085.80 0.1317946
1085.90 0.1317556
1086.00 0.1317166
1086.10 0.1316777
1086.20 0.1316387
1086.30 0.1315998
1086.40 0.1315608
1086.50 0.1315219
1086.60 0.131483
1086.70 0.1314441
1086.80 0.1314052
1086.90 0.1313664
1087.00 0.1313275
1087.10 0.1312886
1087.20 0.1312498
1087.30 0.131211
1087.40 0.1311722
1087.50 0.1311334
1087.60 0.1310946
1087.70 0.1310558
1087.80 0.131017
1087.90 0.1309783
1088.00 0.1309396
1088.10 0.1309008
1088.20 0.1308621
1088.30 0.1308234
1088.40 0.1307847
1088.50 0.130746
1088.60 0.1307074
1088.70 0.1306687
1088.80 0.1306301
1088.90 0.1305914
1089.00 0.1305528
1089.10 0.1305142
1089.20 0.1304756
1089.30 0.130437
1089.40 0.1303993
1089.50 0.130362
1089.60 0.1303246
1089.70 0.1302873
1089.80 0.13025
1089.90 0.1302127
1090.00 0.1301754
1090.10 0.1301381
1090.20 0.1301009
1090.30 0.1300636
1090.40 0.1300264
1090.50 0.1299891
1090.60 0.1299519
1090.70 0.1299147
1090.80 0.1298775
1090.90 0.1298403
1091.00 0.1298032
1091.10 0.129766
1091.20 0.1297289
1091.30 0.1296917
1091.40 0.1296546
1091.50 0.1296175
1091.60 0.1295804
1091.70 0.1295433
1091.80 0.1295062
1091.90 0.1294691
1092.00 0.1294321
1092.10 0.129395
1092.20 0.129358
1092.30 0.129321
1092.40 0.129284
1092.50 0.129247
1092.60 0.12921
1092.70 0.129173
1092.80 0.129136
1092.90 0.1290991
1093.00 0.1290621
1093.10 0.1290252
1093.20 0.1289883
1093.30 0.1289514
1093.40 0.1289145
1093.50 0.1288776
1093.60 0.1288407
1093.70 0.1288038
1093.80 0.128767
1093.90 0.1287302
1094.00 0.1286933
1094.10 0.1286565
1094.20 0.1286197
1094.30 0.1285829
1094.40 0.1285461
1094.50 0.1285093
1094.60 0.1284726
1094.70 0.1284358
1094.80 0.1283989
1094.90 0.1283617
1095.00 0.1283245
1095.10 0.1282873
1095.20 0.1282502
1095.30 0.128213
1095.40 0.1281759
1095.50 0.1281387
1095.60 0.1281016
1095.70 0.1280645
1095.80 0.1280274
1095.90 0.1279904
1096.00 0.1279533
1096.10 0.1279162
1096.20 0.1278792
1096.30 0.1278422
1096.40 0.1278051
1096.50 0.1277681
1096.60 0.1277311
1096.70 0.1276941
1096.80 0.1276572
1096.90 0.1276202
1097.00 0.1275833
1097.10 0.1275463
1097.20 0.1275094
1097.30 0.1274725
1097.40 0.1274356
1097.50 0.1273987
1097.60 0.1273618
1097.70 0.1273249
1097.80 0.127288
1097.90 0.1272512
1098.00 0.1272143
1098.10 0.1271775
1098.20 0.1271407
1098.30 0.1271039
1098.40 0.1270671
1098.50 0.1270303
1098.60 0.1269935
1098.70 0.1269568
1098.80 0.12692
1098.90 0.1268833
1099.00 0.1268466
1099.10 0.1268098
1099.20 0.1267731
1099.30 0.1267365
1099.40 0.1266998
1099.50 0.1266631
1099.60 0.1266264
1099.70 0.1265898
1099.80 0.1265532
1099.90 0.1265165
1100.00 0.1264799
1100.10 0.1264433
1100.20 0.1264067
1100.30 0.1263701
1100.40 0.1263336
1100.50 0.126297
1100.60 0.1262605
1100.70 0.1262239
1100.80 0.1261874
1100.90 0.1261509
1101.00 0.1261144
1101.10 0.1260779
1101.20 0.1260414
1101.30 0.1260049
1101.40 0.1259685
1101.50 0.125932
1101.60 0.1258956
1101.70 0.1258592
1101.80 0.1258228
1101.90 0.1257864
1102.00 0.12575
1102.10 0.1257136
1102.20 0.1256772
1102.30 0.1256409
1102.40 0.1256045
1102.50 0.1255682
1102.60 0.1255319
1102.70 0.1254955
1102.80 0.1254592
1102.90 0.125423
1103.00 0.1253867
1103.10 0.1253504
1103.20 0.1253141
1103.30 0.1252779
1103.40 0.1252417
1103.50 0.1252054
1103.60 0.1251692
1103.70 0.125133
1103.80 0.1250968
1103.90 0.1250607
1104.00 0.1250245
1104.10 0.1249883
1104.20 0.1249522
1104.30 0.124916
1104.40 0.1248799
1104.50 0.1248438
1104.60 0.1248077
1104.70 0.1247716
1104.80 0.1247355
1104.90 0.1246995
1105.00 0.1246634
1105.10 0.1246274
1105.20 0.1245913
1105.30 0.1245553
1105.40 0.1245193
1105.50 0.1244833
1105.60 0.1244473
1105.70 0.1244113
1105.80 0.1243755
1105.90 0.1243396
1106.00 0.1243038
1106.10 0.124268
1106.20 0.1242322
1106.30 0.1241964
1106.40 0.1241607
1106.50 0.1241249
1106.60 0.1240892
1106.70 0.1240534
1106.80 0.1240177
1106.90 0.123982
1107.00 0.1239463
1107.10 0.1239106
1107.20 0.1238749
1107.30 0.1238392
1107.40 0.1238035
1107.50 0.1237679
1107.60 0.1237322
1107.70 0.1236966
1107.80 0.123661
1107.90 0.1236254
1108.00 0.1235898
1108.10 0.1235542
1108.20 0.1235186
1108.30 0.1234831
1108.40 0.1234475
1108.50 0.123412
1108.60 0.1233764
1108.70 0.1233409
1108.80 0.1233054
1108.90 0.1232699
1109.00 0.1232344
1109.10 0.1231989
1109.20 0.1231634
1109.30 0.123128
1109.40 0.1230925
1109.50 0.1230571
1109.60 0.1230217
1109.70 0.1229863
1109.80 0.1229509
1109.90 0.1229155
1110.00 0.1228801
1110.10 0.1228447
1110.20 0.1228094
1110.30 0.122774
1110.40 0.1227387
1110.50 0.1227033
1110.60 0.122668
1110.70 0.1226327
1110.80 0.1225974
1110.90 0.1225621
1111.00 0.1225269
1111.10 0.1224916
1111.20 0.1224563
1111.30 0.1224211
1111.40 0.1223859
1111.50 0.1223506
1111.60 0.1223154
1111.70 0.1222802
1111.80 0.122245
1111.90 0.1222099
1112.00 0.1221747
1112.10 0.1221395
1112.20 0.1221044
1112.30 0.1220692
1112.40 0.1220341
1112.50 0.121999
1112.60 0.1219639
1112.70 0.1219288
1112.80 0.1218937
1112.90 0.1218587
1113.00 0.1218236
1113.10 0.1217885
1113.20 0.1217535
1113.30 0.1217185
1113.40 0.1216835
1113.50 0.1216484
1113.60 0.1216134
1113.70 0.1215785
1113.80 0.1215435
1113.90 0.1215085
1114.00 0.1214736
1114.10 0.1214386
1114.20 0.1214037
1114.30 0.1213688
1114.40 0.1213338
1114.50 0.1212989
1114.60 0.121264
1114.70 0.1212292
1114.80 0.1211943
1114.90 0.1211594
1115.00 0.1211246
1115.10 0.1210897
1115.20 0.1210549
1115.30 0.1210201
1115.40 0.1209853
1115.50 0.1209505
1115.60 0.1209157
1115.70 0.1208809
1115.80 0.1208462
1115.90 0.1208114
1116.00 0.1207767
1116.10 0.1207419
1116.20 0.1207072
1116.30 0.1206725
1116.40 0.1206378
1116.50 0.1206031
1116.60 0.1205684
1116.70 0.1205337
1116.80 0.1204989
1116.90 0.1204638
1117.00 0.1204287
1117.10 0.1203937
1117.20 0.1203586
1117.30 0.1203236
1117.40 0.1202886
1117.50 0.1202535
1117.60 0.1202185
1117.70 0.1201835
1117.80 0.1201485
1117.90 0.1201136
1118.00 0.1200786
1118.10 0.1200436
1118.20 0.1200087
1118.30 0.1199738
1118.40 0.1199388
1118.50 0.1199039
1118.60 0.119869
1118.70 0.1198341
1118.80 0.1197992
1118.90 0.1197644
1119.00 0.1197295
1119.10 0.1196947
1119.20 0.1196598
1119.30 0.119625
1119.40 0.1195902
1119.50 0.1195554
1119.60 0.1195206
1119.70 0.1194858
1119.80 0.119451
1119.90 0.1194162
1120.00 0.1193815
1120.10 0.1193467
1120.20 0.119312
1120.30 0.1192773
1120.40 0.1192426
1120.50 0.1192079
1120.60 0.1191732
1120.70 0.1191385
1120.80 0.1191038
1120.90 0.1190692
1121.00 0.1190345
1121.10 0.1189999
1121.20 0.1189652
1121.30 0.1189306
1121.40 0.118896
1121.50 0.1188614
1121.60 0.1188268
1121.70 0.1187923
1121.80 0.1187577
1121.90 0.1187231
1122.00 0.1186886
1122.10 0.1186541
1122.20 0.1186195
1122.30 0.118585
1122.40 0.1185512
1122.50 0.1185178
1122.60 0.1184844
1122.70 0.1184511
1122.80 0.1184177
1122.90 0.1183844
1123.00 0.1183511
1123.10 0.1183177
1123.20 0.1182844
1123.30 0.1182511
1123.40 0.1182178
1123.50 0.1181845
1123.60 0.1181513
1123.70 0.118118
1123.80 0.1180848
1123.90 0.1180515
1124.00 0.1180183
1124.10 0.1179851
1124.20 0.1179519
1124.30 0.1179186
1124.40 0.1178855
1124.50 0.1178523
1124.60 0.1178191
1124.70 0.1177859
1124.80 0.1177528
1124.90 0.1177196
1125.00 0.1176865
1125.10 0.1176534
1125.20 0.1176203
1125.30 0.1175872
1125.40 0.1175541
1125.50 0.117521
1125.60 0.1174879
1125.70 0.1174549
1125.80 0.1174218
1125.90 0.1173888
1126.00 0.1173557
1126.10 0.1173227
1126.20 0.1172897
1126.30 0.1172567
1126.40 0.1172237
1126.50 0.1171907
1126.60 0.1171577
1126.70 0.1171248
1126.80 0.1170918
1126.90 0.1170589
1127.00 0.1170259
1127.10 0.116993
1127.20 0.1169601
1127.30 0.1169272
1127.40 0.1168943
1127.50 0.1168614
1127.60 0.1168285
1127.70 0.1167957
1127.80 0.1167628
1127.90 0.11673
1128.00 0.1166968
1128.10 0.1166636
1128.20 0.1166303
1128.30 0.1165971
1128.40 0.1165639
1128.50 0.1165307
1128.60 0.1164975
1128.70 0.1164643
1128.80 0.1164311
1128.90 0.1163979
1129.00 0.1163648
1129.10 0.1163316
1129.20 0.1162985
1129.30 0.1162653
1129.40 0.1162322
1129.50 0.1161991
1129.60 0.116166
1129.70 0.1161329
1129.80 0.1160998
1129.90 0.1160668
1130.00 0.1160337
1130.10 0.1160006
1130.20 0.1159676
1130.30 0.1159346
1130.40 0.1159015
1130.50 0.1158685
1130.60 0.1158355
1130.70 0.1158025
1130.80 0.1157696
1130.90 0.1157366
1131.00 0.1157036
1131.10 0.1156707
1131.20 0.1156377
1131.30 0.1156048
1131.40 0.1155719
1131.50 0.1155389
1131.60 0.115506
1131.70 0.1154732
1131.80 0.1154403
1131.90 0.1154074
1132.00 0.1153745
1132.10 0.1153417
1132.20 0.1153088
1132.30 0.115276
1132.40 0.1152432
1132.50 0.1152104
1132.60 0.1151775
1132.70 0.1151447
1132.80 0.115112
1132.90 0.1150792
1133.00 0.1150464
1133.10 0.1150137
1133.20 0.1149809
1133.30 0.1149482
1133.40 0.1149155
1133.50 0.1148827
1133.60 0.11485
1133.70 0.1148173
1133.80 0.1147846
1133.90 0.114752
1134.00 0.1147193
1134.10 0.1146866
1134.20 0.114654
1134.30 0.1146213
1134.40 0.1145887
1134.50 0.1145561
1134.60 0.1145235
1134.70 0.1144909
1134.80 0.1144583
1134.90 0.1144257
1135.00 0.1143931
1135.10 0.1143606
1135.20 0.114328
1135.30 0.1142955
1135.40 0.1142629
1135.50 0.1142304
1135.60 0.1141979
1135.70 0.1141654
1135.80 0.1141329
1135.90 0.1141004
1136.00 0.1140679
1136.10 0.1140355
1136.20 0.114003
1136.30 0.1139706
1136.40 0.1139381
1136.50 0.1139057
1136.60 0.1138733
1136.70 0.1138409
1136.80 0.1138085
1136.90 0.1137761
1137.00 0.1137437
1137.10 0.1137114
1137.20 0.113679
1137.30 0.1136466
1137.40 0.1136143
1137.50 0.113582
1137.60 0.1135497
1137.70 0.1135173
1137.80 0.113485
1137.90 0.1134528
1138.00 0.1134205
1138.10 0.1133882
1138.20 0.1133559
1138.30 0.1133237
1138.40 0.1132914
1138.50 0.1132592
1138.60 0.113227
1138.70 0.1131948
1138.80 0.1131626
1138.90 0.1131304
1139.00 0.1130982
1139.10 0.113066
1139.20 0.1130338
1139.30 0.1130023
1139.40 0.1129708
1139.50 0.1129393
1139.60 0.1129078
1139.70 0.1128764
1139.80 0.1128449
1139.90 0.1128135
1140.00 0.112782
1140.10 0.1127506
1140.20 0.1127192
1140.30 0.1126878
1140.40 0.1126564
1140.50 0.112625
1140.60 0.1125936
1140.70 0.1125622
1140.80 0.1125308
1140.90 0.1124995
1141.00 0.1124681
1141.10 0.1124368
1141.20 0.1124054
1141.30 0.1123741
1141.40 0.1123428
1141.50 0.1123115
1141.60 0.1122802
1141.70 0.1122489
1141.80 0.1122177
1141.90 0.1121864
1142.00 0.1121551
1142.10 0.1121239
1142.20 0.1120927
1142.30 0.1120614
1142.40 0.1120302
1142.50 0.111999
1142.60 0.1119678
1142.70 0.1119366
1142.80 0.1119054
1142.90 0.1118742
1143.00 0.1118431
1143.10 0.1118119
1143.20 0.1117808
1143.30 0.1117496
1143.40 0.1117185
1143.50 0.1116874
1143.60 0.1116563
1143.70 0.1116252
1143.80 0.1115941
1143.90 0.111563
1144.00 0.1115319
1144.10 0.1115009
1144.20 0.1114698
1144.30 0.1114388
1144.40 0.1114077
1144.50 0.1113767
1144.60 0.1113457
1144.70 0.1113147
1144.80 0.1112837
1144.90 0.1112527
1145.00 0.1112217
1145.10 0.1111908
1145.20 0.1111598
1145.30 0.1111288
1145.40 0.1110979
1145.50 0.111067
1145.60 0.111036
1145.70 0.1110051
1145.80 0.1109742
1145.90 0.1109433
1146.00 0.1109124
1146.10 0.1108815
1146.20 0.1108507
1146.30 0.1108198
1146.40 0.1107889
1146.50 0.1107581
1146.60 0.1107273
1146.70 0.1106964
1146.80 0.1106656
1146.90 0.1106348
1147.00 0.110604
1147.10 0.1105732
1147.20 0.1105424
1147.30 0.1105117
1147.40 0.1104809
1147.50 0.1104502
1147.60 0.1104194
1147.70 0.1103887
1147.80 0.110358
1147.90 0.1103272
1148.00 0.1102965
1148.10 0.1102658
1148.20 0.1102351
1148.30 0.1102045
1148.40 0.1101738
1148.50 0.1101431
1148.60 0.1101125
1148.70 0.1100818
1148.80 0.1100512
1148.90 0.1100206
1149.00 0.1099899
1149.10 0.1099593
1149.20 0.1099287
1149.30 0.1098981
1149.40 0.1098676
1149.50 0.109837
1149.60 0.1098064
1149.70 0.1097759
1149.80 0.1097453
1149.90 0.1097148
1150.00 0.1096842
1150.10 0.1096537
1150.20 0.1096232
1150.30 0.1095927
1150.40 0.1095622
1150.50 0.1095317
1150.60 0.1095012
1150.70 0.1094698
1150.80 0.1094384
1150.90 0.1094071
1151.00 0.1093757
1151.10 0.1093444
1151.20 0.109313
1151.30 0.1092817
1151.40 0.1092504
1151.50 0.1092191
1151.60 0.1091878
1151.70 0.1091565
1151.80 0.1091252
1151.90 0.1090939
1152.00 0.1090627
1152.10 0.1090314
1152.20 0.1090002
1152.30 0.1089689
1152.40 0.1089377
1152.50 0.1089065
1152.60 0.1088753
1152.70 0.1088441
1152.80 0.1088129
1152.90 0.1087817
1153.00 0.1087505
1153.10 0.1087194
1153.20 0.1086882
1153.30 0.1086571
1153.40 0.1086259
1153.50 0.1085948
1153.60 0.1085637
1153.70 0.1085326
1153.80 0.1085015
1153.90 0.1084704
1154.00 0.1084393
1154.10 0.1084082
1154.20 0.1083772
1154.30 0.1083461
1154.40 0.1083151
1154.50 0.108284
1154.60 0.108253
1154.70 0.108222
1154.80 0.108191
1154.90 0.10816
1155.00 0.108129
1155.10 0.108098
1155.20 0.1080671
1155.30 0.1080361
1155.40 0.1080051
1155.50 0.1079742
1155.60 0.1079433
1155.70 0.1079123
1155.80 0.1078814
1155.90 0.1078505
1156.00 0.1078196
1156.10 0.1077887
1156.20 0.1077578
1156.30 0.107727
1156.40 0.1076967
1156.50 0.1076668
1156.60 0.107637
1156.70 0.1076072
1156.80 0.1075774
1156.90 0.1075476
1157.00 0.1075178
1157.10 0.107488
1157.20 0.1074583
1157.30 0.1074285
1157.40 0.1073988
1157.50 0.107369
1157.60 0.1073393
1157.70 0.1073095
1157.80 0.1072798
1157.90 0.1072501
1158.00 0.1072204
1158.10 0.1071907
1158.20 0.107161
1158.30 0.1071314
1158.40 0.1071017
1158.50 0.1070721
1158.60 0.1070424
1158.70 0.1070128
1158.80 0.1069831
1158.90 0.1069535
1159.00 0.1069239
1159.10 0.1068943
1159.20 0.1068647
1159.30 0.1068351
1159.40 0.1068055
1159.50 0.106776
1159.60 0.1067464
1159.70 0.1067168
1159.80 0.1066873
1159.90 0.1066578
1160.00 0.1066282
1160.10 0.1065987
1160.20 0.1065692
1160.30 0.1065397
1160.40 0.1065102
1160.50 0.1064807
1160.60 0.1064513
1160.70 0.1064218
1160.80 0.1063923
1160.90 0.1063629
1161.00 0.1063334
1161.10 0.106304
1161.20 0.1062746
1161.30 0.1062452
1161.40 0.1062158
1161.50 0.1061864
1161.60 0.106157
1161.70 0.1061276
1161.80 0.1060982
1161.90 0.1060688
1162.00 0.1060395
1162.10 0.1060101
1162.20 0.1059809
1162.30 0.1059517
1162.40 0.1059225
1162.50 0.1058933
1162.60 0.1058641
1162.70 0.1058349
1162.80 0.1058057
1162.90 0.1057765
1163.00 0.1057474
1163.10 0.1057182
1163.20 0.1056891
1163.30 0.1056599
1163.40 0.1056308
1163.50 0.1056017
1163.60 0.1055726
1163.70 0.1055435
1163.80 0.1055144
1163.90 0.1054853
1164.00 0.1054562
1164.10 0.1054271
1164.20 0.1053981
1164.30 0.105369
1164.40 0.10534
1164.50 0.1053109
1164.60 0.1052819
1164.70 0.1052529
1164.80 0.1052239
1164.90 0.1051948
1165.00 0.1051659
1165.10 0.1051369
1165.20 0.1051079
1165.30 0.1050789
1165.40 0.10505
1165.50 0.105021
1165.60 0.1049921
1165.70 0.1049631
1165.80 0.1049342
1165.90 0.1049053
1166.00 0.1048764
1166.10 0.1048475
1166.20 0.1048186
1166.30 0.1047897
1166.40 0.1047608
1166.50 0.1047319
1166.60 0.1047031
1166.70 0.1046742
1166.80 0.1046454
1166.90 0.1046165
1167.00 0.1045877
1167.10 0.1045589
1167.20 0.1045301
1167.30 0.1045013
1167.40 0.1044725
1167.50 0.1044437
1167.60 0.1044149
1167.70 0.1043861
1167.80 0.1043574
1167.90 0.1043286
1168.00 0.1042999
1168.10 0.1042712
1168.20 0.1042424
1168.30 0.1042137
1168.40 0.104185
1168.50 0.1041563
1168.60 0.1041276
1168.70 0.1040989
1168.80 0.1040702
1168.90 0.1040416
1169.00 0.1040129
1169.10 0.1039843
1169.20 0.1039556
1169.30 0.103927
1169.40 0.1038984
1169.50 0.1038697
1169.60 0.1038411
1169.70 0.1038125
1169.80 0.1037839
1169.90 0.1037554
1170.00 0.1037268
1170.10 0.1036982
1170.20 0.1036696
1170.30 0.1036411
1170.40 0.1036125
1170.50 0.103584
1170.60 0.1035555
1170.70 0.103527
1170.80 0.1034985
1170.90 0.10347
1171.00 0.1034415
1171.10 0.103413
1171.20 0.1033845
1171.30 0.103356
1171.40 0.1033276
1171.50 0.1032991
1171.60 0.1032707
1171.70 0.1032422
1171.80 0.1032138
1171.90 0.1031854
1172.00 0.103157
1172.10 0.1031286
1172.20 0.1031002
1172.30 0.1030718
1172.40 0.1030434
1172.50 0.103015
1172.60 0.1029867
1172.70 0.1029583
1172.80 0.10293
1172.90 0.1029016
1173.00 0.1028733
1173.10 0.102845
1173.20 0.1028166
1173.30 0.1027883
1173.40 0.10276
1173.50 0.1027318
1173.60 0.1027035
1173.70 0.1026752
1173.80 0.1026462
1173.90 0.1026171
1174.00 0.102588
1174.10 0.1025589
1174.20 0.1025298
1174.30 0.1025007
1174.40 0.1024716
1174.50 0.1024426
1174.60 0.1024135
1174.70 0.1023845
1174.80 0.1023554
1174.90 0.1023264
1175.00 0.1022973
1175.10 0.1022683
1175.20 0.1022393
1175.30 0.1022103
1175.40 0.1021813
1175.50 0.1021523
1175.60 0.1021233
1175.70 0.1020944
1175.80 0.1020654
1175.90 0.1020364
1176.00 0.1020075
1176.10 0.1019786
1176.20 0.1019496
1176.30 0.1019207
1176.40 0.1018918
1176.50 0.1018629
1176.60 0.101834
1176.70 0.1018051
1176.80 0.1017762
1176.90 0.1017474
1177.00 0.1017185
1177.10 0.1016897
1177.20 0.1016608
1177.30 0.101632
1177.40 0.1016031
1177.50 0.1015743
1177.60 0.1015455
1177.70 0.1015167
1177.80 0.1014879
1177.90 0.1014591
1178.00 0.1014303
1178.10 0.1014016
1178.20 0.1013728
1178.30 0.1013441
1178.40 0.1013153
1178.50 0.1012866
1178.60 0.1012578
1178.70 0.1012291
1178.80 0.1012004
1178.90 0.1011717
1179.00 0.101143
1179.10 0.1011143
1179.20 0.1010856
1179.30 0.101057
1179.40 0.1010283
1179.50 0.1009997
1179.60 0.1009711
1179.70 0.1009434
1179.80 0.1009158
1179.90 0.1008881
1180.00 0.1008605
1180.10 0.1008328
1180.20 0.1008052
1180.30 0.1007775
1180.40 0.1007499
1180.50 0.1007223
1180.60 0.1006947
1180.70 0.1006671
1180.80 0.1006395
1180.90 0.1006119
1181.00 0.1005844
1181.10 0.1005568
1181.20 0.1005292
1181.30 0.1005017
1181.40 0.1004742
1181.50 0.1004466
1181.60 0.1004191
1181.70 0.1003916
1181.80 0.1003641
1181.90 0.1003366
1182.00 0.1003091
1182.10 0.1002816
1182.20 0.1002541
1182.30 0.1002266
1182.40 0.1001992
1182.50 0.1001717
1182.60 0.1001443
1182.70 0.1001168
1182.80 0.1000894
1182.90 0.100062
1183.00 0.1000346
1183.10 0.1000071
1183.20 0.09997974
1183.30 0.09995235
1183.40 0.09992497
1183.50 0.09989759
1183.60 0.09987022
1183.70 0.09984286
1183.80 0.09981551
1183.90 0.09978816
1184.00 0.09976082
1184.10 0.09973349
1184.20 0.09970617
1184.30 0.09967886
1184.40 0.09965155
1184.50 0.09962425
1184.60 0.09959696
1184.70 0.09956968
1184.80 0.0995424
1184.90 0.09951513
1185.00 0.09948787
1185.10 0.09946062
1185.20 0.09943338
1185.30 0.09940614
1185.40 0.09937891
1185.50 0.09935173
1185.60 0.09932462
1185.70 0.09929752
1185.80 0.09927043
1185.90 0.09924334
1186.00 0.09921626
1186.10 0.09918919
1186.20 0.09916212
1186.30 0.09913506
1186.40 0.09910802
1186.50 0.09908097
1186.60 0.09905394
1186.70 0.09902691
1186.80 0.0989999
1186.90 0.09897289
1187.00 0.09894588
1187.10 0.09891889
1187.20 0.0988919
1187.30 0.09886492
1187.40 0.09883795
1187.50 0.09881098
1187.60 0.09878403
1187.70 0.09875708
1187.80 0.09873014
1187.90 0.0987032
1188.00 0.09867628
1188.10 0.09864936
1188.20 0.09862245
1188.30 0.09859555
1188.40 0.09856865
1188.50 0.09854176
1188.60 0.09851488
1188.70 0.09848801
1188.80 0.09846115
1188.90 0.09843429
1189.00 0.09840744
1189.10 0.0983806
1189.20 0.09835376
1189.30 0.09832694
1189.40 0.09830012
1189.50 0.09827331
1189.60 0.0982465
1189.70 0.09821971
1189.80 0.09819292
1189.90 0.09816614
1190.00 0.09813936
1190.10 0.0981126
1190.20 0.09808584
1190.30 0.09805909
1190.40 0.09803235
1190.50 0.09800561
1190.60 0.09797888
1190.70 0.09795216
1190.80 0.09792545
1190.90 0.09789875
1191.00 0.09787205
1191.10 0.09784536
1191.20 0.09781868
1191.30 0.097792
1191.40 0.09776534
1191.50 0.09773868
1191.60 0.09771203
1191.70 0.09768538
1191.80 0.09765875
1191.90 0.09763212
1192.00 0.0976055
1192.10 0.09757888
1192.20 0.09755227
1192.30 0.09752568
1192.40 0.09749908
1192.50 0.0974725
1192.60 0.09744592
1192.70 0.09741936
1192.80 0.0973928
1192.90 0.09736624
1193.00 0.0973397
1193.10 0.09731316
1193.20 0.09728663
1193.30 0.0972601
1193.40 0.09723359
1193.50 0.09720708
1193.60 0.09718058
1193.70 0.09715408
1193.80 0.0971276
1193.90 0.09710112
1194.00 0.09707465
1194.10 0.09704819
1194.20 0.09702173
1194.30 0.09699528
1194.40 0.09696884
1194.50 0.09694241
1194.60 0.09691598
1194.70 0.09688956
1194.80 0.09686315
1194.90 0.09683675
1195.00 0.09681035
1195.10 0.09678397
1195.20 0.09675758
1195.30 0.09673121
1195.40 0.09670485
1195.50 0.09667849
1195.60 0.09665214
1195.70 0.09662579
1195.80 0.09659946
1195.90 0.09657313
1196.00 0.09654681
1196.10 0.09652049
1196.20 0.09649419
1196.30 0.09646789
1196.40 0.0964416
1196.50 0.09641531
1196.60 0.09638904
1196.70 0.09636277
1196.80 0.0963365
1196.90 0.09631025
1197.00 0.096284
1197.10 0.09625776
1197.20 0.09623153
1197.30 0.09620531
1197.40 0.09617918
1197.50 0.09615307
1197.60 0.09612697
1197.70 0.09610088
1197.80 0.09607479
1197.90 0.09604871
1198.00 0.09602264
1198.10 0.09599658
1198.20 0.09597052
1198.30 0.09594447
1198.40 0.09591843
1198.50 0.0958924
1198.60 0.09586637
1198.70 0.09584035
1198.80 0.09581434
1198.90 0.09578833
1199.00 0.09576234
1199.10 0.09573635
1199.20 0.09571036
1199.30 0.09568439
1199.40 0.09565842
1199.50 0.09563246
1199.60 0.0956065
1199.70 0.09558056
1199.80 0.09555462
1199.90 0.09552869
1200.00 0.09550276
