# Version 2.1 - nm, norm@500 to 1, cut digits, bergeron_He_10000_70.dat_10000
# Wavelength(nm)  Flambda(ergs/cm^s/s/nm)
300.00 1.992799
300.10 1.992593
300.20 1.992396
300.30 1.992184
300.40 1.991874
300.50 1.991564
300.60 1.991254
300.70 1.990944
300.80 1.990633
300.90 1.990323
301.00 1.990013
301.10 1.989703
301.20 1.989392
301.30 1.989082
301.40 1.988772
301.50 1.988461
301.60 1.988151
301.70 1.98784
301.80 1.98753
301.90 1.987219
302.00 1.986909
302.10 1.986607
302.20 1.986306
302.30 1.986005
302.40 1.985704
302.50 1.985403
302.60 1.985102
302.70 1.984801
302.80 1.984499
302.90 1.984198
303.00 1.983897
303.10 1.983596
303.20 1.983294
303.30 1.982993
303.40 1.982691
303.50 1.982389
303.60 1.982086
303.70 1.981784
303.80 1.981482
303.90 1.981179
304.00 1.980877
304.10 1.980575
304.20 1.980272
304.30 1.97997
304.40 1.979667
304.50 1.979365
304.60 1.97904
304.70 1.978714
304.80 1.978387
304.90 1.97806
305.00 1.977734
305.10 1.977407
305.20 1.97708
305.30 1.976753
305.40 1.976427
305.50 1.9761
305.60 1.975773
305.70 1.975447
305.80 1.97512
305.90 1.974793
306.00 1.974467
306.10 1.97414
306.20 1.973813
306.30 1.973486
306.40 1.973156
306.50 1.972824
306.60 1.972493
306.70 1.972161
306.80 1.971829
306.90 1.971498
307.00 1.971166
307.10 1.970834
307.20 1.970503
307.30 1.970171
307.40 1.96984
307.50 1.969508
307.60 1.969177
307.70 1.968845
307.80 1.968514
307.90 1.968182
308.00 1.967851
308.10 1.967519
308.20 1.967188
308.30 1.966856
308.40 1.966525
308.50 1.966194
308.60 1.965862
308.70 1.965531
308.80 1.965199
308.90 1.964865
309.00 1.964445
309.10 1.964025
309.20 1.963604
309.30 1.963184
309.40 1.962774
309.50 1.96242
309.60 1.962067
309.70 1.961713
309.80 1.96136
309.90 1.961006
310.00 1.960653
310.10 1.9603
310.20 1.959947
310.30 1.959593
310.40 1.959266
310.50 1.958965
310.60 1.958664
310.70 1.958363
310.80 1.958063
310.90 1.957762
311.00 1.957283
311.10 1.956804
311.20 1.956326
311.30 1.955879
311.40 1.955522
311.50 1.955165
311.60 1.954808
311.70 1.954452
311.80 1.954095
311.90 1.953738
312.00 1.953382
312.10 1.953025
312.20 1.952779
312.30 1.952332
312.40 1.951725
312.50 1.951787
312.60 1.951314
312.70 1.950842
312.80 1.95037
312.90 1.949985
313.00 1.949695
313.10 1.949404
313.20 1.949114
313.30 1.948781
313.40 1.948329
313.50 1.947877
313.60 1.947425
313.70 1.946973
313.80 1.946522
313.90 1.94607
314.00 1.945619
314.10 1.945267
314.20 1.944915
314.30 1.944563
314.40 1.944212
314.50 1.94386
314.60 1.943508
314.70 1.943156
314.80 1.942765
314.90 1.94228
315.00 1.941815
315.10 1.941435
315.20 1.941055
315.30 1.940676
315.40 1.940296
315.50 1.939916
315.60 1.939537
315.70 1.939157
315.80 1.938778
315.90 1.938399
316.00 1.93802
316.10 1.937641
316.20 1.937262
316.30 1.936883
316.40 1.936222
316.50 1.936126
316.60 1.935747
316.70 1.935369
316.80 1.93499
316.90 1.934612
317.00 1.934234
317.10 1.933856
317.20 1.933478
317.30 1.932903
317.40 1.932367
317.50 1.931938
317.60 1.93151
317.70 1.931081
317.80 1.930653
317.90 1.930173
318.00 1.930117
318.10 1.92974
318.20 1.929363
318.30 1.928986
318.40 1.928537
318.50 1.927882
318.60 1.927445
318.70 1.927069
318.80 1.926887
318.90 1.926317
319.00 1.925797
319.10 1.925421
319.20 1.92502
319.30 1.924546
319.40 1.924073
319.50 1.9236
319.60 1.923519
319.70 1.923046
319.80 1.922573
319.90 1.9221
320.00 1.921675
320.10 1.9213
320.20 1.920776
320.30 1.920431
320.40 1.919782
320.50 1.919518
320.60 1.919297
320.70 1.918649
320.80 1.918133
320.90 1.91776
321.00 1.917386
321.10 1.917013
321.20 1.916443
321.30 1.916007
321.40 1.91557
321.50 1.915135
321.60 1.914699
321.70 1.914263
321.80 1.913996
321.90 1.913911
322.00 1.913109
322.10 1.912665
322.20 1.912222
322.30 1.911779
322.40 1.911335
322.50 1.910893
322.60 1.91045
322.70 1.910007
322.80 1.909938
322.90 1.909476
323.00 1.909015
323.10 1.908553
323.20 1.908092
323.30 1.907631
323.40 1.90717
323.50 1.906709
323.60 1.906248
323.70 1.905788
323.80 1.905328
323.90 1.904868
324.00 1.904411
324.10 1.903954
324.20 1.903497
324.30 1.903033
324.40 1.902564
324.50 1.902114
324.60 1.901664
324.70 1.901215
324.80 1.900765
324.90 1.900316
325.00 1.899866
325.10 1.899418
325.20 1.898977
325.30 1.898552
325.40 1.898128
325.50 1.897732
325.60 1.897371
325.70 1.89701
325.80 1.896649
325.90 1.896205
326.00 1.895671
326.10 1.895137
326.20 1.894604
326.30 1.894126
326.40 1.893806
326.50 1.893339
326.60 1.892871
326.70 1.892405
326.80 1.891938
326.90 1.891471
327.00 1.891005
327.10 1.890539
327.20 1.890073
327.30 1.889608
327.40 1.889142
327.50 1.888677
327.60 1.888212
327.70 1.887748
327.80 1.887283
327.90 1.886978
328.00 1.886693
328.10 1.886221
328.20 1.885749
328.30 1.885277
328.40 1.884806
328.50 1.884264
328.60 1.883706
328.70 1.883149
328.80 1.882622
328.90 1.882184
329.00 1.881746
329.10 1.881309
329.20 1.880871
329.30 1.880434
329.40 1.879997
329.50 1.87956
329.60 1.879123
329.70 1.878687
329.80 1.87825
329.90 1.877814
330.00 1.877356
330.10 1.876871
330.20 1.876386
330.30 1.875901
330.40 1.875419
330.50 1.87494
330.60 1.874461
330.70 1.873983
330.80 1.873504
330.90 1.873026
331.00 1.872548
331.10 1.87207
331.20 1.871593
331.30 1.871116
331.40 1.870639
331.50 1.870147
331.60 1.869638
331.70 1.869128
331.80 1.868646
331.90 1.868164
332.00 1.867683
332.10 1.867202
332.20 1.866722
332.30 1.866241
332.40 1.865761
332.50 1.865281
332.60 1.864801
332.70 1.864322
332.80 1.863843
332.90 1.863364
333.00 1.862885
333.10 1.862416
333.20 1.861959
333.30 1.861502
333.40 1.861045
333.50 1.860589
333.60 1.860133
333.70 1.859677
333.80 1.859221
333.90 1.858765
334.00 1.85831
334.10 1.857825
334.20 1.857302
334.30 1.85678
334.40 1.856259
334.50 1.855737
334.60 1.855216
334.70 1.854867
334.80 1.854566
334.90 1.854035
335.00 1.853504
335.10 1.852858
335.20 1.852505
335.30 1.851877
335.40 1.851526
335.50 1.851111
335.60 1.850509
335.70 1.850133
335.80 1.849531
335.90 1.848987
336.00 1.848511
336.10 1.848035
336.20 1.84756
336.30 1.847066
336.40 1.84655
336.50 1.846034
336.60 1.845518
336.70 1.845003
336.80 1.844488
336.90 1.843989
337.00 1.843509
337.10 1.84303
337.20 1.842551
337.30 1.84206
337.40 1.84155
337.50 1.841041
337.60 1.840532
337.70 1.840023
337.80 1.839515
337.90 1.839004
338.00 1.83849
338.10 1.837977
338.20 1.837463
338.30 1.83695
338.40 1.836449
338.50 1.835974
338.60 1.835499
338.70 1.835025
338.80 1.83455
338.90 1.834076
339.00 1.833603
339.10 1.833129
339.20 1.832656
339.30 1.832139
339.40 1.831559
339.50 1.831009
339.60 1.830493
339.70 1.829978
339.80 1.829463
339.90 1.828949
340.00 1.828434
340.10 1.827921
340.20 1.827407
340.30 1.826893
340.40 1.82638
340.50 1.825867
340.60 1.825355
340.70 1.824843
340.80 1.824406
340.90 1.824079
341.00 1.823664
341.10 1.82314
341.20 1.822617
341.30 1.822094
341.40 1.821571
341.50 1.821049
341.60 1.820527
341.70 1.820005
341.80 1.819495
341.90 1.818998
342.00 1.818502
342.10 1.818006
342.20 1.817398
342.30 1.81689
342.40 1.816469
342.50 1.815974
342.60 1.815478
342.70 1.814983
342.80 1.814488
342.90 1.813994
343.00 1.81346
343.10 1.812877
343.20 1.812295
343.30 1.811713
343.40 1.811167
343.50 1.81067
343.60 1.810174
343.70 1.809678
343.80 1.809182
343.90 1.808687
344.00 1.808159
344.10 1.807585
344.20 1.807011
344.30 1.806437
344.40 1.805962
344.50 1.805626
344.60 1.805011
344.70 1.804676
344.80 1.803867
344.90 1.803532
345.00 1.802907
345.10 1.802336
345.20 1.801833
345.30 1.801429
345.40 1.801025
345.50 1.800539
345.60 1.799959
345.70 1.799389
345.80 1.798821
345.90 1.798252
346.00 1.797684
346.10 1.797117
346.20 1.796569
346.30 1.796049
346.40 1.795529
346.50 1.79501
346.60 1.794491
346.70 1.793972
346.80 1.793454
346.90 1.792936
347.00 1.792418
347.10 1.7919
347.20 1.791382
347.30 1.790861
347.40 1.790341
347.50 1.789821
347.60 1.789301
347.70 1.788782
347.80 1.788263
347.90 1.787744
348.00 1.787225
348.10 1.786707
348.20 1.786189
348.30 1.785672
348.40 1.785154
348.50 1.784637
348.60 1.784121
348.70 1.783742
348.80 1.783315
348.90 1.782756
349.00 1.782198
349.10 1.78164
349.20 1.781082
349.30 1.780525
349.40 1.779968
349.50 1.779412
349.60 1.778855
349.70 1.778299
349.80 1.777744
349.90 1.777189
350.00 1.776634
350.10 1.77608
350.20 1.775525
350.30 1.774988
350.40 1.774474
350.50 1.77396
350.60 1.773447
350.70 1.772934
350.80 1.772421
350.90 1.771909
351.00 1.771396
351.10 1.770885
351.20 1.770373
351.30 1.769862
351.40 1.769349
351.50 1.768832
351.60 1.768315
351.70 1.767799
351.80 1.767283
351.90 1.766767
352.00 1.766252
352.10 1.765737
352.20 1.765058
352.30 1.764428
352.40 1.763897
352.50 1.763365
352.60 1.762834
352.70 1.762304
352.80 1.761773
352.90 1.761243
353.00 1.760714
353.10 1.760184
353.20 1.759655
353.30 1.759126
353.40 1.758598
353.50 1.758103
353.60 1.757617
353.70 1.757131
353.80 1.756646
353.90 1.756123
354.00 1.755533
354.10 1.754944
354.20 1.754355
354.30 1.753767
354.40 1.753178
354.50 1.752591
354.60 1.752004
354.70 1.751417
354.80 1.750874
354.90 1.750396
355.00 1.749917
355.10 1.749439
355.20 1.748961
355.30 1.748392
355.40 1.747822
355.50 1.747254
355.60 1.746685
355.70 1.746095
355.80 1.745497
355.90 1.745047
356.00 1.744571
356.10 1.744023
356.20 1.743475
356.30 1.742927
356.40 1.74238
356.50 1.741833
356.60 1.741286
356.70 1.74074
356.80 1.740194
356.90 1.739649
357.00 1.739103
357.10 1.738558
357.20 1.738014
357.30 1.73747
357.40 1.736913
357.50 1.736336
357.60 1.735759
357.70 1.735182
357.80 1.734613
357.90 1.734044
358.00 1.733493
358.10 1.732947
358.20 1.7324
358.30 1.731854
358.40 1.731309
358.50 1.730764
358.60 1.730219
358.70 1.729674
358.80 1.72913
358.90 1.728586
359.00 1.728104
359.10 1.72773
359.20 1.727329
359.30 1.726742
359.40 1.726157
359.50 1.725521
359.60 1.724873
359.70 1.724225
359.80 1.723762
359.90 1.7233
360.00 1.722805
360.10 1.722253
360.20 1.721702
360.30 1.721151
360.40 1.720601
360.50 1.72005
360.60 1.719257
360.70 1.718737
360.80 1.718218
360.90 1.717699
361.00 1.717303
361.10 1.716747
361.20 1.715989
361.30 1.715644
361.40 1.714954
361.50 1.714437
361.60 1.714076
361.70 1.713559
361.80 1.713009
361.90 1.712399
362.00 1.71179
362.10 1.711151
362.20 1.710533
362.30 1.709966
362.40 1.709399
362.50 1.708833
362.60 1.708267
362.70 1.707877
362.80 1.707316
362.90 1.706802
363.00 1.706288
363.10 1.705739
363.20 1.705191
363.30 1.704758
363.40 1.703926
363.50 1.703309
363.60 1.702799
363.70 1.702337
363.80 1.70178
363.90 1.701251
364.00 1.700721
364.10 1.700193
364.20 1.699664
364.30 1.699001
364.40 1.698305
364.50 1.697802
364.60 1.697294
364.70 1.696786
364.80 1.696278
364.90 1.695773
365.00 1.695267
365.10 1.69455
365.20 1.694045
365.30 1.693541
365.40 1.692825
365.50 1.692321
365.60 1.691818
365.70 1.691276
365.80 1.690735
365.90 1.690075
366.00 1.689385
366.10 1.688876
366.20 1.688368
366.30 1.687859
366.40 1.687351
366.50 1.686875
366.60 1.686379
366.70 1.685777
366.80 1.685176
366.90 1.684596
367.00 1.684055
367.10 1.683514
367.20 1.682974
367.30 1.682433
367.40 1.681894
367.50 1.681239
367.60 1.680557
367.70 1.679972
367.80 1.679388
367.90 1.678804
368.00 1.678363
368.10 1.678071
368.20 1.677489
368.30 1.676905
368.40 1.676322
368.50 1.675739
368.60 1.675156
368.70 1.674574
368.80 1.673992
368.90 1.673293
369.00 1.672753
369.10 1.672304
369.20 1.671817
369.30 1.671187
369.40 1.670558
369.50 1.66993
369.60 1.669437
369.70 1.668945
369.80 1.668378
369.90 1.66781
370.00 1.667243
370.10 1.666579
370.20 1.666087
370.30 1.665598
370.40 1.665114
370.50 1.664416
370.60 1.663924
370.70 1.663242
370.80 1.662753
370.90 1.662264
371.00 1.661577
371.10 1.660887
371.20 1.6604
371.30 1.659913
371.40 1.659542
371.50 1.658953
371.60 1.658365
371.70 1.657777
371.80 1.657189
371.90 1.656602
372.00 1.655947
372.10 1.655639
372.20 1.655021
372.30 1.654404
372.40 1.653787
372.50 1.65317
372.60 1.652554
372.70 1.651938
372.80 1.651455
372.90 1.650974
373.00 1.650496
373.10 1.650019
373.20 1.649337
373.30 1.648656
373.40 1.648178
373.50 1.647498
373.60 1.64702
373.70 1.646341
373.80 1.645952
373.90 1.645387
374.00 1.64481
374.10 1.644233
374.20 1.643656
374.30 1.64308
374.40 1.642454
374.50 1.64212
374.60 1.641553
374.70 1.640979
374.80 1.640405
374.90 1.639832
375.00 1.639225
375.10 1.638619
375.20 1.638013
375.30 1.637426
375.40 1.63684
375.50 1.636254
375.60 1.635668
375.70 1.635083
375.80 1.634498
375.90 1.633914
376.00 1.63344
376.10 1.63292
376.20 1.632399
376.30 1.631879
376.40 1.631359
376.50 1.630811
376.60 1.630219
376.70 1.629628
376.80 1.629039
376.90 1.628452
377.00 1.627866
377.10 1.62728
377.20 1.626714
377.30 1.626223
377.40 1.625731
377.50 1.62524
377.60 1.624637
377.70 1.624035
377.80 1.623433
377.90 1.622832
378.00 1.622128
378.10 1.621587
378.20 1.621049
378.30 1.620511
378.40 1.619974
378.50 1.619437
378.60 1.618901
378.70 1.618365
378.80 1.617829
378.90 1.617284
379.00 1.616721
379.10 1.616183
379.20 1.615644
379.30 1.615076
379.40 1.614477
379.50 1.61388
379.60 1.613312
379.70 1.612783
379.80 1.612219
379.90 1.611656
380.00 1.611093
380.10 1.61053
380.20 1.609968
380.30 1.609406
380.40 1.608845
380.50 1.608284
380.60 1.607548
380.70 1.606969
380.80 1.60639
380.90 1.605812
381.00 1.605234
381.10 1.604635
381.20 1.604111
381.30 1.603558
381.40 1.603102
381.50 1.60246
381.60 1.60187
381.70 1.601388
381.80 1.600836
381.90 1.600192
382.00 1.599547
382.10 1.599096
382.20 1.598414
382.30 1.597964
382.40 1.597465
382.50 1.596894
382.60 1.596322
382.70 1.595814
382.80 1.595313
382.90 1.594749
383.00 1.594186
383.10 1.593622
383.20 1.593047
383.30 1.592428
383.40 1.591835
383.50 1.591279
383.60 1.590477
383.70 1.589951
383.80 1.589425
383.90 1.5889
384.00 1.588375
384.10 1.58785
384.20 1.587326
384.30 1.586802
384.40 1.586216
384.50 1.585569
384.60 1.584922
384.70 1.584276
384.80 1.583686
384.90 1.583266
385.00 1.58277
385.10 1.582268
385.20 1.581538
385.30 1.58091
385.40 1.580319
385.50 1.579764
385.60 1.57921
385.70 1.578657
385.80 1.578095
385.90 1.577498
386.00 1.576926
386.10 1.57638
386.20 1.575856
386.30 1.575332
386.40 1.574755
386.50 1.574226
386.60 1.573789
386.70 1.572975
386.80 1.572539
386.90 1.572009
387.00 1.571291
387.10 1.570855
387.20 1.570317
387.30 1.569619
387.40 1.569175
387.50 1.568533
387.60 1.567991
387.70 1.567464
387.80 1.566937
387.90 1.56641
388.00 1.565825
388.10 1.565075
388.20 1.564705
388.30 1.564137
388.40 1.563569
388.50 1.563033
388.60 1.562488
388.70 1.561684
388.80 1.561254
388.90 1.560801
389.00 1.560022
389.10 1.559593
389.20 1.558954
389.30 1.55843
389.40 1.55782
389.50 1.55726
389.60 1.556708
389.70 1.555997
389.80 1.555452
389.90 1.554906
390.00 1.554361
390.10 1.553817
390.20 1.553272
390.30 1.552715
390.40 1.552143
390.50 1.551572
390.60 1.551001
390.70 1.55043
390.80 1.549852
390.90 1.549268
391.00 1.54895
391.10 1.548337
391.20 1.547687
391.30 1.547011
391.40 1.546466
391.50 1.545922
391.60 1.545377
391.70 1.544834
391.80 1.54429
391.90 1.543793
392.00 1.543275
392.10 1.542647
392.20 1.542005
392.30 1.541344
392.40 1.54082
392.50 1.540381
392.60 1.539844
392.70 1.539178
392.80 1.538642
392.90 1.538045
393.00 1.537457
393.10 1.536902
393.20 1.536378
393.30 1.535779
393.40 1.535164
393.50 1.534748
393.60 1.534192
393.70 1.533553
393.80 1.533155
393.90 1.532558
394.00 1.531946
394.10 1.531255
394.20 1.530663
394.30 1.530136
394.40 1.529595
394.50 1.529153
394.60 1.52858
394.70 1.528
394.80 1.527392
394.90 1.526791
395.00 1.526369
395.10 1.525596
395.20 1.525012
395.30 1.524476
395.40 1.52394
395.50 1.523447
395.60 1.52297
395.70 1.522445
395.80 1.521789
395.90 1.521134
396.00 1.520508
396.10 1.520109
396.20 1.519521
396.30 1.518886
396.40 1.518479
396.50 1.517713
396.60 1.517306
396.70 1.516667
396.80 1.516135
396.90 1.515407
397.00 1.514966
397.10 1.514501
397.20 1.513878
397.30 1.513424
397.40 1.512775
397.50 1.512126
397.60 1.511491
397.70 1.510984
397.80 1.510477
397.90 1.509937
398.00 1.509305
398.10 1.508674
398.20 1.508121
398.30 1.507655
398.40 1.507181
398.50 1.506425
398.60 1.505948
398.70 1.505385
398.80 1.504775
398.90 1.504206
399.00 1.503715
399.10 1.50333
399.20 1.50274
399.30 1.502149
399.40 1.501559
399.50 1.50097
399.60 1.500372
399.70 1.499772
399.80 1.499172
399.90 1.498572
400.00 1.497977
400.10 1.497499
400.20 1.497071
400.30 1.49654
400.40 1.495932
400.50 1.495286
400.60 1.494668
400.70 1.494098
400.80 1.493751
400.90 1.493063
401.00 1.492612
401.10 1.491868
401.20 1.4914
401.30 1.490732
401.40 1.490178
401.50 1.489695
401.60 1.489213
401.70 1.488741
401.80 1.488072
401.90 1.487515
402.00 1.486941
402.10 1.486551
402.20 1.485812
402.30 1.485273
402.40 1.484683
402.50 1.484294
402.60 1.483557
402.70 1.483168
402.80 1.482432
402.90 1.481835
403.00 1.481273
403.10 1.48092
403.20 1.480194
403.30 1.479727
403.40 1.479065
403.50 1.478494
403.60 1.477975
403.70 1.47756
403.80 1.476834
403.90 1.4763
404.00 1.475712
404.10 1.475327
404.20 1.47477
404.30 1.474213
404.40 1.473484
404.50 1.473101
404.60 1.472373
404.70 1.47199
404.80 1.471272
404.90 1.47088
405.00 1.470154
405.10 1.469624
405.20 1.469145
405.30 1.468665
405.40 1.468112
405.50 1.46756
405.60 1.467008
405.70 1.466456
405.80 1.465905
405.90 1.465354
406.00 1.46477
406.10 1.464186
406.20 1.463603
406.30 1.46302
406.40 1.462433
406.50 1.4618
406.60 1.461336
406.70 1.460724
406.80 1.460139
406.90 1.459528
407.00 1.458981
407.10 1.458435
407.20 1.457889
407.30 1.457343
407.40 1.456798
407.50 1.456253
407.60 1.455708
407.70 1.455164
407.80 1.45462
407.90 1.454077
408.00 1.453549
408.10 1.452985
408.20 1.45245
408.30 1.451959
408.40 1.451468
408.50 1.450817
408.60 1.450224
408.70 1.449631
408.80 1.449069
408.90 1.448686
409.00 1.448107
409.10 1.447529
409.20 1.446951
409.30 1.446373
409.40 1.445795
409.50 1.445208
409.60 1.444621
409.70 1.444042
409.80 1.443492
409.90 1.442948
410.00 1.44257
410.10 1.441867
410.20 1.441373
410.30 1.440933
410.40 1.440456
410.50 1.439864
410.60 1.439273
410.70 1.438688
410.80 1.438123
410.90 1.437558
411.00 1.437033
411.10 1.436523
411.20 1.436014
411.30 1.435467
411.40 1.434772
411.50 1.434193
411.60 1.433614
411.70 1.433045
411.80 1.432515
411.90 1.431953
412.00 1.43159
412.10 1.430895
412.20 1.430533
412.30 1.429839
412.40 1.429158
412.50 1.428785
412.60 1.428092
412.70 1.427504
412.80 1.426941
412.90 1.42668
413.00 1.426021
413.10 1.425461
413.20 1.424903
413.30 1.424344
413.40 1.423786
413.50 1.423202
413.60 1.422554
413.70 1.422031
413.80 1.421509
413.90 1.420987
414.00 1.420465
414.10 1.419943
414.20 1.419383
414.30 1.41873
414.40 1.418342
414.50 1.417657
414.60 1.417302
414.70 1.416618
414.80 1.415975
414.90 1.415456
415.00 1.414938
415.10 1.41442
415.20 1.413887
415.30 1.413309
415.40 1.41273
415.50 1.412152
415.60 1.41159
415.70 1.411028
415.80 1.41049
415.90 1.410026
416.00 1.409563
416.10 1.409072
416.20 1.408474
416.30 1.407875
416.40 1.407277
416.50 1.406682
416.60 1.406169
416.70 1.405652
416.80 1.405168
416.90 1.404628
417.00 1.403955
417.10 1.403611
417.20 1.4031
417.30 1.402588
417.40 1.402031
417.50 1.401473
417.60 1.400894
417.70 1.400226
417.80 1.399664
417.90 1.399102
418.00 1.39854
418.10 1.397979
418.20 1.397418
418.30 1.396866
418.40 1.396534
418.50 1.395971
418.60 1.395409
418.70 1.394848
418.80 1.394286
418.90 1.393726
419.00 1.393165
419.10 1.392605
419.20 1.392045
419.30 1.391486
419.40 1.390936
419.50 1.390386
419.60 1.389836
419.70 1.389282
419.80 1.388728
419.90 1.388179
420.00 1.387643
420.10 1.387108
420.20 1.386573
420.30 1.386039
420.40 1.385504
420.50 1.38497
420.60 1.384437
420.70 1.383904
420.80 1.383371
420.90 1.382838
421.00 1.382296
421.10 1.381754
421.20 1.381217
421.30 1.380698
421.40 1.380179
421.50 1.37966
421.60 1.379141
421.70 1.378623
421.80 1.378105
421.90 1.377555
422.00 1.376902
422.10 1.37627
422.20 1.375718
422.30 1.375166
422.40 1.374615
422.50 1.374076
422.60 1.373538
422.70 1.373
422.80 1.372462
422.90 1.371925
423.00 1.371388
423.10 1.370851
423.20 1.370315
423.30 1.369779
423.40 1.369243
423.50 1.368708
423.60 1.368173
423.70 1.367638
423.80 1.367104
423.90 1.36657
424.00 1.366036
424.10 1.365503
424.20 1.36497
424.30 1.364438
424.40 1.363883
424.50 1.363367
424.60 1.362851
424.70 1.362336
424.80 1.361821
424.90 1.361306
425.00 1.360792
425.10 1.360278
425.20 1.359764
425.30 1.359251
425.40 1.358732
425.50 1.358176
425.60 1.357621
425.70 1.357065
425.80 1.356511
425.90 1.355956
426.00 1.355402
426.10 1.354848
426.20 1.354295
426.30 1.353742
426.40 1.353189
426.50 1.352637
426.60 1.352085
426.70 1.351533
426.80 1.350982
426.90 1.350431
427.00 1.349897
427.10 1.349363
427.20 1.348829
427.30 1.348296
427.40 1.347762
427.50 1.34723
427.60 1.346697
427.70 1.346165
427.80 1.345633
427.90 1.345102
428.00 1.344571
428.10 1.34404
428.20 1.34351
428.30 1.34298
428.40 1.342451
428.50 1.341921
428.60 1.341392
428.70 1.340864
428.80 1.340336
428.90 1.339809
429.00 1.339282
429.10 1.338756
429.20 1.338231
429.30 1.337705
429.40 1.33718
429.50 1.336655
429.60 1.336131
429.70 1.335607
429.80 1.335083
429.90 1.33456
430.00 1.334037
430.10 1.333514
430.20 1.332992
430.30 1.33247
430.40 1.331948
430.50 1.331427
430.60 1.330906
430.70 1.330385
430.80 1.329865
430.90 1.329345
431.00 1.328826
431.10 1.328306
431.20 1.327787
431.30 1.327267
431.40 1.326728
431.50 1.326189
431.60 1.32565
431.70 1.325112
431.80 1.324574
431.90 1.324036
432.00 1.323499
432.10 1.322962
432.20 1.322425
432.30 1.321889
432.40 1.321353
432.50 1.320817
432.60 1.320282
432.70 1.319747
432.80 1.319213
432.90 1.318679
433.00 1.318145
433.10 1.317611
433.20 1.317078
433.30 1.316545
433.40 1.316002
433.50 1.31546
433.60 1.314918
433.70 1.314377
433.80 1.313881
433.90 1.313439
434.00 1.312939
434.10 1.312404
434.20 1.31187
434.30 1.311336
434.40 1.310802
434.50 1.310269
434.60 1.309736
434.70 1.309203
434.80 1.308672
434.90 1.308151
435.00 1.307632
435.10 1.307112
435.20 1.306593
435.30 1.306074
435.40 1.305556
435.50 1.305038
435.60 1.30452
435.70 1.304003
435.80 1.303485
435.90 1.302969
436.00 1.302452
436.10 1.301936
436.20 1.30142
436.30 1.300869
436.40 1.300278
436.50 1.299761
436.60 1.299244
436.70 1.298727
436.80 1.298211
436.90 1.297695
437.00 1.297179
437.10 1.296664
437.20 1.296171
437.30 1.295699
437.40 1.295222
437.50 1.294679
437.60 1.294136
437.70 1.293594
437.80 1.293052
437.90 1.292511
438.00 1.291974
438.10 1.291497
438.20 1.29102
438.30 1.290492
438.40 1.289914
438.50 1.289472
438.60 1.289021
438.70 1.288433
438.80 1.287846
438.90 1.287259
439.00 1.286965
439.10 1.286379
439.20 1.285799
439.30 1.285287
439.40 1.284775
439.50 1.284263
439.60 1.283747
439.70 1.283163
439.80 1.282609
439.90 1.282093
440.00 1.281577
440.10 1.281061
440.20 1.280545
440.30 1.280021
440.40 1.279498
440.50 1.278976
440.60 1.278453
440.70 1.277931
440.80 1.27741
440.90 1.276888
441.00 1.276367
441.10 1.275847
441.20 1.275335
441.30 1.274936
441.40 1.274456
441.50 1.273879
441.60 1.273302
441.70 1.273015
441.80 1.272483
441.90 1.271951
442.00 1.27142
442.10 1.270889
442.20 1.270358
442.30 1.269828
442.40 1.26932
442.50 1.268841
442.60 1.268362
442.70 1.267846
442.80 1.267273
442.90 1.266701
443.00 1.266196
443.10 1.265774
443.20 1.265274
443.30 1.264703
443.40 1.264133
443.50 1.263563
443.60 1.263029
443.70 1.262711
443.80 1.262142
443.90 1.261573
444.00 1.261069
444.10 1.260645
444.20 1.260156
444.30 1.259588
444.40 1.259022
444.50 1.258455
444.60 1.257956
444.70 1.257538
444.80 1.257043
444.90 1.256478
445.00 1.255914
445.10 1.25535
445.20 1.254829
445.30 1.254361
445.40 1.253894
445.50 1.253427
445.60 1.25296
445.70 1.252494
445.80 1.251978
445.90 1.251417
446.00 1.250855
446.10 1.250295
446.20 1.249734
446.30 1.249458
446.40 1.248898
446.50 1.248339
446.60 1.24778
446.70 1.247221
446.80 1.246736
446.90 1.24632
447.00 1.24583
447.10 1.245273
447.20 1.244716
447.30 1.244159
447.40 1.243676
447.50 1.243262
447.60 1.242774
447.70 1.242219
447.80 1.241729
447.90 1.241321
448.00 1.240861
448.10 1.240354
448.20 1.239847
448.30 1.239341
448.40 1.238835
448.50 1.238329
448.60 1.2378
448.70 1.237248
448.80 1.236701
448.90 1.236211
449.00 1.235721
449.10 1.235231
449.20 1.234742
449.30 1.234225
449.40 1.233676
449.50 1.233127
449.60 1.232598
449.70 1.232087
449.80 1.231576
449.90 1.231066
450.00 1.230556
450.10 1.230046
450.20 1.229537
450.30 1.229028
450.40 1.228529
450.50 1.22803
450.60 1.227531
450.70 1.227033
450.80 1.226535
450.90 1.226037
451.00 1.225605
451.10 1.225173
451.20 1.224684
451.30 1.224141
451.40 1.223599
451.50 1.223057
451.60 1.222654
451.70 1.222251
451.80 1.22171
451.90 1.221169
452.00 1.220629
452.10 1.220089
452.20 1.219618
452.30 1.219148
452.40 1.218678
452.50 1.218208
452.60 1.21767
452.70 1.217164
452.80 1.216687
452.90 1.216211
453.00 1.215735
453.10 1.215259
453.20 1.214765
453.30 1.214271
453.40 1.213777
453.50 1.213284
453.60 1.212791
453.70 1.212298
453.80 1.211787
453.90 1.211253
454.00 1.210719
454.10 1.210186
454.20 1.209703
454.30 1.209221
454.40 1.208738
454.50 1.208256
454.60 1.207775
454.70 1.207281
454.80 1.206776
454.90 1.206271
455.00 1.205767
455.10 1.205263
455.20 1.20476
455.30 1.204256
455.40 1.203753
455.50 1.203251
455.60 1.202748
455.70 1.202246
455.80 1.201792
455.90 1.201337
456.00 1.200883
456.10 1.200417
456.20 1.199916
456.30 1.199415
456.40 1.198915
456.50 1.198415
456.60 1.197915
456.70 1.197415
456.80 1.196916
456.90 1.196418
457.00 1.195919
457.10 1.195421
457.20 1.19491
457.30 1.194426
457.40 1.193941
457.50 1.193457
457.60 1.192973
457.70 1.19249
457.80 1.192006
457.90 1.191523
458.00 1.191041
458.10 1.190559
458.20 1.190077
458.30 1.189595
458.40 1.189113
458.50 1.188632
458.60 1.188152
458.70 1.187678
458.80 1.187207
458.90 1.186737
459.00 1.186267
459.10 1.185797
459.20 1.185327
459.30 1.18483
459.40 1.184333
459.50 1.183836
459.60 1.183339
459.70 1.182843
459.80 1.182347
459.90 1.181852
460.00 1.181357
460.10 1.180862
460.20 1.180367
460.30 1.179873
460.40 1.179379
460.50 1.178886
460.60 1.178392
460.70 1.177923
460.80 1.177465
460.90 1.177008
461.00 1.176551
461.10 1.176094
461.20 1.1756
461.30 1.17509
461.40 1.174581
461.50 1.174072
461.60 1.173563
461.70 1.173055
461.80 1.172565
461.90 1.172076
462.00 1.171587
462.10 1.171099
462.20 1.17061
462.30 1.170123
462.40 1.169635
462.50 1.169148
462.60 1.168661
462.70 1.168174
462.80 1.167688
462.90 1.167202
463.00 1.166716
463.10 1.166231
463.20 1.165759
463.30 1.165294
463.40 1.164829
463.50 1.164365
463.60 1.163901
463.70 1.163437
463.80 1.162973
463.90 1.162505
464.00 1.162037
464.10 1.161568
464.20 1.1611
464.30 1.160632
464.40 1.160165
464.50 1.159698
464.60 1.159231
464.70 1.158741
464.80 1.158243
464.90 1.157745
465.00 1.157247
465.10 1.156749
465.20 1.156252
465.30 1.155782
465.40 1.15533
465.50 1.154879
465.60 1.154428
465.70 1.153977
465.80 1.153526
465.90 1.15304
466.00 1.152545
466.10 1.152051
466.20 1.151557
466.30 1.151081
466.40 1.150613
466.50 1.150146
466.60 1.149679
466.70 1.149212
466.80 1.148746
466.90 1.14828
467.00 1.147814
467.10 1.147348
467.20 1.146883
467.30 1.1464
467.40 1.145909
467.50 1.145419
467.60 1.144929
467.70 1.14444
467.80 1.143951
467.90 1.143462
468.00 1.142973
468.10 1.142485
468.20 1.141997
468.30 1.141509
468.40 1.141022
468.50 1.140535
468.60 1.140048
468.70 1.139562
468.80 1.139075
468.90 1.13879
469.00 1.138361
469.10 1.137875
469.20 1.13739
469.30 1.136906
469.40 1.136421
469.50 1.135937
469.60 1.135454
469.70 1.13497
469.80 1.134487
469.90 1.134004
470.00 1.133522
470.10 1.13304
470.20 1.132558
470.30 1.132076
470.40 1.131595
470.50 1.131114
470.60 1.130684
470.70 1.130267
470.80 1.129851
470.90 1.129435
471.00 1.128968
471.10 1.128489
471.20 1.12801
471.30 1.127531
471.40 1.127053
471.50 1.126575
471.60 1.126097
471.70 1.12562
471.80 1.125143
471.90 1.124666
472.00 1.124189
472.10 1.123713
472.20 1.123237
472.30 1.122762
472.40 1.122286
472.50 1.121811
472.60 1.121337
472.70 1.120862
472.80 1.120408
472.90 1.11996
473.00 1.119511
473.10 1.119063
473.20 1.118616
473.30 1.118168
473.40 1.117721
473.50 1.117274
473.60 1.116828
473.70 1.116381
473.80 1.115915
473.90 1.115444
474.00 1.114973
474.10 1.114503
474.20 1.114033
474.30 1.113563
474.40 1.113094
474.50 1.112625
474.60 1.112156
474.70 1.111688
474.80 1.111219
474.90 1.110751
475.00 1.110284
475.10 1.109816
475.20 1.109349
475.30 1.108883
475.40 1.108416
475.50 1.10795
475.60 1.107484
475.70 1.107019
475.80 1.106553
475.90 1.106088
476.00 1.105624
476.10 1.105159
476.20 1.104695
476.30 1.104231
476.40 1.103768
476.50 1.103305
476.60 1.102842
476.70 1.102379
476.80 1.101917
476.90 1.101455
477.00 1.100993
477.10 1.100531
477.20 1.10007
477.30 1.099609
477.40 1.099149
477.50 1.098688
477.60 1.098228
477.70 1.097768
477.80 1.097309
477.90 1.09685
478.00 1.096391
478.10 1.095932
478.20 1.095474
478.30 1.095016
478.40 1.094558
478.50 1.094101
478.60 1.093644
478.70 1.093187
478.80 1.09273
478.90 1.092274
479.00 1.091818
479.10 1.091362
479.20 1.090907
479.30 1.090452
479.40 1.089997
479.50 1.089542
479.60 1.089088
479.70 1.088634
479.80 1.08818
479.90 1.087727
480.00 1.087273
480.10 1.08682
480.20 1.086368
480.30 1.085916
480.40 1.085464
480.50 1.085012
480.60 1.08456
480.70 1.084109
480.80 1.083658
480.90 1.083208
481.00 1.082757
481.10 1.082307
481.20 1.081857
481.30 1.081408
481.40 1.080959
481.50 1.08051
481.60 1.080061
481.70 1.079613
481.80 1.079164
481.90 1.078717
482.00 1.078269
482.10 1.077822
482.20 1.077375
482.30 1.076928
482.40 1.076482
482.50 1.076035
482.60 1.07559
482.70 1.075144
482.80 1.074699
482.90 1.074254
483.00 1.073809
483.10 1.073364
483.20 1.07292
483.30 1.072476
483.40 1.072032
483.50 1.071589
483.60 1.071146
483.70 1.070703
483.80 1.070261
483.90 1.069818
484.00 1.069376
484.10 1.068934
484.20 1.068493
484.30 1.068052
484.40 1.067611
484.50 1.06717
484.60 1.06673
484.70 1.06629
484.80 1.06585
484.90 1.06541
485.00 1.064971
485.10 1.064532
485.20 1.064093
485.30 1.063655
485.40 1.063216
485.50 1.062779
485.60 1.062341
485.70 1.061882
485.80 1.061423
485.90 1.060964
486.00 1.060505
486.10 1.060047
486.20 1.059589
486.30 1.059132
486.40 1.058675
486.50 1.058218
486.60 1.057761
486.70 1.057306
486.80 1.056872
486.90 1.056438
487.00 1.056004
487.10 1.05557
487.20 1.055137
487.30 1.054704
487.40 1.054271
487.50 1.053839
487.60 1.053407
487.70 1.052975
487.80 1.052543
487.90 1.052111
488.00 1.05168
488.10 1.051249
488.20 1.050819
488.30 1.050388
488.40 1.049958
488.50 1.049529
488.60 1.049099
488.70 1.04867
488.80 1.048154
488.90 1.047638
489.00 1.047147
489.10 1.046719
489.20 1.046291
489.30 1.045864
489.40 1.045436
489.50 1.045009
489.60 1.044582
489.70 1.044156
489.80 1.04373
489.90 1.043304
490.00 1.042878
490.10 1.042452
490.20 1.042027
490.30 1.041602
490.40 1.041177
490.50 1.040753
490.60 1.040328
490.70 1.039904
490.80 1.039481
490.90 1.039057
491.00 1.0384
491.10 1.037977
491.20 1.037555
491.30 1.037132
491.40 1.03671
491.50 1.036288
491.60 1.035867
491.70 1.035446
491.80 1.035025
491.90 1.034604
492.00 1.034183
492.10 1.033763
492.20 1.033343
492.30 1.032923
492.40 1.032504
492.50 1.032084
492.60 1.031661
492.70 1.031185
492.80 1.030708
492.90 1.030232
493.00 1.02976
493.10 1.029342
493.20 1.028925
493.30 1.028508
493.40 1.028091
493.50 1.027674
493.60 1.027258
493.70 1.026842
493.80 1.026426
493.90 1.02601
494.00 1.025595
494.10 1.025166
494.20 1.024707
494.30 1.024248
494.40 1.02379
494.50 1.023332
494.60 1.022878
494.70 1.022464
494.80 1.022051
494.90 1.021638
495.00 1.021225
495.10 1.020813
495.20 1.020377
495.30 1.019941
495.40 1.019505
495.50 1.01907
495.60 1.018635
495.70 1.018201
495.80 1.017766
495.90 1.017332
496.00 1.016898
496.10 1.016472
496.20 1.016063
496.30 1.015653
496.40 1.015244
496.50 1.014835
496.60 1.014426
496.70 1.013984
496.80 1.013542
496.90 1.0131
497.00 1.012659
497.10 1.012217
497.20 1.011776
497.30 1.011344
497.40 1.010938
497.50 1.010531
497.60 1.010125
497.70 1.009718
497.80 1.009287
497.90 1.008856
498.00 1.008426
498.10 1.007996
498.20 1.007567
498.30 1.007137
498.40 1.006708
498.50 1.006279
498.60 1.005851
498.70 1.005447
498.80 1.005044
498.90 1.004641
499.00 1.004239
499.10 1.003836
499.20 1.003434
499.30 1.003018
499.40 1.002563
499.50 1.002107
499.60 1.001652
499.70 1.001201
499.80 1.0008
499.90 1.0004
500.00 1
500.10 0.9996001
500.20 0.9991885
500.30 0.9987515
500.40 0.9983148
500.50 0.9978784
500.60 0.9974422
500.70 0.9970063
500.80 0.9965827
500.90 0.9961848
501.00 0.9957872
501.10 0.9953898
501.20 0.9949926
501.30 0.9945957
501.40 0.994199
501.50 0.9938026
501.60 0.9934063
501.70 0.9927862
501.80 0.9923906
501.90 0.9919951
502.00 0.9916
502.10 0.991205
502.20 0.9908103
502.30 0.9904159
502.40 0.9900097
502.50 0.9895785
502.60 0.9891475
502.70 0.9887168
502.80 0.9882863
502.90 0.9878562
503.00 0.9874381
503.10 0.9870456
503.20 0.9866534
503.30 0.9862613
503.40 0.9858556
503.50 0.9854102
503.60 0.9849652
503.70 0.9845204
503.80 0.9840824
503.90 0.9836918
504.00 0.9833015
504.10 0.9829114
504.20 0.9825216
504.30 0.982132
504.40 0.9817426
504.50 0.9813534
504.60 0.9808205
504.70 0.9803543
504.80 0.9799659
504.90 0.9795778
505.00 0.9791899
505.10 0.9788022
505.20 0.9784001
505.30 0.9779568
505.40 0.9775138
505.50 0.9770711
505.60 0.9766465
505.70 0.9762603
505.80 0.9758743
505.90 0.9754885
506.00 0.975103
506.10 0.9747177
506.20 0.9743262
506.30 0.9739168
506.40 0.9735076
506.50 0.9730986
506.60 0.9726899
506.70 0.9722814
506.80 0.9718732
506.90 0.9714652
507.00 0.9710575
507.10 0.9706578
507.20 0.970268
507.30 0.9698581
507.40 0.9694484
507.50 0.9690391
507.60 0.9686299
507.70 0.968221
507.80 0.9678124
507.90 0.9674039
508.00 0.9669958
508.10 0.9665879
508.20 0.9661802
508.30 0.9657728
508.40 0.9653656
508.50 0.9649587
508.60 0.964552
508.70 0.9641456
508.80 0.9637465
508.90 0.9633011
509.00 0.9628327
509.10 0.9623875
509.20 0.9619915
509.30 0.9615957
509.40 0.9612002
509.50 0.9608049
509.60 0.9604098
509.70 0.960015
509.80 0.9596204
509.90 0.9592261
510.00 0.958832
510.10 0.9584381
510.20 0.9580444
510.30 0.957647
510.40 0.9572383
510.50 0.9568298
510.60 0.9564216
510.70 0.9560137
510.80 0.955606
510.90 0.9551985
511.00 0.9547913
511.10 0.9543843
511.20 0.9539776
511.30 0.9535711
511.40 0.9531649
511.50 0.9527589
511.60 0.9523541
511.70 0.9519514
511.80 0.9515489
511.90 0.9511466
512.00 0.9507447
512.10 0.9503429
512.20 0.9499414
512.30 0.9495412
512.40 0.9491444
512.50 0.9487479
512.60 0.9483516
512.70 0.9479555
512.80 0.9475596
512.90 0.947164
513.00 0.9467686
513.10 0.9463735
513.20 0.9459786
513.30 0.9455839
513.40 0.9451895
513.50 0.9447953
513.60 0.9444014
513.70 0.9440076
513.80 0.9436141
513.90 0.9432209
514.00 0.9428217
514.10 0.9424217
514.20 0.942022
514.30 0.9416225
514.40 0.9412232
514.50 0.9408242
514.60 0.9404254
514.70 0.9400269
514.80 0.9396286
514.90 0.9392305
515.00 0.9388327
515.10 0.9384351
515.20 0.9380378
515.30 0.9376407
515.40 0.9372438
515.50 0.9368471
515.60 0.9364508
515.70 0.9360546
515.80 0.9356587
515.90 0.935263
516.00 0.9348675
516.10 0.9344723
516.20 0.9340773
516.30 0.9336826
516.40 0.9332881
516.50 0.9328938
516.60 0.9324998
516.70 0.9321059
516.80 0.9317124
516.90 0.931319
517.00 0.9309259
517.10 0.930533
517.20 0.9301404
517.30 0.929748
517.40 0.9293558
517.50 0.9289639
517.60 0.9285722
517.70 0.9281807
517.80 0.9277895
517.90 0.9273985
518.00 0.9270077
518.10 0.9266171
518.20 0.9262268
518.30 0.9258368
518.40 0.9254469
518.50 0.9250573
518.60 0.9246679
518.70 0.9242788
518.80 0.9238898
518.90 0.9235012
519.00 0.9231127
519.10 0.9227227
519.20 0.922331
519.30 0.9219396
519.40 0.9215484
519.50 0.9211574
519.60 0.9207666
519.70 0.9203761
519.80 0.9199858
519.90 0.9195957
520.00 0.9192059
520.10 0.9188163
520.20 0.9184269
520.30 0.9180378
520.40 0.9176489
520.50 0.9172602
520.60 0.9168717
520.70 0.9164835
520.80 0.9160955
520.90 0.9157078
521.00 0.9153203
521.10 0.914933
521.20 0.9145459
521.30 0.9141591
521.40 0.9137725
521.50 0.9133861
521.60 0.9129999
521.70 0.912614
521.80 0.9122283
521.90 0.9118429
522.00 0.9114577
522.10 0.9110726
522.20 0.9106879
522.30 0.9103033
522.40 0.909919
522.50 0.9095349
522.60 0.9091511
522.70 0.9087674
522.80 0.908384
522.90 0.9080008
523.00 0.9076179
523.10 0.9072351
523.20 0.9068526
523.30 0.9064703
523.40 0.9060883
523.50 0.9057065
523.60 0.9053249
523.70 0.9049435
523.80 0.9045623
523.90 0.9041814
524.00 0.9038007
524.10 0.9034202
524.20 0.90304
524.30 0.9026602
524.40 0.9022807
524.50 0.9019015
524.60 0.9015225
524.70 0.9011437
524.80 0.9007651
524.90 0.9003868
525.00 0.9000087
525.10 0.8996308
525.20 0.8992531
525.30 0.8988756
525.40 0.8984984
525.50 0.8981214
525.60 0.8977446
525.70 0.8973681
525.80 0.8969917
525.90 0.8966156
526.00 0.8962397
526.10 0.895864
526.20 0.8954886
526.30 0.8951133
526.40 0.8947383
526.50 0.8943635
526.60 0.893989
526.70 0.8936146
526.80 0.8932405
526.90 0.8928665
527.00 0.8924929
527.10 0.8921194
527.20 0.8917461
527.30 0.8913731
527.40 0.8910003
527.50 0.8906277
527.60 0.8902553
527.70 0.8898831
527.80 0.8895112
527.90 0.8891394
528.00 0.8887679
528.10 0.8883966
528.20 0.8880256
528.30 0.8876547
528.40 0.8872841
528.50 0.8869136
528.60 0.8865434
528.70 0.8861734
528.80 0.8858037
528.90 0.8854341
529.00 0.8850648
529.10 0.8846956
529.20 0.8843267
529.30 0.883958
529.40 0.8835896
529.50 0.8832197
529.60 0.8828407
529.70 0.8824618
529.80 0.8820831
529.90 0.8817047
530.00 0.8813265
530.10 0.8809486
530.20 0.8805708
530.30 0.8801933
530.40 0.879816
530.50 0.8794389
530.60 0.879062
530.70 0.8786854
530.80 0.8783089
530.90 0.8779327
531.00 0.8775568
531.10 0.877181
531.20 0.8768055
531.30 0.8764301
531.40 0.876055
531.50 0.8756802
531.60 0.8753055
531.70 0.8749311
531.80 0.8745568
531.90 0.8741828
532.00 0.8738091
532.10 0.8734355
532.20 0.8730671
532.30 0.8727015
532.40 0.8723361
532.50 0.8719709
532.60 0.8716059
532.70 0.8712412
532.80 0.8708766
532.90 0.8705123
533.00 0.8701481
533.10 0.8697842
533.20 0.8694205
533.30 0.869057
533.40 0.8686937
533.50 0.8683307
533.60 0.8679678
533.70 0.8676052
533.80 0.8672427
533.90 0.8668805
534.00 0.8665185
534.10 0.8661567
534.20 0.8657951
534.30 0.8654337
534.40 0.8650725
534.50 0.8647115
534.60 0.8643508
534.70 0.8639902
534.80 0.8636285
534.90 0.8632614
535.00 0.8628945
535.10 0.8625278
535.20 0.8621613
535.30 0.861795
535.40 0.861429
535.50 0.8610631
535.60 0.8606975
535.70 0.8603321
535.80 0.8599669
535.90 0.8596019
536.00 0.8592371
536.10 0.8588725
536.20 0.8585082
536.30 0.858144
536.40 0.8577801
536.50 0.8574164
536.60 0.8570529
536.70 0.8566896
536.80 0.8563265
536.90 0.8559636
537.00 0.8556009
537.10 0.8552385
537.20 0.8548762
537.30 0.8545142
537.40 0.8541524
537.50 0.8537907
537.60 0.8534293
537.70 0.8530681
537.80 0.8527072
537.90 0.8523464
538.00 0.8519858
538.10 0.8516255
538.20 0.8512653
538.30 0.8509054
538.40 0.8505456
538.50 0.8501861
538.60 0.8498268
538.70 0.8494677
538.80 0.8491088
538.90 0.8487501
539.00 0.8483916
539.10 0.8480334
539.20 0.8476753
539.30 0.8473174
539.40 0.8469598
539.50 0.8466023
539.60 0.8462451
539.70 0.8458881
539.80 0.8455312
539.90 0.8451746
540.00 0.8448182
540.10 0.844462
540.20 0.8441063
540.30 0.8437509
540.40 0.8433958
540.50 0.8430408
540.60 0.842686
540.70 0.8423315
540.80 0.8419771
540.90 0.841623
541.00 0.8412691
541.10 0.8409153
541.20 0.8405618
541.30 0.8402085
541.40 0.8398554
541.50 0.8395024
541.60 0.8391497
541.70 0.8387972
541.80 0.8384449
541.90 0.8380928
542.00 0.8377409
542.10 0.8373892
542.20 0.8370377
542.30 0.8366864
542.40 0.8363353
542.50 0.8359844
542.60 0.8356337
542.70 0.8352832
542.80 0.8349329
542.90 0.8345829
543.00 0.834233
543.10 0.8338833
543.20 0.8335338
543.30 0.8331845
543.40 0.8328355
543.50 0.8324866
543.60 0.8321379
543.70 0.8317894
543.80 0.8314411
543.90 0.8310931
544.00 0.8307452
544.10 0.8303975
544.20 0.83005
544.30 0.8297027
544.40 0.8293556
544.50 0.8290088
544.60 0.8286621
544.70 0.8283156
544.80 0.8279693
544.90 0.8276232
545.00 0.8272773
545.10 0.8269316
545.20 0.8265861
545.30 0.8262408
545.40 0.8258957
545.50 0.8255508
545.60 0.8252016
545.70 0.8248505
545.80 0.8244997
545.90 0.8241491
546.00 0.8237987
546.10 0.8234484
546.20 0.8230984
546.30 0.8227486
546.40 0.822399
546.50 0.8220496
546.60 0.8217004
546.70 0.8213513
546.80 0.8210025
546.90 0.8206539
547.00 0.8203055
547.10 0.8199573
547.20 0.8196093
547.30 0.8192615
547.40 0.8189138
547.50 0.8185664
547.60 0.8182192
547.70 0.8178722
547.80 0.8175254
547.90 0.8171788
548.00 0.8168323
548.10 0.8164861
548.20 0.8161401
548.30 0.8157942
548.40 0.8154486
548.50 0.8151031
548.60 0.8147579
548.70 0.8144128
548.80 0.814068
548.90 0.8137233
549.00 0.8133789
549.10 0.8130346
549.20 0.8126905
549.30 0.8123467
549.40 0.812003
549.50 0.8116595
549.60 0.8113162
549.70 0.8109731
549.80 0.8106302
549.90 0.8102875
550.00 0.809945
550.10 0.8096027
550.20 0.8092606
550.30 0.8089187
550.40 0.808577
550.50 0.8082355
550.60 0.8078941
550.70 0.807553
550.80 0.8072121
550.90 0.8068713
551.00 0.8065308
551.10 0.806191
551.20 0.8058513
551.30 0.8055118
551.40 0.8051725
551.50 0.8048334
551.60 0.8044945
551.70 0.8041558
551.80 0.8038173
551.90 0.8034789
552.00 0.8031408
552.10 0.8028029
552.20 0.8024651
552.30 0.8021275
552.40 0.8017902
552.50 0.801453
552.60 0.801116
552.70 0.8007792
552.80 0.8004426
552.90 0.8001062
553.00 0.79977
553.10 0.7994339
553.20 0.7990981
553.30 0.7987625
553.40 0.798427
553.50 0.7980917
553.60 0.7977567
553.70 0.7974218
553.80 0.7970871
553.90 0.7967526
554.00 0.7964182
554.10 0.7960841
554.20 0.7957502
554.30 0.7954164
554.40 0.7950829
554.50 0.7947495
554.60 0.7944163
554.70 0.7940833
554.80 0.7937505
554.90 0.7934179
555.00 0.7930855
555.10 0.7927532
555.20 0.7924212
555.30 0.7920893
555.40 0.7917576
555.50 0.7914261
555.60 0.7910948
555.70 0.7907637
555.80 0.7904328
555.90 0.790102
556.00 0.7897715
556.10 0.7894411
556.20 0.7891109
556.30 0.7887809
556.40 0.7884511
556.50 0.7881213
556.60 0.7877891
556.70 0.787457
556.80 0.7871251
556.90 0.7867934
557.00 0.7864619
557.10 0.7861306
557.20 0.7857995
557.30 0.7854686
557.40 0.7851378
557.50 0.7848072
557.60 0.7844768
557.70 0.7841467
557.80 0.7838166
557.90 0.7834868
558.00 0.7831572
558.10 0.7828277
558.20 0.7824985
558.30 0.7821694
558.40 0.7818405
558.50 0.7815118
558.60 0.7811833
558.70 0.7808549
558.80 0.7805268
558.90 0.7801988
559.00 0.779871
559.10 0.7795434
559.20 0.779216
559.30 0.7788888
559.40 0.7785617
559.50 0.7782349
559.60 0.7779082
559.70 0.7775817
559.80 0.7772554
559.90 0.7769293
560.00 0.7766033
560.10 0.7762776
560.20 0.775952
560.30 0.7756266
560.40 0.7753014
560.50 0.7749763
560.60 0.7746515
560.70 0.7743268
560.80 0.7740023
560.90 0.773678
561.00 0.7733539
561.10 0.77303
561.20 0.7727062
561.30 0.7723827
561.40 0.7720593
561.50 0.7717361
561.60 0.771413
561.70 0.7710902
561.80 0.7707675
561.90 0.770445
562.00 0.7701227
562.10 0.7697995
562.20 0.7694749
562.30 0.7691505
562.40 0.7688262
562.50 0.7685021
562.60 0.7681782
562.70 0.7678545
562.80 0.7675309
562.90 0.7672076
563.00 0.7668844
563.10 0.7665614
563.20 0.7662386
563.30 0.765916
563.40 0.7655935
563.50 0.7652712
563.60 0.7649491
563.70 0.7646272
563.80 0.7643055
563.90 0.7639839
564.00 0.7636626
564.10 0.7633414
564.20 0.7630204
564.30 0.7626995
564.40 0.7623789
564.50 0.7620584
564.60 0.7617381
564.70 0.761418
564.80 0.7610981
564.90 0.7607783
565.00 0.7604587
565.10 0.7601393
565.20 0.7598201
565.30 0.759501
565.40 0.7591821
565.50 0.7588634
565.60 0.7585449
565.70 0.7582265
565.80 0.7579084
565.90 0.7575904
566.00 0.7572725
566.10 0.7569549
566.20 0.7566374
566.30 0.7563202
566.40 0.7560031
566.50 0.7556861
566.60 0.7553694
566.70 0.7550528
566.80 0.7547364
566.90 0.7544202
567.00 0.7541041
567.10 0.7537882
567.20 0.7534725
567.30 0.753157
567.40 0.7528417
567.50 0.7525265
567.60 0.7522115
567.70 0.7518962
567.80 0.751579
567.90 0.7512619
568.00 0.750945
568.10 0.7506283
568.20 0.7503118
568.30 0.7499955
568.40 0.7496793
568.50 0.7493633
568.60 0.7490475
568.70 0.7487319
568.80 0.7484164
568.90 0.7481011
569.00 0.747786
569.10 0.747471
569.20 0.7471563
569.30 0.7468417
569.40 0.7465273
569.50 0.746213
569.60 0.745899
569.70 0.7455851
569.80 0.7452714
569.90 0.7449578
570.00 0.7446445
570.10 0.7443313
570.20 0.7440182
570.30 0.7437054
570.40 0.7433927
570.50 0.7430802
570.60 0.7427679
570.70 0.7424557
570.80 0.7421438
570.90 0.741832
571.00 0.7415203
571.10 0.7412089
571.20 0.7408976
571.30 0.7405865
571.40 0.7402755
571.50 0.7399648
571.60 0.7396542
571.70 0.7393437
571.80 0.7390335
571.90 0.7387234
572.00 0.7384135
572.10 0.7381037
572.20 0.7377942
572.30 0.7374848
572.40 0.7371756
572.50 0.7368665
572.60 0.7365576
572.70 0.7362489
572.80 0.7359404
572.90 0.735632
573.00 0.7353238
573.10 0.7350158
573.20 0.7347079
573.30 0.7344002
573.40 0.7340937
573.50 0.7337887
573.60 0.733484
573.70 0.7331793
573.80 0.7328749
573.90 0.7325706
574.00 0.7322665
574.10 0.7319626
574.20 0.7316588
574.30 0.7313552
574.40 0.7310518
574.50 0.7307485
574.60 0.7304454
574.70 0.7301424
574.80 0.7298397
574.90 0.7295371
575.00 0.7292346
575.10 0.7289323
575.20 0.7286302
575.30 0.7283283
575.40 0.7280265
575.50 0.7277249
575.60 0.7274235
575.70 0.7271222
575.80 0.7268211
575.90 0.7265201
576.00 0.7262193
576.10 0.7259187
576.20 0.7256183
576.30 0.725318
576.40 0.7250179
576.50 0.7247179
576.60 0.7244181
576.70 0.7241185
576.80 0.723819
576.90 0.7235197
577.00 0.7232206
577.10 0.7229216
577.20 0.7226228
577.30 0.7223241
577.40 0.7220256
577.50 0.7217273
577.60 0.7214265
577.70 0.7211215
577.80 0.7208166
577.90 0.7205119
578.00 0.7202074
578.10 0.7199031
578.20 0.7195989
578.30 0.7192949
578.40 0.718991
578.50 0.7186874
578.60 0.7183838
578.70 0.7180805
578.80 0.7177773
578.90 0.7174743
579.00 0.7171715
579.10 0.716869
579.20 0.7165696
579.30 0.7162703
579.40 0.7159711
579.50 0.7156721
579.60 0.7153733
579.70 0.7150746
579.80 0.7147761
579.90 0.7144778
580.00 0.7141796
580.10 0.7138822
580.20 0.7135859
580.30 0.7132897
580.40 0.7129937
580.50 0.7126978
580.60 0.7124021
580.70 0.7121066
580.80 0.7118112
580.90 0.711516
581.00 0.711221
581.10 0.7109261
581.20 0.7106313
581.30 0.7103368
581.40 0.7100424
581.50 0.7097481
581.60 0.709454
581.70 0.7091601
581.80 0.7088663
581.90 0.7085727
582.00 0.7082793
582.10 0.7079839
582.20 0.7076852
582.30 0.7073867
582.40 0.7070884
582.50 0.7067902
582.60 0.7064922
582.70 0.7061943
582.80 0.7058966
582.90 0.7055991
583.00 0.7053017
583.10 0.7050045
583.20 0.7047075
583.30 0.7044106
583.40 0.7041138
583.50 0.7038173
583.60 0.7035228
583.70 0.7032316
583.80 0.7029405
583.90 0.7026496
584.00 0.7023589
584.10 0.7020683
584.20 0.7017779
584.30 0.7014876
584.40 0.7011975
584.50 0.7009075
584.60 0.7006177
584.70 0.7003281
584.80 0.7000386
584.90 0.6997477
585.00 0.6994496
585.10 0.6991517
585.20 0.6988512
585.30 0.6985466
585.40 0.6982421
585.50 0.6979377
585.60 0.6976336
585.70 0.6973296
585.80 0.6970258
585.90 0.6967221
586.00 0.6964186
586.10 0.6961153
586.20 0.6958163
586.30 0.6955243
586.40 0.6952324
586.50 0.6949406
586.60 0.6946491
586.70 0.6943576
586.80 0.6940716
586.90 0.6937941
587.00 0.6935168
587.10 0.6932397
587.20 0.6929782
587.30 0.6927422
587.40 0.6923511
587.50 0.6921072
587.60 0.6918717
587.70 0.6914729
587.80 0.6912376
587.90 0.6910025
588.00 0.6907365
588.10 0.69042
588.20 0.6901037
588.30 0.6897876
588.40 0.689482
588.50 0.6891934
588.60 0.688905
588.70 0.6886167
588.80 0.6883286
588.90 0.6880406
589.00 0.6877548
589.10 0.6874726
589.20 0.6871905
589.30 0.6869085
589.40 0.6866268
589.50 0.6863451
589.60 0.6860636
589.70 0.6857823
589.80 0.6855011
589.90 0.6852201
590.00 0.6849336
590.10 0.6846383
590.20 0.6843431
590.30 0.6840481
590.40 0.6837533
590.50 0.6834586
590.60 0.6831641
590.70 0.6828697
590.80 0.6825921
590.90 0.6823222
591.00 0.6820525
591.10 0.6817829
591.20 0.6815134
591.30 0.6812441
591.40 0.6809749
591.50 0.6807058
591.60 0.6804312
591.70 0.6801476
591.80 0.679864
591.90 0.6795806
592.00 0.6792974
592.10 0.6790143
592.20 0.6787314
592.30 0.6784486
592.40 0.678166
592.50 0.6778835
592.60 0.6776012
592.70 0.677319
592.80 0.677037
592.90 0.6767552
593.00 0.6764735
593.10 0.6761909
593.20 0.6759068
593.30 0.6756229
593.40 0.6753391
593.50 0.6750555
593.60 0.674772
593.70 0.6744887
593.80 0.6742055
593.90 0.6739225
594.00 0.6736397
594.10 0.673357
594.20 0.6730744
594.30 0.672792
594.40 0.6725098
594.50 0.6722277
594.60 0.6719457
594.70 0.6716639
594.80 0.6713823
594.90 0.6711008
595.00 0.6708194
595.10 0.6705402
595.20 0.6702644
595.30 0.6699887
595.40 0.6697132
595.50 0.6694378
595.60 0.6691626
595.70 0.6688875
595.80 0.6686126
595.90 0.6683378
596.00 0.6680631
596.10 0.6677886
596.20 0.6675143
596.30 0.6672401
596.40 0.666966
596.50 0.6666921
596.60 0.6664183
596.70 0.666144
596.80 0.6658693
596.90 0.6655948
597.00 0.6653204
597.10 0.6650462
597.20 0.6647722
597.30 0.6644982
597.40 0.6642245
597.50 0.6639508
597.60 0.6636761
597.70 0.6633996
597.80 0.6631231
597.90 0.6628468
598.00 0.6625707
598.10 0.6622947
598.20 0.6620189
598.30 0.6617432
598.40 0.6614676
598.50 0.6611922
598.60 0.660917
598.70 0.6606419
598.80 0.6603669
598.90 0.6600921
599.00 0.6598174
599.10 0.6595429
599.20 0.6592685
599.30 0.6589943
599.40 0.6587195
599.50 0.6584448
599.60 0.6581703
599.70 0.6578959
599.80 0.6576216
599.90 0.6573475
600.00 0.6570736
600.10 0.6567998
600.20 0.6565261
600.30 0.6562526
600.40 0.6559792
600.50 0.655706
600.60 0.6554329
600.70 0.65516
600.80 0.6548872
600.90 0.6546146
601.00 0.6543421
601.10 0.6540697
601.20 0.6537975
601.30 0.6535255
601.40 0.6532484
601.50 0.6529715
601.60 0.6526947
601.70 0.652418
601.80 0.6521415
601.90 0.6518652
602.00 0.651589
602.10 0.6513129
602.20 0.651037
602.30 0.6507613
602.40 0.6504857
602.50 0.6502102
602.60 0.6499349
602.70 0.6497163
602.80 0.6495007
602.90 0.6492271
603.00 0.6489536
603.10 0.6486802
603.20 0.648407
603.30 0.6481339
603.40 0.647861
603.50 0.6475882
603.60 0.6473156
603.70 0.6470431
603.80 0.6467708
603.90 0.6464986
604.00 0.6462265
604.10 0.6459546
604.20 0.6456829
604.30 0.6454113
604.40 0.6451398
604.50 0.6448646
604.60 0.6445896
604.70 0.6443147
604.80 0.6440399
604.90 0.6437653
605.00 0.6434909
605.10 0.6432165
605.20 0.6429424
605.30 0.6426684
605.40 0.6423945
605.50 0.642131
605.60 0.6418677
605.70 0.6416045
605.80 0.6413415
605.90 0.6410786
606.00 0.6408158
606.10 0.6405659
606.20 0.6403162
606.30 0.6400667
606.40 0.6398172
606.50 0.6395296
606.60 0.6392421
606.70 0.6390313
606.80 0.6387441
606.90 0.6384571
607.00 0.6382467
607.10 0.6379599
607.20 0.6376733
607.30 0.6374251
607.40 0.637177
607.50 0.636929
607.60 0.6366812
607.70 0.6364207
607.80 0.6361604
607.90 0.6359002
608.00 0.6356402
608.10 0.6353803
608.20 0.6351205
608.30 0.634841
608.40 0.6345616
608.50 0.6342823
608.60 0.6340032
608.70 0.6337361
608.80 0.6334744
608.90 0.6332128
609.00 0.6329514
609.10 0.6326902
609.20 0.632429
609.30 0.6321645
609.40 0.6319
609.50 0.6316358
609.60 0.6313716
609.70 0.6311076
609.80 0.6308437
609.90 0.63058
610.00 0.6303164
610.10 0.630053
610.20 0.6297896
610.30 0.6295265
610.40 0.6292634
610.50 0.6290005
610.60 0.6287378
610.70 0.6284752
610.80 0.6282127
610.90 0.6279566
611.00 0.6277007
611.10 0.6274449
611.20 0.6271893
611.30 0.6269338
611.40 0.6266784
611.50 0.6264232
611.60 0.6261681
611.70 0.6259131
611.80 0.6256582
611.90 0.6254035
612.00 0.625149
612.10 0.6248945
612.20 0.6246402
612.30 0.624386
612.40 0.6241295
612.50 0.6238731
612.60 0.6236168
612.70 0.6233606
612.80 0.6231046
612.90 0.6228487
613.00 0.622593
613.10 0.6223374
613.20 0.6220819
613.30 0.6218265
613.40 0.6215713
613.50 0.6213162
613.60 0.6210613
613.70 0.6208065
613.80 0.6205518
613.90 0.6202972
614.00 0.6200428
614.10 0.6197885
614.20 0.6195344
614.30 0.6192804
614.40 0.6190071
614.50 0.618734
614.60 0.618461
614.70 0.6181882
614.80 0.6179333
614.90 0.6176822
615.00 0.6174312
615.10 0.6171804
615.20 0.6169296
615.30 0.6166791
615.40 0.6164286
615.50 0.6161783
615.60 0.6159281
615.70 0.615678
615.80 0.615428
615.90 0.6151782
616.00 0.6149285
616.10 0.614679
616.20 0.6144296
616.30 0.6141803
616.40 0.6139311
616.50 0.6136821
616.60 0.6134332
616.70 0.6131844
616.80 0.6129357
616.90 0.6126823
617.00 0.612429
617.10 0.6121759
617.20 0.6119228
617.30 0.6116699
617.40 0.6114172
617.50 0.6111646
617.60 0.6109121
617.70 0.6106597
617.80 0.6104075
617.90 0.6101554
618.00 0.6099034
618.10 0.6096516
618.20 0.6093998
618.30 0.6091483
618.40 0.6088968
618.50 0.6086455
618.60 0.6083943
618.70 0.6081433
618.80 0.6078923
618.90 0.6076415
619.00 0.6073909
619.10 0.6071404
619.20 0.6068899
619.30 0.6066397
619.40 0.6063895
619.50 0.6061395
619.60 0.6058896
619.70 0.6056399
619.80 0.6053903
619.90 0.6051408
620.00 0.6048914
620.10 0.6046422
620.20 0.6043931
620.30 0.6041441
620.40 0.6038952
620.50 0.6036465
620.60 0.6033979
620.70 0.6031495
620.80 0.6029011
620.90 0.602652
621.00 0.6024014
621.10 0.6021509
621.20 0.6019005
621.30 0.6016503
621.40 0.6014002
621.50 0.6011502
621.60 0.6009003
621.70 0.6006506
621.80 0.600401
621.90 0.6001516
622.00 0.5999023
622.10 0.5996531
622.20 0.599404
622.30 0.599155
622.40 0.5989062
622.50 0.5986575
622.60 0.598409
622.70 0.5981606
622.80 0.5979123
622.90 0.5976641
623.00 0.5974161
623.10 0.5971681
623.20 0.5969204
623.30 0.5966727
623.40 0.5964252
623.50 0.5961778
623.60 0.5959305
623.70 0.5956834
623.80 0.5954364
623.90 0.5951895
624.00 0.5949427
624.10 0.5946961
624.20 0.5944496
624.30 0.5942032
624.40 0.5939569
624.50 0.5937108
624.60 0.5934648
624.70 0.593219
624.80 0.5929732
624.90 0.5927276
625.00 0.5924821
625.10 0.5922368
625.20 0.5919915
625.30 0.5917464
625.40 0.5915014
625.50 0.5912566
625.60 0.5910118
625.70 0.5907672
625.80 0.5905228
625.90 0.5902784
626.00 0.5900342
626.10 0.5897901
626.20 0.5895461
626.30 0.5893023
626.40 0.5890586
626.50 0.588815
626.60 0.5885715
626.70 0.5883281
626.80 0.5880849
626.90 0.5878418
627.00 0.5875989
627.10 0.5873574
627.20 0.5871198
627.30 0.5868823
627.40 0.586645
627.50 0.5864077
627.60 0.5861706
627.70 0.5859336
627.80 0.5856967
627.90 0.58546
628.00 0.5852233
628.10 0.5849868
628.20 0.5847504
628.30 0.5845142
628.40 0.584278
628.50 0.584042
628.60 0.5838061
628.70 0.5835703
628.80 0.5833346
628.90 0.5830991
629.00 0.5828636
629.10 0.5826283
629.20 0.5823931
629.30 0.5821581
629.40 0.5819231
629.50 0.5816883
629.60 0.5814536
629.70 0.581219
629.80 0.5809845
629.90 0.5807502
630.00 0.580516
630.10 0.5802818
630.20 0.5800479
630.30 0.5798098
630.40 0.5795716
630.50 0.5793334
630.60 0.5790954
630.70 0.5788575
630.80 0.5786197
630.90 0.5783821
631.00 0.5781446
631.10 0.5779072
631.20 0.5776699
631.30 0.5774327
631.40 0.5771957
631.50 0.5769587
631.60 0.5767219
631.70 0.5764852
631.80 0.5762487
631.90 0.5760122
632.00 0.5757759
632.10 0.5755397
632.20 0.5753036
632.30 0.5750677
632.40 0.5748318
632.50 0.5745961
632.60 0.5743605
632.70 0.5741251
632.80 0.5738897
632.90 0.5736545
633.00 0.5734193
633.10 0.5731844
633.20 0.5729495
633.30 0.5727147
633.40 0.5724804
633.50 0.5722464
633.60 0.5720125
633.70 0.5717787
633.80 0.5715451
633.90 0.5713115
634.00 0.5710781
634.10 0.5708448
634.20 0.5706116
634.30 0.5703786
634.40 0.5701456
634.50 0.5699128
634.60 0.5696801
634.70 0.5694475
634.80 0.5692151
634.90 0.5689827
635.00 0.5687505
635.10 0.5685184
635.20 0.5682864
635.30 0.5680545
635.40 0.5678228
635.50 0.5675911
635.60 0.5673596
635.70 0.5671282
635.80 0.5668969
635.90 0.5666658
636.00 0.5664347
636.10 0.5662038
636.20 0.565973
636.30 0.5657423
636.40 0.5655117
636.50 0.5652812
636.60 0.5650469
636.70 0.5648123
636.80 0.5645778
636.90 0.5643435
637.00 0.5641092
637.10 0.5638751
637.20 0.5636411
637.30 0.5634072
637.40 0.5631734
637.50 0.5629397
637.60 0.5627062
637.70 0.5624728
637.80 0.5622395
637.90 0.5620063
638.00 0.5617732
638.10 0.5615403
638.20 0.5613075
638.30 0.5610748
638.40 0.5608422
638.50 0.5606097
638.60 0.5603774
638.70 0.5601451
638.80 0.559913
638.90 0.559681
639.00 0.5594491
639.10 0.5592174
639.20 0.5589857
639.30 0.5587542
639.40 0.5585228
639.50 0.5582915
639.60 0.5580603
639.70 0.5578304
639.80 0.5576043
639.90 0.5573784
640.00 0.5571525
640.10 0.5569268
640.20 0.5567012
640.30 0.5564757
640.40 0.5562503
640.50 0.5560251
640.60 0.5557999
640.70 0.5555749
640.80 0.5553499
640.90 0.5551251
641.00 0.5549004
641.10 0.5546758
641.20 0.5544513
641.30 0.554227
641.40 0.5540027
641.50 0.5537786
641.60 0.5535546
641.70 0.5533307
641.80 0.5531069
641.90 0.5528832
642.00 0.5526596
642.10 0.5524361
642.20 0.5522128
642.30 0.5519896
642.40 0.5517664
642.50 0.5515434
642.60 0.5513205
642.70 0.5510977
642.80 0.5508751
642.90 0.5506525
643.00 0.55043
643.10 0.5502077
643.20 0.5499854
643.30 0.5497633
643.40 0.5495413
643.50 0.5493194
643.60 0.5490976
643.70 0.5488759
643.80 0.5486543
643.90 0.5484328
644.00 0.5482115
644.10 0.5479902
644.20 0.5477691
644.30 0.5475481
644.40 0.5473272
644.50 0.5471064
644.60 0.5468857
644.70 0.5466651
644.80 0.5464446
644.90 0.5462243
645.00 0.546004
645.10 0.5457839
645.20 0.5455639
645.30 0.5453439
645.40 0.5451241
645.50 0.5449044
645.60 0.5446848
645.70 0.5444654
645.80 0.544246
645.90 0.5440267
646.00 0.5438076
646.10 0.5435876
646.20 0.543365
646.30 0.5431425
646.40 0.5429201
646.50 0.5426978
646.60 0.5424757
646.70 0.5422536
646.80 0.5420317
646.90 0.5418099
647.00 0.5415881
647.10 0.5413665
647.20 0.541145
647.30 0.5409237
647.40 0.5407024
647.50 0.5404812
647.60 0.5402602
647.70 0.5400392
647.80 0.5398184
647.90 0.5395977
648.00 0.5393771
648.10 0.5391566
648.20 0.5389362
648.30 0.5387159
648.40 0.5384957
648.50 0.5382757
648.60 0.5380557
648.70 0.5378359
648.80 0.5376162
648.90 0.5373966
649.00 0.537177
649.10 0.5369576
649.20 0.5367384
649.30 0.5365192
649.40 0.5363001
649.50 0.5360812
649.60 0.5358624
649.70 0.5356436
649.80 0.535425
649.90 0.5352065
650.00 0.5349881
650.10 0.5347698
650.20 0.5345516
650.30 0.5343336
650.40 0.5341156
650.50 0.5338978
650.60 0.53368
650.70 0.5334624
650.80 0.5332449
650.90 0.5330274
651.00 0.5328101
651.10 0.5325929
651.20 0.5323758
651.30 0.5321589
651.40 0.531942
651.50 0.5317252
651.60 0.5315086
651.70 0.531292
651.80 0.5310756
651.90 0.5308592
652.00 0.530643
652.10 0.5304269
652.20 0.5302109
652.30 0.5299949
652.40 0.5297792
652.50 0.5295635
652.60 0.5293499
652.70 0.5291375
652.80 0.5289252
652.90 0.528713
653.00 0.5285009
653.10 0.5282889
653.20 0.528077
653.30 0.5278653
653.40 0.5276536
653.50 0.527442
653.60 0.5272306
653.70 0.5270192
653.80 0.526808
653.90 0.5265968
654.00 0.5263858
654.10 0.5261748
654.20 0.525964
654.30 0.5257533
654.40 0.5255427
654.50 0.5253321
654.60 0.5251217
654.70 0.5249114
654.80 0.5247012
654.90 0.5244911
655.00 0.5242811
655.10 0.5240712
655.20 0.5238614
655.30 0.5236517
655.40 0.5234421
655.50 0.5232327
655.60 0.5230233
655.70 0.522814
655.80 0.5226021
655.90 0.5223903
656.00 0.5221786
656.10 0.521967
656.20 0.5217555
656.30 0.5215441
656.40 0.5213329
656.50 0.5211217
656.60 0.5209106
656.70 0.5206997
656.80 0.5204888
656.90 0.520278
657.00 0.5200674
657.10 0.5198568
657.20 0.5196464
657.30 0.5194361
657.40 0.5192258
657.50 0.5190157
657.60 0.5188057
657.70 0.5185957
657.80 0.5183247
657.90 0.5181056
658.00 0.5178958
658.10 0.5176861
658.20 0.5174765
658.30 0.5172671
658.40 0.5170577
658.50 0.5168484
658.60 0.5166392
658.70 0.5164301
658.80 0.5162212
658.90 0.5160123
659.00 0.5158035
659.10 0.5156157
659.20 0.5154593
659.30 0.5152447
659.40 0.5150303
659.50 0.5148159
659.60 0.5146017
659.70 0.5143876
659.80 0.5141735
659.90 0.5139596
660.00 0.5137458
660.10 0.5135321
660.20 0.5133185
660.30 0.513105
660.40 0.5128955
660.50 0.5126869
660.60 0.5124784
660.70 0.51227
660.80 0.5120617
660.90 0.511855
661.00 0.5116485
661.10 0.5114421
661.20 0.5112358
661.30 0.5110296
661.40 0.5108235
661.50 0.5106175
661.60 0.5104116
661.70 0.5102058
661.80 0.5100001
661.90 0.509796
662.00 0.509592
662.10 0.5093881
662.20 0.5091843
662.30 0.5089806
662.40 0.5088194
662.50 0.5086015
662.60 0.5083838
662.70 0.5081661
662.80 0.5079486
662.90 0.5077953
663.00 0.5076422
663.10 0.5073608
663.20 0.5072078
663.30 0.5069266
663.40 0.5067738
663.50 0.506557
663.60 0.5063402
663.70 0.5061281
663.80 0.5059161
663.90 0.5057547
664.00 0.5056024
664.10 0.5053862
664.20 0.5051701
664.30 0.5049541
664.40 0.5047382
664.50 0.5045224
664.60 0.5043067
664.70 0.504108
664.80 0.5039093
664.90 0.5037108
665.00 0.5035123
665.10 0.503314
665.20 0.5031157
665.30 0.5029176
665.40 0.5027195
665.50 0.5025029
665.60 0.5022831
665.70 0.5021077
665.80 0.5019069
665.90 0.5017062
666.00 0.5015056
666.10 0.5013051
666.20 0.5011047
666.30 0.5009044
666.40 0.5007042
666.50 0.5004925
666.60 0.5002788
666.70 0.5000653
666.80 0.4998519
666.90 0.4996386
667.00 0.4994253
667.10 0.4992661
667.20 0.4991165
667.30 0.4989079
667.40 0.4986995
667.50 0.4984875
667.60 0.4982749
667.70 0.4981161
667.80 0.4978404
667.90 0.4976914
668.00 0.4974633
668.10 0.497267
668.20 0.4971182
668.30 0.4969158
668.40 0.4967039
668.50 0.4964922
668.60 0.4962806
668.70 0.4961227
668.80 0.4959254
668.90 0.4957281
669.00 0.495531
669.10 0.495334
669.20 0.495137
669.30 0.4949282
669.40 0.4947174
669.50 0.4945067
669.60 0.4942961
669.70 0.4940855
669.80 0.4938751
669.90 0.4936648
670.00 0.4934546
670.10 0.4932446
670.20 0.4930346
670.30 0.492856
670.40 0.4926831
670.50 0.4925103
670.60 0.4923376
670.70 0.4921649
670.80 0.491962
670.90 0.4917591
671.00 0.4915563
671.10 0.4913537
671.20 0.4911511
671.30 0.4909487
671.40 0.4907463
671.50 0.490544
671.60 0.4903419
671.70 0.4901398
671.80 0.4899378
671.90 0.4897404
672.00 0.4895439
672.10 0.4893474
672.20 0.4891511
672.30 0.4889549
672.40 0.4887539
672.50 0.4885527
672.60 0.4883515
672.70 0.4881505
672.80 0.4879496
672.90 0.4877488
673.00 0.487548
673.10 0.4873474
673.20 0.4871468
673.30 0.4870021
673.40 0.4868152
673.50 0.4866209
673.60 0.4864267
673.70 0.4862326
673.80 0.4860386
673.90 0.4858446
674.00 0.4856508
674.10 0.485457
674.20 0.4852634
674.30 0.4850698
674.40 0.4848764
674.50 0.484683
674.60 0.4844897
674.70 0.4842966
674.80 0.4841035
674.90 0.4839105
675.00 0.4837176
675.10 0.4835248
675.20 0.483332
675.30 0.4831394
675.40 0.4829469
675.50 0.4827544
675.60 0.4825621
675.70 0.4823698
675.80 0.4821777
675.90 0.4819856
676.00 0.4817936
676.10 0.4816018
676.20 0.48141
676.30 0.4812183
676.40 0.4810267
676.50 0.4808352
676.60 0.4806437
676.70 0.4804524
676.80 0.4802612
676.90 0.48007
677.00 0.479879
677.10 0.479688
677.20 0.4794971
677.30 0.4793064
677.40 0.4791157
677.50 0.4789251
677.60 0.4787346
677.70 0.4785442
677.80 0.4783539
677.90 0.4781624
678.00 0.4779709
678.10 0.4777794
678.20 0.4775881
678.30 0.4773968
678.40 0.4772056
678.50 0.4770145
678.60 0.4768235
678.70 0.4766326
678.80 0.4764418
678.90 0.4762511
679.00 0.4760604
679.10 0.4758698
679.20 0.4756793
679.30 0.4754888
679.40 0.4752985
679.50 0.4751082
679.60 0.474918
679.70 0.4747279
679.80 0.4745379
679.90 0.474348
680.00 0.4741582
680.10 0.4739684
680.20 0.4737788
680.30 0.4735892
680.40 0.4733998
680.50 0.4732104
680.60 0.4730212
680.70 0.472832
680.80 0.4726429
680.90 0.4724539
681.00 0.472265
681.10 0.4720761
681.20 0.4718874
681.30 0.4716988
681.40 0.4715102
681.50 0.4713218
681.60 0.4711334
681.70 0.4709451
681.80 0.4707569
681.90 0.4705688
682.00 0.4703808
682.10 0.4701929
682.20 0.4700051
682.30 0.4698173
682.40 0.4696297
682.50 0.4694421
682.60 0.4692547
682.70 0.4690673
682.80 0.46888
682.90 0.4686928
683.00 0.4685057
683.10 0.4683187
683.20 0.4681317
683.30 0.4679449
683.40 0.4677581
683.50 0.4675715
683.60 0.4673849
683.70 0.4671984
683.80 0.467012
683.90 0.4668257
684.00 0.4666395
684.10 0.4664534
684.20 0.4662673
684.30 0.4660814
684.40 0.4658955
684.50 0.4657097
684.60 0.465524
684.70 0.4653384
684.80 0.4651529
684.90 0.4649675
685.00 0.4647822
685.10 0.4645969
685.20 0.4644118
685.30 0.4642267
685.40 0.4640417
685.50 0.4638569
685.60 0.4636721
685.70 0.4634873
685.80 0.4633027
685.90 0.4631186
686.00 0.4629346
686.10 0.4627508
686.20 0.462567
686.30 0.4623833
686.40 0.4621997
686.50 0.4620162
686.60 0.4618327
686.70 0.4616494
686.80 0.4614661
686.90 0.461283
687.00 0.4610999
687.10 0.4609169
687.20 0.460734
687.30 0.4605512
687.40 0.4603684
687.50 0.4601858
687.60 0.4600032
687.70 0.4598208
687.80 0.4596384
687.90 0.4594561
688.00 0.4592739
688.10 0.4590918
688.20 0.4589097
688.30 0.4587278
688.40 0.4585459
688.50 0.4583641
688.60 0.4581824
688.70 0.4580008
688.80 0.4578193
688.90 0.4576379
689.00 0.4574565
689.10 0.4572752
689.20 0.4570941
689.30 0.456913
689.40 0.456732
689.50 0.4565511
689.60 0.4563702
689.70 0.4561895
689.80 0.4560088
689.90 0.4558282
690.00 0.4556477
690.10 0.4554673
690.20 0.455287
690.30 0.4551068
690.40 0.4549266
690.50 0.4547466
690.60 0.4545666
690.70 0.4543867
690.80 0.4542069
690.90 0.4540272
691.00 0.4538475
691.10 0.453668
691.20 0.4534885
691.30 0.4533091
691.40 0.4531298
691.50 0.4529506
691.60 0.4527715
691.70 0.4525924
691.80 0.4524135
691.90 0.4522346
692.00 0.4520558
692.10 0.4518771
692.20 0.4516985
692.30 0.4515199
692.40 0.4513415
692.50 0.4511631
692.60 0.4509848
692.70 0.4508064
692.80 0.4506273
692.90 0.4504483
693.00 0.4502693
693.10 0.4500905
693.20 0.4499117
693.30 0.449733
693.40 0.4495544
693.50 0.4493759
693.60 0.4491975
693.70 0.4490191
693.80 0.4488408
693.90 0.4486627
694.00 0.4484846
694.10 0.4483065
694.20 0.4481286
694.30 0.4479508
694.40 0.447773
694.50 0.4475953
694.60 0.4474177
694.70 0.4472402
694.80 0.4470628
694.90 0.4468855
695.00 0.4467082
695.10 0.446531
695.20 0.4463539
695.30 0.4461769
695.40 0.446
695.50 0.4458231
695.60 0.4456464
695.70 0.4454697
695.80 0.4452931
695.90 0.4451166
696.00 0.4449402
696.10 0.4447638
696.20 0.4445876
696.30 0.4444114
696.40 0.4442353
696.50 0.4440593
696.60 0.4438849
696.70 0.443711
696.80 0.4435372
696.90 0.4433634
697.00 0.4431898
697.10 0.4430162
697.20 0.4428427
697.30 0.4426692
697.40 0.4424959
697.50 0.4423226
697.60 0.4421495
697.70 0.4419764
697.80 0.4418034
697.90 0.4416304
698.00 0.4414576
698.10 0.4412848
698.20 0.4411121
698.30 0.4409395
698.40 0.440767
698.50 0.4405945
698.60 0.4404221
698.70 0.4402498
698.80 0.4400776
698.90 0.4399055
699.00 0.4397335
699.10 0.439551
699.20 0.4393662
699.30 0.4391815
699.40 0.4389969
699.50 0.4388123
699.60 0.4386279
699.70 0.4384609
699.80 0.4382948
699.90 0.4381289
700.00 0.437963
700.10 0.4377972
700.20 0.4376314
700.30 0.4374658
700.40 0.4373002
700.50 0.4371347
700.60 0.4369693
700.70 0.4368039
700.80 0.4366386
700.90 0.4364734
701.00 0.4363083
701.10 0.4361328
701.20 0.4359548
701.30 0.435777
701.40 0.4355992
701.50 0.4354215
701.60 0.4352439
701.70 0.4350664
701.80 0.434889
701.90 0.4347116
702.00 0.4345343
702.10 0.4343572
702.20 0.4341801
702.30 0.434003
702.40 0.4338261
702.50 0.4336492
702.60 0.433481
702.70 0.4333147
702.80 0.4331486
702.90 0.4329825
703.00 0.4328166
703.10 0.4326507
703.20 0.4324848
703.30 0.4323191
703.40 0.4321534
703.50 0.4319878
703.60 0.4318223
703.70 0.4316568
703.80 0.4314915
703.90 0.4313262
704.00 0.4311609
704.10 0.4309958
704.20 0.4308284
704.30 0.4306606
704.40 0.4304929
704.50 0.4303252
704.60 0.4301576
704.70 0.4299901
704.80 0.4298226
704.90 0.4296553
705.00 0.429488
705.10 0.4293208
705.20 0.4291444
705.30 0.4289661
705.40 0.4287877
705.50 0.4286095
705.60 0.4284314
705.70 0.4282533
705.80 0.4280983
705.90 0.4279487
706.00 0.4277992
706.10 0.4276497
706.20 0.4274774
706.30 0.4272998
706.40 0.4270551
706.50 0.4269342
706.60 0.4268105
706.70 0.4265796
706.80 0.4264131
706.90 0.4262361
707.00 0.4260819
707.10 0.4259332
707.20 0.4257845
707.30 0.425636
707.40 0.4254646
707.50 0.425288
707.60 0.4251114
707.70 0.424935
707.80 0.4247586
707.90 0.4245823
708.00 0.4244152
708.10 0.4242504
708.20 0.4240856
708.30 0.4239208
708.40 0.4237562
708.50 0.4235916
708.60 0.4234271
708.70 0.4232627
708.80 0.4230984
708.90 0.4229341
709.00 0.4227665
709.10 0.4225982
709.20 0.4224299
709.30 0.4222618
709.40 0.4220937
709.50 0.4219257
709.60 0.4217577
709.70 0.4215899
709.80 0.4214221
709.90 0.4212544
710.00 0.4210868
710.10 0.4209192
710.20 0.4207518
710.30 0.4205844
710.40 0.4204171
710.50 0.4202498
710.60 0.4200861
710.70 0.4199232
710.80 0.4197604
710.90 0.4195976
711.00 0.4194349
711.10 0.4192724
711.20 0.4191098
711.30 0.4189474
711.40 0.418785
711.50 0.4186227
711.60 0.4184605
711.70 0.4182984
711.80 0.4181363
711.90 0.4179743
712.00 0.4178124
712.10 0.4176483
712.20 0.4174838
712.30 0.4173194
712.40 0.417155
712.50 0.4169907
712.60 0.4168265
712.70 0.4166623
712.80 0.4164983
712.90 0.4163343
713.00 0.4161704
713.10 0.4160065
713.20 0.4158427
713.30 0.4156791
713.40 0.4155154
713.50 0.4153519
713.60 0.4151884
713.70 0.4150302
713.80 0.4148825
713.90 0.4147348
714.00 0.4145872
714.10 0.4144293
714.20 0.414269
714.30 0.4141087
714.40 0.4139486
714.50 0.4137885
714.60 0.4136285
714.70 0.4134686
714.80 0.4133088
714.90 0.413149
715.00 0.4129893
715.10 0.4128296
715.20 0.4126701
715.30 0.4125106
715.40 0.4123512
715.50 0.4121919
715.60 0.4120326
715.70 0.4118734
715.80 0.4117143
715.90 0.4115552
716.00 0.4113963
716.10 0.4112374
716.20 0.4110785
716.30 0.4109198
716.40 0.4107611
716.50 0.4106025
716.60 0.410441
716.70 0.4102789
716.80 0.4101169
716.90 0.4099549
717.00 0.409793
717.10 0.4096312
717.20 0.4094695
717.30 0.4093078
717.40 0.4091462
717.50 0.4089847
717.60 0.4088233
717.70 0.4086619
717.80 0.4085006
717.90 0.4083394
718.00 0.4081782
718.10 0.4080172
718.20 0.4078585
718.30 0.4077012
718.40 0.407544
718.50 0.4073869
718.60 0.4072298
718.70 0.4070728
718.80 0.4069158
718.90 0.406759
719.00 0.4066022
719.10 0.4064455
719.20 0.4062888
719.30 0.4061322
719.40 0.4059757
719.50 0.4058193
719.60 0.4056629
719.70 0.4055066
719.80 0.4053504
719.90 0.4051943
720.00 0.4050382
720.10 0.4048822
720.20 0.4047262
720.30 0.4045704
720.40 0.4044146
720.50 0.4042588
720.60 0.4041032
720.70 0.4039341
720.80 0.4037577
720.90 0.4035976
721.00 0.4034383
721.10 0.403279
721.20 0.4031197
721.30 0.4029606
721.40 0.4028015
721.50 0.4026425
721.60 0.4024836
721.70 0.4023247
721.80 0.4021659
721.90 0.4020072
722.00 0.4018486
722.10 0.40169
722.20 0.4015315
722.30 0.4013731
722.40 0.4012147
722.50 0.4010565
722.60 0.4008982
722.70 0.4007427
722.80 0.4005886
722.90 0.4004346
723.00 0.4002807
723.10 0.4001268
723.20 0.399973
723.30 0.3998193
723.40 0.3996656
723.50 0.399512
723.60 0.3993585
723.70 0.3992051
723.80 0.3990517
723.90 0.3988984
724.00 0.3987452
724.10 0.398592
724.20 0.3984363
724.30 0.3982792
724.40 0.3981222
724.50 0.3979653
724.60 0.3978084
724.70 0.3976517
724.80 0.3974949
724.90 0.3973383
725.00 0.3971817
725.10 0.3970253
725.20 0.3968688
725.30 0.3967125
725.40 0.3965562
725.50 0.3964
725.60 0.3962439
725.70 0.3960878
725.80 0.3959344
725.90 0.3957825
726.00 0.3956306
726.10 0.3954789
726.20 0.3953272
726.30 0.3951755
726.40 0.395024
726.50 0.3948725
726.60 0.394721
726.70 0.3945697
726.80 0.394423
726.90 0.3942789
727.00 0.3941349
727.10 0.3939909
727.20 0.393847
727.30 0.3937031
727.40 0.3935478
727.50 0.3933863
727.60 0.3932249
727.70 0.3930635
727.80 0.3929023
727.90 0.3927411
728.00 0.3926146
728.10 0.3925001
728.20 0.3922925
728.30 0.3921848
728.40 0.3920426
728.50 0.3918818
728.60 0.3917211
728.70 0.3915605
728.80 0.3913999
728.90 0.3912394
729.00 0.3910905
729.10 0.3909479
729.20 0.3908053
729.30 0.3906627
729.40 0.3905203
729.50 0.3903779
729.60 0.390231
729.70 0.3900816
729.80 0.3899324
729.90 0.3897832
730.00 0.389634
730.10 0.389485
730.20 0.389336
730.30 0.389187
730.40 0.3890382
730.50 0.3888894
730.60 0.3887381
730.70 0.3885854
730.80 0.3884329
730.90 0.3882804
731.00 0.388128
731.10 0.3879756
731.20 0.3878233
731.30 0.3876711
731.40 0.387519
731.50 0.3873669
731.60 0.3872149
731.70 0.387063
731.80 0.3869111
731.90 0.3867593
732.00 0.3866076
732.10 0.3864559
732.20 0.3863069
732.30 0.3861593
732.40 0.3860118
732.50 0.3858643
732.60 0.3857169
732.70 0.3855696
732.80 0.3854224
732.90 0.3852752
733.00 0.3851281
733.10 0.384981
733.20 0.384834
733.30 0.3846871
733.40 0.3845402
733.50 0.3843935
733.60 0.3842467
733.70 0.3840985
733.80 0.3839496
733.90 0.3838007
734.00 0.3836519
734.10 0.3835032
734.20 0.3833545
734.30 0.3832059
734.40 0.3830573
734.50 0.3829089
734.60 0.3827604
734.70 0.3826121
734.80 0.3824638
734.90 0.3823156
735.00 0.3821675
735.10 0.3820194
735.20 0.3818714
735.30 0.3817221
735.40 0.3815574
735.50 0.3813929
735.60 0.3812284
735.70 0.3810764
735.80 0.3809311
735.90 0.3807859
736.00 0.3806408
736.10 0.3804957
736.20 0.3803507
736.30 0.3802058
736.40 0.3800609
736.50 0.3799161
736.60 0.3797714
736.70 0.3796267
736.80 0.3794821
736.90 0.3793376
737.00 0.3791931
737.10 0.3790487
737.20 0.3789043
737.30 0.37876
737.40 0.3786158
737.50 0.3784716
737.60 0.3783275
737.70 0.3781835
737.80 0.3780395
737.90 0.3778956
738.00 0.3777518
738.10 0.377608
738.20 0.3774643
738.30 0.3773208
738.40 0.3771773
738.50 0.3770339
738.60 0.3768905
738.70 0.3767472
738.80 0.376604
738.90 0.3764608
739.00 0.3763177
739.10 0.3761746
739.20 0.3760317
739.30 0.3758887
739.40 0.3757459
739.50 0.3756031
739.60 0.3754604
739.70 0.3753177
739.80 0.3751751
739.90 0.3750326
740.00 0.3748901
740.10 0.3747477
740.20 0.3746053
740.30 0.374463
740.40 0.3743208
740.50 0.3741787
740.60 0.3740366
740.70 0.3738945
740.80 0.3737526
740.90 0.3736106
741.00 0.3734688
741.10 0.373327
741.20 0.3731853
741.30 0.3730437
741.40 0.3729021
741.50 0.3727605
741.60 0.3726191
741.70 0.3724777
741.80 0.3723363
741.90 0.372195
742.00 0.3720538
742.10 0.3719127
742.20 0.3717716
742.30 0.3716306
742.40 0.3714896
742.50 0.3713487
742.60 0.3712078
742.70 0.3710623
742.80 0.370913
742.90 0.3707638
743.00 0.3706146
743.10 0.3704655
743.20 0.3703165
743.30 0.3701675
743.40 0.3700186
743.50 0.3698698
743.60 0.369721
743.70 0.3695739
743.80 0.369433
743.90 0.3692922
744.00 0.3691515
744.10 0.3690109
744.20 0.3688703
744.30 0.3687297
744.40 0.3685892
744.50 0.3684488
744.60 0.3683085
744.70 0.3681682
744.80 0.368028
744.90 0.3678878
745.00 0.3677477
745.10 0.3676076
745.20 0.3674677
745.30 0.3673278
745.40 0.3671879
745.50 0.3670481
745.60 0.3669084
745.70 0.3667687
745.80 0.3666291
745.90 0.3664895
746.00 0.3663501
746.10 0.3662106
746.20 0.3660713
746.30 0.365932
746.40 0.3657927
746.50 0.3656535
746.60 0.3655144
746.70 0.3653754
746.80 0.3652364
746.90 0.3650974
747.00 0.3649586
747.10 0.3648198
747.20 0.364681
747.30 0.3645423
747.40 0.3644037
747.50 0.3642651
747.60 0.3641266
747.70 0.3639882
747.80 0.3638498
747.90 0.3637115
748.00 0.3635732
748.10 0.363435
748.20 0.3632969
748.30 0.3631588
748.40 0.3630208
748.50 0.3628828
748.60 0.3627449
748.70 0.3626071
748.80 0.3624693
748.90 0.3623316
749.00 0.362194
749.10 0.3620564
749.20 0.3619188
749.30 0.3617814
749.40 0.361644
749.50 0.3615066
749.60 0.3613693
749.70 0.3612321
749.80 0.3610949
749.90 0.3609578
750.00 0.3608208
750.10 0.3606832
750.20 0.3605443
750.30 0.3604054
750.40 0.3602666
750.50 0.3601279
750.60 0.3599892
750.70 0.3598506
750.80 0.359712
750.90 0.3595735
751.00 0.3594351
751.10 0.3592967
751.20 0.3591584
751.30 0.3590202
751.40 0.358882
751.50 0.3587439
751.60 0.3586058
751.70 0.3584678
751.80 0.3583298
751.90 0.3581919
752.00 0.3580541
752.10 0.3579164
752.20 0.3577786
752.30 0.357641
752.40 0.3575034
752.50 0.3573659
752.60 0.3572284
752.70 0.357091
752.80 0.3569537
752.90 0.3568164
753.00 0.3566792
753.10 0.356542
753.20 0.3564049
753.30 0.3562679
753.40 0.3561309
753.50 0.355994
753.60 0.3558571
753.70 0.3557203
753.80 0.3555836
753.90 0.355449
754.00 0.355315
754.10 0.3551811
754.20 0.3550472
754.30 0.3549134
754.40 0.3547797
754.50 0.354646
754.60 0.3545124
754.70 0.3543788
754.80 0.3542453
754.90 0.3541119
755.00 0.3539785
755.10 0.3538451
755.20 0.3537119
755.30 0.3535786
755.40 0.3534455
755.50 0.3533124
755.60 0.3531793
755.70 0.3530464
755.80 0.3529134
755.90 0.3527806
756.00 0.3526478
756.10 0.352515
756.20 0.3523823
756.30 0.3522497
756.40 0.3521171
756.50 0.3519846
756.60 0.3518521
756.70 0.3517197
756.80 0.3515874
756.90 0.3514551
757.00 0.3513229
757.10 0.3511907
757.20 0.3510586
757.30 0.3509265
757.40 0.3507945
757.50 0.3506626
757.60 0.3505301
757.70 0.350396
757.80 0.3502621
757.90 0.3501281
758.00 0.3499943
758.10 0.3498605
758.20 0.3497268
758.30 0.3495931
758.40 0.3494595
758.50 0.3493259
758.60 0.3491924
758.70 0.349059
758.80 0.3489256
758.90 0.3487922
759.00 0.348659
759.10 0.3485258
759.20 0.3483926
759.30 0.3482595
759.40 0.3481265
759.50 0.3479935
759.60 0.3478606
759.70 0.3477277
759.80 0.3475949
759.90 0.3474621
760.00 0.3473295
760.10 0.3471968
760.20 0.3470642
760.30 0.3469317
760.40 0.3467993
760.50 0.3466669
760.60 0.3465345
760.70 0.3464022
760.80 0.34627
760.90 0.3461378
761.00 0.3460057
761.10 0.3458737
761.20 0.3457417
761.30 0.3456097
761.40 0.3454789
761.50 0.3453496
761.60 0.3452204
761.70 0.3450913
761.80 0.3449622
761.90 0.3448331
762.00 0.3447042
762.10 0.3445752
762.20 0.3444464
762.30 0.3443176
762.40 0.3441888
762.50 0.3440601
762.60 0.3439315
762.70 0.3438029
762.80 0.3436743
762.90 0.3435459
763.00 0.3434174
763.10 0.3432891
763.20 0.3431608
763.30 0.3430325
763.40 0.3429043
763.50 0.3427761
763.60 0.3426481
763.70 0.34252
763.80 0.342392
763.90 0.3422641
764.00 0.3421363
764.10 0.3420084
764.20 0.3418807
764.30 0.341753
764.40 0.3416253
764.50 0.3414977
764.60 0.3413702
764.70 0.3412427
764.80 0.3411153
764.90 0.3409879
765.00 0.3408606
765.10 0.3407333
765.20 0.340605
765.30 0.3404757
765.40 0.3403465
765.50 0.3402173
765.60 0.3400882
765.70 0.3399591
765.80 0.3398301
765.90 0.3397011
766.00 0.3395722
766.10 0.3394434
766.20 0.3393146
766.30 0.3391859
766.40 0.3390572
766.50 0.3389286
766.60 0.3388
766.70 0.3386715
766.80 0.338543
766.90 0.3384146
767.00 0.3382863
767.10 0.338158
767.20 0.3380298
767.30 0.3379016
767.40 0.3377735
767.50 0.3376454
767.60 0.3375174
767.70 0.3373894
767.80 0.3372615
767.90 0.3371337
768.00 0.3370059
768.10 0.3368781
768.20 0.3367505
768.30 0.3366228
768.40 0.3364953
768.50 0.3363677
768.60 0.3362403
768.70 0.3361129
768.80 0.3359855
768.90 0.3358582
769.00 0.335731
769.10 0.3356038
769.20 0.3354767
769.30 0.3353496
769.40 0.3352226
769.50 0.3350956
769.60 0.3349687
769.70 0.3348418
769.80 0.334715
769.90 0.3345883
770.00 0.3344616
770.10 0.3343349
770.20 0.3342083
770.30 0.3340818
770.40 0.3339553
770.50 0.3338289
770.60 0.3337025
770.70 0.3335762
770.80 0.33345
770.90 0.3333238
771.00 0.3331976
771.10 0.3330715
771.20 0.3329455
771.30 0.3328195
771.40 0.3326935
771.50 0.3325677
771.60 0.3324418
771.70 0.3323161
771.80 0.3321903
771.90 0.3320647
772.00 0.3319391
772.10 0.3318135
772.20 0.331688
772.30 0.3315626
772.40 0.3314372
772.50 0.3313118
772.60 0.3311865
772.70 0.3310613
772.80 0.3309361
772.90 0.3308126
773.00 0.3306891
773.10 0.3305657
773.20 0.3304424
773.30 0.3303191
773.40 0.3301958
773.50 0.3300726
773.60 0.3299495
773.70 0.3298264
773.80 0.3297033
773.90 0.3295803
774.00 0.3294574
774.10 0.3293345
774.20 0.3292117
774.30 0.3290889
774.40 0.3289662
774.50 0.3288435
774.60 0.3287209
774.70 0.3285983
774.80 0.3284758
774.90 0.3283533
775.00 0.3282309
775.10 0.3281086
775.20 0.3279863
775.30 0.327864
775.40 0.3277418
775.50 0.3276196
775.60 0.3274975
775.70 0.3273755
775.80 0.3272535
775.90 0.3271316
776.00 0.3270097
776.10 0.3268878
776.20 0.326766
776.30 0.3266443
776.40 0.3265226
776.50 0.326401
776.60 0.3262794
776.70 0.3261579
776.80 0.3260364
776.90 0.325915
777.00 0.3257936
777.10 0.3256723
777.20 0.325551
777.30 0.3254298
777.40 0.3253086
777.50 0.3251875
777.60 0.3250665
777.70 0.3249454
777.80 0.3248245
777.90 0.3247036
778.00 0.3245827
778.10 0.3244619
778.20 0.3243412
778.30 0.3242205
778.40 0.3240998
778.50 0.3239792
778.60 0.3238586
778.70 0.3237382
778.80 0.3236177
778.90 0.3234973
779.00 0.323377
779.10 0.3232567
779.20 0.3231364
779.30 0.3230162
779.40 0.3228961
779.50 0.322776
779.60 0.322656
779.70 0.322536
779.80 0.322416
779.90 0.3222962
780.00 0.3221763
780.10 0.3220565
780.20 0.3219368
780.30 0.3218171
780.40 0.3216975
780.50 0.3215779
780.60 0.3214571
780.70 0.3213358
780.80 0.3212146
780.90 0.3210934
781.00 0.3209723
781.10 0.3208512
781.20 0.3207302
781.30 0.3206092
781.40 0.3204883
781.50 0.3203674
781.60 0.3202466
781.70 0.3201258
781.80 0.3200051
781.90 0.3198845
782.00 0.3197639
782.10 0.3196433
782.20 0.3195228
782.30 0.3194023
782.40 0.3192819
782.50 0.3191616
782.60 0.3190413
782.70 0.318921
782.80 0.3188008
782.90 0.3186807
783.00 0.3185606
783.10 0.3184405
783.20 0.3183205
783.30 0.3182006
783.40 0.3180807
783.50 0.3179608
783.60 0.317841
783.70 0.3177213
783.80 0.3176016
783.90 0.317482
784.00 0.3173624
784.10 0.3172428
784.20 0.3171233
784.30 0.3170039
784.40 0.3168845
784.50 0.3167652
784.60 0.3166465
784.70 0.3165293
784.80 0.3164121
784.90 0.316295
785.00 0.3161779
785.10 0.3160609
785.20 0.3159439
785.30 0.3158269
785.40 0.3157101
785.50 0.3155932
785.60 0.3154765
785.70 0.3153597
785.80 0.315243
785.90 0.3151264
786.00 0.3150098
786.10 0.3148933
786.20 0.3147768
786.30 0.3146604
786.40 0.314544
786.50 0.3144276
786.60 0.3143114
786.70 0.3141951
786.80 0.3140789
786.90 0.3139628
787.00 0.3138467
787.10 0.3137306
787.20 0.3136146
787.30 0.3134987
787.40 0.3133828
787.50 0.313267
787.60 0.3131512
787.70 0.3130354
787.80 0.3129197
787.90 0.312804
788.00 0.3126884
788.10 0.3125729
788.20 0.3124574
788.30 0.3123419
788.40 0.3122261
788.50 0.31211
788.60 0.3119941
788.70 0.3118781
788.80 0.3117623
788.90 0.3116464
789.00 0.3115306
789.10 0.3114149
789.20 0.3112992
789.30 0.3111836
789.40 0.311068
789.50 0.3109525
789.60 0.310837
789.70 0.3107216
789.80 0.3106062
789.90 0.3104908
790.00 0.3103755
790.10 0.3102603
790.20 0.3101451
790.30 0.3100299
790.40 0.3099148
790.50 0.3097998
790.60 0.3096848
790.70 0.3095698
790.80 0.3094549
790.90 0.3093401
791.00 0.3092252
791.10 0.3091105
791.20 0.3089958
791.30 0.3088811
791.40 0.3087665
791.50 0.3086519
791.60 0.3085374
791.70 0.3084229
791.80 0.3083085
791.90 0.3081941
792.00 0.3080798
792.10 0.3079655
792.20 0.3078513
792.30 0.3077371
792.40 0.3076229
792.50 0.3075088
792.60 0.3073948
792.70 0.3072808
792.80 0.3071668
792.90 0.3070529
793.00 0.306939
793.10 0.3068252
793.20 0.3067115
793.30 0.3065977
793.40 0.3064841
793.50 0.3063705
793.60 0.3062569
793.70 0.3061434
793.80 0.3060299
793.90 0.3059164
794.00 0.3058031
794.10 0.3056897
794.20 0.3055764
794.30 0.3054632
794.40 0.30535
794.50 0.3052368
794.60 0.3051237
794.70 0.3050107
794.80 0.3048977
794.90 0.3047847
795.00 0.3046718
795.10 0.3045589
795.20 0.3044461
795.30 0.3043333
795.40 0.3042206
795.50 0.3041079
795.60 0.3039953
795.70 0.3038827
795.80 0.3037702
795.90 0.3036577
796.00 0.3035453
796.10 0.3034329
796.20 0.3033205
796.30 0.3032085
796.40 0.3030966
796.50 0.3029848
796.60 0.302873
796.70 0.3027612
796.80 0.3026495
796.90 0.3025379
797.00 0.3024262
797.10 0.3023147
797.20 0.3022032
797.30 0.3020917
797.40 0.3019803
797.50 0.3018689
797.60 0.3017575
797.70 0.3016463
797.80 0.301535
797.90 0.3014238
798.00 0.3013127
798.10 0.3012016
798.20 0.3010905
798.30 0.3009795
798.40 0.3008685
798.50 0.3007576
798.60 0.3006467
798.70 0.3005359
798.80 0.3004251
798.90 0.3003144
799.00 0.3002037
799.10 0.3000931
799.20 0.2999825
799.30 0.2998719
799.40 0.2997614
799.50 0.299651
799.60 0.2995406
799.70 0.2994302
799.80 0.2993199
799.90 0.2992096
800.00 0.2990994
800.10 0.2989892
800.20 0.298879
800.30 0.298769
800.40 0.2986589
800.50 0.2985489
800.60 0.298439
800.70 0.298329
800.80 0.2982192
800.90 0.2981094
801.00 0.2979996
801.10 0.2978899
801.20 0.2977802
801.30 0.2976705
801.40 0.297561
801.50 0.2974514
801.60 0.2973419
801.70 0.2972325
801.80 0.297123
801.90 0.2970137
802.00 0.2969044
802.10 0.2967951
802.20 0.2966859
802.30 0.2965767
802.40 0.2964675
802.50 0.2963584
802.60 0.2962494
802.70 0.2961404
802.80 0.2960314
802.90 0.2959225
803.00 0.2958137
803.10 0.2957048
803.20 0.2955961
803.30 0.2954873
803.40 0.2953786
803.50 0.29527
803.60 0.2951614
803.70 0.2950529
803.80 0.2949444
803.90 0.2948359
804.00 0.2947275
804.10 0.2946191
804.20 0.2945108
804.30 0.2944029
804.40 0.294295
804.50 0.2941872
804.60 0.2940794
804.70 0.2939716
804.80 0.2938639
804.90 0.2937562
805.00 0.2936486
805.10 0.293541
805.20 0.2934335
805.30 0.293326
805.40 0.2932186
805.50 0.2931112
805.60 0.2930038
805.70 0.2928965
805.80 0.2927892
805.90 0.292682
806.00 0.2925748
806.10 0.2924677
806.20 0.2923606
806.30 0.2922536
806.40 0.2921466
806.50 0.2920396
806.60 0.2919327
806.70 0.2918258
806.80 0.291719
806.90 0.2916122
807.00 0.2915055
807.10 0.2913988
807.20 0.2912921
807.30 0.2911855
807.40 0.2910789
807.50 0.2909724
807.60 0.2908659
807.70 0.2907595
807.80 0.2906531
807.90 0.2905468
808.00 0.2904405
808.10 0.2903342
808.20 0.290228
808.30 0.2901218
808.40 0.2900157
808.50 0.2899096
808.60 0.2898036
808.70 0.2896976
808.80 0.2895917
808.90 0.2894857
809.00 0.2893799
809.10 0.2892741
809.20 0.2891683
809.30 0.2890625
809.40 0.2889569
809.50 0.2888512
809.60 0.2887456
809.70 0.28864
809.80 0.2885345
809.90 0.2884291
810.00 0.2883236
810.10 0.2882182
810.20 0.2881129
810.30 0.2880076
810.40 0.2879023
810.50 0.2877971
810.60 0.2876919
810.70 0.2875868
810.80 0.2874817
810.90 0.2873767
811.00 0.2872717
811.10 0.2871667
811.20 0.2870618
811.30 0.286957
811.40 0.2868521
811.50 0.2867473
811.60 0.2866426
811.70 0.2865379
811.80 0.2864332
811.90 0.2863286
812.00 0.2862241
812.10 0.2861195
812.20 0.2860151
812.30 0.2859105
812.40 0.2858061
812.50 0.2857016
812.60 0.2855972
812.70 0.2854929
812.80 0.2853886
812.90 0.2852843
813.00 0.2851801
813.10 0.2850759
813.20 0.2849718
813.30 0.2848677
813.40 0.2847636
813.50 0.2846596
813.60 0.2845556
813.70 0.2844517
813.80 0.2843478
813.90 0.284244
814.00 0.2841402
814.10 0.2840364
814.20 0.2839327
814.30 0.2838291
814.40 0.2837254
814.50 0.2836218
814.60 0.2835183
814.70 0.2834148
814.80 0.2833113
814.90 0.2832079
815.00 0.2831045
815.10 0.2830012
815.20 0.2828979
815.30 0.2827947
815.40 0.2826915
815.50 0.2825883
815.60 0.2824852
815.70 0.2823821
815.80 0.2822791
815.90 0.2821761
816.00 0.2820731
816.10 0.2819702
816.20 0.2818673
816.30 0.2817645
816.40 0.2816617
816.50 0.281559
816.60 0.2814563
816.70 0.2813536
816.80 0.281251
816.90 0.2811484
817.00 0.2810459
817.10 0.2809434
817.20 0.2808409
817.30 0.2807385
817.40 0.2806362
817.50 0.2805338
817.60 0.2804316
817.70 0.2803293
817.80 0.2802271
817.90 0.280125
818.00 0.2800228
818.10 0.2799208
818.20 0.2798187
818.30 0.2797167
818.40 0.2796148
818.50 0.2795129
818.60 0.279411
818.70 0.2793092
818.80 0.2792074
818.90 0.2791056
819.00 0.2790039
819.10 0.2789023
819.20 0.2788007
819.30 0.2787014
819.40 0.2786038
819.50 0.2785062
819.60 0.2784086
819.70 0.2783111
819.80 0.2782136
819.90 0.2781161
820.00 0.2780187
820.10 0.277924
820.20 0.2778239
820.30 0.2777199
820.40 0.2776172
820.50 0.2775154
820.60 0.2774137
820.70 0.277312
820.80 0.2772104
820.90 0.2771087
821.00 0.2770072
821.10 0.2769057
821.20 0.2768042
821.30 0.2767027
821.40 0.2766013
821.50 0.2765
821.60 0.2763987
821.70 0.2762974
821.80 0.2761962
821.90 0.276095
822.00 0.2759938
822.10 0.2758927
822.20 0.2757917
822.30 0.2756906
822.40 0.2755896
822.50 0.2754887
822.60 0.2753878
822.70 0.2752869
822.80 0.2751861
822.90 0.2750853
823.00 0.2749846
823.10 0.2748839
823.20 0.2747832
823.30 0.2746826
823.40 0.274582
823.50 0.2744815
823.60 0.274381
823.70 0.2742805
823.80 0.2741801
823.90 0.2740797
824.00 0.2739794
824.10 0.2738791
824.20 0.2737789
824.30 0.2736787
824.40 0.2735785
824.50 0.2734783
824.60 0.2733783
824.70 0.2732782
824.80 0.2731782
824.90 0.2730782
825.00 0.2729783
825.10 0.2728784
825.20 0.2727786
825.30 0.2726788
825.40 0.272579
825.50 0.2724793
825.60 0.2723796
825.70 0.2722799
825.80 0.2721803
825.90 0.2720808
826.00 0.2719812
826.10 0.2718818
826.20 0.2717823
826.30 0.2716837
826.40 0.2715857
826.50 0.2714878
826.60 0.2713899
826.70 0.271292
826.80 0.2711942
826.90 0.2710964
827.00 0.2709986
827.10 0.2709009
827.20 0.2708032
827.30 0.2707056
827.40 0.270608
827.50 0.2705104
827.60 0.2704129
827.70 0.2703154
827.80 0.270218
827.90 0.2701206
828.00 0.2700232
828.10 0.2699259
828.20 0.2698286
828.30 0.2697314
828.40 0.2696342
828.50 0.269537
828.60 0.2694401
828.70 0.2693433
828.80 0.2692466
828.90 0.2691499
829.00 0.2690533
829.10 0.2689567
829.20 0.2688601
829.30 0.2687636
829.40 0.2686671
829.50 0.2685707
829.60 0.2684743
829.70 0.2683779
829.80 0.2682816
829.90 0.2681853
830.00 0.268089
830.10 0.2679928
830.20 0.2678966
830.30 0.2678005
830.40 0.2677044
830.50 0.2676083
830.60 0.2675123
830.70 0.2674163
830.80 0.2673204
830.90 0.2672245
831.00 0.2671286
831.10 0.2670328
831.20 0.266937
831.30 0.2668413
831.40 0.2667455
831.50 0.2666499
831.60 0.2665542
831.70 0.2664586
831.80 0.2663631
831.90 0.2662675
832.00 0.2661721
832.10 0.2660766
832.20 0.2659812
832.30 0.2658858
832.40 0.2657905
832.50 0.2656952
832.60 0.2656
832.70 0.2655047
832.80 0.2654096
832.90 0.2653144
833.00 0.2652193
833.10 0.2651243
833.20 0.2650292
833.30 0.2649342
833.40 0.2648393
833.50 0.2647444
833.60 0.2646495
833.70 0.2645547
833.80 0.2644599
833.90 0.2643651
834.00 0.2642704
834.10 0.2641757
834.20 0.2640811
834.30 0.2639864
834.40 0.2638919
834.50 0.2637973
834.60 0.2637028
834.70 0.2636084
834.80 0.263514
834.90 0.2634196
835.00 0.2633252
835.10 0.2632309
835.20 0.2631367
835.30 0.2630424
835.40 0.2629482
835.50 0.2628541
835.60 0.2627599
835.70 0.2626659
835.80 0.2625718
835.90 0.2624778
836.00 0.2623838
836.10 0.2622899
836.20 0.262196
836.30 0.2621022
836.40 0.2620083
836.50 0.2619145
836.60 0.2618208
836.70 0.2617271
836.80 0.2616334
836.90 0.26154
837.00 0.2614467
837.10 0.2613535
837.20 0.2612602
837.30 0.2611671
837.40 0.2610739
837.50 0.2609808
837.60 0.2608878
837.70 0.2607947
837.80 0.2607017
837.90 0.2606088
838.00 0.2605159
838.10 0.260423
838.20 0.2603301
838.30 0.2602373
838.40 0.2601446
838.50 0.2600518
838.60 0.2599591
838.70 0.2598665
838.80 0.2597738
838.90 0.2596813
839.00 0.2595887
839.10 0.2594962
839.20 0.2594037
839.30 0.2593113
839.40 0.2592189
839.50 0.2591265
839.60 0.2590342
839.70 0.2589419
839.80 0.2588496
839.90 0.2587574
840.00 0.2586652
840.10 0.2585731
840.20 0.258481
840.30 0.2583889
840.40 0.2582969
840.50 0.2582049
840.60 0.2581129
840.70 0.258021
840.80 0.2579291
840.90 0.2578372
841.00 0.2577454
841.10 0.257652
841.20 0.2575584
841.30 0.2574648
841.40 0.2573712
841.50 0.2572777
841.60 0.2571842
841.70 0.2570907
841.80 0.2569973
841.90 0.2569039
842.00 0.2568106
842.10 0.2567173
842.20 0.256624
842.30 0.2565307
842.40 0.2564375
842.50 0.2563444
842.60 0.2562513
842.70 0.2561582
842.80 0.2560651
842.90 0.2559721
843.00 0.2558791
843.10 0.2557862
843.20 0.2556933
843.30 0.2556004
843.40 0.2555076
843.50 0.2554148
843.60 0.2553221
843.70 0.2552293
843.80 0.2551367
843.90 0.255044
844.00 0.2549514
844.10 0.2548588
844.20 0.2547663
844.30 0.2546738
844.40 0.2545813
844.50 0.2544889
844.60 0.2543965
844.70 0.2543042
844.80 0.2542119
844.90 0.2541196
845.00 0.2540274
845.10 0.2539351
845.20 0.253843
845.30 0.253753
845.40 0.2536631
845.50 0.2535732
845.60 0.2534834
845.70 0.2533936
845.80 0.2533038
845.90 0.2532141
846.00 0.2531244
846.10 0.2530347
846.20 0.2529451
846.30 0.2528555
846.40 0.2527659
846.50 0.2526764
846.60 0.2525869
846.70 0.2524974
846.80 0.252408
846.90 0.2523186
847.00 0.2522293
847.10 0.2521399
847.20 0.2520507
847.30 0.2519614
847.40 0.2518722
847.50 0.251783
847.60 0.2516939
847.70 0.2516048
847.80 0.2515157
847.90 0.2514267
848.00 0.2513377
848.10 0.2512487
848.20 0.2511598
848.30 0.2510709
848.40 0.250982
848.50 0.2508932
848.60 0.2508044
848.70 0.2507156
848.80 0.2506269
848.90 0.2505382
849.00 0.2504496
849.10 0.250361
849.20 0.2502724
849.30 0.2501838
849.40 0.2500953
849.50 0.2500068
849.60 0.2499184
849.70 0.24983
849.80 0.2497416
849.90 0.2496533
850.00 0.249565
850.10 0.2494767
850.20 0.2493885
850.30 0.2493003
850.40 0.2492121
850.50 0.249124
850.60 0.2490359
850.70 0.2489478
850.80 0.2488598
850.90 0.2487718
851.00 0.2486838
851.10 0.2485959
851.20 0.248508
851.30 0.2484202
851.40 0.2483323
851.50 0.2482446
851.60 0.2481568
851.70 0.2480691
851.80 0.2479814
851.90 0.2478938
852.00 0.2478061
852.10 0.2477186
852.20 0.247631
852.30 0.2475435
852.40 0.247456
852.50 0.2473686
852.60 0.2472812
852.70 0.2471938
852.80 0.2471065
852.90 0.2470191
853.00 0.2469319
853.10 0.2468446
853.20 0.2467574
853.30 0.2466703
853.40 0.2465831
853.50 0.246496
853.60 0.246409
853.70 0.2463212
853.80 0.2462327
853.90 0.2461442
854.00 0.2460557
854.10 0.2459673
854.20 0.2458789
854.30 0.2457906
854.40 0.2457022
854.50 0.245614
854.60 0.2455257
854.70 0.2454375
854.80 0.2453493
854.90 0.2452612
855.00 0.2451731
855.10 0.245085
855.20 0.244997
855.30 0.2449089
855.40 0.244821
855.50 0.244733
855.60 0.2446451
855.70 0.2445573
855.80 0.2444694
855.90 0.2443816
856.00 0.2442939
856.10 0.2442061
856.20 0.2441184
856.30 0.2440308
856.40 0.2439432
856.50 0.2438556
856.60 0.243768
856.70 0.2436805
856.80 0.243593
856.90 0.2435055
857.00 0.2434181
857.10 0.2433307
857.20 0.2432434
857.30 0.243156
857.40 0.2430688
857.50 0.2429815
857.60 0.2428943
857.70 0.2428071
857.80 0.2427199
857.90 0.2426328
858.00 0.2425472
858.10 0.2424619
858.20 0.2423767
858.30 0.2422915
858.40 0.2422064
858.50 0.2421213
858.60 0.2420362
858.70 0.2419511
858.80 0.2418661
858.90 0.2417811
859.00 0.2416961
859.10 0.2416112
859.20 0.2415263
859.30 0.2414415
859.40 0.2413567
859.50 0.2412719
859.60 0.2411871
859.70 0.2411024
859.80 0.2410177
859.90 0.240933
860.00 0.2408484
860.10 0.2407638
860.20 0.2406793
860.30 0.2405947
860.40 0.2405102
860.50 0.2404258
860.60 0.2403413
860.70 0.2402569
860.80 0.2401726
860.90 0.2400883
861.00 0.240004
861.10 0.2399197
861.20 0.2398355
861.30 0.2397513
861.40 0.2396671
861.50 0.239583
861.60 0.2394989
861.70 0.2394148
861.80 0.2393307
861.90 0.2392467
862.00 0.2391628
862.10 0.2390788
862.20 0.2389949
862.30 0.2389104
862.40 0.2388259
862.50 0.2387415
862.60 0.2386572
862.70 0.2385728
862.80 0.2384885
862.90 0.2384042
863.00 0.23832
863.10 0.2382358
863.20 0.2381516
863.30 0.2380675
863.40 0.2379834
863.50 0.2378993
863.60 0.2378152
863.70 0.2377312
863.80 0.2376472
863.90 0.2375633
864.00 0.2374794
864.10 0.2373955
864.20 0.2373116
864.30 0.2372278
864.40 0.237144
864.50 0.2370603
864.60 0.2369766
864.70 0.2368929
864.80 0.2368092
864.90 0.2367256
865.00 0.236642
865.10 0.2365584
865.20 0.2364749
865.30 0.2363914
865.40 0.236308
865.50 0.2362245
865.60 0.2361411
865.70 0.2360578
865.80 0.2359744
865.90 0.2358911
866.00 0.2358079
866.10 0.2357246
866.20 0.2356414
866.30 0.2355582
866.40 0.2354751
866.50 0.235392
866.60 0.2353089
866.70 0.2352259
866.80 0.2351429
866.90 0.2350599
867.00 0.2349769
867.10 0.234894
867.20 0.2348111
867.30 0.2347283
867.40 0.2346454
867.50 0.2345627
867.60 0.2344799
867.70 0.2343972
867.80 0.2343145
867.90 0.2342318
868.00 0.2341492
868.10 0.2340666
868.20 0.233984
868.30 0.2339015
868.40 0.233819
868.50 0.2337365
868.60 0.2336541
868.70 0.2335717
868.80 0.2334893
868.90 0.233407
869.00 0.2333247
869.10 0.2332424
869.20 0.2331601
869.30 0.2330779
869.40 0.2329957
869.50 0.2329136
869.60 0.2328314
869.70 0.2327494
869.80 0.2326673
869.90 0.2325853
870.00 0.2325033
870.10 0.2324213
870.20 0.2323394
870.30 0.2322575
870.40 0.2321756
870.50 0.2320938
870.60 0.232012
870.70 0.2319302
870.80 0.2318485
870.90 0.2317678
871.00 0.2316872
871.10 0.2316067
871.20 0.2315262
871.30 0.2314458
871.40 0.2313653
871.50 0.231285
871.60 0.2312046
871.70 0.2311243
871.80 0.231044
871.90 0.2309637
872.00 0.2308835
872.10 0.2308033
872.20 0.2307231
872.30 0.2306429
872.40 0.2305628
872.50 0.2304827
872.60 0.2304027
872.70 0.2303227
872.80 0.2302427
872.90 0.2301627
873.00 0.2300828
873.10 0.2300029
873.20 0.229923
873.30 0.2298432
873.40 0.2297634
873.50 0.2296836
873.60 0.2296038
873.70 0.2295241
873.80 0.2294444
873.90 0.2293648
874.00 0.2292851
874.10 0.2292056
874.20 0.229126
874.30 0.2290465
874.40 0.2289669
874.50 0.2288875
874.60 0.228808
874.70 0.2287286
874.80 0.2286492
874.90 0.2285699
875.00 0.2284906
875.10 0.2284113
875.20 0.228332
875.30 0.2282528
875.40 0.2281736
875.50 0.2280944
875.60 0.2280153
875.70 0.2279362
875.80 0.2278571
875.90 0.227778
876.00 0.227699
876.10 0.22762
876.20 0.2275411
876.30 0.2274621
876.40 0.2273832
876.50 0.2273044
876.60 0.2272255
876.70 0.2271467
876.80 0.2270679
876.90 0.2269892
877.00 0.2269105
877.10 0.2268318
877.20 0.2267531
877.30 0.2266745
877.40 0.2265959
877.50 0.2265173
877.60 0.2264388
877.70 0.2263603
877.80 0.2262818
877.90 0.2262033
878.00 0.2261249
878.10 0.2260465
878.20 0.2259682
878.30 0.2258898
878.40 0.2258115
878.50 0.2257333
878.60 0.225655
878.70 0.2255768
878.80 0.2254986
878.90 0.2254205
879.00 0.2253424
879.10 0.2252643
879.20 0.2251862
879.30 0.2251082
879.40 0.2250302
879.50 0.2249522
879.60 0.2248731
879.70 0.2247938
879.80 0.2247145
879.90 0.2246353
880.00 0.2245561
880.10 0.2244769
880.20 0.2243978
880.30 0.2243186
880.40 0.2242395
880.50 0.2241605
880.60 0.2240814
880.70 0.2240024
880.80 0.2239235
880.90 0.2238445
881.00 0.2237656
881.10 0.2236867
881.20 0.2236079
881.30 0.2235291
881.40 0.2234503
881.50 0.2233715
881.60 0.2232928
881.70 0.2232141
881.80 0.2231354
881.90 0.2230568
882.00 0.2229782
882.10 0.2228996
882.20 0.222821
882.30 0.2227425
882.40 0.222664
882.50 0.2225855
882.60 0.2225071
882.70 0.2224287
882.80 0.2223503
882.90 0.222272
883.00 0.2221937
883.10 0.2221154
883.20 0.2220371
883.30 0.2219589
883.40 0.2218807
883.50 0.2218026
883.60 0.2217244
883.70 0.2216463
883.80 0.2215683
883.90 0.2214902
884.00 0.2214136
884.10 0.2213372
884.20 0.2212609
884.30 0.2211846
884.40 0.2211083
884.50 0.2210321
884.60 0.2209559
884.70 0.2208797
884.80 0.2208036
884.90 0.2207274
885.00 0.2206513
885.10 0.2205753
885.20 0.2204992
885.30 0.2204232
885.40 0.2203473
885.50 0.2202713
885.60 0.2201954
885.70 0.2201195
885.80 0.2200436
885.90 0.2199678
886.00 0.219892
886.10 0.2198162
886.20 0.2197405
886.30 0.2196648
886.40 0.2195891
886.50 0.2195134
886.60 0.2194378
886.70 0.2193622
886.80 0.2192866
886.90 0.219211
887.00 0.2191355
887.10 0.21906
887.20 0.2189846
887.30 0.2189091
887.40 0.2188337
887.50 0.2187584
887.60 0.218683
887.70 0.2186077
887.80 0.2185324
887.90 0.2184571
888.00 0.2183819
888.10 0.2183067
888.20 0.2182315
888.30 0.2181564
888.40 0.2180808
888.50 0.2180051
888.60 0.2179295
888.70 0.2178539
888.80 0.2177784
888.90 0.2177029
889.00 0.2176274
889.10 0.2175519
889.20 0.2174765
889.30 0.217401
889.40 0.2173257
889.50 0.2172503
889.60 0.217175
889.70 0.2170997
889.80 0.2170244
889.90 0.2169492
890.00 0.216874
890.10 0.2167988
890.20 0.2167236
890.30 0.2166485
890.40 0.2165734
890.50 0.2164983
890.60 0.2164233
890.70 0.2163483
890.80 0.2162733
890.90 0.2161983
891.00 0.2161234
891.10 0.2160485
891.20 0.2159736
891.30 0.2158988
891.40 0.215824
891.50 0.2157492
891.60 0.2156744
891.70 0.2155997
891.80 0.215525
891.90 0.2154503
892.00 0.2153757
892.10 0.2153011
892.20 0.2152265
892.30 0.2151519
892.40 0.2150774
892.50 0.2150029
892.60 0.2149284
892.70 0.2148539
892.80 0.2147795
892.90 0.2147051
893.00 0.2146307
893.10 0.2145564
893.20 0.2144821
893.30 0.2144078
893.40 0.2143336
893.50 0.2142593
893.60 0.2141851
893.70 0.214111
893.80 0.2140368
893.90 0.2139627
894.00 0.2138886
894.10 0.2138145
894.20 0.2137405
894.30 0.2136665
894.40 0.2135925
894.50 0.2135186
894.60 0.2134447
894.70 0.2133708
894.80 0.2132969
894.90 0.2132231
895.00 0.2131492
895.10 0.2130755
895.20 0.2130017
895.30 0.212928
895.40 0.2128543
895.50 0.2127806
895.60 0.212707
895.70 0.2126333
895.80 0.2125597
895.90 0.2124862
896.00 0.2124126
896.10 0.2123391
896.20 0.2122657
896.30 0.2121922
896.40 0.2121188
896.50 0.2120454
896.60 0.211972
896.70 0.2118987
896.80 0.2118254
896.90 0.2117521
897.00 0.2116788
897.10 0.2116056
897.20 0.2115324
897.30 0.2114603
897.40 0.2113882
897.50 0.2113161
897.60 0.211244
897.70 0.211172
897.80 0.2111
897.90 0.211028
898.00 0.210956
898.10 0.2108841
898.20 0.2108122
898.30 0.2107404
898.40 0.2106685
898.50 0.2105967
898.60 0.2105249
898.70 0.2104531
898.80 0.2103814
898.90 0.2103097
899.00 0.210238
899.10 0.2101663
899.20 0.2100947
899.30 0.2100231
899.40 0.2099515
899.50 0.20988
899.60 0.2098085
899.70 0.209737
899.80 0.2096655
899.90 0.2095941
900.00 0.2095226
900.10 0.2094512
900.20 0.2093799
900.30 0.2093085
900.40 0.2092372
900.50 0.2091659
900.60 0.2090947
900.70 0.2090235
900.80 0.2089522
900.90 0.2088811
901.00 0.2088099
901.10 0.2087388
901.20 0.2086677
901.30 0.2085966
901.40 0.2085256
901.50 0.2084546
901.60 0.2083836
901.70 0.2083123
901.80 0.2082398
901.90 0.2081674
902.00 0.2080949
902.10 0.2080225
902.20 0.2079501
902.30 0.2078778
902.40 0.2078055
902.50 0.2077332
902.60 0.2076609
902.70 0.2075886
902.80 0.2075164
902.90 0.2074442
903.00 0.2073721
903.10 0.2072999
903.20 0.2072278
903.30 0.2071557
903.40 0.2070837
903.50 0.2070117
903.60 0.2069397
903.70 0.2068677
903.80 0.2067957
903.90 0.2067238
904.00 0.2066519
904.10 0.20658
904.20 0.2065082
904.30 0.2064364
904.40 0.2063646
904.50 0.2062928
904.60 0.2062211
904.70 0.2061494
904.80 0.2060777
904.90 0.206006
905.00 0.2059344
905.10 0.2058628
905.20 0.2057912
905.30 0.2057197
905.40 0.2056482
905.50 0.2055767
905.60 0.2055052
905.70 0.2054338
905.80 0.2053623
905.90 0.205291
906.00 0.2052196
906.10 0.2051483
906.20 0.2050775
906.30 0.205008
906.40 0.2049385
906.50 0.2048691
906.60 0.2047996
906.70 0.2047302
906.80 0.2046608
906.90 0.2045915
907.00 0.2045222
907.10 0.2044528
907.20 0.2043836
907.30 0.2043143
907.40 0.2042451
907.50 0.2041759
907.60 0.2041067
907.70 0.2040376
907.80 0.2039684
907.90 0.2038993
908.00 0.2038303
908.10 0.2037612
908.20 0.2036922
908.30 0.2036232
908.40 0.2035542
908.50 0.2034853
908.60 0.2034163
908.70 0.2033474
908.80 0.2032786
908.90 0.2032097
909.00 0.2031409
909.10 0.2030721
909.20 0.2030033
909.30 0.2029346
909.40 0.2028659
909.50 0.2027972
909.60 0.2027285
909.70 0.2026599
909.80 0.2025913
909.90 0.2025227
910.00 0.2024541
910.10 0.2023856
910.20 0.202317
910.30 0.2022486
910.40 0.2021801
910.50 0.2021116
910.60 0.2020432
910.70 0.2019748
910.80 0.2019065
910.90 0.2018381
911.00 0.2017698
911.10 0.2017015
911.20 0.2016333
911.30 0.201565
911.40 0.2014968
911.50 0.2014286
911.60 0.2013605
911.70 0.2012923
911.80 0.2012242
911.90 0.2011561
912.00 0.201088
912.10 0.20102
912.20 0.200952
912.30 0.200884
912.40 0.200816
912.50 0.2007481
912.60 0.2006802
912.70 0.2006123
912.80 0.2005444
912.90 0.2004766
913.00 0.2004088
913.10 0.200341
913.20 0.2002732
913.30 0.2002055
913.40 0.2001378
913.50 0.2000701
913.60 0.2000024
913.70 0.1999348
913.80 0.1998671
913.90 0.1997996
914.00 0.199732
914.10 0.1996644
914.20 0.1995969
914.30 0.1995294
914.40 0.199462
914.50 0.1993945
914.60 0.1993271
914.70 0.1992597
914.80 0.1991923
914.90 0.199125
915.00 0.1990577
915.10 0.1989904
915.20 0.1989231
915.30 0.198855
915.40 0.1987866
915.50 0.1987181
915.60 0.1986497
915.70 0.1985813
915.80 0.198513
915.90 0.1984446
916.00 0.1983763
916.10 0.198308
916.20 0.1982398
916.30 0.1981716
916.40 0.1981034
916.50 0.1980352
916.60 0.197967
916.70 0.1978989
916.80 0.1978308
916.90 0.1977627
917.00 0.1976946
917.10 0.1976266
917.20 0.1975586
917.30 0.1974906
917.40 0.1974227
917.50 0.1973547
917.60 0.1972868
917.70 0.1972189
917.80 0.1971511
917.90 0.1970832
918.00 0.1970154
918.10 0.1969477
918.20 0.1968799
918.30 0.1968122
918.40 0.1967445
918.50 0.1966768
918.60 0.1966091
918.70 0.1965415
918.80 0.1964739
918.90 0.1964063
919.00 0.1963387
919.10 0.1962712
919.20 0.1962037
919.30 0.1961362
919.40 0.1960687
919.50 0.1960013
919.60 0.1959339
919.70 0.1958665
919.80 0.1957991
919.90 0.1957332
920.00 0.1956673
920.10 0.1956015
920.20 0.1955357
920.30 0.1954699
920.40 0.1954041
920.50 0.1953384
920.60 0.1952727
920.70 0.195207
920.80 0.1951413
920.90 0.1950757
921.00 0.1950101
921.10 0.1949445
921.20 0.1948789
921.30 0.1948134
921.40 0.1947479
921.50 0.1946824
921.60 0.1946169
921.70 0.1945514
921.80 0.194486
921.90 0.1944206
922.00 0.1943552
922.10 0.1942899
922.20 0.1942245
922.30 0.1941592
922.40 0.194094
922.50 0.1940287
922.60 0.1939635
922.70 0.1938983
922.80 0.1938331
922.90 0.1937679
923.00 0.1937028
923.10 0.1936376
923.20 0.1935725
923.30 0.1935075
923.40 0.1934424
923.50 0.1933774
923.60 0.1933124
923.70 0.1932474
923.80 0.1931825
923.90 0.1931176
924.00 0.1930527
924.10 0.1929878
924.20 0.1929229
924.30 0.1928581
924.40 0.1927933
924.50 0.1927288
924.60 0.1926642
924.70 0.1925997
924.80 0.1925352
924.90 0.1924708
925.00 0.1924063
925.10 0.1923419
925.20 0.1922775
925.30 0.1922131
925.40 0.1921488
925.50 0.1920845
925.60 0.1920202
925.70 0.1919559
925.80 0.1918916
925.90 0.1918274
926.00 0.1917632
926.10 0.191699
926.20 0.1916349
926.30 0.1915707
926.40 0.1915066
926.50 0.1914425
926.60 0.1913785
926.70 0.1913144
926.80 0.1912504
926.90 0.1911864
927.00 0.1911224
927.10 0.1910585
927.20 0.1909945
927.30 0.1909306
927.40 0.1908668
927.50 0.1908029
927.60 0.1907391
927.70 0.1906752
927.80 0.1906115
927.90 0.1905477
928.00 0.1904839
928.10 0.1904202
928.20 0.1903565
928.30 0.1902929
928.40 0.1902292
928.50 0.1901656
928.60 0.190102
928.70 0.1900384
928.80 0.1899748
928.90 0.1899113
929.00 0.1898478
929.10 0.1897829
929.20 0.189718
929.30 0.1896532
929.40 0.1895884
929.50 0.1895235
929.60 0.1894588
929.70 0.189394
929.80 0.1893293
929.90 0.1892645
930.00 0.1891998
930.10 0.1891352
930.20 0.1890705
930.30 0.1890059
930.40 0.1889413
930.50 0.1888767
930.60 0.1888122
930.70 0.1887476
930.80 0.1886831
930.90 0.1886187
931.00 0.1885542
931.10 0.1884898
931.20 0.1884254
931.30 0.188361
931.40 0.1882966
931.50 0.1882323
931.60 0.1881679
931.70 0.1881036
931.80 0.1880394
931.90 0.1879751
932.00 0.1879109
932.10 0.1878467
932.20 0.1877825
932.30 0.1877183
932.40 0.1876542
932.50 0.1875901
932.60 0.187526
932.70 0.187462
932.80 0.1873979
932.90 0.1873339
933.00 0.1872699
933.10 0.1872059
933.20 0.187142
933.30 0.1870781
933.40 0.1870142
933.50 0.1869503
933.60 0.1868864
933.70 0.1868238
933.80 0.1867616
933.90 0.1866994
934.00 0.1866373
934.10 0.1865752
934.20 0.1865131
934.30 0.186451
934.40 0.1863889
934.50 0.1863269
934.60 0.1862649
934.70 0.1862029
934.80 0.1861409
934.90 0.186079
935.00 0.1860171
935.10 0.1859552
935.20 0.1858933
935.30 0.1858314
935.40 0.1857696
935.50 0.1857078
935.60 0.185646
935.70 0.1855842
935.80 0.1855225
935.90 0.1854608
936.00 0.1853991
936.10 0.1853374
936.20 0.1852757
936.30 0.1852141
936.40 0.1851525
936.50 0.1850909
936.60 0.1850293
936.70 0.1849678
936.80 0.1849063
936.90 0.1848448
937.00 0.1847833
937.10 0.1847218
937.20 0.1846604
937.30 0.184599
937.40 0.1845376
937.50 0.1844762
937.60 0.1844149
937.70 0.1843535
937.80 0.1842922
937.90 0.184231
938.00 0.1841697
938.10 0.1841085
938.20 0.1840472
938.30 0.1839861
938.40 0.1839249
938.50 0.1838637
938.60 0.1838026
938.70 0.1837415
938.80 0.1836804
938.90 0.1836194
939.00 0.1835583
939.10 0.1834973
939.20 0.1834363
939.30 0.1833753
939.40 0.1833144
939.50 0.1832534
939.60 0.1831925
939.70 0.1831316
939.80 0.1830708
939.90 0.1830099
940.00 0.1829491
940.10 0.1828883
940.20 0.1828275
940.30 0.1827668
940.40 0.182706
940.50 0.1826453
940.60 0.1825846
940.70 0.182524
940.80 0.1824633
940.90 0.1824027
941.00 0.1823421
941.10 0.1822815
941.20 0.1822209
941.30 0.1821604
941.40 0.1820999
941.50 0.1820394
941.60 0.1819789
941.70 0.1819184
941.80 0.181858
941.90 0.1817976
942.00 0.1817372
942.10 0.1816768
942.20 0.1816165
942.30 0.1815562
942.40 0.1814959
942.50 0.1814356
942.60 0.1813753
942.70 0.1813151
942.80 0.1812549
942.90 0.1811947
943.00 0.1811343
943.10 0.1810737
943.20 0.1810131
943.30 0.1809526
943.40 0.180892
943.50 0.1808315
943.60 0.180771
943.70 0.1807105
943.80 0.1806501
943.90 0.1805896
944.00 0.1805292
944.10 0.1804688
944.20 0.1804084
944.30 0.1803481
944.40 0.1802878
944.50 0.1802275
944.60 0.1801672
944.70 0.1801069
944.80 0.1800467
944.90 0.1799864
945.00 0.1799262
945.10 0.1798661
945.20 0.1798059
945.30 0.1797458
945.40 0.1796857
945.50 0.1796256
945.60 0.1795655
945.70 0.1795054
945.80 0.1794454
945.90 0.1793854
946.00 0.1793254
946.10 0.1792655
946.20 0.1792055
946.30 0.1791456
946.40 0.1790857
946.50 0.1790258
946.60 0.178966
946.70 0.1789061
946.80 0.1788463
946.90 0.1787865
947.00 0.1787267
947.10 0.178667
947.20 0.1786073
947.30 0.1785475
947.40 0.1784879
947.50 0.1784282
947.60 0.1783685
947.70 0.1783089
947.80 0.1782493
947.90 0.1781897
948.00 0.1781302
948.10 0.1780706
948.20 0.1780111
948.30 0.1779516
948.40 0.1778921
948.50 0.1778327
948.60 0.1777733
948.70 0.1777138
948.80 0.1776545
948.90 0.1775951
949.00 0.1775357
949.10 0.1774764
949.20 0.1774171
949.30 0.1773578
949.40 0.1772986
949.50 0.1772393
949.60 0.1771801
949.70 0.1771209
949.80 0.1770617
949.90 0.1770025
950.00 0.1769434
950.10 0.1768843
950.20 0.1768252
950.30 0.1767661
950.40 0.1767071
950.50 0.176648
950.60 0.176589
950.70 0.17653
950.80 0.176471
950.90 0.1764121
951.00 0.1763532
951.10 0.1762943
951.20 0.1762354
951.30 0.1761765
951.40 0.1761177
951.50 0.1760588
951.60 0.176
951.70 0.1759412
951.80 0.1758825
951.90 0.1758237
952.00 0.175765
952.10 0.1757063
952.20 0.1756476
952.30 0.175589
952.40 0.1755304
952.50 0.1754727
952.60 0.1754149
952.70 0.1753572
952.80 0.1752995
952.90 0.1752419
953.00 0.1751842
953.10 0.1751266
953.20 0.175069
953.30 0.1750114
953.40 0.1749538
953.50 0.1748963
953.60 0.1748388
953.70 0.1747812
953.80 0.1747238
953.90 0.1746663
954.00 0.1746089
954.10 0.1745514
954.20 0.174494
954.30 0.1744366
954.40 0.1743793
954.50 0.1743219
954.60 0.1742646
954.70 0.1742073
954.80 0.17415
954.90 0.1740928
955.00 0.1740355
955.10 0.1739783
955.20 0.1739211
955.30 0.1738639
955.40 0.1738067
955.50 0.1737496
955.60 0.1736925
955.70 0.1736354
955.80 0.1735783
955.90 0.1735212
956.00 0.1734642
956.10 0.1734072
956.20 0.1733502
956.30 0.1732932
956.40 0.1732362
956.50 0.1731793
956.60 0.1731224
956.70 0.1730655
956.80 0.1730086
956.90 0.1729517
957.00 0.1728949
957.10 0.1728381
957.20 0.1727813
957.30 0.1727245
957.40 0.1726677
957.50 0.172611
957.60 0.1725542
957.70 0.1724975
957.80 0.1724409
957.90 0.1723842
958.00 0.1723276
958.10 0.1722709
958.20 0.1722143
958.30 0.1721578
958.40 0.1721012
958.50 0.1720446
958.60 0.1719881
958.70 0.1719316
958.80 0.1718751
958.90 0.1718187
959.00 0.1717622
959.10 0.1717058
959.20 0.1716494
959.30 0.171593
959.40 0.1715367
959.50 0.1714803
959.60 0.171424
959.70 0.1713677
959.80 0.1713114
959.90 0.1712551
960.00 0.1711989
960.10 0.1711427
960.20 0.1710865
960.30 0.1710303
960.40 0.1709741
960.50 0.170918
960.60 0.1708618
960.70 0.1708057
960.80 0.1707496
960.90 0.1706936
961.00 0.1706375
961.10 0.1705815
961.20 0.1705255
961.30 0.1704695
961.40 0.1704135
961.50 0.1703576
961.60 0.1703016
961.70 0.1702457
961.80 0.1701898
961.90 0.1701339
962.00 0.1700777
962.10 0.1700215
962.20 0.1699652
962.30 0.169909
962.40 0.1698528
962.50 0.1697966
962.60 0.1697404
962.70 0.1696843
962.80 0.1696282
962.90 0.1695721
963.00 0.169516
963.10 0.1694599
963.20 0.1694039
963.30 0.1693478
963.40 0.1692918
963.50 0.1692358
963.60 0.1691799
963.70 0.1691239
963.80 0.169068
963.90 0.1690121
964.00 0.1689562
964.10 0.1689003
964.20 0.1688444
964.30 0.1687886
964.40 0.1687328
964.50 0.168677
964.60 0.1686212
964.70 0.1685655
964.80 0.1685097
964.90 0.168454
965.00 0.1683983
965.10 0.1683426
965.20 0.168287
965.30 0.1682313
965.40 0.1681757
965.50 0.1681201
965.60 0.1680646
965.70 0.168009
965.80 0.1679534
965.90 0.1678979
966.00 0.1678424
966.10 0.1677869
966.20 0.1677315
966.30 0.167676
966.40 0.1676206
966.50 0.1675652
966.60 0.1675098
966.70 0.1674544
966.80 0.1673991
966.90 0.1673438
967.00 0.1672885
967.10 0.1672332
967.20 0.1671779
967.30 0.1671227
967.40 0.1670674
967.50 0.1670122
967.60 0.166957
967.70 0.1669018
967.80 0.1668467
967.90 0.1667915
968.00 0.1667364
968.10 0.1666813
968.20 0.1666263
968.30 0.1665712
968.40 0.1665162
968.50 0.1664611
968.60 0.1664061
968.70 0.1663512
968.80 0.1662962
968.90 0.1662412
969.00 0.1661863
969.10 0.1661314
969.20 0.1660765
969.30 0.1660217
969.40 0.1659668
969.50 0.165912
969.60 0.1658572
969.70 0.1658024
969.80 0.1657476
969.90 0.1656929
970.00 0.1656381
970.10 0.1655834
970.20 0.1655287
970.30 0.165474
970.40 0.1654194
970.50 0.1653647
970.60 0.1653101
970.70 0.1652555
970.80 0.1652009
970.90 0.1651464
971.00 0.1650918
971.10 0.1650373
971.20 0.1649828
971.30 0.1649283
971.40 0.1648738
971.50 0.1648194
971.60 0.1647655
971.70 0.1647119
971.80 0.1646583
971.90 0.1646048
972.00 0.1645512
972.10 0.1644977
972.20 0.1644442
972.30 0.1643907
972.40 0.1643373
972.50 0.1642838
972.60 0.1642304
972.70 0.164177
972.80 0.1641236
972.90 0.1640702
973.00 0.1640169
973.10 0.1639635
973.20 0.1639102
973.30 0.1638569
973.40 0.1638037
973.50 0.1637504
973.60 0.1636971
973.70 0.1636439
973.80 0.1635907
973.90 0.1635375
974.00 0.1634844
974.10 0.1634312
974.20 0.1633781
974.30 0.163325
974.40 0.1632719
974.50 0.1632188
974.60 0.1631657
974.70 0.1631127
974.80 0.1630597
974.90 0.1630067
975.00 0.1629537
975.10 0.1629007
975.20 0.1628478
975.30 0.1627948
975.40 0.1627419
975.50 0.162689
975.60 0.1626362
975.70 0.1625833
975.80 0.1625305
975.90 0.1624776
976.00 0.1624248
976.10 0.1623721
976.20 0.1623193
976.30 0.1622665
976.40 0.1622138
976.50 0.1621611
976.60 0.1621084
976.70 0.1620557
976.80 0.1620031
976.90 0.1619504
977.00 0.1618978
977.10 0.1618452
977.20 0.1617926
977.30 0.1617401
977.40 0.1616875
977.50 0.161635
977.60 0.1615825
977.70 0.16153
977.80 0.1614775
977.90 0.1614251
978.00 0.1613726
978.10 0.1613202
978.20 0.1612678
978.30 0.1612154
978.40 0.161163
978.50 0.1611107
978.60 0.1610584
978.70 0.161006
978.80 0.1609537
978.90 0.1609015
979.00 0.1608492
979.10 0.160797
979.20 0.1607447
979.30 0.1606925
979.40 0.1606404
979.50 0.1605882
979.60 0.160536
979.70 0.1604839
979.80 0.1604318
979.90 0.1603797
980.00 0.1603276
980.10 0.1602755
980.20 0.1602235
980.30 0.1601715
980.40 0.1601195
980.50 0.1600675
980.60 0.1600155
980.70 0.1599636
980.80 0.1599116
980.90 0.1598597
981.00 0.1598078
981.10 0.1597559
981.20 0.1597041
981.30 0.1596523
981.40 0.1596007
981.50 0.159549
981.60 0.1594974
981.70 0.1594459
981.80 0.1593943
981.90 0.1593427
982.00 0.1592912
982.10 0.1592397
982.20 0.1591882
982.30 0.1591367
982.40 0.1590853
982.50 0.1590338
982.60 0.1589824
982.70 0.158931
982.80 0.1588796
982.90 0.1588282
983.00 0.1587769
983.10 0.1587255
983.20 0.1586742
983.30 0.1586229
983.40 0.1585716
983.50 0.1585204
983.60 0.1584691
983.70 0.1584179
983.80 0.1583667
983.90 0.1583155
984.00 0.1582643
984.10 0.1582132
984.20 0.158162
984.30 0.1581109
984.40 0.1580598
984.50 0.1580087
984.60 0.1579576
984.70 0.1579066
984.80 0.1578555
984.90 0.1578045
985.00 0.1577535
985.10 0.1577025
985.20 0.1576515
985.30 0.1576006
985.40 0.1575497
985.50 0.1574987
985.60 0.1574478
985.70 0.157397
985.80 0.1573461
985.90 0.1572952
986.00 0.1572444
986.10 0.1571936
986.20 0.1571428
986.30 0.157092
986.40 0.1570413
986.50 0.1569905
986.60 0.1569398
986.70 0.1568891
986.80 0.1568384
986.90 0.1567877
987.00 0.1567371
987.10 0.1566864
987.20 0.1566358
987.30 0.1565852
987.40 0.1565346
987.50 0.1564841
987.60 0.1564335
987.70 0.156383
987.80 0.1563325
987.90 0.156282
988.00 0.1562315
988.10 0.156181
988.20 0.1561306
988.30 0.1560801
988.40 0.1560297
988.50 0.1559793
988.60 0.1559289
988.70 0.1558786
988.80 0.1558282
988.90 0.1557779
989.00 0.1557276
989.10 0.1556773
989.20 0.155627
989.30 0.1555768
989.40 0.1555265
989.50 0.1554763
989.60 0.1554261
989.70 0.1553759
989.80 0.1553257
989.90 0.1552756
990.00 0.1552254
990.10 0.1551753
990.20 0.1551252
990.30 0.1550751
990.40 0.155025
990.50 0.154975
990.60 0.154925
990.70 0.1548749
990.80 0.1548249
990.90 0.1547749
991.00 0.154725
991.10 0.1546751
991.20 0.1546253
991.30 0.1545756
991.40 0.1545259
991.50 0.1544762
991.60 0.1544265
991.70 0.1543768
991.80 0.1543272
991.90 0.1542776
992.00 0.1542279
992.10 0.1541783
992.20 0.1541288
992.30 0.1540792
992.40 0.1540296
992.50 0.1539801
992.60 0.1539306
992.70 0.1538811
992.80 0.1538316
992.90 0.1537822
993.00 0.1537327
993.10 0.1536833
993.20 0.1536339
993.30 0.1535845
993.40 0.1535351
993.50 0.1534857
993.60 0.1534364
993.70 0.153387
993.80 0.1533377
993.90 0.1532884
994.00 0.1532391
994.10 0.1531899
994.20 0.1531406
994.30 0.1530914
994.40 0.1530422
994.50 0.152993
994.60 0.1529438
994.70 0.1528946
994.80 0.1528455
994.90 0.1527964
995.00 0.1527473
995.10 0.1526982
995.20 0.1526491
995.30 0.1526
995.40 0.152551
995.50 0.1525019
995.60 0.1524529
995.70 0.1524039
995.80 0.152355
995.90 0.152306
996.00 0.152257
996.10 0.1522081
996.20 0.1521592
996.30 0.1521103
996.40 0.1520614
996.50 0.1520126
996.60 0.1519637
996.70 0.1519149
996.80 0.1518661
996.90 0.1518173
997.00 0.1517685
997.10 0.1517198
997.20 0.151671
997.30 0.1516223
997.40 0.1515736
997.50 0.1515249
997.60 0.1514762
997.70 0.1514275
997.80 0.1513789
997.90 0.1513303
998.00 0.1512816
998.10 0.151233
998.20 0.1511845
998.30 0.1511359
998.40 0.1510874
998.50 0.1510388
998.60 0.1509903
998.70 0.1509418
998.80 0.1508933
998.90 0.1508449
999.00 0.1507964
999.10 0.150748
999.20 0.1506996
999.30 0.1506512
999.40 0.1506028
999.50 0.1505544
999.60 0.1505061
999.70 0.1504577
999.80 0.1504094
999.90 0.1503611
1000.00 0.1503128
1000.10 0.1502646
1000.20 0.1502163
1000.30 0.1501681
1000.40 0.1501198
1000.50 0.1500716
1000.60 0.1500235
1000.70 0.1499753
1000.80 0.1499271
1000.90 0.149879
1001.00 0.1498309
1001.10 0.149783
1001.20 0.1497351
1001.30 0.1496872
1001.40 0.1496393
1001.50 0.1495914
1001.60 0.1495436
1001.70 0.1494957
1001.80 0.1494479
1001.90 0.1494001
1002.00 0.1493523
1002.10 0.1493046
1002.20 0.1492568
1002.30 0.1492091
1002.40 0.1491614
1002.50 0.1491137
1002.60 0.149066
1002.70 0.1490183
1002.80 0.1489707
1002.90 0.148923
1003.00 0.1488754
1003.10 0.1488278
1003.20 0.1487802
1003.30 0.1487326
1003.40 0.1486851
1003.50 0.1486375
1003.60 0.14859
1003.70 0.1485425
1003.80 0.148495
1003.90 0.1484475
1004.00 0.1484
1004.10 0.1483526
1004.20 0.1483052
1004.30 0.1482578
1004.40 0.1482104
1004.50 0.148163
1004.60 0.1481156
1004.70 0.1480683
1004.80 0.1480209
1004.90 0.1479736
1005.00 0.1479263
1005.10 0.147879
1005.20 0.1478317
1005.30 0.1477845
1005.40 0.1477372
1005.50 0.14769
1005.60 0.1476428
1005.70 0.1475956
1005.80 0.1475484
1005.90 0.1475013
1006.00 0.1474541
1006.10 0.147407
1006.20 0.1473599
1006.30 0.1473128
1006.40 0.1472657
1006.50 0.1472186
1006.60 0.1471716
1006.70 0.1471245
1006.80 0.1470775
1006.90 0.1470305
1007.00 0.1469835
1007.10 0.1469365
1007.20 0.1468896
1007.30 0.1468426
1007.40 0.1467957
1007.50 0.1467488
1007.60 0.1467019
1007.70 0.146655
1007.80 0.1466082
1007.90 0.1465613
1008.00 0.1465145
1008.10 0.1464677
1008.20 0.1464209
1008.30 0.1463741
1008.40 0.1463273
1008.50 0.1462805
1008.60 0.1462338
1008.70 0.1461871
1008.80 0.1461404
1008.90 0.1460937
1009.00 0.146047
1009.10 0.1460003
1009.20 0.1459537
1009.30 0.1459071
1009.40 0.1458605
1009.50 0.1458139
1009.60 0.1457673
1009.70 0.1457207
1009.80 0.1456742
1009.90 0.1456276
1010.00 0.1455811
1010.10 0.1455346
1010.20 0.1454881
1010.30 0.1454416
1010.40 0.1453952
1010.50 0.1453487
1010.60 0.1453023
1010.70 0.1452559
1010.80 0.1452095
1010.90 0.1451631
1011.00 0.1451168
1011.10 0.1450706
1011.20 0.1450245
1011.30 0.1449783
1011.40 0.1449322
1011.50 0.1448861
1011.60 0.14484
1011.70 0.1447939
1011.80 0.1447478
1011.90 0.1447018
1012.00 0.1446558
1012.10 0.1446097
1012.20 0.1445637
1012.30 0.1445178
1012.40 0.1444718
1012.50 0.1444258
1012.60 0.1443799
1012.70 0.144334
1012.80 0.1442881
1012.90 0.1442422
1013.00 0.1441963
1013.10 0.1441504
1013.20 0.1441046
1013.30 0.1440587
1013.40 0.1440129
1013.50 0.1439671
1013.60 0.1439213
1013.70 0.1438755
1013.80 0.1438298
1013.90 0.143784
1014.00 0.1437383
1014.10 0.1436926
1014.20 0.1436469
1014.30 0.1436012
1014.40 0.1435556
1014.50 0.1435099
1014.60 0.1434643
1014.70 0.1434187
1014.80 0.1433731
1014.90 0.1433275
1015.00 0.1432819
1015.10 0.1432363
1015.20 0.1431908
1015.30 0.1431453
1015.40 0.1430997
1015.50 0.1430542
1015.60 0.1430088
1015.70 0.1429633
1015.80 0.1429178
1015.90 0.1428724
1016.00 0.142827
1016.10 0.1427816
1016.20 0.1427362
1016.30 0.1426908
1016.40 0.1426454
1016.50 0.1426001
1016.60 0.1425548
1016.70 0.1425094
1016.80 0.1424641
1016.90 0.1424188
1017.00 0.1423736
1017.10 0.1423283
1017.20 0.1422831
1017.30 0.1422378
1017.40 0.1421926
1017.50 0.1421474
1017.60 0.1421023
1017.70 0.1420571
1017.80 0.1420119
1017.90 0.1419668
1018.00 0.1419217
1018.10 0.1418766
1018.20 0.1418315
1018.30 0.1417864
1018.40 0.1417413
1018.50 0.1416963
1018.60 0.1416513
1018.70 0.1416062
1018.80 0.1415612
1018.90 0.1415163
1019.00 0.1414713
1019.10 0.1414263
1019.20 0.1413814
1019.30 0.1413365
1019.40 0.1412915
1019.50 0.1412466
1019.60 0.1412018
1019.70 0.1411569
1019.80 0.141112
1019.90 0.1410672
1020.00 0.1410224
1020.10 0.1409776
1020.20 0.1409328
1020.30 0.140888
1020.40 0.1408432
1020.50 0.1407985
1020.60 0.1407537
1020.70 0.140709
1020.80 0.1406643
1020.90 0.1406196
1021.00 0.140575
1021.10 0.1405303
1021.20 0.1404858
1021.30 0.1404414
1021.40 0.1403969
1021.50 0.1403525
1021.60 0.1403081
1021.70 0.1402637
1021.80 0.1402193
1021.90 0.1401749
1022.00 0.1401306
1022.10 0.1400862
1022.20 0.1400419
1022.30 0.1399976
1022.40 0.1399533
1022.50 0.139909
1022.60 0.1398647
1022.70 0.1398205
1022.80 0.1397762
1022.90 0.139732
1023.00 0.1396878
1023.10 0.1396436
1023.20 0.1395994
1023.30 0.1395553
1023.40 0.1395111
1023.50 0.139467
1023.60 0.1394228
1023.70 0.1393787
1023.80 0.1393346
1023.90 0.1392906
1024.00 0.1392465
1024.10 0.1392024
1024.20 0.1391584
1024.30 0.1391144
1024.40 0.1390704
1024.50 0.1390264
1024.60 0.1389824
1024.70 0.1389385
1024.80 0.1388945
1024.90 0.1388506
1025.00 0.1388066
1025.10 0.1387627
1025.20 0.1387189
1025.30 0.138675
1025.40 0.1386311
1025.50 0.1385873
1025.60 0.1385434
1025.70 0.1384996
1025.80 0.1384558
1025.90 0.138412
1026.00 0.1383683
1026.10 0.1383245
1026.20 0.1382807
1026.30 0.138237
1026.40 0.1381933
1026.50 0.1381496
1026.60 0.1381059
1026.70 0.1380622
1026.80 0.1380186
1026.90 0.1379749
1027.00 0.1379313
1027.10 0.1378877
1027.20 0.137844
1027.30 0.1378005
1027.40 0.1377569
1027.50 0.1377133
1027.60 0.1376698
1027.70 0.1376262
1027.80 0.1375827
1027.90 0.1375392
1028.00 0.1374957
1028.10 0.1374522
1028.20 0.1374088
1028.30 0.1373653
1028.40 0.1373219
1028.50 0.1372785
1028.60 0.1372351
1028.70 0.1371917
1028.80 0.1371483
1028.90 0.137105
1029.00 0.1370616
1029.10 0.1370183
1029.20 0.136975
1029.30 0.1369316
1029.40 0.1368884
1029.50 0.1368451
1029.60 0.1368018
1029.70 0.1367586
1029.80 0.1367153
1029.90 0.1366721
1030.00 0.1366289
1030.10 0.1365857
1030.20 0.1365425
1030.30 0.1364994
1030.40 0.1364562
1030.50 0.1364131
1030.60 0.13637
1030.70 0.1363269
1030.80 0.1362838
1030.90 0.1362407
1031.00 0.1361976
1031.10 0.1361546
1031.20 0.1361116
1031.30 0.1360685
1031.40 0.1360257
1031.50 0.1359829
1031.60 0.1359401
1031.70 0.1358973
1031.80 0.1358545
1031.90 0.1358117
1032.00 0.135769
1032.10 0.1357262
1032.20 0.1356835
1032.30 0.1356408
1032.40 0.1355981
1032.50 0.1355554
1032.60 0.1355127
1032.70 0.1354701
1032.80 0.1354274
1032.90 0.1353848
1033.00 0.1353422
1033.10 0.1352996
1033.20 0.135257
1033.30 0.1352144
1033.40 0.1351718
1033.50 0.1351293
1033.60 0.1350868
1033.70 0.1350443
1033.80 0.1350018
1033.90 0.1349593
1034.00 0.1349168
1034.10 0.1348743
1034.20 0.1348319
1034.30 0.1347894
1034.40 0.134747
1034.50 0.1347046
1034.60 0.1346622
1034.70 0.1346198
1034.80 0.1345775
1034.90 0.1345351
1035.00 0.1344928
1035.10 0.1344505
1035.20 0.1344082
1035.30 0.1343659
1035.40 0.1343236
1035.50 0.1342813
1035.60 0.1342391
1035.70 0.1341968
1035.80 0.1341546
1035.90 0.1341124
1036.00 0.1340702
1036.10 0.134028
1036.20 0.1339858
1036.30 0.1339437
1036.40 0.1339015
1036.50 0.1338598
1036.60 0.1338187
1036.70 0.1337776
1036.80 0.1337365
1036.90 0.1336955
1037.00 0.1336544
1037.10 0.1336134
1037.20 0.1335724
1037.30 0.1335314
1037.40 0.1334904
1037.50 0.1334494
1037.60 0.1334084
1037.70 0.1333675
1037.80 0.1333265
1037.90 0.1332856
1038.00 0.1332447
1038.10 0.1332038
1038.20 0.1331629
1038.30 0.133122
1038.40 0.1330812
1038.50 0.1330403
1038.60 0.1329995
1038.70 0.1329587
1038.80 0.1329178
1038.90 0.132877
1039.00 0.1328363
1039.10 0.1327955
1039.20 0.1327547
1039.30 0.132714
1039.40 0.1326733
1039.50 0.1326326
1039.60 0.1325919
1039.70 0.1325512
1039.80 0.1325105
1039.90 0.1324698
1040.00 0.1324292
1040.10 0.1323885
1040.20 0.1323479
1040.30 0.1323073
1040.40 0.1322667
1040.50 0.1322261
1040.60 0.1321856
1040.70 0.132145
1040.80 0.1321045
1040.90 0.1320639
1041.00 0.1320234
1041.10 0.1319829
1041.20 0.1319424
1041.30 0.1319019
1041.40 0.1318615
1041.50 0.131821
1041.60 0.1317806
1041.70 0.1317394
1041.80 0.1316982
1041.90 0.1316569
1042.00 0.1316157
1042.10 0.1315745
1042.20 0.1315333
1042.30 0.1314921
1042.40 0.1314509
1042.50 0.1314097
1042.60 0.1313686
1042.70 0.1313274
1042.80 0.1312863
1042.90 0.1312452
1043.00 0.1312041
1043.10 0.131163
1043.20 0.131122
1043.30 0.1310809
1043.40 0.1310398
1043.50 0.1309988
1043.60 0.1309578
1043.70 0.1309168
1043.80 0.1308758
1043.90 0.1308348
1044.00 0.1307939
1044.10 0.1307529
1044.20 0.130712
1044.30 0.130671
1044.40 0.1306301
1044.50 0.1305892
1044.60 0.1305483
1044.70 0.1305075
1044.80 0.1304666
1044.90 0.1304258
1045.00 0.1303849
1045.10 0.1303441
1045.20 0.1303033
1045.30 0.1302625
1045.40 0.1302217
1045.50 0.1301809
1045.60 0.1301402
1045.70 0.1300995
1045.80 0.1300587
1045.90 0.130018
1046.00 0.1299773
1046.10 0.1299366
1046.20 0.1298959
1046.30 0.1298553
1046.40 0.1298146
1046.50 0.129774
1046.60 0.1297334
1046.70 0.1296928
1046.80 0.1296522
1046.90 0.1296116
1047.00 0.129571
1047.10 0.1295305
1047.20 0.1294899
1047.30 0.1294494
1047.40 0.1294089
1047.50 0.1293684
1047.60 0.1293279
1047.70 0.1292874
1047.80 0.1292469
1047.90 0.1292065
1048.00 0.129166
1048.10 0.1291256
1048.20 0.1290852
1048.30 0.1290448
1048.40 0.1290044
1048.50 0.128964
1048.60 0.1289237
1048.70 0.1288833
1048.80 0.128843
1048.90 0.1288027
1049.00 0.1287624
1049.10 0.1287221
1049.20 0.1286818
1049.30 0.1286415
1049.40 0.1286013
1049.50 0.128561
1049.60 0.1285208
1049.70 0.1284806
1049.80 0.1284404
1049.90 0.1284002
1050.00 0.12836
1050.10 0.1283198
1050.20 0.1282797
1050.30 0.1282396
1050.40 0.1281994
1050.50 0.1281593
1050.60 0.1281192
1050.70 0.1280791
1050.80 0.1280391
1050.90 0.127999
1051.00 0.1279589
1051.10 0.1279189
1051.20 0.1278789
1051.30 0.1278389
1051.40 0.1277989
1051.50 0.1277589
1051.60 0.1277189
1051.70 0.127679
1051.80 0.127639
1051.90 0.1275991
1052.00 0.1275592
1052.10 0.1275197
1052.20 0.1274804
1052.30 0.1274412
1052.40 0.127402
1052.50 0.1273628
1052.60 0.1273236
1052.70 0.1272844
1052.80 0.1272452
1052.90 0.127206
1053.00 0.1271669
1053.10 0.1271277
1053.20 0.1270886
1053.30 0.1270495
1053.40 0.1270104
1053.50 0.1269713
1053.60 0.1269322
1053.70 0.1268932
1053.80 0.1268541
1053.90 0.1268151
1054.00 0.126776
1054.10 0.126737
1054.20 0.126698
1054.30 0.126659
1054.40 0.1266201
1054.50 0.1265811
1054.60 0.1265421
1054.70 0.1265032
1054.80 0.1264643
1054.90 0.1264254
1055.00 0.1263865
1055.10 0.1263476
1055.20 0.1263087
1055.30 0.1262698
1055.40 0.126231
1055.50 0.1261921
1055.60 0.1261533
1055.70 0.1261145
1055.80 0.1260757
1055.90 0.1260369
1056.00 0.1259981
1056.10 0.1259594
1056.20 0.1259206
1056.30 0.1258819
1056.40 0.1258431
1056.50 0.1258044
1056.60 0.1257657
1056.70 0.125727
1056.80 0.1256883
1056.90 0.1256497
1057.00 0.125611
1057.10 0.1255724
1057.20 0.1255338
1057.30 0.1254951
1057.40 0.1254565
1057.50 0.1254179
1057.60 0.1253794
1057.70 0.1253408
1057.80 0.1253022
1057.90 0.1252637
1058.00 0.1252252
1058.10 0.1251867
1058.20 0.1251482
1058.30 0.1251097
1058.40 0.1250712
1058.50 0.1250327
1058.60 0.1249943
1058.70 0.1249558
1058.80 0.1249174
1058.90 0.124879
1059.00 0.1248406
1059.10 0.1248022
1059.20 0.1247638
1059.30 0.1247254
1059.40 0.124687
1059.50 0.1246487
1059.60 0.1246104
1059.70 0.1245721
1059.80 0.1245337
1059.90 0.1244954
1060.00 0.1244572
1060.10 0.1244189
1060.20 0.1243806
1060.30 0.1243424
1060.40 0.1243041
1060.50 0.1242659
1060.60 0.1242277
1060.70 0.1241895
1060.80 0.1241513
1060.90 0.1241132
1061.00 0.124075
1061.10 0.1240368
1061.20 0.1239987
1061.30 0.1239606
1061.40 0.1239225
1061.50 0.1238844
1061.60 0.1238463
1061.70 0.1238082
1061.80 0.1237701
1061.90 0.1237321
1062.00 0.123694
1062.10 0.123656
1062.20 0.123618
1062.30 0.12358
1062.40 0.123542
1062.50 0.123504
1062.60 0.1234663
1062.70 0.123429
1062.80 0.1233917
1062.90 0.1233543
1063.00 0.123317
1063.10 0.1232798
1063.20 0.1232425
1063.30 0.1232052
1063.40 0.1231679
1063.50 0.1231307
1063.60 0.1230935
1063.70 0.1230562
1063.80 0.123019
1063.90 0.1229818
1064.00 0.1229447
1064.10 0.1229075
1064.20 0.1228703
1064.30 0.1228332
1064.40 0.122796
1064.50 0.1227589
1064.60 0.1227218
1064.70 0.1226847
1064.80 0.1226476
1064.90 0.1226105
1065.00 0.1225734
1065.10 0.1225364
1065.20 0.1224993
1065.30 0.1224623
1065.40 0.1224253
1065.50 0.1223883
1065.60 0.1223513
1065.70 0.1223143
1065.80 0.1222773
1065.90 0.1222404
1066.00 0.1222034
1066.10 0.1221665
1066.20 0.1221295
1066.30 0.1220926
1066.40 0.1220557
1066.50 0.1220188
1066.60 0.1219819
1066.70 0.1219451
1066.80 0.1219082
1066.90 0.1218714
1067.00 0.1218345
1067.10 0.1217977
1067.20 0.1217609
1067.30 0.1217241
1067.40 0.1216873
1067.50 0.1216505
1067.60 0.1216138
1067.70 0.121577
1067.80 0.1215403
1067.90 0.1215032
1068.00 0.1214656
1068.10 0.121428
1068.20 0.1213903
1068.30 0.1213527
1068.40 0.1213151
1068.50 0.1212775
1068.60 0.1212399
1068.70 0.1212024
1068.80 0.1211648
1068.90 0.1211273
1069.00 0.1210897
1069.10 0.1210522
1069.20 0.1210147
1069.30 0.1209772
1069.40 0.1209397
1069.50 0.1209023
1069.60 0.1208648
1069.70 0.1208273
1069.80 0.1207899
1069.90 0.1207525
1070.00 0.1207151
1070.10 0.1206777
1070.20 0.1206403
1070.30 0.1206029
1070.40 0.1205655
1070.50 0.1205282
1070.60 0.1204908
1070.70 0.1204535
1070.80 0.1204162
1070.90 0.1203789
1071.00 0.1203416
1071.10 0.1203043
1071.20 0.120267
1071.30 0.1202298
1071.40 0.1201925
1071.50 0.1201553
1071.60 0.1201181
1071.70 0.1200809
1071.80 0.1200437
1071.90 0.1200065
1072.00 0.1199693
1072.10 0.1199321
1072.20 0.119895
1072.30 0.1198578
1072.40 0.1198207
1072.50 0.1197836
1072.60 0.1197465
1072.70 0.1197094
1072.80 0.1196723
1072.90 0.1196352
1073.00 0.1195982
1073.10 0.1195611
1073.20 0.1195243
1073.30 0.1194884
1073.40 0.1194524
1073.50 0.1194165
1073.60 0.1193805
1073.70 0.1193446
1073.80 0.1193087
1073.90 0.1192728
1074.00 0.1192369
1074.10 0.1192011
1074.20 0.1191652
1074.30 0.1191294
1074.40 0.1190935
1074.50 0.1190577
1074.60 0.1190219
1074.70 0.1189861
1074.80 0.1189503
1074.90 0.1189145
1075.00 0.1188787
1075.10 0.118843
1075.20 0.1188072
1075.30 0.1187715
1075.40 0.1187358
1075.50 0.1187001
1075.60 0.1186643
1075.70 0.1186287
1075.80 0.118593
1075.90 0.1185573
1076.00 0.1185216
1076.10 0.118486
1076.20 0.1184504
1076.30 0.1184147
1076.40 0.1183791
1076.50 0.1183435
1076.60 0.1183079
1076.70 0.1182724
1076.80 0.1182368
1076.90 0.1182012
1077.00 0.1181657
1077.10 0.1181301
1077.20 0.1180946
1077.30 0.1180591
1077.40 0.1180236
1077.50 0.1179881
1077.60 0.1179526
1077.70 0.1179172
1077.80 0.1178817
1077.90 0.1178463
1078.00 0.1178108
1078.10 0.1177754
1078.20 0.11774
1078.30 0.1177046
1078.40 0.1176692
1078.50 0.1176338
1078.60 0.117598
1078.70 0.1175617
1078.80 0.1175255
1078.90 0.1174892
1079.00 0.117453
1079.10 0.1174168
1079.20 0.1173806
1079.30 0.1173444
1079.40 0.1173082
1079.50 0.117272
1079.60 0.1172359
1079.70 0.1171997
1079.80 0.1171636
1079.90 0.1171275
1080.00 0.1170914
1080.10 0.1170553
1080.20 0.1170192
1080.30 0.1169831
1080.40 0.116947
1080.50 0.116911
1080.60 0.1168749
1080.70 0.1168389
1080.80 0.1168029
1080.90 0.1167669
1081.00 0.1167309
1081.10 0.1166949
1081.20 0.1166589
1081.30 0.1166229
1081.40 0.116587
1081.50 0.116551
1081.60 0.1165151
1081.70 0.1164792
1081.80 0.1164433
1081.90 0.1164074
1082.00 0.1163715
1082.10 0.1163356
1082.20 0.1162997
1082.30 0.1162639
1082.40 0.1162281
1082.50 0.1161922
1082.60 0.1161564
1082.70 0.1161206
1082.80 0.1160848
1082.90 0.116049
1083.00 0.1160132
1083.10 0.1159775
1083.20 0.1159417
1083.30 0.115906
1083.40 0.1158703
1083.50 0.1158345
1083.60 0.1157988
1083.70 0.1157631
1083.80 0.1157275
1083.90 0.1156918
1084.00 0.115657
1084.10 0.1156224
1084.20 0.1155878
1084.30 0.1155532
1084.40 0.1155186
1084.50 0.115484
1084.60 0.1154495
1084.70 0.1154149
1084.80 0.1153804
1084.90 0.1153458
1085.00 0.1153113
1085.10 0.1152768
1085.20 0.1152423
1085.30 0.1152078
1085.40 0.1151733
1085.50 0.1151388
1085.60 0.1151044
1085.70 0.1150699
1085.80 0.1150355
1085.90 0.1150011
1086.00 0.1149667
1086.10 0.1149322
1086.20 0.1148979
1086.30 0.1148635
1086.40 0.1148291
1086.50 0.1147947
1086.60 0.1147604
1086.70 0.114726
1086.80 0.1146917
1086.90 0.1146574
1087.00 0.1146231
1087.10 0.1145888
1087.20 0.1145545
1087.30 0.1145202
1087.40 0.1144859
1087.50 0.1144517
1087.60 0.1144174
1087.70 0.1143832
1087.80 0.114349
1087.90 0.1143148
1088.00 0.1142806
1088.10 0.1142464
1088.20 0.1142122
1088.30 0.114178
1088.40 0.1141438
1088.50 0.1141097
1088.60 0.1140756
1088.70 0.1140414
1088.80 0.1140073
1088.90 0.1139732
1089.00 0.1139391
1089.10 0.113905
1089.20 0.1138709
1089.30 0.1138369
1089.40 0.1138028
1089.50 0.1137688
1089.60 0.1137347
1089.70 0.1137007
1089.80 0.1136667
1089.90 0.1136327
1090.00 0.1135987
1090.10 0.1135647
1090.20 0.1135307
1090.30 0.1134968
1090.40 0.1134628
1090.50 0.1134289
1090.60 0.113395
1090.70 0.113361
1090.80 0.1133271
1090.90 0.1132932
1091.00 0.1132593
1091.10 0.1132255
1091.20 0.1131916
1091.30 0.1131577
1091.40 0.1131239
1091.50 0.1130901
1091.60 0.1130562
1091.70 0.1130224
1091.80 0.1129886
1091.90 0.1129548
1092.00 0.112921
1092.10 0.1128873
1092.20 0.1128535
1092.30 0.1128197
1092.40 0.112786
1092.50 0.1127523
1092.60 0.1127185
1092.70 0.1126848
1092.80 0.1126511
1092.90 0.1126174
1093.00 0.1125838
1093.10 0.1125501
1093.20 0.1125164
1093.30 0.1124828
1093.40 0.1124492
1093.50 0.1124155
1093.60 0.1123819
1093.70 0.1123483
1093.80 0.1123147
1093.90 0.1122811
1094.00 0.1122476
1094.10 0.112214
1094.20 0.1121804
1094.30 0.1121469
1094.40 0.1121134
1094.50 0.1120798
1094.60 0.1120463
1094.70 0.1120128
1094.80 0.1119792
1094.90 0.1119454
1095.00 0.1119116
1095.10 0.1118779
1095.20 0.1118441
1095.30 0.1118104
1095.40 0.1117767
1095.50 0.1117429
1095.60 0.1117092
1095.70 0.1116755
1095.80 0.1116418
1095.90 0.1116082
1096.00 0.1115745
1096.10 0.1115409
1096.20 0.1115072
1096.30 0.1114736
1096.40 0.1114399
1096.50 0.1114063
1096.60 0.1113727
1096.70 0.1113391
1096.80 0.1113056
1096.90 0.111272
1097.00 0.1112384
1097.10 0.1112049
1097.20 0.1111713
1097.30 0.1111378
1097.40 0.1111043
1097.50 0.1110708
1097.60 0.1110373
1097.70 0.1110038
1097.80 0.1109703
1097.90 0.1109368
1098.00 0.1109034
1098.10 0.1108699
1098.20 0.1108365
1098.30 0.1108031
1098.40 0.1107697
1098.50 0.1107363
1098.60 0.1107029
1098.70 0.1106695
1098.80 0.1106361
1098.90 0.1106027
1099.00 0.1105694
1099.10 0.110536
1099.20 0.1105027
1099.30 0.1104694
1099.40 0.1104361
1099.50 0.1104028
1099.60 0.1103695
1099.70 0.1103362
1099.80 0.1103029
1099.90 0.1102697
1100.00 0.1102364
1100.10 0.1102032
1100.20 0.1101699
1100.30 0.1101367
1100.40 0.1101035
1100.50 0.1100703
1100.60 0.1100371
1100.70 0.1100039
1100.80 0.1099708
1100.90 0.1099376
1101.00 0.1099045
1101.10 0.1098713
1101.20 0.1098382
1101.30 0.1098051
1101.40 0.109772
1101.50 0.1097389
1101.60 0.1097058
1101.70 0.1096727
1101.80 0.1096396
1101.90 0.1096066
1102.00 0.1095735
1102.10 0.1095405
1102.20 0.1095075
1102.30 0.1094744
1102.40 0.1094414
1102.50 0.1094084
1102.60 0.1093755
1102.70 0.1093425
1102.80 0.1093095
1102.90 0.1092766
1103.00 0.1092436
1103.10 0.1092107
1103.20 0.1091778
1103.30 0.1091448
1103.40 0.1091119
1103.50 0.109079
1103.60 0.1090462
1103.70 0.1090133
1103.80 0.1089804
1103.90 0.1089476
1104.00 0.1089147
1104.10 0.1088819
1104.20 0.1088491
1104.30 0.1088163
1104.40 0.1087835
1104.50 0.1087507
1104.60 0.1087179
1104.70 0.1086851
1104.80 0.1086523
1104.90 0.1086196
1105.00 0.1085868
1105.10 0.1085541
1105.20 0.1085214
1105.30 0.1084887
1105.40 0.108456
1105.50 0.1084233
1105.60 0.1083906
1105.70 0.1083579
1105.80 0.1083258
1105.90 0.1082937
1106.00 0.1082616
1106.10 0.1082295
1106.20 0.1081975
1106.30 0.1081654
1106.40 0.1081333
1106.50 0.1081013
1106.60 0.1080692
1106.70 0.1080372
1106.80 0.1080052
1106.90 0.1079732
1107.00 0.1079412
1107.10 0.1079092
1107.20 0.1078772
1107.30 0.1078453
1107.40 0.1078133
1107.50 0.1077813
1107.60 0.1077494
1107.70 0.1077175
1107.80 0.1076856
1107.90 0.1076536
1108.00 0.1076217
1108.10 0.1075899
1108.20 0.107558
1108.30 0.1075261
1108.40 0.1074942
1108.50 0.1074624
1108.60 0.1074306
1108.70 0.1073987
1108.80 0.1073669
1108.90 0.1073351
1109.00 0.1073033
1109.10 0.1072715
1109.20 0.1072397
1109.30 0.1072079
1109.40 0.1071762
1109.50 0.1071444
1109.60 0.1071127
1109.70 0.1070809
1109.80 0.1070492
1109.90 0.1070175
1110.00 0.1069858
1110.10 0.1069541
1110.20 0.1069224
1110.30 0.1068907
1110.40 0.1068591
1110.50 0.1068274
1110.60 0.1067958
1110.70 0.1067641
1110.80 0.1067325
1110.90 0.1067009
1111.00 0.1066693
1111.10 0.1066377
1111.20 0.1066061
1111.30 0.1065745
1111.40 0.1065429
1111.50 0.1065114
1111.60 0.1064798
1111.70 0.1064483
1111.80 0.1064167
1111.90 0.1063852
1112.00 0.1063537
1112.10 0.1063222
1112.20 0.1062907
1112.30 0.1062592
1112.40 0.1062277
1112.50 0.1061963
1112.60 0.1061648
1112.70 0.1061334
1112.80 0.1061019
1112.90 0.1060705
1113.00 0.1060391
1113.10 0.1060077
1113.20 0.1059763
1113.30 0.1059449
1113.40 0.1059135
1113.50 0.1058822
1113.60 0.1058508
1113.70 0.1058194
1113.80 0.1057881
1113.90 0.1057568
1114.00 0.1057254
1114.10 0.1056941
1114.20 0.1056628
1114.30 0.1056315
1114.40 0.1056003
1114.50 0.105569
1114.60 0.1055377
1114.70 0.1055065
1114.80 0.1054752
1114.90 0.105444
1115.00 0.1054128
1115.10 0.1053815
1115.20 0.1053503
1115.30 0.1053191
1115.40 0.1052879
1115.50 0.1052568
1115.60 0.1052256
1115.70 0.1051944
1115.80 0.1051633
1115.90 0.1051322
1116.00 0.105101
1116.10 0.1050699
1116.20 0.1050388
1116.30 0.1050077
1116.40 0.1049766
1116.50 0.1049455
1116.60 0.1049144
1116.70 0.1048834
1116.80 0.104852
1116.90 0.1048203
1117.00 0.1047885
1117.10 0.1047568
1117.20 0.1047251
1117.30 0.1046934
1117.40 0.1046617
1117.50 0.1046301
1117.60 0.1045984
1117.70 0.1045667
1117.80 0.1045351
1117.90 0.1045035
1118.00 0.1044718
1118.10 0.1044402
1118.20 0.1044086
1118.30 0.104377
1118.40 0.1043454
1118.50 0.1043138
1118.60 0.1042823
1118.70 0.1042507
1118.80 0.1042192
1118.90 0.1041876
1119.00 0.1041561
1119.10 0.1041246
1119.20 0.104093
1119.30 0.1040615
1119.40 0.1040301
1119.50 0.1039986
1119.60 0.1039671
1119.70 0.1039356
1119.80 0.1039042
1119.90 0.1038727
1120.00 0.1038413
1120.10 0.1038099
1120.20 0.1037785
1120.30 0.103747
1120.40 0.1037156
1120.50 0.1036843
1120.60 0.1036529
1120.70 0.1036215
1120.80 0.1035902
1120.90 0.1035588
1121.00 0.1035275
1121.10 0.1034961
1121.20 0.1034648
1121.30 0.1034335
1121.40 0.1034022
1121.50 0.1033709
1121.60 0.1033396
1121.70 0.1033084
1121.80 0.1032771
1121.90 0.1032458
1122.00 0.1032146
1122.10 0.1031834
1122.20 0.1031521
1122.30 0.1031209
1122.40 0.1030902
1122.50 0.1030598
1122.60 0.1030294
1122.70 0.102999
1122.80 0.1029687
1122.90 0.1029383
1123.00 0.1029079
1123.10 0.1028776
1123.20 0.1028473
1123.30 0.1028169
1123.40 0.1027866
1123.50 0.1027563
1123.60 0.102726
1123.70 0.1026957
1123.80 0.1026655
1123.90 0.1026352
1124.00 0.1026049
1124.10 0.1025747
1124.20 0.1025444
1124.30 0.1025142
1124.40 0.102484
1124.50 0.1024538
1124.60 0.1024236
1124.70 0.1023934
1124.80 0.1023632
1124.90 0.102333
1125.00 0.1023028
1125.10 0.1022727
1125.20 0.1022425
1125.30 0.1022124
1125.40 0.1021822
1125.50 0.1021521
1125.60 0.102122
1125.70 0.1020919
1125.80 0.1020618
1125.90 0.1020317
1126.00 0.1020016
1126.10 0.1019716
1126.20 0.1019415
1126.30 0.1019115
1126.40 0.1018814
1126.50 0.1018514
1126.60 0.1018214
1126.70 0.1017913
1126.80 0.1017613
1126.90 0.1017313
1127.00 0.1017014
1127.10 0.1016714
1127.20 0.1016414
1127.30 0.1016114
1127.40 0.1015815
1127.50 0.1015516
1127.60 0.1015216
1127.70 0.1014917
1127.80 0.1014618
1127.90 0.1014319
1128.00 0.1014024
1128.10 0.101373
1128.20 0.1013436
1128.30 0.1013143
1128.40 0.1012849
1128.50 0.1012556
1128.60 0.1012263
1128.70 0.1011969
1128.80 0.1011676
1128.90 0.1011383
1129.00 0.101109
1129.10 0.1010797
1129.20 0.1010505
1129.30 0.1010212
1129.40 0.1009919
1129.50 0.1009627
1129.60 0.1009334
1129.70 0.1009042
1129.80 0.100875
1129.90 0.1008458
1130.00 0.1008166
1130.10 0.1007874
1130.20 0.1007582
1130.30 0.100729
1130.40 0.1006998
1130.50 0.1006706
1130.60 0.1006415
1130.70 0.1006123
1130.80 0.1005832
1130.90 0.1005541
1131.00 0.100525
1131.10 0.1004958
1131.20 0.1004667
1131.30 0.1004376
1131.40 0.1004086
1131.50 0.1003795
1131.60 0.1003504
1131.70 0.1003214
1131.80 0.1002923
1131.90 0.1002633
1132.00 0.1002342
1132.10 0.1002052
1132.20 0.1001762
1132.30 0.1001472
1132.40 0.1001182
1132.50 0.1000892
1132.60 0.1000602
1132.70 0.1000312
1132.80 0.1000023
1132.90 0.09997332
1133.00 0.09994438
1133.10 0.09991544
1133.20 0.09988651
1133.30 0.09985759
1133.40 0.09982868
1133.50 0.09979978
1133.60 0.09977088
1133.70 0.09974199
1133.80 0.09971312
1133.90 0.09968425
1134.00 0.09965539
1134.10 0.09962654
1134.20 0.09959769
1134.30 0.09956886
1134.40 0.09954003
1134.50 0.09951122
1134.60 0.09948241
1134.70 0.09945361
1134.80 0.09942482
1134.90 0.09939604
1135.00 0.09936726
1135.10 0.0993385
1135.20 0.09930974
1135.30 0.09928099
1135.40 0.09925225
1135.50 0.09922352
1135.60 0.0991948
1135.70 0.09916609
1135.80 0.09913738
1135.90 0.09910868
1136.00 0.09908
1136.10 0.09905132
1136.20 0.09902265
1136.30 0.09899398
1136.40 0.09896533
1136.50 0.09893668
1136.60 0.09890805
1136.70 0.09887942
1136.80 0.0988508
1136.90 0.09882219
1137.00 0.09879359
1137.10 0.09876499
1137.20 0.09873641
1137.30 0.09870783
1137.40 0.09867926
1137.50 0.0986507
1137.60 0.09862215
1137.70 0.09859361
1137.80 0.09856507
1137.90 0.09853655
1138.00 0.09850803
1138.10 0.09847952
1138.20 0.09845102
1138.30 0.09842253
1138.40 0.09839404
1138.50 0.09836557
1138.60 0.0983371
1138.70 0.09830865
1138.80 0.0982802
1138.90 0.09825176
1139.00 0.09822332
1139.10 0.0981949
1139.20 0.09816648
1139.30 0.09813781
1139.40 0.09810914
1139.50 0.09808048
1139.60 0.09805182
1139.70 0.09802318
1139.80 0.09799454
1139.90 0.09796592
1140.00 0.0979373
1140.10 0.09790869
1140.20 0.09788009
1140.30 0.09785149
1140.40 0.09782291
1140.50 0.09779433
1140.60 0.09776576
1140.70 0.0977372
1140.80 0.09770865
1140.90 0.09768011
1141.00 0.09765158
1141.10 0.09762305
1141.20 0.09759453
1141.30 0.09756603
1141.40 0.09753753
1141.50 0.09750904
1141.60 0.09748055
1141.70 0.09745208
1141.80 0.09742361
1141.90 0.09739515
1142.00 0.09736671
1142.10 0.09733827
1142.20 0.09730983
1142.30 0.09728141
1142.40 0.09725299
1142.50 0.09722459
1142.60 0.09719619
1142.70 0.0971678
1142.80 0.09713942
1142.90 0.09711105
1143.00 0.09708268
1143.10 0.09705433
1143.20 0.09702598
1143.30 0.09699764
1143.40 0.09696931
1143.50 0.09694099
1143.60 0.09691267
1143.70 0.09688437
1143.80 0.09685607
1143.90 0.09682778
1144.00 0.0967995
1144.10 0.09677123
1144.20 0.09674297
1144.30 0.09671471
1144.40 0.09668647
1144.50 0.09665823
1144.60 0.09663
1144.70 0.09660178
1144.80 0.09657356
1144.90 0.09654536
1145.00 0.09651716
1145.10 0.09648898
1145.20 0.0964608
1145.30 0.09643262
1145.40 0.09640446
1145.50 0.09637631
1145.60 0.09634816
1145.70 0.09632002
1145.80 0.09629189
1145.90 0.09626377
1146.00 0.09623566
1146.10 0.09620756
1146.20 0.09617946
1146.30 0.09615137
1146.40 0.09612329
1146.50 0.09609522
1146.60 0.09606716
1146.70 0.09603911
1146.80 0.09601106
1146.90 0.09598302
1147.00 0.09595499
1147.10 0.09592697
1147.20 0.09589896
1147.30 0.09587096
1147.40 0.09584296
1147.50 0.09581497
1147.60 0.09578699
1147.70 0.09575902
1147.80 0.09573106
1147.90 0.0957031
1148.00 0.09567516
1148.10 0.09564722
1148.20 0.09561929
1148.30 0.09559137
1148.40 0.09556346
1148.50 0.09553555
1148.60 0.09550766
1148.70 0.09547977
1148.80 0.09545189
1148.90 0.09542401
1149.00 0.09539615
1149.10 0.0953683
1149.20 0.09534045
1149.30 0.09531261
1149.40 0.09528478
1149.50 0.09525696
1149.60 0.09522914
1149.70 0.09520134
1149.80 0.09517354
1149.90 0.09514575
1150.00 0.09511797
1150.10 0.0950902
1150.20 0.09506243
1150.30 0.09503468
1150.40 0.09500693
1150.50 0.09497919
1150.60 0.09495146
1150.70 0.09492385
1150.80 0.09489624
1150.90 0.09486864
1151.00 0.09484105
1151.10 0.09481347
1151.20 0.0947859
1151.30 0.09475833
1151.40 0.09473078
1151.50 0.09470323
1151.60 0.09467569
1151.70 0.09464815
1151.80 0.09462063
1151.90 0.09459311
1152.00 0.0945656
1152.10 0.0945381
1152.20 0.09451061
1152.30 0.09448313
1152.40 0.09445565
1152.50 0.09442818
1152.60 0.09440072
1152.70 0.09437327
1152.80 0.09434583
1152.90 0.09431839
1153.00 0.09429096
1153.10 0.09426354
1153.20 0.09423613
1153.30 0.09420873
1153.40 0.09418134
1153.50 0.09415395
1153.60 0.09412657
1153.70 0.0940992
1153.80 0.09407184
1153.90 0.09404448
1154.00 0.09401713
1154.10 0.0939898
1154.20 0.09396247
1154.30 0.09393514
1154.40 0.09390783
1154.50 0.09388052
1154.60 0.09385322
1154.70 0.09382593
1154.80 0.09379865
1154.90 0.09377138
1155.00 0.09374411
1155.10 0.09371685
1155.20 0.0936896
1155.30 0.09366236
1155.40 0.09363513
1155.50 0.0936079
1155.60 0.09358068
1155.70 0.09355348
1155.80 0.09352627
1155.90 0.09349908
1156.00 0.09347189
1156.10 0.09344472
1156.20 0.09341755
1156.30 0.09339038
1156.40 0.09336323
1156.50 0.09333609
1156.60 0.09330896
1156.70 0.09328183
1156.80 0.09325471
1156.90 0.0932276
1157.00 0.0932005
1157.10 0.09317341
1157.20 0.09314632
1157.30 0.09311924
1157.40 0.09309217
1157.50 0.09306511
1157.60 0.09303806
1157.70 0.09301101
1157.80 0.09298397
1157.90 0.09295694
1158.00 0.09292992
1158.10 0.0929029
1158.20 0.0928759
1158.30 0.0928489
1158.40 0.09282191
1158.50 0.09279493
1158.60 0.09276795
1158.70 0.09274098
1158.80 0.09271402
1158.90 0.09268707
1159.00 0.09266013
1159.10 0.0926332
1159.20 0.09260627
1159.30 0.09257935
1159.40 0.09255244
1159.50 0.09252553
1159.60 0.09249864
1159.70 0.09247175
1159.80 0.09244487
1159.90 0.092418
1160.00 0.09239113
1160.10 0.09236428
1160.20 0.09233743
1160.30 0.09231059
1160.40 0.09228376
1160.50 0.09225693
1160.60 0.09223012
1160.70 0.09220331
1160.80 0.09217651
1160.90 0.09214971
1161.00 0.09212293
1161.10 0.09209615
1161.20 0.09206938
1161.30 0.09204262
1161.40 0.09201586
1161.50 0.09198912
1161.60 0.09196238
1161.70 0.09193565
1161.80 0.09190893
1161.90 0.09188221
1162.00 0.09185551
1162.10 0.09182881
1162.20 0.09180294
1162.30 0.09177708
1162.40 0.09175123
1162.50 0.09172538
1162.60 0.09169955
1162.70 0.09167372
1162.80 0.0916479
1162.90 0.09162208
1163.00 0.09159627
1163.10 0.09157047
1163.20 0.09154468
1163.30 0.0915189
1163.40 0.09149312
1163.50 0.09146735
1163.60 0.09144159
1163.70 0.09141584
1163.80 0.09139009
1163.90 0.09136435
1164.00 0.09133862
1164.10 0.09131289
1164.20 0.09128718
1164.30 0.09126147
1164.40 0.09123576
1164.50 0.09121007
1164.60 0.09118438
1164.70 0.0911587
1164.80 0.09113303
1164.90 0.09110737
1165.00 0.09108171
1165.10 0.09105606
1165.20 0.09103042
1165.30 0.09100478
1165.40 0.09097916
1165.50 0.09095354
1165.60 0.09092792
1165.70 0.09090232
1165.80 0.09087672
1165.90 0.09085113
1166.00 0.09082555
1166.10 0.09079997
1166.20 0.09077441
1166.30 0.09074885
1166.40 0.09072329
1166.50 0.09069775
1166.60 0.09067221
1166.70 0.09064668
1166.80 0.09062116
1166.90 0.09059564
1167.00 0.09057013
1167.10 0.09054463
1167.20 0.09051914
1167.30 0.09049365
1167.40 0.09046817
1167.50 0.0904427
1167.60 0.09041724
1167.70 0.09039178
1167.80 0.09036633
1167.90 0.09034089
1168.00 0.09031482
1168.10 0.09028868
1168.20 0.09026255
1168.30 0.09023643
1168.40 0.09021032
1168.50 0.09018421
1168.60 0.09015811
1168.70 0.09013202
1168.80 0.09010594
1168.90 0.09007986
1169.00 0.09005379
1169.10 0.09002773
1169.20 0.09000168
1169.30 0.08997563
1169.40 0.0899496
1169.50 0.08992357
1169.60 0.08989754
1169.70 0.08987153
1169.80 0.08984552
1169.90 0.08981952
1170.00 0.08979353
1170.10 0.08976754
1170.20 0.08974157
1170.30 0.0897156
1170.40 0.08968964
1170.50 0.08966368
1170.60 0.08963773
1170.70 0.0896118
1170.80 0.08958586
1170.90 0.08955994
1171.00 0.08953402
1171.10 0.08950811
1171.20 0.08948221
1171.30 0.08945632
1171.40 0.08943043
1171.50 0.08940455
1171.60 0.08937868
1171.70 0.08935282
1171.80 0.08932696
1171.90 0.08930111
1172.00 0.08927527
1172.10 0.08924944
1172.20 0.08922361
1172.30 0.08919779
1172.40 0.08917198
1172.50 0.08914618
1172.60 0.08912038
1172.70 0.08909459
1172.80 0.08906881
1172.90 0.08904304
1173.00 0.08901727
1173.10 0.08899151
1173.20 0.08896576
1173.30 0.08894002
1173.40 0.08891428
1173.50 0.08888855
1173.60 0.08886283
1173.70 0.08883712
1173.80 0.08881149
1173.90 0.0887859
1174.00 0.08876031
1174.10 0.08873472
1174.20 0.08870915
1174.30 0.08868358
1174.40 0.08865803
1174.50 0.08863247
1174.60 0.08860693
1174.70 0.08858139
1174.80 0.08855586
1174.90 0.08853034
1175.00 0.08850483
1175.10 0.08847932
1175.20 0.08845382
1175.30 0.08842833
1175.40 0.08840284
1175.50 0.08837736
1175.60 0.08835189
1175.70 0.08832643
1175.80 0.08830097
1175.90 0.08827553
1176.00 0.08825009
1176.10 0.08822465
1176.20 0.08819923
1176.30 0.08817381
1176.40 0.0881484
1176.50 0.08812299
1176.60 0.0880976
1176.70 0.08807221
1176.80 0.08804683
1176.90 0.08802145
1177.00 0.08799608
1177.10 0.08797072
1177.20 0.08794537
1177.30 0.08792003
1177.40 0.08789469
1177.50 0.08786936
1177.60 0.08784403
1177.70 0.08781872
1177.80 0.08779341
1177.90 0.08776811
1178.00 0.08774282
1178.10 0.08771753
1178.20 0.08769225
1178.30 0.08766698
1178.40 0.08764171
1178.50 0.08761646
1178.60 0.08759121
1178.70 0.08756596
1178.80 0.08754073
1178.90 0.0875155
1179.00 0.08749028
1179.10 0.08746507
1179.20 0.08743986
1179.30 0.08741466
1179.40 0.08738947
1179.50 0.08736429
1179.60 0.08733919
1179.70 0.08731471
1179.80 0.08729024
1179.90 0.08726578
1180.00 0.08724132
1180.10 0.08721687
1180.20 0.08719243
1180.30 0.08716799
1180.40 0.08714357
1180.50 0.08711915
1180.60 0.08709473
1180.70 0.08707032
1180.80 0.08704592
1180.90 0.08702153
1181.00 0.08699715
1181.10 0.08697277
1181.20 0.0869484
1181.30 0.08692403
1181.40 0.08689967
1181.50 0.08687532
1181.60 0.08685098
1181.70 0.08682664
1181.80 0.08680231
1181.90 0.08677799
1182.00 0.08675367
1182.10 0.08672937
1182.20 0.08670506
1182.30 0.08668077
1182.40 0.08665648
1182.50 0.0866322
1182.60 0.08660793
1182.70 0.08658366
1182.80 0.0865594
1182.90 0.08653515
1183.00 0.0865109
1183.10 0.08648666
1183.20 0.08646243
1183.30 0.0864382
1183.40 0.08641399
1183.50 0.08638977
1183.60 0.08636557
1183.70 0.08634137
1183.80 0.08631718
1183.90 0.086293
1184.00 0.08626882
1184.10 0.08624465
1184.20 0.08622049
1184.30 0.08619633
1184.40 0.08617219
1184.50 0.08614804
1184.60 0.08612391
1184.70 0.08609978
1184.80 0.08607566
1184.90 0.08605155
1185.00 0.08602744
1185.10 0.08600334
1185.20 0.08597924
1185.30 0.08595516
1185.40 0.08593108
1185.50 0.08590676
1185.60 0.08588211
1185.70 0.08585747
1185.80 0.08583283
1185.90 0.08580821
1186.00 0.08578359
1186.10 0.08575897
1186.20 0.08573436
1186.30 0.08570976
1186.40 0.08568517
1186.50 0.08566059
1186.60 0.08563601
1186.70 0.08561144
1186.80 0.08558687
1186.90 0.08556231
1187.00 0.08553776
1187.10 0.08551322
1187.20 0.08548869
1187.30 0.08546416
1187.40 0.08543963
1187.50 0.08541512
1187.60 0.08539061
1187.70 0.08536611
1187.80 0.08534162
1187.90 0.08531713
1188.00 0.08529265
1188.10 0.08526818
1188.20 0.08524371
1188.30 0.08521925
1188.40 0.0851948
1188.50 0.08517036
1188.60 0.08514592
1188.70 0.08512149
1188.80 0.08509706
1188.90 0.08507265
1189.00 0.08504824
1189.10 0.08502384
1189.20 0.08499944
1189.30 0.08497505
1189.40 0.08495067
1189.50 0.0849263
1189.60 0.08490193
1189.70 0.08487757
1189.80 0.08485321
1189.90 0.08482887
1190.00 0.08480453
1190.10 0.0847802
1190.20 0.08475587
1190.30 0.08473155
1190.40 0.08470724
1190.50 0.08468293
1190.60 0.08465864
1190.70 0.08463435
1190.80 0.08461006
1190.90 0.08458579
1191.00 0.08456152
1191.10 0.08453725
1191.20 0.084513
1191.30 0.08448875
1191.40 0.08446461
1191.50 0.08444104
1191.60 0.08441748
1191.70 0.08439393
1191.80 0.08437039
1191.90 0.08434685
1192.00 0.08432332
1192.10 0.08429979
1192.20 0.08427628
1192.30 0.08425277
1192.40 0.08422926
1192.50 0.08420576
1192.60 0.08418227
1192.70 0.08415879
1192.80 0.08413531
1192.90 0.08411184
1193.00 0.08408838
1193.10 0.08406492
1193.20 0.08404147
1193.30 0.08401802
1193.40 0.08399459
1193.50 0.08397116
1193.60 0.08394773
1193.70 0.08392432
1193.80 0.0839009
1193.90 0.0838775
1194.00 0.0838541
1194.10 0.08383071
1194.20 0.08380733
1194.30 0.08378395
1194.40 0.08376058
1194.50 0.08373722
1194.60 0.08371386
1194.70 0.08369051
1194.80 0.08366716
1194.90 0.08364383
1195.00 0.0836205
1195.10 0.08359717
1195.20 0.08357385
1195.30 0.08355054
1195.40 0.08352724
1195.50 0.08350394
1195.60 0.08348065
1195.70 0.08345737
1195.80 0.08343409
1195.90 0.08341082
1196.00 0.08338755
1196.10 0.08336429
1196.20 0.08334104
1196.30 0.0833178
1196.40 0.08329456
1196.50 0.08327133
1196.60 0.0832481
1196.70 0.08322489
1196.80 0.08320167
1196.90 0.08317847
1197.00 0.08315527
1197.10 0.08313208
1197.20 0.08310889
1197.30 0.08308571
1197.40 0.08306205
1197.50 0.08303832
1197.60 0.08301459
1197.70 0.08299088
1197.80 0.08296717
1197.90 0.08294347
1198.00 0.08291977
1198.10 0.08289608
1198.20 0.0828724
1198.30 0.08284872
1198.40 0.08282505
1198.50 0.08280139
1198.60 0.08277774
1198.70 0.08275409
1198.80 0.08273045
1198.90 0.08270681
1199.00 0.08268318
1199.10 0.08265956
1199.20 0.08263595
1199.30 0.08261234
1199.40 0.08258874
1199.50 0.08256514
1199.60 0.08254156
1199.70 0.08251797
1199.80 0.0824944
1199.90 0.08247083
1200.00 0.08244727
