# Version 2.1 - nm, norm@500 to 1, cut digits, bergeron_He_7500_70.dat_7500
# Wavelength(nm)  Flambda(ergs/cm^s/s/nm)
300.00 1.076485
300.10 1.076953
300.20 1.07742
300.30 1.077884
300.40 1.078335
300.50 1.078784
300.60 1.079233
300.70 1.079681
300.80 1.080129
300.90 1.080575
301.00 1.081021
301.10 1.081465
301.20 1.081909
301.30 1.082352
301.40 1.082795
301.50 1.083236
301.60 1.083677
301.70 1.084117
301.80 1.084556
301.90 1.084994
302.00 1.085431
302.10 1.08588
302.20 1.08633
302.30 1.086779
302.40 1.087227
302.50 1.087674
302.60 1.088121
302.70 1.088567
302.80 1.089011
302.90 1.089455
303.00 1.089898
303.10 1.090341
303.20 1.090782
303.30 1.091222
303.40 1.091657
303.50 1.09209
303.60 1.092523
303.70 1.092954
303.80 1.093385
303.90 1.093815
304.00 1.094245
304.10 1.094673
304.20 1.095101
304.30 1.095528
304.40 1.095954
304.50 1.09638
304.60 1.096799
304.70 1.097217
304.80 1.097633
304.90 1.09805
305.00 1.098465
305.10 1.09888
305.20 1.099294
305.30 1.099707
305.40 1.100119
305.50 1.100531
305.60 1.100941
305.70 1.101351
305.80 1.101761
305.90 1.102169
306.00 1.102577
306.10 1.102984
306.20 1.10339
306.30 1.103795
306.40 1.104205
306.50 1.104616
306.60 1.105026
306.70 1.105435
306.80 1.105844
306.90 1.106251
307.00 1.106658
307.10 1.107065
307.20 1.10747
307.30 1.107875
307.40 1.108279
307.50 1.108682
307.60 1.109084
307.70 1.109486
307.80 1.109887
307.90 1.110287
308.00 1.110686
308.10 1.111085
308.20 1.111483
308.30 1.11188
308.40 1.112276
308.50 1.112672
308.60 1.113067
308.70 1.113461
308.80 1.113839
308.90 1.114172
309.00 1.114573
309.10 1.114974
309.20 1.115374
309.30 1.115774
309.40 1.116169
309.50 1.116543
309.60 1.116917
309.70 1.11729
309.80 1.117662
309.90 1.118034
310.00 1.118404
310.10 1.118775
310.20 1.119144
310.30 1.119513
310.40 1.119895
310.50 1.120293
310.60 1.120691
310.70 1.121087
310.80 1.121483
310.90 1.121878
311.00 1.122246
311.10 1.122614
311.20 1.122981
311.30 1.123348
311.40 1.123717
311.50 1.124084
311.60 1.124451
311.70 1.124818
311.80 1.125183
311.90 1.125548
312.00 1.125912
312.10 1.126276
312.20 1.126638
312.30 1.126968
312.40 1.127288
312.50 1.127649
312.60 1.128012
312.70 1.128374
312.80 1.128736
312.90 1.129101
313.00 1.129469
313.10 1.129837
313.20 1.130204
313.30 1.130565
313.40 1.13091
313.50 1.131254
313.60 1.131598
313.70 1.13194
313.80 1.132283
313.90 1.132624
314.00 1.132965
314.10 1.133313
314.20 1.13366
314.30 1.134007
314.40 1.134353
314.50 1.134699
314.60 1.135043
314.70 1.135387
314.80 1.135738
314.90 1.136091
315.00 1.136425
315.10 1.136767
315.20 1.137109
315.30 1.13745
315.40 1.13779
315.50 1.13813
315.60 1.138469
315.70 1.138807
315.80 1.139145
315.90 1.139482
316.00 1.139818
316.10 1.140154
316.20 1.140489
316.30 1.140824
316.40 1.141158
316.50 1.141491
316.60 1.141823
316.70 1.142155
316.80 1.142486
316.90 1.142817
317.00 1.143147
317.10 1.143476
317.20 1.143805
317.30 1.144129
317.40 1.144453
317.50 1.144782
317.60 1.145109
317.70 1.145436
317.80 1.145763
317.90 1.14605
318.00 1.146404
318.10 1.146726
318.20 1.147049
318.30 1.14737
318.40 1.147691
318.50 1.148012
318.60 1.148331
318.70 1.148651
318.80 1.148976
318.90 1.149287
319.00 1.149604
319.10 1.149921
319.20 1.150233
319.30 1.150536
319.40 1.150838
319.50 1.151139
319.60 1.151491
319.70 1.151791
319.80 1.152091
319.90 1.15239
320.00 1.152694
320.10 1.153005
320.20 1.153265
320.30 1.153624
320.40 1.15385
320.50 1.15424
320.60 1.154548
320.70 1.154855
320.80 1.155144
320.90 1.155416
321.00 1.155687
321.10 1.155957
321.20 1.156289
321.30 1.156584
321.40 1.156878
321.50 1.157172
321.60 1.157465
321.70 1.157758
321.80 1.158049
321.90 1.15834
322.00 1.158682
322.10 1.158958
322.20 1.159234
322.30 1.15951
322.40 1.159784
322.50 1.160059
322.60 1.160332
322.70 1.160606
322.80 1.160934
322.90 1.161223
323.00 1.161511
323.10 1.161798
323.20 1.162085
323.30 1.162371
323.40 1.162656
323.50 1.162941
323.60 1.163226
323.70 1.163509
323.80 1.163793
323.90 1.164075
324.00 1.164325
324.10 1.164574
324.20 1.164823
324.30 1.165088
324.40 1.165385
324.50 1.165666
324.60 1.165947
324.70 1.166227
324.80 1.166507
324.90 1.166786
325.00 1.167064
325.10 1.167342
325.20 1.167613
325.30 1.167869
325.40 1.168124
325.50 1.168378
325.60 1.168631
325.70 1.168883
325.80 1.169134
325.90 1.169403
326.00 1.16969
326.10 1.169977
326.20 1.170263
326.30 1.170533
326.40 1.17076
326.50 1.171016
326.60 1.171272
326.70 1.171527
326.80 1.171782
326.90 1.172036
327.00 1.17229
327.10 1.172543
327.20 1.172795
327.30 1.173047
327.40 1.173299
327.50 1.173549
327.60 1.1738
327.70 1.17405
327.80 1.174299
327.90 1.174573
328.00 1.174847
328.10 1.17509
328.20 1.175332
328.30 1.175573
328.40 1.175814
328.50 1.176054
328.60 1.176293
328.70 1.176532
328.80 1.176771
328.90 1.177015
329.00 1.177257
329.10 1.1775
329.20 1.177742
329.30 1.177983
329.40 1.178224
329.50 1.178464
329.60 1.178704
329.70 1.178943
329.80 1.179182
329.90 1.17942
330.00 1.179654
330.10 1.179883
330.20 1.180112
330.30 1.18034
330.40 1.18057
330.50 1.180803
330.60 1.181034
330.70 1.181266
330.80 1.181496
330.90 1.181727
331.00 1.181956
331.10 1.182186
331.20 1.182414
331.30 1.182643
331.40 1.182871
331.50 1.183091
331.60 1.183303
331.70 1.183515
331.80 1.183738
331.90 1.183962
332.00 1.184185
332.10 1.184407
332.20 1.184629
332.30 1.184851
332.40 1.185072
332.50 1.185292
332.60 1.185512
332.70 1.185732
332.80 1.185951
332.90 1.186169
333.00 1.186387
333.10 1.186603
333.20 1.186817
333.30 1.18703
333.40 1.187243
333.50 1.187455
333.60 1.187667
333.70 1.187878
333.80 1.188089
333.90 1.188299
334.00 1.188509
334.10 1.188711
334.20 1.188903
334.30 1.189095
334.40 1.189286
334.50 1.189477
334.60 1.189667
334.70 1.189887
334.80 1.19012
334.90 1.190319
335.00 1.190519
335.10 1.190673
335.20 1.190903
335.30 1.191132
335.40 1.19136
335.50 1.191463
335.60 1.191691
335.70 1.191918
335.80 1.192144
335.90 1.192357
336.00 1.192551
336.10 1.192745
336.20 1.192939
336.30 1.193127
336.40 1.19331
336.50 1.193492
336.60 1.193673
336.70 1.193854
336.80 1.194035
336.90 1.194216
337.00 1.194397
337.10 1.194578
337.20 1.194759
337.30 1.19494
337.40 1.195124
337.50 1.195308
337.60 1.195491
337.70 1.195674
337.80 1.195857
337.90 1.196047
338.00 1.196247
338.10 1.196446
338.20 1.196645
338.30 1.196844
338.40 1.197033
338.50 1.197197
338.60 1.197361
338.70 1.197525
338.80 1.197689
338.90 1.197852
339.00 1.198014
339.10 1.198176
339.20 1.198338
339.30 1.198528
339.40 1.198757
339.50 1.198957
339.60 1.199122
339.70 1.199286
339.80 1.19945
339.90 1.199613
340.00 1.199776
340.10 1.199939
340.20 1.200101
340.30 1.200263
340.40 1.200425
340.50 1.200586
340.60 1.200746
340.70 1.200907
340.80 1.201067
340.90 1.201228
341.00 1.201387
341.10 1.201545
341.20 1.201703
341.30 1.20186
341.40 1.202016
341.50 1.202173
341.60 1.202329
341.70 1.202484
341.80 1.202687
341.90 1.202947
342.00 1.203207
342.10 1.203466
342.20 1.203532
342.30 1.20352
342.40 1.203658
342.50 1.20376
342.60 1.203863
342.70 1.203965
342.80 1.204067
342.90 1.204168
343.00 1.204308
343.10 1.204494
343.20 1.20468
343.30 1.204865
343.40 1.205013
343.50 1.205107
343.60 1.205201
343.70 1.205294
343.80 1.205387
343.90 1.20548
344.00 1.205613
344.10 1.205804
344.20 1.205995
344.30 1.206185
344.40 1.206497
344.50 1.206983
344.60 1.206982
344.70 1.206904
344.80 1.206796
344.90 1.20725
345.00 1.207036
345.10 1.207518
345.20 1.207843
345.30 1.207942
345.40 1.20804
345.50 1.208289
345.60 1.208581
345.70 1.208667
345.80 1.208753
345.90 1.208839
346.00 1.208924
346.10 1.209009
346.20 1.20911
346.30 1.209234
346.40 1.209357
346.50 1.20948
346.60 1.209603
346.70 1.209725
346.80 1.209847
346.90 1.209968
347.00 1.21009
347.10 1.21021
347.20 1.210323
347.30 1.210423
347.40 1.210522
347.50 1.210621
347.60 1.21072
347.70 1.210819
347.80 1.210917
347.90 1.211015
348.00 1.211113
348.10 1.21121
348.20 1.211307
348.30 1.211404
348.40 1.211501
348.50 1.211597
348.60 1.211693
348.70 1.211839
348.80 1.211998
348.90 1.212152
349.00 1.212305
349.10 1.212458
349.20 1.21261
349.30 1.212762
349.40 1.212914
349.50 1.213065
349.60 1.213216
349.70 1.213366
349.80 1.213517
349.90 1.213666
350.00 1.213816
350.10 1.213965
350.20 1.214114
350.30 1.214215
350.40 1.214248
350.50 1.214282
350.60 1.214315
350.70 1.214347
350.80 1.21438
350.90 1.214412
351.00 1.214444
351.10 1.214476
351.20 1.214508
351.30 1.214539
351.40 1.21464
351.50 1.214866
351.60 1.215091
351.70 1.215315
351.80 1.21554
351.90 1.215763
352.00 1.215987
352.10 1.216209
352.20 1.216296
352.30 1.216375
352.40 1.216466
352.50 1.216557
352.60 1.216647
352.70 1.216737
352.80 1.216827
352.90 1.216916
353.00 1.217006
353.10 1.217094
353.20 1.217183
353.30 1.217271
353.40 1.217359
353.50 1.217435
353.60 1.217507
353.70 1.217579
353.80 1.217651
353.90 1.217721
354.00 1.217786
354.10 1.217851
354.20 1.217916
354.30 1.21798
354.40 1.218044
354.50 1.218108
354.60 1.218172
354.70 1.218236
354.80 1.218303
354.90 1.218377
355.00 1.218451
355.10 1.218524
355.20 1.218597
355.30 1.218688
355.40 1.218778
355.50 1.218868
355.60 1.218958
355.70 1.218842
355.80 1.218634
355.90 1.218969
356.00 1.219297
356.10 1.219381
356.20 1.219465
356.30 1.219549
356.40 1.219632
356.50 1.219715
356.60 1.219798
356.70 1.21988
356.80 1.219962
356.90 1.220044
357.00 1.220126
357.10 1.220207
357.20 1.220288
357.30 1.220369
357.40 1.220411
357.50 1.220384
357.60 1.220357
357.70 1.22033
357.80 1.220148
357.90 1.219966
358.00 1.219973
358.10 1.220028
358.20 1.220083
358.30 1.220137
358.40 1.220191
358.50 1.220245
358.60 1.220299
358.70 1.220352
358.80 1.220405
358.90 1.220458
359.00 1.2206
359.10 1.220899
359.20 1.221193
359.30 1.221449
359.40 1.221705
359.50 1.221524
359.60 1.221234
359.70 1.220943
359.80 1.221089
359.90 1.221234
360.00 1.221373
360.10 1.221504
360.20 1.221634
360.30 1.221764
360.40 1.221893
360.50 1.222023
360.60 1.221645
360.70 1.22178
360.80 1.221914
360.90 1.222047
361.00 1.221889
361.10 1.221812
361.20 1.222695
361.30 1.222018
361.40 1.222366
361.50 1.222174
361.60 1.222338
361.70 1.222201
361.80 1.222172
361.90 1.222336
362.00 1.2225
362.10 1.22259
362.20 1.222646
362.30 1.222677
362.40 1.222707
362.50 1.222738
362.60 1.222768
362.70 1.222829
362.80 1.22263
362.90 1.223021
363.00 1.22341
363.10 1.22323
363.20 1.223043
363.30 1.223534
363.40 1.223128
363.50 1.223254
363.60 1.223114
363.70 1.223565
363.80 1.223365
363.90 1.223452
364.00 1.223539
364.10 1.223625
364.20 1.223712
364.30 1.223663
364.40 1.223581
364.50 1.222916
364.60 1.222949
364.70 1.222982
364.80 1.223015
364.90 1.223402
365.00 1.223789
365.10 1.223646
365.20 1.223504
365.30 1.223889
365.40 1.22322
365.50 1.223604
365.60 1.223988
365.70 1.223798
365.80 1.223607
365.90 1.223501
366.00 1.223417
366.10 1.223523
366.20 1.223628
366.30 1.223734
366.40 1.223839
366.50 1.224262
366.60 1.223606
366.70 1.223732
366.80 1.223857
366.90 1.223968
367.00 1.224053
367.10 1.224138
367.20 1.224223
367.30 1.224307
367.40 1.224391
367.50 1.224338
367.60 1.224251
367.70 1.224133
367.80 1.224015
367.90 1.223897
368.00 1.22419
368.10 1.224044
368.20 1.224053
368.30 1.224069
368.40 1.224084
368.50 1.2241
368.60 1.224115
368.70 1.224129
368.80 1.224144
368.90 1.223914
369.00 1.224165
369.10 1.224644
369.20 1.223992
369.30 1.224017
369.40 1.224042
369.50 1.224068
369.60 1.224431
369.70 1.224793
369.80 1.224692
369.90 1.224586
370.00 1.224481
370.10 1.224213
370.20 1.224061
370.30 1.223913
370.40 1.224284
370.50 1.224123
370.60 1.223988
370.70 1.224352
370.80 1.224201
370.90 1.22405
371.00 1.224413
371.10 1.224781
371.20 1.22463
371.30 1.224478
371.40 1.224098
371.50 1.224199
371.60 1.224299
371.70 1.2244
371.80 1.2245
371.90 1.2246
372.00 1.22424
372.10 1.224308
372.20 1.224328
372.30 1.224347
372.40 1.224367
372.50 1.224386
372.60 1.224405
372.70 1.224424
372.80 1.224271
372.90 1.224118
373.00 1.22397
373.10 1.223822
373.20 1.224178
373.30 1.224532
373.40 1.223876
373.50 1.22423
373.60 1.224079
373.70 1.223928
373.80 1.224502
373.90 1.224634
374.00 1.224482
374.10 1.224331
374.20 1.224179
374.30 1.224028
374.40 1.224001
374.50 1.223724
374.60 1.223818
374.70 1.223919
374.80 1.224019
374.90 1.22412
375.00 1.224134
375.10 1.224149
375.20 1.224163
375.30 1.224082
375.40 1.224001
375.50 1.22392
375.60 1.223838
375.70 1.223757
375.80 1.223675
375.90 1.223594
376.00 1.223929
376.10 1.223932
376.20 1.223932
376.30 1.223931
376.40 1.223931
376.50 1.223944
376.60 1.223979
376.70 1.224013
376.80 1.223937
376.90 1.223749
377.00 1.223562
377.10 1.223375
377.20 1.22322
377.30 1.223188
377.40 1.223156
377.50 1.223123
377.60 1.22312
377.70 1.223116
377.80 1.223112
377.90 1.223107
378.00 1.222846
378.10 1.222876
378.20 1.222913
378.30 1.22295
378.40 1.222986
378.50 1.223023
378.60 1.223059
378.70 1.223095
378.80 1.223131
378.90 1.223182
379.00 1.223263
379.10 1.223009
379.20 1.222756
379.30 1.222623
379.40 1.222609
379.50 1.222596
379.60 1.222658
379.70 1.222787
379.80 1.222737
379.90 1.222687
380.00 1.222637
380.10 1.222586
380.20 1.222536
380.30 1.222485
380.40 1.222434
380.50 1.222383
380.60 1.222012
380.70 1.222032
380.80 1.222053
380.90 1.222073
381.00 1.222093
381.10 1.222057
381.20 1.22221
381.30 1.222107
381.40 1.22164
381.50 1.221496
381.60 1.221478
381.70 1.22173
381.80 1.221806
381.90 1.221649
382.00 1.221492
382.10 1.221817
382.20 1.22137
382.30 1.221213
382.40 1.221126
382.50 1.221145
382.60 1.221163
382.70 1.221338
382.80 1.22142
382.90 1.221229
383.00 1.221039
383.10 1.220849
383.20 1.220676
383.30 1.220569
383.40 1.220523
383.50 1.220571
383.60 1.220937
383.70 1.220804
383.80 1.220672
383.90 1.22054
384.00 1.220407
384.10 1.220275
384.20 1.220142
384.30 1.22001
384.40 1.219959
384.50 1.219991
384.60 1.220022
384.70 1.220053
384.80 1.220177
384.90 1.220404
385.00 1.220178
385.10 1.219943
385.20 1.219536
385.30 1.219385
385.40 1.219324
385.50 1.219354
385.60 1.219384
385.70 1.219414
385.80 1.21942
385.90 1.219341
386.00 1.219321
386.10 1.219332
386.20 1.219065
386.30 1.218798
386.40 1.219292
386.50 1.21905
386.60 1.218973
386.70 1.219049
386.80 1.218654
386.90 1.218965
387.00 1.218335
387.10 1.218645
387.20 1.218696
387.30 1.218325
387.40 1.218634
387.50 1.218422
387.60 1.218413
387.70 1.218253
387.80 1.218093
387.90 1.217932
388.00 1.217902
388.10 1.217981
388.20 1.217651
388.30 1.217616
388.40 1.217582
388.50 1.217627
388.60 1.217646
388.70 1.217862
388.80 1.217325
388.90 1.217572
389.00 1.217004
389.10 1.217309
389.20 1.217087
389.30 1.217154
389.40 1.217005
389.50 1.216978
389.60 1.216969
389.70 1.216565
389.80 1.216571
389.90 1.216577
390.00 1.216583
390.10 1.216589
390.20 1.216595
390.30 1.216567
390.40 1.216501
390.50 1.216436
390.60 1.21637
390.70 1.216304
390.80 1.21622
390.90 1.216119
391.00 1.215758
391.10 1.215583
391.20 1.215576
391.30 1.215829
391.40 1.215667
391.50 1.215506
391.60 1.215344
391.70 1.215182
391.80 1.215021
391.90 1.215046
392.00 1.215099
392.10 1.214876
392.20 1.214617
392.30 1.214309
392.40 1.214342
392.50 1.214589
392.60 1.21397
392.70 1.214265
392.80 1.214263
392.90 1.214111
393.00 1.213978
393.10 1.213927
393.20 1.213951
393.30 1.213789
393.40 1.213586
393.50 1.213706
393.60 1.213262
393.70 1.213554
393.80 1.212979
393.90 1.212817
394.00 1.212745
394.10 1.213121
394.20 1.212966
394.30 1.212974
394.40 1.212871
394.50 1.212256
394.60 1.212147
394.70 1.212106
394.80 1.21232
394.90 1.21251
395.00 1.212027
395.10 1.212185
395.20 1.212041
395.30 1.212015
395.40 1.211989
395.50 1.211801
395.60 1.211554
395.70 1.211362
395.80 1.211315
395.90 1.211268
396.00 1.21117
396.10 1.210801
396.20 1.211087
396.30 1.21113
396.40 1.210519
396.50 1.210658
396.60 1.21035
396.70 1.210478
396.80 1.210232
396.90 1.210152
397.00 1.210436
397.10 1.209826
397.20 1.21011
397.30 1.209652
397.40 1.209604
397.50 1.209556
397.60 1.209514
397.70 1.209537
397.80 1.20956
397.90 1.209499
398.00 1.209208
398.10 1.208918
398.20 1.208821
398.30 1.208942
398.40 1.20904
398.50 1.208433
398.60 1.208523
398.70 1.208396
398.80 1.208152
398.90 1.20801
399.00 1.20806
399.10 1.207509
399.20 1.207512
399.30 1.207515
399.40 1.207518
399.50 1.20752
399.60 1.207491
399.70 1.207449
399.80 1.207407
399.90 1.207366
400.00 1.207307
400.10 1.206703
400.20 1.206717
400.30 1.206654
400.40 1.206399
400.50 1.20605
400.60 1.206088
400.70 1.206363
400.80 1.205998
400.90 1.205539
401.00 1.205671
401.10 1.205945
401.20 1.205344
401.30 1.205397
401.40 1.205253
401.50 1.204976
401.60 1.20471
401.70 1.204781
401.80 1.205047
401.90 1.204635
402.00 1.204907
402.10 1.204308
402.20 1.20458
402.30 1.203981
402.40 1.204252
402.50 1.203654
402.60 1.203924
402.70 1.204195
402.80 1.203597
402.90 1.203347
403.00 1.203183
403.10 1.203539
403.20 1.202962
403.30 1.203032
403.40 1.202615
403.50 1.202423
403.60 1.202359
403.70 1.202556
403.80 1.202824
403.90 1.202228
404.00 1.202129
404.10 1.201901
404.20 1.201737
404.30 1.201573
404.40 1.20184
404.50 1.201676
404.60 1.201512
404.70 1.200919
404.80 1.201209
404.90 1.20145
405.00 1.200857
405.10 1.200754
405.20 1.200774
405.30 1.200794
405.40 1.20063
405.50 1.200466
405.60 1.200302
405.70 1.200138
405.80 1.199974
405.90 1.19981
406.00 1.199735
406.10 1.199659
406.20 1.199584
406.30 1.199508
406.40 1.199417
406.50 1.199042
406.60 1.199089
406.70 1.198765
406.80 1.198509
406.90 1.198187
407.00 1.198109
407.10 1.19803
407.20 1.197951
407.30 1.197872
407.40 1.197793
407.50 1.197714
407.60 1.197635
407.70 1.197555
407.80 1.197476
407.90 1.197395
408.00 1.197271
408.10 1.197054
408.20 1.196687
408.30 1.196376
408.40 1.196066
408.50 1.196398
408.60 1.196104
408.70 1.195811
408.80 1.195592
408.90 1.195859
409.00 1.195759
409.10 1.195659
409.20 1.195559
409.30 1.195458
409.40 1.195353
409.50 1.195065
409.60 1.194779
409.70 1.19451
409.80 1.194313
409.90 1.19413
410.00 1.19436
410.10 1.193778
410.20 1.193719
410.30 1.19379
410.40 1.193771
410.50 1.193464
410.60 1.193158
410.70 1.192932
410.80 1.193027
410.90 1.193121
411.00 1.193068
411.10 1.192959
411.20 1.192851
411.30 1.192648
411.40 1.192086
411.50 1.192094
411.60 1.192102
411.70 1.192076
411.80 1.191912
411.90 1.191666
412.00 1.191087
412.10 1.191338
412.20 1.19076
412.30 1.191011
412.40 1.190463
412.50 1.190802
412.60 1.190816
412.70 1.190614
412.80 1.190359
412.90 1.19003
413.00 1.189571
413.10 1.189487
413.20 1.189402
413.30 1.189317
413.40 1.189232
413.50 1.189049
413.60 1.188622
413.70 1.188665
413.80 1.188707
413.90 1.188749
414.00 1.188741
414.10 1.188578
414.20 1.188316
414.30 1.187742
414.40 1.187825
414.50 1.187416
414.60 1.187761
414.70 1.187597
414.80 1.187434
414.90 1.18727
415.00 1.187107
415.10 1.186944
415.20 1.186743
415.30 1.186426
415.40 1.186109
415.50 1.185802
415.60 1.185816
415.70 1.18583
415.80 1.185767
415.90 1.185465
416.00 1.185163
416.10 1.184885
416.20 1.184706
416.30 1.184526
416.40 1.184347
416.50 1.184168
416.60 1.184005
416.70 1.183891
416.80 1.184073
416.90 1.18394
417.00 1.183747
417.10 1.183191
417.20 1.183029
417.30 1.182871
417.40 1.182875
417.50 1.18288
417.60 1.18277
417.70 1.182216
417.80 1.182053
417.90 1.18189
418.00 1.181728
418.10 1.181565
418.20 1.181403
418.30 1.181259
418.40 1.181552
418.50 1.181336
418.60 1.181121
418.70 1.180906
418.80 1.18069
418.90 1.180475
419.00 1.18026
419.10 1.180045
419.20 1.17983
419.30 1.179622
419.40 1.179625
419.50 1.179628
419.60 1.179572
419.70 1.17928
419.80 1.178988
419.90 1.178726
420.00 1.178555
420.10 1.178385
420.20 1.178215
420.30 1.178044
420.40 1.177874
420.50 1.177704
420.60 1.177534
420.70 1.177364
420.80 1.177193
420.90 1.177029
421.00 1.177041
421.10 1.177053
421.20 1.177008
421.30 1.176788
421.40 1.176569
421.50 1.17635
421.60 1.176131
421.70 1.175912
421.80 1.175694
421.90 1.175487
422.00 1.175317
422.10 1.17517
422.20 1.175112
422.30 1.175053
422.40 1.174991
422.50 1.174793
422.60 1.174596
422.70 1.174398
422.80 1.174201
422.90 1.174004
423.00 1.173807
423.10 1.17361
423.20 1.173413
423.30 1.173216
423.40 1.173019
423.50 1.172822
423.60 1.172625
423.70 1.172428
423.80 1.172231
423.90 1.172035
424.00 1.171838
424.10 1.171642
424.20 1.171445
424.30 1.171249
424.40 1.170979
424.50 1.170822
424.60 1.170665
424.70 1.170508
424.80 1.170351
424.90 1.170194
425.00 1.170037
425.10 1.16988
425.20 1.169723
425.30 1.169566
425.40 1.169405
425.50 1.169216
425.60 1.169027
425.70 1.168838
425.80 1.168649
425.90 1.16846
426.00 1.168271
426.10 1.168082
426.20 1.167894
426.30 1.167705
426.40 1.167516
426.50 1.167328
426.60 1.167139
426.70 1.166951
426.80 1.166762
426.90 1.166574
427.00 1.166394
427.10 1.166214
427.20 1.166035
427.30 1.165855
427.40 1.165675
427.50 1.165496
427.60 1.165316
427.70 1.165137
427.80 1.164957
427.90 1.164778
428.00 1.164598
428.10 1.164419
428.20 1.16424
428.30 1.164061
428.40 1.163881
428.50 1.163702
428.60 1.163523
428.70 1.163344
428.80 1.163165
428.90 1.16299
429.00 1.162815
429.10 1.16264
429.20 1.162466
429.30 1.162291
429.40 1.162116
429.50 1.161941
429.60 1.161767
429.70 1.161592
429.80 1.161417
429.90 1.161243
430.00 1.161068
430.10 1.160894
430.20 1.160719
430.30 1.160545
430.40 1.16037
430.50 1.160196
430.60 1.160022
430.70 1.159847
430.80 1.159673
430.90 1.159499
431.00 1.159325
431.10 1.15915
431.20 1.158976
431.30 1.158801
431.40 1.158604
431.50 1.158407
431.60 1.158211
431.70 1.158014
431.80 1.157818
431.90 1.157621
432.00 1.157425
432.10 1.157228
432.20 1.157032
432.30 1.156836
432.40 1.15664
432.50 1.156444
432.60 1.156248
432.70 1.156052
432.80 1.155856
432.90 1.15566
433.00 1.155464
433.10 1.155268
433.20 1.155073
433.30 1.154876
433.40 1.154668
433.50 1.154459
433.60 1.154251
433.70 1.154043
433.80 1.153873
433.90 1.15375
434.00 1.15359
434.10 1.153409
434.20 1.153227
434.30 1.153045
434.40 1.152863
434.50 1.152681
434.60 1.1525
434.70 1.152318
434.80 1.152134
434.90 1.151909
435.00 1.151685
435.10 1.151461
435.20 1.151237
435.30 1.151013
435.40 1.150789
435.50 1.150565
435.60 1.150342
435.70 1.150118
435.80 1.149895
435.90 1.149671
436.00 1.149448
436.10 1.149225
436.20 1.149001
436.30 1.148883
436.40 1.148875
436.50 1.148642
436.60 1.14841
436.70 1.148177
436.80 1.147945
436.90 1.147713
437.00 1.14748
437.10 1.147248
437.20 1.14702
437.30 1.146796
437.40 1.146577
437.50 1.146421
437.60 1.146264
437.70 1.146108
437.80 1.145952
437.90 1.145796
438.00 1.145633
438.10 1.14539
438.20 1.145148
438.30 1.144924
438.40 1.145015
438.50 1.144859
438.60 1.144677
438.70 1.144155
438.80 1.144064
438.90 1.143844
439.00 1.143348
439.10 1.143193
439.20 1.143037
439.30 1.142882
439.40 1.142726
439.50 1.142571
439.60 1.14239
439.70 1.142224
439.80 1.142228
439.90 1.142041
440.00 1.141854
440.10 1.141667
440.20 1.141478
440.30 1.14125
440.40 1.141022
440.50 1.140794
440.60 1.140566
440.70 1.140339
440.80 1.140111
440.90 1.139884
441.00 1.139657
441.10 1.139429
441.20 1.139213
441.30 1.139143
441.40 1.138983
441.50 1.138714
441.60 1.138445
441.70 1.138048
441.80 1.137863
441.90 1.137678
442.00 1.137494
442.10 1.137309
442.20 1.137124
442.30 1.13694
442.40 1.136713
442.50 1.136435
442.60 1.136158
442.70 1.136002
442.80 1.135991
442.90 1.135478
443.00 1.135133
443.10 1.134992
443.20 1.134838
443.30 1.134672
443.40 1.134512
443.50 1.134358
443.60 1.134044
443.70 1.133979
443.80 1.133737
443.90 1.133226
444.00 1.13343
444.10 1.132919
444.20 1.133123
444.30 1.132632
444.40 1.132394
444.50 1.132157
444.60 1.131963
444.70 1.131823
444.80 1.131673
444.90 1.131514
445.00 1.131355
445.10 1.131196
445.20 1.130987
445.30 1.130719
445.40 1.13045
445.50 1.130182
445.60 1.129914
445.70 1.129646
445.80 1.129435
445.90 1.129277
446.00 1.129118
446.10 1.12896
446.20 1.128645
446.30 1.128229
446.40 1.128432
446.50 1.128103
446.60 1.127775
446.70 1.127446
446.80 1.12721
446.90 1.127058
447.00 1.126722
447.10 1.126782
447.20 1.126419
447.30 1.125915
447.40 1.126115
447.50 1.125612
447.60 1.12535
447.70 1.125309
447.80 1.12497
447.90 1.124832
448.00 1.124686
448.10 1.124535
448.20 1.124384
448.30 1.124233
448.40 1.124081
448.50 1.12393
448.60 1.123597
448.70 1.123096
448.80 1.122617
448.90 1.122419
449.00 1.122222
449.10 1.122024
449.20 1.121827
449.30 1.122191
449.40 1.121973
449.50 1.121754
449.60 1.121535
449.70 1.121314
449.80 1.121093
449.90 1.120872
450.00 1.120651
450.10 1.120431
450.20 1.12021
450.30 1.11999
450.40 1.119724
450.50 1.119458
450.60 1.119192
450.70 1.118927
450.80 1.118661
450.90 1.118396
451.00 1.118179
451.10 1.117962
451.20 1.117601
451.30 1.117797
451.40 1.117302
451.50 1.116807
451.60 1.117003
451.70 1.116508
451.80 1.116359
451.90 1.116209
452.00 1.11606
452.10 1.115911
452.20 1.11559
452.30 1.115268
452.40 1.114947
452.50 1.114627
452.60 1.114598
452.70 1.114487
452.80 1.114299
452.90 1.11411
453.00 1.113922
453.10 1.113734
453.20 1.113452
453.30 1.11317
453.40 1.112888
453.50 1.112606
453.60 1.112325
453.70 1.112043
453.80 1.111846
453.90 1.111753
454.00 1.111659
454.10 1.111565
454.20 1.111325
454.30 1.111085
454.40 1.110845
454.50 1.110605
454.60 1.110365
454.70 1.11013
454.80 1.109901
454.90 1.109672
455.00 1.109443
455.10 1.109213
455.20 1.108985
455.30 1.108756
455.40 1.108527
455.50 1.108298
455.60 1.10807
455.70 1.107841
455.80 1.107537
455.90 1.107233
456.00 1.106929
456.10 1.106644
456.20 1.10641
456.30 1.106177
456.40 1.105944
456.50 1.105711
456.60 1.105478
456.70 1.105245
456.80 1.105012
456.90 1.104779
457.00 1.104547
457.10 1.104314
457.20 1.104625
457.30 1.104378
457.40 1.10413
457.50 1.103883
457.60 1.103636
457.70 1.103389
457.80 1.103142
457.90 1.102895
458.00 1.102648
458.10 1.102402
458.20 1.102155
458.30 1.101909
458.40 1.101663
458.50 1.101417
458.60 1.10117
458.70 1.100925
458.80 1.100679
458.90 1.100434
459.00 1.100188
459.10 1.099943
459.20 1.099698
459.30 1.099452
459.40 1.099206
459.50 1.09896
459.60 1.098715
459.70 1.098469
459.80 1.098224
459.90 1.097979
460.00 1.097733
460.10 1.097488
460.20 1.097243
460.30 1.096999
460.40 1.096754
460.50 1.096509
460.60 1.096265
460.70 1.096044
460.80 1.095836
460.90 1.095628
461.00 1.09542
461.10 1.095212
461.20 1.09506
461.30 1.094932
461.40 1.094666
461.50 1.094366
461.60 1.094065
461.70 1.093765
461.80 1.093569
461.90 1.093372
462.00 1.093176
462.10 1.09298
462.20 1.092784
462.30 1.092588
462.40 1.092392
462.50 1.092196
462.60 1.092
462.70 1.091804
462.80 1.091608
462.90 1.091412
463.00 1.091217
463.10 1.091021
463.20 1.090765
463.30 1.090484
463.40 1.090203
463.50 1.089922
463.60 1.089642
463.70 1.089361
463.80 1.089081
463.90 1.088844
464.00 1.088617
464.10 1.08839
464.20 1.088164
464.30 1.087937
464.40 1.087711
464.50 1.087484
464.60 1.087258
464.70 1.087012
464.80 1.086758
464.90 1.086503
465.00 1.086249
465.10 1.085995
465.20 1.085741
465.30 1.085494
465.40 1.085252
465.50 1.08501
465.60 1.084768
465.70 1.084526
465.80 1.084284
465.90 1.084117
466.00 1.083969
466.10 1.083821
466.20 1.083673
466.30 1.083438
466.40 1.083167
466.50 1.082897
466.60 1.082627
466.70 1.082357
466.80 1.082087
466.90 1.081817
467.00 1.081548
467.10 1.081278
467.20 1.081009
467.30 1.081106
467.40 1.080886
467.50 1.08055
467.60 1.080215
467.70 1.079879
467.80 1.079544
467.90 1.079347
468.00 1.079208
468.10 1.079068
468.20 1.078928
468.30 1.07856
468.40 1.0781
468.50 1.078281
468.60 1.077821
468.70 1.077361
468.80 1.077542
468.90 1.077083
469.00 1.076623
469.10 1.076392
469.20 1.076253
469.30 1.076114
469.40 1.075975
469.50 1.075707
469.60 1.075387
469.70 1.075067
469.80 1.074747
469.90 1.074598
470.00 1.074596
470.10 1.074324
470.20 1.074126
470.30 1.073929
470.40 1.073731
470.50 1.073534
470.60 1.073257
470.70 1.07296
470.80 1.072663
470.90 1.072366
471.00 1.071942
471.10 1.071982
471.20 1.071667
471.30 1.071212
471.40 1.071391
471.50 1.070937
471.60 1.070736
471.70 1.070598
471.80 1.070334
471.90 1.070039
472.00 1.069743
472.10 1.069448
472.20 1.069225
472.30 1.06902
472.40 1.068816
472.50 1.068611
472.60 1.068407
472.70 1.068027
472.80 1.067726
472.90 1.067463
473.00 1.067201
473.10 1.066938
473.20 1.066676
473.30 1.066414
473.40 1.066152
473.50 1.06589
473.60 1.065628
473.70 1.065367
473.80 1.0652
473.90 1.065057
474.00 1.064914
474.10 1.064771
474.20 1.064507
474.30 1.064194
474.40 1.063881
474.50 1.063568
474.60 1.063266
474.70 1.063075
474.80 1.062884
474.90 1.062694
475.00 1.062503
475.10 1.062312
475.20 1.062122
475.30 1.061932
475.40 1.061659
475.50 1.061367
475.60 1.061074
475.70 1.060782
475.80 1.06049
475.90 1.060198
476.00 1.059906
476.10 1.059615
476.20 1.059342
476.30 1.059077
476.40 1.058812
476.50 1.058547
476.60 1.058282
476.70 1.058017
476.80 1.057753
476.90 1.057509
477.00 1.057271
477.10 1.057033
477.20 1.056795
477.30 1.056558
477.40 1.05632
477.50 1.056082
477.60 1.055845
477.70 1.055607
477.80 1.05537
477.90 1.055133
478.00 1.054896
478.10 1.054659
478.20 1.054422
478.30 1.054185
478.40 1.053949
478.50 1.053712
478.60 1.053476
478.70 1.053323
478.80 1.053205
478.90 1.052924
479.00 1.052603
479.10 1.052283
479.20 1.051962
479.30 1.051642
479.40 1.051378
479.50 1.051148
479.60 1.050918
479.70 1.050688
479.80 1.050459
479.90 1.050229
480.00 1.049999
480.10 1.04977
480.20 1.049541
480.30 1.049311
480.40 1.049082
480.50 1.048853
480.60 1.048624
480.70 1.048395
480.80 1.048166
480.90 1.047938
481.00 1.047709
481.10 1.047481
481.20 1.047212
481.30 1.046944
481.40 1.046676
481.50 1.046408
481.60 1.04614
481.70 1.045872
481.80 1.045604
481.90 1.045337
482.00 1.04507
482.10 1.044802
482.20 1.044539
482.30 1.044321
482.40 1.044103
482.50 1.043885
482.60 1.043667
482.70 1.043449
482.80 1.043232
482.90 1.043014
483.00 1.042797
483.10 1.04258
483.20 1.042363
483.30 1.042145
483.40 1.041928
483.50 1.041712
483.60 1.041495
483.70 1.041178
483.80 1.040861
483.90 1.040544
484.00 1.040228
484.10 1.039911
484.20 1.039665
484.30 1.039449
484.40 1.039233
484.50 1.039017
484.60 1.038801
484.70 1.038585
484.80 1.038354
484.90 1.038124
485.00 1.037894
485.10 1.037664
485.20 1.037434
485.30 1.037204
485.40 1.036975
485.50 1.036745
485.60 1.036516
485.70 1.036253
485.80 1.03599
485.90 1.035727
486.00 1.035465
486.10 1.035202
486.20 1.03494
486.30 1.034678
486.40 1.034416
486.50 1.034154
486.60 1.033892
486.70 1.033629
486.80 1.03335
486.90 1.033072
487.00 1.032794
487.10 1.032515
487.20 1.032254
487.30 1.031994
487.40 1.031733
487.50 1.031472
487.60 1.031212
487.70 1.030951
487.80 1.030691
487.90 1.030431
488.00 1.030171
488.10 1.029911
488.20 1.029656
488.30 1.029467
488.40 1.029279
488.50 1.02909
488.60 1.028902
488.70 1.028713
488.80 1.028509
488.90 1.028305
489.00 1.028085
489.10 1.027827
489.20 1.027568
489.30 1.02731
489.40 1.027052
489.50 1.026793
489.60 1.026535
489.70 1.026277
489.80 1.025866
489.90 1.025563
490.00 1.025261
490.10 1.024958
490.20 1.024655
490.30 1.024353
490.40 1.024228
490.50 1.024103
490.60 1.023978
490.70 1.023853
490.80 1.023436
490.90 1.023019
491.00 1.022602
491.10 1.02277
491.20 1.022353
491.30 1.021937
491.40 1.022104
491.50 1.021688
491.60 1.021356
491.70 1.021199
491.80 1.021024
491.90 1.020609
492.00 1.020194
492.10 1.020172
492.20 1.019947
492.30 1.019532
492.40 1.019156
492.50 1.019285
492.60 1.018881
492.70 1.018613
492.80 1.018344
492.90 1.018076
493.00 1.017806
493.10 1.017507
493.20 1.017209
493.30 1.01691
493.40 1.016612
493.50 1.016314
493.60 1.016481
493.70 1.016069
493.80 1.015657
493.90 1.015355
494.00 1.015223
494.10 1.015036
494.20 1.014735
494.30 1.014435
494.40 1.014134
494.50 1.013833
494.60 1.013548
494.70 1.013456
494.80 1.013327
494.90 1.013094
495.00 1.012861
495.10 1.012628
495.20 1.012338
495.30 1.012048
495.40 1.011758
495.50 1.011468
495.60 1.011178
495.70 1.010889
495.80 1.010599
495.90 1.01031
496.00 1.010021
496.10 1.009841
496.20 1.009869
496.30 1.009602
496.40 1.009336
496.50 1.00907
496.60 1.008804
496.70 1.008567
496.80 1.00833
496.90 1.008094
497.00 1.007857
497.10 1.007621
497.20 1.007384
497.30 1.007104
497.40 1.006699
497.50 1.006295
497.60 1.006036
497.70 1.006063
497.80 1.005784
497.90 1.005506
498.00 1.005227
498.10 1.004949
498.20 1.00467
498.30 1.004392
498.40 1.004114
498.50 1.003836
498.60 1.003559
498.70 1.003439
498.80 1.00332
498.90 1.003071
499.00 1.002823
499.10 1.002575
499.20 1.002278
499.30 1.001911
499.40 1.001645
499.50 1.001378
499.60 1.001112
499.70 1.000845
499.80 1.000563
499.90 1.000282
500.00 1
500.10 0.9997186
500.20 0.9994595
500.30 0.9992475
500.40 0.9990356
500.50 0.9988238
500.60 0.9986121
500.70 0.9984004
500.80 0.9981831
500.90 0.9979536
501.00 0.9977242
501.10 0.9974949
501.20 0.9970969
501.30 0.9966991
501.40 0.9963016
501.50 0.9964641
501.60 0.9960669
501.70 0.9956698
501.80 0.9953625
501.90 0.9952453
502.00 0.9950388
502.10 0.9946425
502.20 0.9942688
502.30 0.9941918
502.40 0.9940426
502.50 0.9937399
502.60 0.9934374
502.70 0.993135
502.80 0.9928329
502.90 0.9925308
503.00 0.9922432
503.10 0.9919858
503.20 0.9917285
503.30 0.9914713
503.40 0.9912136
503.50 0.9909541
503.60 0.9906947
503.70 0.9904354
503.80 0.9901971
503.90 0.9901122
504.00 0.9899724
504.10 0.9897161
504.20 0.98946
504.30 0.989204
504.40 0.9889127
504.50 0.9885207
504.60 0.9881289
504.70 0.9882901
504.80 0.9878986
504.90 0.9875073
505.00 0.987188
505.10 0.9870731
505.20 0.9869229
505.30 0.9866723
505.40 0.9864217
505.50 0.9861713
505.60 0.9859054
505.70 0.9856064
505.80 0.9853075
505.90 0.9850088
506.00 0.9847103
506.10 0.9844119
506.20 0.984122
506.30 0.9838562
506.40 0.9835905
506.50 0.9833249
506.60 0.9830595
506.70 0.9827942
506.80 0.982529
506.90 0.982264
507.00 0.981999
507.10 0.9818604
507.20 0.9818909
507.30 0.9816406
507.40 0.9813904
507.50 0.9811404
507.60 0.9808904
507.70 0.9806406
507.80 0.9803909
507.90 0.9801414
508.00 0.9798919
508.10 0.9796426
508.20 0.9793934
508.30 0.9791443
508.40 0.9788953
508.50 0.9786465
508.60 0.9783977
508.70 0.9781491
508.80 0.9778653
508.90 0.977481
509.00 0.977097
509.10 0.9767564
509.20 0.9765079
509.30 0.9762595
509.40 0.9760112
509.50 0.975763
509.60 0.9755149
509.70 0.975267
509.80 0.9750192
509.90 0.9747715
510.00 0.9745239
510.10 0.9742765
510.20 0.9740292
510.30 0.9737796
510.40 0.9735233
510.50 0.9732672
510.60 0.9730112
510.70 0.9727554
510.80 0.9724996
510.90 0.972244
511.00 0.9719885
511.10 0.9717332
511.20 0.9714779
511.30 0.9712228
511.40 0.9709679
511.50 0.970713
511.60 0.9704671
511.70 0.9702402
511.80 0.9700133
511.90 0.9697866
512.00 0.96956
512.10 0.9693334
512.20 0.969107
512.30 0.9688667
512.40 0.9685866
512.50 0.9683067
512.60 0.968027
512.70 0.9677474
512.80 0.9674679
512.90 0.9671886
513.00 0.9669094
513.10 0.9666304
513.20 0.9663515
513.30 0.9660728
513.40 0.9657942
513.50 0.9655158
513.60 0.9652374
513.70 0.9649593
513.80 0.9646813
513.90 0.9644034
514.00 0.9641488
514.10 0.9638981
514.20 0.9636476
514.30 0.9633971
514.40 0.9631468
514.50 0.9628966
514.60 0.9626466
514.70 0.9623966
514.80 0.9621468
514.90 0.9618971
515.00 0.9616475
515.10 0.9613981
515.20 0.9611487
515.30 0.9608995
515.40 0.9606504
515.50 0.9604014
515.60 0.9601526
515.70 0.9599038
515.80 0.9596552
515.90 0.9594067
516.00 0.9591583
516.10 0.9589101
516.20 0.958662
516.30 0.9584139
516.40 0.958166
516.50 0.9579183
516.60 0.9576707
516.70 0.9574232
516.80 0.9571758
516.90 0.9569286
517.00 0.9566815
517.10 0.9564345
517.20 0.9561876
517.30 0.9559408
517.40 0.9556942
517.50 0.9554476
517.60 0.9552012
517.70 0.9549549
517.80 0.9547088
517.90 0.9544627
518.00 0.9542168
518.10 0.953971
518.20 0.9537253
518.30 0.9534797
518.40 0.9532342
518.50 0.9529889
518.60 0.9527437
518.70 0.9524986
518.80 0.9522536
518.90 0.9520087
519.00 0.951764
519.10 0.9515093
519.20 0.9512434
519.30 0.9509776
519.40 0.950712
519.50 0.9504466
519.60 0.9501812
519.70 0.949916
519.80 0.9496509
519.90 0.949386
520.00 0.9491212
520.10 0.9488565
520.20 0.948592
520.30 0.9483276
520.40 0.9480633
520.50 0.9477992
520.60 0.9475351
520.70 0.9472713
520.80 0.9470075
520.90 0.9467439
521.00 0.9464804
521.10 0.9462171
521.20 0.9459539
521.30 0.9456908
521.40 0.9454279
521.50 0.945165
521.60 0.9449024
521.70 0.9446398
521.80 0.9443774
521.90 0.9441151
522.00 0.9438529
522.10 0.9435909
522.20 0.943329
522.30 0.9430673
522.40 0.9428056
522.50 0.9425441
522.60 0.9422828
522.70 0.9420215
522.80 0.9417604
522.90 0.9414994
523.00 0.9412386
523.10 0.9409779
523.20 0.9407173
523.30 0.9404568
523.40 0.9401965
523.50 0.9399363
523.60 0.9396763
523.70 0.9394163
523.80 0.9391565
523.90 0.9388968
524.00 0.9386373
524.10 0.9383779
524.20 0.9381186
524.30 0.9378589
524.40 0.9375989
524.50 0.9373391
524.60 0.9370794
524.70 0.9368198
524.80 0.9365603
524.90 0.936301
525.00 0.9360418
525.10 0.9357827
525.20 0.9355237
525.30 0.9352649
525.40 0.9350062
525.50 0.9347477
525.60 0.9344892
525.70 0.9342309
525.80 0.9339728
525.90 0.9337147
526.00 0.9334568
526.10 0.933199
526.20 0.9329414
526.30 0.9326838
526.40 0.9324264
526.50 0.9321692
526.60 0.931912
526.70 0.931655
526.80 0.9313981
526.90 0.9311414
527.00 0.9308847
527.10 0.9306282
527.20 0.9303718
527.30 0.9301156
527.40 0.9298595
527.50 0.9296035
527.60 0.9293476
527.70 0.9290919
527.80 0.9288363
527.90 0.9285808
528.00 0.9283254
528.10 0.9280702
528.20 0.9278151
528.30 0.9275601
528.40 0.9273052
528.50 0.9270505
528.60 0.9267959
528.70 0.9265414
528.80 0.9262871
528.90 0.9260329
529.00 0.9257788
529.10 0.9255248
529.20 0.925271
529.30 0.9250173
529.40 0.9247637
529.50 0.9245101
529.60 0.9242557
529.70 0.9240015
529.80 0.9237475
529.90 0.9234935
530.00 0.9232397
530.10 0.922986
530.20 0.9227325
530.30 0.922479
530.40 0.9222257
530.50 0.9219725
530.60 0.9217195
530.70 0.9214666
530.80 0.9212137
530.90 0.9209611
531.00 0.9207085
531.10 0.9204561
531.20 0.9202038
531.30 0.9199516
531.40 0.9196995
531.50 0.9194476
531.60 0.9191958
531.70 0.9189441
531.80 0.9186925
531.90 0.9184411
532.00 0.9181898
532.10 0.9179386
532.20 0.9176875
532.30 0.9174366
532.40 0.9171858
532.50 0.9169352
532.60 0.9166846
532.70 0.9164342
532.80 0.9161839
532.90 0.9159338
533.00 0.9156837
533.10 0.9154338
533.20 0.915184
533.30 0.9149343
533.40 0.9146848
533.50 0.9144354
533.60 0.9141861
533.70 0.9139369
533.80 0.9136878
533.90 0.9134389
534.00 0.9131901
534.10 0.9129414
534.20 0.9126928
534.30 0.9124443
534.40 0.912196
534.50 0.9119478
534.60 0.9116997
534.70 0.9114518
534.80 0.911202
534.90 0.9109442
535.00 0.9106864
535.10 0.9104288
535.20 0.9101714
535.30 0.909914
535.40 0.9096568
535.50 0.9093997
535.60 0.9091428
535.70 0.9088859
535.80 0.9086292
535.90 0.9083727
536.00 0.9081162
536.10 0.9078599
536.20 0.9076037
536.30 0.9073477
536.40 0.9070917
536.50 0.9068359
536.60 0.9065803
536.70 0.9063247
536.80 0.9060693
536.90 0.905814
537.00 0.9055588
537.10 0.9053038
537.20 0.9050489
537.30 0.9047941
537.40 0.9045395
537.50 0.9042849
537.60 0.9040305
537.70 0.9037762
537.80 0.9035221
537.90 0.9032681
538.00 0.9030142
538.10 0.9027604
538.20 0.9025068
538.30 0.9022532
538.40 0.9019999
538.50 0.9017466
538.60 0.9014934
538.70 0.9012404
538.80 0.9009875
538.90 0.9007348
539.00 0.9004821
539.10 0.9002296
539.20 0.8999772
539.30 0.899725
539.40 0.8994728
539.50 0.8992208
539.60 0.898969
539.70 0.8987172
539.80 0.8984656
539.90 0.898214
540.00 0.8979627
540.10 0.8977114
540.20 0.8974597
540.30 0.8972079
540.40 0.8969562
540.50 0.8967046
540.60 0.8964532
540.70 0.8962019
540.80 0.8959507
540.90 0.8956996
541.00 0.8954487
541.10 0.8951979
541.20 0.8949472
541.30 0.8946966
541.40 0.8944462
541.50 0.8941959
541.60 0.8939457
541.70 0.8936956
541.80 0.8934457
541.90 0.8931959
542.00 0.8929462
542.10 0.8926966
542.20 0.8924471
542.30 0.8921978
542.40 0.8919486
542.50 0.8916995
542.60 0.8914506
542.70 0.8912017
542.80 0.890953
542.90 0.8907044
543.00 0.890456
543.10 0.8902076
543.20 0.8899594
543.30 0.8897113
543.40 0.8894633
543.50 0.8892155
543.60 0.8889677
543.70 0.8887201
543.80 0.8884726
543.90 0.8882253
544.00 0.887978
544.10 0.8877309
544.20 0.8874839
544.30 0.887237
544.40 0.8869903
544.50 0.8867436
544.60 0.8864971
544.70 0.8862507
544.80 0.8860044
544.90 0.8857583
545.00 0.8855122
545.10 0.8852663
545.20 0.8850205
545.30 0.8847749
545.40 0.8845293
545.50 0.8842839
545.60 0.884032
545.70 0.8837773
545.80 0.8835228
545.90 0.8832684
546.00 0.8830142
546.10 0.88276
546.20 0.882506
546.30 0.8822521
546.40 0.8819984
546.50 0.8817447
546.60 0.8814912
546.70 0.8812379
546.80 0.8809846
546.90 0.8807315
547.00 0.8804785
547.10 0.8802256
547.20 0.8799729
547.30 0.8797203
547.40 0.8794678
547.50 0.8792154
547.60 0.8789632
547.70 0.878711
547.80 0.8784591
547.90 0.8782072
548.00 0.8779554
548.10 0.8777038
548.20 0.8774523
548.30 0.8771938
548.40 0.8769254
548.50 0.8766572
548.60 0.8763891
548.70 0.8761211
548.80 0.8758533
548.90 0.8755856
549.00 0.875318
549.10 0.8750506
549.20 0.8747833
549.30 0.8745162
549.40 0.8742492
549.50 0.8739823
549.60 0.8737155
549.70 0.8734489
549.80 0.8731825
549.90 0.8729161
550.00 0.87265
550.10 0.8723839
550.20 0.872118
550.30 0.8718522
550.40 0.8715865
550.50 0.871321
550.60 0.8710557
550.70 0.8707904
550.80 0.8705253
550.90 0.8702603
551.00 0.8699979
551.10 0.8697495
551.20 0.8695013
551.30 0.8692531
551.40 0.8690051
551.50 0.8687572
551.60 0.8685094
551.70 0.8682617
551.80 0.8680142
551.90 0.8677668
552.00 0.8675195
552.10 0.8672723
552.20 0.8670253
552.30 0.8667784
552.40 0.8665316
552.50 0.8662849
552.60 0.8660383
552.70 0.8657919
552.80 0.8655456
552.90 0.8652994
553.00 0.8650533
553.10 0.8648073
553.20 0.8645615
553.30 0.8643158
553.40 0.8640702
553.50 0.8638247
553.60 0.8635794
553.70 0.8633342
553.80 0.8630891
553.90 0.8628441
554.00 0.8625992
554.10 0.8623545
554.20 0.8621099
554.30 0.8618653
554.40 0.861621
554.50 0.8613767
554.60 0.8611326
554.70 0.8608885
554.80 0.8606446
554.90 0.8604009
555.00 0.8601572
555.10 0.8599137
555.20 0.8596702
555.30 0.8594269
555.40 0.8591837
555.50 0.8589407
555.60 0.8586977
555.70 0.8584549
555.80 0.8582122
555.90 0.8579696
556.00 0.8577271
556.10 0.8574848
556.20 0.8572426
556.30 0.8570005
556.40 0.8567585
556.50 0.8565161
556.60 0.8562656
556.70 0.8560151
556.80 0.8557648
556.90 0.8555146
557.00 0.8552645
557.10 0.8550146
557.20 0.8547647
557.30 0.854515
557.40 0.8542655
557.50 0.854016
557.60 0.8537667
557.70 0.8535175
557.80 0.8532684
557.90 0.8530194
558.00 0.8527706
558.10 0.8525219
558.20 0.8522733
558.30 0.8520248
558.40 0.8517765
558.50 0.8515283
558.60 0.8512802
558.70 0.8510322
558.80 0.8507843
558.90 0.8505366
559.00 0.850289
559.10 0.8500415
559.20 0.8497942
559.30 0.8495469
559.40 0.8492998
559.50 0.8490528
559.60 0.848806
559.70 0.8485592
559.80 0.8483126
559.90 0.8480661
560.00 0.8478197
560.10 0.8475734
560.20 0.8473273
560.30 0.8470813
560.40 0.8468354
560.50 0.8465896
560.60 0.846344
560.70 0.8460984
560.80 0.845853
560.90 0.8456078
561.00 0.8453626
561.10 0.8451175
561.20 0.8448726
561.30 0.8446278
561.40 0.8443831
561.50 0.8441386
561.60 0.8438941
561.70 0.8436498
561.80 0.8434056
561.90 0.8431615
562.00 0.8429176
562.10 0.8426703
562.20 0.8424181
562.30 0.842166
562.40 0.8419141
562.50 0.8416623
562.60 0.8414106
562.70 0.841159
562.80 0.8409075
562.90 0.8406562
563.00 0.840405
563.10 0.8401539
563.20 0.839903
563.30 0.8396521
563.40 0.8394014
563.50 0.8391509
563.60 0.8389004
563.70 0.8386501
563.80 0.8383999
563.90 0.8381498
564.00 0.8378998
564.10 0.83765
564.20 0.8374003
564.30 0.8371507
564.40 0.8369013
564.50 0.8366519
564.60 0.8364027
564.70 0.8361537
564.80 0.8359047
564.90 0.8356559
565.00 0.8354072
565.10 0.8351586
565.20 0.8349102
565.30 0.8346618
565.40 0.8344136
565.50 0.8341656
565.60 0.8339176
565.70 0.8336698
565.80 0.8334221
565.90 0.8331745
566.00 0.832927
566.10 0.8326797
566.20 0.8324325
566.30 0.8321854
566.40 0.8319384
566.50 0.8316916
566.60 0.8314448
566.70 0.8311982
566.80 0.8309517
566.90 0.8307054
567.00 0.8304592
567.10 0.830213
567.20 0.829967
567.30 0.8297212
567.40 0.8294754
567.50 0.8292298
567.60 0.8289843
567.70 0.8287388
567.80 0.8284931
567.90 0.8282475
568.00 0.828002
568.10 0.8277566
568.20 0.8275114
568.30 0.8272663
568.40 0.8270213
568.50 0.8267764
568.60 0.8265316
568.70 0.826287
568.80 0.8260425
568.90 0.8257981
569.00 0.8255538
569.10 0.8253096
569.20 0.8250656
569.30 0.8248217
569.40 0.8245779
569.50 0.8243342
569.60 0.8240907
569.70 0.8238472
569.80 0.8236039
569.90 0.8233607
570.00 0.8231176
570.10 0.8228747
570.20 0.8226319
570.30 0.8223891
570.40 0.8221466
570.50 0.8219041
570.60 0.8216617
570.70 0.8214195
570.80 0.8211774
570.90 0.8209354
571.00 0.8206935
571.10 0.8204517
571.20 0.8202101
571.30 0.8199686
571.40 0.8197272
571.50 0.8194859
571.60 0.8192447
571.70 0.8190037
571.80 0.8187628
571.90 0.8185219
572.00 0.8182813
572.10 0.8180407
572.20 0.8178002
572.30 0.8175599
572.40 0.8173197
572.50 0.8170796
572.60 0.8168396
572.70 0.8165997
572.80 0.81636
572.90 0.8161203
573.00 0.8158808
573.10 0.8156414
573.20 0.8154022
573.30 0.815163
573.40 0.8149221
573.50 0.8146786
573.60 0.8144353
573.70 0.8141921
573.80 0.813949
573.90 0.8137061
574.00 0.8134632
574.10 0.8132205
574.20 0.8129779
574.30 0.8127354
574.40 0.8124931
574.50 0.8122508
574.60 0.8120087
574.70 0.8117667
574.80 0.8115248
574.90 0.8112831
575.00 0.8110414
575.10 0.8107999
575.20 0.8105585
575.30 0.8103172
575.40 0.8100761
575.50 0.809835
575.60 0.8095941
575.70 0.8093533
575.80 0.8091126
575.90 0.808872
576.00 0.8086315
576.10 0.8083912
576.20 0.808151
576.30 0.8079109
576.40 0.8076709
576.50 0.807431
576.60 0.8071913
576.70 0.8069516
576.80 0.8067121
576.90 0.8064727
577.00 0.8062335
577.10 0.8059943
577.20 0.8057553
577.30 0.8055163
577.40 0.8052775
577.50 0.8050388
577.60 0.8047955
577.70 0.8045445
577.80 0.8042936
577.90 0.8040428
578.00 0.8037922
578.10 0.8035417
578.20 0.8032913
578.30 0.8030411
578.40 0.8027909
578.50 0.8025409
578.60 0.8022911
578.70 0.8020413
578.80 0.8017917
578.90 0.8015422
579.00 0.8012928
579.10 0.801045
579.20 0.8008116
579.30 0.8005784
579.40 0.8003452
579.50 0.8001122
579.60 0.7998793
579.70 0.7996465
579.80 0.7994138
579.90 0.7991813
580.00 0.7989488
580.10 0.798716
580.20 0.7984825
580.30 0.7982492
580.40 0.7980159
580.50 0.7977828
580.60 0.7975498
580.70 0.7973168
580.80 0.797084
580.90 0.7968514
581.00 0.7966188
581.10 0.7963863
581.20 0.796154
581.30 0.7959218
581.40 0.7956896
581.50 0.7954576
581.60 0.7952257
581.70 0.794994
581.80 0.7947623
581.90 0.7945307
582.00 0.7942993
582.10 0.7940627
582.20 0.7938176
582.30 0.7935727
582.40 0.7933279
582.50 0.7930832
582.60 0.7928386
582.70 0.7925941
582.80 0.7923498
582.90 0.7921056
583.00 0.7918615
583.10 0.7916175
583.20 0.7913736
583.30 0.7911299
583.40 0.7908863
583.50 0.7906428
583.60 0.7904009
583.70 0.7901614
583.80 0.789922
583.90 0.7896827
584.00 0.7894436
584.10 0.7892046
584.20 0.7889657
584.30 0.7887269
584.40 0.7884882
584.50 0.7882496
584.60 0.7880112
584.70 0.7877729
584.80 0.7875347
584.90 0.787291
585.00 0.7870218
585.10 0.7867528
585.20 0.7864996
585.30 0.786272
585.40 0.7860445
585.50 0.785817
585.60 0.7855897
585.70 0.7853625
585.80 0.7851355
585.90 0.7849085
586.00 0.7846816
586.10 0.7844549
586.20 0.7842386
586.30 0.7840394
586.40 0.7838402
586.50 0.7836412
586.60 0.7834422
586.70 0.7832433
586.80 0.7830187
586.90 0.7827519
587.00 0.7824852
587.10 0.7822186
587.20 0.7819522
587.30 0.781686
587.40 0.7814198
587.50 0.7811539
587.60 0.780888
587.70 0.7806223
587.80 0.7803567
587.90 0.7800912
588.00 0.7798646
588.10 0.7797012
588.20 0.7795378
588.30 0.7793745
588.40 0.7791727
588.50 0.7789079
588.60 0.7786433
588.70 0.7783788
588.80 0.7781144
588.90 0.7778502
589.00 0.7776015
589.10 0.7773781
589.20 0.7771548
589.30 0.7769316
589.40 0.7767085
589.50 0.7764855
589.60 0.7762626
589.70 0.7760399
589.80 0.7758172
589.90 0.7755947
590.00 0.7753569
590.10 0.7750941
590.20 0.7748315
590.30 0.774569
590.40 0.7743066
590.50 0.7740444
590.60 0.7737823
590.70 0.7735203
590.80 0.773292
590.90 0.7730788
591.00 0.7728657
591.10 0.7726527
591.20 0.7724398
591.30 0.772227
591.40 0.7720143
591.50 0.7718017
591.60 0.771581
591.70 0.7713471
591.80 0.7711132
591.90 0.7708795
592.00 0.7706459
592.10 0.7704123
592.20 0.7701789
592.30 0.7699457
592.40 0.7697125
592.50 0.7694794
592.60 0.7692465
592.70 0.7690136
592.80 0.7687809
592.90 0.7685483
593.00 0.7683158
593.10 0.7680809
593.20 0.767842
593.30 0.7676032
593.40 0.7673645
593.50 0.7671259
593.60 0.7668874
593.70 0.7666491
593.80 0.7664108
593.90 0.7661727
594.00 0.7659347
594.10 0.7656968
594.20 0.7654591
594.30 0.7652214
594.40 0.7649839
594.50 0.7647465
594.60 0.7645092
594.70 0.764272
594.80 0.7640349
594.90 0.763798
595.00 0.7635612
595.10 0.7633265
595.20 0.7630952
595.30 0.7628641
595.40 0.762633
595.50 0.7624021
595.60 0.7621713
595.70 0.7619406
595.80 0.76171
595.90 0.7614796
596.00 0.7612492
596.10 0.761019
596.20 0.7607888
596.30 0.7605588
596.40 0.7603289
596.50 0.7600991
596.60 0.7598694
596.70 0.7596508
596.80 0.759439
596.90 0.7592274
597.00 0.7590158
597.10 0.7588043
597.20 0.7585929
597.30 0.7583817
597.40 0.7581705
597.50 0.7579594
597.60 0.7577408
597.70 0.75751
597.80 0.7572792
597.90 0.7570486
598.00 0.7568181
598.10 0.7565877
598.20 0.7563574
598.30 0.7561272
598.40 0.7558971
598.50 0.7556672
598.60 0.7554373
598.70 0.7552076
598.80 0.754978
598.90 0.7547484
599.00 0.754519
599.10 0.7542897
599.20 0.7540606
599.30 0.7538315
599.40 0.7535996
599.50 0.7533678
599.60 0.7531361
599.70 0.7529045
599.80 0.752673
599.90 0.7524417
600.00 0.7522105
600.10 0.7519793
600.20 0.7517483
600.30 0.7515174
600.40 0.7512866
600.50 0.7510559
600.60 0.7508254
600.70 0.7505949
600.80 0.7503646
600.90 0.7501344
601.00 0.7499042
601.10 0.7496742
601.20 0.7494443
601.30 0.7492146
601.40 0.7489654
601.50 0.7487164
601.60 0.7484675
601.70 0.7482188
601.80 0.7479701
601.90 0.7477216
602.00 0.7474732
602.10 0.7472249
602.20 0.7469768
602.30 0.7467288
602.40 0.7464809
602.50 0.7462331
602.60 0.7459855
602.70 0.7457379
602.80 0.7454905
602.90 0.7452674
603.00 0.7450445
603.10 0.7448216
603.20 0.7445989
603.30 0.7443762
603.40 0.7441537
603.50 0.7439313
603.60 0.7437089
603.70 0.7434867
603.80 0.7432646
603.90 0.7430426
604.00 0.7428207
604.10 0.7425989
604.20 0.7423772
604.30 0.7421556
604.40 0.7419342
604.50 0.7417272
604.60 0.7415204
604.70 0.7413137
604.80 0.7411071
604.90 0.7409005
605.00 0.7406941
605.10 0.7404877
605.20 0.7402815
605.30 0.7400753
605.40 0.7398693
605.50 0.7396249
605.60 0.7393807
605.70 0.7391366
605.80 0.7388926
605.90 0.7386487
606.00 0.7384049
606.10 0.7381613
606.20 0.7379178
606.30 0.7376744
606.40 0.7374311
606.50 0.7371879
606.60 0.7369449
606.70 0.736702
606.80 0.7364592
606.90 0.7362165
607.00 0.735974
607.10 0.7357315
607.20 0.7354892
607.30 0.7353424
607.40 0.7351957
607.50 0.7350491
607.60 0.7349025
607.70 0.7346607
607.80 0.7344189
607.90 0.7341773
608.00 0.7339358
608.10 0.7336945
608.20 0.7334532
608.30 0.7332121
608.40 0.7329711
608.50 0.7327302
608.60 0.7324894
608.70 0.7322488
608.80 0.7320082
608.90 0.7317678
609.00 0.7315275
609.10 0.7312873
609.20 0.7310473
609.30 0.730831
609.40 0.7306149
609.50 0.7303989
609.60 0.7301829
609.70 0.7299671
609.80 0.7297514
609.90 0.7295358
610.00 0.7293202
610.10 0.7291048
610.20 0.7288895
610.30 0.7286743
610.40 0.7284592
610.50 0.7282441
610.60 0.7280292
610.70 0.7278144
610.80 0.7275997
610.90 0.7273615
611.00 0.7271235
611.10 0.7268855
611.20 0.7266477
611.30 0.7264099
611.40 0.7261723
611.50 0.7259349
611.60 0.7256975
611.70 0.7254602
611.80 0.7252231
611.90 0.7249861
612.00 0.7247492
612.10 0.7245124
612.20 0.7242757
612.30 0.7240392
612.40 0.7238215
612.50 0.7236039
612.60 0.7233865
612.70 0.7231691
612.80 0.7229518
612.90 0.7227347
613.00 0.7225176
613.10 0.7223007
613.20 0.7220839
613.30 0.7218671
613.40 0.7216505
613.50 0.7214339
613.60 0.7212175
613.70 0.7210012
613.80 0.720785
613.90 0.7205688
614.00 0.7203528
614.10 0.7201369
614.20 0.7199211
614.30 0.7197054
614.40 0.7194711
614.50 0.719237
614.60 0.7190029
614.70 0.718769
614.80 0.7185501
614.90 0.7183342
615.00 0.7181185
615.10 0.7179029
615.20 0.7176874
615.30 0.717472
615.40 0.7172567
615.50 0.7170415
615.60 0.7168264
615.70 0.7166114
615.80 0.7163965
615.90 0.7161817
616.00 0.715967
616.10 0.7157524
616.20 0.7155379
616.30 0.7153235
616.40 0.7151092
616.50 0.714895
616.60 0.714681
616.70 0.714467
616.80 0.7142531
616.90 0.7140306
617.00 0.7138083
617.10 0.7135861
617.20 0.713364
617.30 0.7131419
617.40 0.71292
617.50 0.7126982
617.60 0.7124765
617.70 0.712255
617.80 0.7120335
617.90 0.7118121
618.00 0.7115908
618.10 0.7113697
618.20 0.7111486
618.30 0.7109277
618.40 0.7107068
618.50 0.7104861
618.60 0.7102654
618.70 0.7100449
618.80 0.7098245
618.90 0.7096042
619.00 0.7093839
619.10 0.7091638
619.20 0.7089438
619.30 0.7087239
619.40 0.7085041
619.50 0.7082844
619.60 0.7080649
619.70 0.7078454
619.80 0.707626
619.90 0.7074067
620.00 0.7071876
620.10 0.7069685
620.20 0.7067496
620.30 0.7065307
620.40 0.706312
620.50 0.7060933
620.60 0.7058748
620.70 0.7056563
620.80 0.705438
620.90 0.7052187
621.00 0.7049974
621.10 0.7047763
621.20 0.7045553
621.30 0.7043344
621.40 0.7041136
621.50 0.7038929
621.60 0.7036723
621.70 0.7034518
621.80 0.7032315
621.90 0.7030112
622.00 0.702791
622.10 0.7025709
622.20 0.702351
622.30 0.7021311
622.40 0.7019114
622.50 0.7016917
622.60 0.7014722
622.70 0.7012528
622.80 0.7010334
622.90 0.7008142
623.00 0.7005951
623.10 0.7003761
623.20 0.7001572
623.30 0.6999384
623.40 0.6997197
623.50 0.6995011
623.60 0.6992826
623.70 0.6990642
623.80 0.6988459
623.90 0.6986277
624.00 0.6984096
624.10 0.6981917
624.20 0.6979738
624.30 0.697756
624.40 0.6975384
624.50 0.6973208
624.60 0.6971033
624.70 0.696886
624.80 0.6966687
624.90 0.6964516
625.00 0.6962346
625.10 0.6960176
625.20 0.6958008
625.30 0.695584
625.40 0.6953674
625.50 0.6951509
625.60 0.6949345
625.70 0.6947182
625.80 0.6945019
625.90 0.6942858
626.00 0.6940698
626.10 0.6938539
626.20 0.6936381
626.30 0.6934224
626.40 0.6932068
626.50 0.6929913
626.60 0.6927759
626.70 0.6925606
626.80 0.6923454
626.90 0.6921303
627.00 0.6919153
627.10 0.6916989
627.20 0.6914783
627.30 0.6912579
627.40 0.6910375
627.50 0.6908173
627.60 0.6905972
627.70 0.6903772
627.80 0.6901572
627.90 0.6899374
628.00 0.6897177
628.10 0.6894981
628.20 0.6892786
628.30 0.6890592
628.40 0.6888399
628.50 0.6886207
628.60 0.6884017
628.70 0.6881827
628.80 0.6879638
628.90 0.6877451
629.00 0.6875264
629.10 0.6873078
629.20 0.6870894
629.30 0.686871
629.40 0.6866528
629.50 0.6864346
629.60 0.6862166
629.70 0.6859987
629.80 0.6857809
629.90 0.6855631
630.00 0.6853455
630.10 0.685128
630.20 0.6849106
630.30 0.6847037
630.40 0.6844977
630.50 0.6842919
630.60 0.6840862
630.70 0.6838806
630.80 0.683675
630.90 0.6834696
631.00 0.6832643
631.10 0.683059
631.20 0.6828539
631.30 0.6826488
631.40 0.6824439
631.50 0.682239
631.60 0.6820343
631.70 0.6818296
631.80 0.681625
631.90 0.6814205
632.00 0.6812162
632.10 0.6810119
632.20 0.6808077
632.30 0.6806036
632.40 0.6803996
632.50 0.6801957
632.60 0.6799919
632.70 0.6797881
632.80 0.6795845
632.90 0.679381
633.00 0.6791776
633.10 0.6789742
633.20 0.678771
633.30 0.6785678
633.40 0.6783585
633.50 0.6781444
633.60 0.6779303
633.70 0.6777164
633.80 0.6775025
633.90 0.6772888
634.00 0.6770752
634.10 0.6768616
634.20 0.6766482
634.30 0.6764349
634.40 0.6762216
634.50 0.6760085
634.60 0.6757954
634.70 0.6755825
634.80 0.6753697
634.90 0.675157
635.00 0.6749443
635.10 0.6747318
635.20 0.6745194
635.30 0.674307
635.40 0.6740948
635.50 0.6738827
635.60 0.6736706
635.70 0.6734587
635.80 0.6732469
635.90 0.6730352
636.00 0.6728235
636.10 0.672612
636.20 0.6724006
636.30 0.6721892
636.40 0.671978
636.50 0.6717669
636.60 0.6715558
636.70 0.6713449
636.80 0.6711341
636.90 0.6709233
637.00 0.6707127
637.10 0.6705022
637.20 0.6702917
637.30 0.6700814
637.40 0.6698712
637.50 0.669661
637.60 0.669451
637.70 0.669241
637.80 0.6690312
637.90 0.6688215
638.00 0.6686118
638.10 0.6684023
638.20 0.6681928
638.30 0.6679835
638.40 0.6677742
638.50 0.6675651
638.60 0.667356
638.70 0.667147
638.80 0.6669382
638.90 0.6667294
639.00 0.6665208
639.10 0.6663122
639.20 0.6661037
639.30 0.6658954
639.40 0.6656871
639.50 0.6654789
639.60 0.6652708
639.70 0.6650629
639.80 0.664855
639.90 0.6646472
640.00 0.6644395
640.10 0.6642319
640.20 0.6640244
640.30 0.663817
640.40 0.6636097
640.50 0.6634025
640.60 0.6631954
640.70 0.6629884
640.80 0.6627815
640.90 0.6625747
641.00 0.662368
641.10 0.6621614
641.20 0.6619549
641.30 0.6617484
641.40 0.6615421
641.50 0.6613359
641.60 0.6611297
641.70 0.6609237
641.80 0.6607177
641.90 0.6605119
642.00 0.6603061
642.10 0.6601005
642.20 0.6598949
642.30 0.6596895
642.40 0.6594841
642.50 0.6592788
642.60 0.6590737
642.70 0.6588686
642.80 0.6586636
642.90 0.6584587
643.00 0.6582539
643.10 0.6580492
643.20 0.6578446
643.30 0.6576401
643.40 0.6574357
643.50 0.6572314
643.60 0.6570272
643.70 0.656823
643.80 0.656619
643.90 0.6564151
644.00 0.6562112
644.10 0.6560075
644.20 0.6558038
644.30 0.6556003
644.40 0.6553968
644.50 0.6551935
644.60 0.6549902
644.70 0.654787
644.80 0.6545839
644.90 0.6543809
645.00 0.6541781
645.10 0.6539753
645.20 0.6537725
645.30 0.6535699
645.40 0.6533674
645.50 0.653165
645.60 0.6529627
645.70 0.6527604
645.80 0.6525583
645.90 0.6523563
646.00 0.6521543
646.10 0.6519497
646.20 0.6517375
646.30 0.6515254
646.40 0.6513134
646.50 0.6511015
646.60 0.6508897
646.70 0.650678
646.80 0.6504664
646.90 0.6502549
647.00 0.6500435
647.10 0.6498322
647.20 0.649621
647.30 0.6494099
647.40 0.6491989
647.50 0.648988
647.60 0.6487772
647.70 0.6485665
647.80 0.6483559
647.90 0.6481453
648.00 0.6479349
648.10 0.6477246
648.20 0.6475144
648.30 0.6473043
648.40 0.6470943
648.50 0.6468844
648.60 0.6466745
648.70 0.6464648
648.80 0.6462552
648.90 0.6460457
649.00 0.6458363
649.10 0.6456269
649.20 0.6454177
649.30 0.6452086
649.40 0.6450095
649.50 0.6448109
649.60 0.6446124
649.70 0.6444139
649.80 0.6442156
649.90 0.6440174
650.00 0.6438192
650.10 0.6436212
650.20 0.6434232
650.30 0.6432254
650.40 0.6430276
650.50 0.6428299
650.60 0.6426323
650.70 0.6424348
650.80 0.6422374
650.90 0.6420401
651.00 0.6418428
651.10 0.6416457
651.20 0.6414486
651.30 0.6412517
651.40 0.6410548
651.50 0.640858
651.60 0.6406613
651.70 0.6404647
651.80 0.6402682
651.90 0.6400718
652.00 0.6398755
652.10 0.6396793
652.20 0.6394831
652.30 0.6392871
652.40 0.6390911
652.50 0.6388952
652.60 0.6386926
652.70 0.6384865
652.80 0.6382805
652.90 0.6380745
653.00 0.6378687
653.10 0.6376629
653.20 0.6374573
653.30 0.6372517
653.40 0.6370463
653.50 0.6368409
653.60 0.6366356
653.70 0.6364304
653.80 0.6362254
653.90 0.6360204
654.00 0.6358155
654.10 0.6356107
654.20 0.635406
654.30 0.6352014
654.40 0.6349969
654.50 0.6347925
654.60 0.6345882
654.70 0.634384
654.80 0.6341798
654.90 0.6339758
655.00 0.6337719
655.10 0.633568
655.20 0.6333643
655.30 0.6331606
655.40 0.6329571
655.50 0.6327536
655.60 0.6325503
655.70 0.632347
655.80 0.6321541
655.90 0.6319614
656.00 0.6317687
656.10 0.6315762
656.20 0.6313837
656.30 0.6311913
656.40 0.630999
656.50 0.6308068
656.60 0.6306147
656.70 0.6304226
656.80 0.6302307
656.90 0.6300388
657.00 0.629847
657.10 0.6296553
657.20 0.6294637
657.30 0.6292722
657.40 0.6290808
657.50 0.6288894
657.60 0.6286982
657.70 0.628507
657.80 0.6283159
657.90 0.628125
658.00 0.627934
658.10 0.6277432
658.20 0.6275525
658.30 0.6273619
658.40 0.6271713
658.50 0.6269808
658.60 0.6267904
658.70 0.6266001
658.80 0.6264099
658.90 0.6262198
659.00 0.6260298
659.10 0.6258398
659.20 0.62565
659.30 0.6254311
659.40 0.6252124
659.50 0.6249938
659.60 0.6247753
659.70 0.6245569
659.80 0.6243386
659.90 0.6241203
660.00 0.6239022
660.10 0.6236842
660.20 0.6234664
660.30 0.6232486
660.40 0.6230555
660.50 0.6228668
660.60 0.6226783
660.70 0.6224898
660.80 0.6223014
660.90 0.6221131
661.00 0.6219249
661.10 0.6217368
661.20 0.6215487
661.30 0.6213607
661.40 0.6211729
661.50 0.6209851
661.60 0.6207974
661.70 0.6206097
661.80 0.6204222
661.90 0.6202347
662.00 0.6200474
662.10 0.6198601
662.20 0.6196729
662.30 0.6194858
662.40 0.6192988
662.50 0.6191118
662.60 0.6189249
662.70 0.6187382
662.80 0.6185515
662.90 0.6183649
663.00 0.6181784
663.10 0.6179919
663.20 0.6178056
663.30 0.6176193
663.40 0.6174331
663.50 0.6170871
663.60 0.6167413
663.70 0.6165554
663.80 0.6163697
663.90 0.616184
664.00 0.6159984
664.10 0.6158129
664.20 0.6156275
664.30 0.6154422
664.40 0.6152569
664.50 0.6150718
664.60 0.6148867
664.70 0.6147017
664.80 0.6145168
664.90 0.614332
665.00 0.6141472
665.10 0.6139625
665.20 0.613778
665.30 0.6135935
665.40 0.613409
665.50 0.6132247
665.60 0.6130405
665.70 0.6128563
665.80 0.6126722
665.90 0.6124882
666.00 0.6123043
666.10 0.6121205
666.20 0.6119367
666.30 0.6117531
666.40 0.6115695
666.50 0.6113411
666.60 0.6111048
666.70 0.6108687
666.80 0.6106328
666.90 0.6103969
667.00 0.6101611
667.10 0.6099703
667.20 0.6097875
667.30 0.6096047
667.40 0.6094221
667.50 0.6092395
667.60 0.609057
667.70 0.6088745
667.80 0.6086922
667.90 0.60851
668.00 0.6083278
668.10 0.6081457
668.20 0.6079637
668.30 0.6077817
668.40 0.6075999
668.50 0.6074181
668.60 0.6072364
668.70 0.6070548
668.80 0.6068733
668.90 0.6066919
669.00 0.6065105
669.10 0.6063292
669.20 0.606148
669.30 0.6059402
669.40 0.6057278
669.50 0.6055154
669.60 0.6053032
669.70 0.605091
669.80 0.604879
669.90 0.604667
670.00 0.6044552
670.10 0.6042434
670.20 0.6040318
670.30 0.6038469
670.40 0.6036667
670.50 0.6034867
670.60 0.6033067
670.70 0.6031268
670.80 0.602947
670.90 0.6027673
671.00 0.6025876
671.10 0.6024081
671.20 0.6022286
671.30 0.6020492
671.40 0.6018698
671.50 0.6016906
671.60 0.6015114
671.70 0.6013323
671.80 0.6011533
671.90 0.6009744
672.00 0.6007956
672.10 0.6006168
672.20 0.6004381
672.30 0.6002595
672.40 0.6000485
672.50 0.5998352
672.60 0.599622
672.70 0.5994089
672.80 0.5991959
672.90 0.598983
673.00 0.5987702
673.10 0.5985575
673.20 0.5983449
673.30 0.5981672
673.40 0.5979896
673.50 0.597812
673.60 0.5976345
673.70 0.5974571
673.80 0.5972798
673.90 0.5971025
674.00 0.5969254
674.10 0.5967483
674.20 0.5965713
674.30 0.5963943
674.40 0.5962175
674.50 0.5960407
674.60 0.595864
674.70 0.5956874
674.80 0.5955109
674.90 0.5953344
675.00 0.595158
675.10 0.5949817
675.20 0.5948055
675.30 0.5946293
675.40 0.5944428
675.50 0.5942544
675.60 0.5940662
675.70 0.593878
675.80 0.59369
675.90 0.593502
676.00 0.5933141
676.10 0.5931263
676.20 0.5929385
676.30 0.5927509
676.40 0.5925633
676.50 0.5923758
676.60 0.5921884
676.70 0.5920011
676.80 0.5918139
676.90 0.5916268
677.00 0.5914397
677.10 0.5912527
677.20 0.5910659
677.30 0.5908791
677.40 0.5906923
677.50 0.5905057
677.60 0.5903192
677.70 0.5901327
677.80 0.5899463
677.90 0.589749
678.00 0.5895499
678.10 0.5893508
678.20 0.5891518
678.30 0.5889529
678.40 0.5887541
678.50 0.5885554
678.60 0.5883568
678.70 0.5881583
678.80 0.5879599
678.90 0.5877615
679.00 0.5875633
679.10 0.5873733
679.20 0.5871868
679.30 0.5870005
679.40 0.5868142
679.50 0.586628
679.60 0.5864419
679.70 0.5862559
679.80 0.58607
679.90 0.5858842
680.00 0.5856984
680.10 0.5855127
680.20 0.5853271
680.30 0.5851416
680.40 0.5849562
680.50 0.5847709
680.60 0.5845856
680.70 0.5844004
680.80 0.5842153
680.90 0.5840303
681.00 0.5838454
681.10 0.5836606
681.20 0.5834758
681.30 0.5832911
681.40 0.5831066
681.50 0.5829221
681.60 0.5827376
681.70 0.5825533
681.80 0.582369
681.90 0.5821849
682.00 0.5820008
682.10 0.5818168
682.20 0.5816328
682.30 0.581449
682.40 0.5812652
682.50 0.5810816
682.60 0.580898
682.70 0.5807145
682.80 0.580531
682.90 0.5803477
683.00 0.5801644
683.10 0.5799812
683.20 0.5797981
683.30 0.5796151
683.40 0.5794322
683.50 0.5792493
683.60 0.5790666
683.70 0.5788839
683.80 0.5787013
683.90 0.5785188
684.00 0.5783363
684.10 0.578154
684.20 0.5779717
684.30 0.5777895
684.40 0.5776074
684.50 0.5774253
684.60 0.5772434
684.70 0.5770615
684.80 0.5768797
684.90 0.576698
685.00 0.5765164
685.10 0.5763349
685.20 0.5761534
685.30 0.575972
685.40 0.5757907
685.50 0.5756095
685.60 0.5754284
685.70 0.5752473
685.80 0.5750663
685.90 0.5748855
686.00 0.5747049
686.10 0.5745243
686.20 0.5743438
686.30 0.5741633
686.40 0.573983
686.50 0.5738027
686.60 0.5736225
686.70 0.5734424
686.80 0.5732624
686.90 0.5730824
687.00 0.5729025
687.10 0.5727227
687.20 0.572543
687.30 0.5723634
687.40 0.5721838
687.50 0.5720044
687.60 0.571825
687.70 0.5716457
687.80 0.5714664
687.90 0.5712873
688.00 0.5711082
688.10 0.5709292
688.20 0.5707503
688.30 0.5705715
688.40 0.5703927
688.50 0.5702141
688.60 0.5700355
688.70 0.569857
688.80 0.5696785
688.90 0.5695002
689.00 0.5693219
689.10 0.5691437
689.20 0.5689656
689.30 0.5687876
689.40 0.5686096
689.50 0.5684318
689.60 0.568254
689.70 0.5680762
689.80 0.5678986
689.90 0.567721
690.00 0.5675436
690.10 0.5673662
690.20 0.5671888
690.30 0.5670116
690.40 0.5668344
690.50 0.5666574
690.60 0.5664803
690.70 0.5663034
690.80 0.5661266
690.90 0.5659498
691.00 0.5657731
691.10 0.5655965
691.20 0.56542
691.30 0.5652435
691.40 0.5650671
691.50 0.5648908
691.60 0.5647146
691.70 0.5645385
691.80 0.5643624
691.90 0.5641864
692.00 0.5640105
692.10 0.5638347
692.20 0.5636589
692.30 0.5634833
692.40 0.5633077
692.50 0.5631321
692.60 0.5629567
692.70 0.5627808
692.80 0.5626031
692.90 0.5624254
693.00 0.5622479
693.10 0.5620704
693.20 0.561893
693.30 0.5617156
693.40 0.5615384
693.50 0.5613612
693.60 0.5611841
693.70 0.5610071
693.80 0.5608301
693.90 0.5606533
694.00 0.5604765
694.10 0.5602998
694.20 0.5601231
694.30 0.5599466
694.40 0.5597701
694.50 0.5595937
694.60 0.5594174
694.70 0.5592412
694.80 0.559065
694.90 0.5588889
695.00 0.5587129
695.10 0.558537
695.20 0.5583612
695.30 0.5581854
695.40 0.5580097
695.50 0.5578341
695.60 0.5576586
695.70 0.5574831
695.80 0.5573077
695.90 0.5571324
696.00 0.5569572
696.10 0.5567821
696.20 0.556607
696.30 0.556432
696.40 0.5562571
696.50 0.5560823
696.60 0.555901
696.70 0.5557182
696.80 0.5555355
696.90 0.5553529
697.00 0.5551703
697.10 0.5549879
697.20 0.5548055
697.30 0.5546233
697.40 0.5544411
697.50 0.5542589
697.60 0.5540769
697.70 0.5538949
697.80 0.5537131
697.90 0.5535313
698.00 0.5533496
698.10 0.5531679
698.20 0.5529864
698.30 0.5528049
698.40 0.5526235
698.50 0.5524422
698.60 0.552261
698.70 0.5520798
698.80 0.5518988
698.90 0.5517178
699.00 0.5515369
699.10 0.5513747
699.20 0.551217
699.30 0.5510594
699.40 0.5509018
699.50 0.5507443
699.60 0.5505869
699.70 0.5504102
699.80 0.5502326
699.90 0.550055
700.00 0.5498776
700.10 0.5497002
700.20 0.5495229
700.30 0.5493456
700.40 0.5491685
700.50 0.5489914
700.60 0.5488144
700.70 0.5486375
700.80 0.5484607
700.90 0.5482839
701.00 0.5481072
701.10 0.5479316
701.20 0.5477562
701.30 0.5475809
701.40 0.5474057
701.50 0.5472306
701.60 0.5470555
701.70 0.5468806
701.80 0.5467057
701.90 0.5465308
702.00 0.5463561
702.10 0.5461814
702.20 0.5460068
702.30 0.5458323
702.40 0.5456579
702.50 0.5454835
702.60 0.5453102
702.70 0.5451372
702.80 0.5449643
702.90 0.5447914
703.00 0.5446186
703.10 0.5444459
703.20 0.5442733
703.30 0.5441007
703.40 0.5439283
703.50 0.5437558
703.60 0.5435835
703.70 0.5434113
703.80 0.5432391
703.90 0.543067
704.00 0.542895
704.10 0.542723
704.20 0.5425425
704.30 0.5423601
704.40 0.5421777
704.50 0.5419955
704.60 0.5418133
704.70 0.5416311
704.80 0.5414491
704.90 0.5412672
705.00 0.5410853
705.10 0.5409035
705.20 0.5407447
705.30 0.5405914
705.40 0.5404382
705.50 0.540285
705.60 0.5401318
705.70 0.5399788
705.80 0.5398258
705.90 0.5396728
706.00 0.53952
706.10 0.5393671
706.20 0.5392144
706.30 0.5390617
706.40 0.5389091
706.50 0.5387566
706.60 0.5386041
706.70 0.5383037
706.80 0.5380175
706.90 0.5378653
707.00 0.5377131
707.10 0.5375611
707.20 0.537409
707.30 0.5372571
707.40 0.5371052
707.50 0.5369534
707.60 0.5368016
707.70 0.5366499
707.80 0.5364983
707.90 0.5363467
708.00 0.5361725
708.10 0.535993
708.20 0.5358136
708.30 0.5356342
708.40 0.5354549
708.50 0.5352757
708.60 0.5350966
708.70 0.5349176
708.80 0.5347387
708.90 0.5345598
709.00 0.5343895
709.10 0.5342213
709.20 0.5340532
709.30 0.5338851
709.40 0.5337171
709.50 0.5335492
709.60 0.5333813
709.70 0.5332136
709.80 0.5330459
709.90 0.5328782
710.00 0.5327107
710.10 0.5325432
710.20 0.5323758
710.30 0.5322085
710.40 0.5320412
710.50 0.531874
710.60 0.531706
710.70 0.5315378
710.80 0.5313696
710.90 0.5312016
711.00 0.5310336
711.10 0.5308657
711.20 0.5306979
711.30 0.5305301
711.40 0.5303624
711.50 0.5301948
711.60 0.5300273
711.70 0.5298598
711.80 0.5296924
711.90 0.5295251
712.00 0.5293578
712.10 0.529192
712.20 0.5290266
712.30 0.5288612
712.40 0.5286959
712.50 0.5285307
712.60 0.5283655
712.70 0.5282004
712.80 0.5280354
712.90 0.5278705
713.00 0.5277056
713.10 0.5275408
713.20 0.5273761
713.30 0.5272115
713.40 0.5270469
713.50 0.5268824
713.60 0.5267179
713.70 0.5265591
713.80 0.5264116
713.90 0.5262641
714.00 0.5261167
714.10 0.5259515
714.20 0.5257821
714.30 0.5256128
714.40 0.5254436
714.50 0.5252745
714.60 0.5251054
714.70 0.5249365
714.80 0.5247676
714.90 0.5245987
715.00 0.52443
715.10 0.5242613
715.20 0.5240926
715.30 0.5239241
715.40 0.5237556
715.50 0.5235872
715.60 0.5234189
715.70 0.5232507
715.80 0.5230825
715.90 0.5229144
716.00 0.5227464
716.10 0.5225784
716.20 0.5224105
716.30 0.5222427
716.40 0.522075
716.50 0.5219073
716.60 0.5217438
716.70 0.5215812
716.80 0.5214188
716.90 0.5212564
717.00 0.521094
717.10 0.5209318
717.20 0.5207696
717.30 0.5206074
717.40 0.5204454
717.50 0.5202834
717.60 0.5201215
717.70 0.5199596
717.80 0.5197979
717.90 0.5196361
718.00 0.5194745
718.10 0.5193129
718.20 0.5191482
718.30 0.5189819
718.40 0.5188156
718.50 0.5186493
718.60 0.5184832
718.70 0.5183171
718.80 0.5181511
718.90 0.5179852
719.00 0.5178193
719.10 0.5176535
719.20 0.5174878
719.30 0.5173222
719.40 0.5171566
719.50 0.5169911
719.60 0.5168256
719.70 0.5166603
719.80 0.516495
719.90 0.5163298
720.00 0.5161646
720.10 0.5159996
720.20 0.5158346
720.30 0.5156696
720.40 0.5155048
720.50 0.51534
720.60 0.5151753
720.70 0.5150248
720.80 0.5148819
720.90 0.5147106
721.00 0.5145383
721.10 0.514366
721.20 0.5141938
721.30 0.5140217
721.40 0.5138496
721.50 0.5136776
721.60 0.5135057
721.70 0.5133339
721.80 0.5131622
721.90 0.5129905
722.00 0.5128189
722.10 0.5126474
722.20 0.512476
722.30 0.5123046
722.40 0.5121333
722.50 0.5119621
722.60 0.5117909
722.70 0.5116273
722.80 0.5114678
722.90 0.5113083
723.00 0.511149
723.10 0.5109896
723.20 0.5108304
723.30 0.5106712
723.40 0.5105121
723.50 0.510353
723.60 0.5101941
723.70 0.5100352
723.80 0.5098763
723.90 0.5097176
724.00 0.5095588
724.10 0.5094002
724.20 0.5092424
724.30 0.509085
724.40 0.5089277
724.50 0.5087704
724.60 0.5086133
724.70 0.5084561
724.80 0.5082991
724.90 0.5081421
725.00 0.5079852
725.10 0.5078284
725.20 0.5076716
725.30 0.5075149
725.40 0.5073583
725.50 0.5072017
725.60 0.5070452
725.70 0.5068887
725.80 0.5067259
725.90 0.5065595
726.00 0.5063933
726.10 0.5062271
726.20 0.506061
726.30 0.505895
726.40 0.505729
726.50 0.5055631
726.60 0.5053973
726.70 0.5052315
726.80 0.5050832
726.90 0.5049442
727.00 0.5048053
727.10 0.5046665
727.20 0.5045277
727.30 0.504389
727.40 0.5042503
727.50 0.5041117
727.60 0.5039731
727.70 0.5038346
727.80 0.5036098
727.90 0.5033386
728.00 0.5031538
728.10 0.5030156
728.20 0.5028775
728.30 0.5027394
728.40 0.5026013
728.50 0.5024634
728.60 0.5023255
728.70 0.5021876
728.80 0.5020498
728.90 0.501912
729.00 0.5017457
729.10 0.5015639
729.20 0.5013822
729.30 0.5012006
729.40 0.5010191
729.50 0.5008376
729.60 0.5006677
729.70 0.5005041
729.80 0.5003405
729.90 0.500177
730.00 0.5000135
730.10 0.4998501
730.20 0.4996868
730.30 0.4995236
730.40 0.4993604
730.50 0.4991973
730.60 0.4990408
730.70 0.4988877
730.80 0.4987347
730.90 0.4985818
731.00 0.4984289
731.10 0.4982761
731.20 0.4981233
731.30 0.4979707
731.40 0.4978181
731.50 0.4976655
731.60 0.497513
731.70 0.4973606
731.80 0.4972083
731.90 0.497056
732.00 0.4969038
732.10 0.4967516
732.20 0.4965988
732.30 0.4964457
732.40 0.4962926
732.50 0.4961396
732.60 0.4959867
732.70 0.4958339
732.80 0.4956811
732.90 0.4955283
733.00 0.4953757
733.10 0.4952231
733.20 0.4950705
733.30 0.4949181
733.40 0.4947656
733.50 0.4946133
733.60 0.494461
733.70 0.4943099
733.80 0.4941594
733.90 0.494009
734.00 0.4938586
734.10 0.4937083
734.20 0.493558
734.30 0.4934079
734.40 0.4932577
734.50 0.4931077
734.60 0.4929577
734.70 0.4928078
734.80 0.4926579
734.90 0.4925081
735.00 0.4923584
735.10 0.4922087
735.20 0.4920591
735.30 0.4919047
735.40 0.4916951
735.50 0.4914855
735.60 0.491276
735.70 0.4911024
735.80 0.4909481
735.90 0.4907939
736.00 0.4906398
736.10 0.4904857
736.20 0.4903316
736.30 0.4901777
736.40 0.4900238
736.50 0.48987
736.60 0.4897162
736.70 0.4895625
736.80 0.4894089
736.90 0.4892553
737.00 0.4891018
737.10 0.4889484
737.20 0.488795
737.30 0.4886417
737.40 0.4884885
737.50 0.4883353
737.60 0.4881822
737.70 0.4880292
737.80 0.4878762
737.90 0.4877233
738.00 0.4875705
738.10 0.4874177
738.20 0.4872635
738.30 0.4871086
738.40 0.4869538
738.50 0.486799
738.60 0.4866443
738.70 0.4864897
738.80 0.4863351
738.90 0.4861806
739.00 0.4860262
739.10 0.4858718
739.20 0.4857175
739.30 0.4855633
739.40 0.4854091
739.50 0.485255
739.60 0.4851009
739.70 0.484947
739.80 0.4847931
739.90 0.4846392
740.00 0.4844854
740.10 0.4843317
740.20 0.4841781
740.30 0.4840245
740.40 0.483871
740.50 0.4837175
740.60 0.4835641
740.70 0.4834108
740.80 0.4832576
740.90 0.4831044
741.00 0.4829512
741.10 0.4827982
741.20 0.4826452
741.30 0.4824923
741.40 0.4823394
741.50 0.4821866
741.60 0.4820339
741.70 0.4818812
741.80 0.4817286
741.90 0.481576
742.00 0.4814236
742.10 0.4812712
742.20 0.4811188
742.30 0.4809665
742.40 0.4808143
742.50 0.4806621
742.60 0.4805101
742.70 0.4803569
742.80 0.4802029
742.90 0.480049
743.00 0.4798952
743.10 0.4797414
743.20 0.4795877
743.30 0.479434
743.40 0.4792804
743.50 0.4791269
743.60 0.4789734
743.70 0.478821
743.80 0.4786723
743.90 0.4785237
744.00 0.4783752
744.10 0.4782268
744.20 0.4780784
744.30 0.47793
744.40 0.4777817
744.50 0.4776335
744.60 0.4774854
744.70 0.4773373
744.80 0.4771893
744.90 0.4770413
745.00 0.4768934
745.10 0.4767456
745.20 0.4765978
745.30 0.4764501
745.40 0.4763024
745.50 0.4761549
745.60 0.4760073
745.70 0.4758599
745.80 0.4757125
745.90 0.4755651
746.00 0.4754178
746.10 0.4752706
746.20 0.4751235
746.30 0.4749764
746.40 0.4748294
746.50 0.4746824
746.60 0.4745355
746.70 0.4743886
746.80 0.4742418
746.90 0.4740951
747.00 0.4739485
747.10 0.4738019
747.20 0.4736553
747.30 0.4735088
747.40 0.4733624
747.50 0.4732161
747.60 0.4730698
747.70 0.4729235
747.80 0.4727774
747.90 0.4726313
748.00 0.4724852
748.10 0.4723392
748.20 0.4721933
748.30 0.4720474
748.40 0.4719016
748.50 0.4717559
748.60 0.4716102
748.70 0.4714646
748.80 0.471319
748.90 0.4711735
749.00 0.4710281
749.10 0.4708827
749.20 0.4707374
749.30 0.4705922
749.40 0.470447
749.50 0.4703018
749.60 0.4701568
749.70 0.4700118
749.80 0.4698668
749.90 0.4697219
750.00 0.4695771
750.10 0.4694303
750.20 0.4692785
750.30 0.4691267
750.40 0.468975
750.50 0.4688234
750.60 0.4686718
750.70 0.4685203
750.80 0.4683689
750.90 0.4682175
751.00 0.4680662
751.10 0.467915
751.20 0.4677638
751.30 0.4676127
751.40 0.4674616
751.50 0.4673106
751.60 0.4671597
751.70 0.4670088
751.80 0.466858
751.90 0.4667073
752.00 0.4665566
752.10 0.466406
752.20 0.4662555
752.30 0.466105
752.40 0.4659546
752.50 0.4658042
752.60 0.4656539
752.70 0.4655037
752.80 0.4653535
752.90 0.4652034
753.00 0.4650534
753.10 0.4649034
753.20 0.4647535
753.30 0.4646036
753.40 0.4644539
753.50 0.4643041
753.60 0.4641545
753.70 0.4640049
753.80 0.4638553
753.90 0.463711
754.00 0.4635682
754.10 0.4634255
754.20 0.4632828
754.30 0.4631402
754.40 0.4629976
754.50 0.4628551
754.60 0.4627126
754.70 0.4625703
754.80 0.4624279
754.90 0.4622857
755.00 0.4621434
755.10 0.4620013
755.20 0.4618592
755.30 0.4617172
755.40 0.4615752
755.50 0.4614333
755.60 0.4612914
755.70 0.4611496
755.80 0.4610079
755.90 0.4608662
756.00 0.4607246
756.10 0.460583
756.20 0.4604415
756.30 0.4603001
756.40 0.4601587
756.50 0.4600174
756.60 0.4598761
756.70 0.4597349
756.80 0.4595937
756.90 0.4594526
757.00 0.4593116
757.10 0.4591706
757.20 0.4590297
757.30 0.4588888
757.40 0.458748
757.50 0.4586073
757.60 0.4584648
757.70 0.4583179
757.80 0.4581711
757.90 0.4580243
758.00 0.4578776
758.10 0.4577309
758.20 0.4575844
758.30 0.4574378
758.40 0.4572913
758.50 0.4571449
758.60 0.4569986
758.70 0.4568523
758.80 0.4567061
758.90 0.4565599
759.00 0.4564138
759.10 0.4562677
759.20 0.4561218
759.30 0.4559758
759.40 0.45583
759.50 0.4556842
759.60 0.4555384
759.70 0.4553928
759.80 0.4552471
759.90 0.4551016
760.00 0.4549561
760.10 0.4548107
760.20 0.4546653
760.30 0.45452
760.40 0.4543747
760.50 0.4542295
760.60 0.4540844
760.70 0.4539393
760.80 0.4537943
760.90 0.4536494
761.00 0.4535045
761.10 0.4533597
761.20 0.4532149
761.30 0.4530702
761.40 0.4529281
761.50 0.4527899
761.60 0.4526518
761.70 0.4525137
761.80 0.4523757
761.90 0.4522378
762.00 0.4520999
762.10 0.451962
762.20 0.4518243
762.30 0.4516865
762.40 0.4515489
762.50 0.4514113
762.60 0.4512737
762.70 0.4511362
762.80 0.4509988
762.90 0.4508614
763.00 0.4507241
763.10 0.4505868
763.20 0.4504496
763.30 0.4503124
763.40 0.4501753
763.50 0.4500383
763.60 0.4499013
763.70 0.4497644
763.80 0.4496275
763.90 0.4494907
764.00 0.4493539
764.10 0.4492172
764.20 0.4490805
764.30 0.4489439
764.40 0.4488074
764.50 0.4486709
764.60 0.4485345
764.70 0.4483981
764.80 0.4482618
764.90 0.4481256
765.00 0.4479893
765.10 0.4478532
765.20 0.4477139
765.30 0.4475718
765.40 0.4474297
765.50 0.4472877
765.60 0.4471458
765.70 0.4470039
765.80 0.4468621
765.90 0.4467203
766.00 0.4465786
766.10 0.4464369
766.20 0.4462953
766.30 0.4461538
766.40 0.4460123
766.50 0.4458709
766.60 0.4457295
766.70 0.4455882
766.80 0.4454469
766.90 0.4453058
767.00 0.4451646
767.10 0.4450236
767.20 0.4448825
767.30 0.4447416
767.40 0.4446007
767.50 0.4444599
767.60 0.4443191
767.70 0.4441784
767.80 0.4440377
767.90 0.4438971
768.00 0.4437565
768.10 0.4436161
768.20 0.4434756
768.30 0.4433352
768.40 0.4431949
768.50 0.4430547
768.60 0.4429145
768.70 0.4427743
768.80 0.4426343
768.90 0.4424942
769.00 0.4423543
769.10 0.4422144
769.20 0.4420745
769.30 0.4419347
769.40 0.441795
769.50 0.4416553
769.60 0.4415157
769.70 0.4413761
769.80 0.4412366
769.90 0.4410972
770.00 0.4409578
770.10 0.4408184
770.20 0.4406792
770.30 0.4405399
770.40 0.4404008
770.50 0.4402617
770.60 0.4401226
770.70 0.4399837
770.80 0.4398447
770.90 0.4397059
771.00 0.439567
771.10 0.4394283
771.20 0.4392896
771.30 0.4391509
771.40 0.4390123
771.50 0.4388738
771.60 0.4387353
771.70 0.4385969
771.80 0.4384586
771.90 0.4383203
772.00 0.438182
772.10 0.4380438
772.20 0.4379057
772.30 0.4377676
772.40 0.4376296
772.50 0.4374916
772.60 0.4373537
772.70 0.4372159
772.80 0.4370781
772.90 0.4369406
773.00 0.4368032
773.10 0.4366658
773.20 0.4365285
773.30 0.4363912
773.40 0.436254
773.50 0.4361168
773.60 0.4359797
773.70 0.4358427
773.80 0.4357057
773.90 0.4355688
774.00 0.4354319
774.10 0.4352951
774.20 0.4351583
774.30 0.4350216
774.40 0.434885
774.50 0.4347484
774.60 0.4346119
774.70 0.4344754
774.80 0.434339
774.90 0.4342026
775.00 0.4340663
775.10 0.43393
775.20 0.4337938
775.30 0.4336577
775.40 0.4335216
775.50 0.4333856
775.60 0.4332496
775.70 0.4331137
775.80 0.4329778
775.90 0.432842
776.00 0.4327062
776.10 0.4325705
776.20 0.4324349
776.30 0.4322993
776.40 0.4321638
776.50 0.4320283
776.60 0.4318929
776.70 0.4317575
776.80 0.4316222
776.90 0.431487
777.00 0.4313518
777.10 0.4312166
777.20 0.4310815
777.30 0.4309465
777.40 0.4308115
777.50 0.4306766
777.60 0.4305417
777.70 0.4304069
777.80 0.4302722
777.90 0.4301375
778.00 0.4300028
778.10 0.4298682
778.20 0.4297337
778.30 0.4295992
778.40 0.4294648
778.50 0.4293304
778.60 0.4291961
778.70 0.4290618
778.80 0.4289276
778.90 0.4287934
779.00 0.4286593
779.10 0.4285253
779.20 0.4283913
779.30 0.4282574
779.40 0.4281235
779.50 0.4279897
779.60 0.4278559
779.70 0.4277222
779.80 0.4275885
779.90 0.4274549
780.00 0.4273214
780.10 0.4271879
780.20 0.4270544
780.30 0.426921
780.40 0.4267877
780.50 0.4266544
780.60 0.4265219
780.70 0.4263898
780.80 0.4262578
780.90 0.4261257
781.00 0.4259938
781.10 0.4258619
781.20 0.42573
781.30 0.4255982
781.40 0.4254665
781.50 0.4253348
781.60 0.4252032
781.70 0.4250716
781.80 0.42494
781.90 0.4248086
782.00 0.4246771
782.10 0.4245458
782.20 0.4244145
782.30 0.4242832
782.40 0.424152
782.50 0.4240208
782.60 0.4238897
782.70 0.4237587
782.80 0.4236277
782.90 0.4234967
783.00 0.4233658
783.10 0.423235
783.20 0.4231042
783.30 0.4229735
783.40 0.4228428
783.50 0.4227122
783.60 0.4225816
783.70 0.4224511
783.80 0.4223206
783.90 0.4221902
784.00 0.4220598
784.10 0.4219295
784.20 0.4217993
784.30 0.4216691
784.40 0.4215389
784.50 0.4214088
784.60 0.4212783
784.70 0.4211466
784.80 0.421015
784.90 0.4208834
785.00 0.4207519
785.10 0.4206204
785.20 0.420489
785.30 0.4203577
785.40 0.4202264
785.50 0.4200951
785.60 0.4199639
785.70 0.4198328
785.80 0.4197017
785.90 0.4195707
786.00 0.4194397
786.10 0.4193088
786.20 0.4191779
786.30 0.4190471
786.40 0.4189163
786.50 0.4187856
786.60 0.4186549
786.70 0.4185243
786.80 0.4183938
786.90 0.4182633
787.00 0.4181328
787.10 0.4180024
787.20 0.4178721
787.30 0.4177418
787.40 0.4176116
787.50 0.4174814
787.60 0.4173512
787.70 0.4172212
787.80 0.4170911
787.90 0.4169612
788.00 0.4168312
788.10 0.4167014
788.20 0.4165715
788.30 0.4164418
788.40 0.4163089
788.50 0.4161746
788.60 0.4160404
788.70 0.4159062
788.80 0.415772
788.90 0.4156379
789.00 0.4155039
789.10 0.4153699
789.20 0.415236
789.30 0.4151021
789.40 0.4149683
789.50 0.4148345
789.60 0.4147008
789.70 0.4145672
789.80 0.4144335
789.90 0.4143
790.00 0.4141665
790.10 0.4140331
790.20 0.4138997
790.30 0.4137664
790.40 0.4136331
790.50 0.4134999
790.60 0.4133667
790.70 0.4132336
790.80 0.4131005
790.90 0.4129675
791.00 0.4128346
791.10 0.4127017
791.20 0.4125688
791.30 0.412436
791.40 0.4123033
791.50 0.4121706
791.60 0.412038
791.70 0.4119054
791.80 0.4117729
791.90 0.4116404
792.00 0.411508
792.10 0.4113756
792.20 0.4112433
792.30 0.4111125
792.40 0.410986
792.50 0.4108595
792.60 0.4107331
792.70 0.4106067
792.80 0.4104804
792.90 0.4103542
793.00 0.410228
793.10 0.4101018
793.20 0.4099757
793.30 0.4098496
793.40 0.4097236
793.50 0.4095977
793.60 0.4094717
793.70 0.4093459
793.80 0.4092201
793.90 0.4090943
794.00 0.4089686
794.10 0.408843
794.20 0.4087174
794.30 0.4085918
794.40 0.4084663
794.50 0.4083408
794.60 0.4082154
794.70 0.4080901
794.80 0.4079648
794.90 0.4078395
795.00 0.4077143
795.10 0.4075892
795.20 0.4074641
795.30 0.407339
795.40 0.407214
795.50 0.407089
795.60 0.4069641
795.70 0.4068393
795.80 0.4067145
795.90 0.4065897
796.00 0.406465
796.10 0.4063404
796.20 0.4062158
796.30 0.406089
796.40 0.405962
796.50 0.405835
796.60 0.405708
796.70 0.4055811
796.80 0.4054542
796.90 0.4053274
797.00 0.4052006
797.10 0.4050739
797.20 0.4049473
797.30 0.4048207
797.40 0.4046941
797.50 0.4045676
797.60 0.4044411
797.70 0.4043147
797.80 0.4041884
797.90 0.4040621
798.00 0.4039358
798.10 0.4038096
798.20 0.4036835
798.30 0.4035574
798.40 0.4034313
798.50 0.4033053
798.60 0.4031794
798.70 0.4030535
798.80 0.4029276
798.90 0.4028018
799.00 0.4026761
799.10 0.4025504
799.20 0.4024247
799.30 0.4022991
799.40 0.4021736
799.50 0.4020481
799.60 0.4019226
799.70 0.4017972
799.80 0.4016719
799.90 0.4015466
800.00 0.4014213
800.10 0.4012961
800.20 0.401171
800.30 0.4010459
800.40 0.4009208
800.50 0.4007958
800.60 0.4006709
800.70 0.400546
800.80 0.4004211
800.90 0.4002963
801.00 0.4001716
801.10 0.4000469
801.20 0.3999223
801.30 0.3997977
801.40 0.3996731
801.50 0.3995486
801.60 0.3994242
801.70 0.3992998
801.80 0.3991754
801.90 0.3990511
802.00 0.3989269
802.10 0.3988027
802.20 0.3986785
802.30 0.3985544
802.40 0.3984303
802.50 0.3983063
802.60 0.3981824
802.70 0.3980585
802.80 0.3979346
802.90 0.3978108
803.00 0.3976871
803.10 0.3975634
803.20 0.3974397
803.30 0.3973161
803.40 0.3971925
803.50 0.397069
803.60 0.3969456
803.70 0.3968222
803.80 0.3966988
803.90 0.3965755
804.00 0.3964522
804.10 0.396329
804.20 0.3962065
804.30 0.3960863
804.40 0.3959662
804.50 0.3958461
804.60 0.3957261
804.70 0.3956061
804.80 0.3954862
804.90 0.3953663
805.00 0.3952465
805.10 0.3951267
805.20 0.3950069
805.30 0.3948873
805.40 0.3947676
805.50 0.394648
805.60 0.3945285
805.70 0.394409
805.80 0.3942895
805.90 0.3941701
806.00 0.3940507
806.10 0.3939314
806.20 0.3938121
806.30 0.3936929
806.40 0.3935737
806.50 0.3934546
806.60 0.3933355
806.70 0.3932165
806.80 0.3930975
806.90 0.3929786
807.00 0.3928597
807.10 0.3927408
807.20 0.392622
807.30 0.3925033
807.40 0.3923846
807.50 0.3922659
807.60 0.3921473
807.70 0.3920288
807.80 0.3919102
807.90 0.3917918
808.00 0.3916733
808.10 0.391555
808.20 0.3914366
808.30 0.3913129
808.40 0.3911893
808.50 0.3910658
808.60 0.3909423
808.70 0.3908188
808.80 0.3906954
808.90 0.3905721
809.00 0.3904488
809.10 0.3903255
809.20 0.3902023
809.30 0.3900792
809.40 0.3899561
809.50 0.389833
809.60 0.38971
809.70 0.3895871
809.80 0.3894641
809.90 0.3893413
810.00 0.3892185
810.10 0.3890957
810.20 0.388973
810.30 0.3888503
810.40 0.3887277
810.50 0.3886051
810.60 0.3884826
810.70 0.3883602
810.80 0.3882377
810.90 0.3881154
811.00 0.387993
811.10 0.3878708
811.20 0.3877485
811.30 0.3876264
811.40 0.3875042
811.50 0.3873821
811.60 0.3872601
811.70 0.3871381
811.80 0.3870162
811.90 0.3868943
812.00 0.3867725
812.10 0.3866507
812.20 0.3865289
812.30 0.386409
812.40 0.3862896
812.50 0.3861702
812.60 0.3860508
812.70 0.3859315
812.80 0.3858123
812.90 0.3856931
813.00 0.385574
813.10 0.3854548
813.20 0.3853358
813.30 0.3852168
813.40 0.3850978
813.50 0.3849789
813.60 0.38486
813.70 0.3847412
813.80 0.3846224
813.90 0.3845037
814.00 0.384385
814.10 0.3842664
814.20 0.3841478
814.30 0.3840293
814.40 0.3839108
814.50 0.3837923
814.60 0.3836739
814.70 0.3835556
814.80 0.3834372
814.90 0.383319
815.00 0.3832008
815.10 0.3830826
815.20 0.3829645
815.30 0.3828464
815.40 0.3827284
815.50 0.3826104
815.60 0.3824924
815.70 0.3823746
815.80 0.3822567
815.90 0.3821389
816.00 0.3820212
816.10 0.3819035
816.20 0.3817858
816.30 0.3816682
816.40 0.3815506
816.50 0.3814331
816.60 0.3813156
816.70 0.3811982
816.80 0.3810808
816.90 0.3809635
817.00 0.3808462
817.10 0.3807289
817.20 0.3806117
817.30 0.3804946
817.40 0.3803775
817.50 0.3802604
817.60 0.3801434
817.70 0.3800264
817.80 0.3799095
817.90 0.3797926
818.00 0.3796758
818.10 0.379559
818.20 0.3794423
818.30 0.3793256
818.40 0.3792089
818.50 0.3790923
818.60 0.3789758
818.70 0.3788592
818.80 0.3787428
818.90 0.3786264
819.00 0.37851
819.10 0.3783937
819.20 0.3782774
819.30 0.3781607
819.40 0.3780437
819.50 0.3779269
819.60 0.37781
819.70 0.3776932
819.80 0.3775765
819.90 0.3774597
820.00 0.3773431
820.10 0.3772287
820.20 0.3771367
820.30 0.3770448
820.40 0.3769384
820.50 0.3768218
820.60 0.3767051
820.70 0.3765885
820.80 0.3764719
820.90 0.3763554
821.00 0.376239
821.10 0.3761225
821.20 0.3760062
821.30 0.3758898
821.40 0.3757735
821.50 0.3756573
821.60 0.3755411
821.70 0.375425
821.80 0.3753089
821.90 0.3751928
822.00 0.3750768
822.10 0.3749608
822.20 0.3748449
822.30 0.374729
822.40 0.3746132
822.50 0.3744974
822.60 0.3743817
822.70 0.374266
822.80 0.3741503
822.90 0.3740347
823.00 0.3739191
823.10 0.3738036
823.20 0.3736882
823.30 0.3735727
823.40 0.3734574
823.50 0.373342
823.60 0.3732267
823.70 0.3731115
823.80 0.3729963
823.90 0.3728811
824.00 0.372766
824.10 0.372651
824.20 0.3725359
824.30 0.372421
824.40 0.372306
824.50 0.3721911
824.60 0.3720763
824.70 0.3719615
824.80 0.3718468
824.90 0.371732
825.00 0.3716174
825.10 0.3715028
825.20 0.3713882
825.30 0.3712737
825.40 0.3711592
825.50 0.3710447
825.60 0.3709303
825.70 0.370816
825.80 0.3707017
825.90 0.3705874
826.00 0.3704732
826.10 0.370359
826.20 0.3702449
826.30 0.3701294
826.40 0.370013
826.50 0.3698967
826.60 0.3697804
826.70 0.3696641
826.80 0.3695479
826.90 0.3694318
827.00 0.3693156
827.10 0.3691996
827.20 0.3690835
827.30 0.3689676
827.40 0.3688516
827.50 0.3687357
827.60 0.3686199
827.70 0.3685041
827.80 0.3683883
827.90 0.3682726
828.00 0.3681569
828.10 0.3680413
828.20 0.3679257
828.30 0.3678102
828.40 0.3676947
828.50 0.3675793
828.60 0.3674649
828.70 0.3673515
828.80 0.3672381
828.90 0.3671248
829.00 0.3670115
829.10 0.3668982
829.20 0.366785
829.30 0.3666719
829.40 0.3665588
829.50 0.3664457
829.60 0.3663327
829.70 0.3662197
829.80 0.3661067
829.90 0.3659938
830.00 0.365881
830.10 0.3657682
830.20 0.3656554
830.30 0.3655427
830.40 0.36543
830.50 0.3653174
830.60 0.3652048
830.70 0.3650922
830.80 0.3649797
830.90 0.3648673
831.00 0.3647548
831.10 0.3646425
831.20 0.3645301
831.30 0.3644179
831.40 0.3643056
831.50 0.3641934
831.60 0.3640813
831.70 0.3639691
831.80 0.3638571
831.90 0.363745
832.00 0.3636331
832.10 0.3635211
832.20 0.3634092
832.30 0.3632974
832.40 0.3631856
832.50 0.3630738
832.60 0.3629621
832.70 0.3628504
832.80 0.3627388
832.90 0.3626272
833.00 0.3625156
833.10 0.3624041
833.20 0.3622926
833.30 0.3621812
833.40 0.3620698
833.50 0.3619585
833.60 0.3618472
833.70 0.361736
833.80 0.3616248
833.90 0.3615136
834.00 0.3614025
834.10 0.3612914
834.20 0.3611804
834.30 0.3610694
834.40 0.3609584
834.50 0.3608475
834.60 0.3607366
834.70 0.3606258
834.80 0.360515
834.90 0.3604043
835.00 0.3602936
835.10 0.360183
835.20 0.3600724
835.30 0.3599618
835.40 0.3598513
835.50 0.3597408
835.60 0.3596304
835.70 0.35952
835.80 0.3594096
835.90 0.3592993
836.00 0.359189
836.10 0.3590788
836.20 0.3589686
836.30 0.3588585
836.40 0.3587484
836.50 0.3586383
836.60 0.3585283
836.70 0.3584184
836.80 0.3583084
836.90 0.3581987
837.00 0.3580891
837.10 0.3579795
837.20 0.35787
837.30 0.3577605
837.40 0.3576511
837.50 0.3575417
837.60 0.3574324
837.70 0.3573231
837.80 0.3572138
837.90 0.3571046
838.00 0.3569954
838.10 0.3568863
838.20 0.3567772
838.30 0.3566681
838.40 0.3565591
838.50 0.3564501
838.60 0.3563412
838.70 0.3562323
838.80 0.3561234
838.90 0.3560146
839.00 0.3559059
839.10 0.3557972
839.20 0.3556885
839.30 0.3555798
839.40 0.3554712
839.50 0.3553627
839.60 0.3552542
839.70 0.3551457
839.80 0.3550373
839.90 0.3549289
840.00 0.3548205
840.10 0.3547122
840.20 0.354604
840.30 0.3544957
840.40 0.3543876
840.50 0.3542794
840.60 0.3541713
840.70 0.3540633
840.80 0.3539552
840.90 0.3538473
841.00 0.3537393
841.10 0.3536315
841.20 0.3535236
841.30 0.3534158
841.40 0.353308
841.50 0.3532003
841.60 0.3530926
841.70 0.352985
841.80 0.3528774
841.90 0.3527699
842.00 0.3526623
842.10 0.3525549
842.20 0.3524474
842.30 0.35234
842.40 0.3522327
842.50 0.3521254
842.60 0.3520181
842.70 0.3519109
842.80 0.3518037
842.90 0.3516966
843.00 0.3515894
843.10 0.3514824
843.20 0.3513754
843.30 0.3512684
843.40 0.3511614
843.50 0.3510545
843.60 0.3509477
843.70 0.3508409
843.80 0.3507341
843.90 0.3506273
844.00 0.3505206
844.10 0.350414
844.20 0.3503074
844.30 0.3502008
844.40 0.3500943
844.50 0.3499878
844.60 0.3498813
844.70 0.3497749
844.80 0.3496685
844.90 0.3495622
845.00 0.3494559
845.10 0.3493497
845.20 0.3492435
845.30 0.3491352
845.40 0.349027
845.50 0.3489188
845.60 0.3488106
845.70 0.3487025
845.80 0.3485945
845.90 0.3484864
846.00 0.3483784
846.10 0.3482705
846.20 0.3481626
846.30 0.3480548
846.40 0.3479469
846.50 0.3478392
846.60 0.3477314
846.70 0.3476237
846.80 0.3475161
846.90 0.3474085
847.00 0.3473009
847.10 0.3471934
847.20 0.3470859
847.30 0.3469784
847.40 0.346871
847.50 0.3467637
847.60 0.3466563
847.70 0.3465491
847.80 0.3464418
847.90 0.3463346
848.00 0.3462275
848.10 0.3461203
848.20 0.3460133
848.30 0.3459062
848.40 0.3457992
848.50 0.3456923
848.60 0.3455854
848.70 0.3454785
848.80 0.3453717
848.90 0.3452649
849.00 0.3451581
849.10 0.3450514
849.20 0.3449447
849.30 0.3448381
849.40 0.3447315
849.50 0.344625
849.60 0.3445185
849.70 0.344412
849.80 0.3443056
849.90 0.3441992
850.00 0.3440928
850.10 0.3439865
850.20 0.3438803
850.30 0.343774
850.40 0.3436679
850.50 0.3435617
850.60 0.3434556
850.70 0.3433496
850.80 0.3432435
850.90 0.3431376
851.00 0.3430316
851.10 0.3429257
851.20 0.3428199
851.30 0.342714
851.40 0.3426083
851.50 0.3425025
851.60 0.3423968
851.70 0.3422912
851.80 0.3421855
851.90 0.34208
852.00 0.3419744
852.10 0.3418689
852.20 0.3417635
852.30 0.341658
852.40 0.3415527
852.50 0.3414473
852.60 0.341342
852.70 0.3412368
852.80 0.3411316
852.90 0.3410264
853.00 0.3409212
853.10 0.3408161
853.20 0.3407111
853.30 0.3406061
853.40 0.3405011
853.50 0.3403961
853.60 0.3402912
853.70 0.3401876
853.80 0.3400853
853.90 0.339983
854.00 0.3398808
854.10 0.3397786
854.20 0.3396764
854.30 0.3395743
854.40 0.3394722
854.50 0.3393702
854.60 0.3392682
854.70 0.3391662
854.80 0.3390643
854.90 0.3389624
855.00 0.3388606
855.10 0.3387588
855.20 0.338657
855.30 0.3385553
855.40 0.3384536
855.50 0.3383519
855.60 0.3382503
855.70 0.3381487
855.80 0.3380472
855.90 0.3379457
856.00 0.3378442
856.10 0.3377428
856.20 0.3376414
856.30 0.33754
856.40 0.3374387
856.50 0.3373374
856.60 0.3372362
856.70 0.337135
856.80 0.3370339
856.90 0.3369327
857.00 0.3368316
857.10 0.3367306
857.20 0.3366296
857.30 0.3365286
857.40 0.3364277
857.50 0.3363268
857.60 0.3362259
857.70 0.3361251
857.80 0.3360243
857.90 0.3359236
858.00 0.3358229
858.10 0.3357222
858.20 0.3356216
858.30 0.335521
858.40 0.3354205
858.50 0.3353199
858.60 0.3352195
858.70 0.335119
858.80 0.3350186
858.90 0.3349183
859.00 0.3348179
859.10 0.3347176
859.20 0.3346174
859.30 0.3345172
859.40 0.334417
859.50 0.3343169
859.60 0.3342167
859.70 0.3341167
859.80 0.3340167
859.90 0.3339167
860.00 0.3338167
860.10 0.3337168
860.20 0.3336169
860.30 0.3335171
860.40 0.3334173
860.50 0.3333175
860.60 0.3332178
860.70 0.3331181
860.80 0.3330184
860.90 0.3329188
861.00 0.3328193
861.10 0.3327197
861.20 0.3326202
861.30 0.3325207
861.40 0.3324213
861.50 0.3323219
861.60 0.3322226
861.70 0.3321232
861.80 0.332024
861.90 0.3319247
862.00 0.3318255
862.10 0.3317263
862.20 0.331627
862.30 0.3315259
862.40 0.3314249
862.50 0.3313239
862.60 0.3312229
862.70 0.331122
862.80 0.3310211
862.90 0.3309203
863.00 0.3308195
863.10 0.3307187
863.20 0.330618
863.30 0.3305173
863.40 0.3304166
863.50 0.330316
863.60 0.3302154
863.70 0.3301149
863.80 0.3300144
863.90 0.3299139
864.00 0.3298135
864.10 0.3297131
864.20 0.3296128
864.30 0.3295125
864.40 0.3294122
864.50 0.3293119
864.60 0.3292117
864.70 0.3291116
864.80 0.3290115
864.90 0.3289114
865.00 0.3288113
865.10 0.3287113
865.20 0.3286113
865.30 0.3285114
865.40 0.3284115
865.50 0.3283116
865.60 0.3282118
865.70 0.328112
865.80 0.3280122
865.90 0.3279125
866.00 0.3278129
866.10 0.3277132
866.20 0.3276136
866.30 0.327514
866.40 0.3274145
866.50 0.327315
866.60 0.3272156
866.70 0.3271162
866.80 0.3270168
866.90 0.3269174
867.00 0.3268181
867.10 0.3267189
867.20 0.3266196
867.30 0.3265204
867.40 0.3264213
867.50 0.3263222
867.60 0.3262231
867.70 0.326124
867.80 0.326025
867.90 0.325926
868.00 0.3258271
868.10 0.3257282
868.20 0.3256294
868.30 0.3255305
868.40 0.3254317
868.50 0.325333
868.60 0.3252343
868.70 0.3251356
868.80 0.325037
868.90 0.3249384
869.00 0.3248398
869.10 0.3247413
869.20 0.3246428
869.30 0.3245443
869.40 0.3244459
869.50 0.3243475
869.60 0.3242492
869.70 0.3241509
869.80 0.3240526
869.90 0.3239543
870.00 0.3238561
870.10 0.323758
870.20 0.3236599
870.30 0.3235618
870.40 0.3234637
870.50 0.3233657
870.60 0.3232677
870.70 0.3231698
870.80 0.3230719
870.90 0.3229723
871.00 0.3228726
871.10 0.3227729
871.20 0.3226732
871.30 0.3225736
871.40 0.322474
871.50 0.3223745
871.60 0.3222749
871.70 0.3221755
871.80 0.322076
871.90 0.3219766
872.00 0.3218773
872.10 0.321778
872.20 0.3216787
872.30 0.3215794
872.40 0.3214802
872.50 0.321381
872.60 0.3212819
872.70 0.3211828
872.80 0.3210837
872.90 0.3209847
873.00 0.3208857
873.10 0.3207868
873.20 0.3206879
873.30 0.320589
873.40 0.3204901
873.50 0.3203913
873.60 0.3202926
873.70 0.3201938
873.80 0.3200951
873.90 0.3199965
874.00 0.3198979
874.10 0.3197993
874.20 0.3197007
874.30 0.3196022
874.40 0.3195037
874.50 0.3194053
874.60 0.3193069
874.70 0.3192085
874.80 0.3191102
874.90 0.3190119
875.00 0.3189137
875.10 0.3188154
875.20 0.3187188
875.30 0.3186249
875.40 0.318531
875.50 0.3184371
875.60 0.3183433
875.70 0.3182495
875.80 0.3181558
875.90 0.318062
876.00 0.3179684
876.10 0.3178747
876.20 0.3177811
876.30 0.3176875
876.40 0.317594
876.50 0.3175005
876.60 0.317407
876.70 0.3173135
876.80 0.3172201
876.90 0.3171268
877.00 0.3170334
877.10 0.3169401
877.20 0.3168469
877.30 0.3167536
877.40 0.3166604
877.50 0.3165673
877.60 0.3164741
877.70 0.316381
877.80 0.316288
877.90 0.3161949
878.00 0.3161019
878.10 0.316009
878.20 0.315916
878.30 0.3158232
878.40 0.3157303
878.50 0.3156375
878.60 0.3155447
878.70 0.3154519
878.80 0.3153592
878.90 0.3152665
879.00 0.3151739
879.10 0.3150812
879.20 0.3149886
879.30 0.3148961
879.40 0.3148036
879.50 0.3147111
879.60 0.3146154
879.70 0.3145191
879.80 0.3144228
879.90 0.3143265
880.00 0.3142303
880.10 0.314134
880.20 0.3140379
880.30 0.3139418
880.40 0.3138457
880.50 0.3137496
880.60 0.3136536
880.70 0.3135576
880.80 0.3134616
880.90 0.3133657
881.00 0.3132698
881.10 0.313174
881.20 0.3130782
881.30 0.3129824
881.40 0.3128867
881.50 0.312791
881.60 0.3126953
881.70 0.3125997
881.80 0.3125041
881.90 0.3124085
882.00 0.312313
882.10 0.3122175
882.20 0.312122
882.30 0.3120266
882.40 0.3119312
882.50 0.3118358
882.60 0.3117405
882.70 0.3116453
882.80 0.31155
882.90 0.3114548
883.00 0.3113596
883.10 0.3112645
883.20 0.3111694
883.30 0.3110743
883.40 0.3109793
883.50 0.3108843
883.60 0.3107893
883.70 0.3106944
883.80 0.3105995
883.90 0.3105046
884.00 0.3104098
884.10 0.310315
884.20 0.3102202
884.30 0.3101255
884.40 0.3100308
884.50 0.3099362
884.60 0.3098415
884.70 0.3097469
884.80 0.3096524
884.90 0.3095579
885.00 0.3094634
885.10 0.3093689
885.20 0.3092745
885.30 0.3091802
885.40 0.3090858
885.50 0.3089915
885.60 0.3088972
885.70 0.308803
885.80 0.3087088
885.90 0.3086146
886.00 0.3085205
886.10 0.3084264
886.20 0.3083323
886.30 0.3082383
886.40 0.3081443
886.50 0.3080503
886.60 0.3079564
886.70 0.3078625
886.80 0.3077686
886.90 0.3076748
887.00 0.307581
887.10 0.3074873
887.20 0.3073936
887.30 0.3072999
887.40 0.3072062
887.50 0.3071126
887.60 0.307019
887.70 0.3069255
887.80 0.306832
887.90 0.3067385
888.00 0.306645
888.10 0.3065516
888.20 0.3064582
888.30 0.3063649
888.40 0.3062735
888.50 0.3061825
888.60 0.3060915
888.70 0.3060006
888.80 0.3059097
888.90 0.3058188
889.00 0.3057279
889.10 0.3056371
889.20 0.3055463
889.30 0.3054555
889.40 0.3053648
889.50 0.3052741
889.60 0.3051835
889.70 0.3050928
889.80 0.3050022
889.90 0.3049117
890.00 0.3048212
890.10 0.3047307
890.20 0.3046402
890.30 0.3045498
890.40 0.3044594
890.50 0.304369
890.60 0.3042787
890.70 0.3041884
890.80 0.3040981
890.90 0.3040079
891.00 0.3039177
891.10 0.3038275
891.20 0.3037374
891.30 0.3036473
891.40 0.3035572
891.50 0.3034672
891.60 0.3033772
891.70 0.3032872
891.80 0.3031973
891.90 0.3031074
892.00 0.3030175
892.10 0.3029277
892.20 0.3028379
892.30 0.3027481
892.40 0.3026584
892.50 0.3025687
892.60 0.302479
892.70 0.3023894
892.80 0.3022997
892.90 0.3022102
893.00 0.3021206
893.10 0.3020311
893.20 0.3019416
893.30 0.3018522
893.40 0.3017628
893.50 0.3016734
893.60 0.301584
893.70 0.3014947
893.80 0.3014054
893.90 0.3013162
894.00 0.301227
894.10 0.3011378
894.20 0.3010486
894.30 0.3009595
894.40 0.3008704
894.50 0.3007814
894.60 0.3006923
894.70 0.3006034
894.80 0.3005144
894.90 0.3004255
895.00 0.3003366
895.10 0.3002477
895.20 0.3001589
895.30 0.3000701
895.40 0.2999813
895.50 0.2998926
895.60 0.2998039
895.70 0.2997152
895.80 0.2996266
895.90 0.299538
896.00 0.2994494
896.10 0.2993608
896.20 0.2992723
896.30 0.2991838
896.40 0.2990954
896.50 0.299007
896.60 0.2989186
896.70 0.2988303
896.80 0.2987419
896.90 0.2986536
897.00 0.2985654
897.10 0.2984772
897.20 0.2983889
897.30 0.298299
897.40 0.2982092
897.50 0.2981193
897.60 0.2980295
897.70 0.2979398
897.80 0.29785
897.90 0.2977603
898.00 0.2976707
898.10 0.297581
898.20 0.2974914
898.30 0.2974019
898.40 0.2973123
898.50 0.2972228
898.60 0.2971334
898.70 0.2970439
898.80 0.2969545
898.90 0.2968652
899.00 0.2967758
899.10 0.2966865
899.20 0.2965972
899.30 0.296508
899.40 0.2964188
899.50 0.2963296
899.60 0.2962405
899.70 0.2961514
899.80 0.2960623
899.90 0.2959732
900.00 0.2958842
900.10 0.2957952
900.20 0.2957063
900.30 0.2956173
900.40 0.2955285
900.50 0.2954396
900.60 0.2953508
900.70 0.295262
900.80 0.2951732
900.90 0.2950845
901.00 0.2949958
901.10 0.2949071
901.20 0.2948185
901.30 0.2947299
901.40 0.2946414
901.50 0.2945528
901.60 0.2944643
901.70 0.2943758
901.80 0.2942874
901.90 0.294199
902.00 0.2941106
902.10 0.2940223
902.20 0.293934
902.30 0.2938457
902.40 0.2937575
902.50 0.2936692
902.60 0.2935811
902.70 0.2934929
902.80 0.2934048
902.90 0.2933167
903.00 0.2932286
903.10 0.2931406
903.20 0.2930526
903.30 0.2929647
903.40 0.2928767
903.50 0.2927888
903.60 0.292701
903.70 0.2926131
903.80 0.2925253
903.90 0.2924376
904.00 0.2923498
904.10 0.2922621
904.20 0.2921745
904.30 0.2920868
904.40 0.2919992
904.50 0.2919116
904.60 0.2918241
904.70 0.2917366
904.80 0.2916491
904.90 0.2915616
905.00 0.2914742
905.10 0.2913868
905.20 0.2912994
905.30 0.2912121
905.40 0.2911248
905.50 0.2910376
905.60 0.2909503
905.70 0.2908631
905.80 0.290776
905.90 0.2906888
906.00 0.2906017
906.10 0.2905146
906.20 0.2904277
906.30 0.2903409
906.40 0.2902541
906.50 0.2901674
906.60 0.2900807
906.70 0.289994
906.80 0.2899074
906.90 0.2898208
907.00 0.2897342
907.10 0.2896477
907.20 0.2895612
907.30 0.2894747
907.40 0.2893883
907.50 0.2893019
907.60 0.2892155
907.70 0.2891291
907.80 0.2890428
907.90 0.2889565
908.00 0.2888703
908.10 0.2887841
908.20 0.2886979
908.30 0.2886117
908.40 0.2885256
908.50 0.2884395
908.60 0.2883534
908.70 0.2882673
908.80 0.2881813
908.90 0.2880954
909.00 0.2880094
909.10 0.2879235
909.20 0.2878376
909.30 0.2877518
909.40 0.2876659
909.50 0.2875801
909.60 0.2874944
909.70 0.2874086
909.80 0.2873229
909.90 0.2872373
910.00 0.2871516
910.10 0.287066
910.20 0.2869804
910.30 0.2868949
910.40 0.2868094
910.50 0.2867239
910.60 0.2866384
910.70 0.286553
910.80 0.2864676
910.90 0.2863822
911.00 0.2862969
911.10 0.2862116
911.20 0.2861263
911.30 0.2860411
911.40 0.2859559
911.50 0.2858707
911.60 0.2857856
911.70 0.2857004
911.80 0.2856153
911.90 0.2855303
912.00 0.2854453
912.10 0.2853603
912.20 0.2852753
912.30 0.2851904
912.40 0.2851055
912.50 0.2850206
912.60 0.2849357
912.70 0.2848509
912.80 0.2847661
912.90 0.2846814
913.00 0.2845966
913.10 0.284512
913.20 0.2844273
913.30 0.2843427
913.40 0.284258
913.50 0.2841735
913.60 0.2840889
913.70 0.2840044
913.80 0.2839199
913.90 0.2838355
914.00 0.2837511
914.10 0.2836667
914.20 0.2835823
914.30 0.283498
914.40 0.2834137
914.50 0.2833294
914.60 0.2832452
914.70 0.2831609
914.80 0.2830768
914.90 0.2829926
915.00 0.2829085
915.10 0.2828244
915.20 0.2827403
915.30 0.2826565
915.40 0.2825727
915.50 0.2824889
915.60 0.2824052
915.70 0.2823215
915.80 0.2822378
915.90 0.2821542
916.00 0.2820706
916.10 0.281987
916.20 0.2819035
916.30 0.28182
916.40 0.2817365
916.50 0.281653
916.60 0.2815696
916.70 0.2814862
916.80 0.2814028
916.90 0.2813195
917.00 0.2812362
917.10 0.2811529
917.20 0.2810697
917.30 0.2809865
917.40 0.2809033
917.50 0.2808201
917.60 0.280737
917.70 0.2806539
917.80 0.2805708
917.90 0.2804878
918.00 0.2804048
918.10 0.2803218
918.20 0.2802388
918.30 0.2801559
918.40 0.280073
918.50 0.2799901
918.60 0.2799073
918.70 0.2798245
918.80 0.2797417
918.90 0.279659
919.00 0.2795763
919.10 0.2794936
919.20 0.2794109
919.30 0.2793283
919.40 0.2792457
919.50 0.2791631
919.60 0.2790806
919.70 0.2789981
919.80 0.2789156
919.90 0.2788331
920.00 0.2787507
920.10 0.2786683
920.20 0.278586
920.30 0.2785036
920.40 0.2784213
920.50 0.278339
920.60 0.2782568
920.70 0.2781746
920.80 0.2780924
920.90 0.2780102
921.00 0.2779281
921.10 0.277846
921.20 0.2777639
921.30 0.2776819
921.40 0.2775998
921.50 0.2775179
921.60 0.2774359
921.70 0.277354
921.80 0.2772721
921.90 0.2771902
922.00 0.2771084
922.10 0.2770266
922.20 0.2769448
922.30 0.276863
922.40 0.2767813
922.50 0.2766996
922.60 0.2766179
922.70 0.2765363
922.80 0.2764547
922.90 0.2763731
923.00 0.2762915
923.10 0.27621
923.20 0.2761285
923.30 0.2760471
923.40 0.2759656
923.50 0.2758842
923.60 0.2758028
923.70 0.2757215
923.80 0.2756402
923.90 0.2755589
924.00 0.2754776
924.10 0.2753964
924.20 0.2753152
924.30 0.275234
924.40 0.2751529
924.50 0.275072
924.60 0.2749911
924.70 0.2749103
924.80 0.2748294
924.90 0.2747486
925.00 0.2746679
925.10 0.2745871
925.20 0.2745064
925.30 0.2744258
925.40 0.2743451
925.50 0.2742645
925.60 0.2741839
925.70 0.2741033
925.80 0.2740228
925.90 0.2739423
926.00 0.2738618
926.10 0.2737814
926.20 0.2737009
926.30 0.2736205
926.40 0.2735402
926.50 0.2734598
926.60 0.2733795
926.70 0.2732993
926.80 0.273219
926.90 0.2731388
927.00 0.2730586
927.10 0.2729784
927.20 0.2728983
927.30 0.2728182
927.40 0.2727381
927.50 0.272658
927.60 0.272578
927.70 0.272498
927.80 0.272418
927.90 0.2723381
928.00 0.2722582
928.10 0.2721783
928.20 0.2720984
928.30 0.2720186
928.40 0.2719388
928.50 0.271859
928.60 0.2717793
928.70 0.2716996
928.80 0.2716199
928.90 0.2715402
929.00 0.2714606
929.10 0.2713776
929.20 0.2712945
929.30 0.2712114
929.40 0.2711284
929.50 0.2710454
929.60 0.2709624
929.70 0.2708794
929.80 0.2707965
929.90 0.2707136
930.00 0.2706307
930.10 0.2705479
930.20 0.2704651
930.30 0.2703823
930.40 0.2702995
930.50 0.2702168
930.60 0.2701341
930.70 0.2700515
930.80 0.2699688
930.90 0.2698862
931.00 0.2698036
931.10 0.2697211
931.20 0.2696386
931.30 0.2695561
931.40 0.2694736
931.50 0.2693912
931.60 0.2693088
931.70 0.2692264
931.80 0.2691441
931.90 0.2690618
932.00 0.2689795
932.10 0.2688972
932.20 0.268815
932.30 0.2687328
932.40 0.2686507
932.50 0.2685685
932.60 0.2684864
932.70 0.2684043
932.80 0.2683223
932.90 0.2682403
933.00 0.2681583
933.10 0.2680763
933.20 0.2679944
933.30 0.2679125
933.40 0.2678306
933.50 0.2677487
933.60 0.2676669
933.70 0.2675879
933.80 0.2675098
933.90 0.2674318
934.00 0.2673538
934.10 0.2672758
934.20 0.2671978
934.30 0.2671199
934.40 0.267042
934.50 0.2669641
934.60 0.2668863
934.70 0.2668085
934.80 0.2667307
934.90 0.2666529
935.00 0.2665752
935.10 0.2664975
935.20 0.2664198
935.30 0.2663421
935.40 0.2662645
935.50 0.2661869
935.60 0.2661093
935.70 0.2660318
935.80 0.2659543
935.90 0.2658768
936.00 0.2657993
936.10 0.2657219
936.20 0.2656445
936.30 0.2655671
936.40 0.2654897
936.50 0.2654124
936.60 0.2653351
936.70 0.2652578
936.80 0.2651806
936.90 0.2651033
937.00 0.2650262
937.10 0.264949
937.20 0.2648718
937.30 0.2647947
937.40 0.2647176
937.50 0.2646406
937.60 0.2645635
937.70 0.2644865
937.80 0.2644096
937.90 0.2643326
938.00 0.2642557
938.10 0.2641788
938.20 0.2641019
938.30 0.2640251
938.40 0.2639482
938.50 0.2638715
938.60 0.2637947
938.70 0.2637179
938.80 0.2636412
938.90 0.2635646
939.00 0.2634879
939.10 0.2634113
939.20 0.2633347
939.30 0.2632581
939.40 0.2631815
939.50 0.263105
939.60 0.2630285
939.70 0.262952
939.80 0.2628756
939.90 0.2627992
940.00 0.2627228
940.10 0.2626464
940.20 0.2625701
940.30 0.2624937
940.40 0.2624175
940.50 0.2623412
940.60 0.262265
940.70 0.2621888
940.80 0.2621126
940.90 0.2620364
941.00 0.2619603
941.10 0.2618842
941.20 0.2618081
941.30 0.2617321
941.40 0.2616561
941.50 0.2615801
941.60 0.2615041
941.70 0.2614281
941.80 0.2613522
941.90 0.2612763
942.00 0.2612005
942.10 0.2611246
942.20 0.2610488
942.30 0.260973
942.40 0.2608973
942.50 0.2608216
942.60 0.2607458
942.70 0.2606702
942.80 0.2605945
942.90 0.2605189
943.00 0.2604427
943.10 0.2603657
943.20 0.2602887
943.30 0.2602117
943.40 0.2601347
943.50 0.2600577
943.60 0.2599808
943.70 0.2599039
943.80 0.2598271
943.90 0.2597502
944.00 0.2596734
944.10 0.2595966
944.20 0.2595199
944.30 0.2594432
944.40 0.2593665
944.50 0.2592898
944.60 0.2592131
944.70 0.2591365
944.80 0.2590599
944.90 0.2589833
945.00 0.2589068
945.10 0.2588303
945.20 0.2587538
945.30 0.2586773
945.40 0.2586009
945.50 0.2585245
945.60 0.2584481
945.70 0.2583717
945.80 0.2582954
945.90 0.2582191
946.00 0.2581428
946.10 0.2580666
946.20 0.2579904
946.30 0.2579142
946.40 0.257838
946.50 0.2577618
946.60 0.2576857
946.70 0.2576096
946.80 0.2575336
946.90 0.2574575
947.00 0.2573815
947.10 0.2573055
947.20 0.2572296
947.30 0.2571536
947.40 0.2570777
947.50 0.2570018
947.60 0.256926
947.70 0.2568502
947.80 0.2567743
947.90 0.2566986
948.00 0.2566228
948.10 0.2565471
948.20 0.2564714
948.30 0.2563957
948.40 0.2563201
948.50 0.2562445
948.60 0.2561689
948.70 0.2560933
948.80 0.2560178
948.90 0.2559422
949.00 0.2558668
949.10 0.2557913
949.20 0.2557159
949.30 0.2556405
949.40 0.2555651
949.50 0.2554897
949.60 0.2554144
949.70 0.2553391
949.80 0.2552638
949.90 0.2551885
950.00 0.2551133
950.10 0.2550381
950.20 0.2549629
950.30 0.2548878
950.40 0.2548127
950.50 0.2547376
950.60 0.2546625
950.70 0.2545874
950.80 0.2545124
950.90 0.2544374
951.00 0.2543625
951.10 0.2542875
951.20 0.2542126
951.30 0.2541377
951.40 0.2540629
951.50 0.253988
951.60 0.2539132
951.70 0.2538384
951.80 0.2537637
951.90 0.2536889
952.00 0.2536142
952.10 0.2535395
952.20 0.2534649
952.30 0.2533902
952.40 0.2533158
952.50 0.253243
952.60 0.2531703
952.70 0.2530976
952.80 0.253025
952.90 0.2529523
953.00 0.2528797
953.10 0.2528071
953.20 0.2527346
953.30 0.252662
953.40 0.2525895
953.50 0.252517
953.60 0.2524445
953.70 0.2523721
953.80 0.2522997
953.90 0.2522273
954.00 0.2521549
954.10 0.2520826
954.20 0.2520103
954.30 0.251938
954.40 0.2518657
954.50 0.2517935
954.60 0.2517212
954.70 0.2516491
954.80 0.2515769
954.90 0.2515047
955.00 0.2514326
955.10 0.2513605
955.20 0.2512885
955.30 0.2512164
955.40 0.2511444
955.50 0.2510724
955.60 0.2510004
955.70 0.2509285
955.80 0.2508566
955.90 0.2507847
956.00 0.2507128
956.10 0.2506409
956.20 0.2505691
956.30 0.2504973
956.40 0.2504255
956.50 0.2503538
956.60 0.2502821
956.70 0.2502104
956.80 0.2501387
956.90 0.250067
957.00 0.2499954
957.10 0.2499238
957.20 0.2498522
957.30 0.2497807
957.40 0.2497091
957.50 0.2496376
957.60 0.2495662
957.70 0.2494947
957.80 0.2494233
957.90 0.2493519
958.00 0.2492805
958.10 0.2492091
958.20 0.2491378
958.30 0.2490665
958.40 0.2489952
958.50 0.2489239
958.60 0.2488527
958.70 0.2487815
958.80 0.2487103
958.90 0.2486391
959.00 0.248568
959.10 0.2484969
959.20 0.2484258
959.30 0.2483547
959.40 0.2482837
959.50 0.2482126
959.60 0.2481417
959.70 0.2480707
959.80 0.2479997
959.90 0.2479288
960.00 0.2478579
960.10 0.247787
960.20 0.2477162
960.30 0.2476454
960.40 0.2475746
960.50 0.2475038
960.60 0.247433
960.70 0.2473623
960.80 0.2472916
960.90 0.2472209
961.00 0.2471503
961.10 0.2470796
961.20 0.247009
961.30 0.2469384
961.40 0.2468679
961.50 0.2467973
961.60 0.2467268
961.70 0.2466563
961.80 0.2465859
961.90 0.2465154
962.00 0.2464438
962.10 0.2463721
962.20 0.2463003
962.30 0.2462286
962.40 0.2461569
962.50 0.2460852
962.60 0.2460135
962.70 0.2459419
962.80 0.2458703
962.90 0.2457987
963.00 0.2457271
963.10 0.2456556
963.20 0.245584
963.30 0.2455126
963.40 0.2454411
963.50 0.2453696
963.60 0.2452982
963.70 0.2452268
963.80 0.2451555
963.90 0.2450841
964.00 0.2450128
964.10 0.2449415
964.20 0.2448702
964.30 0.244799
964.40 0.2447278
964.50 0.2446566
964.60 0.2445854
964.70 0.2445142
964.80 0.2444431
964.90 0.244372
965.00 0.2443009
965.10 0.2442299
965.20 0.2441588
965.30 0.2440878
965.40 0.2440169
965.50 0.2439459
965.60 0.243875
965.70 0.2438041
965.80 0.2437332
965.90 0.2436623
966.00 0.2435915
966.10 0.2435207
966.20 0.2434499
966.30 0.2433791
966.40 0.2433084
966.50 0.2432377
966.60 0.243167
966.70 0.2430963
966.80 0.2430257
966.90 0.242955
967.00 0.2428844
967.10 0.2428139
967.20 0.2427433
967.30 0.2426728
967.40 0.2426023
967.50 0.2425318
967.60 0.2424614
967.70 0.2423909
967.80 0.2423205
967.90 0.2422502
968.00 0.2421798
968.10 0.2421095
968.20 0.2420392
968.30 0.2419689
968.40 0.2418986
968.50 0.2418284
968.60 0.2417582
968.70 0.241688
968.80 0.2416178
968.90 0.2415477
969.00 0.2414776
969.10 0.2414075
969.20 0.2413374
969.30 0.2412673
969.40 0.2411973
969.50 0.2411273
969.60 0.2410573
969.70 0.2409874
969.80 0.2409175
969.90 0.2408476
970.00 0.2407777
970.10 0.2407078
970.20 0.240638
970.30 0.2405682
970.40 0.2404984
970.50 0.2404286
970.60 0.2403589
970.70 0.2402892
970.80 0.2402195
970.90 0.2401498
971.00 0.2400802
971.10 0.2400106
971.20 0.239941
971.30 0.2398714
971.40 0.2398018
971.50 0.2397323
971.60 0.239663
971.70 0.2395937
971.80 0.2395244
971.90 0.2394552
972.00 0.239386
972.10 0.2393168
972.20 0.2392476
972.30 0.2391785
972.40 0.2391094
972.50 0.2390403
972.60 0.2389712
972.70 0.2389022
972.80 0.2388331
972.90 0.2387641
973.00 0.2386952
973.10 0.2386262
973.20 0.2385573
973.30 0.2384884
973.40 0.2384195
973.50 0.2383506
973.60 0.2382818
973.70 0.238213
973.80 0.2381442
973.90 0.2380754
974.00 0.2380067
974.10 0.237938
974.20 0.2378693
974.30 0.2378006
974.40 0.2377319
974.50 0.2376633
974.60 0.2375947
974.70 0.2375261
974.80 0.2374576
974.90 0.237389
975.00 0.2373205
975.10 0.237252
975.20 0.2371836
975.30 0.2371151
975.40 0.2370467
975.50 0.2369783
975.60 0.23691
975.70 0.2368416
975.80 0.2367733
975.90 0.236705
976.00 0.2366367
976.10 0.2365684
976.20 0.2365002
976.30 0.236432
976.40 0.2363638
976.50 0.2362956
976.60 0.2362275
976.70 0.2361594
976.80 0.2360913
976.90 0.2360232
977.00 0.2359551
977.10 0.2358871
977.20 0.2358191
977.30 0.2357511
977.40 0.2356832
977.50 0.2356152
977.60 0.2355473
977.70 0.2354794
977.80 0.2354116
977.90 0.2353437
978.00 0.2352759
978.10 0.2352081
978.20 0.2351403
978.30 0.2350726
978.40 0.2350048
978.50 0.2349371
978.60 0.2348694
978.70 0.2348018
978.80 0.2347341
978.90 0.2346665
979.00 0.2345989
979.10 0.2345314
979.20 0.2344638
979.30 0.2343963
979.40 0.2343288
979.50 0.2342613
979.60 0.2341938
979.70 0.2341264
979.80 0.234059
979.90 0.2339916
980.00 0.2339242
980.10 0.2338569
980.20 0.2337896
980.30 0.2337223
980.40 0.233655
980.50 0.2335877
980.60 0.2335205
980.70 0.2334533
980.80 0.2333861
980.90 0.2333189
981.00 0.2332518
981.10 0.2331847
981.20 0.2331176
981.30 0.2330498
981.40 0.2329815
981.50 0.2329132
981.60 0.2328449
981.70 0.2327766
981.80 0.2327083
981.90 0.2326401
982.00 0.2325719
982.10 0.2325037
982.20 0.2324356
982.30 0.2323674
982.40 0.2322993
982.50 0.2322312
982.60 0.2321631
982.70 0.2320951
982.80 0.2320271
982.90 0.2319591
983.00 0.2318911
983.10 0.2318231
983.20 0.2317552
983.30 0.2316873
983.40 0.2316194
983.50 0.2315515
983.60 0.2314837
983.70 0.2314159
983.80 0.2313481
983.90 0.2312803
984.00 0.2312125
984.10 0.2311448
984.20 0.2310771
984.30 0.2310094
984.40 0.2309418
984.50 0.2308741
984.60 0.2308065
984.70 0.2307389
984.80 0.2306714
984.90 0.2306038
985.00 0.2305363
985.10 0.2304688
985.20 0.2304013
985.30 0.2303339
985.40 0.2302664
985.50 0.230199
985.60 0.2301316
985.70 0.2300643
985.80 0.2299969
985.90 0.2299296
986.00 0.2298623
986.10 0.229795
986.20 0.2297278
986.30 0.2296605
986.40 0.2295933
986.50 0.2295261
986.60 0.229459
986.70 0.2293918
986.80 0.2293247
986.90 0.2292576
987.00 0.2291906
987.10 0.2291235
987.20 0.2290565
987.30 0.2289895
987.40 0.2289225
987.50 0.2288555
987.60 0.2287886
987.70 0.2287217
987.80 0.2286548
987.90 0.2285879
988.00 0.2285211
988.10 0.2284542
988.20 0.2283874
988.30 0.2283207
988.40 0.2282539
988.50 0.2281872
988.60 0.2281204
988.70 0.2280538
988.80 0.2279871
988.90 0.2279204
989.00 0.2278538
989.10 0.2277872
989.20 0.2277206
989.30 0.2276541
989.40 0.2275875
989.50 0.227521
989.60 0.2274545
989.70 0.2273881
989.80 0.2273216
989.90 0.2272552
990.00 0.2271888
990.10 0.2271224
990.20 0.2270561
990.30 0.2269897
990.40 0.2269234
990.50 0.2268571
990.60 0.2267908
990.70 0.2267246
990.80 0.2266584
990.90 0.2265922
991.00 0.226526
991.10 0.226461
991.20 0.2263979
991.30 0.2263349
991.40 0.2262719
991.50 0.2262089
991.60 0.226146
991.70 0.226083
991.80 0.2260201
991.90 0.2259572
992.00 0.2258943
992.10 0.2258315
992.20 0.2257686
992.30 0.2257058
992.40 0.225643
992.50 0.2255802
992.60 0.2255175
992.70 0.2254547
992.80 0.225392
992.90 0.2253293
993.00 0.2252667
993.10 0.225204
993.20 0.2251414
993.30 0.2250788
993.40 0.2250162
993.50 0.2249536
993.60 0.2248911
993.70 0.2248286
993.80 0.224766
993.90 0.2247036
994.00 0.2246411
994.10 0.2245787
994.20 0.2245162
994.30 0.2244538
994.40 0.2243914
994.50 0.2243291
994.60 0.2242667
994.70 0.2242044
994.80 0.2241421
994.90 0.2240798
995.00 0.2240176
995.10 0.2239553
995.20 0.2238931
995.30 0.2238309
995.40 0.2237687
995.50 0.2237066
995.60 0.2236445
995.70 0.2235823
995.80 0.2235202
995.90 0.2234582
996.00 0.2233961
996.10 0.2233317
996.20 0.2232669
996.30 0.223202
996.40 0.2231372
996.50 0.2230724
996.60 0.2230076
996.70 0.2229428
996.80 0.2228781
996.90 0.2228134
997.00 0.2227487
997.10 0.222684
997.20 0.2226193
997.30 0.2225547
997.40 0.2224901
997.50 0.2224255
997.60 0.2223609
997.70 0.2222964
997.80 0.2222318
997.90 0.2221673
998.00 0.2221028
998.10 0.2220384
998.20 0.2219739
998.30 0.2219095
998.40 0.2218451
998.50 0.2217807
998.60 0.2217164
998.70 0.221652
998.80 0.2215877
998.90 0.2215234
999.00 0.2214591
999.10 0.2213949
999.20 0.2213307
999.30 0.2212664
999.40 0.2212023
999.50 0.2211381
999.60 0.221074
999.70 0.2210098
999.80 0.2209457
999.90 0.2208816
1000.00 0.2208176
1000.10 0.2207535
1000.20 0.2206895
1000.30 0.2206255
1000.40 0.2205616
1000.50 0.2204976
1000.60 0.2204337
1000.70 0.2203698
1000.80 0.2203059
1000.90 0.220242
1001.00 0.2201789
1001.10 0.2201181
1001.20 0.2200573
1001.30 0.2199965
1001.40 0.2199357
1001.50 0.219875
1001.60 0.2198143
1001.70 0.2197536
1001.80 0.2196929
1001.90 0.2196322
1002.00 0.2195716
1002.10 0.2195109
1002.20 0.2194503
1002.30 0.2193897
1002.40 0.2193292
1002.50 0.2192686
1002.60 0.2192081
1002.70 0.2191476
1002.80 0.2190871
1002.90 0.2190266
1003.00 0.2189662
1003.10 0.2189057
1003.20 0.2188453
1003.30 0.2187849
1003.40 0.2187246
1003.50 0.2186642
1003.60 0.2186039
1003.70 0.2185436
1003.80 0.2184833
1003.90 0.218423
1004.00 0.2183628
1004.10 0.2183025
1004.20 0.2182423
1004.30 0.2181821
1004.40 0.2181219
1004.50 0.2180618
1004.60 0.2180017
1004.70 0.2179415
1004.80 0.2178814
1004.90 0.2178214
1005.00 0.2177613
1005.10 0.2177013
1005.20 0.2176413
1005.30 0.2175813
1005.40 0.2175213
1005.50 0.2174613
1005.60 0.2174014
1005.70 0.2173415
1005.80 0.2172816
1005.90 0.2172217
1006.00 0.2171612
1006.10 0.2170986
1006.20 0.217036
1006.30 0.2169734
1006.40 0.2169109
1006.50 0.2168483
1006.60 0.2167858
1006.70 0.2167233
1006.80 0.2166608
1006.90 0.2165984
1007.00 0.2165359
1007.10 0.2164735
1007.20 0.2164111
1007.30 0.2163487
1007.40 0.2162864
1007.50 0.216224
1007.60 0.2161617
1007.70 0.2160994
1007.80 0.2160372
1007.90 0.2159749
1008.00 0.2159127
1008.10 0.2158505
1008.20 0.2157883
1008.30 0.2157261
1008.40 0.2156639
1008.50 0.2156018
1008.60 0.2155397
1008.70 0.2154776
1008.80 0.2154155
1008.90 0.2153535
1009.00 0.2152914
1009.10 0.2152294
1009.20 0.2151674
1009.30 0.2151055
1009.40 0.2150435
1009.50 0.2149816
1009.60 0.2149197
1009.70 0.2148578
1009.80 0.2147959
1009.90 0.2147341
1010.00 0.2146723
1010.10 0.2146105
1010.20 0.2145487
1010.30 0.2144869
1010.40 0.2144252
1010.50 0.2143634
1010.60 0.2143017
1010.70 0.21424
1010.80 0.2141784
1010.90 0.2141167
1011.00 0.2140551
1011.10 0.2139937
1011.20 0.2139323
1011.30 0.213871
1011.40 0.2138096
1011.50 0.2137483
1011.60 0.213687
1011.70 0.2136257
1011.80 0.2135644
1011.90 0.2135032
1012.00 0.2134419
1012.10 0.2133807
1012.20 0.2133196
1012.30 0.2132584
1012.40 0.2131972
1012.50 0.2131361
1012.60 0.213075
1012.70 0.2130139
1012.80 0.2129528
1012.90 0.2128918
1013.00 0.2128308
1013.10 0.2127697
1013.20 0.2127088
1013.30 0.2126478
1013.40 0.2125868
1013.50 0.2125259
1013.60 0.212465
1013.70 0.2124041
1013.80 0.2123432
1013.90 0.2122824
1014.00 0.2122216
1014.10 0.2121607
1014.20 0.2121
1014.30 0.2120392
1014.40 0.2119784
1014.50 0.2119177
1014.60 0.211857
1014.70 0.2117963
1014.80 0.2117356
1014.90 0.211675
1015.00 0.2116143
1015.10 0.2115537
1015.20 0.2114931
1015.30 0.2114326
1015.40 0.211372
1015.50 0.2113115
1015.60 0.211251
1015.70 0.2111905
1015.80 0.21113
1015.90 0.2110695
1016.00 0.2110091
1016.10 0.2109487
1016.20 0.2108883
1016.30 0.2108279
1016.40 0.2107676
1016.50 0.2107072
1016.60 0.2106469
1016.70 0.2105866
1016.80 0.2105263
1016.90 0.2104661
1017.00 0.2104059
1017.10 0.2103456
1017.20 0.2102854
1017.30 0.2102253
1017.40 0.2101651
1017.50 0.210105
1017.60 0.2100448
1017.70 0.2099847
1017.80 0.2099247
1017.90 0.2098646
1018.00 0.2098046
1018.10 0.2097445
1018.20 0.2096845
1018.30 0.2096245
1018.40 0.2095646
1018.50 0.2095046
1018.60 0.2094447
1018.70 0.2093848
1018.80 0.2093249
1018.90 0.2092651
1019.00 0.2092052
1019.10 0.2091454
1019.20 0.2090856
1019.30 0.2090258
1019.40 0.208966
1019.50 0.2089063
1019.60 0.2088465
1019.70 0.2087868
1019.80 0.2087271
1019.90 0.2086675
1020.00 0.2086078
1020.10 0.2085482
1020.20 0.2084886
1020.30 0.208429
1020.40 0.2083694
1020.50 0.2083098
1020.60 0.2082503
1020.70 0.2081908
1020.80 0.2081313
1020.90 0.2080718
1021.00 0.2080123
1021.10 0.2079531
1021.20 0.2078965
1021.30 0.2078399
1021.40 0.2077834
1021.50 0.2077268
1021.60 0.2076703
1021.70 0.2076138
1021.80 0.2075573
1021.90 0.2075009
1022.00 0.2074444
1022.10 0.207388
1022.20 0.2073316
1022.30 0.2072752
1022.40 0.2072188
1022.50 0.2071625
1022.60 0.2071062
1022.70 0.2070498
1022.80 0.2069935
1022.90 0.2069373
1023.00 0.206881
1023.10 0.2068247
1023.20 0.2067685
1023.30 0.2067123
1023.40 0.2066561
1023.50 0.2065999
1023.60 0.2065438
1023.70 0.2064876
1023.80 0.2064315
1023.90 0.2063754
1024.00 0.2063193
1024.10 0.2062633
1024.20 0.2062072
1024.30 0.2061512
1024.40 0.2060952
1024.50 0.2060392
1024.60 0.2059832
1024.70 0.2059273
1024.80 0.2058713
1024.90 0.2058154
1025.00 0.2057595
1025.10 0.2057036
1025.20 0.2056477
1025.30 0.2055919
1025.40 0.2055361
1025.50 0.2054802
1025.60 0.2054244
1025.70 0.2053687
1025.80 0.2053129
1025.90 0.2052572
1026.00 0.2052014
1026.10 0.2051457
1026.20 0.20509
1026.30 0.2050317
1026.40 0.2049734
1026.50 0.2049152
1026.60 0.2048569
1026.70 0.2047987
1026.80 0.2047405
1026.90 0.2046823
1027.00 0.2046242
1027.10 0.204566
1027.20 0.2045079
1027.30 0.2044498
1027.40 0.2043917
1027.50 0.2043337
1027.60 0.2042756
1027.70 0.2042176
1027.80 0.2041596
1027.90 0.2041016
1028.00 0.2040436
1028.10 0.2039856
1028.20 0.2039277
1028.30 0.2038698
1028.40 0.2038119
1028.50 0.203754
1028.60 0.2036961
1028.70 0.2036383
1028.80 0.2035805
1028.90 0.2035227
1029.00 0.2034649
1029.10 0.2034071
1029.20 0.2033493
1029.30 0.2032916
1029.40 0.2032339
1029.50 0.2031762
1029.60 0.2031185
1029.70 0.2030609
1029.80 0.2030032
1029.90 0.2029456
1030.00 0.202888
1030.10 0.2028304
1030.20 0.2027729
1030.30 0.2027153
1030.40 0.2026578
1030.50 0.2026003
1030.60 0.2025428
1030.70 0.2024853
1030.80 0.2024279
1030.90 0.2023704
1031.00 0.202313
1031.10 0.2022556
1031.20 0.2021982
1031.30 0.2021409
1031.40 0.2020837
1031.50 0.2020265
1031.60 0.2019694
1031.70 0.2019123
1031.80 0.2018552
1031.90 0.2017982
1032.00 0.2017411
1032.10 0.2016841
1032.20 0.2016271
1032.30 0.2015701
1032.40 0.2015131
1032.50 0.2014561
1032.60 0.2013992
1032.70 0.2013423
1032.80 0.2012854
1032.90 0.2012285
1033.00 0.2011716
1033.10 0.2011148
1033.20 0.2010579
1033.30 0.2010011
1033.40 0.2009443
1033.50 0.2008875
1033.60 0.2008308
1033.70 0.2007741
1033.80 0.2007173
1033.90 0.2006606
1034.00 0.2006039
1034.10 0.2005473
1034.20 0.2004906
1034.30 0.200434
1034.40 0.2003774
1034.50 0.2003208
1034.60 0.2002642
1034.70 0.2002076
1034.80 0.2001511
1034.90 0.2000946
1035.00 0.2000381
1035.10 0.1999816
1035.20 0.1999251
1035.30 0.1998687
1035.40 0.1998122
1035.50 0.1997558
1035.60 0.1996994
1035.70 0.1996431
1035.80 0.1995867
1035.90 0.1995304
1036.00 0.199474
1036.10 0.1994177
1036.20 0.1993614
1036.30 0.1993052
1036.40 0.1992489
1036.50 0.1991927
1036.60 0.1991365
1036.70 0.1990803
1036.80 0.1990241
1036.90 0.1989679
1037.00 0.1989118
1037.10 0.1988556
1037.20 0.1987995
1037.30 0.1987434
1037.40 0.1986874
1037.50 0.1986313
1037.60 0.1985753
1037.70 0.1985192
1037.80 0.1984632
1037.90 0.1984073
1038.00 0.1983513
1038.10 0.1982953
1038.20 0.1982394
1038.30 0.1981835
1038.40 0.1981276
1038.50 0.1980717
1038.60 0.1980159
1038.70 0.19796
1038.80 0.1979042
1038.90 0.1978484
1039.00 0.1977926
1039.10 0.1977368
1039.20 0.1976811
1039.30 0.1976253
1039.40 0.1975696
1039.50 0.1975139
1039.60 0.1974582
1039.70 0.1974026
1039.80 0.1973469
1039.90 0.1972913
1040.00 0.1972357
1040.10 0.1971801
1040.20 0.1971245
1040.30 0.197069
1040.40 0.1970134
1040.50 0.1969579
1040.60 0.1969024
1040.70 0.1968469
1040.80 0.1967914
1040.90 0.196736
1041.00 0.1966805
1041.10 0.1966251
1041.20 0.1965697
1041.30 0.1965143
1041.40 0.196459
1041.50 0.1964036
1041.60 0.1963483
1041.70 0.1962931
1041.80 0.196238
1041.90 0.1961829
1042.00 0.1961278
1042.10 0.1960728
1042.20 0.1960177
1042.30 0.1959627
1042.40 0.1959077
1042.50 0.1958527
1042.60 0.1957977
1042.70 0.1957428
1042.80 0.1956878
1042.90 0.1956329
1043.00 0.195578
1043.10 0.1955231
1043.20 0.1954682
1043.30 0.1954134
1043.40 0.1953585
1043.50 0.1953037
1043.60 0.1952489
1043.70 0.1951941
1043.80 0.1951393
1043.90 0.1950846
1044.00 0.1950299
1044.10 0.1949751
1044.20 0.1949204
1044.30 0.1948658
1044.40 0.1948111
1044.50 0.1947565
1044.60 0.1947018
1044.70 0.1946472
1044.80 0.1945926
1044.90 0.194538
1045.00 0.1944835
1045.10 0.1944289
1045.20 0.1943744
1045.30 0.1943199
1045.40 0.1942654
1045.50 0.1942109
1045.60 0.1941565
1045.70 0.1941021
1045.80 0.1940476
1045.90 0.1939932
1046.00 0.1939388
1046.10 0.1938845
1046.20 0.1938301
1046.30 0.1937758
1046.40 0.1937215
1046.50 0.1936672
1046.60 0.1936129
1046.70 0.1935586
1046.80 0.1935044
1046.90 0.1934501
1047.00 0.1933959
1047.10 0.1933417
1047.20 0.1932875
1047.30 0.1932334
1047.40 0.1931792
1047.50 0.1931251
1047.60 0.193071
1047.70 0.1930169
1047.80 0.1929628
1047.90 0.1929088
1048.00 0.1928547
1048.10 0.1928007
1048.20 0.1927467
1048.30 0.1926927
1048.40 0.1926387
1048.50 0.1925848
1048.60 0.1925308
1048.70 0.1924769
1048.80 0.192423
1048.90 0.1923691
1049.00 0.1923152
1049.10 0.1922614
1049.20 0.1922075
1049.30 0.1921537
1049.40 0.1920999
1049.50 0.1920461
1049.60 0.1919924
1049.70 0.1919386
1049.80 0.1918849
1049.90 0.1918311
1050.00 0.1917774
1050.10 0.1917238
1050.20 0.1916701
1050.30 0.1916164
1050.40 0.1915628
1050.50 0.1915092
1050.60 0.1914556
1050.70 0.191402
1050.80 0.1913484
1050.90 0.1912949
1051.00 0.1912414
1051.10 0.1911878
1051.20 0.1911343
1051.30 0.1910809
1051.40 0.1910274
1051.50 0.1909739
1051.60 0.1909205
1051.70 0.1908671
1051.80 0.1908137
1051.90 0.1907603
1052.00 0.190707
1052.10 0.1906545
1052.20 0.1906026
1052.30 0.1905507
1052.40 0.1904987
1052.50 0.1904468
1052.60 0.1903949
1052.70 0.1903431
1052.80 0.1902912
1052.90 0.1902394
1053.00 0.1901876
1053.10 0.1901358
1053.20 0.190084
1053.30 0.1900322
1053.40 0.1899804
1053.50 0.1899287
1053.60 0.189877
1053.70 0.1898253
1053.80 0.1897736
1053.90 0.1897219
1054.00 0.1896703
1054.10 0.1896186
1054.20 0.189567
1054.30 0.1895154
1054.40 0.1894638
1054.50 0.1894122
1054.60 0.1893606
1054.70 0.1893091
1054.80 0.1892576
1054.90 0.1892061
1055.00 0.1891546
1055.10 0.1891031
1055.20 0.1890516
1055.30 0.1890002
1055.40 0.1889487
1055.50 0.1888973
1055.60 0.1888459
1055.70 0.1887945
1055.80 0.1887432
1055.90 0.1886918
1056.00 0.1886405
1056.10 0.1885892
1056.20 0.1885378
1056.30 0.1884866
1056.40 0.1884353
1056.50 0.188384
1056.60 0.1883328
1056.70 0.1882816
1056.80 0.1882304
1056.90 0.1881792
1057.00 0.188128
1057.10 0.1880768
1057.20 0.1880257
1057.30 0.1879746
1057.40 0.1879235
1057.50 0.1878724
1057.60 0.1878213
1057.70 0.1877702
1057.80 0.1877192
1057.90 0.1876681
1058.00 0.1876171
1058.10 0.1875661
1058.20 0.1875151
1058.30 0.1874642
1058.40 0.1874132
1058.50 0.1873623
1058.60 0.1873114
1058.70 0.1872604
1058.80 0.1872096
1058.90 0.1871587
1059.00 0.1871078
1059.10 0.187057
1059.20 0.1870062
1059.30 0.1869554
1059.40 0.1869046
1059.50 0.1868538
1059.60 0.186803
1059.70 0.1867523
1059.80 0.1867015
1059.90 0.1866508
1060.00 0.1866001
1060.10 0.1865494
1060.20 0.1864988
1060.30 0.1864481
1060.40 0.1863975
1060.50 0.1863469
1060.60 0.1862963
1060.70 0.1862457
1060.80 0.1861951
1060.90 0.1861446
1061.00 0.186094
1061.10 0.1860435
1061.20 0.185993
1061.30 0.1859425
1061.40 0.185892
1061.50 0.1858415
1061.60 0.1857911
1061.70 0.1857407
1061.80 0.1856903
1061.90 0.1856399
1062.00 0.1855895
1062.10 0.1855391
1062.20 0.1854888
1062.30 0.1854384
1062.40 0.1853881
1062.50 0.1853378
1062.60 0.185287
1062.70 0.1852357
1062.80 0.1851845
1062.90 0.1851332
1063.00 0.1850819
1063.10 0.1850307
1063.20 0.1849795
1063.30 0.1849283
1063.40 0.1848771
1063.50 0.184826
1063.60 0.1847748
1063.70 0.1847237
1063.80 0.1846725
1063.90 0.1846214
1064.00 0.1845704
1064.10 0.1845193
1064.20 0.1844682
1064.30 0.1844172
1064.40 0.1843662
1064.50 0.1843152
1064.60 0.1842642
1064.70 0.1842132
1064.80 0.1841622
1064.90 0.1841113
1065.00 0.1840604
1065.10 0.1840094
1065.20 0.1839586
1065.30 0.1839077
1065.40 0.1838568
1065.50 0.183806
1065.60 0.1837551
1065.70 0.1837043
1065.80 0.1836535
1065.90 0.1836027
1066.00 0.183552
1066.10 0.1835012
1066.20 0.1834505
1066.30 0.1833997
1066.40 0.183349
1066.50 0.1832983
1066.60 0.1832477
1066.70 0.183197
1066.80 0.1831464
1066.90 0.1830957
1067.00 0.1830451
1067.10 0.1829945
1067.20 0.182944
1067.30 0.1828934
1067.40 0.1828428
1067.50 0.1827923
1067.60 0.1827418
1067.70 0.1826913
1067.80 0.1826408
1067.90 0.1825903
1068.00 0.1825399
1068.10 0.1824894
1068.20 0.182439
1068.30 0.1823886
1068.40 0.1823382
1068.50 0.1822878
1068.60 0.1822375
1068.70 0.1821871
1068.80 0.1821368
1068.90 0.1820865
1069.00 0.1820362
1069.10 0.1819859
1069.20 0.1819356
1069.30 0.1818854
1069.40 0.1818351
1069.50 0.1817849
1069.60 0.1817347
1069.70 0.1816845
1069.80 0.1816343
1069.90 0.1815842
1070.00 0.181534
1070.10 0.1814839
1070.20 0.1814338
1070.30 0.1813837
1070.40 0.1813336
1070.50 0.1812835
1070.60 0.1812335
1070.70 0.1811834
1070.80 0.1811334
1070.90 0.1810834
1071.00 0.1810334
1071.10 0.1809834
1071.20 0.1809335
1071.30 0.1808835
1071.40 0.1808336
1071.50 0.1807837
1071.60 0.1807338
1071.70 0.1806839
1071.80 0.1806341
1071.90 0.1805842
1072.00 0.1805344
1072.10 0.1804846
1072.20 0.1804348
1072.30 0.180385
1072.40 0.1803352
1072.50 0.1802854
1072.60 0.1802357
1072.70 0.180186
1072.80 0.1801363
1072.90 0.1800866
1073.00 0.1800369
1073.10 0.1799872
1073.20 0.1799376
1073.30 0.1798881
1073.40 0.1798387
1073.50 0.1797892
1073.60 0.1797398
1073.70 0.1796904
1073.80 0.179641
1073.90 0.1795916
1074.00 0.1795423
1074.10 0.1794929
1074.20 0.1794436
1074.30 0.1793943
1074.40 0.179345
1074.50 0.1792957
1074.60 0.1792464
1074.70 0.1791971
1074.80 0.1791479
1074.90 0.1790987
1075.00 0.1790495
1075.10 0.1790003
1075.20 0.1789511
1075.30 0.1789019
1075.40 0.1788528
1075.50 0.1788036
1075.60 0.1787545
1075.70 0.1787054
1075.80 0.1786563
1075.90 0.1786072
1076.00 0.1785582
1076.10 0.1785091
1076.20 0.1784601
1076.30 0.1784111
1076.40 0.1783621
1076.50 0.1783131
1076.60 0.1782641
1076.70 0.1782152
1076.80 0.1781662
1076.90 0.1781173
1077.00 0.1780684
1077.10 0.1780195
1077.20 0.1779706
1077.30 0.1779218
1077.40 0.1778729
1077.50 0.1778241
1077.60 0.1777752
1077.70 0.1777264
1077.80 0.1776777
1077.90 0.1776289
1078.00 0.1775801
1078.10 0.1775314
1078.20 0.1774827
1078.30 0.1774339
1078.40 0.1773852
1078.50 0.1773366
1078.60 0.1772879
1078.70 0.1772392
1078.80 0.1771906
1078.90 0.177142
1079.00 0.1770934
1079.10 0.1770448
1079.20 0.1769962
1079.30 0.1769476
1079.40 0.1768991
1079.50 0.1768505
1079.60 0.176802
1079.70 0.1767535
1079.80 0.176705
1079.90 0.1766566
1080.00 0.1766081
1080.10 0.1765597
1080.20 0.1765112
1080.30 0.1764628
1080.40 0.1764144
1080.50 0.176366
1080.60 0.1763177
1080.70 0.1762693
1080.80 0.176221
1080.90 0.1761726
1081.00 0.1761243
1081.10 0.176076
1081.20 0.1760278
1081.30 0.1759795
1081.40 0.1759312
1081.50 0.175883
1081.60 0.1758348
1081.70 0.1757866
1081.80 0.1757384
1081.90 0.1756902
1082.00 0.175642
1082.10 0.1755939
1082.20 0.1755458
1082.30 0.1754976
1082.40 0.1754495
1082.50 0.1754015
1082.60 0.1753534
1082.70 0.1753053
1082.80 0.1752573
1082.90 0.1752093
1083.00 0.1751612
1083.10 0.1751132
1083.20 0.1750653
1083.30 0.1750173
1083.40 0.1749693
1083.50 0.1749214
1083.60 0.1748735
1083.70 0.1748255
1083.80 0.1747777
1083.90 0.1747298
1084.00 0.174682
1084.10 0.1746343
1084.20 0.1745867
1084.30 0.174539
1084.40 0.1744913
1084.50 0.1744437
1084.60 0.1743961
1084.70 0.1743485
1084.80 0.1743009
1084.90 0.1742533
1085.00 0.1742057
1085.10 0.1741582
1085.20 0.1741106
1085.30 0.1740631
1085.40 0.1740156
1085.50 0.1739681
1085.60 0.1739206
1085.70 0.1738732
1085.80 0.1738257
1085.90 0.1737783
1086.00 0.1737309
1086.10 0.1736835
1086.20 0.1736361
1086.30 0.1735887
1086.40 0.1735413
1086.50 0.173494
1086.60 0.1734467
1086.70 0.1733994
1086.80 0.173352
1086.90 0.1733048
1087.00 0.1732575
1087.10 0.1732102
1087.20 0.173163
1087.30 0.1731157
1087.40 0.1730685
1087.50 0.1730213
1087.60 0.1729741
1087.70 0.172927
1087.80 0.1728798
1087.90 0.1728327
1088.00 0.1727855
1088.10 0.1727384
1088.20 0.1726913
1088.30 0.1726442
1088.40 0.1725972
1088.50 0.1725501
1088.60 0.1725031
1088.70 0.172456
1088.80 0.172409
1088.90 0.172362
1089.00 0.172315
1089.10 0.172268
1089.20 0.1722211
1089.30 0.1721741
1089.40 0.1721272
1089.50 0.1720803
1089.60 0.1720334
1089.70 0.1719865
1089.80 0.1719396
1089.90 0.1718928
1090.00 0.1718459
1090.10 0.1717991
1090.20 0.1717523
1090.30 0.1717055
1090.40 0.1716587
1090.50 0.1716119
1090.60 0.1715651
1090.70 0.1715184
1090.80 0.1714717
1090.90 0.1714249
1091.00 0.1713782
1091.10 0.1713316
1091.20 0.1712849
1091.30 0.1712382
1091.40 0.1711916
1091.50 0.1711449
1091.60 0.1710983
1091.70 0.1710517
1091.80 0.1710051
1091.90 0.1709586
1092.00 0.170912
1092.10 0.1708654
1092.20 0.1708189
1092.30 0.1707724
1092.40 0.1707259
1092.50 0.1706794
1092.60 0.1706329
1092.70 0.1705865
1092.80 0.17054
1092.90 0.1704936
1093.00 0.1704472
1093.10 0.1704008
1093.20 0.1703544
1093.30 0.170308
1093.40 0.1702616
1093.50 0.1702153
1093.60 0.1701689
1093.70 0.1701226
1093.80 0.1700763
1093.90 0.17003
1094.00 0.1699837
1094.10 0.1699375
1094.20 0.1698912
1094.30 0.169845
1094.40 0.1697988
1094.50 0.1697526
1094.60 0.1697064
1094.70 0.1696602
1094.80 0.1696141
1094.90 0.1695681
1095.00 0.1695221
1095.10 0.1694761
1095.20 0.1694302
1095.30 0.1693842
1095.40 0.1693383
1095.50 0.1692924
1095.60 0.1692465
1095.70 0.1692006
1095.80 0.1691547
1095.90 0.1691089
1096.00 0.169063
1096.10 0.1690172
1096.20 0.1689714
1096.30 0.1689256
1096.40 0.1688798
1096.50 0.168834
1096.60 0.1687882
1096.70 0.1687425
1096.80 0.1686967
1096.90 0.168651
1097.00 0.1686053
1097.10 0.1685596
1097.20 0.1685139
1097.30 0.1684683
1097.40 0.1684226
1097.50 0.168377
1097.60 0.1683314
1097.70 0.1682858
1097.80 0.1682402
1097.90 0.1681946
1098.00 0.168149
1098.10 0.1681034
1098.20 0.1680579
1098.30 0.1680124
1098.40 0.1679669
1098.50 0.1679214
1098.60 0.1678759
1098.70 0.1678304
1098.80 0.1677849
1098.90 0.1677395
1099.00 0.1676941
1099.10 0.1676487
1099.20 0.1676033
1099.30 0.1675579
1099.40 0.1675125
1099.50 0.1674671
1099.60 0.1674218
1099.70 0.1673764
1099.80 0.1673311
1099.90 0.1672858
1100.00 0.1672405
1100.10 0.1671952
1100.20 0.16715
1100.30 0.1671047
1100.40 0.1670595
1100.50 0.1670143
1100.60 0.166969
1100.70 0.1669238
1100.80 0.1668787
1100.90 0.1668335
1101.00 0.1667883
1101.10 0.1667432
1101.20 0.1666981
1101.30 0.1666529
1101.40 0.1666078
1101.50 0.1665628
1101.60 0.1665177
1101.70 0.1664726
1101.80 0.1664276
1101.90 0.1663825
1102.00 0.1663375
1102.10 0.1662925
1102.20 0.1662475
1102.30 0.1662025
1102.40 0.1661576
1102.50 0.1661126
1102.60 0.1660677
1102.70 0.1660227
1102.80 0.1659778
1102.90 0.1659329
1103.00 0.1658881
1103.10 0.1658432
1103.20 0.1657983
1103.30 0.1657535
1103.40 0.1657086
1103.50 0.1656638
1103.60 0.165619
1103.70 0.1655742
1103.80 0.1655295
1103.90 0.1654847
1104.00 0.1654399
1104.10 0.1653952
1104.20 0.1653505
1104.30 0.1653058
1104.40 0.1652611
1104.50 0.1652164
1104.60 0.1651717
1104.70 0.1651271
1104.80 0.1650824
1104.90 0.1650378
1105.00 0.1649932
1105.10 0.1649486
1105.20 0.164904
1105.30 0.1648594
1105.40 0.1648149
1105.50 0.1647703
1105.60 0.1647258
1105.70 0.1646813
1105.80 0.1646369
1105.90 0.1645926
1106.00 0.1645482
1106.10 0.1645039
1106.20 0.1644596
1106.30 0.1644153
1106.40 0.164371
1106.50 0.1643267
1106.60 0.1642825
1106.70 0.1642382
1106.80 0.164194
1106.90 0.1641498
1107.00 0.1641056
1107.10 0.1640614
1107.20 0.1640172
1107.30 0.1639731
1107.40 0.1639289
1107.50 0.1638848
1107.60 0.1638407
1107.70 0.1637965
1107.80 0.1637525
1107.90 0.1637084
1108.00 0.1636643
1108.10 0.1636202
1108.20 0.1635762
1108.30 0.1635322
1108.40 0.1634882
1108.50 0.1634441
1108.60 0.1634002
1108.70 0.1633562
1108.80 0.1633122
1108.90 0.1632683
1109.00 0.1632243
1109.10 0.1631804
1109.20 0.1631365
1109.30 0.1630926
1109.40 0.1630487
1109.50 0.1630048
1109.60 0.162961
1109.70 0.1629171
1109.80 0.1628733
1109.90 0.1628295
1110.00 0.1627857
1110.10 0.1627419
1110.20 0.1626981
1110.30 0.1626543
1110.40 0.1626106
1110.50 0.1625668
1110.60 0.1625231
1110.70 0.1624794
1110.80 0.1624357
1110.90 0.162392
1111.00 0.1623483
1111.10 0.1623047
1111.20 0.162261
1111.30 0.1622174
1111.40 0.1621738
1111.50 0.1621302
1111.60 0.1620866
1111.70 0.162043
1111.80 0.1619994
1111.90 0.1619559
1112.00 0.1619123
1112.10 0.1618688
1112.20 0.1618253
1112.30 0.1617818
1112.40 0.1617383
1112.50 0.1616948
1112.60 0.1616513
1112.70 0.1616079
1112.80 0.1615644
1112.90 0.161521
1113.00 0.1614776
1113.10 0.1614342
1113.20 0.1613908
1113.30 0.1613474
1113.40 0.1613041
1113.50 0.1612607
1113.60 0.1612174
1113.70 0.161174
1113.80 0.1611307
1113.90 0.1610874
1114.00 0.1610442
1114.10 0.1610009
1114.20 0.1609576
1114.30 0.1609144
1114.40 0.1608712
1114.50 0.1608279
1114.60 0.1607847
1114.70 0.1607415
1114.80 0.1606984
1114.90 0.1606552
1115.00 0.160612
1115.10 0.1605689
1115.20 0.1605258
1115.30 0.1604826
1115.40 0.1604395
1115.50 0.1603964
1115.60 0.1603534
1115.70 0.1603103
1115.80 0.1602673
1115.90 0.1602242
1116.00 0.1601812
1116.10 0.1601382
1116.20 0.1600952
1116.30 0.1600522
1116.40 0.1600092
1116.50 0.1599662
1116.60 0.1599233
1116.70 0.1598804
1116.80 0.1598375
1116.90 0.1597947
1117.00 0.159752
1117.10 0.1597092
1117.20 0.1596665
1117.30 0.1596238
1117.40 0.1595811
1117.50 0.1595384
1117.60 0.1594957
1117.70 0.159453
1117.80 0.1594104
1117.90 0.1593677
1118.00 0.1593251
1118.10 0.1592825
1118.20 0.1592399
1118.30 0.1591973
1118.40 0.1591547
1118.50 0.1591122
1118.60 0.1590696
1118.70 0.1590271
1118.80 0.1589845
1118.90 0.158942
1119.00 0.1588995
1119.10 0.158857
1119.20 0.1588146
1119.30 0.1587721
1119.40 0.1587296
1119.50 0.1586872
1119.60 0.1586448
1119.70 0.1586024
1119.80 0.15856
1119.90 0.1585176
1120.00 0.1584752
1120.10 0.1584328
1120.20 0.1583905
1120.30 0.1583482
1120.40 0.1583058
1120.50 0.1582635
1120.60 0.1582212
1120.70 0.1581789
1120.80 0.1581367
1120.90 0.1580944
1121.00 0.1580521
1121.10 0.1580099
1121.20 0.1579677
1121.30 0.1579255
1121.40 0.1578833
1121.50 0.1578411
1121.60 0.1577989
1121.70 0.1577567
1121.80 0.1577146
1121.90 0.1576725
1122.00 0.1576303
1122.10 0.1575882
1122.20 0.1575461
1122.30 0.157504
1122.40 0.157462
1122.50 0.1574199
1122.60 0.1573778
1122.70 0.1573358
1122.80 0.1572938
1122.90 0.1572518
1123.00 0.1572098
1123.10 0.1571678
1123.20 0.1571258
1123.30 0.1570838
1123.40 0.1570419
1123.50 0.1569999
1123.60 0.156958
1123.70 0.1569161
1123.80 0.1568742
1123.90 0.1568323
1124.00 0.1567904
1124.10 0.1567486
1124.20 0.1567067
1124.30 0.1566649
1124.40 0.156623
1124.50 0.1565812
1124.60 0.1565394
1124.70 0.1564976
1124.80 0.1564558
1124.90 0.1564141
1125.00 0.1563723
1125.10 0.1563306
1125.20 0.1562889
1125.30 0.1562471
1125.40 0.1562054
1125.50 0.1561637
1125.60 0.1561221
1125.70 0.1560804
1125.80 0.1560387
1125.90 0.1559971
1126.00 0.1559555
1126.10 0.1559139
1126.20 0.1558722
1126.30 0.1558307
1126.40 0.1557891
1126.50 0.1557475
1126.60 0.155706
1126.70 0.1556644
1126.80 0.1556229
1126.90 0.1555814
1127.00 0.1555398
1127.10 0.1554984
1127.20 0.1554569
1127.30 0.1554154
1127.40 0.1553739
1127.50 0.1553325
1127.60 0.1552911
1127.70 0.1552496
1127.80 0.1552082
1127.90 0.1551668
1128.00 0.1551256
1128.10 0.1550843
1128.20 0.1550431
1128.30 0.1550019
1128.40 0.1549607
1128.50 0.1549195
1128.60 0.1548784
1128.70 0.1548372
1128.80 0.154796
1128.90 0.1547549
1129.00 0.1547138
1129.10 0.1546727
1129.20 0.1546316
1129.30 0.1545905
1129.40 0.1545494
1129.50 0.1545084
1129.60 0.1544673
1129.70 0.1544263
1129.80 0.1543852
1129.90 0.1543442
1130.00 0.1543032
1130.10 0.1542622
1130.20 0.1542213
1130.30 0.1541803
1130.40 0.1541393
1130.50 0.1540984
1130.60 0.1540575
1130.70 0.1540166
1130.80 0.1539757
1130.90 0.1539348
1131.00 0.1538939
1131.10 0.153853
1131.20 0.1538122
1131.30 0.1537713
1131.40 0.1537305
1131.50 0.1536897
1131.60 0.1536489
1131.70 0.1536081
1131.80 0.1535673
1131.90 0.1535265
1132.00 0.1534857
1132.10 0.153445
1132.20 0.1534043
1132.30 0.1533635
1132.40 0.1533228
1132.50 0.1532821
1132.60 0.1532414
1132.70 0.1532008
1132.80 0.1531601
1132.90 0.1531194
1133.00 0.1530788
1133.10 0.1530382
1133.20 0.1529975
1133.30 0.1529569
1133.40 0.1529164
1133.50 0.1528758
1133.60 0.1528352
1133.70 0.1527946
1133.80 0.1527541
1133.90 0.1527136
1134.00 0.152673
1134.10 0.1526325
1134.20 0.152592
1134.30 0.1525516
1134.40 0.1525111
1134.50 0.1524706
1134.60 0.1524302
1134.70 0.1523897
1134.80 0.1523493
1134.90 0.1523089
1135.00 0.1522685
1135.10 0.1522281
1135.20 0.1521877
1135.30 0.1521474
1135.40 0.152107
1135.50 0.1520667
1135.60 0.1520263
1135.70 0.151986
1135.80 0.1519457
1135.90 0.1519054
1136.00 0.1518651
1136.10 0.1518248
1136.20 0.1517846
1136.30 0.1517443
1136.40 0.1517041
1136.50 0.1516639
1136.60 0.1516237
1136.70 0.1515835
1136.80 0.1515433
1136.90 0.1515031
1137.00 0.1514629
1137.10 0.1514228
1137.20 0.1513826
1137.30 0.1513425
1137.40 0.1513024
1137.50 0.1512623
1137.60 0.1512222
1137.70 0.1511821
1137.80 0.151142
1137.90 0.151102
1138.00 0.1510619
1138.10 0.1510219
1138.20 0.1509819
1138.30 0.1509419
1138.40 0.1509019
1138.50 0.1508619
1138.60 0.1508219
1138.70 0.1507819
1138.80 0.150742
1138.90 0.150702
1139.00 0.1506621
1139.10 0.1506222
1139.20 0.1505823
1139.30 0.1505425
1139.40 0.1505028
1139.50 0.150463
1139.60 0.1504233
1139.70 0.1503836
1139.80 0.1503439
1139.90 0.1503042
1140.00 0.1502645
1140.10 0.1502248
1140.20 0.1501852
1140.30 0.1501455
1140.40 0.1501059
1140.50 0.1500663
1140.60 0.1500266
1140.70 0.149987
1140.80 0.1499474
1140.90 0.1499079
1141.00 0.1498683
1141.10 0.1498288
1141.20 0.1497892
1141.30 0.1497497
1141.40 0.1497102
1141.50 0.1496706
1141.60 0.1496312
1141.70 0.1495917
1141.80 0.1495522
1141.90 0.1495127
1142.00 0.1494733
1142.10 0.1494338
1142.20 0.1493944
1142.30 0.149355
1142.40 0.1493156
1142.50 0.1492762
1142.60 0.1492368
1142.70 0.1491975
1142.80 0.1491581
1142.90 0.1491187
1143.00 0.1490794
1143.10 0.1490401
1143.20 0.1490008
1143.30 0.1489615
1143.40 0.1489222
1143.50 0.1488829
1143.60 0.1488436
1143.70 0.1488044
1143.80 0.1487651
1143.90 0.1487259
1144.00 0.1486867
1144.10 0.1486475
1144.20 0.1486083
1144.30 0.1485691
1144.40 0.1485299
1144.50 0.1484908
1144.60 0.1484516
1144.70 0.1484125
1144.80 0.1483733
1144.90 0.1483342
1145.00 0.1482951
1145.10 0.148256
1145.20 0.1482169
1145.30 0.1481779
1145.40 0.1481388
1145.50 0.1480997
1145.60 0.1480607
1145.70 0.1480217
1145.80 0.1479827
1145.90 0.1479437
1146.00 0.1479047
1146.10 0.1478657
1146.20 0.1478267
1146.30 0.1477878
1146.40 0.1477488
1146.50 0.1477099
1146.60 0.147671
1146.70 0.147632
1146.80 0.1475931
1146.90 0.1475542
1147.00 0.1475154
1147.10 0.1474765
1147.20 0.1474376
1147.30 0.1473988
1147.40 0.14736
1147.50 0.1473211
1147.60 0.1472823
1147.70 0.1472435
1147.80 0.1472047
1147.90 0.147166
1148.00 0.1471272
1148.10 0.1470884
1148.20 0.1470497
1148.30 0.147011
1148.40 0.1469722
1148.50 0.1469335
1148.60 0.1468948
1148.70 0.1468561
1148.80 0.1468175
1148.90 0.1467788
1149.00 0.1467401
1149.10 0.1467015
1149.20 0.1466629
1149.30 0.1466243
1149.40 0.1465856
1149.50 0.146547
1149.60 0.1465085
1149.70 0.1464699
1149.80 0.1464313
1149.90 0.1463928
1150.00 0.1463542
1150.10 0.1463157
1150.20 0.1462772
1150.30 0.1462387
1150.40 0.1462002
1150.50 0.1461617
1150.60 0.1461232
1150.70 0.1460849
1150.80 0.1460466
1150.90 0.1460082
1151.00 0.1459699
1151.10 0.1459316
1151.20 0.1458934
1151.30 0.1458551
1151.40 0.1458168
1151.50 0.1457786
1151.60 0.1457404
1151.70 0.1457021
1151.80 0.1456639
1151.90 0.1456257
1152.00 0.1455875
1152.10 0.1455493
1152.20 0.1455112
1152.30 0.145473
1152.40 0.1454349
1152.50 0.1453967
1152.60 0.1453586
1152.70 0.1453205
1152.80 0.1452824
1152.90 0.1452443
1153.00 0.1452062
1153.10 0.1451681
1153.20 0.1451301
1153.30 0.145092
1153.40 0.145054
1153.50 0.145016
1153.60 0.1449779
1153.70 0.1449399
1153.80 0.144902
1153.90 0.144864
1154.00 0.144826
1154.10 0.144788
1154.20 0.1447501
1154.30 0.1447121
1154.40 0.1446742
1154.50 0.1446363
1154.60 0.1445984
1154.70 0.1445605
1154.80 0.1445226
1154.90 0.1444847
1155.00 0.1444469
1155.10 0.144409
1155.20 0.1443712
1155.30 0.1443334
1155.40 0.1442955
1155.50 0.1442577
1155.60 0.1442199
1155.70 0.1441822
1155.80 0.1441444
1155.90 0.1441066
1156.00 0.1440689
1156.10 0.1440311
1156.20 0.1439934
1156.30 0.1439557
1156.40 0.143917
1156.50 0.1438775
1156.60 0.1438379
1156.70 0.1437984
1156.80 0.143759
1156.90 0.1437195
1157.00 0.14368
1157.10 0.1436406
1157.20 0.1436011
1157.30 0.1435617
1157.40 0.1435223
1157.50 0.1434829
1157.60 0.1434435
1157.70 0.1434041
1157.80 0.1433647
1157.90 0.1433253
1158.00 0.143286
1158.10 0.1432467
1158.20 0.1432073
1158.30 0.143168
1158.40 0.1431287
1158.50 0.1430894
1158.60 0.1430501
1158.70 0.1430109
1158.80 0.1429716
1158.90 0.1429324
1159.00 0.1428931
1159.10 0.1428539
1159.20 0.1428147
1159.30 0.1427755
1159.40 0.1427363
1159.50 0.1426971
1159.60 0.1426579
1159.70 0.1426188
1159.80 0.1425796
1159.90 0.1425405
1160.00 0.1425014
1160.10 0.1424623
1160.20 0.1424232
1160.30 0.1423841
1160.40 0.142345
1160.50 0.1423059
1160.60 0.1422669
1160.70 0.1422278
1160.80 0.1421888
1160.90 0.1421498
1161.00 0.1421108
1161.10 0.1420718
1161.20 0.1420328
1161.30 0.1419938
1161.40 0.1419549
1161.50 0.1419159
1161.60 0.141877
1161.70 0.141838
1161.80 0.1417991
1161.90 0.1417602
1162.00 0.1417213
1162.10 0.1416824
1162.20 0.1416455
1162.30 0.1416086
1162.40 0.1415716
1162.50 0.1415347
1162.60 0.1414978
1162.70 0.141461
1162.80 0.1414241
1162.90 0.1413872
1163.00 0.1413504
1163.10 0.1413135
1163.20 0.1412767
1163.30 0.1412399
1163.40 0.141203
1163.50 0.1411662
1163.60 0.1411295
1163.70 0.1410927
1163.80 0.1410559
1163.90 0.1410191
1164.00 0.1409824
1164.10 0.1409457
1164.20 0.1409089
1164.30 0.1408722
1164.40 0.1408355
1164.50 0.1407988
1164.60 0.1407621
1164.70 0.1407254
1164.80 0.1406888
1164.90 0.1406521
1165.00 0.1406155
1165.10 0.1405789
1165.20 0.1405422
1165.30 0.1405056
1165.40 0.140469
1165.50 0.1404324
1165.60 0.1403958
1165.70 0.1403593
1165.80 0.1403227
1165.90 0.1402862
1166.00 0.1402496
1166.10 0.1402131
1166.20 0.1401766
1166.30 0.1401401
1166.40 0.1401036
1166.50 0.1400671
1166.60 0.1400306
1166.70 0.1399941
1166.80 0.1399577
1166.90 0.1399212
1167.00 0.1398848
1167.10 0.1398484
1167.20 0.139812
1167.30 0.1397756
1167.40 0.1397392
1167.50 0.1397028
1167.60 0.1396664
1167.70 0.1396301
1167.80 0.1395937
1167.90 0.1395574
1168.00 0.139521
1168.10 0.1394847
1168.20 0.1394484
1168.30 0.1394121
1168.40 0.1393758
1168.50 0.1393396
1168.60 0.1393033
1168.70 0.139267
1168.80 0.1392308
1168.90 0.1391946
1169.00 0.1391583
1169.10 0.1391221
1169.20 0.1390859
1169.30 0.1390497
1169.40 0.1390135
1169.50 0.1389774
1169.60 0.1389412
1169.70 0.1389051
1169.80 0.1388689
1169.90 0.1388328
1170.00 0.1387967
1170.10 0.1387606
1170.20 0.1387245
1170.30 0.1386884
1170.40 0.1386523
1170.50 0.1386162
1170.60 0.1385802
1170.70 0.1385441
1170.80 0.1385081
1170.90 0.138472
1171.00 0.138436
1171.10 0.1384
1171.20 0.138364
1171.30 0.138328
1171.40 0.1382921
1171.50 0.1382561
1171.60 0.1382201
1171.70 0.1381842
1171.80 0.1381483
1171.90 0.1381123
1172.00 0.1380764
1172.10 0.1380405
1172.20 0.1380046
1172.30 0.1379687
1172.40 0.1379329
1172.50 0.137897
1172.60 0.1378611
1172.70 0.1378253
1172.80 0.1377895
1172.90 0.1377536
1173.00 0.1377178
1173.10 0.137682
1173.20 0.1376462
1173.30 0.1376104
1173.40 0.1375747
1173.50 0.1375389
1173.60 0.1375032
1173.70 0.1374674
1173.80 0.1374318
1173.90 0.1373962
1174.00 0.1373606
1174.10 0.137325
1174.20 0.1372894
1174.30 0.1372539
1174.40 0.1372183
1174.50 0.1371828
1174.60 0.1371473
1174.70 0.1371117
1174.80 0.1370762
1174.90 0.1370407
1175.00 0.1370052
1175.10 0.1369698
1175.20 0.1369343
1175.30 0.1368988
1175.40 0.1368634
1175.50 0.1368279
1175.60 0.1367925
1175.70 0.1367571
1175.80 0.1367217
1175.90 0.1366863
1176.00 0.1366509
1176.10 0.1366155
1176.20 0.1365801
1176.30 0.1365448
1176.40 0.1365094
1176.50 0.1364741
1176.60 0.1364388
1176.70 0.1364034
1176.80 0.1363681
1176.90 0.1363328
1177.00 0.1362975
1177.10 0.1362623
1177.20 0.136227
1177.30 0.1361917
1177.40 0.1361565
1177.50 0.1361213
1177.60 0.136086
1177.70 0.1360508
1177.80 0.1360156
1177.90 0.1359804
1178.00 0.1359452
1178.10 0.13591
1178.20 0.1358749
1178.30 0.1358397
1178.40 0.1358046
1178.50 0.1357694
1178.60 0.1357343
1178.70 0.1356992
1178.80 0.1356641
1178.90 0.135629
1179.00 0.1355939
1179.10 0.1355588
1179.20 0.1355237
1179.30 0.1354887
1179.40 0.1354536
1179.50 0.1354186
1179.60 0.1353835
1179.70 0.1353485
1179.80 0.1353135
1179.90 0.1352785
1180.00 0.1352435
1180.10 0.1352086
1180.20 0.1351736
1180.30 0.1351386
1180.40 0.1351037
1180.50 0.1350687
1180.60 0.1350338
1180.70 0.1349989
1180.80 0.134964
1180.90 0.1349291
1181.00 0.1348942
1181.10 0.1348593
1181.20 0.1348245
1181.30 0.1347896
1181.40 0.1347547
1181.50 0.1347199
1181.60 0.1346851
1181.70 0.1346503
1181.80 0.1346154
1181.90 0.1345806
1182.00 0.1345459
1182.10 0.1345111
1182.20 0.1344763
1182.30 0.1344415
1182.40 0.1344068
1182.50 0.1343721
1182.60 0.1343373
1182.70 0.1343026
1182.80 0.1342679
1182.90 0.1342332
1183.00 0.1341985
1183.10 0.1341638
1183.20 0.1341291
1183.30 0.1340945
1183.40 0.1340598
1183.50 0.1340252
1183.60 0.1339905
1183.70 0.1339559
1183.80 0.1339213
1183.90 0.1338867
1184.00 0.1338521
1184.10 0.1338175
1184.20 0.133783
1184.30 0.1337484
1184.40 0.1337138
1184.50 0.1336793
1184.60 0.1336448
1184.70 0.1336102
1184.80 0.1335757
1184.90 0.1335412
1185.00 0.1335067
1185.10 0.1334722
1185.20 0.1334377
1185.30 0.1334033
1185.40 0.1333688
1185.50 0.1333344
1185.60 0.1333001
1185.70 0.1332658
1185.80 0.1332315
1185.90 0.1331972
1186.00 0.1331629
1186.10 0.1331286
1186.20 0.1330944
1186.30 0.1330601
1186.40 0.1330259
1186.50 0.1329917
1186.60 0.1329574
1186.70 0.1329232
1186.80 0.132889
1186.90 0.1328548
1187.00 0.1328206
1187.10 0.1327865
1187.20 0.1327523
1187.30 0.1327181
1187.40 0.132684
1187.50 0.1326498
1187.60 0.1326157
1187.70 0.1325816
1187.80 0.1325475
1187.90 0.1325134
1188.00 0.1324793
1188.10 0.1324452
1188.20 0.1324111
1188.30 0.1323771
1188.40 0.132343
1188.50 0.132309
1188.60 0.132275
1188.70 0.1322409
1188.80 0.1322069
1188.90 0.1321729
1189.00 0.1321389
1189.10 0.1321049
1189.20 0.132071
1189.30 0.132037
1189.40 0.1320031
1189.50 0.1319691
1189.60 0.1319352
1189.70 0.1319012
1189.80 0.1318673
1189.90 0.1318334
1190.00 0.1317995
1190.10 0.1317656
1190.20 0.1317318
1190.30 0.1316979
1190.40 0.131664
1190.50 0.1316302
1190.60 0.1315963
1190.70 0.1315625
1190.80 0.1315287
1190.90 0.1314949
1191.00 0.1314611
1191.10 0.1314273
1191.20 0.1313935
1191.30 0.1313597
1191.40 0.1313259
1191.50 0.1312922
1191.60 0.1312584
1191.70 0.1312247
1191.80 0.131191
1191.90 0.1311573
1192.00 0.1311236
1192.10 0.1310899
1192.20 0.1310562
1192.30 0.1310225
1192.40 0.1309888
1192.50 0.1309552
1192.60 0.1309215
1192.70 0.1308879
1192.80 0.1308542
1192.90 0.1308206
1193.00 0.130787
1193.10 0.1307534
1193.20 0.1307198
1193.30 0.1306862
1193.40 0.1306526
1193.50 0.1306191
1193.60 0.1305855
1193.70 0.130552
1193.80 0.1305184
1193.90 0.1304849
1194.00 0.1304514
1194.10 0.1304179
1194.20 0.1303844
1194.30 0.1303509
1194.40 0.1303174
1194.50 0.1302839
1194.60 0.1302504
1194.70 0.130217
1194.80 0.1301836
1194.90 0.1301501
1195.00 0.1301167
1195.10 0.1300833
1195.20 0.1300499
1195.30 0.1300165
1195.40 0.1299831
1195.50 0.1299497
1195.60 0.1299163
1195.70 0.129883
1195.80 0.1298496
1195.90 0.1298163
1196.00 0.1297829
1196.10 0.1297496
1196.20 0.1297163
1196.30 0.129683
1196.40 0.1296497
1196.50 0.1296164
1196.60 0.1295831
1196.70 0.1295499
1196.80 0.1295166
1196.90 0.1294834
1197.00 0.1294501
1197.10 0.1294169
1197.20 0.1293837
1197.30 0.1293505
1197.40 0.1293174
1197.50 0.1292843
1197.60 0.1292512
1197.70 0.1292182
1197.80 0.1291851
1197.90 0.1291521
1198.00 0.1291191
1198.10 0.129086
1198.20 0.129053
1198.30 0.12902
1198.40 0.128987
1198.50 0.128954
1198.60 0.1289211
1198.70 0.1288881
1198.80 0.1288551
1198.90 0.1288222
1199.00 0.1287893
1199.10 0.1287563
1199.20 0.1287234
1199.30 0.1286905
1199.40 0.1286576
1199.50 0.1286247
1199.60 0.1285918
1199.70 0.1285589
1199.80 0.1285261
1199.90 0.1284932
1200.00 0.1284604
