# Version 2.1 - nm, norm@500 to 1, cut digits, bergeron_He_9500_90.dat_9500
# Wavelength(nm)  Flambda(ergs/cm^s/s/nm)
300.00 1.846336
300.10 1.846172
300.20 1.846005
300.30 1.845845
300.40 1.845726
300.50 1.845607
300.60 1.845487
300.70 1.845368
300.80 1.845248
300.90 1.845128
301.00 1.845007
301.10 1.844886
301.20 1.844765
301.30 1.844644
301.40 1.844523
301.50 1.844401
301.60 1.844279
301.70 1.844157
301.80 1.844035
301.90 1.843912
302.00 1.843789
302.10 1.843599
302.20 1.843401
302.30 1.843203
302.40 1.843004
302.50 1.842806
302.60 1.842607
302.70 1.842409
302.80 1.84221
302.90 1.842011
303.00 1.841812
303.10 1.841612
303.20 1.841413
303.30 1.841213
303.40 1.841004
303.50 1.840795
303.60 1.840586
303.70 1.840376
303.80 1.840167
303.90 1.839957
304.00 1.839748
304.10 1.839538
304.20 1.839328
304.30 1.839118
304.40 1.838908
304.50 1.838698
304.60 1.838514
304.70 1.838332
304.80 1.83815
304.90 1.837969
305.00 1.837787
305.10 1.837605
305.20 1.837422
305.30 1.83724
305.40 1.837058
305.50 1.836875
305.60 1.836692
305.70 1.836509
305.80 1.836326
305.90 1.836142
306.00 1.835959
306.10 1.835775
306.20 1.835592
306.30 1.835408
306.40 1.83522
306.50 1.835032
306.60 1.834843
306.70 1.834654
306.80 1.834465
306.90 1.834276
307.00 1.834087
307.10 1.833898
307.20 1.833708
307.30 1.833518
307.40 1.833329
307.50 1.833139
307.60 1.832948
307.70 1.832758
307.80 1.832568
307.90 1.832377
308.00 1.832187
308.10 1.831996
308.20 1.831805
308.30 1.831614
308.40 1.831423
308.50 1.831231
308.60 1.83104
308.70 1.830848
308.80 1.830542
308.90 1.829909
309.00 1.829726
309.10 1.829542
309.20 1.829359
309.30 1.829175
309.40 1.828983
309.50 1.828733
309.60 1.828484
309.70 1.828234
309.80 1.827985
309.90 1.827735
310.00 1.827486
310.10 1.827236
310.20 1.826986
310.30 1.826737
310.40 1.826524
310.50 1.826353
310.60 1.826181
310.70 1.82601
310.80 1.825838
310.90 1.825666
311.00 1.825409
311.10 1.825153
311.20 1.824896
311.30 1.824637
311.40 1.824372
311.50 1.824107
311.60 1.823841
311.70 1.823576
311.80 1.823311
311.90 1.823045
312.00 1.82278
312.10 1.822514
312.20 1.822409
312.30 1.822187
312.40 1.821776
312.50 1.821473
312.60 1.82122
312.70 1.820968
312.80 1.820716
312.90 1.820488
313.00 1.820289
313.10 1.820088
313.20 1.819888
313.30 1.81968
313.40 1.81945
313.50 1.819219
313.60 1.818989
313.70 1.818758
313.80 1.818528
313.90 1.818297
314.00 1.818066
314.10 1.817778
314.20 1.817489
314.30 1.817201
314.40 1.816913
314.50 1.816624
314.60 1.816336
314.70 1.816048
314.80 1.815758
314.90 1.815485
315.00 1.815236
315.10 1.814975
315.20 1.814715
315.30 1.814454
315.40 1.814193
315.50 1.813932
315.60 1.813671
315.70 1.813355
315.80 1.813038
315.90 1.812722
316.00 1.812405
316.10 1.812255
316.20 1.812105
316.30 1.811954
316.40 1.811472
316.50 1.811321
316.60 1.810839
316.70 1.810688
316.80 1.810537
316.90 1.810221
317.00 1.809905
317.10 1.809588
317.20 1.809272
317.30 1.809268
317.40 1.80917
317.50 1.808803
317.60 1.808436
317.70 1.80807
317.80 1.807703
317.90 1.80743
318.00 1.806999
318.10 1.806847
318.20 1.806694
318.30 1.806542
318.40 1.806304
318.50 1.805824
318.60 1.8056
318.70 1.805349
318.80 1.804869
318.90 1.804488
319.00 1.804166
319.10 1.804013
319.20 1.80383
319.30 1.803561
319.40 1.803292
319.50 1.803024
319.60 1.802566
319.70 1.802297
319.80 1.802029
319.90 1.80176
320.00 1.801547
320.10 1.801393
320.20 1.801063
320.30 1.800748
320.40 1.800465
320.50 1.799987
320.60 1.79982
320.70 1.799343
320.80 1.798944
320.90 1.798628
321.00 1.798313
321.10 1.797998
321.20 1.798142
321.30 1.797802
321.40 1.797461
321.50 1.797121
321.60 1.796781
321.70 1.79644
321.80 1.796143
321.90 1.795893
322.00 1.795192
322.10 1.794873
322.20 1.794554
322.30 1.794235
322.40 1.793916
322.50 1.793598
322.60 1.793279
322.70 1.79296
322.80 1.793105
322.90 1.792785
323.00 1.792466
323.10 1.792148
323.20 1.791829
323.30 1.79151
323.40 1.791191
323.50 1.790872
323.60 1.790554
323.70 1.790235
323.80 1.789916
323.90 1.789598
324.00 1.789338
324.10 1.789079
324.20 1.78882
324.30 1.788341
324.40 1.787647
324.50 1.787395
324.60 1.787143
324.70 1.786891
324.80 1.786638
324.90 1.786386
325.00 1.786134
325.10 1.785882
325.20 1.785569
325.30 1.785127
325.40 1.784685
325.50 1.784304
325.60 1.783996
325.70 1.783689
325.80 1.783382
325.90 1.783052
326.00 1.782698
326.10 1.782344
326.20 1.781991
326.30 1.781702
326.40 1.7816
326.50 1.781237
326.60 1.780875
326.70 1.780513
326.80 1.780151
326.90 1.779789
327.00 1.779428
327.10 1.779066
327.20 1.778705
327.30 1.778343
327.40 1.777982
327.50 1.777621
327.60 1.77726
327.70 1.776899
327.80 1.776538
327.90 1.776405
328.00 1.77628
328.10 1.775862
328.20 1.775444
328.30 1.775026
328.40 1.774608
328.50 1.774215
328.60 1.773828
328.70 1.773441
328.80 1.773077
328.90 1.772778
329.00 1.77248
329.10 1.772181
329.20 1.771882
329.30 1.771583
329.40 1.771285
329.50 1.770986
329.60 1.770688
329.70 1.770389
329.80 1.770091
329.90 1.769792
330.00 1.769422
330.10 1.768964
330.20 1.768506
330.30 1.768048
330.40 1.76764
330.50 1.767287
330.60 1.766933
330.70 1.76658
330.80 1.766227
330.90 1.765874
331.00 1.765521
331.10 1.765168
331.20 1.764816
331.30 1.764463
331.40 1.764111
331.50 1.763765
331.60 1.763429
331.70 1.763093
331.80 1.762744
331.90 1.762396
332.00 1.762047
332.10 1.761699
332.20 1.761351
332.30 1.761003
332.40 1.760655
332.50 1.760307
332.60 1.759959
332.70 1.759611
332.80 1.759263
332.90 1.758916
333.00 1.758568
333.10 1.758198
333.20 1.757801
333.30 1.757403
333.40 1.757006
333.50 1.756609
333.60 1.756212
333.70 1.755815
333.80 1.755418
333.90 1.755022
334.00 1.754625
334.10 1.754247
334.20 1.753891
334.30 1.753534
334.40 1.753178
334.50 1.752822
334.60 1.752466
334.70 1.752055
334.80 1.751623
334.90 1.751254
335.00 1.750886
335.10 1.75084
335.20 1.750387
335.30 1.750258
335.40 1.749583
335.50 1.749351
335.60 1.748898
335.70 1.74871
335.80 1.748257
335.90 1.747804
336.00 1.747352
336.10 1.7469
336.20 1.746448
336.30 1.74604
336.40 1.745687
336.50 1.745333
336.60 1.744979
336.70 1.744626
336.80 1.744273
336.90 1.743938
337.00 1.743627
337.10 1.743315
337.20 1.743004
337.30 1.742637
337.40 1.742191
337.50 1.741745
337.60 1.7413
337.70 1.740855
337.80 1.74041
337.90 1.740006
338.00 1.739652
338.10 1.739298
338.20 1.738944
338.30 1.73859
338.40 1.738231
338.50 1.737856
338.60 1.737482
338.70 1.737107
338.80 1.736733
338.90 1.736359
339.00 1.735985
339.10 1.735611
339.20 1.735238
339.30 1.734839
339.40 1.734405
339.50 1.733985
339.60 1.733581
339.70 1.733178
339.80 1.732776
339.90 1.732373
340.00 1.73197
340.10 1.731568
340.20 1.731166
340.30 1.730764
340.40 1.730362
340.50 1.72996
340.60 1.729559
340.70 1.729157
340.80 1.728744
340.90 1.728313
341.00 1.727908
341.10 1.727537
341.20 1.727166
341.30 1.726795
341.40 1.726424
341.50 1.726053
341.60 1.725683
341.70 1.725312
341.80 1.724955
341.90 1.724614
342.00 1.724273
342.10 1.723932
342.20 1.723458
342.30 1.722778
342.40 1.722284
342.50 1.721943
342.60 1.721602
342.70 1.721261
342.80 1.72092
342.90 1.72058
343.00 1.720192
343.10 1.719748
343.20 1.719304
343.30 1.71886
343.40 1.718418
343.50 1.717981
343.60 1.717543
343.70 1.717105
343.80 1.716668
343.90 1.716231
344.00 1.715852
344.10 1.715555
344.20 1.715259
344.30 1.714962
344.40 1.714609
344.50 1.714172
344.60 1.713521
344.70 1.713072
344.80 1.712651
344.90 1.712494
345.00 1.711995
345.10 1.711561
345.20 1.711129
345.30 1.710702
345.40 1.710276
345.50 1.709836
345.60 1.70939
345.70 1.708956
345.80 1.708523
345.90 1.70809
346.00 1.707657
346.10 1.707225
346.20 1.706815
346.30 1.706438
346.40 1.706061
346.50 1.705685
346.60 1.705308
346.70 1.704932
346.80 1.704556
346.90 1.70418
347.00 1.703804
347.10 1.703429
347.20 1.703036
347.30 1.702619
347.40 1.702202
347.50 1.701785
347.60 1.701368
347.70 1.700952
347.80 1.700536
347.90 1.70012
348.00 1.699704
348.10 1.699288
348.20 1.698873
348.30 1.698457
348.40 1.698042
348.50 1.697627
348.60 1.697213
348.70 1.696681
348.80 1.69617
348.90 1.695743
349.00 1.695316
349.10 1.69489
349.20 1.694464
349.30 1.694037
349.40 1.693612
349.50 1.693186
349.60 1.69276
349.70 1.692335
349.80 1.69191
349.90 1.691485
350.00 1.69106
350.10 1.690636
350.20 1.690212
350.30 1.689787
350.40 1.68936
350.50 1.688934
350.60 1.688508
350.70 1.688083
350.80 1.687657
350.90 1.687232
351.00 1.686807
351.10 1.686382
351.20 1.685958
351.30 1.685533
351.40 1.685098
351.50 1.684644
351.60 1.684189
351.70 1.683735
351.80 1.683281
351.90 1.682827
352.00 1.682374
352.10 1.681921
352.20 1.681662
352.30 1.681339
352.40 1.680891
352.50 1.680444
352.60 1.679996
352.70 1.679549
352.80 1.679103
352.90 1.678656
353.00 1.67821
353.10 1.677764
353.20 1.677318
353.30 1.676872
353.40 1.676427
353.50 1.675962
353.60 1.675492
353.70 1.675023
353.80 1.674554
353.90 1.674105
354.00 1.673692
354.10 1.673279
354.20 1.672866
354.30 1.672453
354.40 1.672041
354.50 1.671629
354.60 1.671217
354.70 1.670805
354.80 1.670372
354.90 1.669909
355.00 1.669446
355.10 1.668983
355.20 1.668521
355.30 1.66807
355.40 1.667619
355.50 1.667168
355.60 1.666718
355.70 1.666242
355.80 1.665756
355.90 1.665444
356.00 1.665073
356.10 1.664609
356.20 1.664146
356.30 1.663682
356.40 1.663219
356.50 1.662756
356.60 1.662294
356.70 1.661831
356.80 1.661369
356.90 1.660908
357.00 1.660446
357.10 1.659985
357.20 1.659524
357.30 1.659063
357.40 1.658601
357.50 1.658137
357.60 1.657673
357.70 1.657209
357.80 1.656754
357.90 1.6563
358.00 1.655865
358.10 1.655437
358.20 1.655008
358.30 1.654579
358.40 1.654151
358.50 1.653723
358.60 1.653295
358.70 1.652867
358.80 1.65244
358.90 1.652013
359.00 1.651575
359.10 1.651116
359.20 1.650656
359.30 1.650178
359.40 1.649701
359.50 1.649312
359.60 1.648945
359.70 1.648578
359.80 1.64805
359.90 1.647522
360.00 1.647027
360.10 1.646589
360.20 1.646151
360.30 1.645713
360.40 1.645276
360.50 1.644839
360.60 1.644579
360.70 1.64405
360.80 1.643521
360.90 1.642993
361.00 1.642655
361.10 1.642209
361.20 1.641526
361.30 1.641126
361.40 1.640701
361.50 1.640327
361.60 1.639602
361.70 1.639203
361.80 1.638835
361.90 1.638524
362.00 1.638212
362.10 1.637707
362.20 1.637187
362.30 1.636727
362.40 1.636267
362.50 1.635808
362.60 1.635348
362.70 1.634816
362.80 1.634139
362.90 1.633739
363.00 1.633341
363.10 1.632901
363.20 1.632462
363.30 1.632158
363.40 1.631385
363.50 1.631367
363.60 1.63072
363.70 1.630353
363.80 1.62968
363.90 1.629262
364.00 1.628844
364.10 1.628426
364.20 1.628008
364.30 1.627432
364.40 1.626817
364.50 1.626429
364.60 1.626034
364.70 1.62564
364.80 1.625246
364.90 1.624854
365.00 1.624462
365.10 1.623821
365.20 1.623429
365.30 1.622789
365.40 1.622398
365.50 1.622007
365.60 1.621617
365.70 1.621181
365.80 1.620746
365.90 1.62017
366.00 1.61956
366.10 1.619162
366.20 1.618765
366.30 1.618367
366.40 1.61797
366.50 1.617121
366.60 1.616732
366.70 1.616225
366.80 1.615717
366.90 1.615235
367.00 1.614798
367.10 1.614361
367.20 1.613925
367.30 1.613489
367.40 1.613053
367.50 1.6127
367.60 1.612368
367.70 1.611879
367.80 1.61139
367.90 1.610901
368.00 1.610335
368.10 1.609944
368.20 1.609457
368.30 1.608968
368.40 1.608479
368.50 1.60799
368.60 1.607502
368.70 1.607014
368.80 1.606527
368.90 1.606215
369.00 1.605734
369.10 1.605133
369.20 1.604753
369.30 1.604208
369.40 1.603664
369.50 1.60312
369.60 1.602736
369.70 1.602353
369.80 1.601881
369.90 1.601408
370.00 1.600935
370.10 1.600349
370.20 1.599964
370.30 1.599584
370.40 1.598955
370.50 1.598582
370.60 1.597967
370.70 1.597588
370.80 1.597206
370.90 1.596825
371.00 1.596209
371.10 1.595591
371.20 1.595211
371.30 1.594831
371.40 1.594138
371.50 1.593728
371.60 1.593318
371.70 1.592908
371.80 1.592498
371.90 1.592088
372.00 1.591374
372.10 1.590861
372.20 1.590406
372.30 1.58995
372.40 1.589495
372.50 1.589041
372.60 1.588586
372.70 1.588132
372.80 1.587755
372.90 1.587379
373.00 1.58677
373.10 1.586159
373.20 1.585785
373.30 1.585412
373.40 1.584801
373.50 1.584428
373.60 1.583818
373.70 1.583446
373.80 1.582703
373.90 1.582227
374.00 1.581855
374.10 1.581484
374.20 1.581113
374.30 1.580742
374.40 1.580193
374.50 1.579527
374.60 1.579036
374.70 1.578549
374.80 1.578062
374.90 1.577575
375.00 1.577206
375.10 1.576836
375.20 1.576467
375.30 1.575964
375.40 1.575461
375.50 1.574958
375.60 1.574456
375.70 1.573953
375.80 1.573451
375.90 1.57295
376.00 1.572578
376.10 1.57205
376.20 1.571521
376.30 1.570992
376.40 1.570464
376.50 1.569942
376.60 1.569431
376.70 1.568921
376.80 1.568467
376.90 1.568071
377.00 1.567674
377.10 1.567278
377.20 1.566852
377.30 1.566312
377.40 1.565772
377.50 1.565233
377.60 1.564708
377.70 1.564183
377.80 1.563658
377.90 1.563134
378.00 1.562941
378.10 1.562445
378.20 1.561941
378.30 1.561438
378.40 1.560934
378.50 1.560431
378.60 1.559929
378.70 1.559426
378.80 1.558924
378.90 1.55843
379.00 1.55795
379.10 1.557498
379.20 1.557046
379.30 1.556558
379.40 1.556035
379.50 1.555512
379.60 1.555026
379.70 1.554583
379.80 1.5541
379.90 1.553618
380.00 1.553136
380.10 1.552654
380.20 1.552173
380.30 1.551691
380.40 1.55121
380.50 1.55073
380.60 1.550501
380.70 1.549999
380.80 1.549497
380.90 1.548996
381.00 1.548494
381.10 1.547967
381.20 1.54753
381.30 1.546972
381.40 1.546324
381.50 1.545981
381.60 1.545605
381.70 1.545098
381.80 1.544744
381.90 1.543935
382.00 1.543581
382.10 1.543228
382.20 1.542511
382.30 1.541932
382.40 1.541447
382.50 1.541106
382.60 1.540765
382.70 1.540205
382.80 1.539559
382.90 1.539072
383.00 1.538584
383.10 1.538097
383.20 1.537649
383.30 1.537346
383.40 1.536973
383.50 1.536494
383.60 1.535719
383.70 1.535216
383.80 1.534713
383.90 1.53421
384.00 1.533708
384.10 1.533205
384.20 1.532704
384.30 1.532202
384.40 1.53171
384.50 1.531227
384.60 1.530745
384.70 1.530263
384.80 1.529825
384.90 1.529503
385.00 1.529093
385.10 1.528675
385.20 1.527988
385.30 1.527422
385.40 1.526899
385.50 1.526419
385.60 1.52594
385.70 1.525461
385.80 1.524971
385.90 1.524442
386.00 1.52394
386.10 1.523469
386.20 1.523024
386.30 1.522579
386.40 1.522071
386.50 1.521619
386.60 1.521276
386.70 1.520822
386.80 1.520147
386.90 1.519805
387.00 1.519252
387.10 1.518677
387.20 1.518336
387.30 1.517994
387.40 1.517325
387.50 1.51687
387.60 1.516157
387.70 1.515706
387.80 1.515255
387.90 1.514805
388.00 1.514393
388.10 1.513946
388.20 1.513305
388.30 1.512806
388.40 1.512306
388.50 1.511844
388.60 1.511371
388.70 1.51099
388.80 1.51042
388.90 1.509917
389.00 1.50958
389.10 1.508984
389.20 1.508467
389.30 1.507849
389.40 1.507524
389.50 1.507166
389.60 1.506683
389.70 1.506013
389.80 1.505538
389.90 1.505063
390.00 1.504588
390.10 1.504113
390.20 1.503639
390.30 1.503149
390.40 1.502642
390.50 1.502135
390.60 1.501629
390.70 1.501123
390.80 1.500608
390.90 1.500086
391.00 1.499876
391.10 1.49932
391.20 1.49872
391.30 1.49809
391.40 1.497613
391.50 1.497137
391.60 1.496661
391.70 1.496185
391.80 1.49571
391.90 1.495289
392.00 1.494843
392.10 1.494267
392.20 1.493741
392.30 1.493492
392.40 1.493015
392.50 1.492255
392.60 1.491925
392.70 1.491241
392.80 1.490836
392.90 1.490238
393.00 1.489937
393.10 1.489421
393.20 1.488702
393.30 1.488374
393.40 1.488008
393.50 1.487251
393.60 1.486924
393.70 1.486479
393.80 1.485861
393.90 1.485321
394.00 1.484824
394.10 1.484537
394.20 1.484001
394.30 1.483542
394.40 1.483067
394.50 1.482706
394.60 1.482193
394.70 1.481671
394.80 1.481116
394.90 1.480569
395.00 1.480231
395.10 1.479482
395.20 1.478954
395.30 1.478483
395.40 1.478012
395.50 1.477591
395.60 1.477189
395.70 1.476766
395.80 1.476286
395.90 1.475807
396.00 1.475304
396.10 1.474616
396.20 1.474083
396.30 1.473493
396.40 1.473172
396.50 1.472783
396.60 1.472109
396.70 1.471789
396.80 1.471218
396.90 1.470727
397.00 1.470407
397.10 1.469667
397.20 1.469347
397.30 1.468679
397.40 1.468204
397.50 1.46773
397.60 1.467259
397.70 1.466819
397.80 1.466379
397.90 1.465899
398.00 1.465312
398.10 1.464726
398.20 1.464231
398.30 1.463838
398.40 1.463446
398.50 1.463033
398.60 1.462386
398.70 1.461788
398.80 1.461226
398.90 1.460712
399.00 1.460289
399.10 1.459991
399.20 1.459451
399.30 1.458911
399.40 1.458371
399.50 1.457832
399.60 1.457347
399.70 1.456883
399.80 1.45642
399.90 1.455956
400.00 1.455495
400.10 1.455086
400.20 1.454445
400.30 1.45398
400.40 1.453582
400.50 1.453094
400.60 1.45252
400.70 1.452002
400.80 1.451674
400.90 1.451022
401.00 1.450711
401.10 1.449988
401.20 1.449589
401.30 1.448955
401.40 1.448456
401.50 1.44804
401.60 1.447624
401.70 1.447219
401.80 1.446584
401.90 1.446079
402.00 1.445571
402.10 1.445248
402.20 1.444529
402.30 1.444221
402.40 1.443783
402.50 1.443196
402.60 1.442888
402.70 1.442172
402.80 1.441865
402.90 1.441313
403.00 1.440802
403.10 1.440128
403.20 1.439831
403.30 1.439431
403.40 1.438802
403.50 1.43828
403.60 1.437818
403.70 1.437479
403.80 1.436774
403.90 1.436294
404.00 1.435752
404.10 1.435448
404.20 1.434941
404.30 1.434434
404.40 1.433725
404.50 1.433421
404.60 1.432916
404.70 1.43241
404.80 1.431714
404.90 1.4314
405.00 1.431011
405.10 1.430507
405.20 1.429946
405.30 1.429384
405.40 1.428881
405.50 1.428378
405.60 1.427876
405.70 1.427374
405.80 1.426872
405.90 1.42637
406.00 1.425911
406.10 1.425451
406.20 1.424992
406.30 1.424534
406.40 1.424068
406.50 1.423469
406.60 1.423069
406.70 1.422494
406.80 1.421952
406.90 1.421779
407.00 1.421281
407.10 1.420783
407.20 1.420285
407.30 1.419788
407.40 1.419291
407.50 1.418794
407.60 1.418298
407.70 1.417802
407.80 1.417306
407.90 1.416811
408.00 1.416334
408.10 1.415815
408.20 1.415225
408.30 1.414661
408.40 1.414098
408.50 1.413839
408.60 1.413284
408.70 1.41273
408.80 1.412212
408.90 1.411904
409.00 1.411366
409.10 1.410829
409.20 1.410291
409.30 1.409754
409.40 1.409222
409.50 1.408813
409.60 1.408405
409.70 1.407977
409.80 1.407472
409.90 1.406962
410.00 1.406276
410.10 1.405919
410.20 1.405423
410.30 1.404892
410.40 1.404386
410.50 1.403961
410.60 1.403537
410.70 1.403092
410.80 1.402568
410.90 1.402045
411.00 1.401568
411.10 1.401109
411.20 1.40065
411.30 1.400147
411.40 1.39947
411.50 1.398929
411.60 1.398387
411.70 1.397858
411.80 1.397375
411.90 1.397048
412.00 1.396566
412.10 1.396181
412.20 1.395602
412.30 1.394991
412.40 1.394638
412.50 1.394018
412.60 1.393621
412.70 1.393123
412.80 1.392599
412.90 1.392056
413.00 1.391793
413.10 1.391274
413.20 1.390755
413.30 1.390236
413.40 1.389718
413.50 1.38925
413.60 1.388908
413.70 1.388334
413.80 1.38776
413.90 1.387186
414.00 1.386636
414.10 1.38616
414.20 1.38587
414.30 1.385356
414.40 1.384687
414.50 1.384406
414.60 1.383784
414.70 1.38331
414.80 1.382836
414.90 1.382362
415.00 1.381889
415.10 1.381415
415.20 1.380925
415.30 1.38038
415.40 1.379835
415.50 1.379296
415.60 1.378907
415.70 1.378519
415.80 1.378096
415.90 1.377559
416.00 1.377023
416.10 1.376499
416.20 1.376022
416.30 1.375544
416.40 1.375067
416.50 1.374591
416.60 1.374122
416.70 1.373648
416.80 1.372989
416.90 1.372712
417.00 1.372054
417.10 1.371783
417.20 1.371316
417.30 1.370848
417.40 1.370326
417.50 1.369804
417.60 1.369256
417.70 1.368606
417.80 1.368141
417.90 1.367676
418.00 1.367212
418.10 1.366748
418.20 1.366284
418.30 1.365815
418.40 1.365201
418.50 1.364714
418.60 1.364226
418.70 1.363739
418.80 1.363252
418.90 1.362766
419.00 1.362279
419.10 1.361793
419.20 1.361308
419.30 1.360822
419.40 1.360306
419.50 1.359791
419.60 1.3593
419.70 1.358907
419.80 1.358514
419.90 1.358096
420.00 1.357597
420.10 1.357098
420.20 1.356599
420.30 1.356101
420.40 1.355603
420.50 1.355105
420.60 1.354608
420.70 1.354111
420.80 1.353614
420.90 1.353118
421.00 1.35261
421.10 1.352102
421.20 1.351601
421.30 1.351119
421.40 1.350638
421.50 1.350157
421.60 1.349677
421.70 1.349196
421.80 1.348716
421.90 1.348242
422.00 1.347786
422.10 1.347317
422.20 1.346796
422.30 1.346276
422.40 1.345757
422.50 1.34527
422.60 1.344784
422.70 1.344298
422.80 1.343812
422.90 1.343327
423.00 1.342841
423.10 1.342357
423.20 1.341872
423.30 1.341388
423.40 1.340904
423.50 1.34042
423.60 1.339937
423.70 1.339454
423.80 1.338971
423.90 1.338489
424.00 1.338007
424.10 1.337525
424.20 1.337044
424.30 1.336563
424.40 1.336051
424.50 1.33557
424.60 1.33509
424.70 1.33461
424.80 1.33413
424.90 1.333651
425.00 1.333172
425.10 1.332693
425.20 1.332214
425.30 1.331736
425.40 1.331258
425.50 1.330778
425.60 1.330298
425.70 1.329819
425.80 1.32934
425.90 1.328861
426.00 1.328382
426.10 1.327904
426.20 1.327426
426.30 1.326949
426.40 1.326472
426.50 1.325995
426.60 1.325518
426.70 1.325041
426.80 1.324565
426.90 1.324089
427.00 1.323604
427.10 1.323118
427.20 1.322633
427.30 1.322148
427.40 1.321664
427.50 1.32118
427.60 1.320696
427.70 1.320212
427.80 1.319729
427.90 1.319246
428.00 1.318763
428.10 1.318281
428.20 1.317799
428.30 1.317317
428.40 1.316836
428.50 1.316355
428.60 1.315874
428.70 1.315393
428.80 1.314913
428.90 1.31443
429.00 1.313947
429.10 1.313464
429.20 1.312982
429.30 1.3125
429.40 1.312018
429.50 1.311537
429.60 1.311056
429.70 1.310575
429.80 1.310095
429.90 1.309615
430.00 1.309135
430.10 1.308655
430.20 1.308176
430.30 1.307697
430.40 1.307218
430.50 1.30674
430.60 1.306262
430.70 1.305784
430.80 1.305307
430.90 1.30483
431.00 1.304353
431.10 1.303877
431.20 1.3034
431.30 1.302924
431.40 1.302445
431.50 1.301966
431.60 1.301488
431.70 1.301009
431.80 1.300531
431.90 1.300054
432.00 1.299576
432.10 1.299099
432.20 1.298623
432.30 1.298146
432.40 1.29767
432.50 1.297194
432.60 1.296719
432.70 1.296244
432.80 1.295769
432.90 1.295294
433.00 1.29482
433.10 1.294346
433.20 1.293872
433.30 1.2934
433.40 1.292957
433.50 1.292513
433.60 1.29207
433.70 1.291627
433.80 1.291115
433.90 1.29052
434.00 1.290002
434.10 1.289532
434.20 1.289061
434.30 1.288591
434.40 1.288121
434.50 1.287652
434.60 1.287183
434.70 1.286714
434.80 1.286245
434.90 1.285773
435.00 1.285302
435.10 1.284831
435.20 1.284361
435.30 1.283891
435.40 1.283421
435.50 1.282951
435.60 1.282482
435.70 1.282012
435.80 1.281544
435.90 1.281075
436.00 1.280607
436.10 1.280139
436.20 1.279672
436.30 1.279151
436.40 1.278574
436.50 1.278127
436.60 1.27768
436.70 1.277233
436.80 1.276786
436.90 1.27634
437.00 1.275894
437.10 1.275448
437.20 1.274931
437.30 1.274348
437.40 1.273774
437.50 1.273307
437.60 1.272841
437.70 1.272375
437.80 1.271909
437.90 1.271443
438.00 1.270979
438.10 1.270531
438.20 1.270083
438.30 1.269645
438.40 1.269342
438.50 1.268764
438.60 1.268185
438.70 1.26784
438.80 1.267374
438.90 1.266797
439.00 1.266231
439.10 1.265827
439.20 1.265417
439.30 1.264927
439.40 1.264437
439.50 1.263947
439.60 1.263452
439.70 1.263044
439.80 1.262682
439.90 1.262186
440.00 1.261691
440.10 1.261196
440.20 1.260702
440.30 1.260233
440.40 1.259763
440.50 1.259294
440.60 1.258825
440.70 1.258356
440.80 1.257888
440.90 1.257419
441.00 1.256952
441.10 1.256484
441.20 1.25601
441.30 1.255441
441.40 1.254924
441.50 1.254472
441.60 1.25402
441.70 1.253508
441.80 1.253044
441.90 1.252581
442.00 1.252118
442.10 1.251655
442.20 1.251193
442.30 1.250731
442.40 1.250272
442.50 1.249819
442.60 1.249365
442.70 1.248969
442.80 1.248642
442.90 1.248078
443.00 1.247593
443.10 1.247205
443.20 1.246727
443.30 1.246164
443.40 1.245678
443.50 1.245285
443.60 1.244817
443.70 1.244256
443.80 1.243695
443.90 1.243471
444.00 1.242911
444.10 1.242352
444.20 1.241792
444.30 1.24157
444.40 1.241011
444.50 1.240453
444.60 1.239973
444.70 1.239589
444.80 1.239158
444.90 1.238684
445.00 1.238209
445.10 1.237735
445.20 1.237275
445.30 1.236833
445.40 1.23639
445.50 1.235948
445.60 1.235506
445.70 1.235064
445.80 1.234607
445.90 1.234135
446.00 1.233664
446.10 1.233193
446.20 1.232685
446.30 1.232133
446.40 1.231624
446.50 1.231156
446.60 1.230688
446.70 1.23022
446.80 1.229796
446.90 1.229411
447.00 1.228941
447.10 1.228391
447.20 1.227842
447.30 1.227625
447.40 1.227076
447.50 1.226528
447.60 1.226093
447.70 1.225763
447.80 1.225216
447.90 1.224669
448.00 1.22418
448.10 1.223743
448.20 1.223307
448.30 1.222872
448.40 1.222437
448.50 1.222001
448.60 1.221509
448.70 1.220965
448.80 1.220431
448.90 1.22003
449.00 1.219629
449.10 1.219228
449.20 1.218828
449.30 1.218364
449.40 1.217822
449.50 1.21728
449.60 1.216784
449.70 1.21633
449.80 1.215876
449.90 1.215423
450.00 1.21497
450.10 1.214518
450.20 1.214065
450.30 1.213613
450.40 1.213183
450.50 1.212754
450.60 1.212324
450.70 1.211895
450.80 1.211467
450.90 1.211038
451.00 1.210501
451.10 1.209965
451.20 1.209428
451.30 1.208892
451.40 1.20852
451.50 1.208147
451.60 1.207612
451.70 1.207078
451.80 1.206868
451.90 1.206334
452.00 1.205801
452.10 1.205267
452.20 1.204815
452.30 1.204364
452.40 1.203912
452.50 1.203461
452.60 1.203149
452.70 1.202759
452.80 1.2023
452.90 1.201841
453.00 1.201381
453.10 1.200923
453.20 1.200442
453.30 1.199962
453.40 1.199482
453.50 1.199002
453.60 1.198523
453.70 1.198044
453.80 1.197585
453.90 1.197151
454.00 1.196717
454.10 1.196283
454.20 1.195815
454.30 1.195347
454.40 1.19488
454.50 1.194413
454.60 1.193946
454.70 1.193481
454.80 1.193017
454.90 1.192553
455.00 1.19209
455.10 1.191627
455.20 1.191165
455.30 1.190702
455.40 1.19024
455.50 1.189779
455.60 1.189317
455.70 1.188856
455.80 1.18842
455.90 1.187984
456.00 1.187549
456.10 1.187107
456.20 1.186646
456.30 1.186185
456.40 1.185724
456.50 1.185264
456.60 1.184804
456.70 1.184345
456.80 1.183886
456.90 1.183426
457.00 1.182968
457.10 1.182509
457.20 1.18202
457.30 1.18157
457.40 1.18112
457.50 1.18067
457.60 1.180221
457.70 1.179772
457.80 1.179323
457.90 1.178874
458.00 1.178426
458.10 1.177978
458.20 1.17753
458.30 1.177083
458.40 1.176636
458.50 1.176189
458.60 1.175742
458.70 1.175288
458.80 1.174831
458.90 1.174374
459.00 1.173918
459.10 1.173461
459.20 1.173005
459.30 1.172561
459.40 1.172116
459.50 1.171672
459.60 1.171228
459.70 1.170784
459.80 1.17034
459.90 1.169897
460.00 1.169454
460.10 1.169012
460.20 1.168569
460.30 1.168127
460.40 1.167685
460.50 1.167244
460.60 1.166802
460.70 1.16636
460.80 1.165917
460.90 1.165474
461.00 1.165031
461.10 1.164589
461.20 1.164102
461.30 1.163597
461.40 1.163159
461.50 1.162737
461.60 1.162315
461.70 1.161893
461.80 1.161456
461.90 1.161018
462.00 1.160581
462.10 1.160144
462.20 1.159707
462.30 1.159271
462.40 1.158834
462.50 1.158398
462.60 1.157963
462.70 1.157527
462.80 1.157092
462.90 1.156657
463.00 1.156223
463.10 1.155788
463.20 1.15534
463.30 1.154886
463.40 1.154432
463.50 1.153979
463.60 1.153526
463.70 1.153073
463.80 1.152621
463.90 1.152163
464.00 1.151705
464.10 1.151247
464.20 1.150789
464.30 1.150331
464.40 1.149874
464.50 1.149417
464.60 1.14896
464.70 1.148512
464.80 1.148068
464.90 1.147625
465.00 1.147182
465.10 1.146738
465.20 1.146296
465.30 1.145855
465.40 1.145415
465.50 1.144976
465.60 1.144537
465.70 1.144098
465.80 1.14366
465.90 1.143239
466.00 1.142823
466.10 1.142408
466.20 1.141992
466.30 1.141546
466.40 1.141087
466.50 1.140628
466.60 1.14017
466.70 1.139712
466.80 1.139254
466.90 1.138797
467.00 1.138339
467.10 1.137882
467.20 1.137426
467.30 1.136948
467.40 1.136509
467.50 1.136083
467.60 1.135656
467.70 1.13523
467.80 1.134805
467.90 1.134391
468.00 1.133982
468.10 1.133573
468.20 1.133165
468.30 1.132703
468.40 1.132219
468.50 1.131736
468.60 1.131253
468.70 1.131004
468.80 1.13059
468.90 1.130108
469.00 1.129626
469.10 1.129198
469.20 1.128792
469.30 1.128386
469.40 1.127981
469.50 1.127522
469.60 1.127042
469.70 1.126562
469.80 1.126082
469.90 1.125603
470.00 1.125124
470.10 1.124689
470.20 1.124272
470.30 1.123855
470.40 1.123438
470.50 1.123022
470.60 1.122617
470.70 1.122215
470.80 1.121813
470.90 1.121411
471.00 1.12095
471.10 1.120474
471.20 1.119999
471.30 1.119523
471.40 1.119049
471.50 1.118574
471.60 1.118219
471.70 1.117894
471.80 1.11745
471.90 1.116976
472.00 1.116503
472.10 1.11603
472.20 1.115604
472.30 1.11519
472.40 1.114777
472.50 1.114363
472.60 1.11395
472.70 1.113496
472.80 1.113049
472.90 1.112608
473.00 1.112167
473.10 1.111726
473.20 1.111286
473.30 1.110846
473.40 1.110407
473.50 1.109967
473.60 1.109528
473.70 1.109089
473.80 1.108685
473.90 1.108289
474.00 1.107894
474.10 1.107499
474.20 1.107053
474.30 1.106586
474.40 1.10612
474.50 1.105653
474.60 1.105191
474.70 1.104766
474.80 1.104341
474.90 1.103916
475.00 1.103492
475.10 1.103068
475.20 1.102644
475.30 1.10222
475.40 1.101794
475.50 1.101367
475.60 1.10094
475.70 1.100513
475.80 1.100087
475.90 1.099661
476.00 1.099235
476.10 1.09881
476.20 1.098389
476.30 1.09797
476.40 1.097551
476.50 1.097133
476.60 1.096715
476.70 1.096297
476.80 1.09588
476.90 1.095454
477.00 1.095027
477.10 1.0946
477.20 1.094174
477.30 1.093748
477.40 1.093322
477.50 1.092896
477.60 1.092471
477.70 1.092045
477.80 1.091621
477.90 1.091196
478.00 1.090771
478.10 1.090347
478.20 1.089923
478.30 1.0895
478.40 1.089076
478.50 1.088653
478.60 1.08823
478.70 1.087785
478.80 1.087331
478.90 1.086877
479.00 1.086423
479.10 1.08597
479.20 1.085516
479.30 1.085063
479.40 1.084631
479.50 1.084212
479.60 1.083792
479.70 1.083373
479.80 1.082955
479.90 1.082536
480.00 1.082118
480.10 1.0817
480.20 1.081282
480.30 1.080864
480.40 1.080447
480.50 1.08003
480.60 1.079613
480.70 1.079196
480.80 1.07878
480.90 1.078364
481.00 1.077948
481.10 1.077533
481.20 1.077111
481.30 1.07669
481.40 1.076269
481.50 1.075848
481.60 1.075427
481.70 1.075007
481.80 1.074587
481.90 1.074167
482.00 1.073748
482.10 1.073328
482.20 1.072909
482.30 1.072484
482.40 1.07206
482.50 1.071636
482.60 1.071212
482.70 1.070789
482.80 1.070365
482.90 1.069942
483.00 1.06952
483.10 1.069097
483.20 1.068675
483.30 1.068253
483.40 1.067831
483.50 1.06741
483.60 1.066988
483.70 1.066547
483.80 1.066106
483.90 1.065666
484.00 1.065225
484.10 1.064785
484.20 1.064381
484.30 1.063992
484.40 1.063603
484.50 1.063214
484.60 1.062825
484.70 1.062435
484.80 1.062028
484.90 1.061622
485.00 1.061215
485.10 1.060808
485.20 1.060402
485.30 1.059996
485.40 1.059591
485.50 1.059185
485.60 1.05878
485.70 1.058344
485.80 1.057909
485.90 1.057473
486.00 1.057038
486.10 1.056603
486.20 1.056169
486.30 1.055734
486.40 1.0553
486.50 1.054866
486.60 1.054433
486.70 1.054005
486.80 1.05364
486.90 1.053276
487.00 1.052913
487.10 1.052549
487.20 1.052117
487.30 1.051685
487.40 1.051254
487.50 1.050823
487.60 1.050392
487.70 1.049961
487.80 1.04953
487.90 1.0491
488.00 1.04867
488.10 1.048241
488.20 1.047811
488.30 1.047382
488.40 1.046953
488.50 1.046525
488.60 1.046096
488.70 1.045668
488.80 1.045343
488.90 1.045017
489.00 1.044663
489.10 1.044236
489.20 1.043809
489.30 1.043383
489.40 1.042956
489.50 1.04253
489.60 1.042104
489.70 1.041679
489.80 1.041253
489.90 1.040828
490.00 1.040404
490.10 1.039979
490.20 1.039555
490.30 1.039131
490.40 1.038776
490.50 1.038421
490.60 1.038067
490.70 1.037713
490.80 1.03729
490.90 1.036868
491.00 1.036445
491.10 1.036023
491.20 1.035601
491.30 1.03518
491.40 1.034759
491.50 1.034338
491.60 1.033917
491.70 1.033496
491.80 1.033076
491.90 1.032656
492.00 1.032236
492.10 1.031817
492.20 1.031398
492.30 1.030979
492.40 1.03056
492.50 1.030142
492.60 1.029723
492.70 1.029305
492.80 1.028888
492.90 1.02847
493.00 1.028057
493.10 1.027694
493.20 1.027331
493.30 1.026968
493.40 1.026606
493.50 1.026243
493.60 1.025828
493.70 1.025412
493.80 1.024997
493.90 1.024582
494.00 1.024167
494.10 1.023753
494.20 1.023338
494.30 1.022924
494.40 1.022511
494.50 1.022097
494.60 1.021684
494.70 1.021271
494.80 1.020858
494.90 1.020445
495.00 1.020033
495.10 1.019621
495.20 1.019209
495.30 1.018798
495.40 1.018387
495.50 1.017976
495.60 1.017565
495.70 1.017154
495.80 1.016744
495.90 1.016334
496.00 1.015924
496.10 1.015584
496.20 1.015375
496.30 1.014966
496.40 1.014557
496.50 1.014148
496.60 1.01374
496.70 1.013332
496.80 1.012924
496.90 1.012516
497.00 1.012109
497.10 1.011702
497.20 1.011295
497.30 1.010888
497.40 1.010482
497.50 1.010076
497.60 1.00967
497.70 1.009264
497.80 1.008858
497.90 1.008453
498.00 1.008048
498.10 1.007644
498.20 1.007239
498.30 1.006835
498.40 1.006431
498.50 1.006027
498.60 1.005624
498.70 1.00522
498.80 1.004817
498.90 1.004415
499.00 1.004012
499.10 1.00361
499.20 1.003208
499.30 1.002806
499.40 1.002404
499.50 1.002003
499.60 1.001602
499.70 1.001201
499.80 1.0008
499.90 1.0004
500.00 1
500.10 0.9996001
500.20 0.9992005
500.30 0.9988011
500.40 0.9984019
500.50 0.998003
500.60 0.9976043
500.70 0.9972059
500.80 0.9968077
500.90 0.9964097
501.00 0.996012
501.10 0.9956145
501.20 0.9952172
501.30 0.9948202
501.40 0.9944234
501.50 0.9940269
501.60 0.9936306
501.70 0.9932345
501.80 0.9928387
501.90 0.9924431
502.00 0.9920477
502.10 0.9916526
502.20 0.9912577
502.30 0.9908631
502.40 0.9904687
502.50 0.9900745
502.60 0.9896806
502.70 0.9892869
502.80 0.9888934
502.90 0.9885001
503.00 0.9881071
503.10 0.9877144
503.20 0.9873218
503.30 0.9869295
503.40 0.9865375
503.50 0.9861456
503.60 0.985754
503.70 0.9853627
503.80 0.9849715
503.90 0.9845806
504.00 0.98419
504.10 0.9837995
504.20 0.9834093
504.30 0.9830194
504.40 0.9826296
504.50 0.9822401
504.60 0.9818508
504.70 0.9814618
504.80 0.981073
504.90 0.9806844
505.00 0.980296
505.10 0.9799079
505.20 0.97952
505.30 0.9791324
505.40 0.9787449
505.50 0.9783577
505.60 0.9779708
505.70 0.977584
505.80 0.9771975
505.90 0.9768112
506.00 0.9764252
506.10 0.9760394
506.20 0.9756538
506.30 0.9752684
506.40 0.9748833
506.50 0.9744984
506.60 0.9741137
506.70 0.9737292
506.80 0.973345
506.90 0.972961
507.00 0.9725772
507.10 0.9721937
507.20 0.9718103
507.30 0.9714273
507.40 0.9710444
507.50 0.9706617
507.60 0.9702793
507.70 0.9698971
507.80 0.9695152
507.90 0.9691334
508.00 0.9687519
508.10 0.9683707
508.20 0.9679896
508.30 0.9676088
508.40 0.9672281
508.50 0.9668478
508.60 0.9664676
508.70 0.9660877
508.80 0.9657079
508.90 0.9653285
509.00 0.9649492
509.10 0.9645633
509.20 0.9641633
509.30 0.9637635
509.40 0.9633639
509.50 0.9629646
509.60 0.9625655
509.70 0.9621667
509.80 0.9617681
509.90 0.9613697
510.00 0.9609716
510.10 0.9605737
510.20 0.9601761
510.30 0.9597841
510.40 0.9594081
510.50 0.9590322
510.60 0.9586566
510.70 0.9582812
510.80 0.9579061
510.90 0.9575311
511.00 0.9571564
511.10 0.9567819
511.20 0.9564076
511.30 0.9560335
511.40 0.9556597
511.50 0.955286
511.60 0.9549126
511.70 0.9545394
511.80 0.9541664
511.90 0.9537937
512.00 0.9534212
512.10 0.9530488
512.20 0.9526767
512.30 0.9523008
512.40 0.9519138
512.50 0.9515269
512.60 0.9511403
512.70 0.9507539
512.80 0.9503677
512.90 0.9499818
513.00 0.9495961
513.10 0.9492106
513.20 0.9488254
513.30 0.9484404
513.40 0.9480556
513.50 0.947671
513.60 0.9472867
513.70 0.9469026
513.80 0.9465187
513.90 0.946135
514.00 0.9457564
514.10 0.9453787
514.20 0.9450013
514.30 0.944624
514.40 0.944247
514.50 0.9438703
514.60 0.9434937
514.70 0.9431174
514.80 0.9427413
514.90 0.9423654
515.00 0.9419897
515.10 0.9416143
515.20 0.941239
515.30 0.940864
515.40 0.9404893
515.50 0.9401147
515.60 0.9397403
515.70 0.9393662
515.80 0.9389923
515.90 0.9386186
516.00 0.9382452
516.10 0.9378719
516.20 0.9374989
516.30 0.9371261
516.40 0.9367535
516.50 0.9363811
516.60 0.9360089
516.70 0.935637
516.80 0.9352653
516.90 0.9348937
517.00 0.9345225
517.10 0.9341514
517.20 0.9337805
517.30 0.9334099
517.40 0.9330395
517.50 0.9326693
517.60 0.9322993
517.70 0.9319295
517.80 0.9315599
517.90 0.9311906
518.00 0.9308215
518.10 0.9304526
518.20 0.9300839
518.30 0.9297154
518.40 0.9293471
518.50 0.9289791
518.60 0.9286112
518.70 0.9282436
518.80 0.9278762
518.90 0.927509
519.00 0.927142
519.10 0.9267731
519.20 0.9264019
519.30 0.9260309
519.40 0.9256602
519.50 0.9252896
519.60 0.9249193
519.70 0.9245492
519.80 0.9241793
519.90 0.9238096
520.00 0.9234401
520.10 0.9230709
520.20 0.9227019
520.30 0.9223331
520.40 0.9219645
520.50 0.9215961
520.60 0.9212279
520.70 0.9208599
520.80 0.9204922
520.90 0.9201247
521.00 0.9197574
521.10 0.9193903
521.20 0.9190234
521.30 0.9186567
521.40 0.9182903
521.50 0.917924
521.60 0.917558
521.70 0.9171922
521.80 0.9168266
521.90 0.9164612
522.00 0.916096
522.10 0.9157311
522.20 0.9153663
522.30 0.9150018
522.40 0.9146374
522.50 0.9142733
522.60 0.9139094
522.70 0.9135457
522.80 0.9131822
522.90 0.912819
523.00 0.9124559
523.10 0.9120931
523.20 0.9117304
523.30 0.911368
523.40 0.9110058
523.50 0.9106438
523.60 0.910282
523.70 0.9099204
523.80 0.909559
523.90 0.9091978
524.00 0.9088369
524.10 0.9084761
524.20 0.9081156
524.30 0.9077502
524.40 0.907381
524.50 0.907012
524.60 0.9066433
524.70 0.9062747
524.80 0.9059064
524.90 0.9055383
525.00 0.9051704
525.10 0.9048027
525.20 0.9044352
525.30 0.904068
525.40 0.9037009
525.50 0.9033341
525.60 0.9029675
525.70 0.9026011
525.80 0.9022349
525.90 0.9018689
526.00 0.9015031
526.10 0.9011376
526.20 0.9007722
526.30 0.9004071
526.40 0.9000422
526.50 0.8996775
526.60 0.899313
526.70 0.8989487
526.80 0.8985847
526.90 0.8982208
527.00 0.8978572
527.10 0.8974938
527.20 0.8971305
527.30 0.8967675
527.40 0.8964047
527.50 0.8960421
527.60 0.8956798
527.70 0.8953176
527.80 0.8949557
527.90 0.8945939
528.00 0.8942324
528.10 0.893871
528.20 0.8935099
528.30 0.893149
528.40 0.8927883
528.50 0.8924278
528.60 0.8920676
528.70 0.8917075
528.80 0.8913476
528.90 0.890988
529.00 0.8906285
529.10 0.8902693
529.20 0.8899102
529.30 0.8895514
529.40 0.8891928
529.50 0.8888351
529.60 0.8884816
529.70 0.8881283
529.80 0.8877752
529.90 0.8874223
530.00 0.8870696
530.10 0.8867171
530.20 0.8863648
530.30 0.8860127
530.40 0.8856609
530.50 0.8853092
530.60 0.8849577
530.70 0.8846064
530.80 0.8842554
530.90 0.8839045
531.00 0.8835538
531.10 0.8832034
531.20 0.8828531
531.30 0.882503
531.40 0.8821532
531.50 0.8818035
531.60 0.8814541
531.70 0.8811048
531.80 0.8807557
531.90 0.8804069
532.00 0.8800582
532.10 0.8797098
532.20 0.8793556
532.30 0.8789987
532.40 0.878642
532.50 0.8782855
532.60 0.8779292
532.70 0.8775731
532.80 0.8772173
532.90 0.8768616
533.00 0.8765061
533.10 0.8761508
533.20 0.8757958
533.30 0.8754409
533.40 0.8750863
533.50 0.8747318
533.60 0.8743776
533.70 0.8740235
533.80 0.8736697
533.90 0.873316
534.00 0.8729626
534.10 0.8726094
534.20 0.8722564
534.30 0.8719035
534.40 0.8715509
534.50 0.8711985
534.60 0.8708463
534.70 0.8704943
534.80 0.8701425
534.90 0.8697912
535.00 0.86944
535.10 0.8690891
535.20 0.8687384
535.30 0.8683878
535.40 0.8680375
535.50 0.8676874
535.60 0.8673374
535.70 0.8669877
535.80 0.8666382
535.90 0.8662889
536.00 0.8659397
536.10 0.8655908
536.20 0.8652421
536.30 0.8648935
536.40 0.8645452
536.50 0.8641971
536.60 0.8638492
536.70 0.8635014
536.80 0.8631539
536.90 0.8628066
537.00 0.8624594
537.10 0.8621125
537.20 0.8617658
537.30 0.8614192
537.40 0.8610729
537.50 0.8607267
537.60 0.8603808
537.70 0.860035
537.80 0.8596895
537.90 0.8593441
538.00 0.858999
538.10 0.858654
538.20 0.8583093
538.30 0.8579647
538.40 0.8576204
538.50 0.8572762
538.60 0.8569322
538.70 0.8565884
538.80 0.8562449
538.90 0.8559015
539.00 0.8555583
539.10 0.8552153
539.20 0.8548725
539.30 0.8545299
539.40 0.8541875
539.50 0.8538453
539.60 0.8535033
539.70 0.8531614
539.80 0.8528198
539.90 0.8524784
540.00 0.8521371
540.10 0.8517961
540.20 0.8514554
540.30 0.851115
540.40 0.8507748
540.50 0.8504348
540.60 0.850095
540.70 0.8497553
540.80 0.8494159
540.90 0.8490767
541.00 0.8487376
541.10 0.8483987
541.20 0.8480601
541.30 0.8477216
541.40 0.8473833
541.50 0.8470452
541.60 0.8467073
541.70 0.8463696
541.80 0.8460321
541.90 0.8456948
542.00 0.8453577
542.10 0.8450207
542.20 0.844684
542.30 0.8443474
542.40 0.844011
542.50 0.8436749
542.60 0.8433389
542.70 0.8430031
542.80 0.8426675
542.90 0.842332
543.00 0.8419968
543.10 0.8416618
543.20 0.8413269
543.30 0.8409923
543.40 0.8406578
543.50 0.8403235
543.60 0.8399894
543.70 0.8396555
543.80 0.8393218
543.90 0.8389883
544.00 0.838655
544.10 0.8383218
544.20 0.8379888
544.30 0.8376561
544.40 0.8373235
544.50 0.8369911
544.60 0.8366589
544.70 0.8363269
544.80 0.835995
544.90 0.8356634
545.00 0.8353319
545.10 0.8350007
545.20 0.8346696
545.30 0.8343387
545.40 0.834008
545.50 0.8336774
545.60 0.8333416
545.70 0.8330035
545.80 0.8326656
545.90 0.8323279
546.00 0.8319904
546.10 0.8316531
546.20 0.831316
546.30 0.8309791
546.40 0.8306423
546.50 0.8303058
546.60 0.8299695
546.70 0.8296333
546.80 0.8292973
546.90 0.8289615
547.00 0.828626
547.10 0.8282906
547.20 0.8279554
547.30 0.8276203
547.40 0.8272855
547.50 0.8269509
547.60 0.8266164
547.70 0.8262822
547.80 0.8259481
547.90 0.8256142
548.00 0.8252805
548.10 0.824947
548.20 0.8246137
548.30 0.8242805
548.40 0.8239476
548.50 0.8236148
548.60 0.8232822
548.70 0.8229498
548.80 0.8226176
548.90 0.8222856
549.00 0.8219538
549.10 0.8216222
549.20 0.8212907
549.30 0.8209594
549.40 0.8206284
549.50 0.8202975
549.60 0.8199668
549.70 0.8196362
549.80 0.8193059
549.90 0.8189758
550.00 0.8186458
550.10 0.818316
550.20 0.8179864
550.30 0.817657
550.40 0.8173278
550.50 0.8169988
550.60 0.8166699
550.70 0.8163412
550.80 0.8160128
550.90 0.8156845
551.00 0.8153564
551.10 0.8150288
551.20 0.8147014
551.30 0.8143742
551.40 0.8140471
551.50 0.8137202
551.60 0.8133936
551.70 0.8130671
551.80 0.8127407
551.90 0.8124146
552.00 0.8120887
552.10 0.8117629
552.20 0.8114373
552.30 0.8111119
552.40 0.8107867
552.50 0.8104617
552.60 0.8101368
552.70 0.8098121
552.80 0.8094876
552.90 0.8091633
553.00 0.8088392
553.10 0.8085153
553.20 0.8081915
553.30 0.8078679
553.40 0.8075445
553.50 0.8072213
553.60 0.8068982
553.70 0.8065754
553.80 0.8062527
553.90 0.8059302
554.00 0.8056079
554.10 0.8052857
554.20 0.8049638
554.30 0.804642
554.40 0.8043204
554.50 0.803999
554.60 0.8036778
554.70 0.8033567
554.80 0.8030358
554.90 0.8027151
555.00 0.8023946
555.10 0.8020742
555.20 0.8017541
555.30 0.8014341
555.40 0.8011143
555.50 0.8007947
555.60 0.8004752
555.70 0.8001559
555.80 0.7998368
555.90 0.7995179
556.00 0.7991992
556.10 0.7988806
556.20 0.7985622
556.30 0.798244
556.40 0.797926
556.50 0.797608
556.60 0.7972867
556.70 0.7969657
556.80 0.7966448
556.90 0.7963242
557.00 0.7960037
557.10 0.7956833
557.20 0.7953632
557.30 0.7950432
557.40 0.7947234
557.50 0.7944038
557.60 0.7940844
557.70 0.7937651
557.80 0.7934461
557.90 0.7931272
558.00 0.7928084
558.10 0.7924899
558.20 0.7921715
558.30 0.7918533
558.40 0.7915353
558.50 0.7912175
558.60 0.7908998
558.70 0.7905824
558.80 0.7902651
558.90 0.7899479
559.00 0.789631
559.10 0.7893142
559.20 0.7889976
559.30 0.7886812
559.40 0.7883649
559.50 0.7880489
559.60 0.787733
559.70 0.7874172
559.80 0.7871017
559.90 0.7867863
560.00 0.7864711
560.10 0.7861561
560.20 0.7858413
560.30 0.7855266
560.40 0.7852121
560.50 0.7848978
560.60 0.7845836
560.70 0.7842697
560.80 0.7839559
560.90 0.7836422
561.00 0.7833288
561.10 0.7830155
561.20 0.7827024
561.30 0.7823895
561.40 0.7820767
561.50 0.7817641
561.60 0.7814517
561.70 0.7811395
561.80 0.7808274
561.90 0.7805155
562.00 0.7802038
562.10 0.7798909
562.20 0.7795761
562.30 0.7792615
562.40 0.7789471
562.50 0.7786329
562.60 0.7783188
562.70 0.7780049
562.80 0.7776912
562.90 0.7773776
563.00 0.7770643
563.10 0.7767511
563.20 0.776438
563.30 0.7761252
563.40 0.7758125
563.50 0.7755
563.60 0.7751877
563.70 0.7748755
563.80 0.7745635
563.90 0.7742517
564.00 0.7739401
564.10 0.7736286
564.20 0.7733173
564.30 0.7730062
564.40 0.7726952
564.50 0.7723844
564.60 0.7720738
564.70 0.7717634
564.80 0.7714531
564.90 0.771143
565.00 0.7708331
565.10 0.7705233
565.20 0.7702137
565.30 0.7699043
565.40 0.769595
565.50 0.7692859
565.60 0.768977
565.70 0.7686683
565.80 0.7683597
565.90 0.7680513
566.00 0.7677431
566.10 0.767435
566.20 0.7671271
566.30 0.7668194
566.40 0.7665118
566.50 0.7662044
566.60 0.7658972
566.70 0.7655902
566.80 0.7652833
566.90 0.7649766
567.00 0.76467
567.10 0.7643637
567.20 0.7640575
567.30 0.7637514
567.40 0.7634456
567.50 0.7631399
567.60 0.7628343
567.70 0.7625283
567.80 0.7622199
567.90 0.7619116
568.00 0.7616035
568.10 0.7612956
568.20 0.7609878
568.30 0.7606802
568.40 0.7603727
568.50 0.7600655
568.60 0.7597584
568.70 0.7594514
568.80 0.7591447
568.90 0.7588381
569.00 0.7585317
569.10 0.7582254
569.20 0.7579193
569.30 0.7576134
569.40 0.7573077
569.50 0.7570021
569.60 0.7566967
569.70 0.7563914
569.80 0.7560864
569.90 0.7557814
570.00 0.7554767
570.10 0.7551721
570.20 0.7548677
570.30 0.7545635
570.40 0.7542594
570.50 0.7539555
570.60 0.7536518
570.70 0.7533482
570.80 0.7530448
570.90 0.7527415
571.00 0.7524385
571.10 0.7521355
571.20 0.7518328
571.30 0.7515302
571.40 0.7512278
571.50 0.7509256
571.60 0.7506235
571.70 0.7503216
571.80 0.7500198
571.90 0.7497182
572.00 0.7494168
572.10 0.7491156
572.20 0.7488145
572.30 0.7485136
572.40 0.7482128
572.50 0.7479122
572.60 0.7476118
572.70 0.7473115
572.80 0.7470114
572.90 0.7467115
573.00 0.7464117
573.10 0.7461121
573.20 0.7458126
573.30 0.7455133
573.40 0.7452145
573.50 0.7449163
573.60 0.7446182
573.70 0.7443202
573.80 0.7440225
573.90 0.7437248
574.00 0.7434274
574.10 0.7431301
574.20 0.742833
574.30 0.742536
574.40 0.7422392
574.50 0.7419426
574.60 0.7416461
574.70 0.7413498
574.80 0.7410537
574.90 0.7407577
575.00 0.7404618
575.10 0.7401662
575.20 0.7398707
575.30 0.7395753
575.40 0.7392801
575.50 0.7389851
575.60 0.7386902
575.70 0.7383955
575.80 0.738101
575.90 0.7378066
576.00 0.7375124
576.10 0.7372183
576.20 0.7369244
576.30 0.7366307
576.40 0.7363371
576.50 0.7360436
576.60 0.7357504
576.70 0.7354573
576.80 0.7351643
576.90 0.7348715
577.00 0.7345789
577.10 0.7342864
577.20 0.7339941
577.30 0.7337019
577.40 0.7334099
577.50 0.7331181
577.60 0.732826
577.70 0.7325333
577.80 0.7322407
577.90 0.7319483
578.00 0.7316561
578.10 0.7313641
578.20 0.7310722
578.30 0.7307804
578.40 0.7304888
578.50 0.7301974
578.60 0.7299061
578.70 0.729615
578.80 0.729324
578.90 0.7290332
579.00 0.7287426
579.10 0.7284519
579.20 0.7281597
579.30 0.7278675
579.40 0.7275756
579.50 0.7272838
579.60 0.7269922
579.70 0.7267007
579.80 0.7264094
579.90 0.7261182
580.00 0.7258272
580.10 0.7255368
580.20 0.7252473
580.30 0.724958
580.40 0.7246688
580.50 0.7243798
580.60 0.7240909
580.70 0.7238022
580.80 0.7235136
580.90 0.7232252
581.00 0.7229369
581.10 0.7226488
581.20 0.7223609
581.30 0.7220731
581.40 0.7217854
581.50 0.721498
581.60 0.7212106
581.70 0.7209235
581.80 0.7206364
581.90 0.7203496
582.00 0.7200629
582.10 0.7197763
582.20 0.7194899
582.30 0.7192037
582.40 0.7189176
582.50 0.7186316
582.60 0.7183459
582.70 0.7180602
582.80 0.7177748
582.90 0.7174894
583.00 0.7172043
583.10 0.7169193
583.20 0.7166344
583.30 0.7163497
583.40 0.7160651
583.50 0.7157807
583.60 0.7154945
583.70 0.7152051
583.80 0.7149158
583.90 0.7146267
584.00 0.7143378
584.10 0.714049
584.20 0.7137604
584.30 0.7134719
584.40 0.7131836
584.50 0.7128954
584.60 0.7126074
584.70 0.7123196
584.80 0.7120319
584.90 0.7117398
585.00 0.7114272
585.10 0.7111148
585.20 0.7108142
585.30 0.7105326
585.40 0.7102511
585.50 0.7099698
585.60 0.7096886
585.70 0.7094076
585.80 0.7091268
585.90 0.7088461
586.00 0.7085655
586.10 0.7082851
586.20 0.7080073
586.30 0.7077336
586.40 0.7074601
586.50 0.7071867
586.60 0.7069134
586.70 0.7066404
586.80 0.7063613
586.90 0.7060724
587.00 0.7057837
587.10 0.7054952
587.20 0.7051885
587.30 0.7048522
587.40 0.7045526
587.50 0.7043128
587.60 0.7040731
587.70 0.7038335
587.80 0.7035575
587.90 0.7032222
588.00 0.7029053
588.10 0.7026183
588.20 0.7023315
588.30 0.7020448
588.40 0.7017643
588.50 0.7014939
588.60 0.7012236
588.70 0.7009535
588.80 0.7006835
588.90 0.7004137
589.00 0.7001416
589.10 0.6998656
589.20 0.6995899
589.30 0.6993142
589.40 0.6990388
589.50 0.6987634
589.60 0.6984882
589.70 0.6982132
589.80 0.6979383
589.90 0.6976635
590.00 0.6973846
590.10 0.6970987
590.20 0.6968129
590.30 0.6965273
590.40 0.6962419
590.50 0.6959566
590.60 0.6956714
590.70 0.6953864
590.80 0.6951041
590.90 0.6948231
591.00 0.6945423
591.10 0.6942616
591.20 0.6939811
591.30 0.6937007
591.40 0.6934204
591.50 0.6931403
591.60 0.6928633
591.70 0.6925912
591.80 0.6923193
591.90 0.6920475
592.00 0.6917758
592.10 0.6915043
592.20 0.691233
592.30 0.6909617
592.40 0.6906907
592.50 0.6904197
592.60 0.6901489
592.70 0.6898783
592.80 0.6896078
592.90 0.6893374
593.00 0.6890672
593.10 0.6887936
593.20 0.6885142
593.30 0.688235
593.40 0.6879559
593.50 0.687677
593.60 0.6873982
593.70 0.6871196
593.80 0.6868412
593.90 0.6865628
594.00 0.6862847
594.10 0.6860067
594.20 0.6857288
594.30 0.6854511
594.40 0.6851735
594.50 0.684896
594.60 0.6846188
594.70 0.6843416
594.80 0.6840646
594.90 0.6837878
595.00 0.6835111
595.10 0.6832343
595.20 0.6829572
595.30 0.6826802
595.40 0.6824034
595.50 0.6821268
595.60 0.6818502
595.70 0.6815739
595.80 0.6812976
595.90 0.6810216
596.00 0.6807456
596.10 0.6804698
596.20 0.6801942
596.30 0.6799187
596.40 0.6796434
596.50 0.6793682
596.60 0.6790931
596.70 0.6788225
596.80 0.6785547
596.90 0.6782871
597.00 0.6780196
597.10 0.6777522
597.20 0.6774849
597.30 0.6772179
597.40 0.6769509
597.50 0.6766841
597.60 0.6764164
597.70 0.6761474
597.80 0.6758784
597.90 0.6756096
598.00 0.675341
598.10 0.6750725
598.20 0.6748041
598.30 0.6745359
598.40 0.6742678
598.50 0.6739999
598.60 0.6737321
598.70 0.6734644
598.80 0.6731969
598.90 0.6729295
599.00 0.6726623
599.10 0.6723952
599.20 0.6721282
599.30 0.6718614
599.40 0.6715911
599.50 0.6713209
599.60 0.6710508
599.70 0.6707809
599.80 0.6705112
599.90 0.6702415
600.00 0.6699721
600.10 0.6697027
600.20 0.6694335
600.30 0.6691645
600.40 0.6688955
600.50 0.6686268
600.60 0.6683581
600.70 0.6680897
600.80 0.6678213
600.90 0.6675531
601.00 0.667285
601.10 0.6670171
601.20 0.6667493
601.30 0.6664817
601.40 0.6662179
601.50 0.6659542
601.60 0.6656907
601.70 0.6654273
601.80 0.6651641
601.90 0.6649009
602.00 0.664638
602.10 0.6643751
602.20 0.6641124
602.30 0.6638499
602.40 0.6635874
602.50 0.6633251
602.60 0.663063
602.70 0.6628409
602.80 0.662621
602.90 0.6623555
603.00 0.6620902
603.10 0.6618251
603.20 0.6615601
603.30 0.6612952
603.40 0.6610304
603.50 0.6607658
603.60 0.6605014
603.70 0.6602371
603.80 0.6599729
603.90 0.6597088
604.00 0.6594449
604.10 0.6591811
604.20 0.6589175
604.30 0.658654
604.40 0.6583907
604.50 0.6581184
604.60 0.6578462
604.70 0.6575742
604.80 0.6573023
604.90 0.6570306
605.00 0.656759
605.10 0.6564876
605.20 0.6562163
605.30 0.6559452
605.40 0.6556742
605.50 0.6554275
605.60 0.6551809
605.70 0.6549344
605.80 0.654688
605.90 0.6544418
606.00 0.6541957
606.10 0.6539347
606.20 0.6536738
606.30 0.6534131
606.40 0.6531525
606.50 0.6528469
606.60 0.6525415
606.70 0.6523264
606.80 0.6521114
606.90 0.6518965
607.00 0.6515016
607.10 0.651287
607.20 0.6510725
607.30 0.6508131
607.40 0.6505539
607.50 0.6502948
607.60 0.6500358
607.70 0.649762
607.80 0.6494883
607.90 0.6492148
608.00 0.6489414
608.10 0.6486682
608.20 0.6483951
608.30 0.6481403
608.40 0.6478856
608.50 0.6476311
608.60 0.6473768
608.70 0.6471295
608.80 0.6468854
608.90 0.6466415
609.00 0.6463977
609.10 0.646154
609.20 0.6459105
609.30 0.6456538
609.40 0.6453972
609.50 0.6451408
609.60 0.6448845
609.70 0.6446284
609.80 0.6443724
609.90 0.6441165
610.00 0.6438607
610.10 0.6436051
610.20 0.6433496
610.30 0.6430942
610.40 0.642839
610.50 0.6425839
610.60 0.642329
610.70 0.6420741
610.80 0.6418194
610.90 0.6415619
611.00 0.6413045
611.10 0.6410473
611.20 0.6407901
611.30 0.6405331
611.40 0.6402763
611.50 0.6400196
611.60 0.639763
611.70 0.6395065
611.80 0.6392502
611.90 0.638994
612.00 0.6387379
612.10 0.638482
612.20 0.6382262
612.30 0.6379706
612.40 0.637718
612.50 0.6374656
612.60 0.6372133
612.70 0.6369611
612.80 0.636709
612.90 0.6364571
613.00 0.6362053
613.10 0.6359537
613.20 0.6357021
613.30 0.6354507
613.40 0.6351995
613.50 0.6349483
613.60 0.6346973
613.70 0.6344464
613.80 0.6341957
613.90 0.6339451
614.00 0.6336946
614.10 0.6334442
614.20 0.633194
614.30 0.6329439
614.40 0.6326957
614.50 0.6324476
614.60 0.6321997
614.70 0.6319519
614.80 0.6316972
614.90 0.6314412
615.00 0.6311853
615.10 0.6309296
615.20 0.630674
615.30 0.6304185
615.40 0.6301632
615.50 0.629908
615.60 0.6296529
615.70 0.629398
615.80 0.6291432
615.90 0.6288885
616.00 0.6286339
616.10 0.6283795
616.20 0.6281252
616.30 0.6278711
616.40 0.6276171
616.50 0.6273632
616.60 0.6271094
616.70 0.6268558
616.80 0.6266023
616.90 0.6263563
617.00 0.6261104
617.10 0.6258646
617.20 0.6256189
617.30 0.6253734
617.40 0.625128
617.50 0.6248827
617.60 0.6246375
617.70 0.6243925
617.80 0.6241476
617.90 0.6239028
618.00 0.6236582
618.10 0.6234136
618.20 0.6231692
618.30 0.622925
618.40 0.6226808
618.50 0.6224368
618.60 0.6221929
618.70 0.6219491
618.80 0.6217055
618.90 0.6214619
619.00 0.6212185
619.10 0.6209753
619.20 0.6207321
619.30 0.6204891
619.40 0.6202462
619.50 0.6200034
619.60 0.6197608
619.70 0.6195182
619.80 0.6192758
619.90 0.6190336
620.00 0.6187914
620.10 0.6185494
620.20 0.6183075
620.30 0.6180657
620.40 0.617824
620.50 0.6175825
620.60 0.6173411
620.70 0.6170998
620.80 0.6168586
620.90 0.6166159
621.00 0.6163702
621.10 0.6161246
621.20 0.6158792
621.30 0.6156339
621.40 0.6153887
621.50 0.6151436
621.60 0.6148987
621.70 0.6146539
621.80 0.6144092
621.90 0.6141646
622.00 0.6139202
622.10 0.6136759
622.20 0.6134317
622.30 0.6131877
622.40 0.6129437
622.50 0.6126999
622.60 0.6124563
622.70 0.6122127
622.80 0.6119693
622.90 0.611726
623.00 0.6114828
623.10 0.6112397
623.20 0.6109968
623.30 0.610754
623.40 0.6105113
623.50 0.6102687
623.60 0.6100263
623.70 0.609784
623.80 0.6095418
623.90 0.6092997
624.00 0.6090578
624.10 0.608816
624.20 0.6085743
624.30 0.6083327
624.40 0.6080913
624.50 0.60785
624.60 0.6076088
624.70 0.6073677
624.80 0.6071267
624.90 0.6068859
625.00 0.6066452
625.10 0.6064046
625.20 0.6061642
625.30 0.6059238
625.40 0.6056836
625.50 0.6054435
625.60 0.6052036
625.70 0.6049637
625.80 0.604724
625.90 0.6044844
626.00 0.6042449
626.10 0.6040056
626.20 0.6037663
626.30 0.6035272
626.40 0.6032882
626.50 0.6030493
626.60 0.6028106
626.70 0.602572
626.80 0.6023335
626.90 0.6020951
627.00 0.6018568
627.10 0.6016181
627.20 0.6013778
627.30 0.6011377
627.40 0.6008977
627.50 0.6006578
627.60 0.600418
627.70 0.6001784
627.80 0.5999388
627.90 0.5996994
628.00 0.5994601
628.10 0.599221
628.20 0.598982
628.30 0.598743
628.40 0.5985042
628.50 0.5982656
628.60 0.598027
628.70 0.5977886
628.80 0.5975503
628.90 0.5973121
629.00 0.597074
629.10 0.5968361
629.20 0.5965983
629.30 0.5963606
629.40 0.596123
629.50 0.5958855
629.60 0.5956482
629.70 0.595411
629.80 0.5951739
629.90 0.5949369
630.00 0.5947
630.10 0.5944633
630.20 0.5942267
630.30 0.5939951
630.40 0.5937641
630.50 0.5935331
630.60 0.5933023
630.70 0.5930717
630.80 0.5928411
630.90 0.5926106
631.00 0.5923803
631.10 0.5921501
631.20 0.59192
631.30 0.59169
631.40 0.5914601
631.50 0.5912303
631.60 0.5910007
631.70 0.5907712
631.80 0.5905418
631.90 0.5903125
632.00 0.5900833
632.10 0.5898542
632.20 0.5896253
632.30 0.5893964
632.40 0.5891677
632.50 0.5889391
632.60 0.5887106
632.70 0.5884823
632.80 0.588254
632.90 0.5880259
633.00 0.5877978
633.10 0.5875699
633.20 0.5873421
633.30 0.5871144
633.40 0.5868842
633.50 0.5866519
633.60 0.5864197
633.70 0.5861877
633.80 0.5859558
633.90 0.585724
634.00 0.5854923
634.10 0.5852607
634.20 0.5850292
634.30 0.5847979
634.40 0.5845667
634.50 0.5843356
634.60 0.5841046
634.70 0.5838737
634.80 0.5836429
634.90 0.5834123
635.00 0.5831818
635.10 0.5829514
635.20 0.5827211
635.30 0.5824909
635.40 0.5822608
635.50 0.5820309
635.60 0.5818011
635.70 0.5815713
635.80 0.5813418
635.90 0.5811123
636.00 0.5808829
636.10 0.5806537
636.20 0.5804245
636.30 0.5801955
636.40 0.5799666
636.50 0.5797378
636.60 0.5795091
636.70 0.5792806
636.80 0.5790522
636.90 0.5788239
637.00 0.5785957
637.10 0.5783676
637.20 0.5781396
637.30 0.5779117
637.40 0.577684
637.50 0.5774564
637.60 0.5772289
637.70 0.5770015
637.80 0.5767742
637.90 0.576547
638.00 0.57632
638.10 0.576093
638.20 0.5758662
638.30 0.5756395
638.40 0.5754129
638.50 0.5751864
638.60 0.57496
638.70 0.5747338
638.80 0.5745076
638.90 0.5742816
639.00 0.5740557
639.10 0.5738299
639.20 0.5736042
639.30 0.5733786
639.40 0.5731531
639.50 0.5729278
639.60 0.5727025
639.70 0.5724775
639.80 0.572253
639.90 0.5720285
640.00 0.5718042
640.10 0.57158
640.20 0.5713559
640.30 0.5711319
640.40 0.570908
640.50 0.5706842
640.60 0.5704606
640.70 0.570237
640.80 0.5700136
640.90 0.5697903
641.00 0.5695671
641.10 0.569344
641.20 0.569121
641.30 0.5688981
641.40 0.5686753
641.50 0.5684527
641.60 0.5682301
641.70 0.5680077
641.80 0.5677854
641.90 0.5675632
642.00 0.5673411
642.10 0.5671191
642.20 0.5668972
642.30 0.5666755
642.40 0.5664538
642.50 0.5662323
642.60 0.5660108
642.70 0.5657895
642.80 0.5655683
642.90 0.565346
643.00 0.56512
643.10 0.564894
643.20 0.5646682
643.30 0.5644426
643.40 0.564217
643.50 0.5639915
643.60 0.5637662
643.70 0.5635409
643.80 0.5633158
643.90 0.5630908
644.00 0.5628659
644.10 0.5626411
644.20 0.5624165
644.30 0.5621919
644.40 0.5619674
644.50 0.5617431
644.60 0.5615189
644.70 0.5612948
644.80 0.5610708
644.90 0.5608469
645.00 0.5606231
645.10 0.5603995
645.20 0.5601759
645.30 0.5599525
645.40 0.5597291
645.50 0.5595059
645.60 0.5592828
645.70 0.5590598
645.80 0.5588369
645.90 0.5586142
646.00 0.5583915
646.10 0.5581704
646.20 0.5579533
646.30 0.5577364
646.40 0.5575196
646.50 0.5573029
646.60 0.5570863
646.70 0.5568698
646.80 0.5566534
646.90 0.5564372
647.00 0.556221
647.10 0.5560049
647.20 0.555789
647.30 0.5555731
647.40 0.5553574
647.50 0.5551418
647.60 0.5549262
647.70 0.5547108
647.80 0.5544955
647.90 0.5542803
648.00 0.5540652
648.10 0.5538502
648.20 0.5536353
648.30 0.5534205
648.40 0.5532059
648.50 0.5529913
648.60 0.5527768
648.70 0.5525625
648.80 0.5523482
648.90 0.5521341
649.00 0.55192
649.10 0.5517061
649.20 0.5514923
649.30 0.5512786
649.40 0.551065
649.50 0.5508515
649.60 0.5506381
649.70 0.5504248
649.80 0.5502116
649.90 0.5499985
650.00 0.5497856
650.10 0.5495727
650.20 0.5493599
650.30 0.5491473
650.40 0.5489347
650.50 0.5487223
650.60 0.5485099
650.70 0.5482977
650.80 0.5480856
650.90 0.5478735
651.00 0.5476616
651.10 0.5474498
651.20 0.5472381
651.30 0.5470264
651.40 0.5468149
651.50 0.5466035
651.60 0.5463922
651.70 0.546181
651.80 0.54597
651.90 0.545759
652.00 0.5455481
652.10 0.5453373
652.20 0.5451266
652.30 0.544916
652.40 0.5447056
652.50 0.5444952
652.60 0.5442812
652.70 0.5440652
652.80 0.5438493
652.90 0.5436335
653.00 0.5434179
653.10 0.5432023
653.20 0.5429868
653.30 0.5427715
653.40 0.5425563
653.50 0.5423411
653.60 0.5421261
653.70 0.5419112
653.80 0.5416964
653.90 0.5414817
654.00 0.5412671
654.10 0.5410526
654.20 0.5408382
654.30 0.5406239
654.40 0.5404097
654.50 0.5401956
654.60 0.5399817
654.70 0.5397678
654.80 0.539554
654.90 0.5393404
655.00 0.5391268
655.10 0.5389134
655.20 0.5387001
655.30 0.5384868
655.40 0.5382737
655.50 0.5380607
655.60 0.5378478
655.70 0.537635
655.80 0.5374247
655.90 0.5372146
656.00 0.5370045
656.10 0.5367946
656.20 0.5365848
656.30 0.536375
656.40 0.5361654
656.50 0.5359559
656.60 0.5357465
656.70 0.5355371
656.80 0.5353279
656.90 0.5351188
657.00 0.5349098
657.10 0.5347009
657.20 0.5344921
657.30 0.5342834
657.40 0.5340748
657.50 0.5338663
657.60 0.5336579
657.70 0.5334496
657.80 0.5332874
657.90 0.5330834
658.00 0.5328722
658.10 0.532661
658.20 0.53245
658.30 0.532239
658.40 0.5320281
658.50 0.5318174
658.60 0.5316068
658.70 0.5313962
658.80 0.5311858
658.90 0.5309754
659.00 0.5307652
659.10 0.5305747
659.20 0.5304138
659.30 0.5301981
659.40 0.5299825
659.50 0.5297671
659.60 0.5295517
659.70 0.5293365
659.80 0.5291214
659.90 0.5289063
660.00 0.5286914
660.10 0.5284766
660.20 0.5282619
660.30 0.5280473
660.40 0.5278525
660.50 0.5276614
660.60 0.5274703
660.70 0.5272793
660.80 0.5270883
660.90 0.5268833
661.00 0.5266783
661.10 0.5264734
661.20 0.5262686
661.30 0.526064
661.40 0.5258594
661.50 0.5256549
661.60 0.5254505
661.70 0.5252462
661.80 0.5250421
661.90 0.5248246
662.00 0.5246072
662.10 0.52439
662.20 0.5241729
662.30 0.5239558
662.40 0.5237888
662.50 0.5235929
662.60 0.5233971
662.70 0.5232014
662.80 0.5230057
662.90 0.5227724
663.00 0.5225393
663.10 0.5223817
663.20 0.5221487
663.30 0.5219159
663.40 0.5217585
663.50 0.5215259
663.60 0.5212934
663.70 0.5211363
663.80 0.5209793
663.90 0.5207532
664.00 0.520515
664.10 0.5203081
664.20 0.5201013
664.30 0.5198945
664.40 0.5196879
664.50 0.5194814
664.60 0.519275
664.70 0.5190819
664.80 0.5188889
664.90 0.518696
665.00 0.5185032
665.10 0.5183105
665.20 0.5181179
665.30 0.5179253
665.40 0.5177329
665.50 0.5175029
665.60 0.5172665
665.70 0.5170919
665.80 0.5168974
665.90 0.516703
666.00 0.5165086
666.10 0.5163144
666.20 0.5161203
666.30 0.5159262
666.40 0.5157323
666.50 0.5155293
666.60 0.5153249
666.70 0.5151205
666.80 0.5149163
666.90 0.5147121
667.00 0.5145081
667.10 0.5142779
667.20 0.5140431
667.30 0.5138891
667.40 0.5137351
667.50 0.5135179
667.60 0.5132896
667.70 0.5131247
667.80 0.5129245
667.90 0.5126687
668.00 0.5125152
668.10 0.5122986
668.20 0.5120709
668.30 0.511875
668.40 0.5116847
668.50 0.5114945
668.60 0.5113044
668.70 0.5111459
668.80 0.5109354
668.90 0.5107251
669.00 0.5105148
669.10 0.5103047
669.20 0.5100946
669.30 0.5098958
669.40 0.509699
669.50 0.5095024
669.60 0.5093058
669.70 0.5091093
669.80 0.5089129
669.90 0.5087166
670.00 0.5085204
670.10 0.5083243
670.20 0.5081283
670.30 0.5079442
670.40 0.5077622
670.50 0.5075803
670.60 0.5073985
670.70 0.5072168
670.80 0.5070127
670.90 0.5068087
671.00 0.5066047
671.10 0.5064009
671.20 0.5061972
671.30 0.5059935
671.40 0.50579
671.50 0.5055866
671.60 0.5053832
671.70 0.50518
671.80 0.5049769
671.90 0.5047933
672.00 0.5046132
672.10 0.5044332
672.20 0.5042532
672.30 0.5040734
672.40 0.5038755
672.50 0.5036764
672.60 0.5034773
672.70 0.5032784
672.80 0.5030795
672.90 0.5028808
673.00 0.5026821
673.10 0.5024836
673.20 0.5022851
673.30 0.5021359
673.40 0.5019432
673.50 0.501743
673.60 0.5015428
673.70 0.5013428
673.80 0.5011428
673.90 0.500943
674.00 0.5007432
674.10 0.5005435
674.20 0.5003439
674.30 0.5001445
674.40 0.4999451
674.50 0.4997458
674.60 0.4995466
674.70 0.4993475
674.80 0.4991485
674.90 0.4989496
675.00 0.4987508
675.10 0.4985521
675.20 0.4983535
675.30 0.4981549
675.40 0.4979652
675.50 0.497777
675.60 0.497589
675.70 0.497401
675.80 0.4972131
675.90 0.4970253
676.00 0.4968376
676.10 0.49665
676.20 0.4964625
676.30 0.4962751
676.40 0.4960877
676.50 0.4959005
676.60 0.4957133
676.70 0.4955262
676.80 0.4953392
676.90 0.4951523
677.00 0.4949655
677.10 0.4947788
677.20 0.4945922
677.30 0.4944056
677.40 0.4942192
677.50 0.4940328
677.60 0.4938465
677.70 0.4936603
677.80 0.4934742
677.90 0.4932822
678.00 0.4930891
678.10 0.4928962
678.20 0.4927033
678.30 0.4925106
678.40 0.4923179
678.50 0.4921254
678.60 0.4919329
678.70 0.4917405
678.80 0.4915482
678.90 0.491356
679.00 0.4911639
679.10 0.4909724
679.20 0.4907812
679.30 0.4905901
679.40 0.4903991
679.50 0.4902082
679.60 0.4900174
679.70 0.4898267
679.80 0.4896361
679.90 0.4894456
680.00 0.4892551
680.10 0.4890647
680.20 0.4888745
680.30 0.4886843
680.40 0.4884942
680.50 0.4883042
680.60 0.4881143
680.70 0.4879245
680.80 0.4877348
680.90 0.4875452
681.00 0.4873556
681.10 0.4871662
681.20 0.4869768
681.30 0.4867875
681.40 0.4865984
681.50 0.4864093
681.60 0.4862203
681.70 0.4860314
681.80 0.4858425
681.90 0.4856538
682.00 0.4854652
682.10 0.4852766
682.20 0.4850882
682.30 0.4848998
682.40 0.4847115
682.50 0.4845233
682.60 0.4843352
682.70 0.4841472
682.80 0.4839593
682.90 0.4837714
683.00 0.4835837
683.10 0.483396
683.20 0.4832085
683.30 0.483021
683.40 0.4828336
683.50 0.4826463
683.60 0.4824591
683.70 0.482272
683.80 0.4820849
683.90 0.481898
684.00 0.4817111
684.10 0.4815244
684.20 0.4813377
684.30 0.4811511
684.40 0.4809646
684.50 0.4807782
684.60 0.4805919
684.70 0.4804056
684.80 0.4802195
684.90 0.4800334
685.00 0.4798474
685.10 0.4796616
685.20 0.4794758
685.30 0.4792901
685.40 0.4791044
685.50 0.4789189
685.60 0.4787335
685.70 0.4785481
685.80 0.4783628
685.90 0.4781797
686.00 0.4779971
686.10 0.4778146
686.20 0.4776322
686.30 0.4774499
686.40 0.4772676
686.50 0.4770855
686.60 0.4769034
686.70 0.4767214
686.80 0.4765396
686.90 0.4763578
687.00 0.476176
687.10 0.4759944
687.20 0.4758129
687.30 0.4756314
687.40 0.47545
687.50 0.4752687
687.60 0.4750875
687.70 0.4749064
687.80 0.4747254
687.90 0.4745444
688.00 0.4743635
688.10 0.4741828
688.20 0.4740021
688.30 0.4738215
688.40 0.4736409
688.50 0.4734605
688.60 0.4732801
688.70 0.4730999
688.80 0.4729197
688.90 0.4727396
689.00 0.4725596
689.10 0.4723796
689.20 0.4721998
689.30 0.47202
689.40 0.4718403
689.50 0.4716607
689.60 0.4714812
689.70 0.4713018
689.80 0.4711225
689.90 0.4709432
690.00 0.470764
690.10 0.4705849
690.20 0.4704059
690.30 0.470227
690.40 0.4700482
690.50 0.4698694
690.60 0.4696908
690.70 0.4695122
690.80 0.4693337
690.90 0.4691552
691.00 0.4689769
691.10 0.4687987
691.20 0.4686205
691.30 0.4684424
691.40 0.4682644
691.50 0.4680865
691.60 0.4679087
691.70 0.4677309
691.80 0.4675532
691.90 0.4673757
692.00 0.4671981
692.10 0.4670207
692.20 0.4668434
692.30 0.4666661
692.40 0.466489
692.50 0.4663119
692.60 0.4661349
692.70 0.465957
692.80 0.4657757
692.90 0.4655945
693.00 0.4654133
693.10 0.4652323
693.20 0.4650513
693.30 0.4648704
693.40 0.4646896
693.50 0.4645089
693.60 0.4643283
693.70 0.4641477
693.80 0.4639672
693.90 0.4637869
694.00 0.4636066
694.10 0.4634264
694.20 0.4632462
694.30 0.4630662
694.40 0.4628862
694.50 0.4627064
694.60 0.4625266
694.70 0.4623469
694.80 0.4621672
694.90 0.4619877
695.00 0.4618083
695.10 0.4616289
695.20 0.4614496
695.30 0.4612704
695.40 0.4610913
695.50 0.4609123
695.60 0.4607333
695.70 0.4605545
695.80 0.4603757
695.90 0.460197
696.00 0.4600184
696.10 0.4598398
696.20 0.4596614
696.30 0.459483
696.40 0.4593048
696.50 0.4591266
696.60 0.4589505
696.70 0.458775
696.80 0.4585996
696.90 0.4584243
697.00 0.458249
697.10 0.4580739
697.20 0.4578988
697.30 0.4577238
697.40 0.4575489
697.50 0.457374
697.60 0.4571993
697.70 0.4570246
697.80 0.45685
697.90 0.4566755
698.00 0.456501
698.10 0.4563267
698.20 0.4561524
698.30 0.4559782
698.40 0.4558041
698.50 0.4556301
698.60 0.4554561
698.70 0.4552823
698.80 0.4551085
698.90 0.4549348
699.00 0.4547612
699.10 0.4546041
699.20 0.4544509
699.30 0.4542977
699.40 0.4541447
699.50 0.4539917
699.60 0.4538388
699.70 0.4536624
699.80 0.4534848
699.90 0.4533073
700.00 0.4531299
700.10 0.4529526
700.20 0.4527754
700.30 0.4525982
700.40 0.4524212
700.50 0.4522442
700.60 0.4520673
700.70 0.4518904
700.80 0.4517137
700.90 0.4515371
701.00 0.4513605
701.10 0.4511862
701.20 0.4510125
701.30 0.4508389
701.40 0.4506654
701.50 0.450492
701.60 0.4503186
701.70 0.4501454
701.80 0.4499722
701.90 0.4497991
702.00 0.449626
702.10 0.4494531
702.20 0.4492802
702.30 0.4491074
702.40 0.4489347
702.50 0.4487621
702.60 0.4485918
702.70 0.4484222
702.80 0.4482526
702.90 0.4480831
703.00 0.4479136
703.10 0.4477443
703.20 0.447575
703.30 0.4474058
703.40 0.4472367
703.50 0.4470676
703.60 0.4468987
703.70 0.4467298
703.80 0.446561
703.90 0.4463922
704.00 0.4462236
704.10 0.446055
704.20 0.4458879
704.30 0.4457211
704.40 0.4455545
704.50 0.4453879
704.60 0.4452213
704.70 0.4450549
704.80 0.4448885
704.90 0.4447223
705.00 0.444556
705.10 0.4443899
705.20 0.4442202
705.30 0.4440498
705.40 0.4438795
705.50 0.4437092
705.60 0.443539
705.70 0.4433689
705.80 0.4432079
705.90 0.443049
706.00 0.4428902
706.10 0.4427315
706.20 0.4425459
706.30 0.4423541
706.40 0.4422162
706.50 0.4419581
706.60 0.441833
706.70 0.441708
706.80 0.4415292
706.90 0.4413379
707.00 0.4411735
707.10 0.4410156
707.20 0.4408577
707.30 0.4406999
707.40 0.4405332
707.50 0.4403644
707.60 0.4401958
707.70 0.4400272
707.80 0.4398588
707.90 0.4396903
708.00 0.4395256
708.10 0.4393618
708.20 0.439198
708.30 0.4390343
708.40 0.4388707
708.50 0.4387071
708.60 0.4385437
708.70 0.4383803
708.80 0.438217
708.90 0.4380537
709.00 0.4378825
709.10 0.4377095
709.20 0.4375366
709.30 0.4373638
709.40 0.4371911
709.50 0.4370184
709.60 0.4368458
709.70 0.4366733
709.80 0.4365009
709.90 0.4363285
710.00 0.4361562
710.10 0.435984
710.20 0.4358119
710.30 0.4356399
710.40 0.4354679
710.50 0.4352961
710.60 0.4351287
710.70 0.4349625
710.80 0.4347963
710.90 0.4346302
711.00 0.4344642
711.10 0.4342983
711.20 0.4341324
711.30 0.4339666
711.40 0.4338009
711.50 0.4336353
711.60 0.4334697
711.70 0.4333043
711.80 0.4331389
711.90 0.4329735
712.00 0.4328083
712.10 0.4326463
712.20 0.4324851
712.30 0.432324
712.40 0.432163
712.50 0.432002
712.60 0.4318411
712.70 0.4316803
712.80 0.4315195
712.90 0.4313589
713.00 0.4311983
713.10 0.4310378
713.20 0.4308773
713.30 0.4307169
713.40 0.4305566
713.50 0.4303964
713.60 0.4302362
713.70 0.430077
713.80 0.4299195
713.90 0.429762
714.00 0.4296047
714.10 0.4294436
714.20 0.4292817
714.30 0.4291199
714.40 0.4289582
714.50 0.4287965
714.60 0.4286349
714.70 0.4284734
714.80 0.428312
714.90 0.4281506
715.00 0.4279893
715.10 0.4278281
715.20 0.4276669
715.30 0.4275059
715.40 0.4273449
715.50 0.4271839
715.60 0.4270231
715.70 0.4268623
715.80 0.4267016
715.90 0.4265409
716.00 0.4263804
716.10 0.4262199
716.20 0.4260595
716.30 0.4258991
716.40 0.4257389
716.50 0.4255787
716.60 0.4254196
716.70 0.425261
716.80 0.4251024
716.90 0.4249438
717.00 0.4247853
717.10 0.4246269
717.20 0.4244686
717.30 0.4243104
717.40 0.4241522
717.50 0.4239941
717.60 0.423836
717.70 0.4236781
717.80 0.4235202
717.90 0.4233624
718.00 0.4232046
718.10 0.4230469
718.20 0.4228851
718.30 0.422721
718.40 0.4225571
718.50 0.4223932
718.60 0.4222294
718.70 0.4220656
718.80 0.421902
718.90 0.4217384
719.00 0.4215748
719.10 0.4214114
719.20 0.421248
719.30 0.4210847
719.40 0.4209215
719.50 0.4207584
719.60 0.4205953
719.70 0.4204323
719.80 0.4202694
719.90 0.4201065
720.00 0.4199437
720.10 0.419781
720.20 0.4196184
720.30 0.4194559
720.40 0.4192934
720.50 0.419131
720.60 0.4189686
720.70 0.4188363
720.80 0.4187201
720.90 0.4185637
721.00 0.4184058
721.10 0.4182479
721.20 0.4180902
721.30 0.4179324
721.40 0.4177748
721.50 0.4176172
721.60 0.4174597
721.70 0.4173023
721.80 0.4171449
721.90 0.4169876
722.00 0.4168304
722.10 0.4166733
722.20 0.4165162
722.30 0.4163592
722.40 0.4162022
722.50 0.4160454
722.60 0.4158886
722.70 0.4157314
722.80 0.415574
722.90 0.4154167
723.00 0.4152595
723.10 0.4151023
723.20 0.4149453
723.30 0.4147882
723.40 0.4146313
723.50 0.4144744
723.60 0.4143176
723.70 0.4141609
723.80 0.4140042
723.90 0.4138476
724.00 0.4136911
724.10 0.4135347
724.20 0.41338
724.30 0.4132263
724.40 0.4130727
724.50 0.4129192
724.60 0.4127657
724.70 0.4126124
724.80 0.412459
724.90 0.4123058
725.00 0.4121526
725.10 0.4119995
725.20 0.4118464
725.30 0.4116934
725.40 0.4115405
725.50 0.4113877
725.60 0.4112349
725.70 0.4110822
725.80 0.4109224
725.90 0.4107588
726.00 0.4105953
726.10 0.4104318
726.20 0.4102685
726.30 0.4101052
726.40 0.409942
726.50 0.4097788
726.60 0.4096158
726.70 0.4094528
726.80 0.4092953
726.90 0.4091408
727.00 0.4089864
727.10 0.4088321
727.20 0.4086778
727.30 0.4085236
727.40 0.4083763
727.50 0.4082327
727.60 0.4080891
727.70 0.4079456
727.80 0.4077819
727.90 0.4076072
728.00 0.4074733
728.10 0.4073614
728.20 0.4072495
728.30 0.4070126
728.40 0.4069008
728.50 0.4067891
728.60 0.4066368
728.70 0.4064628
728.80 0.4062887
728.90 0.4061148
729.00 0.4059545
729.10 0.4058015
729.20 0.4056486
729.30 0.4054958
729.40 0.405343
729.50 0.4051904
729.60 0.4050404
729.70 0.404892
729.80 0.4047437
729.90 0.4045954
730.00 0.4044472
730.10 0.4042991
730.20 0.404151
730.30 0.404003
730.40 0.4038551
730.50 0.4037072
730.60 0.4035584
730.70 0.4034091
730.80 0.4032599
730.90 0.4031107
731.00 0.4029616
731.10 0.4028126
731.20 0.4026636
731.30 0.4025147
731.40 0.4023659
731.50 0.4022171
731.60 0.4020685
731.70 0.4019198
731.80 0.4017713
731.90 0.4016228
732.00 0.4014743
732.10 0.401326
732.20 0.401176
732.30 0.4010252
732.40 0.4008744
732.50 0.4007238
732.60 0.4005732
732.70 0.4004226
732.80 0.4002721
732.90 0.4001217
733.00 0.3999714
733.10 0.3998211
733.20 0.3996709
733.30 0.3995208
733.40 0.3993707
733.50 0.3992207
733.60 0.3990708
733.70 0.3989186
733.80 0.3987652
733.90 0.398612
734.00 0.3984588
734.10 0.3983056
734.20 0.3981525
734.30 0.3979995
734.40 0.3978466
734.50 0.3976937
734.60 0.3975409
734.70 0.3973882
734.80 0.3972355
734.90 0.3970829
735.00 0.3969304
735.10 0.396778
735.20 0.3966256
735.30 0.3964739
735.40 0.3963303
735.50 0.3961868
735.60 0.3960433
735.70 0.3958977
735.80 0.3957508
735.90 0.3956041
736.00 0.3954574
736.10 0.3953107
736.20 0.3951642
736.30 0.3950177
736.40 0.3948712
736.50 0.3947249
736.60 0.3945786
736.70 0.3944323
736.80 0.3942861
736.90 0.39414
737.00 0.393994
737.10 0.393848
737.20 0.3937021
737.30 0.3935562
737.40 0.3934104
737.50 0.3932647
737.60 0.393119
737.70 0.3929734
737.80 0.3928279
737.90 0.3926824
738.00 0.392537
738.10 0.3923917
738.20 0.3922454
738.30 0.3920987
738.40 0.391952
738.50 0.3918054
738.60 0.3916588
738.70 0.3915124
738.80 0.3913659
738.90 0.3912196
739.00 0.3910733
739.10 0.3909271
739.20 0.3907809
739.30 0.3906348
739.40 0.3904888
739.50 0.3903428
739.60 0.3901969
739.70 0.3900511
739.80 0.3899053
739.90 0.3897596
740.00 0.389614
740.10 0.3894684
740.20 0.3893229
740.30 0.3891774
740.40 0.389032
740.50 0.3888867
740.60 0.3887415
740.70 0.3885963
740.80 0.3884512
740.90 0.3883061
741.00 0.3881611
741.10 0.3880162
741.20 0.3878713
741.30 0.3877265
741.40 0.3875817
741.50 0.3874371
741.60 0.3872924
741.70 0.3871479
741.80 0.3870034
741.90 0.386859
742.00 0.3867146
742.10 0.3865703
742.20 0.3864261
742.30 0.3862819
742.40 0.3861378
742.50 0.3859938
742.60 0.3858498
742.70 0.3857087
742.80 0.38557
742.90 0.3854314
743.00 0.3852928
743.10 0.3851542
743.20 0.3850158
743.30 0.3848774
743.40 0.384739
743.50 0.3846007
743.60 0.3844625
743.70 0.384323
743.80 0.3841784
743.90 0.3840339
744.00 0.3838894
744.10 0.3837449
744.20 0.3836006
744.30 0.3834563
744.40 0.383312
744.50 0.3831679
744.60 0.3830238
744.70 0.3828797
744.80 0.3827357
744.90 0.3825918
745.00 0.3824479
745.10 0.3823042
745.20 0.3821604
745.30 0.3820168
745.40 0.3818732
745.50 0.3817296
745.60 0.3815861
745.70 0.3814427
745.80 0.3812994
745.90 0.3811561
746.00 0.3810129
746.10 0.3808697
746.20 0.3807266
746.30 0.3805836
746.40 0.3804406
746.50 0.3802977
746.60 0.3801548
746.70 0.3800121
746.80 0.3798693
746.90 0.3797267
747.00 0.3795841
747.10 0.3794416
747.20 0.3792991
747.30 0.3791567
747.40 0.3790143
747.50 0.3788721
747.60 0.3787298
747.70 0.3785877
747.80 0.3784456
747.90 0.3783036
748.00 0.3781616
748.10 0.3780197
748.20 0.3778778
748.30 0.3777361
748.40 0.3775943
748.50 0.3774527
748.60 0.3773111
748.70 0.3771695
748.80 0.3770281
748.90 0.3768867
749.00 0.3767453
749.10 0.376604
749.20 0.3764628
749.30 0.3763217
749.40 0.3761806
749.50 0.3760395
749.60 0.3758985
749.70 0.3757576
749.80 0.3756168
749.90 0.375476
750.00 0.3753353
750.10 0.3751954
750.20 0.3750576
750.30 0.3749199
750.40 0.3747823
750.50 0.3746447
750.60 0.3745072
750.70 0.3743698
750.80 0.3742324
750.90 0.374095
751.00 0.3739578
751.10 0.3738206
751.20 0.3736834
751.30 0.3735463
751.40 0.3734093
751.50 0.3732723
751.60 0.3731354
751.70 0.3729985
751.80 0.3728617
751.90 0.372725
752.00 0.3725883
752.10 0.3724517
752.20 0.3723151
752.30 0.3721786
752.40 0.3720422
752.50 0.3719058
752.60 0.3717695
752.70 0.3716332
752.80 0.371497
752.90 0.3713609
753.00 0.3712248
753.10 0.3710888
753.20 0.3709528
753.30 0.3708169
753.40 0.3706811
753.50 0.3705453
753.60 0.3704096
753.70 0.3702739
753.80 0.3701383
753.90 0.3700027
754.00 0.3698672
754.10 0.3697318
754.20 0.3695964
754.30 0.3694611
754.40 0.3693259
754.50 0.3691907
754.60 0.3690555
754.70 0.3689204
754.80 0.3687854
754.90 0.3686505
755.00 0.3685155
755.10 0.3683807
755.20 0.3682459
755.30 0.3681112
755.40 0.3679765
755.50 0.3678419
755.60 0.3677073
755.70 0.3675728
755.80 0.3674384
755.90 0.367304
756.00 0.3671697
756.10 0.3670354
756.20 0.3669012
756.30 0.3667671
756.40 0.366633
756.50 0.366499
756.60 0.366365
756.70 0.3662311
756.80 0.3660972
756.90 0.3659634
757.00 0.3658297
757.10 0.365696
757.20 0.3655624
757.30 0.3654288
757.40 0.3652953
757.50 0.3651618
757.60 0.3650277
757.70 0.3648917
757.80 0.3647557
757.90 0.3646198
758.00 0.364484
758.10 0.3643482
758.20 0.3642125
758.30 0.3640768
758.40 0.3639412
758.50 0.3638057
758.60 0.3636702
758.70 0.3635348
758.80 0.3633994
758.90 0.3632641
759.00 0.3631288
759.10 0.3629936
759.20 0.3628585
759.30 0.3627234
759.40 0.3625884
759.50 0.3624534
759.60 0.3623185
759.70 0.3621837
759.80 0.3620489
759.90 0.3619142
760.00 0.3617795
760.10 0.3616449
760.20 0.3615104
760.30 0.3613759
760.40 0.3612414
760.50 0.3611071
760.60 0.3609728
760.70 0.3608385
760.80 0.3607043
760.90 0.3605702
761.00 0.3604361
761.10 0.360302
761.20 0.3601681
761.30 0.3600342
761.40 0.3599003
761.50 0.3597665
761.60 0.3596328
761.70 0.3594991
761.80 0.3593655
761.90 0.3592319
762.00 0.3590984
762.10 0.358965
762.20 0.3588316
762.30 0.3586982
762.40 0.358565
762.50 0.3584317
762.60 0.3582986
762.70 0.3581655
762.80 0.3580324
762.90 0.3578994
763.00 0.3577665
763.10 0.3576336
763.20 0.3575008
763.30 0.3573681
763.40 0.3572354
763.50 0.3571027
763.60 0.3569701
763.70 0.3568376
763.80 0.3567051
763.90 0.3565727
764.00 0.3564404
764.10 0.3563081
764.20 0.3561758
764.30 0.3560436
764.40 0.3559115
764.50 0.3557794
764.60 0.3556474
764.70 0.3555155
764.80 0.3553836
764.90 0.3552517
765.00 0.3551199
765.10 0.3549882
765.20 0.3548575
765.30 0.3547277
765.40 0.354598
765.50 0.3544684
765.60 0.3543388
765.70 0.3542093
765.80 0.3540798
765.90 0.3539504
766.00 0.353821
766.10 0.3536917
766.20 0.3535625
766.30 0.3534333
766.40 0.3533041
766.50 0.353175
766.60 0.353046
766.70 0.352917
766.80 0.3527881
766.90 0.3526593
767.00 0.3525305
767.10 0.3524017
767.20 0.352273
767.30 0.3521444
767.40 0.3520158
767.50 0.3518872
767.60 0.3517588
767.70 0.3516303
767.80 0.351502
767.90 0.3513736
768.00 0.3512454
768.10 0.3511172
768.20 0.350989
768.30 0.3508609
768.40 0.3507329
768.50 0.3506049
768.60 0.350477
768.70 0.3503491
768.80 0.3502213
768.90 0.3500935
769.00 0.3499658
769.10 0.3498382
769.20 0.3497106
769.30 0.349583
769.40 0.3494555
769.50 0.3493281
769.60 0.3492007
769.70 0.3490734
769.80 0.3489461
769.90 0.3488189
770.00 0.3486917
770.10 0.3485646
770.20 0.3484375
770.30 0.3483105
770.40 0.3481836
770.50 0.3480567
770.60 0.3479298
770.70 0.3478031
770.80 0.3476763
770.90 0.3475496
771.00 0.347423
771.10 0.3472964
771.20 0.3471699
771.30 0.3470435
771.40 0.3469171
771.50 0.3467907
771.60 0.3466644
771.70 0.3465382
771.80 0.346412
771.90 0.3462858
772.00 0.3461597
772.10 0.3460337
772.20 0.3459077
772.30 0.3457818
772.40 0.3456559
772.50 0.3455301
772.60 0.3454043
772.70 0.3452786
772.80 0.345153
772.90 0.3450277
773.00 0.3449025
773.10 0.3447774
773.20 0.3446523
773.30 0.3445273
773.40 0.3444023
773.50 0.3442774
773.60 0.3441525
773.70 0.3440277
773.80 0.3439029
773.90 0.3437782
774.00 0.3436535
774.10 0.3435289
774.20 0.3434043
774.30 0.3432798
774.40 0.3431554
774.50 0.343031
774.60 0.3429066
774.70 0.3427823
774.80 0.3426581
774.90 0.3425339
775.00 0.3424098
775.10 0.3422857
775.20 0.3421617
775.30 0.3420377
775.40 0.3419138
775.50 0.3417899
775.60 0.3416661
775.70 0.3415423
775.80 0.3414186
775.90 0.3412949
776.00 0.3411713
776.10 0.3410478
776.20 0.3409243
776.30 0.3408008
776.40 0.3406774
776.50 0.3405541
776.60 0.3404308
776.70 0.3403075
776.80 0.3401843
776.90 0.3400612
777.00 0.3399381
777.10 0.3398151
777.20 0.3396921
777.30 0.3395692
777.40 0.3394463
777.50 0.3393234
777.60 0.3392007
777.70 0.3390779
777.80 0.3389553
777.90 0.3388327
778.00 0.3387101
778.10 0.3385876
778.20 0.3384651
778.30 0.3383427
778.40 0.3382203
778.50 0.338098
778.60 0.3379758
778.70 0.3378536
778.80 0.3377314
778.90 0.3376093
779.00 0.3374873
779.10 0.3373653
779.20 0.3372433
779.30 0.3371214
779.40 0.3369996
779.50 0.3368778
779.60 0.336756
779.70 0.3366343
779.80 0.3365127
779.90 0.3363911
780.00 0.3362696
780.10 0.3361481
780.20 0.3360267
780.30 0.3359053
780.40 0.3357839
780.50 0.3356627
780.60 0.3355396
780.70 0.335416
780.80 0.3352924
780.90 0.3351688
781.00 0.3350453
781.10 0.3349218
781.20 0.3347984
781.30 0.3346751
781.40 0.3345518
781.50 0.3344285
781.60 0.3343053
781.70 0.3341822
781.80 0.3340591
781.90 0.333936
782.00 0.3338131
782.10 0.3336901
782.20 0.3335672
782.30 0.3334444
782.40 0.3333216
782.50 0.3331989
782.60 0.3330762
782.70 0.3329536
782.80 0.332831
782.90 0.3327085
783.00 0.332586
783.10 0.3324636
783.20 0.3323412
783.30 0.3322189
783.40 0.3320966
783.50 0.3319744
783.60 0.3318523
783.70 0.3317302
783.80 0.3316081
783.90 0.3314861
784.00 0.3313641
784.10 0.3312422
784.20 0.3311204
784.30 0.3309986
784.40 0.3308768
784.50 0.3307551
784.60 0.3306344
784.70 0.3305157
784.80 0.3303972
784.90 0.3302786
785.00 0.3301601
785.10 0.3300417
785.20 0.3299233
785.30 0.329805
785.40 0.3296867
785.50 0.3295685
785.60 0.3294503
785.70 0.3293321
785.80 0.329214
785.90 0.329096
786.00 0.328978
786.10 0.3288601
786.20 0.3287422
786.30 0.3286243
786.40 0.3285065
786.50 0.3283888
786.60 0.3282711
786.70 0.3281534
786.80 0.3280359
786.90 0.3279183
787.00 0.3278008
787.10 0.3276834
787.20 0.327566
787.30 0.3274486
787.40 0.3273313
787.50 0.327214
787.60 0.3270968
787.70 0.3269797
787.80 0.3268626
787.90 0.3267455
788.00 0.3266285
788.10 0.3265116
788.20 0.3263946
788.30 0.3262778
788.40 0.3261602
788.50 0.3260423
788.60 0.3259244
788.70 0.3258066
788.80 0.3256888
788.90 0.3255711
789.00 0.3254534
789.10 0.3253357
789.20 0.3252182
789.30 0.3251006
789.40 0.3249832
789.50 0.3248657
789.60 0.3247483
789.70 0.324631
789.80 0.3245137
789.90 0.3243965
790.00 0.3242793
790.10 0.3241621
790.20 0.3240451
790.30 0.323928
790.40 0.323811
790.50 0.3236941
790.60 0.3235772
790.70 0.3234603
790.80 0.3233435
790.90 0.3232268
791.00 0.3231101
791.10 0.3229934
791.20 0.3228768
791.30 0.3227603
791.40 0.3226438
791.50 0.3225273
791.60 0.3224109
791.70 0.3222945
791.80 0.3221782
791.90 0.322062
792.00 0.3219457
792.10 0.3218296
792.20 0.3217135
792.30 0.3215974
792.40 0.3214814
792.50 0.3213654
792.60 0.3212494
792.70 0.3211336
792.80 0.3210177
792.90 0.3209019
793.00 0.3207862
793.10 0.3206705
793.20 0.3205549
793.30 0.3204393
793.40 0.3203237
793.50 0.3202082
793.60 0.3200928
793.70 0.3199773
793.80 0.319862
793.90 0.3197467
794.00 0.3196314
794.10 0.3195162
794.20 0.319401
794.30 0.3192859
794.40 0.3191709
794.50 0.3190558
794.60 0.3189409
794.70 0.3188259
794.80 0.3187111
794.90 0.3185962
795.00 0.3184814
795.10 0.3183667
795.20 0.318252
795.30 0.3181374
795.40 0.3180228
795.50 0.3179083
795.60 0.3177938
795.70 0.3176793
795.80 0.3175649
795.90 0.3174505
796.00 0.3173362
796.10 0.317222
796.20 0.3171078
796.30 0.3169928
796.40 0.3168777
796.50 0.3167627
796.60 0.3166477
796.70 0.3165327
796.80 0.3164178
796.90 0.316303
797.00 0.3161882
797.10 0.3160735
797.20 0.3159587
797.30 0.3158441
797.40 0.3157295
797.50 0.3156149
797.60 0.3155004
797.70 0.3153859
797.80 0.3152715
797.90 0.3151572
798.00 0.3150428
798.10 0.3149286
798.20 0.3148143
798.30 0.3147002
798.40 0.314586
798.50 0.3144719
798.60 0.3143579
798.70 0.3142439
798.80 0.31413
798.90 0.3140161
799.00 0.3139022
799.10 0.3137884
799.20 0.3136747
799.30 0.3135609
799.40 0.3134473
799.50 0.3133337
799.60 0.3132201
799.70 0.3131066
799.80 0.3129931
799.90 0.3128797
800.00 0.3127663
800.10 0.312653
800.20 0.3125397
800.30 0.3124264
800.40 0.3123132
800.50 0.3122001
800.60 0.312087
800.70 0.311974
800.80 0.3118609
800.90 0.311748
801.00 0.3116351
801.10 0.3115222
801.20 0.3114094
801.30 0.3112966
801.40 0.3111839
801.50 0.3110712
801.60 0.3109586
801.70 0.310846
801.80 0.3107335
801.90 0.310621
802.00 0.3105085
802.10 0.3103961
802.20 0.3102838
802.30 0.3101715
802.40 0.3100592
802.50 0.309947
802.60 0.3098348
802.70 0.3097227
802.80 0.3096106
802.90 0.3094986
803.00 0.3093866
803.10 0.3092747
803.20 0.3091628
803.30 0.3090509
803.40 0.3089391
803.50 0.3088274
803.60 0.3087157
803.70 0.308604
803.80 0.3084924
803.90 0.3083808
804.00 0.3082693
804.10 0.3081578
804.20 0.3080468
804.30 0.307937
804.40 0.3078273
804.50 0.3077176
804.60 0.307608
804.70 0.3074984
804.80 0.3073889
804.90 0.3072794
805.00 0.3071699
805.10 0.3070605
805.20 0.3069512
805.30 0.3068418
805.40 0.3067326
805.50 0.3066234
805.60 0.3065142
805.70 0.306405
805.80 0.3062959
805.90 0.3061869
806.00 0.3060779
806.10 0.3059689
806.20 0.30586
806.30 0.3057512
806.40 0.3056423
806.50 0.3055336
806.60 0.3054248
806.70 0.3053161
806.80 0.3052075
806.90 0.3050989
807.00 0.3049904
807.10 0.3048818
807.20 0.3047734
807.30 0.304665
807.40 0.3045566
807.50 0.3044482
807.60 0.30434
807.70 0.3042317
807.80 0.3041235
807.90 0.3040154
808.00 0.3039072
808.10 0.3037992
808.20 0.3036912
808.30 0.3035832
808.40 0.3034752
808.50 0.3033673
808.60 0.3032595
808.70 0.3031517
808.80 0.3030439
808.90 0.3029362
809.00 0.3028286
809.10 0.3027209
809.20 0.3026133
809.30 0.3025058
809.40 0.3023983
809.50 0.3022909
809.60 0.3021835
809.70 0.3020761
809.80 0.3019688
809.90 0.3018615
810.00 0.3017543
810.10 0.3016471
810.20 0.3015399
810.30 0.3014328
810.40 0.3013258
810.50 0.3012188
810.60 0.3011118
810.70 0.3010049
810.80 0.300898
810.90 0.3007911
811.00 0.3006844
811.10 0.3005776
811.20 0.3004709
811.30 0.3003642
811.40 0.3002576
811.50 0.300151
811.60 0.3000445
811.70 0.299938
811.80 0.2998316
811.90 0.2997251
812.00 0.2996188
812.10 0.2995125
812.20 0.2994062
812.30 0.2992996
812.40 0.299193
812.50 0.2990864
812.60 0.2989799
812.70 0.2988734
812.80 0.2987669
812.90 0.2986605
813.00 0.2985542
813.10 0.2984478
813.20 0.2983416
813.30 0.2982353
813.40 0.2981291
813.50 0.298023
813.60 0.2979169
813.70 0.2978108
813.80 0.2977048
813.90 0.2975988
814.00 0.2974929
814.10 0.297387
814.20 0.2972812
814.30 0.2971754
814.40 0.2970696
814.50 0.2969639
814.60 0.2968582
814.70 0.2967526
814.80 0.296647
814.90 0.2965415
815.00 0.2964359
815.10 0.2963305
815.20 0.2962251
815.30 0.2961197
815.40 0.2960144
815.50 0.2959091
815.60 0.2958038
815.70 0.2956986
815.80 0.2955935
815.90 0.2954884
816.00 0.2953833
816.10 0.2952783
816.20 0.2951733
816.30 0.2950683
816.40 0.2949634
816.50 0.2948585
816.60 0.2947537
816.70 0.294649
816.80 0.2945442
816.90 0.2944395
817.00 0.2943349
817.10 0.2942303
817.20 0.2941257
817.30 0.2940212
817.40 0.2939167
817.50 0.2938123
817.60 0.2937079
817.70 0.2936035
817.80 0.2934992
817.90 0.2933949
818.00 0.2932907
818.10 0.2931865
818.20 0.2930824
818.30 0.2929783
818.40 0.2928742
818.50 0.2927702
818.60 0.2926662
818.70 0.2925623
818.80 0.2924584
818.90 0.2923546
819.00 0.2922508
819.10 0.292147
819.20 0.2920433
819.30 0.2919381
819.40 0.291832
819.50 0.291726
819.60 0.29162
819.70 0.291514
819.80 0.2914081
819.90 0.2913022
820.00 0.2911963
820.10 0.2910937
820.20 0.2909847
820.30 0.2908711
820.40 0.2907638
820.50 0.2906612
820.60 0.2905586
820.70 0.290456
820.80 0.2903535
820.90 0.2902511
821.00 0.2901487
821.10 0.2900463
821.20 0.2899439
821.30 0.2898416
821.40 0.2897394
821.50 0.2896372
821.60 0.289535
821.70 0.2894329
821.80 0.2893308
821.90 0.2892287
822.00 0.2891267
822.10 0.2890248
822.20 0.2889228
822.30 0.2888209
822.40 0.2887191
822.50 0.2886173
822.60 0.2885155
822.70 0.2884138
822.80 0.2883121
822.90 0.2882105
823.00 0.2881089
823.10 0.2880073
823.20 0.2879058
823.30 0.2878043
823.40 0.2877029
823.50 0.2876015
823.60 0.2875002
823.70 0.2873988
823.80 0.2872976
823.90 0.2871963
824.00 0.2870951
824.10 0.286994
824.20 0.2868929
824.30 0.2867918
824.40 0.2866908
824.50 0.2865898
824.60 0.2864889
824.70 0.2863879
824.80 0.2862871
824.90 0.2861863
825.00 0.2860855
825.10 0.2859847
825.20 0.285884
825.30 0.2857834
825.40 0.2856827
825.50 0.2855821
825.60 0.2854816
825.70 0.2853811
825.80 0.2852806
825.90 0.2851802
826.00 0.2850798
826.10 0.2849795
826.20 0.2848792
826.30 0.28478
826.40 0.2846816
826.50 0.2845832
826.60 0.2844849
826.70 0.2843866
826.80 0.2842883
826.90 0.2841901
827.00 0.2840919
827.10 0.2839938
827.20 0.2838957
827.30 0.2837976
827.40 0.2836996
827.50 0.2836016
827.60 0.2835037
827.70 0.2834058
827.80 0.2833079
827.90 0.2832101
828.00 0.2831123
828.10 0.2830145
828.20 0.2829168
828.30 0.2828192
828.40 0.2827215
828.50 0.2826239
828.60 0.2825252
828.70 0.2824255
828.80 0.2823259
828.90 0.2822263
829.00 0.2821267
829.10 0.2820272
829.20 0.2819278
829.30 0.2818283
829.40 0.2817289
829.50 0.2816296
829.60 0.2815303
829.70 0.281431
829.80 0.2813317
829.90 0.2812325
830.00 0.2811334
830.10 0.2810343
830.20 0.2809352
830.30 0.2808361
830.40 0.2807371
830.50 0.2806382
830.60 0.2805393
830.70 0.2804404
830.80 0.2803415
830.90 0.2802427
831.00 0.280144
831.10 0.2800453
831.20 0.2799466
831.30 0.2798479
831.40 0.2797493
831.50 0.2796508
831.60 0.2795522
831.70 0.2794537
831.80 0.2793553
831.90 0.2792569
832.00 0.2791585
832.10 0.2790602
832.20 0.2789619
832.30 0.2788636
832.40 0.2787654
832.50 0.2786673
832.60 0.2785691
832.70 0.278471
832.80 0.278373
832.90 0.278275
833.00 0.278177
833.10 0.278079
833.20 0.2779811
833.30 0.2778833
833.40 0.2777855
833.50 0.2776877
833.60 0.2775899
833.70 0.2774922
833.80 0.2773946
833.90 0.2772969
834.00 0.2771993
834.10 0.2771018
834.20 0.2770043
834.30 0.2769068
834.40 0.2768094
834.50 0.276712
834.60 0.2766146
834.70 0.2765173
834.80 0.27642
834.90 0.2763228
835.00 0.2762256
835.10 0.2761284
835.20 0.2760313
835.30 0.2759342
835.40 0.2758372
835.50 0.2757402
835.60 0.2756432
835.70 0.2755463
835.80 0.2754494
835.90 0.2753525
836.00 0.2752557
836.10 0.2751589
836.20 0.2750622
836.30 0.2749655
836.40 0.2748688
836.50 0.2747722
836.60 0.2746756
836.70 0.2745791
836.80 0.2744826
836.90 0.2743855
837.00 0.2742883
837.10 0.274191
837.20 0.2740939
837.30 0.2739967
837.40 0.2738996
837.50 0.2738025
837.60 0.2737055
837.70 0.2736085
837.80 0.2735116
837.90 0.2734147
838.00 0.2733178
838.10 0.273221
838.20 0.2731242
838.30 0.2730274
838.40 0.2729307
838.50 0.272834
838.60 0.2727374
838.70 0.2726408
838.80 0.2725442
838.90 0.2724477
839.00 0.2723512
839.10 0.2722547
839.20 0.2721583
839.30 0.272062
839.40 0.2719656
839.50 0.2718693
839.60 0.2717731
839.70 0.2716768
839.80 0.2715807
839.90 0.2714845
840.00 0.2713884
840.10 0.2712923
840.20 0.2711963
840.30 0.2711003
840.40 0.2710044
840.50 0.2709084
840.60 0.2708126
840.70 0.2707167
840.80 0.2706209
840.90 0.2705251
841.00 0.2704294
841.10 0.2703356
841.20 0.2702422
841.30 0.2701489
841.40 0.2700555
841.50 0.2699622
841.60 0.269869
841.70 0.2697758
841.80 0.2696826
841.90 0.2695894
842.00 0.2694963
842.10 0.2694033
842.20 0.2693102
842.30 0.2692172
842.40 0.2691243
842.50 0.2690313
842.60 0.2689384
842.70 0.2688456
842.80 0.2687528
842.90 0.26866
843.00 0.2685672
843.10 0.2684745
843.20 0.2683819
843.30 0.2682892
843.40 0.2681966
843.50 0.2681041
843.60 0.2680115
843.70 0.2679191
843.80 0.2678266
843.90 0.2677342
844.00 0.2676418
844.10 0.2675495
844.20 0.2674571
844.30 0.2673649
844.40 0.2672726
844.50 0.2671804
844.60 0.2670883
844.70 0.2669961
844.80 0.2669041
844.90 0.266812
845.00 0.26672
845.10 0.266628
845.20 0.2665361
845.30 0.2664433
845.40 0.2663506
845.50 0.266258
845.60 0.2661654
845.70 0.2660728
845.80 0.2659802
845.90 0.2658877
846.00 0.2657952
846.10 0.2657028
846.20 0.2656104
846.30 0.265518
846.40 0.2654257
846.50 0.2653334
846.60 0.2652411
846.70 0.2651489
846.80 0.2650567
846.90 0.2649646
847.00 0.2648725
847.10 0.2647804
847.20 0.2646884
847.30 0.2645963
847.40 0.2645044
847.50 0.2644124
847.60 0.2643205
847.70 0.2642287
847.80 0.2641369
847.90 0.2640451
848.00 0.2639533
848.10 0.2638616
848.20 0.2637699
848.30 0.2636783
848.40 0.2635867
848.50 0.2634951
848.60 0.2634036
848.70 0.2633121
848.80 0.2632206
848.90 0.2631292
849.00 0.2630378
849.10 0.2629464
849.20 0.2628551
849.30 0.2627638
849.40 0.2626725
849.50 0.2625813
849.60 0.2624901
849.70 0.262399
849.80 0.2623079
849.90 0.2622168
850.00 0.2621258
850.10 0.2620348
850.20 0.2619438
850.30 0.2618529
850.40 0.261762
850.50 0.2616711
850.60 0.2615803
850.70 0.2614895
850.80 0.2613988
850.90 0.261308
851.00 0.2612174
851.10 0.2611267
851.20 0.2610361
851.30 0.2609455
851.40 0.260855
851.50 0.2607645
851.60 0.260674
851.70 0.2605836
851.80 0.2604932
851.90 0.2604028
852.00 0.2603125
852.10 0.2602222
852.20 0.2601319
852.30 0.2600417
852.40 0.2599515
852.50 0.2598613
852.60 0.2597712
852.70 0.2596811
852.80 0.2595911
852.90 0.2595011
853.00 0.2594111
853.10 0.2593212
853.20 0.2592313
853.30 0.2591414
853.40 0.2590515
853.50 0.2589617
853.60 0.258872
853.70 0.2587819
853.80 0.2586914
853.90 0.2586009
854.00 0.2585105
854.10 0.2584202
854.20 0.2583298
854.30 0.2582395
854.40 0.2581493
854.50 0.258059
854.60 0.2579688
854.70 0.2578787
854.80 0.2577885
854.90 0.2576984
855.00 0.2576084
855.10 0.2575184
855.20 0.2574284
855.30 0.2573384
855.40 0.2572485
855.50 0.2571586
855.60 0.2570688
855.70 0.256979
855.80 0.2568892
855.90 0.2567995
856.00 0.2567098
856.10 0.2566201
856.20 0.2565304
856.30 0.2564408
856.40 0.2563513
856.50 0.2562617
856.60 0.2561723
856.70 0.2560828
856.80 0.2559934
856.90 0.255904
857.00 0.2558146
857.10 0.2557253
857.20 0.255636
857.30 0.2555467
857.40 0.2554575
857.50 0.2553683
857.60 0.2552792
857.70 0.2551901
857.80 0.255101
857.90 0.255012
858.00 0.2549246
858.10 0.2548378
858.20 0.2547509
858.30 0.2546641
858.40 0.2545774
858.50 0.2544906
858.60 0.2544039
858.70 0.2543173
858.80 0.2542306
858.90 0.254144
859.00 0.2540575
859.10 0.253971
859.20 0.2538845
859.30 0.253798
859.40 0.2537116
859.50 0.2536252
859.60 0.2535388
859.70 0.2534525
859.80 0.2533662
859.90 0.2532799
860.00 0.2531937
860.10 0.2531075
860.20 0.2530213
860.30 0.2529352
860.40 0.2528491
860.50 0.252763
860.60 0.252677
860.70 0.252591
860.80 0.252505
860.90 0.2524191
861.00 0.2523332
861.10 0.2522473
861.20 0.2521615
861.30 0.2520757
861.40 0.2519899
861.50 0.2519042
861.60 0.2518185
861.70 0.2517328
861.80 0.2516472
861.90 0.2515616
862.00 0.251476
862.10 0.2513905
862.20 0.2513048
862.30 0.2512175
862.40 0.2511303
862.50 0.2510431
862.60 0.2509559
862.70 0.2508688
862.80 0.2507817
862.90 0.2506946
863.00 0.2506076
863.10 0.2505206
863.20 0.2504336
863.30 0.2503467
863.40 0.2502598
863.50 0.2501729
863.60 0.2500861
863.70 0.2499993
863.80 0.2499125
863.90 0.2498258
864.00 0.2497391
864.10 0.2496524
864.20 0.2495658
864.30 0.2494792
864.40 0.2493926
864.50 0.2493061
864.60 0.2492196
864.70 0.2491331
864.80 0.2490467
864.90 0.2489603
865.00 0.2488739
865.10 0.2487876
865.20 0.2487013
865.30 0.248615
865.40 0.2485288
865.50 0.2484426
865.60 0.2483564
865.70 0.2482703
865.80 0.2481842
865.90 0.2480981
866.00 0.2480121
866.10 0.2479261
866.20 0.2478402
866.30 0.2477542
866.40 0.2476683
866.50 0.2475825
866.60 0.2474966
866.70 0.2474108
866.80 0.247325
866.90 0.2472393
867.00 0.2471536
867.10 0.2470679
867.20 0.2469823
867.30 0.2468967
867.40 0.2468111
867.50 0.2467256
867.60 0.2466401
867.70 0.2465546
867.80 0.2464692
867.90 0.2463838
868.00 0.2462984
868.10 0.2462131
868.20 0.2461278
868.30 0.2460425
868.40 0.2459572
868.50 0.245872
868.60 0.2457869
868.70 0.2457017
868.80 0.2456166
868.90 0.2455315
869.00 0.2454465
869.10 0.2453615
869.20 0.2452765
869.30 0.2451915
869.40 0.2451066
869.50 0.2450217
869.60 0.2449369
869.70 0.2448521
869.80 0.2447673
869.90 0.2446825
870.00 0.2445978
870.10 0.2445131
870.20 0.2444285
870.30 0.2443438
870.40 0.2442593
870.50 0.2441747
870.60 0.2440902
870.70 0.2440057
870.80 0.2439212
870.90 0.2438388
871.00 0.2437567
871.10 0.2436747
871.20 0.2435926
871.30 0.2435106
871.40 0.2434286
871.50 0.2433467
871.60 0.2432648
871.70 0.2431829
871.80 0.243101
871.90 0.2430192
872.00 0.2429374
872.10 0.2428556
872.20 0.2427739
872.30 0.2426922
872.40 0.2426105
872.50 0.2425289
872.60 0.2424473
872.70 0.2423657
872.80 0.2422842
872.90 0.2422026
873.00 0.2421212
873.10 0.2420397
873.20 0.2419583
873.30 0.2418769
873.40 0.2417955
873.50 0.2417142
873.60 0.2416329
873.70 0.2415516
873.80 0.2414704
873.90 0.2413892
874.00 0.241308
874.10 0.2412269
874.20 0.2411458
874.30 0.2410647
874.40 0.2409836
874.50 0.2409026
874.60 0.2408216
874.70 0.2407407
874.80 0.2406597
874.90 0.2405788
875.00 0.240498
875.10 0.2404171
875.20 0.2403356
875.30 0.2402528
875.40 0.2401701
875.50 0.2400874
875.60 0.2400047
875.70 0.2399221
875.80 0.2398395
875.90 0.2397569
876.00 0.2396744
876.10 0.2395919
876.20 0.2395094
876.30 0.2394269
876.40 0.2393445
876.50 0.2392621
876.60 0.2391798
876.70 0.2390974
876.80 0.2390151
876.90 0.2389329
877.00 0.2388506
877.10 0.2387684
877.20 0.2386863
877.30 0.2386041
877.40 0.238522
877.50 0.23844
877.60 0.2383579
877.70 0.2382759
877.80 0.2381939
877.90 0.238112
878.00 0.2380301
878.10 0.2379482
878.20 0.2378663
878.30 0.2377845
878.40 0.2377027
878.50 0.2376209
878.60 0.2375392
878.70 0.2374575
878.80 0.2373758
878.90 0.2372942
879.00 0.2372126
879.10 0.237131
879.20 0.2370495
879.30 0.2369679
879.40 0.2368865
879.50 0.236805
879.60 0.2367238
879.70 0.2366427
879.80 0.2365616
879.90 0.2364806
880.00 0.2363995
880.10 0.2363185
880.20 0.2362376
880.30 0.2361567
880.40 0.2360758
880.50 0.2359949
880.60 0.235914
880.70 0.2358332
880.80 0.2357525
880.90 0.2356717
881.00 0.235591
881.10 0.2355103
881.20 0.2354297
881.30 0.235349
881.40 0.2352684
881.50 0.2351879
881.60 0.2351073
881.70 0.2350268
881.80 0.2349464
881.90 0.2348659
882.00 0.2347855
882.10 0.2347051
882.20 0.2346248
882.30 0.2345445
882.40 0.2344642
882.50 0.2343839
882.60 0.2343037
882.70 0.2342235
882.80 0.2341433
882.90 0.2340632
883.00 0.2339831
883.10 0.233903
883.20 0.2338229
883.30 0.2337429
883.40 0.2336629
883.50 0.233583
883.60 0.2335031
883.70 0.2334232
883.80 0.2333433
883.90 0.2332635
884.00 0.2331853
884.10 0.2331074
884.20 0.2330296
884.30 0.2329518
884.40 0.232874
884.50 0.2327963
884.60 0.2327186
884.70 0.2326409
884.80 0.2325633
884.90 0.2324857
885.00 0.2324081
885.10 0.2323305
885.20 0.232253
885.30 0.2321755
885.40 0.232098
885.50 0.2320206
885.60 0.2319432
885.70 0.2318658
885.80 0.2317884
885.90 0.2317111
886.00 0.2316338
886.10 0.2315565
886.20 0.2314793
886.30 0.2314021
886.40 0.2313249
886.50 0.2312477
886.60 0.2311706
886.70 0.2310935
886.80 0.2310165
886.90 0.2309394
887.00 0.2308624
887.10 0.2307854
887.20 0.2307085
887.30 0.2306316
887.40 0.2305547
887.50 0.2304778
887.60 0.230401
887.70 0.2303242
887.80 0.2302474
887.90 0.2301706
888.00 0.2300939
888.10 0.2300172
888.20 0.2299406
888.30 0.2298639
888.40 0.2297859
888.50 0.2297077
888.60 0.2296295
888.70 0.2295513
888.80 0.2294732
888.90 0.2293951
889.00 0.229317
889.10 0.229239
889.20 0.2291609
889.30 0.229083
889.40 0.229005
889.50 0.2289271
889.60 0.2288492
889.70 0.2287713
889.80 0.2286935
889.90 0.2286157
890.00 0.2285379
890.10 0.2284601
890.20 0.2283824
890.30 0.2283047
890.40 0.228227
890.50 0.2281494
890.60 0.2280718
890.70 0.2279942
890.80 0.2279167
890.90 0.2278392
891.00 0.2277617
891.10 0.2276842
891.20 0.2276068
891.30 0.2275294
891.40 0.227452
891.50 0.2273747
891.60 0.2272973
891.70 0.22722
891.80 0.2271428
891.90 0.2270656
892.00 0.2269884
892.10 0.2269112
892.20 0.226834
892.30 0.2267569
892.40 0.2266798
892.50 0.2266028
892.60 0.2265258
892.70 0.2264488
892.80 0.2263718
892.90 0.2262949
893.00 0.2262179
893.10 0.2261411
893.20 0.2260642
893.30 0.2259874
893.40 0.2259106
893.50 0.2258338
893.60 0.2257571
893.70 0.2256804
893.80 0.2256037
893.90 0.225527
894.00 0.2254504
894.10 0.2253738
894.20 0.2252972
894.30 0.2252207
894.40 0.2251442
894.50 0.2250677
894.60 0.2249913
894.70 0.2249148
894.80 0.2248384
894.90 0.2247621
895.00 0.2246857
895.10 0.2246094
895.20 0.2245331
895.30 0.2244569
895.40 0.2243807
895.50 0.2243045
895.60 0.2242283
895.70 0.2241522
895.80 0.2240761
895.90 0.224
896.00 0.2239239
896.10 0.2238479
896.20 0.2237719
896.30 0.2236959
896.40 0.22362
896.50 0.2235441
896.60 0.2234682
896.70 0.2233923
896.80 0.2233165
896.90 0.2232407
897.00 0.2231649
897.10 0.2230892
897.20 0.2230135
897.30 0.2229381
897.40 0.2228627
897.50 0.2227873
897.60 0.2227119
897.70 0.2226366
897.80 0.2225613
897.90 0.2224861
898.00 0.2224108
898.10 0.2223356
898.20 0.2222605
898.30 0.2221853
898.40 0.2221102
898.50 0.2220351
898.60 0.22196
898.70 0.221885
898.80 0.22181
898.90 0.221735
899.00 0.2216601
899.10 0.2215851
899.20 0.2215102
899.30 0.2214354
899.40 0.2213605
899.50 0.2212857
899.60 0.2212109
899.70 0.2211362
899.80 0.2210614
899.90 0.2209867
900.00 0.220912
900.10 0.2208374
900.20 0.2207628
900.30 0.2206882
900.40 0.2206136
900.50 0.2205391
900.60 0.2204646
900.70 0.2203901
900.80 0.2203156
900.90 0.2202412
901.00 0.2201668
901.10 0.2200924
901.20 0.2200181
901.30 0.2199438
901.40 0.2198695
901.50 0.2197952
901.60 0.219721
901.70 0.2196468
901.80 0.2195726
901.90 0.2194985
902.00 0.2194243
902.10 0.2193503
902.20 0.2192762
902.30 0.2192021
902.40 0.2191281
902.50 0.2190541
902.60 0.2189802
902.70 0.2189063
902.80 0.2188324
902.90 0.2187585
903.00 0.2186846
903.10 0.2186108
903.20 0.218537
903.30 0.2184632
903.40 0.2183895
903.50 0.2183158
903.60 0.2182421
903.70 0.2181684
903.80 0.2180948
903.90 0.2180212
904.00 0.2179476
904.10 0.2178741
904.20 0.2178006
904.30 0.2177271
904.40 0.2176536
904.50 0.2175802
904.60 0.2175068
904.70 0.2174334
904.80 0.21736
904.90 0.2172867
905.00 0.2172134
905.10 0.2171401
905.20 0.2170668
905.30 0.2169936
905.40 0.2169204
905.50 0.2168473
905.60 0.2167741
905.70 0.216701
905.80 0.2166279
905.90 0.2165548
906.00 0.2164818
906.10 0.2164088
906.20 0.2163365
906.30 0.2162656
906.40 0.2161947
906.50 0.2161238
906.60 0.216053
906.70 0.2159821
906.80 0.2159113
906.90 0.2158406
907.00 0.2157698
907.10 0.2156991
907.20 0.2156284
907.30 0.2155578
907.40 0.2154872
907.50 0.2154165
907.60 0.215346
907.70 0.2152754
907.80 0.2152049
907.90 0.2151344
908.00 0.2150639
908.10 0.2149934
908.20 0.214923
908.30 0.2148526
908.40 0.2147822
908.50 0.2147119
908.60 0.2146416
908.70 0.2145713
908.80 0.214501
908.90 0.2144307
909.00 0.2143605
909.10 0.2142903
909.20 0.2142202
909.30 0.21415
909.40 0.2140799
909.50 0.2140098
909.60 0.2139397
909.70 0.2138697
909.80 0.2137997
909.90 0.2137297
910.00 0.2136597
910.10 0.2135898
910.20 0.2135199
910.30 0.21345
910.40 0.2133801
910.50 0.2133103
910.60 0.2132405
910.70 0.2131707
910.80 0.2130991
910.90 0.2130276
911.00 0.2129562
911.10 0.2128847
911.20 0.2128133
911.30 0.2127419
911.40 0.2126705
911.50 0.2125992
911.60 0.2125279
911.70 0.2124566
911.80 0.2123853
911.90 0.2123141
912.00 0.2122429
912.10 0.2121717
912.20 0.2121005
912.30 0.2120294
912.40 0.2119583
912.50 0.2118872
912.60 0.2118161
912.70 0.2117451
912.80 0.2116741
912.90 0.2116031
913.00 0.2115322
913.10 0.2114613
913.20 0.2113904
913.30 0.2113195
913.40 0.2112486
913.50 0.2111778
913.60 0.211107
913.70 0.2110363
913.80 0.2109655
913.90 0.2108948
914.00 0.2108241
914.10 0.2107534
914.20 0.2106828
914.30 0.2106122
914.40 0.2105416
914.50 0.210471
914.60 0.2104005
914.70 0.21033
914.80 0.2102595
914.90 0.210189
915.00 0.2101186
915.10 0.2100482
915.20 0.2099778
915.30 0.2099076
915.40 0.2098375
915.50 0.2097675
915.60 0.2096974
915.70 0.2096274
915.80 0.2095574
915.90 0.2094875
916.00 0.2094175
916.10 0.2093476
916.20 0.2092778
916.30 0.2092079
916.40 0.2091381
916.50 0.2090683
916.60 0.2089985
916.70 0.2089287
916.80 0.208859
916.90 0.2087893
917.00 0.2087196
917.10 0.2086499
917.20 0.2085803
917.30 0.2085107
917.40 0.2084411
917.50 0.2083716
917.60 0.208302
917.70 0.2082325
917.80 0.2081631
917.90 0.2080936
918.00 0.2080242
918.10 0.2079548
918.20 0.2078854
918.30 0.207816
918.40 0.2077467
918.50 0.2076774
918.60 0.2076081
918.70 0.2075389
918.80 0.2074697
918.90 0.2074005
919.00 0.2073313
919.10 0.2072621
919.20 0.207193
919.30 0.2071239
919.40 0.2070548
919.50 0.2069858
919.60 0.2069168
919.70 0.2068478
919.80 0.2067788
919.90 0.2067099
920.00 0.2066409
920.10 0.206572
920.20 0.2065032
920.30 0.2064343
920.40 0.2063655
920.50 0.2062967
920.60 0.2062279
920.70 0.2061592
920.80 0.2060904
920.90 0.2060217
921.00 0.2059531
921.10 0.2058844
921.20 0.2058158
921.30 0.2057472
921.40 0.2056786
921.50 0.2056101
921.60 0.2055416
921.70 0.2054731
921.80 0.2054046
921.90 0.2053361
922.00 0.2052677
922.10 0.2051993
922.20 0.2051309
922.30 0.2050626
922.40 0.2049943
922.50 0.204926
922.60 0.2048577
922.70 0.2047894
922.80 0.2047212
922.90 0.204653
923.00 0.2045848
923.10 0.2045167
923.20 0.2044486
923.30 0.2043805
923.40 0.2043124
923.50 0.2042443
923.60 0.2041763
923.70 0.2041083
923.80 0.2040403
923.90 0.2039724
924.00 0.2039044
924.10 0.2038365
924.20 0.2037686
924.30 0.2037008
924.40 0.203633
924.50 0.2035654
924.60 0.2034979
924.70 0.2034304
924.80 0.2033629
924.90 0.2032954
925.00 0.203228
925.10 0.2031605
925.20 0.2030931
925.30 0.2030258
925.40 0.2029584
925.50 0.2028911
925.60 0.2028238
925.70 0.2027565
925.80 0.2026893
925.90 0.202622
926.00 0.2025548
926.10 0.2024876
926.20 0.2024205
926.30 0.2023534
926.40 0.2022862
926.50 0.2022192
926.60 0.2021521
926.70 0.2020851
926.80 0.2020181
926.90 0.2019511
927.00 0.2018841
927.10 0.2018172
927.20 0.2017503
927.30 0.2016834
927.40 0.2016165
927.50 0.2015497
927.60 0.2014829
927.70 0.2014161
927.80 0.2013493
927.90 0.2012826
928.00 0.2012158
928.10 0.2011491
928.20 0.2010825
928.30 0.2010158
928.40 0.2009492
928.50 0.2008826
928.60 0.200816
928.70 0.2007495
928.80 0.2006829
928.90 0.2006164
929.00 0.20055
929.10 0.2004851
929.20 0.2004203
929.30 0.2003556
929.40 0.2002909
929.50 0.2002262
929.60 0.2001615
929.70 0.2000968
929.80 0.2000322
929.90 0.1999676
930.00 0.199903
930.10 0.1998384
930.20 0.1997739
930.30 0.1997094
930.40 0.1996449
930.50 0.1995804
930.60 0.199516
930.70 0.1994516
930.80 0.1993872
930.90 0.1993228
931.00 0.1992584
931.10 0.1991941
931.20 0.1991298
931.30 0.1990655
931.40 0.1990013
931.50 0.198937
931.60 0.1988728
931.70 0.1988086
931.80 0.1987445
931.90 0.1986803
932.00 0.1986162
932.10 0.1985521
932.20 0.198488
932.30 0.198424
932.40 0.1983599
932.50 0.1982959
932.60 0.1982319
932.70 0.198168
932.80 0.198104
932.90 0.1980401
933.00 0.1979762
933.10 0.1979124
933.20 0.1978485
933.30 0.1977847
933.40 0.1977209
933.50 0.1976571
933.60 0.1975933
933.70 0.1975286
933.80 0.1974634
933.90 0.1973983
934.00 0.1973332
934.10 0.1972682
934.20 0.1972031
934.30 0.1971381
934.40 0.1970731
934.50 0.1970082
934.60 0.1969432
934.70 0.1968783
934.80 0.1968134
934.90 0.1967485
935.00 0.1966837
935.10 0.1966189
935.20 0.196554
935.30 0.1964893
935.40 0.1964245
935.50 0.1963598
935.60 0.1962951
935.70 0.1962304
935.80 0.1961657
935.90 0.1961011
936.00 0.1960365
936.10 0.1959719
936.20 0.1959073
936.30 0.1958427
936.40 0.1957782
936.50 0.1957137
936.60 0.1956492
936.70 0.1955848
936.80 0.1955203
936.90 0.1954559
937.00 0.1953915
937.10 0.1953272
937.20 0.1952628
937.30 0.1951985
937.40 0.1951342
937.50 0.1950699
937.60 0.1950057
937.70 0.1949415
937.80 0.1948773
937.90 0.1948131
938.00 0.1947489
938.10 0.1946848
938.20 0.1946207
938.30 0.1945566
938.40 0.1944925
938.50 0.1944285
938.60 0.1943645
938.70 0.1943005
938.80 0.1942365
938.90 0.1941725
939.00 0.1941086
939.10 0.1940447
939.20 0.1939808
939.30 0.1939169
939.40 0.1938531
939.50 0.1937893
939.60 0.1937255
939.70 0.1936617
939.80 0.193598
939.90 0.1935343
940.00 0.1934706
940.10 0.1934069
940.20 0.1933432
940.30 0.1932796
940.40 0.193216
940.50 0.1931524
940.60 0.1930888
940.70 0.1930253
940.80 0.1929618
940.90 0.1928983
941.00 0.1928348
941.10 0.1927713
941.20 0.1927079
941.30 0.1926445
941.40 0.1925811
941.50 0.1925178
941.60 0.1924544
941.70 0.1923911
941.80 0.1923278
941.90 0.1922645
942.00 0.1922013
942.10 0.1921381
942.20 0.1920749
942.30 0.1920117
942.40 0.1919485
942.50 0.1918854
942.60 0.1918223
942.70 0.1917592
942.80 0.1916961
942.90 0.1916331
943.00 0.1915701
943.10 0.1915073
943.20 0.1914446
943.30 0.1913819
943.40 0.1913191
943.50 0.1912565
943.60 0.1911938
943.70 0.1911311
943.80 0.1910685
943.90 0.1910059
944.00 0.1909433
944.10 0.1908808
944.20 0.1908183
944.30 0.1907557
944.40 0.1906933
944.50 0.1906308
944.60 0.1905683
944.70 0.1905059
944.80 0.1904435
944.90 0.1903811
945.00 0.1903188
945.10 0.1902564
945.20 0.1901941
945.30 0.1901318
945.40 0.1900696
945.50 0.1900073
945.60 0.1899451
945.70 0.1898829
945.80 0.1898207
945.90 0.1897586
946.00 0.1896964
946.10 0.1896343
946.20 0.1895722
946.30 0.1895102
946.40 0.1894481
946.50 0.1893861
946.60 0.1893241
946.70 0.1892621
946.80 0.1892001
946.90 0.1891382
947.00 0.1890763
947.10 0.1890144
947.20 0.1889525
947.30 0.1888907
947.40 0.1888288
947.50 0.188767
947.60 0.1887053
947.70 0.1886435
947.80 0.1885818
947.90 0.18852
948.00 0.1884583
948.10 0.1883967
948.20 0.188335
948.30 0.1882734
948.40 0.1882118
948.50 0.1881502
948.60 0.1880886
948.70 0.1880271
948.80 0.1879655
948.90 0.187904
949.00 0.1878426
949.10 0.1877811
949.20 0.1877197
949.30 0.1876583
949.40 0.1875969
949.50 0.1875355
949.60 0.1874741
949.70 0.1874128
949.80 0.1873515
949.90 0.1872902
950.00 0.187229
950.10 0.1871677
950.20 0.1871065
950.30 0.1870453
950.40 0.1869841
950.50 0.186923
950.60 0.1868619
950.70 0.1868007
950.80 0.1867397
950.90 0.1866786
951.00 0.1866175
951.10 0.1865565
951.20 0.1864955
951.30 0.1864345
951.40 0.1863736
951.50 0.1863126
951.60 0.1862517
951.70 0.1861908
951.80 0.1861299
951.90 0.1860691
952.00 0.1860083
952.10 0.1859475
952.20 0.1858867
952.30 0.1858259
952.40 0.1857653
952.50 0.1857063
952.60 0.1856474
952.70 0.1855884
952.80 0.1855295
952.90 0.1854706
953.00 0.1854118
953.10 0.1853529
953.20 0.1852941
953.30 0.1852353
953.40 0.1851765
953.50 0.1851177
953.60 0.185059
953.70 0.1850003
953.80 0.1849415
953.90 0.1848829
954.00 0.1848242
954.10 0.1847656
954.20 0.1847069
954.30 0.1846483
954.40 0.1845897
954.50 0.1845312
954.60 0.1844726
954.70 0.1844141
954.80 0.1843556
954.90 0.1842971
955.00 0.1842387
955.10 0.1841802
955.20 0.1841218
955.30 0.1840634
955.40 0.184005
955.50 0.1839467
955.60 0.1838884
955.70 0.18383
955.80 0.1837717
955.90 0.1837135
956.00 0.1836552
956.10 0.183597
956.20 0.1835388
956.30 0.1834806
956.40 0.1834224
956.50 0.1833642
956.60 0.1833061
956.70 0.183248
956.80 0.1831899
956.90 0.1831318
957.00 0.1830738
957.10 0.1830157
957.20 0.182957
957.30 0.1828975
957.40 0.182838
957.50 0.1827786
957.60 0.1827191
957.70 0.1826597
957.80 0.1826003
957.90 0.1825409
958.00 0.1824815
958.10 0.1824222
958.20 0.1823628
958.30 0.1823035
958.40 0.1822443
958.50 0.182185
958.60 0.1821258
958.70 0.1820665
958.80 0.1820073
958.90 0.1819482
959.00 0.181889
959.10 0.1818299
959.20 0.1817707
959.30 0.1817116
959.40 0.1816526
959.50 0.1815935
959.60 0.1815345
959.70 0.1814755
959.80 0.1814165
959.90 0.1813575
960.00 0.1812986
960.10 0.1812396
960.20 0.1811807
960.30 0.1811218
960.40 0.1810629
960.50 0.1810041
960.60 0.1809453
960.70 0.1808865
960.80 0.1808277
960.90 0.1807689
961.00 0.1807102
961.10 0.1806514
961.20 0.1805927
961.30 0.1805341
961.40 0.1804754
961.50 0.1804167
961.60 0.1803581
961.70 0.1802995
961.80 0.1802409
961.90 0.1801824
962.00 0.180124
962.10 0.1800657
962.20 0.1800074
962.30 0.1799491
962.40 0.1798909
962.50 0.1798326
962.60 0.1797744
962.70 0.1797162
962.80 0.1796581
962.90 0.1795999
963.00 0.1795418
963.10 0.1794837
963.20 0.1794256
963.30 0.1793675
963.40 0.1793095
963.50 0.1792515
963.60 0.1791934
963.70 0.1791355
963.80 0.1790775
963.90 0.1790195
964.00 0.1789616
964.10 0.1789037
964.20 0.1788458
964.30 0.178788
964.40 0.1787301
964.50 0.1786723
964.60 0.1786145
964.70 0.1785567
964.80 0.1784989
964.90 0.1784412
965.00 0.1783835
965.10 0.1783257
965.20 0.1782681
965.30 0.1782104
965.40 0.1781527
965.50 0.1780951
965.60 0.1780375
965.70 0.1779799
965.80 0.1779224
965.90 0.1778648
966.00 0.1778073
966.10 0.1777498
966.20 0.1776923
966.30 0.1776348
966.40 0.1775774
966.50 0.17752
966.60 0.1774626
966.70 0.1774052
966.80 0.1773478
966.90 0.1772905
967.00 0.1772331
967.10 0.1771758
967.20 0.1771185
967.30 0.1770613
967.40 0.177004
967.50 0.1769468
967.60 0.1768896
967.70 0.1768324
967.80 0.1767753
967.90 0.1767181
968.00 0.176661
968.10 0.1766039
968.20 0.1765468
968.30 0.1764897
968.40 0.1764327
968.50 0.1763756
968.60 0.1763186
968.70 0.1762616
968.80 0.1762047
968.90 0.1761477
969.00 0.1760908
969.10 0.1760339
969.20 0.175977
969.30 0.1759201
969.40 0.1758633
969.50 0.1758064
969.60 0.1757496
969.70 0.1756928
969.80 0.1756361
969.90 0.1755793
970.00 0.1755226
970.10 0.1754659
970.20 0.1754092
970.30 0.1753525
970.40 0.1752959
970.50 0.1752392
970.60 0.1751826
970.70 0.175126
970.80 0.1750694
970.90 0.1750129
971.00 0.1749564
971.10 0.1748998
971.20 0.1748433
971.30 0.1747869
971.40 0.1747304
971.50 0.174674
971.60 0.1746181
971.70 0.1745627
971.80 0.1745072
971.90 0.1744518
972.00 0.1743964
972.10 0.174341
972.20 0.1742856
972.30 0.1742302
972.40 0.1741749
972.50 0.1741196
972.60 0.1740643
972.70 0.174009
972.80 0.1739537
972.90 0.1738985
973.00 0.1738433
973.10 0.1737881
973.20 0.1737329
973.30 0.1736777
973.40 0.1736226
973.50 0.1735674
973.60 0.1735123
973.70 0.1734572
973.80 0.1734021
973.90 0.1733471
974.00 0.1732921
974.10 0.173237
974.20 0.173182
974.30 0.1731271
974.40 0.1730721
974.50 0.1730172
974.60 0.1729622
974.70 0.1729073
974.80 0.1728525
974.90 0.1727976
975.00 0.1727427
975.10 0.1726879
975.20 0.1726331
975.30 0.1725783
975.40 0.1725235
975.50 0.1724688
975.60 0.1724141
975.70 0.1723593
975.80 0.1723046
975.90 0.17225
976.00 0.1721953
976.10 0.1721407
976.20 0.1720861
976.30 0.1720315
976.40 0.1719769
976.50 0.1719223
976.60 0.1718678
976.70 0.1718132
976.80 0.1717587
976.90 0.1717042
977.00 0.1716498
977.10 0.1715953
977.20 0.1715409
977.30 0.1714865
977.40 0.1714321
977.50 0.1713777
977.60 0.1713233
977.70 0.171269
977.80 0.1712147
977.90 0.1711604
978.00 0.1711061
978.10 0.1710518
978.20 0.1709976
978.30 0.1709433
978.40 0.1708891
978.50 0.1708349
978.60 0.1707808
978.70 0.1707266
978.80 0.1706725
978.90 0.1706184
979.00 0.1705643
979.10 0.1705102
979.20 0.1704561
979.30 0.1704021
979.40 0.1703481
979.50 0.1702941
979.60 0.1702401
979.70 0.1701861
979.80 0.1701322
979.90 0.1700782
980.00 0.1700243
980.10 0.1699704
980.20 0.1699165
980.30 0.1698627
980.40 0.1698088
980.50 0.169755
980.60 0.1697012
980.70 0.1696474
980.80 0.1695937
980.90 0.1695399
981.00 0.1694862
981.10 0.1694325
981.20 0.1693788
981.30 0.1693249
981.40 0.1692707
981.50 0.1692165
981.60 0.1691624
981.70 0.1691083
981.80 0.1690542
981.90 0.1690001
982.00 0.1689461
982.10 0.1688921
982.20 0.168838
982.30 0.168784
982.40 0.1687301
982.50 0.1686761
982.60 0.1686221
982.70 0.1685682
982.80 0.1685143
982.90 0.1684604
983.00 0.1684066
983.10 0.1683527
983.20 0.1682989
983.30 0.1682451
983.40 0.1681913
983.50 0.1681375
983.60 0.1680837
983.70 0.16803
983.80 0.1679763
983.90 0.1679226
984.00 0.1678689
984.10 0.1678152
984.20 0.1677615
984.30 0.1677079
984.40 0.1676543
984.50 0.1676007
984.60 0.1675471
984.70 0.1674936
984.80 0.16744
984.90 0.1673865
985.00 0.167333
985.10 0.1672795
985.20 0.1672261
985.30 0.1671726
985.40 0.1671192
985.50 0.1670658
985.60 0.1670124
985.70 0.166959
985.80 0.1669056
985.90 0.1668523
986.00 0.166799
986.10 0.1667457
986.20 0.1666924
986.30 0.1666391
986.40 0.1665859
986.50 0.1665327
986.60 0.1664794
986.70 0.1664262
986.80 0.1663731
986.90 0.1663199
987.00 0.1662668
987.10 0.1662137
987.20 0.1661606
987.30 0.1661075
987.40 0.1660544
987.50 0.1660014
987.60 0.1659483
987.70 0.1658953
987.80 0.1658423
987.90 0.1657893
988.00 0.1657364
988.10 0.1656834
988.20 0.1656305
988.30 0.1655776
988.40 0.1655247
988.50 0.1654719
988.60 0.165419
988.70 0.1653662
988.80 0.1653134
988.90 0.1652606
989.00 0.1652078
989.10 0.165155
989.20 0.1651023
989.30 0.1650496
989.40 0.1649969
989.50 0.1649442
989.60 0.1648915
989.70 0.1648388
989.80 0.1647862
989.90 0.1647336
990.00 0.164681
990.10 0.1646284
990.20 0.1645759
990.30 0.1645233
990.40 0.1644708
990.50 0.1644183
990.60 0.1643658
990.70 0.1643133
990.80 0.1642608
990.90 0.1642084
991.00 0.164156
991.10 0.1641037
991.20 0.1640515
991.30 0.1639993
991.40 0.1639471
991.50 0.163895
991.60 0.1638429
991.70 0.1637907
991.80 0.1637387
991.90 0.1636866
992.00 0.1636345
992.10 0.1635825
992.20 0.1635305
992.30 0.1634785
992.40 0.1634265
992.50 0.1633745
992.60 0.1633226
992.70 0.1632706
992.80 0.1632187
992.90 0.1631668
993.00 0.163115
993.10 0.1630631
993.20 0.1630113
993.30 0.1629594
993.40 0.1629076
993.50 0.1628558
993.60 0.1628041
993.70 0.1627523
993.80 0.1627006
993.90 0.1626488
994.00 0.1625971
994.10 0.1625455
994.20 0.1624938
994.30 0.1624421
994.40 0.1623905
994.50 0.1623389
994.60 0.1622873
994.70 0.1622357
994.80 0.1621841
994.90 0.1621326
995.00 0.1620811
995.10 0.1620296
995.20 0.1619781
995.30 0.1619266
995.40 0.1618751
995.50 0.1618237
995.60 0.1617723
995.70 0.1617209
995.80 0.1616695
995.90 0.1616181
996.00 0.1615668
996.10 0.1615165
996.20 0.1614666
996.30 0.1614166
996.40 0.1613667
996.50 0.1613168
996.60 0.1612669
996.70 0.161217
996.80 0.1611671
996.90 0.1611173
997.00 0.1610674
997.10 0.1610176
997.20 0.1609678
997.30 0.160918
997.40 0.1608683
997.50 0.1608185
997.60 0.1607688
997.70 0.1607191
997.80 0.1606694
997.90 0.1606197
998.00 0.16057
998.10 0.1605204
998.20 0.1604708
998.30 0.1604211
998.40 0.1603715
998.50 0.160322
998.60 0.1602724
998.70 0.1602228
998.80 0.1601733
998.90 0.1601238
999.00 0.1600743
999.10 0.1600248
999.20 0.1599754
999.30 0.1599259
999.40 0.1598765
999.50 0.1598271
999.60 0.1597777
999.70 0.1597283
999.80 0.1596789
999.90 0.1596296
1000.00 0.1595802
1000.10 0.1595309
1000.20 0.1594816
1000.30 0.1594323
1000.40 0.1593831
1000.50 0.1593338
1000.60 0.1592846
1000.70 0.1592354
1000.80 0.1591862
1000.90 0.159137
1001.00 0.1590875
1001.10 0.1590372
1001.20 0.1589869
1001.30 0.1589366
1001.40 0.1588864
1001.50 0.1588362
1001.60 0.1587859
1001.70 0.1587357
1001.80 0.1586856
1001.90 0.1586354
1002.00 0.1585852
1002.10 0.1585351
1002.20 0.158485
1002.30 0.1584349
1002.40 0.1583848
1002.50 0.1583347
1002.60 0.1582847
1002.70 0.1582346
1002.80 0.1581846
1002.90 0.1581346
1003.00 0.1580846
1003.10 0.1580347
1003.20 0.1579847
1003.30 0.1579348
1003.40 0.1578849
1003.50 0.157835
1003.60 0.1577851
1003.70 0.1577352
1003.80 0.1576854
1003.90 0.1576355
1004.00 0.1575857
1004.10 0.1575359
1004.20 0.1574861
1004.30 0.1574364
1004.40 0.1573866
1004.50 0.1573369
1004.60 0.1572872
1004.70 0.1572375
1004.80 0.1571878
1004.90 0.1571381
1005.00 0.1570885
1005.10 0.1570388
1005.20 0.1569892
1005.30 0.1569396
1005.40 0.15689
1005.50 0.1568405
1005.60 0.1567909
1005.70 0.1567414
1005.80 0.1566919
1005.90 0.1566424
1006.00 0.1565929
1006.10 0.1565434
1006.20 0.156494
1006.30 0.1564445
1006.40 0.1563951
1006.50 0.1563457
1006.60 0.1562963
1006.70 0.156247
1006.80 0.1561976
1006.90 0.1561483
1007.00 0.1560989
1007.10 0.1560496
1007.20 0.1560003
1007.30 0.1559511
1007.40 0.1559018
1007.50 0.1558526
1007.60 0.1558034
1007.70 0.1557542
1007.80 0.155705
1007.90 0.1556558
1008.00 0.1556066
1008.10 0.1555575
1008.20 0.1555084
1008.30 0.1554593
1008.40 0.1554102
1008.50 0.1553611
1008.60 0.155312
1008.70 0.155263
1008.80 0.155214
1008.90 0.155165
1009.00 0.155116
1009.10 0.155067
1009.20 0.155018
1009.30 0.1549691
1009.40 0.1549202
1009.50 0.1548713
1009.60 0.1548224
1009.70 0.1547735
1009.80 0.1547246
1009.90 0.1546758
1010.00 0.1546269
1010.10 0.1545781
1010.20 0.1545293
1010.30 0.1544806
1010.40 0.1544318
1010.50 0.154383
1010.60 0.1543343
1010.70 0.1542856
1010.80 0.1542369
1010.90 0.1541882
1011.00 0.1541398
1011.10 0.1540926
1011.20 0.1540455
1011.30 0.1539983
1011.40 0.1539512
1011.50 0.153904
1011.60 0.1538569
1011.70 0.1538099
1011.80 0.1537628
1011.90 0.1537157
1012.00 0.1536687
1012.10 0.1536217
1012.20 0.1535746
1012.30 0.1535276
1012.40 0.1534807
1012.50 0.1534337
1012.60 0.1533868
1012.70 0.1533398
1012.80 0.1532929
1012.90 0.153246
1013.00 0.1531991
1013.10 0.1531522
1013.20 0.1531054
1013.30 0.1530585
1013.40 0.1530117
1013.50 0.1529649
1013.60 0.1529181
1013.70 0.1528713
1013.80 0.1528246
1013.90 0.1527778
1014.00 0.1527311
1014.10 0.1526844
1014.20 0.1526377
1014.30 0.152591
1014.40 0.1525443
1014.50 0.1524977
1014.60 0.152451
1014.70 0.1524044
1014.80 0.1523578
1014.90 0.1523112
1015.00 0.1522646
1015.10 0.1522181
1015.20 0.1521715
1015.30 0.152125
1015.40 0.1520785
1015.50 0.152032
1015.60 0.1519855
1015.70 0.151939
1015.80 0.1518926
1015.90 0.1518461
1016.00 0.1517997
1016.10 0.1517525
1016.20 0.1517048
1016.30 0.1516572
1016.40 0.1516096
1016.50 0.1515619
1016.60 0.1515143
1016.70 0.1514668
1016.80 0.1514192
1016.90 0.1513716
1017.00 0.1513241
1017.10 0.1512766
1017.20 0.1512291
1017.30 0.1511816
1017.40 0.1511341
1017.50 0.1510867
1017.60 0.1510392
1017.70 0.1509918
1017.80 0.1509444
1017.90 0.150897
1018.00 0.1508496
1018.10 0.1508022
1018.20 0.1507549
1018.30 0.1507075
1018.40 0.1506602
1018.50 0.1506129
1018.60 0.1505656
1018.70 0.1505184
1018.80 0.1504711
1018.90 0.1504239
1019.00 0.1503767
1019.10 0.1503294
1019.20 0.1502823
1019.30 0.1502351
1019.40 0.1501879
1019.50 0.1501408
1019.60 0.1500936
1019.70 0.1500465
1019.80 0.1499994
1019.90 0.1499523
1020.00 0.1499053
1020.10 0.1498582
1020.20 0.1498112
1020.30 0.1497642
1020.40 0.1497172
1020.50 0.1496702
1020.60 0.1496232
1020.70 0.1495762
1020.80 0.1495293
1020.90 0.1494824
1021.00 0.1494355
1021.10 0.1493886
1021.20 0.1493419
1021.30 0.1492952
1021.40 0.1492485
1021.50 0.1492018
1021.60 0.1491552
1021.70 0.1491086
1021.80 0.149062
1021.90 0.1490154
1022.00 0.1489688
1022.10 0.1489222
1022.20 0.1488757
1022.30 0.1488291
1022.40 0.1487826
1022.50 0.1487361
1022.60 0.1486896
1022.70 0.1486431
1022.80 0.1485967
1022.90 0.1485502
1023.00 0.1485038
1023.10 0.1484574
1023.20 0.148411
1023.30 0.1483646
1023.40 0.1483182
1023.50 0.1482719
1023.60 0.1482256
1023.70 0.1481792
1023.80 0.1481329
1023.90 0.1480866
1024.00 0.1480404
1024.10 0.1479941
1024.20 0.1479479
1024.30 0.1479016
1024.40 0.1478554
1024.50 0.1478092
1024.60 0.147763
1024.70 0.1477169
1024.80 0.1476707
1024.90 0.1476246
1025.00 0.1475784
1025.10 0.1475323
1025.20 0.1474862
1025.30 0.1474402
1025.40 0.1473941
1025.50 0.1473481
1025.60 0.147302
1025.70 0.147256
1025.80 0.14721
1025.90 0.147164
1026.00 0.1471181
1026.10 0.1470721
1026.20 0.1470262
1026.30 0.1469815
1026.40 0.1469368
1026.50 0.1468921
1026.60 0.1468475
1026.70 0.1468028
1026.80 0.1467582
1026.90 0.1467136
1027.00 0.146669
1027.10 0.1466244
1027.20 0.1465799
1027.30 0.1465353
1027.40 0.1464908
1027.50 0.1464463
1027.60 0.1464018
1027.70 0.1463573
1027.80 0.1463128
1027.90 0.1462683
1028.00 0.1462239
1028.10 0.1461794
1028.20 0.146135
1028.30 0.1460906
1028.40 0.1460462
1028.50 0.1460019
1028.60 0.1459575
1028.70 0.1459132
1028.80 0.1458688
1028.90 0.1458245
1029.00 0.1457802
1029.10 0.1457359
1029.20 0.1456916
1029.30 0.1456474
1029.40 0.1456031
1029.50 0.1455589
1029.60 0.1455147
1029.70 0.1454705
1029.80 0.1454263
1029.90 0.1453821
1030.00 0.145338
1030.10 0.1452938
1030.20 0.1452497
1030.30 0.1452056
1030.40 0.1451615
1030.50 0.1451174
1030.60 0.1450733
1030.70 0.1450293
1030.80 0.1449852
1030.90 0.1449412
1031.00 0.1448972
1031.10 0.1448532
1031.20 0.1448092
1031.30 0.1447652
1031.40 0.1447203
1031.50 0.1446753
1031.60 0.1446303
1031.70 0.1445853
1031.80 0.1445404
1031.90 0.1444954
1032.00 0.1444505
1032.10 0.1444056
1032.20 0.1443607
1032.30 0.1443159
1032.40 0.144271
1032.50 0.1442262
1032.60 0.1441813
1032.70 0.1441365
1032.80 0.1440917
1032.90 0.1440469
1033.00 0.1440022
1033.10 0.1439574
1033.20 0.1439127
1033.30 0.1438679
1033.40 0.1438232
1033.50 0.1437785
1033.60 0.1437338
1033.70 0.1436892
1033.80 0.1436445
1033.90 0.1435999
1034.00 0.1435552
1034.10 0.1435106
1034.20 0.143466
1034.30 0.1434214
1034.40 0.1433769
1034.50 0.1433323
1034.60 0.1432878
1034.70 0.1432433
1034.80 0.1431988
1034.90 0.1431543
1035.00 0.1431098
1035.10 0.1430653
1035.20 0.1430209
1035.30 0.1429764
1035.40 0.142932
1035.50 0.1428876
1035.60 0.1428432
1035.70 0.1427988
1035.80 0.1427545
1035.90 0.1427101
1036.00 0.1426658
1036.10 0.1426215
1036.20 0.1425772
1036.30 0.1425329
1036.40 0.1424886
1036.50 0.1424448
1036.60 0.1424017
1036.70 0.1423587
1036.80 0.1423157
1036.90 0.1422727
1037.00 0.1422297
1037.10 0.1421867
1037.20 0.1421437
1037.30 0.1421007
1037.40 0.1420578
1037.50 0.1420149
1037.60 0.141972
1037.70 0.1419291
1037.80 0.1418862
1037.90 0.1418433
1038.00 0.1418004
1038.10 0.1417576
1038.20 0.1417148
1038.30 0.1416719
1038.40 0.1416291
1038.50 0.1415864
1038.60 0.1415436
1038.70 0.1415008
1038.80 0.1414581
1038.90 0.1414153
1039.00 0.1413726
1039.10 0.1413299
1039.20 0.1412872
1039.30 0.1412445
1039.40 0.1412019
1039.50 0.1411592
1039.60 0.1411166
1039.70 0.141074
1039.80 0.1410313
1039.90 0.1409887
1040.00 0.1409462
1040.10 0.1409036
1040.20 0.140861
1040.30 0.1408185
1040.40 0.140776
1040.50 0.1407335
1040.60 0.140691
1040.70 0.1406485
1040.80 0.140606
1040.90 0.1405635
1041.00 0.1405211
1041.10 0.1404787
1041.20 0.1404362
1041.30 0.1403938
1041.40 0.1403515
1041.50 0.1403091
1041.60 0.1402667
1041.70 0.1402235
1041.80 0.1401802
1041.90 0.1401368
1042.00 0.1400935
1042.10 0.1400502
1042.20 0.1400069
1042.30 0.1399636
1042.40 0.1399203
1042.50 0.1398771
1042.60 0.1398338
1042.70 0.1397906
1042.80 0.1397474
1042.90 0.1397042
1043.00 0.139661
1043.10 0.1396178
1043.20 0.1395747
1043.30 0.1395315
1043.40 0.1394884
1043.50 0.1394453
1043.60 0.1394022
1043.70 0.1393591
1043.80 0.139316
1043.90 0.1392729
1044.00 0.1392299
1044.10 0.1391869
1044.20 0.1391438
1044.30 0.1391008
1044.40 0.1390578
1044.50 0.1390149
1044.60 0.1389719
1044.70 0.1389289
1044.80 0.138886
1044.90 0.1388431
1045.00 0.1388002
1045.10 0.1387573
1045.20 0.1387144
1045.30 0.1386715
1045.40 0.1386287
1045.50 0.1385858
1045.60 0.138543
1045.70 0.1385002
1045.80 0.1384574
1045.90 0.1384146
1046.00 0.1383719
1046.10 0.1383291
1046.20 0.1382864
1046.30 0.1382436
1046.40 0.1382009
1046.50 0.1381582
1046.60 0.1381155
1046.70 0.1380729
1046.80 0.1380302
1046.90 0.1379884
1047.00 0.1379469
1047.10 0.1379055
1047.20 0.137864
1047.30 0.1378226
1047.40 0.1377812
1047.50 0.1377398
1047.60 0.1376984
1047.70 0.137657
1047.80 0.1376157
1047.90 0.1375743
1048.00 0.137533
1048.10 0.1374917
1048.20 0.1374504
1048.30 0.1374091
1048.40 0.1373678
1048.50 0.1373265
1048.60 0.1372852
1048.70 0.137244
1048.80 0.1372028
1048.90 0.1371616
1049.00 0.1371203
1049.10 0.1370792
1049.20 0.137038
1049.30 0.1369968
1049.40 0.1369557
1049.50 0.1369145
1049.60 0.1368734
1049.70 0.1368323
1049.80 0.1367912
1049.90 0.1367501
1050.00 0.136709
1050.10 0.136668
1050.20 0.1366269
1050.30 0.1365859
1050.40 0.1365449
1050.50 0.1365039
1050.60 0.1364629
1050.70 0.1364219
1050.80 0.1363809
1050.90 0.13634
1051.00 0.136299
1051.10 0.1362581
1051.20 0.1362172
1051.30 0.1361763
1051.40 0.1361354
1051.50 0.1360945
1051.60 0.1360537
1051.70 0.1360128
1051.80 0.135972
1051.90 0.1359312
1052.00 0.1358903
1052.10 0.1358493
1052.20 0.1358081
1052.30 0.1357669
1052.40 0.1357257
1052.50 0.1356845
1052.60 0.1356434
1052.70 0.1356022
1052.80 0.1355611
1052.90 0.13552
1053.00 0.1354789
1053.10 0.1354378
1053.20 0.1353967
1053.30 0.1353557
1053.40 0.1353146
1053.50 0.1352736
1053.60 0.1352326
1053.70 0.1351916
1053.80 0.1351506
1053.90 0.1351096
1054.00 0.1350686
1054.10 0.1350277
1054.20 0.1349867
1054.30 0.1349458
1054.40 0.1349049
1054.50 0.134864
1054.60 0.1348231
1054.70 0.1347822
1054.80 0.1347414
1054.90 0.1347005
1055.00 0.1346597
1055.10 0.1346189
1055.20 0.1345781
1055.30 0.1345373
1055.40 0.1344965
1055.50 0.1344557
1055.60 0.1344149
1055.70 0.1343742
1055.80 0.1343335
1055.90 0.1342927
1056.00 0.134252
1056.10 0.1342113
1056.20 0.1341707
1056.30 0.13413
1056.40 0.1340893
1056.50 0.1340487
1056.60 0.1340081
1056.70 0.1339675
1056.80 0.1339269
1056.90 0.1338863
1057.00 0.1338457
1057.10 0.1338051
1057.20 0.1337646
1057.30 0.133724
1057.40 0.1336835
1057.50 0.133643
1057.60 0.1336025
1057.70 0.133562
1057.80 0.1335216
1057.90 0.1334811
1058.00 0.1334406
1058.10 0.1334002
1058.20 0.1333598
1058.30 0.1333194
1058.40 0.133279
1058.50 0.1332386
1058.60 0.1331982
1058.70 0.1331579
1058.80 0.1331175
1058.90 0.1330772
1059.00 0.1330369
1059.10 0.1329966
1059.20 0.1329563
1059.30 0.132916
1059.40 0.1328757
1059.50 0.1328355
1059.60 0.1327952
1059.70 0.132755
1059.80 0.1327148
1059.90 0.1326746
1060.00 0.1326344
1060.10 0.1325942
1060.20 0.1325541
1060.30 0.1325139
1060.40 0.1324738
1060.50 0.1324337
1060.60 0.1323935
1060.70 0.1323534
1060.80 0.1323134
1060.90 0.1322733
1061.00 0.1322332
1061.10 0.1321932
1061.20 0.1321531
1061.30 0.1321131
1061.40 0.1320731
1061.50 0.1320331
1061.60 0.1319931
1061.70 0.1319531
1061.80 0.1319132
1061.90 0.1318732
1062.00 0.1318333
1062.10 0.1317934
1062.20 0.1317535
1062.30 0.1317136
1062.40 0.1316737
1062.50 0.1316338
1062.60 0.1315938
1062.70 0.1315535
1062.80 0.1315133
1062.90 0.1314731
1063.00 0.1314329
1063.10 0.1313927
1063.20 0.1313525
1063.30 0.1313123
1063.40 0.1312721
1063.50 0.131232
1063.60 0.1311919
1063.70 0.1311517
1063.80 0.1311116
1063.90 0.1310715
1064.00 0.1310314
1064.10 0.1309914
1064.20 0.1309513
1064.30 0.1309113
1064.40 0.1308712
1064.50 0.1308312
1064.60 0.1307912
1064.70 0.1307512
1064.80 0.1307112
1064.90 0.1306713
1065.00 0.1306313
1065.10 0.1305914
1065.20 0.1305514
1065.30 0.1305115
1065.40 0.1304716
1065.50 0.1304317
1065.60 0.1303918
1065.70 0.130352
1065.80 0.1303121
1065.90 0.1302723
1066.00 0.1302324
1066.10 0.1301926
1066.20 0.1301528
1066.30 0.130113
1066.40 0.1300733
1066.50 0.1300335
1066.60 0.1299937
1066.70 0.129954
1066.80 0.1299143
1066.90 0.1298745
1067.00 0.1298348
1067.10 0.1297952
1067.20 0.1297555
1067.30 0.1297158
1067.40 0.1296762
1067.50 0.1296365
1067.60 0.1295969
1067.70 0.1295573
1067.80 0.1295177
1067.90 0.1294784
1068.00 0.12944
1068.10 0.1294015
1068.20 0.129363
1068.30 0.1293246
1068.40 0.1292861
1068.50 0.1292477
1068.60 0.1292093
1068.70 0.1291709
1068.80 0.1291325
1068.90 0.1290941
1069.00 0.1290558
1069.10 0.1290174
1069.20 0.1289791
1069.30 0.1289408
1069.40 0.1289024
1069.50 0.1288641
1069.60 0.1288258
1069.70 0.1287876
1069.80 0.1287493
1069.90 0.128711
1070.00 0.1286728
1070.10 0.1286346
1070.20 0.1285964
1070.30 0.1285581
1070.40 0.1285199
1070.50 0.1284818
1070.60 0.1284436
1070.70 0.1284054
1070.80 0.1283673
1070.90 0.1283292
1071.00 0.128291
1071.10 0.1282529
1071.20 0.1282148
1071.30 0.1281767
1071.40 0.1281387
1071.50 0.1281006
1071.60 0.1280625
1071.70 0.1280245
1071.80 0.1279865
1071.90 0.1279485
1072.00 0.1279105
1072.10 0.1278725
1072.20 0.1278345
1072.30 0.1277965
1072.40 0.1277586
1072.50 0.1277206
1072.60 0.1276827
1072.70 0.1276448
1072.80 0.1276069
1072.90 0.127569
1073.00 0.1275311
1073.10 0.1274932
1073.20 0.1274552
1073.30 0.1274164
1073.40 0.1273776
1073.50 0.1273389
1073.60 0.1273001
1073.70 0.1272614
1073.80 0.1272227
1073.90 0.127184
1074.00 0.1271453
1074.10 0.1271066
1074.20 0.1270679
1074.30 0.1270293
1074.40 0.1269906
1074.50 0.126952
1074.60 0.1269134
1074.70 0.1268747
1074.80 0.1268362
1074.90 0.1267976
1075.00 0.126759
1075.10 0.1267204
1075.20 0.1266819
1075.30 0.1266433
1075.40 0.1266048
1075.50 0.1265663
1075.60 0.1265278
1075.70 0.1264893
1075.80 0.1264509
1075.90 0.1264124
1076.00 0.1263739
1076.10 0.1263355
1076.20 0.1262971
1076.30 0.1262587
1076.40 0.1262203
1076.50 0.1261819
1076.60 0.1261435
1076.70 0.1261051
1076.80 0.1260668
1076.90 0.1260284
1077.00 0.1259901
1077.10 0.1259518
1077.20 0.1259135
1077.30 0.1258752
1077.40 0.1258369
1077.50 0.1257986
1077.60 0.1257604
1077.70 0.1257221
1077.80 0.1256839
1077.90 0.1256457
1078.00 0.1256075
1078.10 0.1255693
1078.20 0.1255311
1078.30 0.1254929
1078.40 0.1254547
1078.50 0.1254166
1078.60 0.125379
1078.70 0.125342
1078.80 0.1253049
1078.90 0.1252679
1079.00 0.1252309
1079.10 0.1251938
1079.20 0.1251568
1079.30 0.1251198
1079.40 0.1250829
1079.50 0.1250459
1079.60 0.1250089
1079.70 0.124972
1079.80 0.124935
1079.90 0.1248981
1080.00 0.1248612
1080.10 0.1248243
1080.20 0.1247874
1080.30 0.1247505
1080.40 0.1247137
1080.50 0.1246768
1080.60 0.12464
1080.70 0.1246031
1080.80 0.1245663
1080.90 0.1245295
1081.00 0.1244927
1081.10 0.1244559
1081.20 0.1244192
1081.30 0.1243824
1081.40 0.1243456
1081.50 0.1243089
1081.60 0.1242722
1081.70 0.1242354
1081.80 0.1241987
1081.90 0.124162
1082.00 0.1241254
1082.10 0.1240887
1082.20 0.124052
1082.30 0.1240154
1082.40 0.1239787
1082.50 0.1239421
1082.60 0.1239055
1082.70 0.1238689
1082.80 0.1238323
1082.90 0.1237957
1083.00 0.1237592
1083.10 0.1237226
1083.20 0.1236861
1083.30 0.1236495
1083.40 0.123613
1083.50 0.1235765
1083.60 0.12354
1083.70 0.1235035
1083.80 0.123467
1083.90 0.1234306
1084.00 0.1233942
1084.10 0.1233579
1084.20 0.1233216
1084.30 0.1232853
1084.40 0.1232491
1084.50 0.1232128
1084.60 0.1231765
1084.70 0.1231403
1084.80 0.1231041
1084.90 0.1230679
1085.00 0.1230317
1085.10 0.1229955
1085.20 0.1229593
1085.30 0.1229231
1085.40 0.1228869
1085.50 0.1228508
1085.60 0.1228147
1085.70 0.1227785
1085.80 0.1227424
1085.90 0.1227063
1086.00 0.1226702
1086.10 0.1226341
1086.20 0.1225981
1086.30 0.122562
1086.40 0.122526
1086.50 0.1224899
1086.60 0.1224539
1086.70 0.1224179
1086.80 0.1223819
1086.90 0.1223459
1087.00 0.1223099
1087.10 0.1222739
1087.20 0.122238
1087.30 0.122202
1087.40 0.1221661
1087.50 0.1221302
1087.60 0.1220942
1087.70 0.1220583
1087.80 0.1220224
1087.90 0.1219866
1088.00 0.1219507
1088.10 0.1219148
1088.20 0.121879
1088.30 0.1218432
1088.40 0.1218073
1088.50 0.1217715
1088.60 0.1217357
1088.70 0.1216999
1088.80 0.1216641
1088.90 0.1216284
1089.00 0.1215926
1089.10 0.1215569
1089.20 0.1215211
1089.30 0.1214854
1089.40 0.121449
1089.50 0.1214122
1089.60 0.1213755
1089.70 0.1213388
1089.80 0.1213021
1089.90 0.1212654
1090.00 0.1212287
1090.10 0.121192
1090.20 0.1211554
1090.30 0.1211187
1090.40 0.1210821
1090.50 0.1210455
1090.60 0.1210089
1090.70 0.1209723
1090.80 0.1209357
1090.90 0.1208991
1091.00 0.1208625
1091.10 0.120826
1091.20 0.1207894
1091.30 0.1207529
1091.40 0.1207164
1091.50 0.1206799
1091.60 0.1206434
1091.70 0.1206069
1091.80 0.1205704
1091.90 0.1205339
1092.00 0.1204975
1092.10 0.120461
1092.20 0.1204246
1092.30 0.1203882
1092.40 0.1203518
1092.50 0.1203154
1092.60 0.120279
1092.70 0.1202426
1092.80 0.1202063
1092.90 0.1201699
1093.00 0.1201336
1093.10 0.1200973
1093.20 0.1200609
1093.30 0.1200246
1093.40 0.1199883
1093.50 0.1199521
1093.60 0.1199158
1093.70 0.1198795
1093.80 0.1198433
1093.90 0.119807
1094.00 0.1197708
1094.10 0.1197346
1094.20 0.1196984
1094.30 0.1196622
1094.40 0.119626
1094.50 0.1195898
1094.60 0.1195537
1094.70 0.1195175
1094.80 0.119482
1094.90 0.119447
1095.00 0.119412
1095.10 0.1193771
1095.20 0.1193421
1095.30 0.1193072
1095.40 0.1192723
1095.50 0.1192374
1095.60 0.1192025
1095.70 0.1191676
1095.80 0.1191327
1095.90 0.1190979
1096.00 0.119063
1096.10 0.1190282
1096.20 0.1189933
1096.30 0.1189585
1096.40 0.1189237
1096.50 0.1188889
1096.60 0.1188541
1096.70 0.1188193
1096.80 0.1187846
1096.90 0.1187498
1097.00 0.1187151
1097.10 0.1186803
1097.20 0.1186456
1097.30 0.1186109
1097.40 0.1185762
1097.50 0.1185415
1097.60 0.1185068
1097.70 0.1184722
1097.80 0.1184375
1097.90 0.1184028
1098.00 0.1183682
1098.10 0.1183336
1098.20 0.118299
1098.30 0.1182644
1098.40 0.1182298
1098.50 0.1181952
1098.60 0.1181606
1098.70 0.118126
1098.80 0.1180915
1098.90 0.1180569
1099.00 0.1180224
1099.10 0.1179879
1099.20 0.1179534
1099.30 0.1179189
1099.40 0.1178844
1099.50 0.1178499
1099.60 0.1178154
1099.70 0.117781
1099.80 0.1177465
1099.90 0.1177121
1100.00 0.1176777
1100.10 0.1176432
1100.20 0.1176088
1100.30 0.1175744
1100.40 0.1175401
1100.50 0.1175057
1100.60 0.1174713
1100.70 0.117437
1100.80 0.1174026
1100.90 0.1173683
1101.00 0.117334
1101.10 0.1172997
1101.20 0.1172654
1101.30 0.1172311
1101.40 0.1171968
1101.50 0.1171625
1101.60 0.1171283
1101.70 0.117094
1101.80 0.1170598
1101.90 0.1170256
1102.00 0.1169913
1102.10 0.1169571
1102.20 0.1169229
1102.30 0.1168887
1102.40 0.1168546
1102.50 0.1168204
1102.60 0.1167863
1102.70 0.1167521
1102.80 0.116718
1102.90 0.1166839
1103.00 0.1166497
1103.10 0.1166156
1103.20 0.1165816
1103.30 0.1165475
1103.40 0.1165134
1103.50 0.1164793
1103.60 0.1164453
1103.70 0.1164113
1103.80 0.1163772
1103.90 0.1163432
1104.00 0.1163092
1104.10 0.1162752
1104.20 0.1162412
1104.30 0.1162072
1104.40 0.1161733
1104.50 0.1161393
1104.60 0.1161054
1104.70 0.1160715
1104.80 0.1160375
1104.90 0.1160036
1105.00 0.1159697
1105.10 0.1159358
1105.20 0.1159019
1105.30 0.1158681
1105.40 0.1158342
1105.50 0.1158003
1105.60 0.1157665
1105.70 0.1157327
1105.80 0.115699
1105.90 0.1156653
1106.00 0.1156316
1106.10 0.115598
1106.20 0.1155643
1106.30 0.1155307
1106.40 0.115497
1106.50 0.1154634
1106.60 0.1154298
1106.70 0.1153962
1106.80 0.1153626
1106.90 0.115329
1107.00 0.1152955
1107.10 0.1152619
1107.20 0.1152284
1107.30 0.1151948
1107.40 0.1151613
1107.50 0.1151278
1107.60 0.1150943
1107.70 0.1150608
1107.80 0.1150273
1107.90 0.1149938
1108.00 0.1149603
1108.10 0.1149269
1108.20 0.1148934
1108.30 0.11486
1108.40 0.1148266
1108.50 0.1147931
1108.60 0.1147597
1108.70 0.1147263
1108.80 0.114693
1108.90 0.1146596
1109.00 0.1146262
1109.10 0.1145929
1109.20 0.1145595
1109.30 0.1145262
1109.40 0.1144929
1109.50 0.1144595
1109.60 0.1144262
1109.70 0.1143929
1109.80 0.1143597
1109.90 0.1143264
1110.00 0.1142931
1110.10 0.1142599
1110.20 0.1142266
1110.30 0.1141934
1110.40 0.1141602
1110.50 0.1141269
1110.60 0.1140937
1110.70 0.1140606
1110.80 0.1140274
1110.90 0.1139942
1111.00 0.113961
1111.10 0.1139279
1111.20 0.1138947
1111.30 0.1138616
1111.40 0.1138285
1111.50 0.1137954
1111.60 0.1137623
1111.70 0.1137292
1111.80 0.1136961
1111.90 0.113663
1112.00 0.11363
1112.10 0.1135969
1112.20 0.1135639
1112.30 0.1135308
1112.40 0.1134978
1112.50 0.1134648
1112.60 0.1134318
1112.70 0.1133988
1112.80 0.1133658
1112.90 0.1133328
1113.00 0.1132999
1113.10 0.1132669
1113.20 0.113234
1113.30 0.1132011
1113.40 0.1131681
1113.50 0.1131352
1113.60 0.1131023
1113.70 0.1130694
1113.80 0.1130365
1113.90 0.1130037
1114.00 0.1129708
1114.10 0.112938
1114.20 0.1129051
1114.30 0.1128723
1114.40 0.1128395
1114.50 0.1128067
1114.60 0.1127738
1114.70 0.1127411
1114.80 0.1127083
1114.90 0.1126755
1115.00 0.1126427
1115.10 0.11261
1115.20 0.1125772
1115.30 0.1125445
1115.40 0.1125118
1115.50 0.1124791
1115.60 0.1124464
1115.70 0.1124137
1115.80 0.112381
1115.90 0.1123483
1116.00 0.1123157
1116.10 0.112283
1116.20 0.1122504
1116.30 0.1122177
1116.40 0.1121851
1116.50 0.1121525
1116.60 0.1121199
1116.70 0.1120873
1116.80 0.1120543
1116.90 0.1120209
1117.00 0.1119875
1117.10 0.1119542
1117.20 0.1119208
1117.30 0.1118874
1117.40 0.1118541
1117.50 0.1118207
1117.60 0.1117874
1117.70 0.1117541
1117.80 0.1117208
1117.90 0.1116875
1118.00 0.1116542
1118.10 0.1116209
1118.20 0.1115876
1118.30 0.1115544
1118.40 0.1115211
1118.50 0.1114879
1118.60 0.1114546
1118.70 0.1114214
1118.80 0.1113882
1118.90 0.111355
1119.00 0.1113218
1119.10 0.1112886
1119.20 0.1112555
1119.30 0.1112223
1119.40 0.1111892
1119.50 0.111156
1119.60 0.1111229
1119.70 0.1110898
1119.80 0.1110567
1119.90 0.1110236
1120.00 0.1109905
1120.10 0.1109574
1120.20 0.1109243
1120.30 0.1108913
1120.40 0.1108582
1120.50 0.1108252
1120.60 0.1107922
1120.70 0.1107591
1120.80 0.1107261
1120.90 0.1106931
1121.00 0.1106601
1121.10 0.1106272
1121.20 0.1105942
1121.30 0.1105612
1121.40 0.1105283
1121.50 0.1104953
1121.60 0.1104624
1121.70 0.1104295
1121.80 0.1103966
1121.90 0.1103637
1122.00 0.1103308
1122.10 0.1102979
1122.20 0.1102651
1122.30 0.1102322
1122.40 0.1101999
1122.50 0.110168
1122.60 0.1101361
1122.70 0.1101043
1122.80 0.1100724
1122.90 0.1100405
1123.00 0.1100087
1123.10 0.1099768
1123.20 0.109945
1123.30 0.1099132
1123.40 0.1098814
1123.50 0.1098496
1123.60 0.1098178
1123.70 0.109786
1123.80 0.1097542
1123.90 0.1097225
1124.00 0.1096907
1124.10 0.109659
1124.20 0.1096272
1124.30 0.1095955
1124.40 0.1095638
1124.50 0.1095321
1124.60 0.1095004
1124.70 0.1094687
1124.80 0.109437
1124.90 0.1094053
1125.00 0.1093737
1125.10 0.109342
1125.20 0.1093104
1125.30 0.1092788
1125.40 0.1092471
1125.50 0.1092155
1125.60 0.1091839
1125.70 0.1091523
1125.80 0.1091207
1125.90 0.1090892
1126.00 0.1090576
1126.10 0.1090261
1126.20 0.1089945
1126.30 0.108963
1126.40 0.1089315
1126.50 0.1088999
1126.60 0.1088684
1126.70 0.1088369
1126.80 0.1088054
1126.90 0.108774
1127.00 0.1087425
1127.10 0.108711
1127.20 0.1086796
1127.30 0.1086481
1127.40 0.1086167
1127.50 0.1085853
1127.60 0.1085539
1127.70 0.1085225
1127.80 0.1084911
1127.90 0.1084597
1128.00 0.1084284
1128.10 0.1083972
1128.20 0.1083659
1128.30 0.1083347
1128.40 0.1083035
1128.50 0.1082723
1128.60 0.1082411
1128.70 0.1082099
1128.80 0.1081787
1128.90 0.1081476
1129.00 0.1081164
1129.10 0.1080853
1129.20 0.1080541
1129.30 0.108023
1129.40 0.1079919
1129.50 0.1079608
1129.60 0.1079297
1129.70 0.1078986
1129.80 0.1078675
1129.90 0.1078364
1130.00 0.1078053
1130.10 0.1077743
1130.20 0.1077432
1130.30 0.1077122
1130.40 0.1076812
1130.50 0.1076502
1130.60 0.1076191
1130.70 0.1075881
1130.80 0.1075572
1130.90 0.1075262
1131.00 0.1074952
1131.10 0.1074642
1131.20 0.1074333
1131.30 0.1074023
1131.40 0.1073714
1131.50 0.1073405
1131.60 0.1073096
1131.70 0.1072787
1131.80 0.1072478
1131.90 0.1072169
1132.00 0.107186
1132.10 0.1071551
1132.20 0.1071243
1132.30 0.1070934
1132.40 0.1070626
1132.50 0.1070317
1132.60 0.1070009
1132.70 0.1069701
1132.80 0.1069393
1132.90 0.1069085
1133.00 0.1068777
1133.10 0.1068469
1133.20 0.1068162
1133.30 0.1067854
1133.40 0.1067546
1133.50 0.1067239
1133.60 0.1066932
1133.70 0.1066624
1133.80 0.1066317
1133.90 0.106601
1134.00 0.1065703
1134.10 0.1065396
1134.20 0.106509
1134.30 0.1064783
1134.40 0.1064476
1134.50 0.106417
1134.60 0.1063864
1134.70 0.1063557
1134.80 0.1063251
1134.90 0.1062945
1135.00 0.1062639
1135.10 0.1062333
1135.20 0.1062027
1135.30 0.1061721
1135.40 0.1061416
1135.50 0.106111
1135.60 0.1060804
1135.70 0.1060499
1135.80 0.1060194
1135.90 0.1059889
1136.00 0.1059583
1136.10 0.1059278
1136.20 0.1058973
1136.30 0.1058669
1136.40 0.1058364
1136.50 0.1058059
1136.60 0.1057755
1136.70 0.105745
1136.80 0.1057146
1136.90 0.1056841
1137.00 0.1056537
1137.10 0.1056233
1137.20 0.1055929
1137.30 0.1055625
1137.40 0.1055321
1137.50 0.1055017
1137.60 0.1054714
1137.70 0.105441
1137.80 0.1054107
1137.90 0.1053803
1138.00 0.10535
1138.10 0.1053197
1138.20 0.1052894
1138.30 0.1052591
1138.40 0.1052288
1138.50 0.1051985
1138.60 0.1051682
1138.70 0.1051379
1138.80 0.1051077
1138.90 0.1050774
1139.00 0.1050472
1139.10 0.1050169
1139.20 0.1049867
1139.30 0.1049566
1139.40 0.1049265
1139.50 0.1048964
1139.60 0.1048664
1139.70 0.1048363
1139.80 0.1048063
1139.90 0.1047762
1140.00 0.1047462
1140.10 0.1047162
1140.20 0.1046861
1140.30 0.1046561
1140.40 0.1046261
1140.50 0.1045961
1140.60 0.1045662
1140.70 0.1045362
1140.80 0.1045062
1140.90 0.1044763
1141.00 0.1044463
1141.10 0.1044164
1141.20 0.1043864
1141.30 0.1043565
1141.40 0.1043266
1141.50 0.1042967
1141.60 0.1042668
1141.70 0.1042369
1141.80 0.1042071
1141.90 0.1041772
1142.00 0.1041473
1142.10 0.1041175
1142.20 0.1040876
1142.30 0.1040578
1142.40 0.104028
1142.50 0.1039982
1142.60 0.1039684
1142.70 0.1039386
1142.80 0.1039088
1142.90 0.103879
1143.00 0.1038492
1143.10 0.1038195
1143.20 0.1037897
1143.30 0.10376
1143.40 0.1037302
1143.50 0.1037005
1143.60 0.1036708
1143.70 0.1036411
1143.80 0.1036114
1143.90 0.1035817
1144.00 0.103552
1144.10 0.1035224
1144.20 0.1034927
1144.30 0.103463
1144.40 0.1034334
1144.50 0.1034038
1144.60 0.1033741
1144.70 0.1033445
1144.80 0.1033149
1144.90 0.1032853
1145.00 0.1032557
1145.10 0.1032261
1145.20 0.1031965
1145.30 0.103167
1145.40 0.1031374
1145.50 0.1031079
1145.60 0.1030783
1145.70 0.1030488
1145.80 0.1030193
1145.90 0.1029897
1146.00 0.1029602
1146.10 0.1029307
1146.20 0.1029013
1146.30 0.1028718
1146.40 0.1028423
1146.50 0.1028128
1146.60 0.1027834
1146.70 0.1027539
1146.80 0.1027245
1146.90 0.1026951
1147.00 0.1026657
1147.10 0.1026362
1147.20 0.1026068
1147.30 0.1025775
1147.40 0.1025481
1147.50 0.1025187
1147.60 0.1024893
1147.70 0.10246
1147.80 0.1024306
1147.90 0.1024013
1148.00 0.1023719
1148.10 0.1023426
1148.20 0.1023133
1148.30 0.102284
1148.40 0.1022547
1148.50 0.1022254
1148.60 0.1021961
1148.70 0.1021669
1148.80 0.1021376
1148.90 0.1021083
1149.00 0.1020791
1149.10 0.1020499
1149.20 0.1020206
1149.30 0.1019914
1149.40 0.1019622
1149.50 0.101933
1149.60 0.1019038
1149.70 0.1018746
1149.80 0.1018454
1149.90 0.1018163
1150.00 0.1017871
1150.10 0.101758
1150.20 0.1017288
1150.30 0.1016997
1150.40 0.1016706
1150.50 0.1016415
1150.60 0.1016123
1150.70 0.1015834
1150.80 0.1015544
1150.90 0.1015254
1151.00 0.1014964
1151.10 0.1014675
1151.20 0.1014385
1151.30 0.1014096
1151.40 0.1013807
1151.50 0.1013518
1151.60 0.1013229
1151.70 0.101294
1151.80 0.1012651
1151.90 0.1012362
1152.00 0.1012073
1152.10 0.1011784
1152.20 0.1011496
1152.30 0.1011207
1152.40 0.1010919
1152.50 0.101063
1152.60 0.1010342
1152.70 0.1010054
1152.80 0.1009766
1152.90 0.1009478
1153.00 0.100919
1153.10 0.1008902
1153.20 0.1008614
1153.30 0.1008327
1153.40 0.1008039
1153.50 0.1007752
1153.60 0.1007464
1153.70 0.1007177
1153.80 0.100689
1153.90 0.1006602
1154.00 0.1006315
1154.10 0.1006028
1154.20 0.1005741
1154.30 0.1005455
1154.40 0.1005168
1154.50 0.1004881
1154.60 0.1004595
1154.70 0.1004308
1154.80 0.1004022
1154.90 0.1003735
1155.00 0.1003449
1155.10 0.1003163
1155.20 0.1002877
1155.30 0.1002591
1155.40 0.1002305
1155.50 0.1002019
1155.60 0.1001734
1155.70 0.1001448
1155.80 0.1001162
1155.90 0.1000877
1156.00 0.1000591
1156.10 0.1000306
1156.20 0.1000021
1156.30 0.09997357
1156.40 0.09994507
1156.50 0.09991658
1156.60 0.09988809
1156.70 0.09985961
1156.80 0.09983115
1156.90 0.09980269
1157.00 0.09977423
1157.10 0.09974579
1157.20 0.09971735
1157.30 0.09968893
1157.40 0.09966051
1157.50 0.0996321
1157.60 0.0996037
1157.70 0.0995753
1157.80 0.09954692
1157.90 0.09951854
1158.00 0.09949017
1158.10 0.09946181
1158.20 0.09943346
1158.30 0.09940511
1158.40 0.09937678
1158.50 0.09934845
1158.60 0.09932013
1158.70 0.09929182
1158.80 0.09926352
1158.90 0.09923523
1159.00 0.09920694
1159.10 0.09917866
1159.20 0.09915039
1159.30 0.09912213
1159.40 0.09909388
1159.50 0.09906563
1159.60 0.0990374
1159.70 0.09900917
1159.80 0.09898095
1159.90 0.09895274
1160.00 0.09892454
1160.10 0.09889634
1160.20 0.09886816
1160.30 0.09883998
1160.40 0.09881181
1160.50 0.09878365
1160.60 0.09875549
1160.70 0.09872735
1160.80 0.09869921
1160.90 0.09867108
1161.00 0.09864296
1161.10 0.09861485
1161.20 0.09858674
1161.30 0.09855865
1161.40 0.09853056
1161.50 0.09850248
1161.60 0.09847441
1161.70 0.09844634
1161.80 0.09841829
1161.90 0.09839024
1162.00 0.0983622
1162.10 0.09833417
1162.20 0.0983071
1162.30 0.09828004
1162.40 0.09825299
1162.50 0.09822594
1162.60 0.09819891
1162.70 0.09817187
1162.80 0.09814485
1162.90 0.09811784
1163.00 0.09809083
1163.10 0.09806383
1163.20 0.09803684
1163.30 0.09800986
1163.40 0.09798288
1163.50 0.09795592
1163.60 0.09792896
1163.70 0.097902
1163.80 0.09787506
1163.90 0.09784812
1164.00 0.09782119
1164.10 0.09779427
1164.20 0.09776736
1164.30 0.09774046
1164.40 0.09771356
1164.50 0.09768667
1164.60 0.09765979
1164.70 0.09763291
1164.80 0.09760605
1164.90 0.09757919
1165.00 0.09755234
1165.10 0.0975255
1165.20 0.09749866
1165.30 0.09747183
1165.40 0.09744501
1165.50 0.0974182
1165.60 0.0973914
1165.70 0.0973646
1165.80 0.09733781
1165.90 0.09731103
1166.00 0.09728426
1166.10 0.0972575
1166.20 0.09723074
1166.30 0.09720399
1166.40 0.09717725
1166.50 0.09715051
1166.60 0.09712379
1166.70 0.09709707
1166.80 0.09707036
1166.90 0.09704365
1167.00 0.09701696
1167.10 0.09699027
1167.20 0.09696359
1167.30 0.09693692
1167.40 0.09691025
1167.50 0.0968836
1167.60 0.09685695
1167.70 0.09683031
1167.80 0.09680367
1167.90 0.09677705
1168.00 0.09674968
1168.10 0.09672223
1168.20 0.09669479
1168.30 0.09666736
1168.40 0.09663994
1168.50 0.09661253
1168.60 0.09658512
1168.70 0.09655772
1168.80 0.09653033
1168.90 0.09650295
1169.00 0.09647558
1169.10 0.09644821
1169.20 0.09642085
1169.30 0.0963935
1169.40 0.09636616
1169.50 0.09633883
1169.60 0.0963115
1169.70 0.09628418
1169.80 0.09625687
1169.90 0.09622957
1170.00 0.09620227
1170.10 0.09617499
1170.20 0.09614771
1170.30 0.09612044
1170.40 0.09609317
1170.50 0.09606592
1170.60 0.09603867
1170.70 0.09601143
1170.80 0.0959842
1170.90 0.09595698
1171.00 0.09592976
1171.10 0.09590255
1171.20 0.09587535
1171.30 0.09584816
1171.40 0.09582098
1171.50 0.0957938
1171.60 0.09576663
1171.70 0.09573947
1171.80 0.09571232
1171.90 0.09568518
1172.00 0.09565804
1172.10 0.09563091
1172.20 0.09560379
1172.30 0.09557668
1172.40 0.09554957
1172.50 0.09552247
1172.60 0.09549538
1172.70 0.0954683
1172.80 0.09544123
1172.90 0.09541416
1173.00 0.0953871
1173.10 0.09536005
1173.20 0.09533301
1173.30 0.09530598
1173.40 0.09527895
1173.50 0.09525193
1173.60 0.09522492
1173.70 0.09519792
1173.80 0.095171
1173.90 0.09514412
1174.00 0.09511725
1174.10 0.09509038
1174.20 0.09506352
1174.30 0.09503667
1174.40 0.09500982
1174.50 0.09498299
1174.60 0.09495616
1174.70 0.09492934
1174.80 0.09490252
1174.90 0.09487572
1175.00 0.09484892
1175.10 0.09482213
1175.20 0.09479535
1175.30 0.09476857
1175.40 0.09474181
1175.50 0.09471505
1175.60 0.0946883
1175.70 0.09466155
1175.80 0.09463482
1175.90 0.09460809
1176.00 0.09458137
1176.10 0.09455466
1176.20 0.09452795
1176.30 0.09450125
1176.40 0.09447456
1176.50 0.09444788
1176.60 0.09442121
1176.70 0.09439454
1176.80 0.09436788
1176.90 0.09434123
1177.00 0.09431459
1177.10 0.09428795
1177.20 0.09426133
1177.30 0.09423471
1177.40 0.09420809
1177.50 0.09418149
1177.60 0.09415489
1177.70 0.0941283
1177.80 0.09410172
1177.90 0.09407515
1178.00 0.09404858
1178.10 0.09402202
1178.20 0.09399547
1178.30 0.09396893
1178.40 0.09394239
1178.50 0.09391586
1178.60 0.09388934
1178.70 0.09386283
1178.80 0.09383632
1178.90 0.09380982
1179.00 0.09378334
1179.10 0.09375685
1179.20 0.09373038
1179.30 0.09370391
1179.40 0.09367745
1179.50 0.093651
1179.60 0.09362456
1179.70 0.09359812
1179.80 0.09357169
1179.90 0.09354527
1180.00 0.09351886
1180.10 0.09349246
1180.20 0.09346606
1180.30 0.09343967
1180.40 0.09341329
1180.50 0.09338692
1180.60 0.09336055
1180.70 0.09333419
1180.80 0.09330784
1180.90 0.0932815
1181.00 0.09325516
1181.10 0.09322883
1181.20 0.09320251
1181.30 0.0931762
1181.40 0.09314989
1181.50 0.09312359
1181.60 0.0930973
1181.70 0.09307102
1181.80 0.09304475
1181.90 0.09301848
1182.00 0.09299222
1182.10 0.09296597
1182.20 0.09293972
1182.30 0.09291348
1182.40 0.09288725
1182.50 0.09286103
1182.60 0.09283481
1182.70 0.09280861
1182.80 0.09278241
1182.90 0.09275622
1183.00 0.09273003
1183.10 0.09270385
1183.20 0.09267768
1183.30 0.09265152
1183.40 0.09262537
1183.50 0.09259922
1183.60 0.09257308
1183.70 0.09254695
1183.80 0.09252082
1183.90 0.09249471
1184.00 0.0924686
1184.10 0.09244249
1184.20 0.0924164
1184.30 0.09239031
1184.40 0.09236423
1184.50 0.09233816
1184.60 0.09231209
1184.70 0.09228604
1184.80 0.09225999
1184.90 0.09223395
1185.00 0.09220791
1185.10 0.09218188
1185.20 0.09215586
1185.30 0.09212985
1185.40 0.09210385
1185.50 0.09207823
1185.60 0.09205314
1185.70 0.09202805
1185.80 0.09200297
1185.90 0.0919779
1186.00 0.09195284
1186.10 0.09192779
1186.20 0.09190274
1186.30 0.0918777
1186.40 0.09185266
1186.50 0.09182764
1186.60 0.09180262
1186.70 0.0917776
1186.80 0.0917526
1186.90 0.0917276
1187.00 0.09170261
1187.10 0.09167762
1187.20 0.09165265
1187.30 0.09162768
1187.40 0.09160272
1187.50 0.09157776
1187.60 0.09155281
1187.70 0.09152787
1187.80 0.09150294
1187.90 0.09147801
1188.00 0.09145309
1188.10 0.09142817
1188.20 0.09140327
1188.30 0.09137837
1188.40 0.09135348
1188.50 0.09132859
1188.60 0.09130372
1188.70 0.09127885
1188.80 0.09125398
1188.90 0.09122913
1189.00 0.09120428
1189.10 0.09117943
1189.20 0.0911546
1189.30 0.09112977
1189.40 0.09110495
1189.50 0.09108014
1189.60 0.09105533
1189.70 0.09103053
1189.80 0.09100574
1189.90 0.09098095
1190.00 0.09095617
1190.10 0.0909314
1190.20 0.09090663
1190.30 0.09088188
1190.40 0.09085713
1190.50 0.09083238
1190.60 0.09080765
1190.70 0.09078292
1190.80 0.09075819
1190.90 0.09073348
1191.00 0.09070877
1191.10 0.09068407
1191.20 0.09065937
1191.30 0.09063469
1191.40 0.09060989
1191.50 0.09058443
1191.60 0.09055897
1191.70 0.09053352
1191.80 0.09050808
1191.90 0.09048265
1192.00 0.09045723
1192.10 0.09043181
1192.20 0.0904064
1192.30 0.09038099
1192.40 0.09035559
1192.50 0.09033021
1192.60 0.09030482
1192.70 0.09027945
1192.80 0.09025408
1192.90 0.09022872
1193.00 0.09020337
1193.10 0.09017802
1193.20 0.09015268
1193.30 0.09012735
1193.40 0.09010203
1193.50 0.09007671
1193.60 0.0900514
1193.70 0.0900261
1193.80 0.0900008
1193.90 0.08997551
1194.00 0.08995023
1194.10 0.08992496
1194.20 0.08989969
1194.30 0.08987443
1194.40 0.08984918
1194.50 0.08982393
1194.60 0.0897987
1194.70 0.08977347
1194.80 0.08974824
1194.90 0.08972303
1195.00 0.08969782
1195.10 0.08967261
1195.20 0.08964742
1195.30 0.08962223
1195.40 0.08959705
1195.50 0.08957188
1195.60 0.08954671
1195.70 0.08952155
1195.80 0.0894964
1195.90 0.08947126
1196.00 0.08944612
1196.10 0.08942099
1196.20 0.08939587
1196.30 0.08937075
1196.40 0.08934564
1196.50 0.08932054
1196.60 0.08929545
1196.70 0.08927036
1196.80 0.08924528
1196.90 0.0892202
1197.00 0.08919514
1197.10 0.08917008
1197.20 0.08914503
1197.30 0.08911998
1197.40 0.08909504
1197.50 0.08907011
1197.60 0.08904518
1197.70 0.08902027
1197.80 0.08899536
1197.90 0.08897046
1198.00 0.08894557
1198.10 0.08892068
1198.20 0.0888958
1198.30 0.08887093
1198.40 0.08884607
1198.50 0.08882121
1198.60 0.08879636
1198.70 0.08877151
1198.80 0.08874668
1198.90 0.08872185
1199.00 0.08869703
1199.10 0.08867221
1199.20 0.0886474
1199.30 0.0886226
1199.40 0.0885978
1199.50 0.08857302
1199.60 0.08854824
1199.70 0.08852346
1199.80 0.0884987
1199.90 0.08847394
1200.00 0.08844919
