# Version 2.1 - nm, norm@500 to 1, cut digits, bergeron_He_3750_90.dat_3750
# Wavelength(nm)  Flambda(ergs/cm^s/s/nm)
300.00 0.03340607
300.10 0.03352174
300.20 0.0336375
300.30 0.03375391
300.40 0.03387556
300.50 0.03399703
300.60 0.03411834
300.70 0.03423948
300.80 0.03436045
300.90 0.03448125
301.00 0.03460188
301.10 0.03472235
301.20 0.03484265
301.30 0.03496278
301.40 0.03508274
301.50 0.03520254
301.60 0.03532217
301.70 0.03544163
301.80 0.03556093
301.90 0.03568006
302.00 0.03579902
302.10 0.03592403
302.20 0.03604956
302.30 0.03617491
302.40 0.03630008
302.50 0.03642508
302.60 0.03654991
302.70 0.03667457
302.80 0.03679905
302.90 0.03692337
303.00 0.03704751
303.10 0.03717147
303.20 0.03729527
303.30 0.03741956
303.40 0.03754966
303.50 0.03767958
303.60 0.03780932
303.70 0.03793888
303.80 0.03806826
303.90 0.03819746
304.00 0.03832649
304.10 0.03845534
304.20 0.038584
304.30 0.0387125
304.40 0.03884081
304.50 0.03896895
304.60 0.03910397
304.70 0.03923959
304.80 0.03937502
304.90 0.03951027
305.00 0.03964533
305.10 0.03978021
305.20 0.0399149
305.30 0.0400494
305.40 0.04018372
305.50 0.04031786
305.60 0.04045181
305.70 0.04058558
305.80 0.04071916
305.90 0.04085256
306.00 0.04098578
306.10 0.04111882
306.20 0.04125167
306.30 0.04138434
306.40 0.04152524
306.50 0.04166845
306.60 0.04181147
306.70 0.04195429
306.80 0.04209691
306.90 0.04223935
307.00 0.04238158
307.10 0.04252363
307.20 0.04266547
307.30 0.04280713
307.40 0.04294859
307.50 0.04308986
307.60 0.04323094
307.70 0.04337182
307.80 0.04351251
307.90 0.04365301
308.00 0.04379332
308.10 0.04393344
308.20 0.04407336
308.30 0.0442131
308.40 0.04435264
308.50 0.044492
308.60 0.04463116
308.70 0.04477014
308.80 0.04491037
308.90 0.04505453
309.00 0.04520181
309.10 0.04534889
309.20 0.04549577
309.30 0.04564245
309.40 0.04578941
309.50 0.04593912
309.60 0.04608862
309.70 0.04623791
309.80 0.04638701
309.90 0.0465359
310.00 0.04668459
310.10 0.04683308
310.20 0.04698137
310.30 0.04712946
310.40 0.04727993
310.50 0.047433
310.60 0.04758585
310.70 0.04773851
310.80 0.04789095
310.90 0.04804319
311.00 0.04819495
311.10 0.04834651
311.20 0.04849787
311.30 0.04865053
311.40 0.04880731
311.50 0.04896388
311.60 0.04912023
311.70 0.04927638
311.80 0.04943231
311.90 0.04958803
312.00 0.04974355
312.10 0.04989885
312.20 0.05005338
312.30 0.05021196
312.40 0.05037197
312.50 0.05053253
312.60 0.05069185
312.70 0.05085095
312.80 0.05100984
312.90 0.05116931
313.00 0.05132945
313.10 0.05148936
313.20 0.05164907
313.30 0.05180961
313.40 0.05197295
313.50 0.05213608
313.60 0.05229898
313.70 0.05246166
313.80 0.05262413
313.90 0.05278638
314.00 0.05294841
314.10 0.05311409
314.20 0.05327955
314.30 0.05344478
314.40 0.05360979
314.50 0.05377459
314.60 0.05393916
314.70 0.05410351
314.80 0.05426918
314.90 0.05443725
315.00 0.0546032
315.10 0.05477229
315.20 0.05494115
315.30 0.05510979
315.40 0.0552782
315.50 0.05544639
315.60 0.05561435
315.70 0.0557863
315.80 0.05595801
315.90 0.0561295
316.00 0.05630075
316.10 0.05647358
316.20 0.05664618
316.30 0.05681495
316.40 0.05698709
316.50 0.05716259
316.60 0.05733427
316.70 0.0575093
316.80 0.0576841
316.90 0.05785867
317.00 0.05803301
317.10 0.05820711
317.20 0.05838098
317.30 0.05855737
317.40 0.05873426
317.50 0.05891301
317.60 0.05909152
317.70 0.0592698
317.80 0.05944784
317.90 0.05962551
318.00 0.05980581
318.10 0.05998469
318.20 0.06016333
318.30 0.06034174
318.40 0.06052083
318.50 0.06070231
318.60 0.0608817
318.70 0.06106376
318.80 0.06124487
318.90 0.06143104
319.00 0.06161315
319.10 0.06179319
319.20 0.06197436
319.30 0.06215917
319.40 0.06234375
319.50 0.06252808
319.60 0.06271276
319.70 0.06289846
319.80 0.06308392
319.90 0.06326913
320.00 0.06345575
320.10 0.06364391
320.20 0.06383124
320.30 0.06401948
320.40 0.06420969
320.50 0.06439406
320.60 0.06458266
320.70 0.06477283
320.80 0.06496359
320.90 0.065155
321.00 0.06534616
321.10 0.06553707
321.20 0.06572611
321.30 0.0659187
321.40 0.06611105
321.50 0.06630314
321.60 0.06649498
321.70 0.06668656
321.80 0.06688088
321.90 0.06707817
322.00 0.06727144
322.10 0.06746817
322.20 0.06766464
322.30 0.06786086
322.40 0.06805682
322.50 0.06825253
322.60 0.06844798
322.70 0.06864317
322.80 0.06884308
322.90 0.06904576
323.00 0.06924816
323.10 0.06945031
323.20 0.06965219
323.30 0.0698538
323.40 0.07005516
323.50 0.07025625
323.60 0.07045708
323.70 0.07065765
323.80 0.07085796
323.90 0.07105801
324.00 0.07125195
324.10 0.07144565
324.20 0.07163909
324.30 0.07183886
324.40 0.0720515
324.50 0.07225785
324.60 0.07246393
324.70 0.07266974
324.80 0.07287528
324.90 0.07308056
325.00 0.07328557
325.10 0.07349032
325.20 0.0736982
325.30 0.07391302
325.40 0.07412756
325.50 0.07434016
325.60 0.07455047
325.70 0.0747605
325.80 0.07497025
325.90 0.07518017
326.00 0.07539027
326.10 0.0756001
326.20 0.07580966
326.30 0.07602205
326.40 0.07624298
326.50 0.07646076
326.60 0.07667825
326.70 0.07689547
326.80 0.0771124
326.90 0.07732905
327.00 0.07754543
327.10 0.07776152
327.20 0.07797734
327.30 0.07819288
327.40 0.07840814
327.50 0.07862313
327.60 0.07883783
327.70 0.07905226
327.80 0.07926642
327.90 0.07947894
328.00 0.07968961
328.10 0.07989985
328.20 0.08010982
328.30 0.08031952
328.40 0.08052894
328.50 0.08075676
328.60 0.08098865
328.70 0.08122025
328.80 0.08145023
328.90 0.08167617
329.00 0.08190181
329.10 0.08212717
329.20 0.08235224
329.30 0.08257702
329.40 0.08280151
329.50 0.08302572
329.60 0.08324964
329.70 0.08347327
329.80 0.08369661
329.90 0.08391967
330.00 0.08414639
330.10 0.08437765
330.20 0.08460861
330.30 0.08483927
330.40 0.08506898
330.50 0.08529768
330.60 0.08552608
330.70 0.08575419
330.80 0.08598201
330.90 0.08620954
331.00 0.08643678
331.10 0.08666373
331.20 0.08689039
331.30 0.08711676
331.40 0.08734284
331.50 0.08757323
331.60 0.08780896
331.70 0.08804439
331.80 0.08828562
331.90 0.0885268
332.00 0.08876767
332.10 0.08900824
332.20 0.08924851
332.30 0.08948846
332.40 0.08972811
332.50 0.08996746
332.60 0.09020651
332.70 0.09044525
332.80 0.09068368
332.90 0.09092182
333.00 0.09115965
333.10 0.09139965
333.20 0.09164236
333.30 0.09188477
333.40 0.09212687
333.50 0.09236866
333.60 0.09261014
333.70 0.09285132
333.80 0.0930922
333.90 0.09333277
334.00 0.09357303
334.10 0.09381492
334.20 0.09405886
334.30 0.0943025
334.40 0.09454582
334.50 0.09478884
334.60 0.09503155
334.70 0.09527802
334.80 0.0955332
334.90 0.09579388
335.00 0.09605423
335.10 0.09627141
335.20 0.09653357
335.30 0.09679541
335.40 0.09705691
335.50 0.09731011
335.60 0.09751516
335.70 0.09777572
335.80 0.09803595
335.90 0.09829585
336.00 0.09855542
336.10 0.09881467
336.20 0.09907359
336.30 0.09933219
336.40 0.09959046
336.50 0.0998484
336.60 0.100106
336.70 0.1003633
336.80 0.1006203
336.90 0.1008755
337.00 0.1011287
337.10 0.1013816
337.20 0.1016342
337.30 0.1018886
337.40 0.1021458
337.50 0.1024026
337.60 0.1026591
337.70 0.1029153
337.80 0.1031712
337.90 0.1034324
338.00 0.1037002
338.10 0.1039676
338.20 0.1042347
338.30 0.1045014
338.40 0.1047669
338.50 0.1050297
338.60 0.1052921
338.70 0.1055543
338.80 0.1058161
338.90 0.1060776
339.00 0.1063387
339.10 0.1065995
339.20 0.10686
339.30 0.1071313
339.40 0.1074181
339.50 0.1076976
339.60 0.1079685
339.70 0.108239
339.80 0.1085092
339.90 0.1087791
340.00 0.1090486
340.10 0.1093178
340.20 0.1095867
340.30 0.1098552
340.40 0.1101234
340.50 0.1103912
340.60 0.1106587
340.70 0.1109259
340.80 0.111199
340.90 0.1114806
341.00 0.1117622
341.10 0.1120439
341.20 0.1123252
341.30 0.1126062
341.40 0.1128869
341.50 0.1131672
341.60 0.1134471
341.70 0.1137267
341.80 0.1140066
341.90 0.1142868
342.00 0.1145668
342.10 0.1148463
342.20 0.1151176
342.30 0.1153939
342.40 0.1156778
342.50 0.1159595
342.60 0.1162409
342.70 0.1165219
342.80 0.1168026
342.90 0.1170829
343.00 0.1173626
343.10 0.1176415
343.20 0.1179201
343.30 0.1181983
343.40 0.1184839
343.50 0.1187801
343.60 0.119076
343.70 0.1193715
343.80 0.1196666
343.90 0.1199614
344.00 0.1202496
344.10 0.1205285
344.20 0.120807
344.30 0.1210852
344.40 0.1213693
344.50 0.1216619
344.60 0.1219898
344.70 0.122253
344.80 0.1225733
344.90 0.1228645
345.00 0.1231197
345.10 0.1234102
345.20 0.1237023
345.30 0.1239969
345.40 0.1242912
345.50 0.1246027
345.60 0.1249215
345.70 0.1252198
345.80 0.1255177
345.90 0.1258153
346.00 0.1261126
346.10 0.1264094
346.20 0.1267092
346.30 0.1270133
346.40 0.1273171
346.50 0.1276204
346.60 0.1279235
346.70 0.1282261
346.80 0.1285284
346.90 0.1288302
347.00 0.1291318
347.10 0.1294329
347.20 0.1297366
347.30 0.1300439
347.40 0.1303509
347.50 0.1306575
347.60 0.1309637
347.70 0.1312695
347.80 0.131575
347.90 0.1318801
348.00 0.1321849
348.10 0.1324892
348.20 0.1327932
348.30 0.1330968
348.40 0.1334001
348.50 0.1337029
348.60 0.1340054
348.70 0.1343188
348.80 0.1346354
348.90 0.1349515
349.00 0.1352673
349.10 0.1355827
349.20 0.1358977
349.30 0.1362123
349.40 0.1365265
349.50 0.1368404
349.60 0.1371538
349.70 0.1374669
349.80 0.1377796
349.90 0.138092
350.00 0.1384039
350.10 0.1387155
350.20 0.1390267
350.30 0.1393426
350.40 0.1396654
350.50 0.1399878
350.60 0.1403098
350.70 0.1406314
350.80 0.1409526
350.90 0.1412734
351.00 0.1415939
351.10 0.141914
351.20 0.1422336
351.30 0.1425529
351.40 0.1428738
351.50 0.1431977
351.60 0.1435212
351.70 0.1438443
351.80 0.144167
351.90 0.1444894
352.00 0.1448113
352.10 0.1451329
352.20 0.1454755
352.30 0.1458146
352.40 0.1461453
352.50 0.1464756
352.60 0.1468055
352.70 0.147135
352.80 0.1474641
352.90 0.1477928
353.00 0.1481211
353.10 0.148449
353.20 0.1487765
353.30 0.1491037
353.40 0.1494304
353.50 0.1497594
353.60 0.1500887
353.70 0.1504176
353.80 0.1507461
353.90 0.1510776
354.00 0.1514149
354.10 0.1517518
354.20 0.1520882
354.30 0.1524243
354.40 0.15276
354.50 0.1530952
354.60 0.1534301
354.70 0.1537645
354.80 0.1541011
354.90 0.154441
355.00 0.1547804
355.10 0.1551195
355.20 0.1554581
355.30 0.1558062
355.40 0.1561539
355.50 0.1565011
355.60 0.156848
355.70 0.1571803
355.80 0.1575059
355.90 0.1578644
356.00 0.1582286
356.10 0.158579
356.20 0.158929
356.30 0.1592786
356.40 0.1596278
356.50 0.1599765
356.60 0.1603249
356.70 0.1606728
356.80 0.1610203
356.90 0.1613674
357.00 0.1617141
357.10 0.1620603
357.20 0.1624062
357.30 0.1627516
357.40 0.1630963
357.50 0.1634399
357.60 0.1637831
357.70 0.1641259
357.80 0.1644676
357.90 0.164809
358.00 0.1651642
358.10 0.1655226
358.20 0.1658806
358.30 0.1662381
358.40 0.1665952
358.50 0.1669519
358.60 0.1673082
358.70 0.167664
358.80 0.1680194
358.90 0.1683744
359.00 0.1687295
359.10 0.1690851
359.20 0.1694409
359.30 0.1698002
359.40 0.1701591
359.50 0.1705203
359.60 0.1708817
359.70 0.1712426
359.80 0.1716098
359.90 0.1719765
360.00 0.1723437
360.10 0.1727121
360.20 0.17308
360.30 0.1734476
360.40 0.1738147
360.50 0.1741814
360.60 0.1745346
360.70 0.174907
360.80 0.175279
360.90 0.1756506
361.00 0.1759948
361.10 0.1763738
361.20 0.1767593
361.30 0.1771127
361.40 0.1774793
361.50 0.177851
361.60 0.1781943
361.70 0.1785898
361.80 0.1789769
361.90 0.1793492
362.00 0.1797211
362.10 0.1800812
362.20 0.1804423
362.30 0.1808106
362.40 0.1811785
362.50 0.181546
362.60 0.1819131
362.70 0.1823005
362.80 0.1826789
362.90 0.1830666
363.00 0.1834539
363.10 0.1838256
363.20 0.1841967
363.30 0.1845706
363.40 0.1849449
363.50 0.185346
363.60 0.1857058
363.70 0.1860772
363.80 0.1864513
363.90 0.1868395
364.00 0.1872273
364.10 0.1876146
364.20 0.1880015
364.30 0.188381
364.40 0.1887584
364.50 0.1891462
364.60 0.1895271
364.70 0.1899075
364.80 0.1902875
364.90 0.1906686
365.00 0.1910493
365.10 0.1914565
365.20 0.1918363
365.30 0.1922426
365.40 0.1926215
365.50 0.193
365.60 0.193378
365.70 0.1937848
365.80 0.1941912
365.90 0.194569
366.00 0.1949392
366.10 0.1953331
366.20 0.1957264
366.30 0.1961193
366.40 0.1965117
366.50 0.1969156
366.60 0.1972942
366.70 0.1976924
366.80 0.1980901
366.90 0.1984886
367.00 0.1988887
367.10 0.1992884
367.20 0.1996876
367.30 0.2000863
367.40 0.2004846
367.50 0.2008786
367.60 0.2012713
367.70 0.2016651
367.80 0.2020584
367.90 0.2024512
368.00 0.2028492
368.10 0.2032638
368.20 0.2036673
368.30 0.2040702
368.40 0.2044727
368.50 0.2048747
368.60 0.2052762
368.70 0.2056772
368.80 0.2060778
368.90 0.2064633
369.00 0.2068652
369.10 0.2072774
369.20 0.2076973
369.30 0.2080939
369.40 0.20849
369.50 0.2088856
369.60 0.2092957
369.70 0.2097054
369.80 0.2101171
369.90 0.2105284
370.00 0.2109392
370.10 0.2113496
370.20 0.2117595
370.30 0.2121689
370.40 0.2125778
370.50 0.2129863
370.60 0.2133942
370.70 0.213807
370.80 0.2142374
370.90 0.2146673
371.00 0.2150762
371.10 0.2154845
371.20 0.215887
371.30 0.2162891
371.40 0.2167342
371.50 0.2171506
371.60 0.2175664
371.70 0.2179817
371.80 0.2183966
371.90 0.218811
372.00 0.2192177
372.10 0.2196186
372.20 0.2200449
372.30 0.2204708
372.40 0.2208962
372.50 0.221321
372.60 0.2217454
372.70 0.2221693
372.80 0.2225901
372.90 0.2230103
373.00 0.2234354
373.10 0.2238601
373.20 0.2242816
373.30 0.2247026
373.40 0.2250973
373.50 0.2255431
373.60 0.2259627
373.70 0.2263817
373.80 0.226818
373.90 0.2272184
374.00 0.2276489
374.10 0.2280789
374.20 0.2285083
374.30 0.2289373
374.40 0.2293594
374.50 0.2298132
374.60 0.2302428
374.70 0.2306712
374.80 0.2310991
374.90 0.2315265
375.00 0.2319648
375.10 0.2324027
375.20 0.23284
375.30 0.2332768
375.40 0.2337131
375.50 0.2341489
375.60 0.2345843
375.70 0.2350191
375.80 0.2354534
375.90 0.2358873
376.00 0.2363151
376.10 0.2367534
376.20 0.2371914
376.30 0.2376289
376.40 0.2380659
376.50 0.2385009
376.60 0.238933
376.70 0.2393646
376.80 0.2397997
376.90 0.2402381
377.00 0.2406761
377.10 0.2411135
377.20 0.241554
377.30 0.2420075
377.40 0.2424605
377.50 0.242913
377.60 0.2433537
377.70 0.243794
377.80 0.2442337
377.90 0.244673
378.00 0.2451297
378.10 0.245576
378.20 0.2460215
378.30 0.2464665
378.40 0.2469109
378.50 0.2473549
378.60 0.2477984
378.70 0.2482413
378.80 0.2486838
378.90 0.2491326
379.00 0.2495938
379.10 0.2500418
379.20 0.2504893
379.30 0.2509366
379.40 0.2513838
379.50 0.2518304
379.60 0.2522796
379.70 0.2527331
379.80 0.2531876
379.90 0.2536415
380.00 0.2540949
380.10 0.2545479
380.20 0.2550003
380.30 0.2554522
380.40 0.2559036
380.50 0.2563544
380.60 0.2568566
380.70 0.2573073
380.80 0.2577575
380.90 0.2582072
381.00 0.2586564
381.10 0.2591079
381.20 0.2595657
381.30 0.2600217
381.40 0.2604991
381.50 0.2609699
381.60 0.2614295
381.70 0.2618784
381.80 0.2623526
381.90 0.2628061
382.00 0.2632591
382.10 0.2637362
382.20 0.264203
382.30 0.2646544
382.40 0.265111
382.50 0.2655756
382.60 0.2660396
382.70 0.266505
382.80 0.2669717
382.90 0.2674374
383.00 0.2679027
383.10 0.2683674
383.20 0.2688352
383.30 0.2693161
383.40 0.2697854
383.50 0.2702377
383.60 0.2707375
383.70 0.271207
383.80 0.2716759
383.90 0.2721443
384.00 0.2726122
384.10 0.2730796
384.20 0.2735465
384.30 0.2740128
384.40 0.274486
384.50 0.274966
384.60 0.2754455
384.70 0.2759245
384.80 0.2764026
384.90 0.2768805
385.00 0.2773606
385.10 0.2778399
385.20 0.2783109
385.30 0.2787803
385.40 0.2792524
385.50 0.2797272
385.60 0.2802013
385.70 0.280675
385.80 0.2811486
385.90 0.2816234
386.00 0.2821123
386.10 0.2826139
386.20 0.2830996
386.30 0.2835849
386.40 0.2840391
386.50 0.2845459
386.60 0.28501
386.70 0.285499
386.80 0.2859634
386.90 0.2864633
387.00 0.2869327
387.10 0.2874315
387.20 0.2879248
387.30 0.2883807
387.40 0.2888876
387.50 0.2893833
387.60 0.2898769
387.70 0.2903605
387.80 0.2908435
387.90 0.291326
388.00 0.2918034
388.10 0.2922983
388.20 0.2927886
388.30 0.2932729
388.40 0.2937567
388.50 0.2942516
388.60 0.2947625
388.70 0.295252
388.80 0.2957438
388.90 0.2962298
389.00 0.2967098
389.10 0.2972165
389.20 0.2977004
389.30 0.2981971
389.40 0.2986755
389.50 0.2991714
389.60 0.2996905
389.70 0.3001936
389.80 0.3006907
389.90 0.3011873
390.00 0.3016833
390.10 0.3021788
390.20 0.3026737
390.30 0.3031705
390.40 0.3036694
390.50 0.3041677
390.60 0.3046655
390.70 0.3051628
390.80 0.3056519
390.90 0.3061328
391.00 0.3066556
391.10 0.3071598
391.20 0.3076579
391.30 0.3081489
391.40 0.3086556
391.50 0.3091618
391.60 0.3096674
391.70 0.3101724
391.80 0.3106769
391.90 0.3111776
392.00 0.311679
392.10 0.3121874
392.20 0.3126921
392.30 0.3131825
392.40 0.3136892
392.50 0.314211
392.60 0.3147033
392.70 0.3152334
392.80 0.3157327
392.90 0.3162223
393.00 0.3167292
393.10 0.3172384
393.20 0.3177503
393.30 0.318262
393.40 0.3187705
393.50 0.3193063
393.60 0.3197957
393.70 0.3203283
393.80 0.320814
393.90 0.3213454
394.00 0.3218743
394.10 0.3223866
394.20 0.3229034
394.30 0.323401
394.40 0.3239003
394.50 0.3244135
394.60 0.3249448
394.70 0.3254716
394.80 0.3259831
394.90 0.3264943
395.00 0.327013
395.10 0.3275242
395.20 0.3280469
395.30 0.3285697
395.40 0.3290918
395.50 0.3296016
395.60 0.3301066
395.70 0.3306167
395.80 0.3311416
395.90 0.331666
396.00 0.3321879
396.10 0.3327008
396.20 0.333242
396.30 0.3337765
396.40 0.3342937
396.50 0.3348103
396.60 0.3353264
396.70 0.3358491
396.80 0.3363876
396.90 0.3368918
397.00 0.3374284
397.10 0.3379416
397.20 0.3384703
397.30 0.3390154
397.40 0.3395312
397.50 0.3400465
397.60 0.3405633
397.70 0.3411005
397.80 0.3416372
397.90 0.3421702
398.00 0.3426946
398.10 0.3432184
398.20 0.3437462
398.30 0.3442786
398.40 0.3448103
398.50 0.345333
398.60 0.3458797
398.70 0.3464126
398.80 0.3469393
398.90 0.3474661
399.00 0.3479937
399.10 0.3485148
399.20 0.3490535
399.30 0.3495915
399.40 0.350129
399.50 0.3506658
399.60 0.3511995
399.70 0.3517316
399.80 0.3522631
399.90 0.352794
400.00 0.3533249
400.10 0.353873
400.20 0.3544172
400.30 0.3549542
400.40 0.3554851
400.50 0.3560483
400.60 0.3565723
400.70 0.35711
400.80 0.3576514
400.90 0.358203
401.00 0.3587108
401.10 0.3592671
401.20 0.3597941
401.30 0.3603589
401.40 0.3609
401.50 0.3614298
401.60 0.3619593
401.70 0.3624981
401.80 0.3630704
401.90 0.3636239
402.00 0.364129
402.10 0.3646805
402.20 0.3652327
402.30 0.3657835
402.40 0.3663328
402.50 0.3668819
402.60 0.36743
402.70 0.367979
402.80 0.3685046
402.90 0.3690384
403.00 0.3695849
403.10 0.3701662
403.20 0.3707109
403.30 0.3712403
403.40 0.3718031
403.50 0.3723484
403.60 0.3728864
403.70 0.3734294
403.80 0.374015
403.90 0.3745552
404.00 0.3751013
404.10 0.3756372
404.20 0.3761986
404.30 0.3767595
404.40 0.3773118
404.50 0.3778575
404.60 0.3784165
404.70 0.3789531
404.80 0.3795326
404.90 0.3800682
405.00 0.3806494
405.10 0.3811997
405.20 0.3817459
405.30 0.3822914
405.40 0.382853
405.50 0.383414
405.60 0.3839743
405.70 0.3845341
405.80 0.3850933
405.90 0.3856519
406.00 0.3862071
406.10 0.3867617
406.20 0.3873157
406.30 0.3878692
406.40 0.3884214
406.50 0.388982
406.60 0.3895599
406.70 0.3901173
406.80 0.3906714
406.90 0.3912423
407.00 0.3918088
407.10 0.3923747
407.20 0.39294
407.30 0.3935047
407.40 0.3940688
407.50 0.3946323
407.60 0.3951952
407.70 0.3957574
407.80 0.3963191
407.90 0.3968802
408.00 0.3974401
408.10 0.3979995
408.20 0.3985619
408.30 0.3991245
408.40 0.3996864
408.50 0.4002547
408.60 0.4008328
408.70 0.4014103
408.80 0.4019836
408.90 0.4025339
409.00 0.4031034
409.10 0.4036724
409.20 0.4042407
409.30 0.4048085
409.40 0.4053758
409.50 0.4059497
409.60 0.4065229
409.70 0.4070951
409.80 0.4076651
409.90 0.408235
410.00 0.408824
410.10 0.4094076
410.20 0.409978
410.30 0.4105448
410.40 0.4111122
410.50 0.411683
410.60 0.4122532
410.70 0.4128239
410.80 0.4133983
410.90 0.413972
411.00 0.4145512
411.10 0.4151321
411.20 0.4157123
411.30 0.416288
411.40 0.4168478
411.50 0.4174245
411.60 0.4180007
411.70 0.4185773
411.80 0.4191575
411.90 0.4197498
412.00 0.42035
412.10 0.4209178
412.20 0.4215061
412.30 0.4220665
412.40 0.4227173
412.50 0.4231001
412.60 0.423799
412.70 0.4244307
412.80 0.425045
412.90 0.4255022
413.00 0.4262868
413.10 0.4268319
413.20 0.4273765
413.30 0.4279205
413.40 0.4284639
413.50 0.4290318
413.60 0.4296654
413.70 0.4301921
413.80 0.4307182
413.90 0.4312437
414.00 0.4317938
414.10 0.432423
414.20 0.4331017
414.30 0.4338968
414.40 0.4343566
414.50 0.4347644
414.60 0.4355587
414.70 0.4361839
414.80 0.4367834
414.90 0.437303
415.00 0.437822
415.10 0.4383405
415.20 0.4389015
415.30 0.4395982
415.40 0.4402942
415.50 0.4409846
415.60 0.4415175
415.70 0.44205
415.80 0.4425999
415.90 0.4432066
416.00 0.4438126
416.10 0.4444134
416.20 0.4449953
416.30 0.4455765
416.40 0.4461572
416.50 0.4467383
416.60 0.4473514
416.70 0.4479702
416.80 0.4483796
416.90 0.4491933
417.00 0.4496992
417.10 0.4504077
417.20 0.4510171
417.30 0.4516229
417.40 0.4521348
417.50 0.4526462
417.60 0.4532227
417.70 0.4540522
417.80 0.4545892
417.90 0.4551256
418.00 0.4556614
418.10 0.4561967
418.20 0.4567314
418.30 0.4572741
418.40 0.4580374
418.50 0.4586199
418.60 0.4592018
418.70 0.4597832
418.80 0.4603639
418.90 0.460944
419.00 0.4615235
419.10 0.4621024
419.20 0.4626807
419.30 0.4632605
419.40 0.4639052
419.50 0.4645493
419.60 0.4651852
419.70 0.46579
419.80 0.4663942
419.90 0.4670006
420.00 0.4676157
420.10 0.4682301
420.20 0.4688438
420.30 0.469457
420.40 0.4700695
420.50 0.4706813
420.60 0.4712926
420.70 0.4719031
420.80 0.4725131
420.90 0.4731237
421.00 0.4737735
421.10 0.4744226
421.20 0.4750548
421.30 0.4756374
421.40 0.4762194
421.50 0.4768008
421.60 0.4773815
421.70 0.4779617
421.80 0.4785413
421.90 0.4791168
422.00 0.4796805
422.10 0.4802636
422.20 0.4809258
422.30 0.4815873
422.40 0.4822471
422.50 0.4828727
422.60 0.4834977
422.70 0.484122
422.80 0.4847457
422.90 0.4853687
423.00 0.4859911
423.10 0.4866128
423.20 0.4872339
423.30 0.4878544
423.40 0.4884742
423.50 0.4890934
423.60 0.4897119
423.70 0.4903298
423.80 0.4909471
423.90 0.4915637
424.00 0.4921797
424.10 0.492795
424.20 0.4934098
424.30 0.4940238
424.40 0.4944596
424.50 0.495072
424.60 0.4956839
424.70 0.4962951
424.80 0.4969057
424.90 0.4975156
425.00 0.4981249
425.10 0.4987336
425.20 0.4993417
425.30 0.4999491
425.40 0.5005593
425.50 0.5011909
425.60 0.5018219
425.70 0.5024523
425.80 0.503082
425.90 0.5037111
426.00 0.5043395
426.10 0.5049673
426.20 0.5055944
426.30 0.5062209
426.40 0.5068468
426.50 0.507472
426.60 0.5080965
426.70 0.5087204
426.80 0.5093437
426.90 0.5099667
427.00 0.5106004
427.10 0.5112335
427.20 0.5118659
427.30 0.5124977
427.40 0.5131288
427.50 0.5137593
427.60 0.5143892
427.70 0.5150184
427.80 0.5156469
427.90 0.5162748
428.00 0.5169021
428.10 0.5175287
428.20 0.5181547
428.30 0.51878
428.40 0.5194047
428.50 0.5200287
428.60 0.5206522
428.70 0.5212749
428.80 0.5218978
428.90 0.522529
429.00 0.5231595
429.10 0.5237894
429.20 0.5244187
429.30 0.5250473
429.40 0.5256752
429.50 0.5263026
429.60 0.5269293
429.70 0.5275553
429.80 0.5281807
429.90 0.5288055
430.00 0.5294296
430.10 0.5300531
430.20 0.530676
430.30 0.5312982
430.40 0.5319198
430.50 0.5325407
430.60 0.533161
430.70 0.5337807
430.80 0.5343998
430.90 0.5350182
431.00 0.535636
431.10 0.5362531
431.20 0.5368697
431.30 0.5374885
431.40 0.5381462
431.50 0.5388033
431.60 0.5394597
431.70 0.5401154
431.80 0.5407704
431.90 0.5414248
432.00 0.5420785
432.10 0.5427316
432.20 0.543384
432.30 0.5440357
432.40 0.5446868
432.50 0.5453372
432.60 0.545987
432.70 0.5466361
432.80 0.5472845
432.90 0.5479323
433.00 0.5485794
433.10 0.5492259
433.20 0.5498717
433.30 0.5505119
433.40 0.5510855
433.50 0.5516585
433.60 0.5522309
433.70 0.5528027
433.80 0.5534714
433.90 0.5542586
434.00 0.5549521
434.10 0.5555879
434.20 0.5562231
434.30 0.5568577
434.40 0.5574916
434.50 0.5581249
434.60 0.5587575
434.70 0.5593895
434.80 0.5600223
434.90 0.5606739
435.00 0.5613247
435.10 0.5619749
435.20 0.5626245
435.30 0.5632734
435.40 0.5639216
435.50 0.5645692
435.60 0.5652161
435.70 0.5658624
435.80 0.566508
435.90 0.567153
436.00 0.5677973
436.10 0.568441
436.20 0.569084
436.30 0.569689
436.40 0.5702533
436.50 0.5708907
436.60 0.5715275
436.70 0.5721636
436.80 0.572799
436.90 0.5734339
437.00 0.5740681
437.10 0.5747016
437.20 0.5753472
437.30 0.5760038
437.40 0.5766612
437.50 0.5773356
437.60 0.5780094
437.70 0.5786825
437.80 0.5793549
437.90 0.5800267
438.00 0.5806922
438.10 0.5812841
438.20 0.5818754
438.30 0.5826028
438.40 0.5830017
438.50 0.5836695
438.60 0.5843368
438.70 0.5850033
438.80 0.5856692
438.90 0.5863344
439.00 0.586999
439.10 0.5876628
439.20 0.5883261
439.30 0.5889886
439.40 0.5896505
439.50 0.5903117
439.60 0.5909545
439.70 0.5915516
439.80 0.5922748
439.90 0.5929376
440.00 0.5935998
440.10 0.5942612
440.20 0.5949218
440.30 0.5955777
440.40 0.596233
440.50 0.5968876
440.60 0.5975416
440.70 0.5981949
440.80 0.5988476
440.90 0.5994996
441.00 0.600151
441.10 0.6008017
441.20 0.6014509
441.30 0.602089
441.40 0.6027131
441.50 0.6033203
441.60 0.603927
441.70 0.6048119
441.80 0.6054369
441.90 0.6060614
442.00 0.6066851
442.10 0.6073083
442.20 0.6079308
442.30 0.6085527
442.40 0.6092038
442.50 0.6098905
442.60 0.6105766
442.70 0.6112081
442.80 0.6117796
442.90 0.6126334
443.00 0.6133194
443.10 0.6138007
443.20 0.6144385
443.30 0.6152207
443.40 0.6159365
443.50 0.6165716
443.60 0.6172061
443.70 0.6178399
443.80 0.6184731
443.90 0.6191057
444.00 0.6197376
444.10 0.6203689
444.20 0.6209541
444.30 0.6218341
444.40 0.6225259
444.50 0.6232169
444.60 0.6238941
444.70 0.6245544
444.80 0.6251888
444.90 0.6257992
445.00 0.6264091
445.10 0.6270184
445.20 0.6276663
445.30 0.6283617
445.40 0.6290564
445.50 0.6297503
445.60 0.6304436
445.70 0.6311362
445.80 0.6317829
445.90 0.632387
446.00 0.6329906
446.10 0.6335935
446.20 0.6345185
446.30 0.6350012
446.40 0.6355466
446.50 0.6362526
446.60 0.636958
446.70 0.6376626
446.80 0.6383198
446.90 0.6389331
447.00 0.6395459
447.10 0.640158
447.20 0.6411286
447.30 0.6417394
447.40 0.6423495
447.50 0.6429591
447.60 0.6435925
447.70 0.644248
447.80 0.6450941
447.90 0.6457335
448.00 0.6463865
448.10 0.6470518
448.20 0.6477165
448.30 0.6483805
448.40 0.6490438
448.50 0.6497065
448.60 0.6503282
448.70 0.6509119
448.80 0.6515042
448.90 0.6522168
449.00 0.6529288
449.10 0.65364
449.20 0.6543505
449.30 0.6549656
449.40 0.6556779
449.50 0.6563895
449.60 0.6570703
449.70 0.6577226
449.80 0.6583742
449.90 0.6590253
450.00 0.6596756
450.10 0.6603254
450.20 0.6609745
450.30 0.6616229
450.40 0.6622732
450.50 0.6629229
450.60 0.663572
450.70 0.6642203
450.80 0.6648681
450.90 0.6655152
451.00 0.6662167
451.10 0.6669176
451.20 0.6676143
451.30 0.6682148
451.40 0.6689762
451.50 0.6697368
451.60 0.6703206
451.70 0.6709038
451.80 0.6718383
451.90 0.6724202
452.00 0.6730015
452.10 0.6735823
452.20 0.6742503
452.30 0.6749176
452.40 0.6755842
452.50 0.6762502
452.60 0.676899
452.70 0.6775787
452.80 0.6782869
452.90 0.6789945
453.00 0.6797013
453.10 0.6804074
453.20 0.6810681
453.30 0.6817282
453.40 0.6823875
453.50 0.6830463
453.60 0.6837044
453.70 0.6843618
453.80 0.6850422
453.90 0.6857508
454.00 0.6864588
454.10 0.687166
454.20 0.6878163
454.30 0.6884661
454.40 0.6891151
454.50 0.6897636
454.60 0.6904114
454.70 0.6910793
454.80 0.6917655
454.90 0.6924512
455.00 0.6931361
455.10 0.6938204
455.20 0.694504
455.30 0.6951869
455.40 0.6958692
455.50 0.6965508
455.60 0.6972317
455.70 0.697912
455.80 0.6986253
455.90 0.6993378
456.00 0.7000497
456.10 0.7007461
456.20 0.701402
456.30 0.7020572
456.40 0.7027118
456.50 0.7033657
456.60 0.704019
456.70 0.7046716
456.80 0.7053237
456.90 0.705975
457.00 0.7066258
457.10 0.7072759
457.20 0.7081139
457.30 0.7087896
457.40 0.7094646
457.50 0.710139
457.60 0.7108127
457.70 0.7114857
457.80 0.7121581
457.90 0.7128299
458.00 0.7135009
458.10 0.7141714
458.20 0.7148412
458.30 0.7155103
458.40 0.7161788
458.50 0.7168466
458.60 0.7175138
458.70 0.7182065
458.80 0.7189092
458.90 0.7196113
459.00 0.7203127
459.10 0.7210134
459.20 0.7217134
459.30 0.722397
459.40 0.7230799
459.50 0.7237621
459.60 0.7244437
459.70 0.7251246
459.80 0.7258049
459.90 0.7264845
460.00 0.7271635
460.10 0.7278417
460.20 0.7285194
460.30 0.7291964
460.40 0.7298727
460.50 0.7305483
460.60 0.7312233
460.70 0.7318731
460.80 0.7325102
460.90 0.7331466
461.00 0.7337824
461.10 0.7344176
461.20 0.7351286
461.30 0.7358702
461.40 0.7365444
461.50 0.7372014
461.60 0.7378577
461.70 0.7385134
461.80 0.7392069
461.90 0.7398998
462.00 0.740592
462.10 0.7412836
462.20 0.7419745
462.30 0.7426647
462.40 0.7433542
462.50 0.7440431
462.60 0.7447313
462.70 0.7454189
462.80 0.7461058
462.90 0.746792
463.00 0.7474776
463.10 0.7481625
463.20 0.7488539
463.30 0.7495475
463.40 0.7502404
463.50 0.7509327
463.60 0.7516243
463.70 0.7523152
463.80 0.7530055
463.90 0.7536758
464.00 0.7543405
464.10 0.7550047
464.20 0.7556682
464.30 0.756331
464.40 0.7569933
464.50 0.7576548
464.60 0.7583158
464.70 0.7590099
464.80 0.759717
464.90 0.7604236
465.00 0.7611294
465.10 0.7618346
465.20 0.762539
465.30 0.7632073
465.40 0.7638512
465.50 0.7644945
465.60 0.7651372
465.70 0.7657792
465.80 0.7664207
465.90 0.767127
466.00 0.767849
466.10 0.7685703
466.20 0.7692909
466.30 0.7699924
466.40 0.7706858
466.50 0.7713784
466.60 0.7720704
466.70 0.7727618
466.80 0.7734525
466.90 0.7741425
467.00 0.7748318
467.10 0.7755205
467.20 0.7762086
467.30 0.7769419
467.40 0.7776012
467.50 0.778237
467.60 0.7788721
467.70 0.7795067
467.80 0.7801406
467.90 0.7808445
468.00 0.7815765
468.10 0.7823078
468.20 0.7830385
468.30 0.7837103
468.40 0.7843577
468.50 0.7848884
468.60 0.785691
468.70 0.7864336
468.80 0.7869825
468.90 0.7876543
469.00 0.7884923
469.10 0.7891987
469.20 0.789841
469.30 0.7904827
469.40 0.7911238
469.50 0.7918197
469.60 0.7925376
469.70 0.7932548
469.80 0.7939713
469.90 0.7946958
470.00 0.7953058
470.10 0.7959787
470.20 0.7966987
470.30 0.7974181
470.40 0.7981367
470.50 0.7988547
470.60 0.7995049
470.70 0.8001376
470.80 0.8007698
470.90 0.8014014
471.00 0.8022058
471.10 0.8029671
471.20 0.8034865
471.30 0.8042772
471.40 0.804744
471.50 0.8055334
471.60 0.8062574
471.70 0.8070453
471.80 0.8077034
471.90 0.8083287
472.00 0.8089533
472.10 0.8095773
472.20 0.8102884
472.30 0.8110206
472.40 0.8117521
472.50 0.8124829
472.60 0.8132131
472.70 0.8139327
472.80 0.8146227
472.90 0.8153059
473.00 0.8159884
473.10 0.8166703
473.20 0.8173515
473.30 0.8180321
473.40 0.818712
473.50 0.8193913
473.60 0.8200699
473.70 0.8207479
473.80 0.8214197
473.90 0.8220896
474.00 0.8227587
474.10 0.8234273
474.20 0.8241107
474.30 0.8247997
474.40 0.8254881
474.50 0.8261759
474.60 0.8268643
474.70 0.8275652
474.80 0.8282655
474.90 0.8289651
475.00 0.829664
475.10 0.8303623
475.20 0.8310599
475.30 0.8317568
475.40 0.8324332
475.50 0.833104
475.60 0.8337741
475.70 0.8344436
475.80 0.8351124
475.90 0.8357806
476.00 0.8364482
476.10 0.8371151
476.20 0.8378072
476.30 0.8385092
476.40 0.8392105
476.50 0.8399111
476.60 0.8406111
476.70 0.8413104
476.80 0.842009
476.90 0.8427041
477.00 0.8433977
477.10 0.8440907
477.20 0.844783
477.30 0.8454746
477.40 0.8461656
477.50 0.846856
477.60 0.8475457
477.70 0.8482347
477.80 0.8489231
477.90 0.8496109
478.00 0.850298
478.10 0.8509844
478.20 0.8516702
478.30 0.8523554
478.40 0.8530399
478.50 0.8537237
478.60 0.8544069
478.70 0.8550505
478.80 0.8556775
478.90 0.8563406
479.00 0.8570124
479.10 0.8576835
479.20 0.858354
479.30 0.8590238
479.40 0.8597045
479.50 0.8603913
479.60 0.8610774
479.70 0.8617629
479.80 0.8624478
479.90 0.863132
480.00 0.8638156
480.10 0.8644985
480.20 0.8651808
480.30 0.8658624
480.40 0.8665434
480.50 0.8672238
480.60 0.8679035
480.70 0.8685826
480.80 0.869261
480.90 0.8699388
481.00 0.8706159
481.10 0.8712925
481.20 0.8719803
481.30 0.8726675
481.40 0.8733541
481.50 0.87404
481.60 0.8747253
481.70 0.8754099
481.80 0.8760939
481.90 0.8767772
482.00 0.8774599
482.10 0.8781419
482.20 0.8788239
482.30 0.8795128
482.40 0.8802011
482.50 0.8808887
482.60 0.8815757
482.70 0.882262
482.80 0.8829477
482.90 0.8836327
483.00 0.8843171
483.10 0.8850008
483.20 0.8856839
483.30 0.8863664
483.40 0.8870482
483.50 0.8877294
483.60 0.8884099
483.70 0.8891431
483.80 0.8898755
483.90 0.8906073
484.00 0.8913384
484.10 0.8920688
484.20 0.8927535
484.30 0.8934182
484.40 0.8940823
484.50 0.8947458
484.60 0.8954086
484.70 0.8960718
484.80 0.8967465
484.90 0.8974207
485.00 0.8980942
485.10 0.898767
485.20 0.8994393
485.30 0.9001109
485.40 0.9007819
485.50 0.9014522
485.60 0.902122
485.70 0.902809
485.80 0.9034953
485.90 0.904181
486.00 0.9048661
486.10 0.9055506
486.20 0.9062344
486.30 0.9069175
486.40 0.9076
486.50 0.9082819
486.60 0.9089632
486.70 0.909643
486.80 0.9103118
486.90 0.91098
487.00 0.9116475
487.10 0.9123144
487.20 0.9130196
487.30 0.9137241
487.40 0.9144279
487.50 0.9151311
487.60 0.9158336
487.70 0.9165354
487.80 0.9172367
487.90 0.9179372
488.00 0.9186371
488.10 0.9193364
488.20 0.9200346
488.30 0.9207272
488.40 0.9214191
488.50 0.9221104
488.60 0.9228011
488.70 0.9234911
488.80 0.9241078
488.90 0.924724
489.00 0.9253617
489.10 0.9260556
489.20 0.9267488
489.30 0.9274414
489.40 0.9281333
489.50 0.9288246
489.60 0.9295153
489.70 0.9302053
489.80 0.930798
489.90 0.9314804
490.00 0.9321622
490.10 0.9328434
490.20 0.933524
490.30 0.9342039
490.40 0.9349428
490.50 0.935681
490.60 0.9364186
490.70 0.9371554
490.80 0.937746
490.90 0.9384781
491.00 0.9391386
491.10 0.9396495
491.20 0.9404576
491.30 0.9411161
491.40 0.9417032
491.50 0.9424315
491.60 0.9432777
491.70 0.9439503
491.80 0.9446066
491.90 0.9450548
492.00 0.9459093
492.10 0.9465629
492.20 0.9472159
492.30 0.9478683
492.40 0.9485458
492.50 0.9492675
492.60 0.9498477
492.70 0.9505716
492.80 0.9512949
492.90 0.9520175
493.00 0.9527352
493.10 0.9533975
493.20 0.9540592
493.30 0.9547202
493.40 0.9553806
493.50 0.9560404
493.60 0.9566144
493.70 0.9573264
493.80 0.9580377
493.90 0.9587636
494.00 0.9595129
494.10 0.9602383
494.20 0.960914
494.30 0.961589
494.40 0.9622634
494.50 0.9629372
494.60 0.9636041
494.70 0.9641873
494.80 0.964798
494.90 0.9654875
495.00 0.9661763
495.10 0.9668646
495.20 0.9675633
495.30 0.9682614
495.40 0.9689588
495.50 0.9696557
495.60 0.9703518
495.70 0.9710473
495.80 0.9717422
495.90 0.9724365
496.00 0.9731301
496.10 0.9737746
496.20 0.9743255
496.30 0.9750075
496.40 0.9756888
496.50 0.9763696
496.60 0.9770497
496.70 0.9777361
496.80 0.9784218
496.90 0.979107
497.00 0.9797915
497.10 0.9804753
497.20 0.9811586
497.30 0.9818436
497.40 0.982535
497.50 0.9832257
497.60 0.9838655
497.70 0.9844091
497.80 0.9851001
497.90 0.9857904
498.00 0.9864801
498.10 0.9871691
498.20 0.9878576
498.30 0.9885454
498.40 0.9892325
498.50 0.9899191
498.60 0.990605
498.70 0.9912184
498.80 0.9918313
498.90 0.9925315
499.00 0.993231
499.10 0.9939299
499.20 0.9946253
499.30 0.9953174
499.40 0.9960184
499.50 0.9967189
499.60 0.9974186
499.70 0.998113
499.80 0.9987426
499.90 0.9993716
500.00 1
500.10 1.000628
500.20 1.001278
500.30 1.001978
500.40 1.002677
500.50 1.003376
500.60 1.004073
500.70 1.00477
500.80 1.005447
500.90 1.00608
501.00 1.006713
501.10 1.007345
501.20 1.008121
501.30 1.008719
501.40 1.009453
501.50 1.010107
501.60 1.010675
501.70 1.011385
501.80 1.012032
501.90 1.012769
502.00 1.013505
502.10 1.014241
502.20 1.014965
502.30 1.015537
502.40 1.016145
502.50 1.016831
502.60 1.017516
502.70 1.018201
502.80 1.018885
502.90 1.019568
503.00 1.020238
503.10 1.020881
503.20 1.021523
503.30 1.022165
503.40 1.022819
503.50 1.023507
503.60 1.024195
503.70 1.024883
503.80 1.02557
503.90 1.026263
504.00 1.026938
504.10 1.027575
504.20 1.028211
504.30 1.028846
504.40 1.029504
504.50 1.030224
504.60 1.030834
504.70 1.031455
504.80 1.032223
504.90 1.032892
505.00 1.033536
505.10 1.034253
505.20 1.034955
505.30 1.035616
505.40 1.036277
505.50 1.036937
505.60 1.037595
505.70 1.038251
505.80 1.038906
505.90 1.03956
506.00 1.040214
506.10 1.040867
506.20 1.041528
506.30 1.042214
506.40 1.042899
506.50 1.043583
506.60 1.044266
506.70 1.044949
506.80 1.045632
506.90 1.046314
507.00 1.046995
507.10 1.047663
507.20 1.04831
507.30 1.048978
507.40 1.049646
507.50 1.050313
507.60 1.050979
507.70 1.051645
507.80 1.05231
507.90 1.052975
508.00 1.053638
508.10 1.054302
508.20 1.054964
508.30 1.055626
508.40 1.056288
508.50 1.056949
508.60 1.057609
508.70 1.058269
508.80 1.058926
508.90 1.05955
509.00 1.060165
509.10 1.060795
509.20 1.061458
509.30 1.06212
509.40 1.062781
509.50 1.063443
509.60 1.064103
509.70 1.064763
509.80 1.065422
509.90 1.066081
510.00 1.066739
510.10 1.067396
510.20 1.068053
510.30 1.068713
510.40 1.06938
510.50 1.070048
510.60 1.070714
510.70 1.07138
510.80 1.072046
510.90 1.07271
511.00 1.073375
511.10 1.074038
511.20 1.074701
511.30 1.075364
511.40 1.076025
511.50 1.076687
511.60 1.077349
511.70 1.078016
511.80 1.078682
511.90 1.079348
512.00 1.080013
512.10 1.080677
512.20 1.081341
512.30 1.082004
512.40 1.082666
512.50 1.083327
512.60 1.083988
512.70 1.084648
512.80 1.085307
512.90 1.085966
513.00 1.086624
513.10 1.087282
513.20 1.087939
513.30 1.088596
513.40 1.089252
513.50 1.089907
513.60 1.090562
513.70 1.091216
513.80 1.091869
513.90 1.092522
514.00 1.093176
514.10 1.093829
514.20 1.094482
514.30 1.095134
514.40 1.095785
514.50 1.096436
514.60 1.097086
514.70 1.097736
514.80 1.098385
514.90 1.099034
515.00 1.099682
515.10 1.100329
515.20 1.100976
515.30 1.101622
515.40 1.102268
515.50 1.102913
515.60 1.103557
515.70 1.104201
515.80 1.104844
515.90 1.105487
516.00 1.106129
516.10 1.10677
516.20 1.107411
516.30 1.108052
516.40 1.108692
516.50 1.109334
516.60 1.109994
516.70 1.110654
516.80 1.111312
516.90 1.111971
517.00 1.112628
517.10 1.113285
517.20 1.113942
517.30 1.114598
517.40 1.115253
517.50 1.115907
517.60 1.116562
517.70 1.117215
517.80 1.117868
517.90 1.11852
518.00 1.119172
518.10 1.119823
518.20 1.120474
518.30 1.121124
518.40 1.121773
518.50 1.122422
518.60 1.12307
518.70 1.123718
518.80 1.124365
518.90 1.125011
519.00 1.125657
519.10 1.126309
519.20 1.126969
519.30 1.127627
519.40 1.128286
519.50 1.128943
519.60 1.1296
519.70 1.130257
519.80 1.130912
519.90 1.131568
520.00 1.132222
520.10 1.132876
520.20 1.13353
520.30 1.134183
520.40 1.134835
520.50 1.135487
520.60 1.136138
520.70 1.136789
520.80 1.137438
520.90 1.138088
521.00 1.138737
521.10 1.139385
521.20 1.140033
521.30 1.14068
521.40 1.141326
521.50 1.141972
521.60 1.142617
521.70 1.143262
521.80 1.143906
521.90 1.14455
522.00 1.145193
522.10 1.145835
522.20 1.146477
522.30 1.147118
522.40 1.147759
522.50 1.148399
522.60 1.149039
522.70 1.149678
522.80 1.150316
522.90 1.150954
523.00 1.151591
523.10 1.152228
523.20 1.152864
523.30 1.1535
523.40 1.154135
523.50 1.154769
523.60 1.155403
523.70 1.156036
523.80 1.156669
523.90 1.157301
524.00 1.157933
524.10 1.158564
524.20 1.159194
524.30 1.159832
524.40 1.160476
524.50 1.161119
524.60 1.161762
524.70 1.162404
524.80 1.163045
524.90 1.163686
525.00 1.164327
525.10 1.164967
525.20 1.165606
525.30 1.166244
525.40 1.166882
525.50 1.16752
525.60 1.168157
525.70 1.168793
525.80 1.169429
525.90 1.170064
526.00 1.170699
526.10 1.171333
526.20 1.171967
526.30 1.1726
526.40 1.173232
526.50 1.173864
526.60 1.174495
526.70 1.175126
526.80 1.175756
526.90 1.176385
527.00 1.177014
527.10 1.177643
527.20 1.178271
527.30 1.178898
527.40 1.179525
527.50 1.180151
527.60 1.180777
527.70 1.181402
527.80 1.182026
527.90 1.18265
528.00 1.183274
528.10 1.183897
528.20 1.184519
528.30 1.185141
528.40 1.185762
528.50 1.186382
528.60 1.187002
528.70 1.187622
528.80 1.188241
528.90 1.188859
529.00 1.189477
529.10 1.190095
529.20 1.190711
529.30 1.191328
529.40 1.191943
529.50 1.192561
529.60 1.193194
529.70 1.193826
529.80 1.194457
529.90 1.195088
530.00 1.195719
530.10 1.196349
530.20 1.196978
530.30 1.197607
530.40 1.198235
530.50 1.198863
530.60 1.19949
530.70 1.200116
530.80 1.200742
530.90 1.201368
531.00 1.201993
531.10 1.202617
531.20 1.203241
531.30 1.203864
531.40 1.204487
531.50 1.205109
531.60 1.20573
531.70 1.206351
531.80 1.206972
531.90 1.207592
532.00 1.208211
532.10 1.20883
532.20 1.209455
532.30 1.210082
532.40 1.210709
532.50 1.211336
532.60 1.211962
532.70 1.212587
532.80 1.213212
532.90 1.213837
533.00 1.21446
533.10 1.215084
533.20 1.215706
533.30 1.216328
533.40 1.21695
533.50 1.217571
533.60 1.218192
533.70 1.218811
533.80 1.219431
533.90 1.22005
534.00 1.220668
534.10 1.221286
534.20 1.221903
534.30 1.222519
534.40 1.223136
534.50 1.223751
534.60 1.224366
534.70 1.22498
534.80 1.225597
534.90 1.226223
535.00 1.226848
535.10 1.227473
535.20 1.228097
535.30 1.228721
535.40 1.229344
535.50 1.229967
535.60 1.230589
535.70 1.231211
535.80 1.231832
535.90 1.232452
536.00 1.233072
536.10 1.233692
536.20 1.234311
536.30 1.234929
536.40 1.235547
536.50 1.236164
536.60 1.23678
536.70 1.237397
536.80 1.238012
536.90 1.238627
537.00 1.239242
537.10 1.239856
537.20 1.240469
537.30 1.241082
537.40 1.241694
537.50 1.242306
537.60 1.242917
537.70 1.243528
537.80 1.244138
537.90 1.244748
538.00 1.245357
538.10 1.245965
538.20 1.246573
538.30 1.247181
538.40 1.247787
538.50 1.248394
538.60 1.249
538.70 1.249605
538.80 1.25021
538.90 1.250814
539.00 1.251418
539.10 1.252021
539.20 1.252623
539.30 1.253226
539.40 1.253827
539.50 1.254428
539.60 1.255029
539.70 1.255629
539.80 1.256228
539.90 1.256827
540.00 1.257425
540.10 1.258023
540.20 1.258629
540.30 1.259238
540.40 1.259847
540.50 1.260455
540.60 1.261063
540.70 1.26167
540.80 1.262276
540.90 1.262882
541.00 1.263487
541.10 1.264092
541.20 1.264696
541.30 1.2653
541.40 1.265904
541.50 1.266506
541.60 1.267108
541.70 1.26771
541.80 1.268311
541.90 1.268912
542.00 1.269512
542.10 1.270111
542.20 1.27071
542.30 1.271309
542.40 1.271907
542.50 1.272504
542.60 1.273101
542.70 1.273698
542.80 1.274293
542.90 1.274889
543.00 1.275484
543.10 1.276078
543.20 1.276672
543.30 1.277265
543.40 1.277858
543.50 1.27845
543.60 1.279041
543.70 1.279633
543.80 1.280223
543.90 1.280813
544.00 1.281403
544.10 1.281992
544.20 1.28258
544.30 1.283168
544.40 1.283756
544.50 1.284343
544.60 1.284929
544.70 1.285515
544.80 1.286101
544.90 1.286686
545.00 1.28727
545.10 1.287854
545.20 1.288437
545.30 1.28902
545.40 1.289602
545.50 1.290184
545.60 1.290777
545.70 1.291373
545.80 1.29197
545.90 1.292565
546.00 1.29316
546.10 1.293755
546.20 1.294349
546.30 1.294943
546.40 1.295536
546.50 1.296128
546.60 1.29672
546.70 1.297312
546.80 1.297903
546.90 1.298493
547.00 1.299083
547.10 1.299672
547.20 1.300261
547.30 1.30085
547.40 1.301437
547.50 1.302025
547.60 1.302612
547.70 1.303198
547.80 1.303784
547.90 1.304369
548.00 1.304954
548.10 1.305538
548.20 1.306122
548.30 1.306705
548.40 1.307288
548.50 1.307871
548.60 1.308453
548.70 1.309034
548.80 1.309615
548.90 1.310196
549.00 1.310776
549.10 1.311355
549.20 1.311934
549.30 1.312513
549.40 1.313091
549.50 1.313668
549.60 1.314245
549.70 1.314822
549.80 1.315398
549.90 1.315973
550.00 1.316548
550.10 1.317123
550.20 1.317697
550.30 1.31827
550.40 1.318843
550.50 1.319415
550.60 1.319987
550.70 1.320559
550.80 1.32113
550.90 1.3217
551.00 1.322272
551.10 1.322857
551.20 1.323441
551.30 1.324024
551.40 1.324607
551.50 1.32519
551.60 1.325772
551.70 1.326353
551.80 1.326934
551.90 1.327515
552.00 1.328095
552.10 1.328674
552.20 1.329253
552.30 1.329831
552.40 1.330409
552.50 1.330987
552.60 1.331563
552.70 1.33214
552.80 1.332716
552.90 1.333291
553.00 1.333866
553.10 1.33444
553.20 1.335014
553.30 1.335588
553.40 1.33616
553.50 1.336733
553.60 1.337305
553.70 1.337876
553.80 1.338452
553.90 1.339031
554.00 1.339609
554.10 1.340187
554.20 1.340764
554.30 1.341341
554.40 1.341918
554.50 1.342493
554.60 1.343069
554.70 1.343643
554.80 1.344218
554.90 1.344792
555.00 1.345365
555.10 1.345938
555.20 1.34651
555.30 1.347082
555.40 1.347653
555.50 1.348224
555.60 1.348794
555.70 1.349364
555.80 1.349934
555.90 1.350502
556.00 1.351071
556.10 1.351639
556.20 1.352206
556.30 1.352773
556.40 1.353339
556.50 1.353905
556.60 1.354473
556.70 1.35504
556.80 1.355606
556.90 1.356172
557.00 1.356738
557.10 1.357303
557.20 1.357867
557.30 1.358431
557.40 1.358995
557.50 1.359558
557.60 1.36012
557.70 1.360682
557.80 1.361244
557.90 1.361805
558.00 1.362365
558.10 1.362925
558.20 1.363485
558.30 1.364044
558.40 1.364603
558.50 1.365161
558.60 1.365719
558.70 1.366276
558.80 1.366832
558.90 1.367389
559.00 1.367944
559.10 1.3685
559.20 1.369054
559.30 1.369608
559.40 1.370162
559.50 1.370716
559.60 1.371268
559.70 1.371821
559.80 1.372372
559.90 1.372924
560.00 1.373475
560.10 1.374025
560.20 1.374575
560.30 1.375124
560.40 1.375673
560.50 1.376222
560.60 1.37677
560.70 1.377317
560.80 1.377864
560.90 1.378411
561.00 1.378957
561.10 1.379503
561.20 1.380048
561.30 1.380592
561.40 1.381137
561.50 1.38168
561.60 1.382224
561.70 1.382766
561.80 1.383309
561.90 1.38385
562.00 1.384392
562.10 1.384936
562.20 1.385487
562.30 1.386036
562.40 1.386585
562.50 1.387134
562.60 1.387682
562.70 1.38823
562.80 1.388777
562.90 1.389324
563.00 1.38987
563.10 1.390416
563.20 1.390962
563.30 1.391506
563.40 1.392051
563.50 1.392595
563.60 1.393138
563.70 1.393681
563.80 1.394224
563.90 1.394766
564.00 1.395307
564.10 1.395848
564.20 1.396389
564.30 1.396929
564.40 1.397469
564.50 1.398008
564.60 1.398547
564.70 1.399085
564.80 1.399623
564.90 1.400163
565.00 1.400708
565.10 1.401253
565.20 1.401797
565.30 1.402341
565.40 1.402884
565.50 1.403427
565.60 1.403969
565.70 1.404511
565.80 1.405053
565.90 1.405594
566.00 1.406134
566.10 1.406674
566.20 1.407214
566.30 1.407753
566.40 1.408292
566.50 1.40883
566.60 1.409367
566.70 1.409905
566.80 1.410441
566.90 1.410978
567.00 1.411514
567.10 1.412049
567.20 1.412584
567.30 1.413118
567.40 1.413652
567.50 1.414186
567.60 1.414719
567.70 1.415252
567.80 1.41579
567.90 1.416327
568.00 1.416863
568.10 1.4174
568.20 1.417935
568.30 1.41847
568.40 1.419005
568.50 1.419539
568.60 1.420073
568.70 1.420606
568.80 1.421139
568.90 1.421671
569.00 1.422203
569.10 1.422735
569.20 1.423266
569.30 1.423796
569.40 1.424326
569.50 1.424856
569.60 1.425385
569.70 1.425914
569.80 1.426442
569.90 1.42697
570.00 1.427497
570.10 1.428024
570.20 1.42855
570.30 1.429076
570.40 1.429602
570.50 1.430127
570.60 1.430651
570.70 1.431175
570.80 1.431699
570.90 1.432222
571.00 1.432745
571.10 1.433267
571.20 1.433789
571.30 1.434311
571.40 1.434831
571.50 1.435352
571.60 1.435872
571.70 1.436392
571.80 1.436911
571.90 1.437429
572.00 1.437948
572.10 1.438465
572.20 1.438983
572.30 1.4395
572.40 1.440016
572.50 1.440532
572.60 1.441047
572.70 1.441563
572.80 1.442077
572.90 1.442591
573.00 1.443105
573.10 1.443618
573.20 1.444131
573.30 1.444644
573.40 1.445161
573.50 1.445686
573.60 1.44621
573.70 1.446733
573.80 1.447256
573.90 1.447779
574.00 1.448301
574.10 1.448823
574.20 1.449344
574.30 1.449865
574.40 1.450386
574.50 1.450906
574.60 1.451425
574.70 1.451944
574.80 1.452463
574.90 1.452981
575.00 1.453499
575.10 1.454016
575.20 1.454533
575.30 1.455049
575.40 1.455565
575.50 1.456081
575.60 1.456596
575.70 1.45711
575.80 1.457624
575.90 1.458138
576.00 1.458651
576.10 1.459164
576.20 1.459677
576.30 1.460188
576.40 1.4607
576.50 1.461211
576.60 1.461722
576.70 1.462232
576.80 1.462742
576.90 1.463251
577.00 1.46376
577.10 1.464268
577.20 1.464776
577.30 1.465284
577.40 1.465791
577.50 1.466297
577.60 1.466803
577.70 1.467309
577.80 1.467814
577.90 1.468319
578.00 1.468823
578.10 1.469327
578.20 1.46983
578.30 1.470333
578.40 1.470836
578.50 1.471338
578.60 1.47184
578.70 1.472341
578.80 1.472842
578.90 1.473342
579.00 1.473842
579.10 1.474342
579.20 1.474847
579.30 1.475352
579.40 1.475856
579.50 1.47636
579.60 1.476863
579.70 1.477366
579.80 1.477869
579.90 1.478371
580.00 1.478872
580.10 1.479371
580.20 1.479863
580.30 1.480356
580.40 1.480848
580.50 1.481339
580.60 1.48183
580.70 1.482321
580.80 1.482811
580.90 1.483301
581.00 1.483791
581.10 1.48428
581.20 1.484768
581.30 1.485256
581.40 1.485744
581.50 1.486231
581.60 1.486718
581.70 1.487204
581.80 1.48769
581.90 1.488176
582.00 1.488661
582.10 1.489149
582.20 1.48964
582.30 1.490131
582.40 1.490622
582.50 1.491112
582.60 1.491601
582.70 1.492091
582.80 1.49258
582.90 1.493068
583.00 1.493556
583.10 1.494043
583.20 1.494531
583.30 1.495017
583.40 1.495504
583.50 1.49599
583.60 1.496478
583.70 1.496972
583.80 1.497464
583.90 1.497957
584.00 1.498449
584.10 1.498941
584.20 1.499432
584.30 1.499923
584.40 1.500413
584.50 1.500903
584.60 1.501393
584.70 1.501882
584.80 1.50237
584.90 1.502867
585.00 1.503403
585.10 1.503938
585.20 1.504449
585.30 1.50492
585.40 1.505391
585.50 1.505861
585.60 1.506331
585.70 1.506801
585.80 1.50727
585.90 1.507739
586.00 1.508207
586.10 1.508675
586.20 1.509154
586.30 1.509649
586.40 1.510143
586.50 1.510638
586.60 1.511131
586.70 1.511625
586.80 1.512111
586.90 1.512586
587.00 1.513061
587.10 1.513535
587.20 1.513989
587.30 1.514411
587.40 1.514871
587.50 1.515396
587.60 1.51592
587.70 1.516351
587.80 1.51676
587.90 1.517283
588.00 1.517786
588.10 1.518256
588.20 1.518726
588.30 1.519195
588.40 1.519671
588.50 1.520156
588.60 1.520642
588.70 1.521127
588.80 1.521612
588.90 1.522096
589.00 1.522577
589.10 1.523053
589.20 1.52353
589.30 1.524005
589.40 1.52448
589.50 1.524955
589.60 1.52543
589.70 1.525904
589.80 1.526377
589.90 1.52685
590.00 1.527314
590.10 1.527762
590.20 1.528209
590.30 1.528657
590.40 1.529103
590.50 1.52955
590.60 1.529996
590.70 1.530441
590.80 1.530905
590.90 1.531377
591.00 1.531849
591.10 1.53232
591.20 1.532791
591.30 1.533261
591.40 1.533731
591.50 1.5342
591.60 1.534668
591.70 1.535134
591.80 1.5356
591.90 1.536065
592.00 1.53653
592.10 1.536994
592.20 1.537458
592.30 1.537922
592.40 1.538385
592.50 1.538847
592.60 1.53931
592.70 1.539772
592.80 1.540233
592.90 1.540694
593.00 1.541155
593.10 1.541615
593.20 1.542075
593.30 1.542535
593.40 1.542994
593.50 1.543453
593.60 1.543911
593.70 1.544369
593.80 1.544827
593.90 1.545284
594.00 1.545741
594.10 1.546197
594.20 1.546653
594.30 1.547109
594.40 1.547564
594.50 1.548019
594.60 1.548473
594.70 1.548927
594.80 1.549381
594.90 1.549834
595.00 1.550287
595.10 1.550741
595.20 1.551197
595.30 1.551654
595.40 1.552109
595.50 1.552565
595.60 1.55302
595.70 1.553474
595.80 1.553929
595.90 1.554382
596.00 1.554836
596.10 1.555289
596.20 1.555742
596.30 1.556194
596.40 1.556646
596.50 1.557097
596.60 1.557548
596.70 1.557991
596.80 1.55843
596.90 1.558867
597.00 1.559305
597.10 1.559742
597.20 1.560178
597.30 1.560615
597.40 1.56105
597.50 1.561486
597.60 1.561926
597.70 1.562375
597.80 1.562824
597.90 1.563272
598.00 1.56372
598.10 1.564168
598.20 1.564615
598.30 1.565061
598.40 1.565508
598.50 1.565954
598.60 1.566399
598.70 1.566844
598.80 1.567289
598.90 1.567734
599.00 1.568178
599.10 1.568621
599.20 1.569064
599.30 1.569507
599.40 1.569953
599.50 1.570399
599.60 1.570844
599.70 1.571288
599.80 1.571733
599.90 1.572177
600.00 1.57262
600.10 1.573063
600.20 1.573506
600.30 1.573948
600.40 1.57439
600.50 1.574832
600.60 1.575273
600.70 1.575714
600.80 1.576155
600.90 1.576595
601.00 1.577035
601.10 1.577474
601.20 1.577913
601.30 1.578351
601.40 1.578785
601.50 1.579219
601.60 1.579652
601.70 1.580084
601.80 1.580516
601.90 1.580948
602.00 1.58138
602.10 1.581811
602.20 1.582242
602.30 1.582672
602.40 1.583102
602.50 1.583532
602.60 1.583961
602.70 1.58435
602.80 1.584737
602.90 1.585174
603.00 1.585611
603.10 1.586048
603.20 1.586485
603.30 1.586921
603.40 1.587356
603.50 1.587792
603.60 1.588227
603.70 1.588661
603.80 1.589095
603.90 1.589529
604.00 1.589963
604.10 1.590396
604.20 1.590828
604.30 1.591261
604.40 1.591692
604.50 1.592109
604.60 1.592526
604.70 1.592942
604.80 1.593357
604.90 1.593773
605.00 1.594188
605.10 1.594602
605.20 1.595017
605.30 1.595431
605.40 1.595844
605.50 1.596297
605.60 1.596749
605.70 1.5972
605.80 1.597651
605.90 1.598102
606.00 1.598553
606.10 1.598954
606.20 1.599355
606.30 1.599755
606.40 1.600155
606.50 1.600604
606.60 1.601052
606.70 1.601402
606.80 1.601752
606.90 1.602199
607.00 1.602646
607.10 1.603093
607.20 1.603539
607.30 1.603935
607.40 1.604332
607.50 1.604728
607.60 1.605124
607.70 1.605536
607.80 1.605947
607.90 1.606358
608.00 1.606769
608.10 1.607179
608.20 1.607589
608.30 1.608006
608.40 1.608423
608.50 1.60884
608.60 1.609256
608.70 1.609678
608.80 1.610103
608.90 1.610527
609.00 1.610951
609.10 1.611375
609.20 1.611798
609.30 1.612212
609.40 1.612626
609.50 1.613039
609.60 1.613452
609.70 1.613865
609.80 1.614277
609.90 1.614689
610.00 1.615101
610.10 1.615512
610.20 1.615923
610.30 1.616333
610.40 1.616743
610.50 1.617153
610.60 1.617562
610.70 1.617971
610.80 1.61838
610.90 1.618787
611.00 1.619193
611.10 1.619599
611.20 1.620005
611.30 1.62041
611.40 1.620815
611.50 1.62122
611.60 1.621624
611.70 1.622028
611.80 1.622432
611.90 1.622835
612.00 1.623238
612.10 1.623641
612.20 1.624043
612.30 1.624445
612.40 1.624843
612.50 1.625241
612.60 1.625638
612.70 1.626036
612.80 1.626433
612.90 1.626829
613.00 1.627225
613.10 1.627621
613.20 1.628017
613.30 1.628412
613.40 1.628807
613.50 1.629201
613.60 1.629595
613.70 1.629989
613.80 1.630383
613.90 1.630776
614.00 1.631169
614.10 1.631561
614.20 1.631953
614.30 1.632345
614.40 1.632726
614.50 1.633107
614.60 1.633487
614.70 1.633868
614.80 1.634263
614.90 1.634662
615.00 1.63506
615.10 1.635458
615.20 1.635856
615.30 1.636253
615.40 1.63665
615.50 1.637046
615.60 1.637443
615.70 1.637838
615.80 1.638234
615.90 1.638629
616.00 1.639024
616.10 1.639418
616.20 1.639813
616.30 1.640206
616.40 1.6406
616.50 1.640993
616.60 1.641386
616.70 1.641778
616.80 1.64217
616.90 1.642557
617.00 1.642944
617.10 1.64333
617.20 1.643716
617.30 1.644102
617.40 1.644488
617.50 1.644873
617.60 1.645257
617.70 1.645642
617.80 1.646026
617.90 1.64641
618.00 1.646793
618.10 1.647176
618.20 1.647559
618.30 1.647941
618.40 1.648323
618.50 1.648705
618.60 1.649086
618.70 1.649467
618.80 1.649848
618.90 1.650228
619.00 1.650608
619.10 1.650988
619.20 1.651368
619.30 1.651747
619.40 1.652125
619.50 1.652504
619.60 1.652882
619.70 1.65326
619.80 1.653637
619.90 1.654014
620.00 1.654391
620.10 1.654767
620.20 1.655143
620.30 1.655519
620.40 1.655895
620.50 1.65627
620.60 1.656644
620.70 1.657019
620.80 1.657393
620.90 1.657768
621.00 1.658146
621.10 1.658524
621.20 1.658901
621.30 1.659278
621.40 1.659655
621.50 1.660031
621.60 1.660407
621.70 1.660783
621.80 1.661158
621.90 1.661533
622.00 1.661908
622.10 1.662282
622.20 1.662656
622.30 1.66303
622.40 1.663403
622.50 1.663776
622.60 1.664149
622.70 1.664521
622.80 1.664893
622.90 1.665265
623.00 1.665637
623.10 1.666008
623.20 1.666379
623.30 1.666749
623.40 1.667119
623.50 1.667489
623.60 1.667858
623.70 1.668227
623.80 1.668596
623.90 1.668965
624.00 1.669333
624.10 1.669701
624.20 1.670068
624.30 1.670436
624.40 1.670803
624.50 1.671169
624.60 1.671535
624.70 1.671901
624.80 1.672267
624.90 1.672632
625.00 1.672997
625.10 1.673362
625.20 1.673726
625.30 1.67409
625.40 1.674454
625.50 1.674817
625.60 1.67518
625.70 1.675543
625.80 1.675906
625.90 1.676268
626.00 1.67663
626.10 1.676991
626.20 1.677352
626.30 1.677713
626.40 1.678074
626.50 1.678434
626.60 1.678794
626.70 1.679153
626.80 1.679513
626.90 1.679872
627.00 1.68023
627.10 1.680588
627.20 1.680943
627.30 1.681298
627.40 1.681652
627.50 1.682006
627.60 1.68236
627.70 1.682714
627.80 1.683067
627.90 1.68342
628.00 1.683773
628.10 1.684125
628.20 1.684477
628.30 1.684829
628.40 1.68518
628.50 1.685531
628.60 1.685882
628.70 1.686233
628.80 1.686583
628.90 1.686933
629.00 1.687282
629.10 1.687632
629.20 1.687981
629.30 1.688329
629.40 1.688678
629.50 1.689026
629.60 1.689373
629.70 1.689721
629.80 1.690068
629.90 1.690415
630.00 1.690761
630.10 1.691107
630.20 1.691453
630.30 1.691799
630.40 1.692144
630.50 1.692488
630.60 1.692833
630.70 1.693177
630.80 1.693521
630.90 1.693864
631.00 1.694207
631.10 1.69455
631.20 1.694893
631.30 1.695235
631.40 1.695577
631.50 1.695919
631.60 1.69626
631.70 1.696601
631.80 1.696942
631.90 1.697282
632.00 1.697622
632.10 1.697962
632.20 1.698302
632.30 1.698641
632.40 1.69898
632.50 1.699319
632.60 1.699657
632.70 1.699995
632.80 1.700333
632.90 1.700671
633.00 1.701008
633.10 1.701345
633.20 1.701681
633.30 1.702017
633.40 1.702355
633.50 1.702694
633.60 1.703032
633.70 1.70337
633.80 1.703708
633.90 1.704046
634.00 1.704383
634.10 1.70472
634.20 1.705057
634.30 1.705393
634.40 1.705729
634.50 1.706065
634.60 1.7064
634.70 1.706735
634.80 1.70707
634.90 1.707405
635.00 1.707739
635.10 1.708073
635.20 1.708407
635.30 1.70874
635.40 1.709073
635.50 1.709406
635.60 1.709738
635.70 1.710071
635.80 1.710402
635.90 1.710734
636.00 1.711065
636.10 1.711396
636.20 1.711727
636.30 1.712058
636.40 1.712388
636.50 1.712718
636.60 1.713047
636.70 1.713376
636.80 1.713705
636.90 1.714033
637.00 1.714361
637.10 1.714689
637.20 1.715017
637.30 1.715344
637.40 1.715671
637.50 1.715998
637.60 1.716324
637.70 1.71665
637.80 1.716976
637.90 1.717301
638.00 1.717627
638.10 1.717952
638.20 1.718276
638.30 1.718601
638.40 1.718925
638.50 1.719249
638.60 1.719572
638.70 1.719895
638.80 1.720218
638.90 1.720541
639.00 1.720863
639.10 1.721185
639.20 1.721507
639.30 1.721829
639.40 1.72215
639.50 1.722471
639.60 1.722791
639.70 1.723111
639.80 1.723428
639.90 1.723745
640.00 1.724061
640.10 1.724377
640.20 1.724693
640.30 1.725009
640.40 1.725324
640.50 1.725639
640.60 1.725954
640.70 1.726268
640.80 1.726582
640.90 1.726896
641.00 1.72721
641.10 1.727523
641.20 1.727836
641.30 1.728149
641.40 1.728461
641.50 1.728774
641.60 1.729086
641.70 1.729397
641.80 1.729709
641.90 1.73002
642.00 1.730331
642.10 1.730641
642.20 1.730951
642.30 1.731261
642.40 1.731571
642.50 1.73188
642.60 1.73219
642.70 1.732499
642.80 1.732807
642.90 1.733117
643.00 1.733431
643.10 1.733744
643.20 1.734057
643.30 1.73437
643.40 1.734683
643.50 1.734995
643.60 1.735307
643.70 1.735619
643.80 1.735931
643.90 1.736242
644.00 1.736553
644.10 1.736863
644.20 1.737174
644.30 1.737484
644.40 1.737794
644.50 1.738103
644.60 1.738413
644.70 1.738722
644.80 1.739031
644.90 1.739339
645.00 1.739647
645.10 1.739955
645.20 1.740263
645.30 1.74057
645.40 1.740877
645.50 1.741184
645.60 1.741491
645.70 1.741797
645.80 1.742103
645.90 1.742409
646.00 1.742714
646.10 1.743021
646.20 1.743334
646.30 1.743646
646.40 1.743958
646.50 1.74427
646.60 1.744581
646.70 1.744893
646.80 1.745203
646.90 1.745514
647.00 1.745824
647.10 1.746134
647.20 1.746444
647.30 1.746754
647.40 1.747063
647.50 1.747372
647.60 1.747681
647.70 1.747989
647.80 1.748297
647.90 1.748605
648.00 1.748913
648.10 1.74922
648.20 1.749527
648.30 1.749834
648.40 1.75014
648.50 1.750446
648.60 1.750752
648.70 1.751058
648.80 1.751363
648.90 1.751669
649.00 1.751973
649.10 1.752278
649.20 1.752582
649.30 1.752886
649.40 1.753139
649.50 1.75339
649.60 1.75364
649.70 1.75389
649.80 1.75414
649.90 1.75439
650.00 1.754639
650.10 1.754888
650.20 1.755137
650.30 1.755386
650.40 1.755634
650.50 1.755883
650.60 1.756131
650.70 1.756378
650.80 1.756626
650.90 1.756873
651.00 1.75712
651.10 1.757367
651.20 1.757613
651.30 1.75786
651.40 1.758106
651.50 1.758352
651.60 1.758597
651.70 1.758843
651.80 1.759088
651.90 1.759333
652.00 1.759578
652.10 1.759822
652.20 1.760066
652.30 1.76031
652.40 1.760554
652.50 1.760798
652.60 1.761086
652.70 1.761399
652.80 1.761711
652.90 1.762023
653.00 1.762335
653.10 1.762647
653.20 1.762958
653.30 1.763269
653.40 1.76358
653.50 1.76389
653.60 1.7642
653.70 1.76451
653.80 1.76482
653.90 1.765129
654.00 1.765438
654.10 1.765747
654.20 1.766056
654.30 1.766364
654.40 1.766672
654.50 1.76698
654.60 1.767287
654.70 1.767594
654.80 1.767901
654.90 1.768208
655.00 1.768514
655.10 1.76882
655.20 1.769126
655.30 1.769432
655.40 1.769737
655.50 1.770042
655.60 1.770347
655.70 1.770651
655.80 1.770946
655.90 1.771241
656.00 1.771536
656.10 1.77183
656.20 1.772124
656.30 1.772417
656.40 1.772711
656.50 1.773004
656.60 1.773297
656.70 1.77359
656.80 1.773882
656.90 1.774174
657.00 1.774466
657.10 1.774758
657.20 1.775049
657.30 1.77534
657.40 1.775631
657.50 1.775921
657.60 1.776212
657.70 1.776502
657.80 1.775962
657.90 1.776102
658.00 1.776361
658.10 1.776621
658.20 1.77688
658.30 1.777139
658.40 1.777397
658.50 1.777656
658.60 1.777914
658.70 1.778172
658.80 1.778429
658.90 1.778687
659.00 1.778944
659.10 1.779355
659.20 1.779995
659.30 1.780196
659.40 1.780397
659.50 1.780598
659.60 1.780798
659.70 1.780998
659.80 1.781198
659.90 1.781398
660.00 1.781598
660.10 1.781797
660.20 1.781996
660.30 1.782195
660.40 1.782632
660.50 1.78311
660.60 1.783589
660.70 1.784066
660.80 1.784544
660.90 1.784662
661.00 1.784779
661.10 1.784897
661.20 1.785014
661.30 1.785131
661.40 1.785248
661.50 1.785365
661.60 1.785481
661.70 1.785598
661.80 1.785714
661.90 1.786129
662.00 1.786544
662.10 1.786959
662.20 1.787374
662.30 1.787788
662.40 1.787391
662.50 1.78767
662.60 1.787948
662.70 1.788226
662.80 1.788504
662.90 1.788781
663.00 1.789059
663.10 1.790153
663.20 1.789613
663.30 1.790706
663.40 1.790166
663.50 1.790442
663.60 1.790718
663.70 1.790937
663.80 1.791155
663.90 1.791478
664.00 1.791819
664.10 1.792093
664.20 1.792368
664.30 1.792642
664.40 1.792916
664.50 1.79319
664.60 1.793463
664.70 1.793721
664.80 1.793979
664.90 1.794237
665.00 1.794494
665.10 1.794752
665.20 1.795009
665.30 1.795265
665.40 1.795522
665.50 1.795847
665.60 1.796183
665.70 1.79606
665.80 1.796368
665.90 1.796677
666.00 1.796985
666.10 1.797293
666.20 1.797601
666.30 1.797908
666.40 1.798215
666.50 1.79849
666.60 1.798758
666.70 1.799027
666.80 1.799295
666.90 1.799563
667.00 1.79983
667.10 1.800153
667.20 1.800486
667.30 1.800696
667.40 1.800907
667.50 1.801165
667.60 1.801431
667.70 1.801012
667.80 1.800976
667.90 1.801544
668.00 1.80201
668.10 1.802074
668.20 1.801535
668.30 1.801679
668.40 1.801944
668.50 1.802208
668.60 1.802472
668.70 1.80366
668.80 1.803744
668.90 1.803828
669.00 1.803912
669.10 1.803996
669.20 1.80408
669.30 1.804315
669.40 1.804578
669.50 1.80484
669.60 1.805102
669.70 1.805363
669.80 1.805625
669.90 1.805886
670.00 1.806147
670.10 1.806407
670.20 1.806668
670.30 1.806809
670.40 1.806929
670.50 1.807049
670.60 1.807169
670.70 1.807288
670.80 1.807608
670.90 1.807928
671.00 1.808247
671.10 1.808567
671.20 1.808886
671.30 1.809204
671.40 1.809523
671.50 1.809841
671.60 1.810159
671.70 1.810477
671.80 1.810794
671.90 1.810933
672.00 1.811041
672.10 1.811148
672.20 1.811255
672.30 1.811362
672.40 1.811531
672.50 1.811703
672.60 1.811876
672.70 1.812048
672.80 1.81222
672.90 1.812392
673.00 1.812564
673.10 1.812735
673.20 1.812906
673.30 1.813745
673.40 1.814087
673.50 1.814339
673.60 1.814592
673.70 1.814845
673.80 1.815097
673.90 1.815349
674.00 1.815601
674.10 1.815853
674.20 1.816104
674.30 1.816355
674.40 1.816606
674.50 1.816857
674.60 1.817107
674.70 1.817357
674.80 1.817607
674.90 1.817857
675.00 1.818107
675.10 1.818356
675.20 1.818605
675.30 1.818854
675.40 1.819076
675.50 1.819293
675.60 1.81951
675.70 1.819726
675.80 1.819942
675.90 1.820159
676.00 1.820374
676.10 1.82059
676.20 1.820806
676.30 1.821021
676.40 1.821236
676.50 1.821451
676.60 1.821665
676.70 1.82188
676.80 1.822094
676.90 1.822308
677.00 1.822522
677.10 1.822736
677.20 1.822949
677.30 1.823162
677.40 1.823375
677.50 1.823588
677.60 1.823801
677.70 1.824013
677.80 1.824225
677.90 1.824346
678.00 1.824451
678.10 1.824556
678.20 1.82466
678.30 1.824765
678.40 1.824869
678.50 1.824973
678.60 1.825077
678.70 1.825181
678.80 1.825285
678.90 1.825388
679.00 1.825492
679.10 1.825676
679.20 1.825895
679.30 1.826114
679.40 1.826333
679.50 1.826551
679.60 1.82677
679.70 1.826988
679.80 1.827205
679.90 1.827423
680.00 1.82764
680.10 1.827858
680.20 1.828075
680.30 1.828291
680.40 1.828508
680.50 1.828724
680.60 1.828941
680.70 1.829157
680.80 1.829372
680.90 1.829588
681.00 1.829803
681.10 1.830018
681.20 1.830233
681.30 1.830448
681.40 1.830663
681.50 1.830877
681.60 1.831091
681.70 1.831305
681.80 1.831519
681.90 1.831732
682.00 1.831946
682.10 1.832159
682.20 1.832372
682.30 1.832584
682.40 1.832797
682.50 1.833009
682.60 1.833221
682.70 1.833433
682.80 1.833645
682.90 1.833856
683.00 1.834067
683.10 1.834279
683.20 1.834489
683.30 1.8347
683.40 1.834911
683.50 1.835121
683.60 1.835331
683.70 1.835541
683.80 1.83575
683.90 1.83596
684.00 1.836169
684.10 1.836378
684.20 1.836587
684.30 1.836796
684.40 1.837004
684.50 1.837212
684.60 1.837421
684.70 1.837628
684.80 1.837836
684.90 1.838043
685.00 1.838251
685.10 1.838458
685.20 1.838665
685.30 1.838871
685.40 1.839078
685.50 1.839284
685.60 1.83949
685.70 1.839696
685.80 1.839902
685.90 1.840083
686.00 1.840259
686.10 1.840434
686.20 1.84061
686.30 1.840785
686.40 1.840959
686.50 1.841134
686.60 1.841309
686.70 1.841483
686.80 1.841657
686.90 1.841831
687.00 1.842005
687.10 1.842178
687.20 1.842352
687.30 1.842525
687.40 1.842698
687.50 1.842871
687.60 1.843044
687.70 1.843216
687.80 1.843388
687.90 1.843561
688.00 1.843733
688.10 1.843904
688.20 1.844076
688.30 1.844247
688.40 1.844419
688.50 1.84459
688.60 1.844761
688.70 1.844932
688.80 1.845102
688.90 1.845272
689.00 1.845443
689.10 1.845613
689.20 1.845783
689.30 1.845952
689.40 1.846122
689.50 1.846291
689.60 1.84646
689.70 1.846629
689.80 1.846798
689.90 1.846967
690.00 1.847135
690.10 1.847303
690.20 1.847471
690.30 1.847639
690.40 1.847807
690.50 1.847975
690.60 1.848142
690.70 1.848309
690.80 1.848476
690.90 1.848643
691.00 1.84881
691.10 1.848977
691.20 1.849143
691.30 1.849309
691.40 1.849475
691.50 1.849641
691.60 1.849807
691.70 1.849972
691.80 1.850137
691.90 1.850303
692.00 1.850468
692.10 1.850632
692.20 1.850797
692.30 1.850961
692.40 1.851126
692.50 1.85129
692.60 1.851454
692.70 1.851618
692.80 1.851785
692.90 1.851952
693.00 1.852118
693.10 1.852285
693.20 1.852451
693.30 1.852617
693.40 1.852783
693.50 1.852949
693.60 1.853114
693.70 1.853279
693.80 1.853445
693.90 1.85361
694.00 1.853774
694.10 1.853939
694.20 1.854104
694.30 1.854268
694.40 1.854432
694.50 1.854596
694.60 1.85476
694.70 1.854923
694.80 1.855087
694.90 1.85525
695.00 1.855413
695.10 1.855576
695.20 1.855739
695.30 1.855902
695.40 1.856064
695.50 1.856226
695.60 1.856388
695.70 1.85655
695.80 1.856712
695.90 1.856874
696.00 1.857035
696.10 1.857196
696.20 1.857357
696.30 1.857518
696.40 1.857679
696.50 1.85784
696.60 1.858014
696.70 1.85819
696.80 1.858367
696.90 1.858544
697.00 1.85872
697.10 1.858896
697.20 1.859072
697.30 1.859248
697.40 1.859424
697.50 1.859599
697.60 1.859774
697.70 1.859949
697.80 1.860124
697.90 1.860299
698.00 1.860474
698.10 1.860648
698.20 1.860822
698.30 1.860996
698.40 1.86117
698.50 1.861344
698.60 1.861517
698.70 1.861691
698.80 1.861864
698.90 1.862037
699.00 1.86221
699.10 1.86242
699.20 1.86264
699.30 1.862859
699.40 1.863078
699.50 1.863297
699.60 1.863515
699.70 1.863611
699.80 1.863701
699.90 1.863791
700.00 1.86388
700.10 1.86397
700.20 1.864059
700.30 1.864148
700.40 1.864237
700.50 1.864326
700.60 1.864414
700.70 1.864503
700.80 1.864591
700.90 1.86468
701.00 1.864768
701.10 1.864906
701.20 1.865056
701.30 1.865205
701.40 1.865355
701.50 1.865504
701.60 1.865653
701.70 1.865802
701.80 1.865951
701.90 1.8661
702.00 1.866248
702.10 1.866396
702.20 1.866545
702.30 1.866693
702.40 1.86684
702.50 1.866988
702.60 1.867175
702.70 1.867371
702.80 1.867566
702.90 1.867762
703.00 1.867957
703.10 1.868152
703.20 1.868347
703.30 1.868542
703.40 1.868736
703.50 1.868931
703.60 1.869125
703.70 1.869319
703.80 1.869513
703.90 1.869706
704.00 1.8699
704.10 1.870093
704.20 1.870169
704.30 1.870217
704.40 1.870265
704.50 1.870313
704.60 1.87036
704.70 1.870408
704.80 1.870456
704.90 1.870503
705.00 1.87055
705.10 1.870598
705.20 1.870762
705.30 1.870953
705.40 1.871145
705.50 1.871336
705.60 1.871527
705.70 1.871717
705.80 1.871908
705.90 1.872098
706.00 1.872288
706.10 1.872478
706.20 1.872668
706.30 1.872857
706.40 1.8725
706.50 1.873373
706.60 1.872843
706.70 1.873751
706.80 1.873803
706.90 1.873991
707.00 1.87418
707.10 1.874368
707.20 1.874556
707.30 1.874743
707.40 1.874737
707.50 1.874686
707.60 1.874634
707.70 1.874582
707.80 1.87453
707.90 1.874478
708.00 1.87462
708.10 1.874807
708.20 1.874993
708.30 1.87518
708.40 1.875366
708.50 1.875552
708.60 1.875738
708.70 1.875923
708.80 1.876109
708.90 1.876294
709.00 1.876407
709.10 1.876503
709.20 1.876598
709.30 1.876694
709.40 1.876789
709.50 1.876884
709.60 1.876979
709.70 1.877074
709.80 1.877169
709.90 1.877263
710.00 1.877358
710.10 1.877452
710.20 1.877547
710.30 1.877641
710.40 1.877735
710.50 1.877829
710.60 1.877956
710.70 1.878091
710.80 1.878226
710.90 1.878361
711.00 1.878496
711.10 1.87863
711.20 1.878764
711.30 1.878899
711.40 1.879033
711.50 1.879167
711.60 1.8793
711.70 1.879434
711.80 1.879567
711.90 1.879701
712.00 1.879834
712.10 1.879988
712.20 1.880148
712.30 1.880307
712.40 1.880466
712.50 1.880625
712.60 1.880784
712.70 1.880943
712.80 1.881101
712.90 1.881259
713.00 1.881417
713.10 1.881575
713.20 1.881733
713.30 1.881891
713.40 1.882048
713.50 1.882206
713.60 1.882363
713.70 1.882426
713.80 1.882299
713.90 1.882172
714.00 1.882045
714.10 1.882142
714.20 1.882291
714.30 1.882439
714.40 1.882588
714.50 1.882736
714.60 1.882884
714.70 1.883032
714.80 1.88318
714.90 1.883328
715.00 1.883475
715.10 1.883623
715.20 1.88377
715.30 1.883917
715.40 1.884064
715.50 1.884211
715.60 1.884357
715.70 1.884504
715.80 1.88465
715.90 1.884796
716.00 1.884942
716.10 1.885088
716.20 1.885234
716.30 1.885379
716.40 1.885525
716.50 1.88567
716.60 1.885762
716.70 1.885841
716.80 1.885921
716.90 1.886
717.00 1.886079
717.10 1.886158
717.20 1.886237
717.30 1.886316
717.40 1.886394
717.50 1.886473
717.60 1.886551
717.70 1.886629
717.80 1.886708
717.90 1.886786
718.00 1.886864
718.10 1.886941
718.20 1.887061
718.30 1.887204
718.40 1.887347
718.50 1.887489
718.60 1.887632
718.70 1.887774
718.80 1.887916
718.90 1.888058
719.00 1.888199
719.10 1.888341
719.20 1.888482
719.30 1.888623
719.40 1.888764
719.50 1.888905
719.60 1.889046
719.70 1.889187
719.80 1.889327
719.90 1.889468
720.00 1.889608
720.10 1.889748
720.20 1.889888
720.30 1.890027
720.40 1.890167
720.50 1.890306
720.60 1.890446
720.70 1.890153
720.80 1.889629
720.90 1.889757
721.00 1.889912
721.10 1.890066
721.20 1.890221
721.30 1.890375
721.40 1.89053
721.50 1.890684
721.60 1.890838
721.70 1.890992
721.80 1.891145
721.90 1.891299
722.00 1.891452
722.10 1.891605
722.20 1.891758
722.30 1.891911
722.40 1.892064
722.50 1.892216
722.60 1.892369
722.70 1.892439
722.80 1.892465
722.90 1.892492
723.00 1.892518
723.10 1.892544
723.20 1.89257
723.30 1.892596
723.40 1.892621
723.50 1.892647
723.60 1.892672
723.70 1.892698
723.80 1.892723
723.90 1.892749
724.00 1.892774
724.10 1.892799
724.20 1.892913
724.30 1.893075
724.40 1.893237
724.50 1.893398
724.60 1.89356
724.70 1.893721
724.80 1.893882
724.90 1.894043
725.00 1.894203
725.10 1.894364
725.20 1.894524
725.30 1.894685
725.40 1.894845
725.50 1.895005
725.60 1.895164
725.70 1.895324
725.80 1.895395
725.90 1.895418
726.00 1.895441
726.10 1.895463
726.20 1.895486
726.30 1.895509
726.40 1.895531
726.50 1.895554
726.60 1.895576
726.70 1.895599
726.80 1.895709
726.90 1.895867
727.00 1.896025
727.10 1.896183
727.20 1.896341
727.30 1.896498
727.40 1.896655
727.50 1.896812
727.60 1.896969
727.70 1.897126
727.80 1.897283
727.90 1.897439
728.00 1.897155
728.10 1.896719
728.20 1.897468
728.30 1.896946
728.40 1.896866
728.50 1.897021
728.60 1.897177
728.70 1.897333
728.80 1.897488
728.90 1.897644
729.00 1.897799
729.10 1.897954
729.20 1.898108
729.30 1.898263
729.40 1.898418
729.50 1.898572
729.60 1.898638
729.70 1.898658
729.80 1.898677
729.90 1.898696
730.00 1.898715
730.10 1.898733
730.20 1.898752
730.30 1.898771
730.40 1.898789
730.50 1.898808
730.60 1.898859
730.70 1.898928
730.80 1.898997
730.90 1.899065
731.00 1.899134
731.10 1.899202
731.20 1.89927
731.30 1.899338
731.40 1.899406
731.50 1.899474
731.60 1.899542
731.70 1.89961
731.80 1.899677
731.90 1.899745
732.00 1.899812
732.10 1.89988
732.20 1.899972
732.30 1.900078
732.40 1.900184
732.50 1.90029
732.60 1.900396
732.70 1.900501
732.80 1.900607
732.90 1.900712
733.00 1.900817
733.10 1.900923
733.20 1.901027
733.30 1.901132
733.40 1.901237
733.50 1.901342
733.60 1.901446
733.70 1.901512
733.80 1.901557
733.90 1.901602
734.00 1.901647
734.10 1.901692
734.20 1.901737
734.30 1.901782
734.40 1.901827
734.50 1.901871
734.60 1.901916
734.70 1.90196
734.80 1.902004
734.90 1.902048
735.00 1.902092
735.10 1.902136
735.20 1.90218
735.30 1.902241
735.40 1.902498
735.50 1.902755
735.60 1.903012
735.70 1.903145
735.80 1.903211
735.90 1.903277
736.00 1.903344
736.10 1.90341
736.20 1.903476
736.30 1.903542
736.40 1.903607
736.50 1.903673
736.60 1.903739
736.70 1.903804
736.80 1.903869
736.90 1.903935
737.00 1.904
737.10 1.904065
737.20 1.90413
737.30 1.904195
737.40 1.904259
737.50 1.904324
737.60 1.904388
737.70 1.904453
737.80 1.904517
737.90 1.904581
738.00 1.904645
738.10 1.904709
738.20 1.904776
738.30 1.904845
738.40 1.904913
738.50 1.904981
738.60 1.905049
738.70 1.905117
738.80 1.905185
738.90 1.905252
739.00 1.90532
739.10 1.905387
739.20 1.905455
739.30 1.905522
739.40 1.905589
739.50 1.905656
739.60 1.905723
739.70 1.90579
739.80 1.905857
739.90 1.905923
740.00 1.90599
740.10 1.906056
740.20 1.906123
740.30 1.906189
740.40 1.906255
740.50 1.906321
740.60 1.906387
740.70 1.906453
740.80 1.906518
740.90 1.906584
741.00 1.906649
741.10 1.906715
741.20 1.90678
741.30 1.906845
741.40 1.90691
741.50 1.906975
741.60 1.90704
741.70 1.907105
741.80 1.907169
741.90 1.907234
742.00 1.907298
742.10 1.907363
742.20 1.907427
742.30 1.907491
742.40 1.907555
742.50 1.907619
742.60 1.907683
742.70 1.907706
742.80 1.907695
742.90 1.907684
743.00 1.907674
743.10 1.907663
743.20 1.907652
743.30 1.907641
743.40 1.90763
743.50 1.907619
743.60 1.907608
743.70 1.90761
743.80 1.907666
743.90 1.907722
744.00 1.907777
744.10 1.907833
744.20 1.907888
744.30 1.907943
744.40 1.907999
744.50 1.908054
744.60 1.908109
744.70 1.908164
744.80 1.908218
744.90 1.908273
745.00 1.908328
745.10 1.908382
745.20 1.908436
745.30 1.908491
745.40 1.908545
745.50 1.908599
745.60 1.908653
745.70 1.908707
745.80 1.908761
745.90 1.908814
746.00 1.908868
746.10 1.908921
746.20 1.908975
746.30 1.909028
746.40 1.909081
746.50 1.909134
746.60 1.909187
746.70 1.90924
746.80 1.909293
746.90 1.909346
747.00 1.909398
747.10 1.909451
747.20 1.909503
747.30 1.909556
747.40 1.909608
747.50 1.90966
747.60 1.909712
747.70 1.909764
747.80 1.909816
747.90 1.909868
748.00 1.909919
748.10 1.909971
748.20 1.910022
748.30 1.910074
748.40 1.910125
748.50 1.910176
748.60 1.910227
748.70 1.910278
748.80 1.910329
748.90 1.91038
749.00 1.910431
749.10 1.910481
749.20 1.910532
749.30 1.910582
749.40 1.910632
749.50 1.910683
749.60 1.910733
749.70 1.910783
749.80 1.910833
749.90 1.910883
750.00 1.910932
750.10 1.910978
750.20 1.911013
750.30 1.911048
750.40 1.911083
750.50 1.911118
750.60 1.911152
750.70 1.911187
750.80 1.911221
750.90 1.911256
751.00 1.91129
751.10 1.911325
751.20 1.911359
751.30 1.911393
751.40 1.911427
751.50 1.911461
751.60 1.911495
751.70 1.911528
751.80 1.911562
751.90 1.911596
752.00 1.911629
752.10 1.911662
752.20 1.911696
752.30 1.911729
752.40 1.911762
752.50 1.911795
752.60 1.911828
752.70 1.911861
752.80 1.911894
752.90 1.911927
753.00 1.911959
753.10 1.911992
753.20 1.912024
753.30 1.912057
753.40 1.912089
753.50 1.912121
753.60 1.912153
753.70 1.912185
753.80 1.912217
753.90 1.912249
754.00 1.912281
754.10 1.912313
754.20 1.912344
754.30 1.912376
754.40 1.912407
754.50 1.912439
754.60 1.91247
754.70 1.912501
754.80 1.912533
754.90 1.912564
755.00 1.912595
755.10 1.912625
755.20 1.912656
755.30 1.912687
755.40 1.912718
755.50 1.912748
755.60 1.912779
755.70 1.912809
755.80 1.912839
755.90 1.912869
756.00 1.9129
756.10 1.91293
756.20 1.91296
756.30 1.912989
756.40 1.913019
756.50 1.913049
756.60 1.913079
756.70 1.913108
756.80 1.913138
756.90 1.913167
757.00 1.913196
757.10 1.913226
757.20 1.913255
757.30 1.913284
757.40 1.913313
757.50 1.913342
757.60 1.913369
757.70 1.913392
757.80 1.913416
757.90 1.913439
758.00 1.913462
758.10 1.913485
758.20 1.913508
758.30 1.913531
758.40 1.913554
758.50 1.913576
758.60 1.913599
758.70 1.913622
758.80 1.913644
758.90 1.913667
759.00 1.913689
759.10 1.913711
759.20 1.913733
759.30 1.913756
759.40 1.913778
759.50 1.9138
759.60 1.913821
759.70 1.913843
759.80 1.913865
759.90 1.913887
760.00 1.913908
760.10 1.91393
760.20 1.913951
760.30 1.913972
760.40 1.913994
760.50 1.914015
760.60 1.914036
760.70 1.914057
760.80 1.914078
760.90 1.914099
761.00 1.91412
761.10 1.91414
761.20 1.914161
761.30 1.914182
761.40 1.914202
761.50 1.914223
761.60 1.914243
761.70 1.914263
761.80 1.914283
761.90 1.914303
762.00 1.914323
762.10 1.914343
762.20 1.914363
762.30 1.914383
762.40 1.914403
762.50 1.914422
762.60 1.914442
762.70 1.914462
762.80 1.914481
762.90 1.9145
763.00 1.91452
763.10 1.914539
763.20 1.914558
763.30 1.914577
763.40 1.914596
763.50 1.914615
763.60 1.914634
763.70 1.914652
763.80 1.914671
763.90 1.91469
764.00 1.914708
764.10 1.914727
764.20 1.914745
764.30 1.914763
764.40 1.914781
764.50 1.9148
764.60 1.914818
764.70 1.914836
764.80 1.914854
764.90 1.914871
765.00 1.914889
765.10 1.914907
765.20 1.914913
765.30 1.91491
765.40 1.914906
765.50 1.914902
765.60 1.914899
765.70 1.914895
765.80 1.914891
765.90 1.914887
766.00 1.914883
766.10 1.914879
766.20 1.914874
766.30 1.91487
766.40 1.914866
766.50 1.914861
766.60 1.914857
766.70 1.914852
766.80 1.914848
766.90 1.914843
767.00 1.914839
767.10 1.914834
767.20 1.914829
767.30 1.914824
767.40 1.914819
767.50 1.914814
767.60 1.914809
767.70 1.914804
767.80 1.914799
767.90 1.914793
768.00 1.914788
768.10 1.914783
768.20 1.914777
768.30 1.914772
768.40 1.914766
768.50 1.914761
768.60 1.914755
768.70 1.914749
768.80 1.914743
768.90 1.914737
769.00 1.914731
769.10 1.914725
769.20 1.914719
769.30 1.914713
769.40 1.914707
769.50 1.914701
769.60 1.914695
769.70 1.914688
769.80 1.914682
769.90 1.914675
770.00 1.914669
770.10 1.914662
770.20 1.914655
770.30 1.914649
770.40 1.914642
770.50 1.914635
770.60 1.914628
770.70 1.914621
770.80 1.914614
770.90 1.914607
771.00 1.9146
771.10 1.914593
771.20 1.914585
771.30 1.914578
771.40 1.91457
771.50 1.914563
771.60 1.914555
771.70 1.914548
771.80 1.91454
771.90 1.914533
772.00 1.914525
772.10 1.914517
772.20 1.914509
772.30 1.914501
772.40 1.914493
772.50 1.914485
772.60 1.914477
772.70 1.914469
772.80 1.91446
772.90 1.914463
773.00 1.914465
773.10 1.914468
773.20 1.91447
773.30 1.914472
773.40 1.914474
773.50 1.914476
773.60 1.914478
773.70 1.91448
773.80 1.914482
773.90 1.914484
774.00 1.914486
774.10 1.914487
774.20 1.914489
774.30 1.91449
774.40 1.914492
774.50 1.914493
774.60 1.914495
774.70 1.914496
774.80 1.914497
774.90 1.914498
775.00 1.914499
775.10 1.914501
775.20 1.914501
775.30 1.914502
775.40 1.914503
775.50 1.914504
775.60 1.914505
775.70 1.914505
775.80 1.914506
775.90 1.914506
776.00 1.914507
776.10 1.914507
776.20 1.914508
776.30 1.914508
776.40 1.914508
776.50 1.914508
776.60 1.914508
776.70 1.914508
776.80 1.914508
776.90 1.914508
777.00 1.914508
777.10 1.914508
777.20 1.914507
777.30 1.914507
777.40 1.914507
777.50 1.914506
777.60 1.914506
777.70 1.914505
777.80 1.914504
777.90 1.914503
778.00 1.914503
778.10 1.914502
778.20 1.914501
778.30 1.9145
778.40 1.914499
778.50 1.914498
778.60 1.914496
778.70 1.914495
778.80 1.914494
778.90 1.914493
779.00 1.914491
779.10 1.91449
779.20 1.914488
779.30 1.914486
779.40 1.914485
779.50 1.914483
779.60 1.914481
779.70 1.914479
779.80 1.914477
779.90 1.914475
780.00 1.914473
780.10 1.914471
780.20 1.914469
780.30 1.914467
780.40 1.914464
780.50 1.914462
780.60 1.914444
780.70 1.91442
780.80 1.914396
780.90 1.914372
781.00 1.914348
781.10 1.914324
781.20 1.9143
781.30 1.914275
781.40 1.914251
781.50 1.914227
781.60 1.914202
781.70 1.914178
781.80 1.914153
781.90 1.914129
782.00 1.914104
782.10 1.914079
782.20 1.914055
782.30 1.91403
782.40 1.914005
782.50 1.91398
782.60 1.913955
782.70 1.91393
782.80 1.913905
782.90 1.91388
783.00 1.913855
783.10 1.91383
783.20 1.913805
783.30 1.913779
783.40 1.913754
783.50 1.913729
783.60 1.913703
783.70 1.913678
783.80 1.913652
783.90 1.913627
784.00 1.913601
784.10 1.913575
784.20 1.91355
784.30 1.913524
784.40 1.913498
784.50 1.913472
784.60 1.913447
784.70 1.913424
784.80 1.913402
784.90 1.913379
785.00 1.913356
785.10 1.913333
785.20 1.91331
785.30 1.913287
785.40 1.913264
785.50 1.913241
785.60 1.913218
785.70 1.913194
785.80 1.913171
785.90 1.913148
786.00 1.913124
786.10 1.913101
786.20 1.913077
786.30 1.913054
786.40 1.91303
786.50 1.913007
786.60 1.912983
786.70 1.912959
786.80 1.912936
786.90 1.912912
787.00 1.912888
787.10 1.912864
787.20 1.91284
787.30 1.912816
787.40 1.912792
787.50 1.912768
787.60 1.912743
787.70 1.912719
787.80 1.912695
787.90 1.912671
788.00 1.912646
788.10 1.912622
788.20 1.912597
788.30 1.912573
788.40 1.912534
788.50 1.912489
788.60 1.912443
788.70 1.912398
788.80 1.912352
788.90 1.912306
789.00 1.912261
789.10 1.912215
789.20 1.912169
789.30 1.912123
789.40 1.912077
789.50 1.912031
789.60 1.911985
789.70 1.911939
789.80 1.911893
789.90 1.911847
790.00 1.911801
790.10 1.911755
790.20 1.911709
790.30 1.911663
790.40 1.911616
790.50 1.91157
790.60 1.911524
790.70 1.911478
790.80 1.911431
790.90 1.911385
791.00 1.911338
791.10 1.911292
791.20 1.911245
791.30 1.911199
791.40 1.911152
791.50 1.911105
791.60 1.911059
791.70 1.911012
791.80 1.910965
791.90 1.910918
792.00 1.910871
792.10 1.910824
792.20 1.910778
792.30 1.910738
792.40 1.91072
792.50 1.910702
792.60 1.910684
792.70 1.910666
792.80 1.910648
792.90 1.91063
793.00 1.910612
793.10 1.910593
793.20 1.910575
793.30 1.910557
793.40 1.910538
793.50 1.91052
793.60 1.910502
793.70 1.910483
793.80 1.910464
793.90 1.910446
794.00 1.910427
794.10 1.910408
794.20 1.91039
794.30 1.910371
794.40 1.910352
794.50 1.910333
794.60 1.910314
794.70 1.910295
794.80 1.910276
794.90 1.910257
795.00 1.910237
795.10 1.910218
795.20 1.910199
795.30 1.910179
795.40 1.91016
795.50 1.910141
795.60 1.910121
795.70 1.910102
795.80 1.910082
795.90 1.910062
796.00 1.910043
796.10 1.910023
796.20 1.910003
796.30 1.909955
796.40 1.909902
796.50 1.909849
796.60 1.909796
796.70 1.909743
796.80 1.90969
796.90 1.909637
797.00 1.909584
797.10 1.909531
797.20 1.909477
797.30 1.909424
797.40 1.909371
797.50 1.909318
797.60 1.909264
797.70 1.909211
797.80 1.909157
797.90 1.909104
798.00 1.90905
798.10 1.908997
798.20 1.908943
798.30 1.90889
798.40 1.908836
798.50 1.908782
798.60 1.908729
798.70 1.908675
798.80 1.908621
798.90 1.908567
799.00 1.908514
799.10 1.90846
799.20 1.908406
799.30 1.908352
799.40 1.908298
799.50 1.908244
799.60 1.90819
799.70 1.908136
799.80 1.908082
799.90 1.908028
800.00 1.907974
800.10 1.907919
800.20 1.907865
800.30 1.907811
800.40 1.907757
800.50 1.907702
800.60 1.907648
800.70 1.907594
800.80 1.907539
800.90 1.907485
801.00 1.90743
801.10 1.907376
801.20 1.907321
801.30 1.907267
801.40 1.907212
801.50 1.907157
801.60 1.907103
801.70 1.907048
801.80 1.906993
801.90 1.906938
802.00 1.906884
802.10 1.906829
802.20 1.906774
802.30 1.906719
802.40 1.906664
802.50 1.906609
802.60 1.906554
802.70 1.906499
802.80 1.906444
802.90 1.906389
803.00 1.906334
803.10 1.906279
803.20 1.906224
803.30 1.906168
803.40 1.906113
803.50 1.906058
803.60 1.906002
803.70 1.905947
803.80 1.905892
803.90 1.905836
804.00 1.905781
804.10 1.905725
804.20 1.905669
804.30 1.905609
804.40 1.90555
804.50 1.90549
804.60 1.90543
804.70 1.90537
804.80 1.90531
804.90 1.905251
805.00 1.905191
805.10 1.905131
805.20 1.905071
805.30 1.905011
805.40 1.904951
805.50 1.904891
805.60 1.904831
805.70 1.904771
805.80 1.904711
805.90 1.90465
806.00 1.90459
806.10 1.90453
806.20 1.90447
806.30 1.904409
806.40 1.904349
806.50 1.904289
806.60 1.904228
806.70 1.904168
806.80 1.904108
806.90 1.904047
807.00 1.903987
807.10 1.903926
807.20 1.903866
807.30 1.903805
807.40 1.903745
807.50 1.903684
807.60 1.903623
807.70 1.903563
807.80 1.903502
807.90 1.903441
808.00 1.903381
808.10 1.90332
808.20 1.903259
808.30 1.903198
808.40 1.903137
808.50 1.903076
808.60 1.903015
808.70 1.902954
808.80 1.902893
808.90 1.902832
809.00 1.902771
809.10 1.90271
809.20 1.902649
809.30 1.902588
809.40 1.902527
809.50 1.902466
809.60 1.902405
809.70 1.902343
809.80 1.902282
809.90 1.902221
810.00 1.90216
810.10 1.902098
810.20 1.902037
810.30 1.901975
810.40 1.901914
810.50 1.901853
810.60 1.901791
810.70 1.90173
810.80 1.901668
810.90 1.901606
811.00 1.901545
811.10 1.901483
811.20 1.901422
811.30 1.90136
811.40 1.901298
811.50 1.901237
811.60 1.901175
811.70 1.901113
811.80 1.901051
811.90 1.900989
812.00 1.900928
812.10 1.900866
812.20 1.900804
812.30 1.900739
812.40 1.900675
812.50 1.90061
812.60 1.900545
812.70 1.90048
812.80 1.900415
812.90 1.90035
813.00 1.900285
813.10 1.90022
813.20 1.900155
813.30 1.90009
813.40 1.900024
813.50 1.899959
813.60 1.899894
813.70 1.899829
813.80 1.899764
813.90 1.899698
814.00 1.899633
814.10 1.899568
814.20 1.899502
814.30 1.899437
814.40 1.899372
814.50 1.899306
814.60 1.899241
814.70 1.899175
814.80 1.89911
814.90 1.899044
815.00 1.898979
815.10 1.898913
815.20 1.898848
815.30 1.898782
815.40 1.898716
815.50 1.898651
815.60 1.898585
815.70 1.898519
815.80 1.898454
815.90 1.898388
816.00 1.898322
816.10 1.898256
816.20 1.89819
816.30 1.898125
816.40 1.898059
816.50 1.897993
816.60 1.897927
816.70 1.897861
816.80 1.897795
816.90 1.897729
817.00 1.897663
817.10 1.897597
817.20 1.897531
817.30 1.897465
817.40 1.897399
817.50 1.897332
817.60 1.897266
817.70 1.8972
817.80 1.897134
817.90 1.897068
818.00 1.897001
818.10 1.896935
818.20 1.896869
818.30 1.896802
818.40 1.896736
818.50 1.89667
818.60 1.896603
818.70 1.896537
818.80 1.89647
818.90 1.896404
819.00 1.896337
819.10 1.896271
819.20 1.896204
819.30 1.896126
819.40 1.89604
819.50 1.895955
819.60 1.895869
819.70 1.895783
819.80 1.895697
819.90 1.895612
820.00 1.895526
820.10 1.895406
820.20 1.895355
820.30 1.895355
820.40 1.895318
820.50 1.895254
820.60 1.89519
820.70 1.895126
820.80 1.895062
820.90 1.894998
821.00 1.894934
821.10 1.894869
821.20 1.894805
821.30 1.894741
821.40 1.894677
821.50 1.894612
821.60 1.894548
821.70 1.894484
821.80 1.894419
821.90 1.894355
822.00 1.89429
822.10 1.894226
822.20 1.894162
822.30 1.894097
822.40 1.894033
822.50 1.893968
822.60 1.893903
822.70 1.893839
822.80 1.893774
822.90 1.89371
823.00 1.893645
823.10 1.89358
823.20 1.893516
823.30 1.893451
823.40 1.893386
823.50 1.893321
823.60 1.893257
823.70 1.893192
823.80 1.893127
823.90 1.893062
824.00 1.892997
824.10 1.892932
824.20 1.892867
824.30 1.892802
824.40 1.892737
824.50 1.892672
824.60 1.892607
824.70 1.892542
824.80 1.892477
824.90 1.892412
825.00 1.892347
825.10 1.892282
825.20 1.892216
825.30 1.892151
825.40 1.892086
825.50 1.892021
825.60 1.891955
825.70 1.89189
825.80 1.891825
825.90 1.891759
826.00 1.891694
826.10 1.891629
826.20 1.891563
826.30 1.891481
826.40 1.891388
826.50 1.891295
826.60 1.891202
826.70 1.891109
826.80 1.891017
826.90 1.890924
827.00 1.890831
827.10 1.890738
827.20 1.890645
827.30 1.890552
827.40 1.890459
827.50 1.890366
827.60 1.890273
827.70 1.890179
827.80 1.890086
827.90 1.889993
828.00 1.8899
828.10 1.889807
828.20 1.889714
828.30 1.889621
828.40 1.889528
828.50 1.889435
828.60 1.889343
828.70 1.889254
828.80 1.889164
828.90 1.889074
829.00 1.888984
829.10 1.888894
829.20 1.888804
829.30 1.888714
829.40 1.888624
829.50 1.888534
829.60 1.888444
829.70 1.888354
829.80 1.888264
829.90 1.888174
830.00 1.888084
830.10 1.887994
830.20 1.887904
830.30 1.887814
830.40 1.887724
830.50 1.887633
830.60 1.887543
830.70 1.887453
830.80 1.887363
830.90 1.887273
831.00 1.887183
831.10 1.887093
831.20 1.887002
831.30 1.886912
831.40 1.886822
831.50 1.886732
831.60 1.886642
831.70 1.886551
831.80 1.886461
831.90 1.886371
832.00 1.886281
832.10 1.88619
832.20 1.8861
832.30 1.88601
832.40 1.885919
832.50 1.885829
832.60 1.885739
832.70 1.885648
832.80 1.885558
832.90 1.885468
833.00 1.885377
833.10 1.885287
833.20 1.885197
833.30 1.885106
833.40 1.885016
833.50 1.884925
833.60 1.884835
833.70 1.884744
833.80 1.884654
833.90 1.884563
834.00 1.884473
834.10 1.884382
834.20 1.884292
834.30 1.884201
834.40 1.884111
834.50 1.88402
834.60 1.88393
834.70 1.883839
834.80 1.883749
834.90 1.883658
835.00 1.883567
835.10 1.883477
835.20 1.883386
835.30 1.883296
835.40 1.883205
835.50 1.883114
835.60 1.883024
835.70 1.882933
835.80 1.882842
835.90 1.882752
836.00 1.882661
836.10 1.88257
836.20 1.882479
836.30 1.882389
836.40 1.882298
836.50 1.882207
836.60 1.882116
836.70 1.882026
836.80 1.881935
836.90 1.881833
837.00 1.881727
837.10 1.88162
837.20 1.881513
837.30 1.881407
837.40 1.8813
837.50 1.881194
837.60 1.881087
837.70 1.88098
837.80 1.880874
837.90 1.880767
838.00 1.88066
838.10 1.880554
838.20 1.880447
838.30 1.88034
838.40 1.880234
838.50 1.880127
838.60 1.88002
838.70 1.879914
838.80 1.879807
838.90 1.8797
839.00 1.879594
839.10 1.879487
839.20 1.87938
839.30 1.879274
839.40 1.879167
839.50 1.87906
839.60 1.878954
839.70 1.878847
839.80 1.87874
839.90 1.878634
840.00 1.878527
840.10 1.87842
840.20 1.878314
840.30 1.878207
840.40 1.8781
840.50 1.877994
840.60 1.877887
840.70 1.87778
840.80 1.877673
840.90 1.877567
841.00 1.87746
841.10 1.877353
841.20 1.877246
841.30 1.87714
841.40 1.877033
841.50 1.876926
841.60 1.876819
841.70 1.876712
841.80 1.876606
841.90 1.876499
842.00 1.876392
842.10 1.876285
842.20 1.876178
842.30 1.876071
842.40 1.875965
842.50 1.875858
842.60 1.875751
842.70 1.875644
842.80 1.875537
842.90 1.87543
843.00 1.875324
843.10 1.875217
843.20 1.87511
843.30 1.875003
843.40 1.874896
843.50 1.874789
843.60 1.874683
843.70 1.874576
843.80 1.874469
843.90 1.874362
844.00 1.874255
844.10 1.874148
844.20 1.874041
844.30 1.873935
844.40 1.873828
844.50 1.873721
844.60 1.873614
844.70 1.873507
844.80 1.8734
844.90 1.873293
845.00 1.873186
845.10 1.87308
845.20 1.872973
845.30 1.872874
845.40 1.872776
845.50 1.872678
845.60 1.87258
845.70 1.872481
845.80 1.872383
845.90 1.872285
846.00 1.872186
846.10 1.872088
846.20 1.87199
846.30 1.871892
846.40 1.871793
846.50 1.871695
846.60 1.871597
846.70 1.871498
846.80 1.8714
846.90 1.871302
847.00 1.871203
847.10 1.871105
847.20 1.871006
847.30 1.870908
847.40 1.87081
847.50 1.870711
847.60 1.870613
847.70 1.870515
847.80 1.870416
847.90 1.870318
848.00 1.870219
848.10 1.870121
848.20 1.870023
848.30 1.869924
848.40 1.869826
848.50 1.869727
848.60 1.869629
848.70 1.86953
848.80 1.869432
848.90 1.869333
849.00 1.869235
849.10 1.869136
849.20 1.869038
849.30 1.86894
849.40 1.868841
849.50 1.868743
849.60 1.868644
849.70 1.868546
849.80 1.868447
849.90 1.868349
850.00 1.86825
850.10 1.868151
850.20 1.868053
850.30 1.867954
850.40 1.867856
850.50 1.867757
850.60 1.867659
850.70 1.86756
850.80 1.867462
850.90 1.867363
851.00 1.867264
851.10 1.867166
851.20 1.867067
851.30 1.866969
851.40 1.86687
851.50 1.866772
851.60 1.866673
851.70 1.866574
851.80 1.866476
851.90 1.866377
852.00 1.866278
852.10 1.86618
852.20 1.866081
852.30 1.865983
852.40 1.865884
852.50 1.865785
852.60 1.865687
852.70 1.865588
852.80 1.865489
852.90 1.865391
853.00 1.865292
853.10 1.865193
853.20 1.865095
853.30 1.864996
853.40 1.864897
853.50 1.864799
853.60 1.8647
853.70 1.864594
853.80 1.86448
853.90 1.864367
854.00 1.864253
854.10 1.86414
854.20 1.864026
854.30 1.863912
854.40 1.863799
854.50 1.863685
854.60 1.863572
854.70 1.863458
854.80 1.863345
854.90 1.863231
855.00 1.863118
855.10 1.863004
855.20 1.86289
855.30 1.862777
855.40 1.862663
855.50 1.86255
855.60 1.862436
855.70 1.862323
855.80 1.862209
855.90 1.862096
856.00 1.861982
856.10 1.861869
856.20 1.861755
856.30 1.861642
856.40 1.861528
856.50 1.861414
856.60 1.861301
856.70 1.861187
856.80 1.861074
856.90 1.86096
857.00 1.860847
857.10 1.860733
857.20 1.86062
857.30 1.860506
857.40 1.860393
857.50 1.860279
857.60 1.860166
857.70 1.860052
857.80 1.859939
857.90 1.859825
858.00 1.859694
858.10 1.859557
858.20 1.859421
858.30 1.859285
858.40 1.859148
858.50 1.859012
858.60 1.858876
858.70 1.85874
858.80 1.858603
858.90 1.858467
859.00 1.858331
859.10 1.858195
859.20 1.858058
859.30 1.857922
859.40 1.857786
859.50 1.85765
859.60 1.857514
859.70 1.857378
859.80 1.857242
859.90 1.857106
860.00 1.856969
860.10 1.856833
860.20 1.856697
860.30 1.856561
860.40 1.856425
860.50 1.856289
860.60 1.856153
860.70 1.856017
860.80 1.855881
860.90 1.855745
861.00 1.855609
861.10 1.855473
861.20 1.855337
861.30 1.855201
861.40 1.855066
861.50 1.85493
861.60 1.854794
861.70 1.854658
861.80 1.854522
861.90 1.854386
862.00 1.85425
862.10 1.854115
862.20 1.853981
862.30 1.853865
862.40 1.853749
862.50 1.853632
862.60 1.853516
862.70 1.8534
862.80 1.853283
862.90 1.853167
863.00 1.853051
863.10 1.852934
863.20 1.852818
863.30 1.852702
863.40 1.852586
863.50 1.852469
863.60 1.852353
863.70 1.852237
863.80 1.852121
863.90 1.852004
864.00 1.851888
864.10 1.851772
864.20 1.851656
864.30 1.851539
864.40 1.851423
864.50 1.851307
864.60 1.851191
864.70 1.851075
864.80 1.850958
864.90 1.850842
865.00 1.850726
865.10 1.85061
865.20 1.850494
865.30 1.850377
865.40 1.850261
865.50 1.850145
865.60 1.850029
865.70 1.849913
865.80 1.849796
865.90 1.84968
866.00 1.849564
866.10 1.849448
866.20 1.849332
866.30 1.849216
866.40 1.8491
866.50 1.848983
866.60 1.848867
866.70 1.848751
866.80 1.848635
866.90 1.848519
867.00 1.848403
867.10 1.848287
867.20 1.848171
867.30 1.848054
867.40 1.847938
867.50 1.847822
867.60 1.847706
867.70 1.84759
867.80 1.847474
867.90 1.847358
868.00 1.847242
868.10 1.847126
868.20 1.84701
868.30 1.846894
868.40 1.846778
868.50 1.846662
868.60 1.846546
868.70 1.846429
868.80 1.846313
868.90 1.846197
869.00 1.846081
869.10 1.845965
869.20 1.845849
869.30 1.845733
869.40 1.845617
869.50 1.845501
869.60 1.845385
869.70 1.845269
869.80 1.845153
869.90 1.845037
870.00 1.844921
870.10 1.844805
870.20 1.844689
870.30 1.844573
870.40 1.844457
870.50 1.844342
870.60 1.844226
870.70 1.84411
870.80 1.843994
870.90 1.843855
871.00 1.843715
871.10 1.843574
871.20 1.843433
871.30 1.843293
871.40 1.843152
871.50 1.843011
871.60 1.842871
871.70 1.84273
871.80 1.84259
871.90 1.842449
872.00 1.842309
872.10 1.842168
872.20 1.842027
872.30 1.841887
872.40 1.841746
872.50 1.841606
872.60 1.841466
872.70 1.841325
872.80 1.841185
872.90 1.841044
873.00 1.840904
873.10 1.840764
873.20 1.840623
873.30 1.840483
873.40 1.840343
873.50 1.840202
873.60 1.840062
873.70 1.839922
873.80 1.839781
873.90 1.839641
874.00 1.839501
874.10 1.839361
874.20 1.83922
874.30 1.83908
874.40 1.83894
874.50 1.8388
874.60 1.83866
874.70 1.83852
874.80 1.83838
874.90 1.83824
875.00 1.838099
875.10 1.837959
875.20 1.837819
875.30 1.837679
875.40 1.837539
875.50 1.837399
875.60 1.837259
875.70 1.837119
875.80 1.83698
875.90 1.83684
876.00 1.8367
876.10 1.83656
876.20 1.83642
876.30 1.83628
876.40 1.83614
876.50 1.836
876.60 1.835861
876.70 1.835721
876.80 1.835581
876.90 1.835441
877.00 1.835301
877.10 1.835162
877.20 1.835022
877.30 1.834882
877.40 1.834743
877.50 1.834603
877.60 1.834463
877.70 1.834324
877.80 1.834184
877.90 1.834044
878.00 1.833905
878.10 1.833765
878.20 1.833626
878.30 1.833486
878.40 1.833347
878.50 1.833207
878.60 1.833068
878.70 1.832928
878.80 1.832789
878.90 1.832649
879.00 1.83251
879.10 1.83237
879.20 1.832231
879.30 1.832092
879.40 1.831952
879.50 1.831813
879.60 1.831689
879.70 1.831568
879.80 1.831447
879.90 1.831326
880.00 1.831205
880.10 1.831084
880.20 1.830963
880.30 1.830842
880.40 1.830721
880.50 1.8306
880.60 1.830479
880.70 1.830358
880.80 1.830237
880.90 1.830116
881.00 1.829996
881.10 1.829875
881.20 1.829754
881.30 1.829633
881.40 1.829512
881.50 1.829391
881.60 1.82927
881.70 1.829149
881.80 1.829029
881.90 1.828908
882.00 1.828787
882.10 1.828666
882.20 1.828545
882.30 1.828425
882.40 1.828304
882.50 1.828183
882.60 1.828062
882.70 1.827942
882.80 1.827821
882.90 1.8277
883.00 1.827579
883.10 1.827459
883.20 1.827338
883.30 1.827217
883.40 1.827096
883.50 1.826976
883.60 1.826855
883.70 1.826734
883.80 1.826614
883.90 1.826493
884.00 1.826355
884.10 1.826213
884.20 1.826072
884.30 1.825931
884.40 1.825789
884.50 1.825648
884.60 1.825506
884.70 1.825365
884.80 1.825224
884.90 1.825082
885.00 1.824941
885.10 1.8248
885.20 1.824658
885.30 1.824517
885.40 1.824376
885.50 1.824235
885.60 1.824093
885.70 1.823952
885.80 1.823811
885.90 1.82367
886.00 1.823529
886.10 1.823388
886.20 1.823246
886.30 1.823105
886.40 1.822964
886.50 1.822823
886.60 1.822682
886.70 1.822541
886.80 1.8224
886.90 1.822259
887.00 1.822118
887.10 1.821977
887.20 1.821836
887.30 1.821695
887.40 1.821554
887.50 1.821414
887.60 1.821273
887.70 1.821132
887.80 1.820991
887.90 1.82085
888.00 1.820709
888.10 1.820569
888.20 1.820428
888.30 1.820287
888.40 1.820135
888.50 1.819981
888.60 1.819828
888.70 1.819674
888.80 1.819521
888.90 1.819367
889.00 1.819214
889.10 1.81906
889.20 1.818907
889.30 1.818753
889.40 1.8186
889.50 1.818446
889.60 1.818293
889.70 1.818139
889.80 1.817986
889.90 1.817833
890.00 1.817679
890.10 1.817526
890.20 1.817373
890.30 1.81722
890.40 1.817066
890.50 1.816913
890.60 1.81676
890.70 1.816607
890.80 1.816454
890.90 1.816301
891.00 1.816148
891.10 1.815995
891.20 1.815842
891.30 1.815689
891.40 1.815536
891.50 1.815383
891.60 1.81523
891.70 1.815077
891.80 1.814924
891.90 1.814771
892.00 1.814618
892.10 1.814465
892.20 1.814313
892.30 1.81416
892.40 1.814007
892.50 1.813854
892.60 1.813702
892.70 1.813549
892.80 1.813396
892.90 1.813244
893.00 1.813091
893.10 1.812938
893.20 1.812786
893.30 1.812633
893.40 1.812481
893.50 1.812328
893.60 1.812176
893.70 1.812023
893.80 1.811871
893.90 1.811719
894.00 1.811566
894.10 1.811414
894.20 1.811261
894.30 1.811109
894.40 1.810957
894.50 1.810805
894.60 1.810652
894.70 1.8105
894.80 1.810348
894.90 1.810196
895.00 1.810044
895.10 1.809891
895.20 1.809739
895.30 1.809587
895.40 1.809435
895.50 1.809283
895.60 1.809131
895.70 1.808979
895.80 1.808827
895.90 1.808675
896.00 1.808523
896.10 1.808371
896.20 1.808219
896.30 1.808068
896.40 1.807916
896.50 1.807764
896.60 1.807612
896.70 1.80746
896.80 1.807309
896.90 1.807157
897.00 1.807005
897.10 1.806853
897.20 1.806702
897.30 1.806558
897.40 1.806414
897.50 1.80627
897.60 1.806125
897.70 1.805981
897.80 1.805837
897.90 1.805693
898.00 1.805549
898.10 1.805405
898.20 1.805261
898.30 1.805117
898.40 1.804973
898.50 1.804829
898.60 1.804685
898.70 1.804541
898.80 1.804397
898.90 1.804254
899.00 1.80411
899.10 1.803966
899.20 1.803822
899.30 1.803678
899.40 1.803535
899.50 1.803391
899.60 1.803247
899.70 1.803103
899.80 1.80296
899.90 1.802816
900.00 1.802672
900.10 1.802529
900.20 1.802385
900.30 1.802241
900.40 1.802098
900.50 1.801954
900.60 1.801811
900.70 1.801667
900.80 1.801524
900.90 1.80138
901.00 1.801237
901.10 1.801093
901.20 1.80095
901.30 1.800806
901.40 1.800663
901.50 1.80052
901.60 1.800376
901.70 1.800229
901.80 1.800066
901.90 1.799903
902.00 1.799741
902.10 1.799578
902.20 1.799415
902.30 1.799252
902.40 1.799089
902.50 1.798926
902.60 1.798763
902.70 1.798601
902.80 1.798438
902.90 1.798275
903.00 1.798113
903.10 1.79795
903.20 1.797787
903.30 1.797625
903.40 1.797462
903.50 1.7973
903.60 1.797137
903.70 1.796975
903.80 1.796812
903.90 1.79665
904.00 1.796488
904.10 1.796325
904.20 1.796163
904.30 1.796001
904.40 1.795838
904.50 1.795676
904.60 1.795514
904.70 1.795352
904.80 1.79519
904.90 1.795027
905.00 1.794865
905.10 1.794703
905.20 1.794541
905.30 1.794379
905.40 1.794217
905.50 1.794055
905.60 1.793893
905.70 1.793731
905.80 1.793569
905.90 1.793408
906.00 1.793246
906.10 1.793084
906.20 1.792928
906.30 1.792783
906.40 1.792638
906.50 1.792493
906.60 1.792349
906.70 1.792204
906.80 1.792059
906.90 1.791915
907.00 1.79177
907.10 1.791625
907.20 1.791481
907.30 1.791336
907.40 1.791192
907.50 1.791047
907.60 1.790903
907.70 1.790758
907.80 1.790614
907.90 1.790469
908.00 1.790325
908.10 1.79018
908.20 1.790036
908.30 1.789892
908.40 1.789747
908.50 1.789603
908.60 1.789459
908.70 1.789314
908.80 1.78917
908.90 1.789026
909.00 1.788882
909.10 1.788737
909.20 1.788593
909.30 1.788449
909.40 1.788305
909.50 1.788161
909.60 1.788017
909.70 1.787873
909.80 1.787729
909.90 1.787585
910.00 1.787441
910.10 1.787297
910.20 1.787153
910.30 1.787009
910.40 1.786865
910.50 1.786721
910.60 1.786577
910.70 1.786433
910.80 1.78627
910.90 1.786107
911.00 1.785944
911.10 1.785781
911.20 1.785618
911.30 1.785455
911.40 1.785293
911.50 1.78513
911.60 1.784967
911.70 1.784804
911.80 1.784642
911.90 1.784479
912.00 1.784316
912.10 1.784154
912.20 1.783991
912.30 1.783829
912.40 1.783666
912.50 1.783504
912.60 1.783341
912.70 1.783179
912.80 1.783016
912.90 1.782854
913.00 1.782692
913.10 1.782529
913.20 1.782367
913.30 1.782205
913.40 1.782043
913.50 1.78188
913.60 1.781718
913.70 1.781556
913.80 1.781394
913.90 1.781232
914.00 1.78107
914.10 1.780908
914.20 1.780746
914.30 1.780584
914.40 1.780422
914.50 1.78026
914.60 1.780098
914.70 1.779936
914.80 1.779774
914.90 1.779612
915.00 1.779451
915.10 1.779289
915.20 1.779127
915.30 1.778964
915.40 1.7788
915.50 1.778636
915.60 1.778472
915.70 1.778309
915.80 1.778145
915.90 1.777981
916.00 1.777817
916.10 1.777654
916.20 1.77749
916.30 1.777326
916.40 1.777163
916.50 1.776999
916.60 1.776836
916.70 1.776672
916.80 1.776509
916.90 1.776345
917.00 1.776182
917.10 1.776018
917.20 1.775855
917.30 1.775692
917.40 1.775528
917.50 1.775365
917.60 1.775202
917.70 1.775038
917.80 1.774875
917.90 1.774712
918.00 1.774549
918.10 1.774386
918.20 1.774223
918.30 1.77406
918.40 1.773897
918.50 1.773734
918.60 1.773571
918.70 1.773408
918.80 1.773245
918.90 1.773082
919.00 1.772919
919.10 1.772756
919.20 1.772594
919.30 1.772431
919.40 1.772268
919.50 1.772105
919.60 1.771943
919.70 1.77178
919.80 1.771617
919.90 1.771455
920.00 1.771292
920.10 1.77113
920.20 1.770967
920.30 1.770805
920.40 1.770642
920.50 1.77048
920.60 1.770317
920.70 1.770155
920.80 1.769993
920.90 1.76983
921.00 1.769668
921.10 1.769506
921.20 1.769344
921.30 1.769181
921.40 1.769019
921.50 1.768857
921.60 1.768695
921.70 1.768533
921.80 1.768371
921.90 1.768209
922.00 1.768047
922.10 1.767885
922.20 1.767723
922.30 1.767561
922.40 1.767399
922.50 1.767237
922.60 1.767076
922.70 1.766914
922.80 1.766752
922.90 1.76659
923.00 1.766429
923.10 1.766267
923.20 1.766105
923.30 1.765944
923.40 1.765782
923.50 1.765621
923.60 1.765459
923.70 1.765298
923.80 1.765136
923.90 1.764975
924.00 1.764813
924.10 1.764652
924.20 1.76449
924.30 1.764329
924.40 1.764167
924.50 1.764004
924.60 1.763841
924.70 1.763677
924.80 1.763514
924.90 1.76335
925.00 1.763187
925.10 1.763024
925.20 1.76286
925.30 1.762697
925.40 1.762534
925.50 1.762371
925.60 1.762208
925.70 1.762045
925.80 1.761882
925.90 1.761718
926.00 1.761555
926.10 1.761392
926.20 1.761229
926.30 1.761067
926.40 1.760904
926.50 1.760741
926.60 1.760578
926.70 1.760415
926.80 1.760252
926.90 1.76009
927.00 1.759927
927.10 1.759764
927.20 1.759601
927.30 1.759439
927.40 1.759276
927.50 1.759114
927.60 1.758951
927.70 1.758788
927.80 1.758626
927.90 1.758464
928.00 1.758301
928.10 1.758139
928.20 1.757976
928.30 1.757814
928.40 1.757652
928.50 1.757489
928.60 1.757327
928.70 1.757165
928.80 1.757003
928.90 1.75684
929.00 1.756678
929.10 1.756499
929.20 1.756319
929.30 1.756139
929.40 1.755959
929.50 1.755779
929.60 1.755599
929.70 1.755419
929.80 1.755239
929.90 1.755059
930.00 1.754879
930.10 1.7547
930.20 1.75452
930.30 1.75434
930.40 1.754161
930.50 1.753981
930.60 1.753801
930.70 1.753622
930.80 1.753442
930.90 1.753263
931.00 1.753084
931.10 1.752904
931.20 1.752725
931.30 1.752546
931.40 1.752366
931.50 1.752187
931.60 1.752008
931.70 1.751829
931.80 1.751649
931.90 1.75147
932.00 1.751291
932.10 1.751112
932.20 1.750933
932.30 1.750754
932.40 1.750575
932.50 1.750397
932.60 1.750218
932.70 1.750039
932.80 1.74986
932.90 1.749681
933.00 1.749503
933.10 1.749324
933.20 1.749145
933.30 1.748967
933.40 1.748788
933.50 1.74861
933.60 1.748431
933.70 1.748258
933.80 1.748087
933.90 1.747915
934.00 1.747744
934.10 1.747572
934.20 1.747401
934.30 1.747229
934.40 1.747058
934.50 1.746887
934.60 1.746716
934.70 1.746544
934.80 1.746373
934.90 1.746202
935.00 1.746031
935.10 1.74586
935.20 1.745689
935.30 1.745518
935.40 1.745347
935.50 1.745176
935.60 1.745005
935.70 1.744834
935.80 1.744663
935.90 1.744492
936.00 1.744322
936.10 1.744151
936.20 1.74398
936.30 1.74381
936.40 1.743639
936.50 1.743468
936.60 1.743298
936.70 1.743127
936.80 1.742957
936.90 1.742786
937.00 1.742616
937.10 1.742445
937.20 1.742275
937.30 1.742105
937.40 1.741934
937.50 1.741764
937.60 1.741594
937.70 1.741423
937.80 1.741253
937.90 1.741083
938.00 1.740913
938.10 1.740743
938.20 1.740573
938.30 1.740403
938.40 1.740233
938.50 1.740063
938.60 1.739893
938.70 1.739723
938.80 1.739553
938.90 1.739383
939.00 1.739214
939.10 1.739044
939.20 1.738874
939.30 1.738704
939.40 1.738535
939.50 1.738365
939.60 1.738196
939.70 1.738026
939.80 1.737856
939.90 1.737687
940.00 1.737518
940.10 1.737348
940.20 1.737179
940.30 1.737009
940.40 1.73684
940.50 1.736671
940.60 1.736501
940.70 1.736332
940.80 1.736163
940.90 1.735994
941.00 1.735825
941.10 1.735656
941.20 1.735487
941.30 1.735318
941.40 1.735148
941.50 1.73498
941.60 1.734811
941.70 1.734642
941.80 1.734473
941.90 1.734304
942.00 1.734135
942.10 1.733966
942.20 1.733798
942.30 1.733629
942.40 1.73346
942.50 1.733292
942.60 1.733123
942.70 1.732954
942.80 1.732786
942.90 1.732617
943.00 1.732445
943.10 1.732266
943.20 1.732087
943.30 1.731908
943.40 1.731729
943.50 1.73155
943.60 1.731371
943.70 1.731193
943.80 1.731014
943.90 1.730835
944.00 1.730657
944.10 1.730478
944.20 1.730299
944.30 1.730121
944.40 1.729942
944.50 1.729764
944.60 1.729585
944.70 1.729407
944.80 1.729229
944.90 1.72905
945.00 1.728872
945.10 1.728694
945.20 1.728515
945.30 1.728337
945.40 1.728159
945.50 1.727981
945.60 1.727803
945.70 1.727625
945.80 1.727447
945.90 1.727269
946.00 1.727091
946.10 1.726913
946.20 1.726735
946.30 1.726557
946.40 1.72638
946.50 1.726202
946.60 1.726024
946.70 1.725847
946.80 1.725669
946.90 1.725491
947.00 1.725314
947.10 1.725136
947.20 1.724959
947.30 1.724781
947.40 1.724604
947.50 1.724427
947.60 1.724249
947.70 1.724072
947.80 1.723895
947.90 1.723717
948.00 1.72354
948.10 1.723363
948.20 1.723186
948.30 1.723009
948.40 1.722832
948.50 1.722655
948.60 1.722478
948.70 1.722301
948.80 1.722124
948.90 1.721947
949.00 1.72177
949.10 1.721593
949.20 1.721417
949.30 1.72124
949.40 1.721063
949.50 1.720887
949.60 1.72071
949.70 1.720533
949.80 1.720357
949.90 1.72018
950.00 1.720004
950.10 1.719827
950.20 1.719651
950.30 1.719475
950.40 1.719298
950.50 1.719122
950.60 1.718946
950.70 1.71877
950.80 1.718593
950.90 1.718417
951.00 1.718241
951.10 1.718065
951.20 1.717889
951.30 1.717713
951.40 1.717537
951.50 1.717361
951.60 1.717185
951.70 1.717009
951.80 1.716834
951.90 1.716658
952.00 1.716482
952.10 1.716306
952.20 1.716131
952.30 1.715955
952.40 1.715779
952.50 1.715602
952.60 1.715424
952.70 1.715247
952.80 1.71507
952.90 1.714893
953.00 1.714715
953.10 1.714538
953.20 1.714361
953.30 1.714184
953.40 1.714007
953.50 1.71383
953.60 1.713653
953.70 1.713476
953.80 1.713299
953.90 1.713122
954.00 1.712945
954.10 1.712769
954.20 1.712592
954.30 1.712415
954.40 1.712238
954.50 1.712062
954.60 1.711885
954.70 1.711708
954.80 1.711532
954.90 1.711355
955.00 1.711179
955.10 1.711002
955.20 1.710826
955.30 1.71065
955.40 1.710473
955.50 1.710297
955.60 1.710121
955.70 1.709945
955.80 1.709768
955.90 1.709592
956.00 1.709416
956.10 1.70924
956.20 1.709064
956.30 1.708888
956.40 1.708712
956.50 1.708536
956.60 1.70836
956.70 1.708184
956.80 1.708008
956.90 1.707833
957.00 1.707657
957.10 1.707481
957.20 1.707306
957.30 1.70713
957.40 1.706954
957.50 1.706779
957.60 1.706603
957.70 1.706428
957.80 1.706252
957.90 1.706077
958.00 1.705901
958.10 1.705726
958.20 1.705551
958.30 1.705375
958.40 1.7052
958.50 1.705025
958.60 1.70485
958.70 1.704675
958.80 1.7045
958.90 1.704324
959.00 1.704149
959.10 1.703974
959.20 1.703799
959.30 1.703625
959.40 1.70345
959.50 1.703275
959.60 1.7031
959.70 1.702925
959.80 1.70275
959.90 1.702576
960.00 1.702401
960.10 1.702226
960.20 1.702052
960.30 1.701877
960.40 1.701703
960.50 1.701528
960.60 1.701354
960.70 1.701179
960.80 1.701005
960.90 1.700831
961.00 1.700656
961.10 1.700482
961.20 1.700308
961.30 1.700134
961.40 1.699959
961.50 1.699785
961.60 1.699611
961.70 1.699437
961.80 1.699263
961.90 1.699089
962.00 1.698907
962.10 1.698723
962.20 1.698539
962.30 1.698356
962.40 1.698172
962.50 1.697988
962.60 1.697805
962.70 1.697621
962.80 1.697438
962.90 1.697254
963.00 1.697071
963.10 1.696888
963.20 1.696704
963.30 1.696521
963.40 1.696338
963.50 1.696155
963.60 1.695971
963.70 1.695788
963.80 1.695605
963.90 1.695422
964.00 1.695239
964.10 1.695056
964.20 1.694873
964.30 1.69469
964.40 1.694508
964.50 1.694325
964.60 1.694142
964.70 1.693959
964.80 1.693777
964.90 1.693594
965.00 1.693411
965.10 1.693229
965.20 1.693046
965.30 1.692864
965.40 1.692681
965.50 1.692499
965.60 1.692316
965.70 1.692134
965.80 1.691952
965.90 1.69177
966.00 1.691587
966.10 1.691405
966.20 1.691223
966.30 1.691041
966.40 1.690859
966.50 1.690677
966.60 1.690495
966.70 1.690313
966.80 1.690131
966.90 1.689949
967.00 1.689767
967.10 1.689585
967.20 1.689404
967.30 1.689222
967.40 1.68904
967.50 1.688859
967.60 1.688677
967.70 1.688496
967.80 1.688314
967.90 1.688133
968.00 1.687951
968.10 1.68777
968.20 1.687588
968.30 1.687407
968.40 1.687226
968.50 1.687045
968.60 1.686863
968.70 1.686682
968.80 1.686501
968.90 1.68632
969.00 1.686139
969.10 1.685958
969.20 1.685777
969.30 1.685596
969.40 1.685415
969.50 1.685234
969.60 1.685053
969.70 1.684873
969.80 1.684692
969.90 1.684511
970.00 1.684331
970.10 1.68415
970.20 1.683969
970.30 1.683789
970.40 1.683608
970.50 1.683428
970.60 1.683247
970.70 1.683067
970.80 1.682887
970.90 1.682706
971.00 1.682526
971.10 1.682346
971.20 1.682166
971.30 1.681985
971.40 1.681805
971.50 1.681625
971.60 1.681439
971.70 1.68125
971.80 1.68106
971.90 1.680871
972.00 1.680681
972.10 1.680492
972.20 1.680303
972.30 1.680114
972.40 1.679924
972.50 1.679735
972.60 1.679546
972.70 1.679357
972.80 1.679168
972.90 1.678979
973.00 1.67879
973.10 1.678601
973.20 1.678412
973.30 1.678224
973.40 1.678035
973.50 1.677846
973.60 1.677658
973.70 1.677469
973.80 1.67728
973.90 1.677092
974.00 1.676903
974.10 1.676715
974.20 1.676526
974.30 1.676338
974.40 1.67615
974.50 1.675961
974.60 1.675773
974.70 1.675585
974.80 1.675397
974.90 1.675209
975.00 1.675021
975.10 1.674832
975.20 1.674644
975.30 1.674457
975.40 1.674269
975.50 1.674081
975.60 1.673893
975.70 1.673705
975.80 1.673517
975.90 1.67333
976.00 1.673142
976.10 1.672954
976.20 1.672767
976.30 1.672579
976.40 1.672392
976.50 1.672204
976.60 1.672017
976.70 1.671829
976.80 1.671642
976.90 1.671455
977.00 1.671268
977.10 1.67108
977.20 1.670893
977.30 1.670706
977.40 1.670519
977.50 1.670332
977.60 1.670145
977.70 1.669958
977.80 1.669771
977.90 1.669584
978.00 1.669397
978.10 1.669211
978.20 1.669024
978.30 1.668837
978.40 1.668651
978.50 1.668464
978.60 1.668277
978.70 1.668091
978.80 1.667904
978.90 1.667718
979.00 1.667531
979.10 1.667345
979.20 1.667159
979.30 1.666972
979.40 1.666786
979.50 1.6666
979.60 1.666414
979.70 1.666228
979.80 1.666042
979.90 1.665855
980.00 1.665669
980.10 1.665483
980.20 1.665298
980.30 1.665112
980.40 1.664926
980.50 1.66474
980.60 1.664554
980.70 1.664369
980.80 1.664183
980.90 1.663997
981.00 1.663812
981.10 1.663626
981.20 1.663441
981.30 1.663251
981.40 1.663056
981.50 1.662861
981.60 1.662667
981.70 1.662473
981.80 1.662278
981.90 1.662084
982.00 1.66189
982.10 1.661695
982.20 1.661501
982.30 1.661307
982.40 1.661113
982.50 1.660919
982.60 1.660725
982.70 1.660531
982.80 1.660337
982.90 1.660143
983.00 1.659949
983.10 1.659755
983.20 1.659562
983.30 1.659368
983.40 1.659174
983.50 1.658981
983.60 1.658787
983.70 1.658593
983.80 1.6584
983.90 1.658206
984.00 1.658013
984.10 1.65782
984.20 1.657626
984.30 1.657433
984.40 1.65724
984.50 1.657047
984.60 1.656854
984.70 1.656661
984.80 1.656467
984.90 1.656274
985.00 1.656082
985.10 1.655889
985.20 1.655696
985.30 1.655503
985.40 1.65531
985.50 1.655117
985.60 1.654925
985.70 1.654732
985.80 1.654539
985.90 1.654347
986.00 1.654154
986.10 1.653962
986.20 1.653769
986.30 1.653577
986.40 1.653385
986.50 1.653192
986.60 1.653
986.70 1.652808
986.80 1.652616
986.90 1.652424
987.00 1.652232
987.10 1.65204
987.20 1.651848
987.30 1.651656
987.40 1.651464
987.50 1.651272
987.60 1.65108
987.70 1.650888
987.80 1.650697
987.90 1.650505
988.00 1.650313
988.10 1.650122
988.20 1.64993
988.30 1.649739
988.40 1.649547
988.50 1.649356
988.60 1.649164
988.70 1.648973
988.80 1.648782
988.90 1.64859
989.00 1.648399
989.10 1.648208
989.20 1.648017
989.30 1.647826
989.40 1.647635
989.50 1.647444
989.60 1.647253
989.70 1.647062
989.80 1.646871
989.90 1.64668
990.00 1.64649
990.10 1.646299
990.20 1.646108
990.30 1.645918
990.40 1.645727
990.50 1.645536
990.60 1.645346
990.70 1.645155
990.80 1.644965
990.90 1.644775
991.00 1.644584
991.10 1.644396
991.20 1.644212
991.30 1.644028
991.40 1.643844
991.50 1.643659
991.60 1.643475
991.70 1.643291
991.80 1.643107
991.90 1.642923
992.00 1.642739
992.10 1.642556
992.20 1.642372
992.30 1.642188
992.40 1.642004
992.50 1.64182
992.60 1.641637
992.70 1.641453
992.80 1.641269
992.90 1.641086
993.00 1.640902
993.10 1.640719
993.20 1.640535
993.30 1.640352
993.40 1.640169
993.50 1.639985
993.60 1.639802
993.70 1.639619
993.80 1.639436
993.90 1.639253
994.00 1.639069
994.10 1.638886
994.20 1.638703
994.30 1.63852
994.40 1.638337
994.50 1.638154
994.60 1.637972
994.70 1.637789
994.80 1.637606
994.90 1.637423
995.00 1.63724
995.10 1.637058
995.20 1.636875
995.30 1.636693
995.40 1.63651
995.50 1.636328
995.60 1.636145
995.70 1.635963
995.80 1.63578
995.90 1.635598
996.00 1.635416
996.10 1.635221
996.20 1.635024
996.30 1.634828
996.40 1.634631
996.50 1.634434
996.60 1.634237
996.70 1.634041
996.80 1.633844
996.90 1.633648
997.00 1.633451
997.10 1.633255
997.20 1.633058
997.30 1.632862
997.40 1.632666
997.50 1.63247
997.60 1.632273
997.70 1.632077
997.80 1.631881
997.90 1.631685
998.00 1.631489
998.10 1.631293
998.20 1.631097
998.30 1.630901
998.40 1.630705
998.50 1.630509
998.60 1.630314
998.70 1.630118
998.80 1.629922
998.90 1.629727
999.00 1.629531
999.10 1.629336
999.20 1.62914
999.30 1.628945
999.40 1.628749
999.50 1.628554
999.60 1.628359
999.70 1.628163
999.80 1.627968
999.90 1.627773
1000.00 1.627578
1000.10 1.627383
1000.20 1.627188
1000.30 1.626993
1000.40 1.626798
1000.50 1.626603
1000.60 1.626408
1000.70 1.626213
1000.80 1.626019
1000.90 1.625824
1001.00 1.625629
1001.10 1.625433
1001.20 1.625237
1001.30 1.625041
1001.40 1.624846
1001.50 1.62465
1001.60 1.624454
1001.70 1.624259
1001.80 1.624063
1001.90 1.623868
1002.00 1.623672
1002.10 1.623477
1002.20 1.623281
1002.30 1.623086
1002.40 1.622891
1002.50 1.622695
1002.60 1.6225
1002.70 1.622305
1002.80 1.62211
1002.90 1.621915
1003.00 1.62172
1003.10 1.621525
1003.20 1.62133
1003.30 1.621135
1003.40 1.62094
1003.50 1.620745
1003.60 1.620551
1003.70 1.620356
1003.80 1.620161
1003.90 1.619967
1004.00 1.619772
1004.10 1.619577
1004.20 1.619383
1004.30 1.619189
1004.40 1.618994
1004.50 1.6188
1004.60 1.618606
1004.70 1.618411
1004.80 1.618217
1004.90 1.618023
1005.00 1.617829
1005.10 1.617635
1005.20 1.617441
1005.30 1.617247
1005.40 1.617053
1005.50 1.616859
1005.60 1.616665
1005.70 1.616471
1005.80 1.616278
1005.90 1.616084
1006.00 1.61589
1006.10 1.615697
1006.20 1.615503
1006.30 1.61531
1006.40 1.615116
1006.50 1.614923
1006.60 1.614729
1006.70 1.614536
1006.80 1.614343
1006.90 1.614149
1007.00 1.613956
1007.10 1.613763
1007.20 1.61357
1007.30 1.613377
1007.40 1.613184
1007.50 1.612991
1007.60 1.612798
1007.70 1.612605
1007.80 1.612412
1007.90 1.61222
1008.00 1.612027
1008.10 1.611834
1008.20 1.611641
1008.30 1.611449
1008.40 1.611256
1008.50 1.611064
1008.60 1.610871
1008.70 1.610679
1008.80 1.610486
1008.90 1.610294
1009.00 1.610102
1009.10 1.60991
1009.20 1.609717
1009.30 1.609525
1009.40 1.609333
1009.50 1.609141
1009.60 1.608949
1009.70 1.608757
1009.80 1.608565
1009.90 1.608373
1010.00 1.608181
1010.10 1.60799
1010.20 1.607798
1010.30 1.607606
1010.40 1.607414
1010.50 1.607223
1010.60 1.607031
1010.70 1.60684
1010.80 1.606648
1010.90 1.606457
1011.00 1.606265
1011.10 1.606072
1011.20 1.60588
1011.30 1.605687
1011.40 1.605495
1011.50 1.605302
1011.60 1.60511
1011.70 1.604918
1011.80 1.604725
1011.90 1.604533
1012.00 1.604341
1012.10 1.604149
1012.20 1.603956
1012.30 1.603764
1012.40 1.603572
1012.50 1.60338
1012.60 1.603188
1012.70 1.602996
1012.80 1.602805
1012.90 1.602613
1013.00 1.602421
1013.10 1.602229
1013.20 1.602037
1013.30 1.601846
1013.40 1.601654
1013.50 1.601463
1013.60 1.601271
1013.70 1.60108
1013.80 1.600888
1013.90 1.600697
1014.00 1.600505
1014.10 1.600314
1014.20 1.600123
1014.30 1.599932
1014.40 1.599741
1014.50 1.599549
1014.60 1.599358
1014.70 1.599167
1014.80 1.598976
1014.90 1.598785
1015.00 1.598594
1015.10 1.598404
1015.20 1.598213
1015.30 1.598022
1015.40 1.597831
1015.50 1.597641
1015.60 1.59745
1015.70 1.597259
1015.80 1.597069
1015.90 1.596878
1016.00 1.596688
1016.10 1.596497
1016.20 1.596307
1016.30 1.596117
1016.40 1.595926
1016.50 1.595736
1016.60 1.595546
1016.70 1.595356
1016.80 1.595166
1016.90 1.594976
1017.00 1.594786
1017.10 1.594596
1017.20 1.594406
1017.30 1.594216
1017.40 1.594026
1017.50 1.593836
1017.60 1.593647
1017.70 1.593457
1017.80 1.593267
1017.90 1.593078
1018.00 1.592888
1018.10 1.592698
1018.20 1.592509
1018.30 1.592319
1018.40 1.59213
1018.50 1.591941
1018.60 1.591751
1018.70 1.591562
1018.80 1.591373
1018.90 1.591184
1019.00 1.590995
1019.10 1.590805
1019.20 1.590616
1019.30 1.590427
1019.40 1.590238
1019.50 1.590049
1019.60 1.589861
1019.70 1.589672
1019.80 1.589483
1019.90 1.589294
1020.00 1.589105
1020.10 1.588917
1020.20 1.588728
1020.30 1.58854
1020.40 1.588351
1020.50 1.588163
1020.60 1.587974
1020.70 1.587786
1020.80 1.587597
1020.90 1.587409
1021.00 1.587221
1021.10 1.587032
1021.20 1.586829
1021.30 1.586626
1021.40 1.586423
1021.50 1.58622
1021.60 1.586018
1021.70 1.585815
1021.80 1.585612
1021.90 1.58541
1022.00 1.585207
1022.10 1.585005
1022.20 1.584802
1022.30 1.5846
1022.40 1.584398
1022.50 1.584195
1022.60 1.583993
1022.70 1.583791
1022.80 1.583589
1022.90 1.583387
1023.00 1.583185
1023.10 1.582983
1023.20 1.582781
1023.30 1.582579
1023.40 1.582377
1023.50 1.582175
1023.60 1.581974
1023.70 1.581772
1023.80 1.58157
1023.90 1.581369
1024.00 1.581167
1024.10 1.580966
1024.20 1.580764
1024.30 1.580563
1024.40 1.580362
1024.50 1.58016
1024.60 1.579959
1024.70 1.579758
1024.80 1.579557
1024.90 1.579356
1025.00 1.579155
1025.10 1.578954
1025.20 1.578753
1025.30 1.578552
1025.40 1.578351
1025.50 1.57815
1025.60 1.577949
1025.70 1.577749
1025.80 1.577548
1025.90 1.577347
1026.00 1.577147
1026.10 1.576946
1026.20 1.576746
1026.30 1.576559
1026.40 1.576372
1026.50 1.576185
1026.60 1.575998
1026.70 1.575811
1026.80 1.575624
1026.90 1.575437
1027.00 1.575251
1027.10 1.575064
1027.20 1.574877
1027.30 1.574691
1027.40 1.574504
1027.50 1.574318
1027.60 1.574131
1027.70 1.573945
1027.80 1.573758
1027.90 1.573572
1028.00 1.573386
1028.10 1.573199
1028.20 1.573013
1028.30 1.572827
1028.40 1.572641
1028.50 1.572455
1028.60 1.572269
1028.70 1.572083
1028.80 1.571897
1028.90 1.571711
1029.00 1.571525
1029.10 1.571339
1029.20 1.571153
1029.30 1.570967
1029.40 1.570782
1029.50 1.570596
1029.60 1.57041
1029.70 1.570225
1029.80 1.570039
1029.90 1.569854
1030.00 1.569668
1030.10 1.569483
1030.20 1.569297
1030.30 1.569112
1030.40 1.568927
1030.50 1.568742
1030.60 1.568556
1030.70 1.568371
1030.80 1.568186
1030.90 1.568001
1031.00 1.567816
1031.10 1.567631
1031.20 1.567446
1031.30 1.567261
1031.40 1.567062
1031.50 1.566863
1031.60 1.566664
1031.70 1.566465
1031.80 1.566266
1031.90 1.566067
1032.00 1.565869
1032.10 1.56567
1032.20 1.565471
1032.30 1.565272
1032.40 1.565073
1032.50 1.564875
1032.60 1.564676
1032.70 1.564478
1032.80 1.564279
1032.90 1.564081
1033.00 1.563882
1033.10 1.563684
1033.20 1.563486
1033.30 1.563287
1033.40 1.563089
1033.50 1.562891
1033.60 1.562693
1033.70 1.562495
1033.80 1.562297
1033.90 1.562099
1034.00 1.561901
1034.10 1.561703
1034.20 1.561505
1034.30 1.561307
1034.40 1.56111
1034.50 1.560912
1034.60 1.560714
1034.70 1.560517
1034.80 1.560319
1034.90 1.560122
1035.00 1.559924
1035.10 1.559727
1035.20 1.55953
1035.30 1.559332
1035.40 1.559135
1035.50 1.558938
1035.60 1.558741
1035.70 1.558543
1035.80 1.558346
1035.90 1.558149
1036.00 1.557952
1036.10 1.557755
1036.20 1.557558
1036.30 1.557362
1036.40 1.557165
1036.50 1.556968
1036.60 1.556771
1036.70 1.556575
1036.80 1.556378
1036.90 1.556182
1037.00 1.555985
1037.10 1.555789
1037.20 1.555592
1037.30 1.555396
1037.40 1.5552
1037.50 1.555003
1037.60 1.554807
1037.70 1.554611
1037.80 1.554415
1037.90 1.554219
1038.00 1.554023
1038.10 1.553827
1038.20 1.553631
1038.30 1.553435
1038.40 1.553239
1038.50 1.553043
1038.60 1.552848
1038.70 1.552652
1038.80 1.552456
1038.90 1.552261
1039.00 1.552065
1039.10 1.55187
1039.20 1.551674
1039.30 1.551479
1039.40 1.551283
1039.50 1.551088
1039.60 1.550893
1039.70 1.550698
1039.80 1.550502
1039.90 1.550307
1040.00 1.550112
1040.10 1.549917
1040.20 1.549722
1040.30 1.549527
1040.40 1.549332
1040.50 1.549137
1040.60 1.548942
1040.70 1.548748
1040.80 1.548553
1040.90 1.548358
1041.00 1.548164
1041.10 1.547969
1041.20 1.547775
1041.30 1.54758
1041.40 1.547386
1041.50 1.547191
1041.60 1.546997
1041.70 1.546802
1041.80 1.546606
1041.90 1.546411
1042.00 1.546216
1042.10 1.546021
1042.20 1.545826
1042.30 1.545631
1042.40 1.545436
1042.50 1.545241
1042.60 1.545046
1042.70 1.544851
1042.80 1.544656
1042.90 1.544461
1043.00 1.544267
1043.10 1.544072
1043.20 1.543877
1043.30 1.543683
1043.40 1.543488
1043.50 1.543294
1043.60 1.543099
1043.70 1.542905
1043.80 1.54271
1043.90 1.542516
1044.00 1.542322
1044.10 1.542128
1044.20 1.541933
1044.30 1.541739
1044.40 1.541545
1044.50 1.541351
1044.60 1.541157
1044.70 1.540963
1044.80 1.540769
1044.90 1.540575
1045.00 1.540382
1045.10 1.540188
1045.20 1.539994
1045.30 1.5398
1045.40 1.539607
1045.50 1.539413
1045.60 1.53922
1045.70 1.539026
1045.80 1.538833
1045.90 1.538639
1046.00 1.538446
1046.10 1.538253
1046.20 1.53806
1046.30 1.537866
1046.40 1.537673
1046.50 1.53748
1046.60 1.537287
1046.70 1.537094
1046.80 1.536901
1046.90 1.536699
1047.00 1.536493
1047.10 1.536288
1047.20 1.536082
1047.30 1.535877
1047.40 1.535672
1047.50 1.535466
1047.60 1.535261
1047.70 1.535056
1047.80 1.534851
1047.90 1.534646
1048.00 1.534441
1048.10 1.534236
1048.20 1.534031
1048.30 1.533827
1048.40 1.533622
1048.50 1.533417
1048.60 1.533212
1048.70 1.533008
1048.80 1.532803
1048.90 1.532599
1049.00 1.532394
1049.10 1.53219
1049.20 1.531985
1049.30 1.531781
1049.40 1.531577
1049.50 1.531373
1049.60 1.531168
1049.70 1.530964
1049.80 1.53076
1049.90 1.530556
1050.00 1.530352
1050.10 1.530148
1050.20 1.529945
1050.30 1.529741
1050.40 1.529537
1050.50 1.529333
1050.60 1.52913
1050.70 1.528926
1050.80 1.528722
1050.90 1.528519
1051.00 1.528315
1051.10 1.528112
1051.20 1.527909
1051.30 1.527705
1051.40 1.527502
1051.50 1.527299
1051.60 1.527096
1051.70 1.526893
1051.80 1.526689
1051.90 1.526486
1052.00 1.526283
1052.10 1.526084
1052.20 1.525887
1052.30 1.525689
1052.40 1.525492
1052.50 1.525294
1052.60 1.525097
1052.70 1.524899
1052.80 1.524702
1052.90 1.524505
1053.00 1.524308
1053.10 1.524111
1053.20 1.523913
1053.30 1.523716
1053.40 1.523519
1053.50 1.523322
1053.60 1.523125
1053.70 1.522929
1053.80 1.522732
1053.90 1.522535
1054.00 1.522338
1054.10 1.522142
1054.20 1.521945
1054.30 1.521748
1054.40 1.521552
1054.50 1.521355
1054.60 1.521159
1054.70 1.520963
1054.80 1.520766
1054.90 1.52057
1055.00 1.520374
1055.10 1.520177
1055.20 1.519981
1055.30 1.519785
1055.40 1.519589
1055.50 1.519393
1055.60 1.519197
1055.70 1.519001
1055.80 1.518805
1055.90 1.51861
1056.00 1.518414
1056.10 1.518218
1056.20 1.518022
1056.30 1.517827
1056.40 1.517631
1056.50 1.517436
1056.60 1.51724
1056.70 1.517045
1056.80 1.516849
1056.90 1.516654
1057.00 1.516459
1057.10 1.516263
1057.20 1.516068
1057.30 1.515873
1057.40 1.515678
1057.50 1.515483
1057.60 1.515288
1057.70 1.515093
1057.80 1.514898
1057.90 1.514703
1058.00 1.514508
1058.10 1.514313
1058.20 1.514118
1058.30 1.513924
1058.40 1.513729
1058.50 1.513534
1058.60 1.51334
1058.70 1.513145
1058.80 1.512951
1058.90 1.512756
1059.00 1.512562
1059.10 1.512368
1059.20 1.512173
1059.30 1.511979
1059.40 1.511785
1059.50 1.511591
1059.60 1.511397
1059.70 1.511203
1059.80 1.511009
1059.90 1.510815
1060.00 1.510621
1060.10 1.510427
1060.20 1.510233
1060.30 1.510039
1060.40 1.509846
1060.50 1.509652
1060.60 1.509458
1060.70 1.509265
1060.80 1.509071
1060.90 1.508878
1061.00 1.508684
1061.10 1.508491
1061.20 1.508297
1061.30 1.508104
1061.40 1.507911
1061.50 1.507718
1061.60 1.507524
1061.70 1.507331
1061.80 1.507138
1061.90 1.506945
1062.00 1.506752
1062.10 1.506559
1062.20 1.506366
1062.30 1.506174
1062.40 1.505981
1062.50 1.505788
1062.60 1.505592
1062.70 1.505393
1062.80 1.505193
1062.90 1.504994
1063.00 1.504794
1063.10 1.504595
1063.20 1.504395
1063.30 1.504196
1063.40 1.503997
1063.50 1.503798
1063.60 1.503599
1063.70 1.5034
1063.80 1.503201
1063.90 1.503002
1064.00 1.502803
1064.10 1.502604
1064.20 1.502405
1064.30 1.502206
1064.40 1.502008
1064.50 1.501809
1064.60 1.50161
1064.70 1.501412
1064.80 1.501213
1064.90 1.501015
1065.00 1.500816
1065.10 1.500618
1065.20 1.500419
1065.30 1.500221
1065.40 1.500023
1065.50 1.499825
1065.60 1.499626
1065.70 1.499428
1065.80 1.49923
1065.90 1.499032
1066.00 1.498834
1066.10 1.498636
1066.20 1.498439
1066.30 1.498241
1066.40 1.498043
1066.50 1.497845
1066.60 1.497648
1066.70 1.49745
1066.80 1.497252
1066.90 1.497055
1067.00 1.496857
1067.10 1.49666
1067.20 1.496463
1067.30 1.496265
1067.40 1.496068
1067.50 1.495871
1067.60 1.495673
1067.70 1.495476
1067.80 1.495279
1067.90 1.495082
1068.00 1.494885
1068.10 1.494688
1068.20 1.494491
1068.30 1.494294
1068.40 1.494098
1068.50 1.493901
1068.60 1.493704
1068.70 1.493508
1068.80 1.493311
1068.90 1.493114
1069.00 1.492918
1069.10 1.492721
1069.20 1.492525
1069.30 1.492329
1069.40 1.492132
1069.50 1.491936
1069.60 1.49174
1069.70 1.491544
1069.80 1.491347
1069.90 1.491151
1070.00 1.490955
1070.10 1.490759
1070.20 1.490563
1070.30 1.490367
1070.40 1.490172
1070.50 1.489976
1070.60 1.48978
1070.70 1.489584
1070.80 1.489389
1070.90 1.489193
1071.00 1.488997
1071.10 1.488802
1071.20 1.488606
1071.30 1.488411
1071.40 1.488216
1071.50 1.48802
1071.60 1.487825
1071.70 1.48763
1071.80 1.487435
1071.90 1.487239
1072.00 1.487044
1072.10 1.486849
1072.20 1.486654
1072.30 1.486459
1072.40 1.486264
1072.50 1.486069
1072.60 1.485875
1072.70 1.48568
1072.80 1.485485
1072.90 1.48529
1073.00 1.485096
1073.10 1.484901
1073.20 1.484707
1073.30 1.484511
1073.40 1.484316
1073.50 1.484121
1073.60 1.483926
1073.70 1.48373
1073.80 1.483535
1073.90 1.48334
1074.00 1.483145
1074.10 1.48295
1074.20 1.482755
1074.30 1.482561
1074.40 1.482366
1074.50 1.482171
1074.60 1.481976
1074.70 1.481782
1074.80 1.481587
1074.90 1.481392
1075.00 1.481198
1075.10 1.481003
1075.20 1.480809
1075.30 1.480615
1075.40 1.48042
1075.50 1.480226
1075.60 1.480032
1075.70 1.479838
1075.80 1.479643
1075.90 1.479449
1076.00 1.479255
1076.10 1.479061
1076.20 1.478867
1076.30 1.478673
1076.40 1.47848
1076.50 1.478286
1076.60 1.478092
1076.70 1.477898
1076.80 1.477705
1076.90 1.477511
1077.00 1.477317
1077.10 1.477124
1077.20 1.47693
1077.30 1.476737
1077.40 1.476543
1077.50 1.47635
1077.60 1.476157
1077.70 1.475963
1077.80 1.47577
1077.90 1.475577
1078.00 1.475384
1078.10 1.475191
1078.20 1.474998
1078.30 1.474805
1078.40 1.474612
1078.50 1.474419
1078.60 1.47422
1078.70 1.474015
1078.80 1.473811
1078.90 1.473607
1079.00 1.473403
1079.10 1.473199
1079.20 1.472995
1079.30 1.472791
1079.40 1.472587
1079.50 1.472383
1079.60 1.472179
1079.70 1.471975
1079.80 1.471771
1079.90 1.471568
1080.00 1.471364
1080.10 1.47116
1080.20 1.470957
1080.30 1.470753
1080.40 1.47055
1080.50 1.470347
1080.60 1.470143
1080.70 1.46994
1080.80 1.469737
1080.90 1.469533
1081.00 1.46933
1081.10 1.469127
1081.20 1.468924
1081.30 1.468721
1081.40 1.468518
1081.50 1.468315
1081.60 1.468112
1081.70 1.46791
1081.80 1.467707
1081.90 1.467504
1082.00 1.467302
1082.10 1.467099
1082.20 1.466896
1082.30 1.466694
1082.40 1.466491
1082.50 1.466289
1082.60 1.466087
1082.70 1.465884
1082.80 1.465682
1082.90 1.46548
1083.00 1.465278
1083.10 1.465076
1083.20 1.464874
1083.30 1.464672
1083.40 1.46447
1083.50 1.464268
1083.60 1.464066
1083.70 1.463864
1083.80 1.463662
1083.90 1.463461
1084.00 1.463268
1084.10 1.463077
1084.20 1.462886
1084.30 1.462695
1084.40 1.462505
1084.50 1.462314
1084.60 1.462123
1084.70 1.461932
1084.80 1.461742
1084.90 1.461551
1085.00 1.46136
1085.10 1.46117
1085.20 1.460979
1085.30 1.460789
1085.40 1.460598
1085.50 1.460408
1085.60 1.460218
1085.70 1.460027
1085.80 1.459837
1085.90 1.459647
1086.00 1.459457
1086.10 1.459267
1086.20 1.459077
1086.30 1.458887
1086.40 1.458697
1086.50 1.458507
1086.60 1.458317
1086.70 1.458127
1086.80 1.457937
1086.90 1.457747
1087.00 1.457558
1087.10 1.457368
1087.20 1.457178
1087.30 1.456989
1087.40 1.456799
1087.50 1.45661
1087.60 1.45642
1087.70 1.456231
1087.80 1.456042
1087.90 1.455852
1088.00 1.455663
1088.10 1.455474
1088.20 1.455285
1088.30 1.455096
1088.40 1.454907
1088.50 1.454718
1088.60 1.454529
1088.70 1.45434
1088.80 1.454151
1088.90 1.453962
1089.00 1.453773
1089.10 1.453584
1089.20 1.453396
1089.30 1.453207
1089.40 1.453011
1089.50 1.452811
1089.60 1.452611
1089.70 1.452412
1089.80 1.452212
1089.90 1.452013
1090.00 1.451813
1090.10 1.451614
1090.20 1.451414
1090.30 1.451215
1090.40 1.451016
1090.50 1.450816
1090.60 1.450617
1090.70 1.450418
1090.80 1.450219
1090.90 1.45002
1091.00 1.449821
1091.10 1.449622
1091.20 1.449423
1091.30 1.449224
1091.40 1.449025
1091.50 1.448827
1091.60 1.448628
1091.70 1.448429
1091.80 1.448231
1091.90 1.448032
1092.00 1.447834
1092.10 1.447635
1092.20 1.447437
1092.30 1.447238
1092.40 1.44704
1092.50 1.446842
1092.60 1.446644
1092.70 1.446445
1092.80 1.446247
1092.90 1.446049
1093.00 1.445851
1093.10 1.445653
1093.20 1.445455
1093.30 1.445257
1093.40 1.44506
1093.50 1.444862
1093.60 1.444664
1093.70 1.444466
1093.80 1.444269
1093.90 1.444071
1094.00 1.443874
1094.10 1.443676
1094.20 1.443479
1094.30 1.443281
1094.40 1.443084
1094.50 1.442887
1094.60 1.442689
1094.70 1.442492
1094.80 1.442295
1094.90 1.442097
1095.00 1.441899
1095.10 1.441701
1095.20 1.441504
1095.30 1.441306
1095.40 1.441109
1095.50 1.440911
1095.60 1.440714
1095.70 1.440516
1095.80 1.440319
1095.90 1.440122
1096.00 1.439924
1096.10 1.439727
1096.20 1.43953
1096.30 1.439333
1096.40 1.439136
1096.50 1.438939
1096.60 1.438742
1096.70 1.438545
1096.80 1.438348
1096.90 1.438151
1097.00 1.437955
1097.10 1.437758
1097.20 1.437561
1097.30 1.437364
1097.40 1.437168
1097.50 1.436971
1097.60 1.436775
1097.70 1.436578
1097.80 1.436382
1097.90 1.436186
1098.00 1.435989
1098.10 1.435793
1098.20 1.435597
1098.30 1.435401
1098.40 1.435205
1098.50 1.435009
1098.60 1.434813
1098.70 1.434617
1098.80 1.434421
1098.90 1.434225
1099.00 1.434029
1099.10 1.433833
1099.20 1.433638
1099.30 1.433442
1099.40 1.433246
1099.50 1.433051
1099.60 1.432855
1099.70 1.43266
1099.80 1.432464
1099.90 1.432269
1100.00 1.432074
1100.10 1.431878
1100.20 1.431683
1100.30 1.431488
1100.40 1.431293
1100.50 1.431098
1100.60 1.430902
1100.70 1.430707
1100.80 1.430513
1100.90 1.430318
1101.00 1.430123
1101.10 1.429928
1101.20 1.429733
1101.30 1.429538
1101.40 1.429344
1101.50 1.429149
1101.60 1.428954
1101.70 1.42876
1101.80 1.428565
1101.90 1.428371
1102.00 1.428177
1102.10 1.427982
1102.20 1.427788
1102.30 1.427594
1102.40 1.427399
1102.50 1.427205
1102.60 1.427011
1102.70 1.426817
1102.80 1.426623
1102.90 1.426429
1103.00 1.426235
1103.10 1.426041
1103.20 1.425847
1103.30 1.425654
1103.40 1.42546
1103.50 1.425266
1103.60 1.425073
1103.70 1.424879
1103.80 1.424685
1103.90 1.424492
1104.00 1.424298
1104.10 1.424105
1104.20 1.423912
1104.30 1.423718
1104.40 1.423525
1104.50 1.423332
1104.60 1.423139
1104.70 1.422946
1104.80 1.422752
1104.90 1.422559
1105.00 1.422366
1105.10 1.422173
1105.20 1.421981
1105.30 1.421788
1105.40 1.421595
1105.50 1.421402
1105.60 1.421209
1105.70 1.421017
1105.80 1.420818
1105.90 1.42062
1106.00 1.420421
1106.10 1.420223
1106.20 1.420024
1106.30 1.419826
1106.40 1.419628
1106.50 1.419429
1106.60 1.419231
1106.70 1.419033
1106.80 1.418835
1106.90 1.418637
1107.00 1.418439
1107.10 1.418241
1107.20 1.418043
1107.30 1.417845
1107.40 1.417648
1107.50 1.41745
1107.60 1.417252
1107.70 1.417054
1107.80 1.416857
1107.90 1.416659
1108.00 1.416462
1108.10 1.416264
1108.20 1.416067
1108.30 1.41587
1108.40 1.415672
1108.50 1.415475
1108.60 1.415278
1108.70 1.415081
1108.80 1.414884
1108.90 1.414686
1109.00 1.414489
1109.10 1.414292
1109.20 1.414096
1109.30 1.413899
1109.40 1.413702
1109.50 1.413505
1109.60 1.413308
1109.70 1.413112
1109.80 1.412915
1109.90 1.412718
1110.00 1.412522
1110.10 1.412325
1110.20 1.412129
1110.30 1.411932
1110.40 1.411736
1110.50 1.41154
1110.60 1.411344
1110.70 1.411147
1110.80 1.410951
1110.90 1.410755
1111.00 1.410559
1111.10 1.410363
1111.20 1.410167
1111.30 1.409971
1111.40 1.409775
1111.50 1.409579
1111.60 1.409384
1111.70 1.409188
1111.80 1.408992
1111.90 1.408797
1112.00 1.408601
1112.10 1.408405
1112.20 1.40821
1112.30 1.408015
1112.40 1.407819
1112.50 1.407624
1112.60 1.407428
1112.70 1.407233
1112.80 1.407038
1112.90 1.406843
1113.00 1.406648
1113.10 1.406453
1113.20 1.406258
1113.30 1.406063
1113.40 1.405868
1113.50 1.405673
1113.60 1.405478
1113.70 1.405283
1113.80 1.405089
1113.90 1.404894
1114.00 1.404699
1114.10 1.404505
1114.20 1.40431
1114.30 1.404116
1114.40 1.403921
1114.50 1.403727
1114.60 1.403532
1114.70 1.403338
1114.80 1.403144
1114.90 1.40295
1115.00 1.402755
1115.10 1.402561
1115.20 1.402367
1115.30 1.402173
1115.40 1.401979
1115.50 1.401785
1115.60 1.401591
1115.70 1.401398
1115.80 1.401204
1115.90 1.40101
1116.00 1.400816
1116.10 1.400623
1116.20 1.400429
1116.30 1.400235
1116.40 1.400042
1116.50 1.399849
1116.60 1.399655
1116.70 1.399462
1116.80 1.399266
1116.90 1.399067
1117.00 1.398868
1117.10 1.398669
1117.20 1.39847
1117.30 1.398271
1117.40 1.398073
1117.50 1.397874
1117.60 1.397675
1117.70 1.397477
1117.80 1.397278
1117.90 1.397079
1118.00 1.396881
1118.10 1.396683
1118.20 1.396484
1118.30 1.396286
1118.40 1.396088
1118.50 1.395889
1118.60 1.395691
1118.70 1.395493
1118.80 1.395295
1118.90 1.395097
1119.00 1.394899
1119.10 1.394701
1119.20 1.394503
1119.30 1.394305
1119.40 1.394108
1119.50 1.39391
1119.60 1.393712
1119.70 1.393515
1119.80 1.393317
1119.90 1.393119
1120.00 1.392922
1120.10 1.392724
1120.20 1.392527
1120.30 1.39233
1120.40 1.392132
1120.50 1.391935
1120.60 1.391738
1120.70 1.391541
1120.80 1.391344
1120.90 1.391147
1121.00 1.39095
1121.10 1.390753
1121.20 1.390556
1121.30 1.390359
1121.40 1.390162
1121.50 1.389965
1121.60 1.389769
1121.70 1.389572
1121.80 1.389375
1121.90 1.389179
1122.00 1.388982
1122.10 1.388786
1122.20 1.388589
1122.30 1.388393
1122.40 1.388197
1122.50 1.388
1122.60 1.387804
1122.70 1.387608
1122.80 1.387412
1122.90 1.387216
1123.00 1.38702
1123.10 1.386824
1123.20 1.386628
1123.30 1.386432
1123.40 1.386236
1123.50 1.38604
1123.60 1.385844
1123.70 1.385649
1123.80 1.385453
1123.90 1.385257
1124.00 1.385062
1124.10 1.384866
1124.20 1.384671
1124.30 1.384475
1124.40 1.38428
1124.50 1.384085
1124.60 1.383889
1124.70 1.383694
1124.80 1.383499
1124.90 1.383304
1125.00 1.383109
1125.10 1.382914
1125.20 1.382719
1125.30 1.382524
1125.40 1.382329
1125.50 1.382134
1125.60 1.381939
1125.70 1.381744
1125.80 1.38155
1125.90 1.381355
1126.00 1.38116
1126.10 1.380966
1126.20 1.380771
1126.30 1.380577
1126.40 1.380382
1126.50 1.380188
1126.60 1.379994
1126.70 1.379799
1126.80 1.379605
1126.90 1.379411
1127.00 1.379217
1127.10 1.379023
1127.20 1.378829
1127.30 1.378635
1127.40 1.378441
1127.50 1.378247
1127.60 1.378053
1127.70 1.377859
1127.80 1.377665
1127.90 1.377472
1128.00 1.377278
1128.10 1.377084
1128.20 1.376889
1128.30 1.376695
1128.40 1.376501
1128.50 1.376307
1128.60 1.376114
1128.70 1.37592
1128.80 1.375726
1128.90 1.375532
1129.00 1.375338
1129.10 1.375145
1129.20 1.374951
1129.30 1.374758
1129.40 1.374564
1129.50 1.374371
1129.60 1.374177
1129.70 1.373984
1129.80 1.37379
1129.90 1.373597
1130.00 1.373404
1130.10 1.373211
1130.20 1.373018
1130.30 1.372824
1130.40 1.372631
1130.50 1.372438
1130.60 1.372245
1130.70 1.372052
1130.80 1.37186
1130.90 1.371667
1131.00 1.371474
1131.10 1.371281
1131.20 1.371089
1131.30 1.370896
1131.40 1.370703
1131.50 1.370511
1131.60 1.370318
1131.70 1.370126
1131.80 1.369934
1131.90 1.369741
1132.00 1.369549
1132.10 1.369357
1132.20 1.369164
1132.30 1.368972
1132.40 1.36878
1132.50 1.368588
1132.60 1.368396
1132.70 1.368204
1132.80 1.368012
1132.90 1.36782
1133.00 1.367628
1133.10 1.367437
1133.20 1.367245
1133.30 1.367053
1133.40 1.366861
1133.50 1.36667
1133.60 1.366478
1133.70 1.366287
1133.80 1.366095
1133.90 1.365904
1134.00 1.365712
1134.10 1.365521
1134.20 1.36533
1134.30 1.365139
1134.40 1.364947
1134.50 1.364756
1134.60 1.364565
1134.70 1.364374
1134.80 1.364183
1134.90 1.363992
1135.00 1.363801
1135.10 1.36361
1135.20 1.36342
1135.30 1.363229
1135.40 1.363038
1135.50 1.362847
1135.60 1.362657
1135.70 1.362466
1135.80 1.362276
1135.90 1.362085
1136.00 1.361895
1136.10 1.361704
1136.20 1.361514
1136.30 1.361324
1136.40 1.361133
1136.50 1.360943
1136.60 1.360753
1136.70 1.360563
1136.80 1.360373
1136.90 1.360183
1137.00 1.359993
1137.10 1.359803
1137.20 1.359613
1137.30 1.359423
1137.40 1.359233
1137.50 1.359043
1137.60 1.358854
1137.70 1.358664
1137.80 1.358474
1137.90 1.358285
1138.00 1.358095
1138.10 1.357906
1138.20 1.357716
1138.30 1.357527
1138.40 1.357337
1138.50 1.357148
1138.60 1.356959
1138.70 1.35677
1138.80 1.35658
1138.90 1.356391
1139.00 1.356202
1139.10 1.356013
1139.20 1.355824
1139.30 1.35563
1139.40 1.355436
1139.50 1.355242
1139.60 1.355047
1139.70 1.354853
1139.80 1.354659
1139.90 1.354465
1140.00 1.354271
1140.10 1.354077
1140.20 1.353884
1140.30 1.35369
1140.40 1.353496
1140.50 1.353302
1140.60 1.353109
1140.70 1.352915
1140.80 1.352721
1140.90 1.352528
1141.00 1.352334
1141.10 1.352141
1141.20 1.351948
1141.30 1.351754
1141.40 1.351561
1141.50 1.351368
1141.60 1.351174
1141.70 1.350981
1141.80 1.350788
1141.90 1.350595
1142.00 1.350402
1142.10 1.350209
1142.20 1.350016
1142.30 1.349823
1142.40 1.34963
1142.50 1.349438
1142.60 1.349245
1142.70 1.349052
1142.80 1.34886
1142.90 1.348667
1143.00 1.348475
1143.10 1.348282
1143.20 1.34809
1143.30 1.347897
1143.40 1.347705
1143.50 1.347512
1143.60 1.34732
1143.70 1.347128
1143.80 1.346936
1143.90 1.346744
1144.00 1.346552
1144.10 1.34636
1144.20 1.346168
1144.30 1.345976
1144.40 1.345784
1144.50 1.345592
1144.60 1.3454
1144.70 1.345208
1144.80 1.345017
1144.90 1.344825
1145.00 1.344633
1145.10 1.344442
1145.20 1.34425
1145.30 1.344059
1145.40 1.343867
1145.50 1.343676
1145.60 1.343485
1145.70 1.343293
1145.80 1.343102
1145.90 1.342911
1146.00 1.34272
1146.10 1.342529
1146.20 1.342338
1146.30 1.342147
1146.40 1.341956
1146.50 1.341765
1146.60 1.341574
1146.70 1.341383
1146.80 1.341192
1146.90 1.341001
1147.00 1.340811
1147.10 1.34062
1147.20 1.34043
1147.30 1.340239
1147.40 1.340048
1147.50 1.339858
1147.60 1.339668
1147.70 1.339477
1147.80 1.339287
1147.90 1.339097
1148.00 1.338906
1148.10 1.338716
1148.20 1.338526
1148.30 1.338336
1148.40 1.338146
1148.50 1.337956
1148.60 1.337766
1148.70 1.337576
1148.80 1.337386
1148.90 1.337196
1149.00 1.337007
1149.10 1.336817
1149.20 1.336627
1149.30 1.336438
1149.40 1.336248
1149.50 1.336058
1149.60 1.335869
1149.70 1.33568
1149.80 1.33549
1149.90 1.335301
1150.00 1.335111
1150.10 1.334922
1150.20 1.334733
1150.30 1.334544
1150.40 1.334355
1150.50 1.334166
1150.60 1.333976
1150.70 1.333782
1150.80 1.333588
1150.90 1.333394
1151.00 1.3332
1151.10 1.333006
1151.20 1.332812
1151.30 1.332618
1151.40 1.332425
1151.50 1.332231
1151.60 1.332037
1151.70 1.331843
1151.80 1.33165
1151.90 1.331456
1152.00 1.331263
1152.10 1.331069
1152.20 1.330876
1152.30 1.330683
1152.40 1.330489
1152.50 1.330296
1152.60 1.330103
1152.70 1.329909
1152.80 1.329716
1152.90 1.329523
1153.00 1.32933
1153.10 1.329137
1153.20 1.328944
1153.30 1.328751
1153.40 1.328559
1153.50 1.328366
1153.60 1.328173
1153.70 1.32798
1153.80 1.327788
1153.90 1.327595
1154.00 1.327402
1154.10 1.32721
1154.20 1.327017
1154.30 1.326825
1154.40 1.326633
1154.50 1.32644
1154.60 1.326248
1154.70 1.326056
1154.80 1.325863
1154.90 1.325671
1155.00 1.325479
1155.10 1.325287
1155.20 1.325095
1155.30 1.324903
1155.40 1.324711
1155.50 1.324519
1155.60 1.324328
1155.70 1.324136
1155.80 1.323944
1155.90 1.323752
1156.00 1.323561
1156.10 1.323369
1156.20 1.323178
1156.30 1.322986
1156.40 1.322795
1156.50 1.322603
1156.60 1.322412
1156.70 1.322221
1156.80 1.322029
1156.90 1.321838
1157.00 1.321647
1157.10 1.321456
1157.20 1.321265
1157.30 1.321074
1157.40 1.320883
1157.50 1.320692
1157.60 1.320501
1157.70 1.32031
1157.80 1.320119
1157.90 1.319928
1158.00 1.319737
1158.10 1.319547
1158.20 1.319356
1158.30 1.319166
1158.40 1.318975
1158.50 1.318785
1158.60 1.318594
1158.70 1.318404
1158.80 1.318213
1158.90 1.318023
1159.00 1.317833
1159.10 1.317643
1159.20 1.317452
1159.30 1.317262
1159.40 1.317072
1159.50 1.316882
1159.60 1.316692
1159.70 1.316502
1159.80 1.316312
1159.90 1.316122
1160.00 1.315933
1160.10 1.315743
1160.20 1.315553
1160.30 1.315364
1160.40 1.315174
1160.50 1.314984
1160.60 1.314795
1160.70 1.314605
1160.80 1.314416
1160.90 1.314226
1161.00 1.314037
1161.10 1.313848
1161.20 1.313659
1161.30 1.313469
1161.40 1.31328
1161.50 1.313091
1161.60 1.312902
1161.70 1.312713
1161.80 1.312524
1161.90 1.312335
1162.00 1.312146
1162.10 1.311957
1162.20 1.311768
1162.30 1.311579
1162.40 1.31139
1162.50 1.311201
1162.60 1.311012
1162.70 1.310823
1162.80 1.310634
1162.90 1.310445
1163.00 1.310257
1163.10 1.310068
1163.20 1.309879
1163.30 1.30969
1163.40 1.309502
1163.50 1.309313
1163.60 1.309125
1163.70 1.308936
1163.80 1.308748
1163.90 1.30856
1164.00 1.308371
1164.10 1.308183
1164.20 1.307995
1164.30 1.307806
1164.40 1.307618
1164.50 1.30743
1164.60 1.307242
1164.70 1.307054
1164.80 1.306866
1164.90 1.306678
1165.00 1.30649
1165.10 1.306302
1165.20 1.306115
1165.30 1.305927
1165.40 1.305739
1165.50 1.305552
1165.60 1.305364
1165.70 1.305176
1165.80 1.304989
1165.90 1.304801
1166.00 1.304614
1166.10 1.304427
1166.20 1.304239
1166.30 1.304052
1166.40 1.303865
1166.50 1.303678
1166.60 1.30349
1166.70 1.303303
1166.80 1.303116
1166.90 1.302929
1167.00 1.302742
1167.10 1.302555
1167.20 1.302368
1167.30 1.302181
1167.40 1.301995
1167.50 1.301808
1167.60 1.301621
1167.70 1.301435
1167.80 1.301248
1167.90 1.301061
1168.00 1.300875
1168.10 1.300688
1168.20 1.300502
1168.30 1.300315
1168.40 1.300129
1168.50 1.299943
1168.60 1.299757
1168.70 1.29957
1168.80 1.299384
1168.90 1.299198
1169.00 1.299012
1169.10 1.298826
1169.20 1.29864
1169.30 1.298454
1169.40 1.298268
1169.50 1.298082
1169.60 1.297896
1169.70 1.297711
1169.80 1.297525
1169.90 1.297339
1170.00 1.297153
1170.10 1.296968
1170.20 1.296782
1170.30 1.296597
1170.40 1.296411
1170.50 1.296226
1170.60 1.296041
1170.70 1.295855
1170.80 1.29567
1170.90 1.295485
1171.00 1.295299
1171.10 1.295114
1171.20 1.294929
1171.30 1.294744
1171.40 1.294559
1171.50 1.294374
1171.60 1.294189
1171.70 1.294004
1171.80 1.293819
1171.90 1.293635
1172.00 1.29345
1172.10 1.293265
1172.20 1.293081
1172.30 1.292896
1172.40 1.292711
1172.50 1.292527
1172.60 1.292342
1172.70 1.292158
1172.80 1.291973
1172.90 1.291789
1173.00 1.291605
1173.10 1.291421
1173.20 1.291236
1173.30 1.291052
1173.40 1.290868
1173.50 1.290684
1173.60 1.2905
1173.70 1.290316
1173.80 1.290125
1173.90 1.289931
1174.00 1.289738
1174.10 1.289545
1174.20 1.289352
1174.30 1.289159
1174.40 1.288966
1174.50 1.288774
1174.60 1.288581
1174.70 1.288388
1174.80 1.288195
1174.90 1.288003
1175.00 1.28781
1175.10 1.287617
1175.20 1.287425
1175.30 1.287232
1175.40 1.28704
1175.50 1.286847
1175.60 1.286655
1175.70 1.286463
1175.80 1.286271
1175.90 1.286078
1176.00 1.285886
1176.10 1.285694
1176.20 1.285502
1176.30 1.28531
1176.40 1.285118
1176.50 1.284926
1176.60 1.284734
1176.70 1.284542
1176.80 1.284351
1176.90 1.284159
1177.00 1.283967
1177.10 1.283775
1177.20 1.283584
1177.30 1.283392
1177.40 1.283201
1177.50 1.283009
1177.60 1.282818
1177.70 1.282627
1177.80 1.282435
1177.90 1.282244
1178.00 1.282053
1178.10 1.281862
1178.20 1.28167
1178.30 1.281479
1178.40 1.281288
1178.50 1.281097
1178.60 1.280906
1178.70 1.280715
1178.80 1.280525
1178.90 1.280334
1179.00 1.280143
1179.10 1.279952
1179.20 1.279762
1179.30 1.279571
1179.40 1.27938
1179.50 1.27919
1179.60 1.279
1179.70 1.278819
1179.80 1.278637
1179.90 1.278455
1180.00 1.278274
1180.10 1.278092
1180.20 1.277911
1180.30 1.27773
1180.40 1.277548
1180.50 1.277367
1180.60 1.277186
1180.70 1.277004
1180.80 1.276823
1180.90 1.276642
1181.00 1.276461
1181.10 1.27628
1181.20 1.276099
1181.30 1.275918
1181.40 1.275737
1181.50 1.275556
1181.60 1.275375
1181.70 1.275195
1181.80 1.275014
1181.90 1.274833
1182.00 1.274653
1182.10 1.274472
1182.20 1.274291
1182.30 1.274111
1182.40 1.27393
1182.50 1.27375
1182.60 1.273569
1182.70 1.273389
1182.80 1.273209
1182.90 1.273028
1183.00 1.272848
1183.10 1.272668
1183.20 1.272488
1183.30 1.272308
1183.40 1.272128
1183.50 1.271948
1183.60 1.271768
1183.70 1.271588
1183.80 1.271408
1183.90 1.271228
1184.00 1.271048
1184.10 1.270868
1184.20 1.270689
1184.30 1.270509
1184.40 1.270329
1184.50 1.27015
1184.60 1.26997
1184.70 1.269791
1184.80 1.269611
1184.90 1.269432
1185.00 1.269252
1185.10 1.269073
1185.20 1.268894
1185.30 1.268715
1185.40 1.268535
1185.50 1.268352
1185.60 1.268164
1185.70 1.267976
1185.80 1.267788
1185.90 1.2676
1186.00 1.267412
1186.10 1.267225
1186.20 1.267037
1186.30 1.266849
1186.40 1.266661
1186.50 1.266474
1186.60 1.266286
1186.70 1.266098
1186.80 1.265911
1186.90 1.265723
1187.00 1.265536
1187.10 1.265348
1187.20 1.265161
1187.30 1.264974
1187.40 1.264786
1187.50 1.264599
1187.60 1.264412
1187.70 1.264225
1187.80 1.264038
1187.90 1.263851
1188.00 1.263664
1188.10 1.263477
1188.20 1.26329
1188.30 1.263103
1188.40 1.262916
1188.50 1.262729
1188.60 1.262543
1188.70 1.262356
1188.80 1.262169
1188.90 1.261983
1189.00 1.261796
1189.10 1.26161
1189.20 1.261423
1189.30 1.261237
1189.40 1.26105
1189.50 1.260864
1189.60 1.260678
1189.70 1.260492
1189.80 1.260305
1189.90 1.260119
1190.00 1.259933
1190.10 1.259747
1190.20 1.259561
1190.30 1.259375
1190.40 1.259189
1190.50 1.259003
1190.60 1.258817
1190.70 1.258632
1190.80 1.258446
1190.90 1.25826
1191.00 1.258075
1191.10 1.257889
1191.20 1.257703
1191.30 1.257518
1191.40 1.257332
1191.50 1.257147
1191.60 1.256962
1191.70 1.256776
1191.80 1.256591
1191.90 1.256406
1192.00 1.25622
1192.10 1.256035
1192.20 1.25585
1192.30 1.255665
1192.40 1.25548
1192.50 1.255295
1192.60 1.25511
1192.70 1.254925
1192.80 1.25474
1192.90 1.254555
1193.00 1.254371
1193.10 1.254186
1193.20 1.254001
1193.30 1.253817
1193.40 1.253632
1193.50 1.253448
1193.60 1.253263
1193.70 1.253079
1193.80 1.252894
1193.90 1.25271
1194.00 1.252525
1194.10 1.252341
1194.20 1.252157
1194.30 1.251973
1194.40 1.251789
1194.50 1.251604
1194.60 1.25142
1194.70 1.251236
1194.80 1.251052
1194.90 1.250868
1195.00 1.250685
1195.10 1.250501
1195.20 1.250317
1195.30 1.250133
1195.40 1.24995
1195.50 1.249766
1195.60 1.249582
1195.70 1.249399
1195.80 1.249215
1195.90 1.249032
1196.00 1.248848
1196.10 1.248665
1196.20 1.248481
1196.30 1.248298
1196.40 1.248115
1196.50 1.247932
1196.60 1.247748
1196.70 1.247565
1196.80 1.247382
1196.90 1.247199
1197.00 1.247016
1197.10 1.246833
1197.20 1.24665
1197.30 1.246467
1197.40 1.246284
1197.50 1.246101
1197.60 1.245918
1197.70 1.245735
1197.80 1.245552
1197.90 1.24537
1198.00 1.245187
1198.10 1.245004
1198.20 1.244821
1198.30 1.244638
1198.40 1.244456
1198.50 1.244273
1198.60 1.244091
1198.70 1.243908
1198.80 1.243726
1198.90 1.243543
1199.00 1.243361
1199.10 1.243179
1199.20 1.242996
1199.30 1.242814
1199.40 1.242632
1199.50 1.24245
1199.60 1.242267
1199.70 1.242085
1199.80 1.241903
1199.90 1.241721
1200.00 1.241539
