# Version 2.1 - nm, norm@500 to 1, cut digits, bergeron_He_4000_80.dat_4000
# Wavelength(nm)  Flambda(ergs/cm^s/s/nm)
300.00 0.02731256
300.10 0.0274061
300.20 0.02749973
300.30 0.02759391
300.40 0.02769251
300.50 0.02779096
300.60 0.02788928
300.70 0.02798747
300.80 0.02808551
300.90 0.02818342
301.00 0.0282812
301.10 0.02837883
301.20 0.02847634
301.30 0.0285737
301.40 0.02867093
301.50 0.02876803
301.60 0.02886499
301.70 0.02896181
301.80 0.0290585
301.90 0.02915506
302.00 0.02925148
302.10 0.02935319
302.20 0.02945536
302.30 0.02955738
302.40 0.02965927
302.50 0.02976101
302.60 0.02986261
302.70 0.02996408
302.80 0.0300654
302.90 0.03016658
303.00 0.03026762
303.10 0.03036852
303.20 0.03046928
303.30 0.03057039
303.40 0.0306757
303.50 0.03078086
303.60 0.03088588
303.70 0.03099076
303.80 0.03109549
303.90 0.03120007
304.00 0.03130451
304.10 0.03140881
304.20 0.03151296
304.30 0.03161697
304.40 0.03172084
304.50 0.03182456
304.60 0.031934
304.70 0.03204395
304.80 0.03215374
304.90 0.03226339
305.00 0.03237288
305.10 0.03248222
305.20 0.03259142
305.30 0.03270046
305.40 0.03280935
305.50 0.03291809
305.60 0.03302669
305.70 0.03313513
305.80 0.03324343
305.90 0.03335158
306.00 0.03345957
306.10 0.03356742
306.20 0.03367513
306.30 0.03378268
306.40 0.03389717
306.50 0.03401361
306.60 0.03412989
306.70 0.03424601
306.80 0.03436197
306.90 0.03447778
307.00 0.03459343
307.10 0.03470891
307.20 0.03482425
307.30 0.03493942
307.40 0.03505444
307.50 0.0351693
307.60 0.035284
307.70 0.03539855
307.80 0.03551294
307.90 0.03562717
308.00 0.03574125
308.10 0.03585517
308.20 0.03596894
308.30 0.03608255
308.40 0.03619601
308.50 0.03630931
308.60 0.03642246
308.70 0.03653546
308.80 0.03665041
308.90 0.03677124
309.00 0.03689056
309.10 0.03700972
309.20 0.03712872
309.30 0.03724755
309.40 0.03736673
309.50 0.03748881
309.60 0.03761073
309.70 0.03773248
309.80 0.03785407
309.90 0.03797549
310.00 0.03809675
310.10 0.03821784
310.20 0.03833877
310.30 0.03845954
310.40 0.03858202
310.50 0.03870637
310.60 0.03883055
310.70 0.03895457
310.80 0.03907842
310.90 0.0392021
311.00 0.03932788
311.10 0.0394535
311.20 0.03957895
311.30 0.03970474
311.40 0.03983185
311.50 0.03995878
311.60 0.04008554
311.70 0.04021213
311.80 0.04033855
311.90 0.04046479
312.00 0.04059087
312.10 0.04071678
312.20 0.040844
312.30 0.04097411
312.40 0.04110335
312.50 0.04122924
312.60 0.04135995
312.70 0.04149048
312.80 0.04162084
312.90 0.04175148
313.00 0.04188245
313.10 0.04201323
313.20 0.04214384
313.30 0.04227526
313.40 0.04240932
313.50 0.04254319
313.60 0.04267689
313.70 0.0428104
313.80 0.04294374
313.90 0.0430769
314.00 0.04320988
314.10 0.04334574
314.20 0.04348143
314.30 0.04361693
314.40 0.04375225
314.50 0.04388739
314.60 0.04402235
314.70 0.04415713
314.80 0.0442912
314.90 0.0444257
315.00 0.04456233
315.10 0.04470075
315.20 0.04483898
315.30 0.04497704
315.40 0.0451149
315.50 0.04525259
315.60 0.04539009
315.70 0.04553104
315.80 0.0456718
315.90 0.04581237
316.00 0.04595276
316.10 0.04609141
316.20 0.04622987
316.30 0.04637125
316.40 0.04651245
316.50 0.04665345
316.60 0.04680046
316.70 0.04694109
316.80 0.04708153
316.90 0.04722642
317.00 0.04737111
317.10 0.04751562
317.20 0.04765993
317.30 0.0478035
317.40 0.04794765
317.50 0.04809378
317.60 0.04823972
317.70 0.04838547
317.80 0.04853102
317.90 0.04867424
318.00 0.04882316
318.10 0.04897035
318.20 0.04911735
318.30 0.04926415
318.40 0.04941156
318.50 0.04956103
318.60 0.04970713
318.70 0.04985713
318.80 0.05000418
318.90 0.0501547
319.00 0.05030624
319.10 0.05045758
319.20 0.05060855
319.30 0.05075885
319.40 0.05090895
319.50 0.05105885
319.60 0.05121196
319.70 0.05136468
319.80 0.0515172
319.90 0.05166951
320.00 0.05182331
320.10 0.05197872
320.20 0.05212901
320.30 0.05228602
320.40 0.0524384
320.50 0.05259541
320.60 0.0527527
320.70 0.05290689
320.80 0.05306232
320.90 0.05321912
321.00 0.05337571
321.10 0.05353209
321.20 0.05368948
321.30 0.0538485
321.40 0.05400732
321.50 0.05416592
321.60 0.05432432
321.70 0.05448251
321.80 0.05464172
321.90 0.05480204
322.00 0.05496002
322.10 0.05512234
322.20 0.05528444
322.30 0.05544634
322.40 0.05560802
322.50 0.0557695
322.60 0.05593076
322.70 0.05609181
322.80 0.05625855
322.90 0.05642408
323.00 0.05658939
323.10 0.05675449
323.20 0.05691937
323.30 0.05708404
323.40 0.05724849
323.50 0.05741273
323.60 0.05757675
323.70 0.05774057
323.80 0.05790416
323.90 0.05806755
324.00 0.05823564
324.10 0.05840352
324.20 0.05857118
324.30 0.05873882
324.40 0.05890904
324.50 0.05908149
324.60 0.05925372
324.70 0.05942573
324.80 0.05959752
324.90 0.05976908
325.00 0.05994042
325.10 0.06011154
325.20 0.06028136
325.30 0.06044868
325.40 0.06061577
325.50 0.06078376
325.60 0.06095289
325.70 0.0611218
325.80 0.06129049
325.90 0.06146639
326.00 0.06165012
326.10 0.06183361
326.20 0.06201686
326.30 0.06219053
326.40 0.06233738
326.50 0.06251975
326.60 0.06270187
326.70 0.06288377
326.80 0.06306543
326.90 0.06324686
327.00 0.06342805
327.10 0.06360901
327.20 0.06378973
327.30 0.06397023
327.40 0.06415049
327.50 0.06433052
327.60 0.06451032
327.70 0.06468988
327.80 0.06486922
327.90 0.06505097
328.00 0.06523525
328.10 0.06541916
328.20 0.06560283
328.30 0.06578627
328.40 0.06596947
328.50 0.06614232
328.60 0.06631256
328.70 0.06648259
328.80 0.06665714
328.90 0.06684495
329.00 0.06703253
329.10 0.06721986
329.20 0.06740695
329.30 0.06759381
329.40 0.06778042
329.50 0.0679668
329.60 0.06815294
329.70 0.06833883
329.80 0.06852449
329.90 0.06870992
330.00 0.06890286
330.10 0.06910503
330.20 0.06930695
330.30 0.0695086
330.40 0.06970448
330.50 0.06989413
330.60 0.07008354
330.70 0.0702727
330.80 0.07046163
330.90 0.07065031
331.00 0.07083875
331.10 0.07102695
331.20 0.07121491
331.30 0.07140264
331.40 0.07159012
331.50 0.07178595
331.60 0.07199202
331.70 0.07219783
331.80 0.07239664
331.90 0.07259491
332.00 0.07279293
332.10 0.0729907
332.20 0.07318822
332.30 0.07338549
332.40 0.07358251
332.50 0.07377927
332.60 0.07397579
332.70 0.07417206
332.80 0.07436808
332.90 0.07456385
333.00 0.07475937
333.10 0.07495985
333.20 0.07516644
333.30 0.07537276
333.40 0.07557883
333.50 0.07578463
333.60 0.07599018
333.70 0.07619546
333.80 0.07640049
333.90 0.07660525
334.00 0.07680976
334.10 0.07701401
334.20 0.077218
334.30 0.07742173
334.40 0.07762521
334.50 0.07782842
334.60 0.07803139
334.70 0.07824176
334.80 0.07845608
334.90 0.07866269
335.00 0.07886905
335.10 0.07905479
335.20 0.07928383
335.30 0.07950568
335.40 0.07968587
335.50 0.07991409
335.60 0.08014201
335.70 0.08031458
335.80 0.08054197
335.90 0.08076288
336.00 0.08097596
336.10 0.08118877
336.20 0.08140131
336.30 0.08161564
336.40 0.08183222
336.50 0.08204853
336.60 0.08226456
336.70 0.08248033
336.80 0.08269582
336.90 0.08290784
337.00 0.08311567
337.10 0.08332324
337.20 0.08353054
337.30 0.08374499
337.40 0.08396979
337.50 0.08419432
337.60 0.08441857
337.70 0.08464253
337.80 0.08486622
337.90 0.08508975
338.00 0.08531316
338.10 0.08553629
338.20 0.08575914
338.30 0.08598171
338.40 0.08620446
338.50 0.08642804
338.60 0.08665134
338.70 0.08687436
338.80 0.0870971
338.90 0.08731956
339.00 0.08754175
339.10 0.08776365
339.20 0.08798529
339.30 0.0882074
339.40 0.08843034
339.50 0.08865573
339.60 0.08888417
339.70 0.08911233
339.80 0.0893402
339.90 0.0895678
340.00 0.0897951
340.10 0.09002213
340.20 0.09024887
340.30 0.09047533
340.40 0.09070151
340.50 0.09092741
340.60 0.09115303
340.70 0.09137836
340.80 0.09161213
340.90 0.09185813
341.00 0.09209813
341.10 0.09233088
341.20 0.09256333
341.30 0.09279549
341.40 0.09302737
341.50 0.09325896
341.60 0.09349026
341.70 0.09372128
341.80 0.09395851
341.90 0.0942034
342.00 0.09444798
342.10 0.09469226
342.20 0.09492938
342.30 0.0951708
342.40 0.09541517
342.50 0.09565243
342.60 0.09588939
342.70 0.09612606
342.80 0.09636243
342.90 0.09659851
343.00 0.09683801
343.10 0.09708174
343.20 0.09732517
343.30 0.0975683
343.40 0.09781057
343.50 0.09805171
343.60 0.09829256
343.70 0.0985331
343.80 0.09877336
343.90 0.09901331
344.00 0.09925477
344.10 0.0994985
344.20 0.09974193
344.30 0.09998507
344.40 0.1002333
344.50 0.1004889
344.60 0.100775
344.70 0.1010052
344.80 0.1012337
344.90 0.1014868
345.00 0.1017622
345.10 0.1020159
345.20 0.1022639
345.30 0.1025036
345.40 0.1027431
345.50 0.1029828
345.60 0.1032315
345.70 0.1034921
345.80 0.1037523
345.90 0.1040122
346.00 0.1042718
346.10 0.1045311
346.20 0.1047887
346.30 0.1050439
346.40 0.1052988
346.50 0.1055533
346.60 0.1058076
346.70 0.1060616
346.80 0.1063152
346.90 0.1065685
347.00 0.1068216
347.10 0.1070743
347.20 0.1073319
347.30 0.1075968
347.40 0.1078613
347.50 0.1081256
347.60 0.1083894
347.70 0.108653
347.80 0.1089163
347.90 0.1091792
348.00 0.1094418
348.10 0.1097041
348.20 0.1099661
348.30 0.1102277
348.40 0.1104891
348.50 0.1107501
348.60 0.1110108
348.70 0.1112835
348.80 0.1115571
348.90 0.1118262
349.00 0.1120951
349.10 0.1123636
349.20 0.1126318
349.30 0.1128997
349.40 0.1131672
349.50 0.1134345
349.60 0.1137014
349.70 0.113968
349.80 0.1142342
349.90 0.1145001
350.00 0.1147657
350.10 0.115031
350.20 0.115296
350.30 0.1155659
350.40 0.1158431
350.50 0.1161199
350.60 0.1163964
350.70 0.1166725
350.80 0.1169484
350.90 0.1172238
351.00 0.117499
351.10 0.1177738
351.20 0.1180483
351.30 0.1183225
351.40 0.1185996
351.50 0.1188823
351.60 0.1191647
351.70 0.1194467
351.80 0.1197284
351.90 0.1200097
352.00 0.1202907
352.10 0.1205714
352.20 0.12084
352.30 0.121116
352.40 0.1214046
352.50 0.1216928
352.60 0.1219807
352.70 0.1222682
352.80 0.1225554
352.90 0.1228423
353.00 0.1231288
353.10 0.1234149
353.20 0.1237008
353.30 0.1239862
353.40 0.1242714
353.50 0.1245585
353.60 0.1248458
353.70 0.1251328
353.80 0.1254194
353.90 0.1257067
354.00 0.1259954
354.10 0.1262837
354.20 0.1265718
354.30 0.1268594
354.40 0.1271467
354.50 0.1274337
354.60 0.1277203
354.70 0.1280066
354.80 0.128297
354.90 0.1285935
355.00 0.1288896
355.10 0.1291853
355.20 0.1294807
355.30 0.1297843
355.40 0.1300875
355.50 0.1303904
355.60 0.1306928
355.70 0.1309828
355.80 0.1312669
355.90 0.1315479
356.00 0.1318479
356.10 0.1321535
356.20 0.1324587
356.30 0.1327636
356.40 0.1330681
356.50 0.1333723
356.60 0.133676
356.70 0.1339795
356.80 0.1342825
356.90 0.1345852
357.00 0.1348876
357.10 0.1351896
357.20 0.1354912
357.30 0.1357924
357.40 0.136093
357.50 0.1363927
357.60 0.136692
357.70 0.136991
357.80 0.1373111
357.90 0.1376308
358.00 0.1379412
358.10 0.1382489
358.20 0.1385563
358.30 0.1388634
358.40 0.1391701
358.50 0.1394764
358.60 0.1397823
358.70 0.1400879
358.80 0.1403931
358.90 0.140698
359.00 0.1410046
359.10 0.1413146
359.20 0.1416247
359.30 0.141938
359.40 0.1422508
359.50 0.1425656
359.60 0.1428806
359.70 0.1431952
359.80 0.1435152
359.90 0.1438348
360.00 0.1441548
360.10 0.1444758
360.20 0.1447965
360.30 0.1451168
360.40 0.1454367
360.50 0.1457562
360.60 0.1460641
360.70 0.1463887
360.80 0.1467128
360.90 0.1470366
361.00 0.1473673
361.10 0.147688
361.20 0.1480027
361.30 0.1483297
361.40 0.1486325
361.50 0.148973
361.60 0.1492922
361.70 0.1496129
361.80 0.1499349
361.90 0.1502593
362.00 0.1505833
362.10 0.1509234
362.20 0.1512628
362.30 0.1515941
362.40 0.151925
362.50 0.1522556
362.60 0.1525857
362.70 0.1528989
362.80 0.1532076
362.90 0.1535452
363.00 0.1538824
363.10 0.1542063
363.20 0.1545296
363.30 0.1548553
363.40 0.1552283
363.50 0.1555304
363.60 0.1558674
363.70 0.1562145
363.80 0.1565402
363.90 0.1568783
364.00 0.1572159
364.10 0.1575532
364.20 0.1578901
364.30 0.1582206
364.40 0.1585492
364.50 0.1588871
364.60 0.1592342
364.70 0.159581
364.80 0.1599274
364.90 0.1602593
365.00 0.1605908
365.10 0.1609219
365.20 0.1612759
365.30 0.1616295
365.40 0.1619594
365.50 0.1623122
365.60 0.1626645
365.70 0.1629975
365.80 0.1633301
365.90 0.1636754
366.00 0.1640235
366.10 0.1643663
366.20 0.1647087
366.30 0.1650507
366.40 0.1653922
366.50 0.1657437
366.60 0.1661195
366.70 0.166466
366.80 0.1668121
366.90 0.1671588
367.00 0.167507
367.10 0.1678548
367.20 0.1682022
367.30 0.1685492
367.40 0.1688958
367.50 0.1692387
367.60 0.1695804
367.70 0.1699352
367.80 0.1702896
367.90 0.1706435
368.00 0.1709994
368.10 0.1713601
368.20 0.1717171
368.30 0.1720736
368.40 0.1724297
368.50 0.1727855
368.60 0.1731408
368.70 0.1734957
368.80 0.1738501
368.90 0.1742187
369.00 0.1745847
369.10 0.1749432
369.20 0.1753083
369.30 0.1756684
369.40 0.1760282
369.50 0.1763875
369.60 0.1767442
369.70 0.1771005
369.80 0.1774707
369.90 0.1778406
370.00 0.1782101
370.10 0.1785757
370.20 0.1789321
370.30 0.1792881
370.40 0.1796652
370.50 0.1800441
370.60 0.1803989
370.70 0.1807578
370.80 0.1811319
370.90 0.1815057
371.00 0.1818836
371.10 0.1822612
371.20 0.1826113
371.30 0.1829609
371.40 0.1833507
371.50 0.183721
371.60 0.1840909
371.70 0.1844604
371.80 0.1848294
371.90 0.185198
372.00 0.1855965
372.10 0.185945
372.20 0.186323
372.30 0.1867006
372.40 0.1870777
372.50 0.1874544
372.60 0.1878307
372.70 0.1882065
372.80 0.1885944
372.90 0.1889818
373.00 0.1893514
373.10 0.1897204
373.20 0.190109
373.30 0.1904971
373.40 0.1908625
373.50 0.1912497
373.60 0.1916143
373.70 0.1920006
373.80 0.1923893
373.90 0.192772
374.00 0.193157
374.10 0.1935416
374.20 0.1939258
374.30 0.1943095
374.40 0.1947039
374.50 0.1950713
374.60 0.1954654
374.70 0.1958596
374.80 0.1962534
374.90 0.1966468
375.00 0.1970274
375.10 0.1974077
375.20 0.1977874
375.30 0.1981794
375.40 0.1985708
375.50 0.1989619
375.60 0.1993525
375.70 0.1997426
375.80 0.2001324
375.90 0.2005216
376.00 0.2009366
376.10 0.2013271
376.20 0.2017169
376.30 0.2021063
376.40 0.2024952
376.50 0.2028907
376.60 0.203296
376.70 0.2037009
376.80 0.2040987
376.90 0.2044895
377.00 0.2048798
377.10 0.2052697
377.20 0.2056629
377.30 0.2060701
377.40 0.2064768
377.50 0.206883
377.60 0.2072844
377.70 0.2076854
377.80 0.208086
377.90 0.2084861
378.00 0.2088936
378.10 0.2093009
378.20 0.2097075
378.30 0.2101137
378.40 0.2105194
378.50 0.2109247
378.60 0.2113295
378.70 0.2117338
378.80 0.2121377
378.90 0.2125401
379.00 0.2129401
379.10 0.213346
379.20 0.2137514
379.30 0.214162
379.40 0.2145777
379.50 0.2149929
379.60 0.2153991
379.70 0.2157969
379.80 0.216212
379.90 0.2166266
380.00 0.2170407
380.10 0.2174544
380.20 0.2178676
380.30 0.2182804
380.40 0.2186926
380.50 0.2191044
380.60 0.2195088
380.70 0.2199288
380.80 0.2203483
380.90 0.2207674
381.00 0.221186
381.10 0.2216041
381.20 0.222017
381.30 0.222455
381.40 0.2228688
381.50 0.2232769
381.60 0.2236895
381.70 0.224118
381.80 0.2245605
381.90 0.2249749
382.00 0.2253888
382.10 0.2258022
382.20 0.2262237
382.30 0.2266574
382.40 0.2270844
382.50 0.2275014
382.60 0.2279179
382.70 0.2283494
382.80 0.2287854
382.90 0.2292087
383.00 0.2296315
383.10 0.2300538
383.20 0.2304796
383.30 0.2309195
383.40 0.2313521
383.50 0.2317741
383.60 0.2322094
383.70 0.2326439
383.80 0.2330778
383.90 0.2335112
384.00 0.2339442
384.10 0.2343767
384.20 0.2348087
384.30 0.2352402
384.40 0.2356736
384.50 0.2361089
384.60 0.2365436
384.70 0.2369779
384.80 0.2374073
384.90 0.2378337
385.00 0.2382852
385.10 0.2387355
385.20 0.2391532
385.30 0.2395808
385.40 0.2400147
385.50 0.2404549
385.60 0.2408946
385.70 0.2413337
385.80 0.241777
385.90 0.2422366
386.00 0.2426841
386.10 0.2431196
386.20 0.2435561
386.30 0.2439921
386.40 0.2444348
386.50 0.2448905
386.60 0.2453269
386.70 0.2457811
386.80 0.2462244
386.90 0.2466569
387.00 0.2471262
387.10 0.2475774
387.20 0.2480042
387.30 0.2484401
387.40 0.2489198
387.50 0.2493486
387.60 0.2498234
387.70 0.2502727
387.80 0.2507214
387.90 0.2511697
388.00 0.251617
388.10 0.2520762
388.20 0.2525198
388.30 0.2529778
388.40 0.2534354
388.50 0.2538888
388.60 0.2543305
388.70 0.2547909
388.80 0.2552355
388.90 0.2556813
389.00 0.2561373
389.10 0.2565922
389.20 0.2570525
389.30 0.2575198
389.40 0.2579753
389.50 0.2584291
389.60 0.2588877
389.70 0.2593632
389.80 0.2598207
389.90 0.2602776
390.00 0.2607341
390.10 0.26119
390.20 0.2616454
390.30 0.2621048
390.40 0.2625687
390.50 0.2630321
390.60 0.263495
390.70 0.2639573
390.80 0.2644307
390.90 0.264915
391.00 0.2653553
391.10 0.2658303
391.20 0.2663032
391.30 0.2667722
391.40 0.2672436
391.50 0.2677146
391.60 0.268185
391.70 0.2686548
391.80 0.2691242
391.90 0.2695922
392.00 0.2700619
392.10 0.2705358
392.20 0.2710096
392.30 0.2714809
392.40 0.271945
392.50 0.2724358
392.60 0.272901
392.70 0.2733658
392.80 0.27383
392.90 0.2743078
393.00 0.2747881
393.10 0.275264
393.20 0.2757359
393.30 0.2762176
393.40 0.2767031
393.50 0.2771955
393.60 0.2776579
393.70 0.2781175
393.80 0.2786185
393.90 0.2790971
394.00 0.2795774
394.10 0.2800632
394.20 0.2805294
394.30 0.2810035
394.40 0.2814859
394.50 0.2820018
394.60 0.2824824
394.70 0.2829621
394.80 0.2834399
394.90 0.2839175
395.00 0.2844092
395.10 0.284884
395.20 0.2853659
395.30 0.2858556
395.40 0.2863446
395.50 0.2868301
395.60 0.2873138
395.70 0.287799
395.80 0.288289
395.90 0.2887785
396.00 0.2892712
396.10 0.2897891
396.20 0.2902754
396.30 0.2907506
396.40 0.2912428
396.50 0.2917538
396.60 0.2922445
396.70 0.2927344
396.80 0.2932145
396.90 0.2937118
397.00 0.2942136
397.10 0.2946887
397.20 0.2951989
397.30 0.2957126
397.40 0.2962064
397.50 0.2966997
397.60 0.2971924
397.70 0.2976831
397.80 0.2981732
397.90 0.2986679
398.00 0.2991755
398.10 0.2996826
398.20 0.3001895
398.30 0.3006962
398.40 0.3012016
398.50 0.3016818
398.60 0.3021915
398.70 0.302697
398.80 0.3031983
398.90 0.3037032
399.00 0.3042152
399.10 0.3047068
399.20 0.3052152
399.30 0.305723
399.40 0.3062304
399.50 0.3067371
399.60 0.3072447
399.70 0.3077523
399.80 0.3082593
399.90 0.3087658
400.00 0.3092716
400.10 0.3097732
400.20 0.3102883
400.30 0.3107994
400.40 0.3113174
400.50 0.311808
400.60 0.3123398
400.70 0.3128605
400.80 0.3133805
400.90 0.3138614
401.00 0.3143713
401.10 0.3148988
401.20 0.3154083
401.30 0.3159312
401.40 0.3164481
401.50 0.3169607
401.60 0.3174731
401.70 0.3179956
401.80 0.3185038
401.90 0.31902
402.00 0.3195676
402.10 0.3200802
402.20 0.3205934
402.30 0.3211052
402.40 0.3216158
402.50 0.3221645
402.60 0.322676
402.70 0.3231841
402.80 0.3237314
402.90 0.3242399
403.00 0.3247478
403.10 0.3252933
403.20 0.3258022
403.30 0.3263451
403.40 0.3268525
403.50 0.3273745
403.60 0.3279038
403.70 0.3284402
403.80 0.3289829
403.90 0.3294901
404.00 0.3300126
404.10 0.330565
404.20 0.3310853
404.30 0.331605
404.40 0.332138
404.50 0.3326617
404.60 0.3331988
404.70 0.3337162
404.80 0.3342541
404.90 0.3347874
405.00 0.3353163
405.10 0.3358509
405.20 0.3363872
405.30 0.336923
405.40 0.3374617
405.50 0.3379999
405.60 0.3385376
405.70 0.3390746
405.80 0.3396111
405.90 0.340147
406.00 0.340684
406.10 0.3412205
406.20 0.3417564
406.30 0.3422918
406.40 0.342828
406.50 0.3433617
406.60 0.3439137
406.70 0.3444506
406.80 0.3449991
406.90 0.3455463
407.00 0.3460922
407.10 0.3466375
407.20 0.3471822
407.30 0.3477264
407.40 0.34827
407.50 0.348813
407.60 0.3493554
407.70 0.3498973
407.80 0.3504385
407.90 0.3509793
408.00 0.3515204
408.10 0.3520674
408.20 0.3526166
408.30 0.3531594
408.40 0.3537017
408.50 0.3542422
408.60 0.3548021
408.70 0.3553614
408.80 0.3559193
408.90 0.356471
409.00 0.3570231
409.10 0.3575746
409.20 0.3581256
409.30 0.3586759
409.40 0.3592256
409.50 0.3597695
409.60 0.3603128
409.70 0.3608584
409.80 0.3614147
409.90 0.361971
410.00 0.3625473
410.10 0.3631086
410.20 0.363667
410.30 0.3642242
410.40 0.3647793
410.50 0.3653285
410.60 0.3658772
410.70 0.3664171
410.80 0.3669237
410.90 0.3674298
411.00 0.3680437
411.10 0.3686969
411.20 0.3693495
411.30 0.3699606
411.40 0.3704121
411.50 0.3710093
411.60 0.3716058
411.70 0.3721928
411.80 0.3727441
411.90 0.3733314
412.00 0.3736987
412.10 0.374431
412.20 0.3747973
412.30 0.3754706
412.40 0.37592
412.50 0.3765973
412.60 0.377196
412.70 0.3777366
412.80 0.3782623
412.90 0.3790023
413.00 0.3793595
413.10 0.3799697
413.20 0.3805792
413.30 0.3811881
413.40 0.3817964
413.50 0.3823968
413.60 0.3829605
413.70 0.3835007
413.80 0.3840404
413.90 0.3845794
414.00 0.3851179
414.10 0.3856558
414.20 0.3862366
414.30 0.3869542
414.40 0.3873819
414.50 0.3880176
414.60 0.3886981
414.70 0.3892325
414.80 0.3897663
414.90 0.3902996
415.00 0.3908323
415.10 0.3913644
415.20 0.3919116
415.30 0.3925077
415.40 0.3931031
415.50 0.3936976
415.60 0.3942809
415.70 0.3948637
415.80 0.3954589
415.90 0.396095
416.00 0.3967305
416.10 0.3973549
416.20 0.3979373
416.30 0.3985191
416.40 0.3991003
416.50 0.3996792
416.60 0.4002026
416.70 0.4007308
416.80 0.4014355
416.90 0.40194
417.00 0.4025625
417.10 0.4031681
417.20 0.4036881
417.30 0.4042088
417.40 0.4047704
417.50 0.4053315
417.60 0.4059236
417.70 0.4066371
417.80 0.4072129
417.90 0.4077881
418.00 0.4083627
418.10 0.4089367
418.20 0.40951
418.30 0.4100867
418.40 0.4107669
418.50 0.4113787
418.60 0.4119898
418.70 0.4126003
418.80 0.4132102
418.90 0.4138194
419.00 0.414428
419.10 0.415036
419.20 0.4156434
419.30 0.4162484
419.40 0.4167981
419.50 0.4173471
419.60 0.4179129
419.70 0.4185471
419.80 0.4191806
419.90 0.4198039
420.00 0.4203967
420.10 0.4209888
420.20 0.4215803
420.30 0.4221713
420.40 0.4227616
420.50 0.4233512
420.60 0.4239403
420.70 0.4245288
420.80 0.4251167
420.90 0.4257067
421.00 0.4263863
421.10 0.4270651
421.20 0.4277227
421.30 0.4283178
421.40 0.4289123
421.50 0.4295062
421.60 0.4300995
421.70 0.4306922
421.80 0.4312843
421.90 0.4318898
422.00 0.4325394
422.10 0.4331714
422.20 0.4337351
422.30 0.4342983
422.40 0.4348626
422.50 0.4354825
422.60 0.4361018
422.70 0.4367205
422.80 0.4373386
422.90 0.437956
423.00 0.4385728
423.10 0.4391889
423.20 0.4398044
423.30 0.4404193
423.40 0.4410336
423.50 0.4416472
423.60 0.4422602
423.70 0.4428726
423.80 0.4434843
423.90 0.4440954
424.00 0.4447059
424.10 0.4453158
424.20 0.445925
424.30 0.4465336
424.40 0.4469703
424.50 0.4475947
424.60 0.4482185
424.70 0.4488417
424.80 0.4494642
424.90 0.4500861
425.00 0.4507074
425.10 0.451328
425.20 0.451948
425.30 0.4525673
425.40 0.4531902
425.50 0.4538399
425.60 0.454489
425.70 0.4551374
425.80 0.4557851
425.90 0.4564322
426.00 0.4570787
426.10 0.4577244
426.20 0.4583696
426.30 0.459014
426.40 0.4596579
426.50 0.460301
426.60 0.4609435
426.70 0.4615854
426.80 0.4622266
426.90 0.4628668
427.00 0.4634938
427.10 0.4641203
427.20 0.4647461
427.30 0.4653713
427.40 0.4659958
427.50 0.4666197
427.60 0.467243
427.70 0.4678656
427.80 0.4684876
427.90 0.469109
428.00 0.4697297
428.10 0.4703498
428.20 0.4709693
428.30 0.4715881
428.40 0.4722063
428.50 0.4728239
428.60 0.4734409
428.70 0.4740572
428.80 0.4746758
428.90 0.4753317
429.00 0.475987
429.10 0.4766416
429.20 0.4772955
429.30 0.4779488
429.40 0.4786014
429.50 0.4792534
429.60 0.4799047
429.70 0.4805554
429.80 0.4812054
429.90 0.4818547
430.00 0.4825034
430.10 0.4831514
430.20 0.4837988
430.30 0.4844455
430.40 0.4850916
430.50 0.485737
430.60 0.4863817
430.70 0.4870258
430.80 0.4876693
430.90 0.4883121
431.00 0.4889543
431.10 0.4895958
431.20 0.4902366
431.30 0.490878
431.40 0.4915343
431.50 0.4921899
431.60 0.4928448
431.70 0.493499
431.80 0.4941527
431.90 0.4948056
432.00 0.4954579
432.10 0.4961095
432.20 0.4967605
432.30 0.4974108
432.40 0.4980605
432.50 0.4987095
432.60 0.4993579
432.70 0.5000056
432.80 0.5006526
432.90 0.501299
433.00 0.5019448
433.10 0.5025899
433.20 0.5032343
433.30 0.5038769
433.40 0.5045027
433.50 0.5051279
433.60 0.5057524
433.70 0.5063763
433.80 0.5070195
433.90 0.5076866
434.00 0.5083444
434.10 0.5089962
434.20 0.5096474
434.30 0.510298
434.40 0.5109479
434.50 0.5115971
434.60 0.5122457
434.70 0.5128936
434.80 0.513542
434.90 0.5142037
435.00 0.5148647
435.10 0.5155251
435.20 0.5161848
435.30 0.5168438
435.40 0.5175022
435.50 0.51816
435.60 0.5188171
435.70 0.5194735
435.80 0.5201292
435.90 0.5207843
436.00 0.5214388
436.10 0.5220926
436.20 0.5227457
436.30 0.5234221
436.40 0.5241242
436.50 0.5247902
436.60 0.5254555
436.70 0.5261201
436.80 0.5267841
436.90 0.5274474
437.00 0.52811
437.10 0.528772
437.20 0.5294461
437.30 0.5301313
437.40 0.5308153
437.50 0.5314915
437.60 0.5321669
437.70 0.5328417
437.80 0.5335159
437.90 0.5341893
438.00 0.5348584
438.10 0.5354783
438.20 0.5360975
438.30 0.536843
438.40 0.5374426
438.50 0.5381659
438.60 0.5388772
438.70 0.5394378
438.80 0.5403202
438.90 0.5408795
439.00 0.5414496
439.10 0.5421687
439.20 0.5428871
439.30 0.5436049
439.40 0.5443219
439.50 0.5450382
439.60 0.5457272
439.70 0.5462272
439.80 0.5469023
439.90 0.5476056
440.00 0.5483083
440.10 0.5490103
440.20 0.54971
440.30 0.5503888
440.40 0.5510669
440.50 0.5517444
440.60 0.5524212
440.70 0.5530973
440.80 0.5537727
440.90 0.5544475
441.00 0.5551216
441.10 0.555795
441.20 0.5564719
441.30 0.5572034
441.40 0.5579321
441.50 0.5586575
441.60 0.5593821
441.70 0.5599161
441.80 0.5605851
441.90 0.5612534
442.00 0.561921
442.10 0.562588
442.20 0.5632543
442.30 0.56392
442.40 0.5646389
442.50 0.565423
442.60 0.5662064
442.70 0.5668594
442.80 0.5673358
442.90 0.5680562
443.00 0.5687791
443.10 0.5695052
443.20 0.570196
443.30 0.5708543
443.40 0.5715263
443.50 0.5722153
443.60 0.572872
443.70 0.5736779
443.80 0.5742466
443.90 0.575051
444.00 0.5756499
444.10 0.5763348
444.20 0.5772235
444.30 0.5779658
444.40 0.5785454
444.50 0.5791244
444.60 0.5797646
444.70 0.5804796
444.80 0.5812078
444.90 0.5819482
445.00 0.5826878
445.10 0.5834267
445.20 0.5841425
445.30 0.5848303
445.40 0.5855174
445.50 0.5862038
445.60 0.5868896
445.70 0.5875747
445.80 0.5882849
445.90 0.5890181
446.00 0.5897507
446.10 0.5904825
446.20 0.5910773
446.30 0.5917869
446.40 0.59232
446.50 0.5930666
446.60 0.5938124
446.70 0.5945575
446.80 0.5952614
446.90 0.5959274
447.00 0.5966051
447.10 0.5973318
447.20 0.598151
447.30 0.5986591
447.40 0.5995574
447.50 0.6002193
447.60 0.6009272
447.70 0.6016774
447.80 0.6021512
447.90 0.6028442
448.00 0.6035458
448.10 0.6042553
448.20 0.6049641
448.30 0.6056722
448.40 0.6063797
448.50 0.6070864
448.60 0.6078083
448.70 0.608544
448.80 0.6092787
448.90 0.6100073
449.00 0.6107352
449.10 0.6114624
449.20 0.6121889
449.30 0.6127729
449.40 0.6134916
449.50 0.6142096
449.60 0.6149214
449.70 0.6156275
449.80 0.6163328
449.90 0.6170375
450.00 0.6177415
450.10 0.6184449
450.20 0.6191475
450.30 0.6198494
450.40 0.6205941
450.50 0.621338
450.60 0.6220813
450.70 0.6228237
450.80 0.6235655
450.90 0.6243066
451.00 0.6250141
451.10 0.625721
451.20 0.6263602
451.30 0.6271621
451.40 0.627798
451.50 0.6284334
451.60 0.6292203
451.70 0.6298543
451.80 0.6306398
451.90 0.6312725
452.00 0.6320565
452.10 0.6328398
452.20 0.6335464
452.30 0.6342523
452.40 0.6349576
452.50 0.6356621
452.60 0.6364049
452.70 0.6371375
452.80 0.6378608
452.90 0.6385833
453.00 0.6393051
453.10 0.6400263
453.20 0.6407589
453.30 0.6414907
453.40 0.6422219
453.50 0.6429524
453.60 0.6436821
453.70 0.6444112
453.80 0.6451164
453.90 0.6457927
454.00 0.6464684
454.10 0.6471434
454.20 0.6479016
454.30 0.6486591
454.40 0.6494159
454.50 0.6501719
454.60 0.6509272
454.70 0.6516599
454.80 0.6523717
454.90 0.6530828
455.00 0.6537932
455.10 0.6545029
455.20 0.655212
455.30 0.6559203
455.40 0.656628
455.50 0.657335
455.60 0.6580413
455.70 0.6587469
455.80 0.6594992
455.90 0.6602507
456.00 0.6610014
456.10 0.661748
456.20 0.6624844
456.30 0.6632201
456.40 0.663955
456.50 0.6646893
456.60 0.6654229
456.70 0.6661557
456.80 0.6668879
456.90 0.6676193
457.00 0.6683501
457.10 0.6690801
457.20 0.6698718
457.30 0.6705966
457.40 0.6713207
457.50 0.6720441
457.60 0.6727668
457.70 0.6734888
457.80 0.6742101
457.90 0.6749307
458.00 0.6756506
458.10 0.6763698
458.20 0.6770883
458.30 0.6778062
458.40 0.6785233
458.50 0.6792398
458.60 0.6799555
458.70 0.680686
458.80 0.6814221
458.90 0.6821575
459.00 0.6828922
459.10 0.6836262
459.20 0.6843595
459.30 0.6851086
459.40 0.685857
459.50 0.6866048
459.60 0.6873518
459.70 0.688098
459.80 0.6888436
459.90 0.6895885
460.00 0.6903326
460.10 0.6910761
460.20 0.6918188
460.30 0.6925608
460.40 0.6933021
460.50 0.6940427
460.60 0.6947826
460.70 0.6955355
460.80 0.6962944
460.90 0.6970526
461.00 0.6978101
461.10 0.6985669
461.20 0.6992219
461.30 0.6998351
461.40 0.7005742
461.50 0.7013443
461.60 0.7021137
461.70 0.7028823
461.80 0.703637
461.90 0.704391
462.00 0.7051442
462.10 0.7058968
462.20 0.7066486
462.30 0.7073997
462.40 0.7081501
462.50 0.7088998
462.60 0.7096488
462.70 0.710397
462.80 0.7111445
462.90 0.7118914
463.00 0.7126375
463.10 0.7133829
463.20 0.7141233
463.30 0.7148612
463.40 0.7155984
463.50 0.716335
463.60 0.7170708
463.70 0.7178059
463.80 0.7185403
463.90 0.7192949
464.00 0.7200539
464.10 0.7208123
464.20 0.7215699
464.30 0.7223268
464.40 0.7230829
464.50 0.7238384
464.60 0.7245931
464.70 0.7253252
464.80 0.7260476
464.90 0.7267693
465.00 0.7274903
465.10 0.7282106
465.20 0.7289303
465.30 0.7296823
465.40 0.7304557
465.50 0.7312284
465.60 0.7320003
465.70 0.7327716
465.80 0.733542
465.90 0.7342831
466.00 0.7350162
466.10 0.7357486
466.20 0.7364804
466.30 0.7372383
466.40 0.7380064
466.50 0.7387738
466.60 0.7395405
466.70 0.7403065
466.80 0.7410718
466.90 0.7418363
467.00 0.7426001
467.10 0.7433632
467.20 0.7441255
467.30 0.7447856
467.40 0.7455473
467.50 0.7463443
467.60 0.7471405
467.70 0.747936
467.80 0.7487307
467.90 0.7494885
468.00 0.750231
468.10 0.7509727
468.20 0.7517137
468.30 0.7524038
468.40 0.7530727
468.50 0.753823
468.60 0.7548028
468.70 0.7554401
468.80 0.7561735
468.90 0.7569315
469.00 0.7576232
469.10 0.7584015
469.20 0.759206
469.30 0.7600097
469.40 0.7608127
469.50 0.7615925
469.60 0.7623624
469.70 0.7631315
469.80 0.7639
469.90 0.7646606
470.00 0.7653608
470.10 0.7661058
470.20 0.7668663
470.30 0.7676261
470.40 0.7683852
470.50 0.7691436
470.60 0.7699305
470.70 0.7707239
470.80 0.7715166
470.90 0.7723086
471.00 0.7730259
471.10 0.77365
471.20 0.7743446
471.30 0.7753433
471.40 0.7759222
471.50 0.7767098
471.60 0.7775526
471.70 0.7783388
471.80 0.7791242
471.90 0.7799089
472.00 0.7806929
472.10 0.7814761
472.20 0.7822428
472.30 0.7830049
472.40 0.7837663
472.50 0.784527
472.60 0.7852869
472.70 0.7859214
472.80 0.7866606
472.90 0.7874381
473.00 0.7882148
473.10 0.7889909
473.20 0.7897662
473.30 0.7905408
473.40 0.7913147
473.50 0.7920878
473.60 0.7928602
473.70 0.7936319
473.80 0.7943834
473.90 0.7951294
474.00 0.7958746
474.10 0.7966191
474.20 0.7974023
474.30 0.7982008
474.40 0.7989985
474.50 0.7997954
474.60 0.8005883
474.70 0.8013468
474.80 0.8021045
474.90 0.8028616
475.00 0.8036179
475.10 0.8043735
475.20 0.8051284
475.30 0.8058826
475.40 0.8066583
475.50 0.8074388
475.60 0.8082186
475.70 0.8089977
475.80 0.809776
475.90 0.8105536
476.00 0.8113305
476.10 0.8121067
476.20 0.8128768
476.30 0.8136442
476.40 0.8144108
476.50 0.8151767
476.60 0.8159419
476.70 0.8167063
476.80 0.8174701
476.90 0.8182536
477.00 0.8190416
477.10 0.8198287
477.20 0.8206152
477.30 0.8214009
477.40 0.8221859
477.50 0.8229702
477.60 0.8237537
477.70 0.8245365
477.80 0.8253186
477.90 0.8261
478.00 0.8268806
478.10 0.8276605
478.20 0.8284397
478.30 0.8292182
478.40 0.8299959
478.50 0.8307729
478.60 0.8315492
478.70 0.8323329
478.80 0.8331193
478.90 0.8338775
479.00 0.8346282
479.10 0.8353782
479.20 0.8361274
479.30 0.836876
479.40 0.837647
479.50 0.8384307
479.60 0.8392137
479.70 0.839996
479.80 0.8407776
479.90 0.8415584
480.00 0.8423386
480.10 0.843118
480.20 0.8438967
480.30 0.8446746
480.40 0.8454519
480.50 0.8462284
480.60 0.8470042
480.70 0.8477792
480.80 0.8485536
480.90 0.8493273
481.00 0.8501002
481.10 0.8508724
481.20 0.8516469
481.30 0.8524207
481.40 0.8531937
481.50 0.8539661
481.60 0.8547377
481.70 0.8555087
481.80 0.8562789
481.90 0.8570484
482.00 0.8578171
482.10 0.8585852
482.20 0.8593549
482.30 0.8601554
482.40 0.8609552
482.50 0.8617542
482.60 0.8625525
482.70 0.8633501
482.80 0.8641469
482.90 0.864943
483.00 0.8657383
483.10 0.866533
483.20 0.8673269
483.30 0.86812
483.40 0.8689124
483.50 0.8697041
483.60 0.8704951
483.70 0.8712864
483.80 0.8720771
483.90 0.8728669
484.00 0.8736561
484.10 0.8744445
484.20 0.875218
484.30 0.8759847
484.40 0.8767507
484.50 0.8775159
484.60 0.8782805
484.70 0.8790471
484.80 0.8798491
484.90 0.8806504
485.00 0.881451
485.10 0.8822508
485.20 0.8830499
485.30 0.8838483
485.40 0.8846459
485.50 0.8854428
485.60 0.886239
485.70 0.8870054
485.80 0.8877712
485.90 0.8885363
486.00 0.8893006
486.10 0.8900643
486.20 0.8908273
486.30 0.8915895
486.40 0.8923511
486.50 0.8931119
486.60 0.8938721
486.70 0.8946338
486.80 0.8954246
486.90 0.8962147
487.00 0.8970041
487.10 0.8977928
487.20 0.8985965
487.30 0.8993995
487.40 0.9002018
487.50 0.9010034
487.60 0.9018042
487.70 0.9026042
487.80 0.9034036
487.90 0.9042022
488.00 0.9050001
488.10 0.9057973
488.20 0.9065911
488.30 0.9073493
488.40 0.9081069
488.50 0.9088638
488.60 0.90962
488.70 0.9103754
488.80 0.9112446
488.90 0.9121129
489.00 0.9129526
489.10 0.9137198
489.20 0.9144863
489.30 0.9152521
489.40 0.9160172
489.50 0.9167816
489.60 0.9175452
489.70 0.9183082
489.80 0.9193055
489.90 0.9200524
490.00 0.9207986
490.10 0.9215442
490.20 0.922289
490.30 0.9230332
490.40 0.9238182
490.50 0.9246025
490.60 0.925386
490.70 0.9261689
490.80 0.9271641
490.90 0.9279899
491.00 0.9286418
491.10 0.9294217
491.20 0.930201
491.30 0.931108
491.40 0.9318413
491.50 0.9326628
491.60 0.9334191
491.70 0.9341805
491.80 0.9349453
491.90 0.9357638
492.00 0.9364989
492.10 0.9373998
492.20 0.9381494
492.30 0.9389432
492.40 0.939836
492.50 0.9406501
492.60 0.9413719
492.70 0.9421404
492.80 0.9429082
492.90 0.9436753
493.00 0.9444458
493.10 0.9452712
493.20 0.9460958
493.30 0.9469196
493.40 0.9477427
493.50 0.9485651
493.60 0.9492796
493.70 0.9500353
493.80 0.9507903
493.90 0.9515797
494.00 0.9524232
494.10 0.9532448
494.20 0.9540208
494.30 0.9547961
494.40 0.9555707
494.50 0.9563446
494.60 0.9571249
494.70 0.9579991
494.80 0.958848
494.90 0.9596265
495.00 0.9604044
495.10 0.9611815
495.20 0.96197
495.30 0.9627578
495.40 0.9635448
495.50 0.9643312
495.60 0.9651168
495.70 0.9659017
495.80 0.9666859
495.90 0.9674693
496.00 0.9682521
496.10 0.9690464
496.20 0.9698635
496.30 0.9706491
496.40 0.9714339
496.50 0.972218
496.60 0.9730015
496.70 0.9738042
496.80 0.9746061
496.90 0.9754074
497.00 0.9762079
497.10 0.9770077
497.20 0.9778068
497.30 0.9786061
497.40 0.9794073
497.50 0.9802077
497.60 0.9810105
497.70 0.981818
497.80 0.9826111
497.90 0.9834034
498.00 0.984195
498.10 0.9849859
498.20 0.985776
498.30 0.9865655
498.40 0.9873542
498.50 0.9881423
498.60 0.9889296
498.70 0.9897809
498.80 0.9906314
498.90 0.9913862
499.00 0.9921404
499.10 0.9928939
499.20 0.9936545
499.30 0.9944346
499.40 0.9952243
499.50 0.9960133
499.60 0.9968015
499.70 0.9975903
499.80 0.9983943
499.90 0.9991975
500.00 1
500.10 1.000802
500.20 1.001602
500.30 1.0024
500.40 1.003198
500.50 1.003995
500.60 1.004791
500.70 1.005586
500.80 1.006379
500.90 1.00717
501.00 1.007959
501.10 1.008748
501.20 1.00969
501.30 1.010399
501.40 1.011146
501.50 1.011977
501.60 1.012807
501.70 1.013636
501.80 1.014465
501.90 1.015292
502.00 1.016111
502.10 1.01691
502.20 1.017702
502.30 1.018422
502.40 1.019174
502.50 1.019998
502.60 1.02082
502.70 1.021642
502.80 1.022464
502.90 1.023284
503.00 1.024098
503.10 1.024899
503.20 1.025699
503.30 1.026499
503.40 1.027291
503.50 1.028066
503.60 1.02884
503.70 1.029613
503.80 1.030391
503.90 1.031204
504.00 1.032011
504.10 1.032805
504.20 1.033598
504.30 1.03439
504.40 1.035187
504.50 1.035996
504.60 1.036804
504.70 1.037611
504.80 1.038418
504.90 1.039224
505.00 1.04003
505.10 1.040834
505.20 1.041627
505.30 1.042387
505.40 1.043146
505.50 1.043905
505.60 1.044673
505.70 1.045461
505.80 1.046249
505.90 1.047036
506.00 1.047822
506.10 1.048608
506.20 1.049398
506.30 1.050202
506.40 1.051006
506.50 1.051809
506.60 1.052611
506.70 1.053412
506.80 1.054213
506.90 1.055013
507.00 1.055812
507.10 1.056659
507.20 1.057567
507.30 1.058356
507.40 1.059144
507.50 1.059932
507.60 1.060718
507.70 1.061505
507.80 1.06229
507.90 1.063075
508.00 1.063859
508.10 1.064642
508.20 1.065425
508.30 1.066207
508.40 1.066988
508.50 1.067769
508.60 1.068549
508.70 1.069328
508.80 1.070154
508.90 1.070973
509.00 1.07174
509.10 1.07252
509.20 1.07333
509.30 1.074138
509.40 1.074946
509.50 1.075754
509.60 1.07656
509.70 1.077366
509.80 1.078171
509.90 1.078976
510.00 1.079779
510.10 1.080582
510.20 1.081385
510.30 1.082184
510.40 1.082975
510.50 1.083765
510.60 1.084555
510.70 1.085344
510.80 1.086133
510.90 1.08692
511.00 1.087707
511.10 1.088494
511.20 1.089279
511.30 1.090064
511.40 1.090848
511.50 1.091632
511.60 1.092425
511.70 1.093241
511.80 1.094055
511.90 1.094869
512.00 1.095683
512.10 1.096495
512.20 1.097307
512.30 1.098114
512.40 1.098911
512.50 1.099707
512.60 1.100502
512.70 1.101297
512.80 1.102091
512.90 1.102884
513.00 1.103676
513.10 1.104468
513.20 1.105259
513.30 1.106049
513.40 1.106839
513.50 1.107628
513.60 1.108416
513.70 1.109204
513.80 1.109991
513.90 1.110777
514.00 1.111576
514.10 1.112378
514.20 1.113178
514.30 1.113978
514.40 1.114777
514.50 1.115575
514.60 1.116373
514.70 1.11717
514.80 1.117966
514.90 1.118762
515.00 1.119557
515.10 1.120351
515.20 1.121144
515.30 1.121937
515.40 1.122729
515.50 1.12352
515.60 1.124311
515.70 1.125101
515.80 1.12589
515.90 1.126679
516.00 1.127467
516.10 1.128254
516.20 1.12904
516.30 1.129826
516.40 1.130611
516.50 1.131398
516.60 1.132201
516.70 1.133002
516.80 1.133803
516.90 1.134603
517.00 1.135403
517.10 1.136202
517.20 1.137
517.30 1.137797
517.40 1.138594
517.50 1.13939
517.60 1.140185
517.70 1.140979
517.80 1.141773
517.90 1.142566
518.00 1.143359
518.10 1.144151
518.20 1.144942
518.30 1.145732
518.40 1.146522
518.50 1.147311
518.60 1.148099
518.70 1.148887
518.80 1.149674
518.90 1.15046
519.00 1.151245
519.10 1.152043
519.20 1.152855
519.30 1.153665
519.40 1.154475
519.50 1.155285
519.60 1.156094
519.70 1.156902
519.80 1.157709
519.90 1.158515
520.00 1.159321
520.10 1.160126
520.20 1.160931
520.30 1.161735
520.40 1.162538
520.50 1.16334
520.60 1.164142
520.70 1.164942
520.80 1.165743
520.90 1.166542
521.00 1.167341
521.10 1.168139
521.20 1.168937
521.30 1.169733
521.40 1.170529
521.50 1.171325
521.60 1.172119
521.70 1.172913
521.80 1.173707
521.90 1.174499
522.00 1.175291
522.10 1.176082
522.20 1.176873
522.30 1.177662
522.40 1.178451
522.50 1.17924
522.60 1.180028
522.70 1.180815
522.80 1.181601
522.90 1.182387
523.00 1.183172
523.10 1.183956
523.20 1.184739
523.30 1.185522
523.40 1.186305
523.50 1.187086
523.60 1.187867
523.70 1.188647
523.80 1.189427
523.90 1.190205
524.00 1.190984
524.10 1.191761
524.20 1.192538
524.30 1.193329
524.40 1.194131
524.50 1.194933
524.60 1.195733
524.70 1.196533
524.80 1.197333
524.90 1.198132
525.00 1.19893
525.10 1.199727
525.20 1.200523
525.30 1.201319
525.40 1.202115
525.50 1.202909
525.60 1.203703
525.70 1.204496
525.80 1.205289
525.90 1.20608
526.00 1.206871
526.10 1.207662
526.20 1.208452
526.30 1.209241
526.40 1.210029
526.50 1.210817
526.60 1.211604
526.70 1.21239
526.80 1.213175
526.90 1.21396
527.00 1.214745
527.10 1.215528
527.20 1.216311
527.30 1.217093
527.40 1.217875
527.50 1.218655
527.60 1.219436
527.70 1.220215
527.80 1.220994
527.90 1.221772
528.00 1.222549
528.10 1.223326
528.20 1.224102
528.30 1.224878
528.40 1.225652
528.50 1.226426
528.60 1.2272
528.70 1.227972
528.80 1.228744
528.90 1.229516
529.00 1.230286
529.10 1.231056
529.20 1.231826
529.30 1.232595
529.40 1.233363
529.50 1.234133
529.60 1.23492
529.70 1.235707
529.80 1.236493
529.90 1.237279
530.00 1.238064
530.10 1.238848
530.20 1.239631
530.30 1.240414
530.40 1.241196
530.50 1.241977
530.60 1.242758
530.70 1.243538
530.80 1.244318
530.90 1.245096
531.00 1.245874
531.10 1.246652
531.20 1.247428
531.30 1.248204
531.40 1.24898
531.50 1.249754
531.60 1.250528
531.70 1.251302
531.80 1.252074
531.90 1.252846
532.00 1.253618
532.10 1.254388
532.20 1.255175
532.30 1.25597
532.40 1.256764
532.50 1.257557
532.60 1.258349
532.70 1.259141
532.80 1.259932
532.90 1.260723
533.00 1.261513
533.10 1.262302
533.20 1.26309
533.30 1.263878
533.40 1.264665
533.50 1.265452
533.60 1.266237
533.70 1.267022
533.80 1.267807
533.90 1.268591
534.00 1.269374
534.10 1.270156
534.20 1.270938
534.30 1.271719
534.40 1.272499
534.50 1.273279
534.60 1.274058
534.70 1.274836
534.80 1.275616
534.90 1.276404
535.00 1.277192
535.10 1.27798
535.20 1.278766
535.30 1.279552
535.40 1.280337
535.50 1.281122
535.60 1.281906
535.70 1.282689
535.80 1.283472
535.90 1.284254
536.00 1.285035
536.10 1.285815
536.20 1.286595
536.30 1.287375
536.40 1.288153
536.50 1.288931
536.60 1.289708
536.70 1.290485
536.80 1.29126
536.90 1.292036
537.00 1.29281
537.10 1.293584
537.20 1.294357
537.30 1.29513
537.40 1.295902
537.50 1.296673
537.60 1.297443
537.70 1.298213
537.80 1.298982
537.90 1.299751
538.00 1.300519
538.10 1.301286
538.20 1.302053
538.30 1.302819
538.40 1.303584
538.50 1.304348
538.60 1.305112
538.70 1.305876
538.80 1.306638
538.90 1.3074
539.00 1.308161
539.10 1.308922
539.20 1.309682
539.30 1.310441
539.40 1.3112
539.50 1.311958
539.60 1.312716
539.70 1.313472
539.80 1.314228
539.90 1.314984
540.00 1.315739
540.10 1.316493
540.20 1.317266
540.30 1.318046
540.40 1.318825
540.50 1.319604
540.60 1.320382
540.70 1.321159
540.80 1.321936
540.90 1.322712
541.00 1.323487
541.10 1.324262
541.20 1.325036
541.30 1.325809
541.40 1.326582
541.50 1.327354
541.60 1.328125
541.70 1.328896
541.80 1.329666
541.90 1.330436
542.00 1.331204
542.10 1.331972
542.20 1.33274
542.30 1.333507
542.40 1.334273
542.50 1.335038
542.60 1.335803
542.70 1.336567
542.80 1.337331
542.90 1.338094
543.00 1.338856
543.10 1.339617
543.20 1.340378
543.30 1.341138
543.40 1.341898
543.50 1.342657
543.60 1.343415
543.70 1.344173
543.80 1.34493
543.90 1.345686
544.00 1.346442
544.10 1.347197
544.20 1.347952
544.30 1.348705
544.40 1.349458
544.50 1.350211
544.60 1.350963
544.70 1.351714
544.80 1.352464
544.90 1.353214
545.00 1.353964
545.10 1.354712
545.20 1.35546
545.30 1.356208
545.40 1.356954
545.50 1.3577
545.60 1.358458
545.70 1.359221
545.80 1.359983
545.90 1.360745
546.00 1.361506
546.10 1.362266
546.20 1.363026
546.30 1.363785
546.40 1.364543
546.50 1.365301
546.60 1.366058
546.70 1.366814
546.80 1.36757
546.90 1.368325
547.00 1.369079
547.10 1.369833
547.20 1.370586
547.30 1.371338
547.40 1.37209
547.50 1.372841
547.60 1.373592
547.70 1.374342
547.80 1.375091
547.90 1.37584
548.00 1.376588
548.10 1.377335
548.20 1.378082
548.30 1.378835
548.40 1.379596
548.50 1.380356
548.60 1.381116
548.70 1.381875
548.80 1.382634
548.90 1.383391
549.00 1.384149
549.10 1.384905
549.20 1.385661
549.30 1.386416
549.40 1.387171
549.50 1.387925
549.60 1.388678
549.70 1.389431
549.80 1.390183
549.90 1.390934
550.00 1.391685
550.10 1.392435
550.20 1.393185
550.30 1.393934
550.40 1.394682
550.50 1.395429
550.60 1.396176
550.70 1.396923
550.80 1.397668
550.90 1.398413
551.00 1.399159
551.10 1.399913
551.20 1.400665
551.30 1.401417
551.40 1.402169
551.50 1.40292
551.60 1.40367
551.70 1.404419
551.80 1.405168
551.90 1.405916
552.00 1.406664
552.10 1.407411
552.20 1.408157
552.30 1.408903
552.40 1.409648
552.50 1.410392
552.60 1.411136
552.70 1.411879
552.80 1.412622
552.90 1.413364
553.00 1.414105
553.10 1.414846
553.20 1.415586
553.30 1.416325
553.40 1.417064
553.50 1.417802
553.60 1.41854
553.70 1.419276
553.80 1.420022
553.90 1.420772
554.00 1.421522
554.10 1.422271
554.20 1.423019
554.30 1.423767
554.40 1.424514
554.50 1.42526
554.60 1.426006
554.70 1.426752
554.80 1.427496
554.90 1.42824
555.00 1.428984
555.10 1.429726
555.20 1.430469
555.30 1.43121
555.40 1.431951
555.50 1.432691
555.60 1.433431
555.70 1.43417
555.80 1.434908
555.90 1.435646
556.00 1.436383
556.10 1.43712
556.20 1.437855
556.30 1.438591
556.40 1.439325
556.50 1.44006
556.60 1.440806
556.70 1.441552
556.80 1.442297
556.90 1.443041
557.00 1.443785
557.10 1.444528
557.20 1.44527
557.30 1.446012
557.40 1.446753
557.50 1.447494
557.60 1.448234
557.70 1.448973
557.80 1.449712
557.90 1.45045
558.00 1.451188
558.10 1.451924
558.20 1.452661
558.30 1.453396
558.40 1.454131
558.50 1.454866
558.60 1.455599
558.70 1.456333
558.80 1.457065
558.90 1.457797
559.00 1.458528
559.10 1.459259
559.20 1.459989
559.30 1.460718
559.40 1.461447
559.50 1.462175
559.60 1.462903
559.70 1.46363
559.80 1.464356
559.90 1.465082
560.00 1.465807
560.10 1.466532
560.20 1.467256
560.30 1.467979
560.40 1.468702
560.50 1.469424
560.60 1.470145
560.70 1.470866
560.80 1.471586
560.90 1.472306
561.00 1.473025
561.10 1.473743
561.20 1.474461
561.30 1.475179
561.40 1.475895
561.50 1.476611
561.60 1.477327
561.70 1.478041
561.80 1.478756
561.90 1.479469
562.00 1.480182
562.10 1.480902
562.20 1.481633
562.30 1.482363
562.40 1.483092
562.50 1.483821
562.60 1.484549
562.70 1.485277
562.80 1.486004
562.90 1.486731
563.00 1.487456
563.10 1.488182
563.20 1.488906
563.30 1.48963
563.40 1.490353
563.50 1.491076
563.60 1.491798
563.70 1.49252
563.80 1.493241
563.90 1.493961
564.00 1.494681
564.10 1.4954
564.20 1.496118
564.30 1.496836
564.40 1.497554
564.50 1.49827
564.60 1.498986
564.70 1.499702
564.80 1.500417
564.90 1.501133
565.00 1.501854
565.10 1.502575
565.20 1.503295
565.30 1.504014
565.40 1.504733
565.50 1.505451
565.60 1.506168
565.70 1.506885
565.80 1.507601
565.90 1.508317
566.00 1.509032
566.10 1.509746
566.20 1.51046
566.30 1.511173
566.40 1.511886
566.50 1.512598
566.60 1.51331
566.70 1.51402
566.80 1.514731
566.90 1.51544
567.00 1.516149
567.10 1.516858
567.20 1.517566
567.30 1.518273
567.40 1.51898
567.50 1.519686
567.60 1.520391
567.70 1.521099
567.80 1.521818
567.90 1.522537
568.00 1.523254
568.10 1.523972
568.20 1.524688
568.30 1.525404
568.40 1.52612
568.50 1.526834
568.60 1.527549
568.70 1.528262
568.80 1.528975
568.90 1.529688
569.00 1.5304
569.10 1.531111
569.20 1.531821
569.30 1.532531
569.40 1.533241
569.50 1.53395
569.60 1.534658
569.70 1.535366
569.80 1.536073
569.90 1.536779
570.00 1.537485
570.10 1.538191
570.20 1.538895
570.30 1.539599
570.40 1.540303
570.50 1.541006
570.60 1.541708
570.70 1.54241
570.80 1.543111
570.90 1.543812
571.00 1.544512
571.10 1.545211
571.20 1.54591
571.30 1.546609
571.40 1.547306
571.50 1.548003
571.60 1.5487
571.70 1.549396
571.80 1.550091
571.90 1.550786
572.00 1.55148
572.10 1.552174
572.20 1.552867
572.30 1.553559
572.40 1.554251
572.50 1.554943
572.60 1.555633
572.70 1.556323
572.80 1.557013
572.90 1.557702
573.00 1.55839
573.10 1.559078
573.20 1.559766
573.30 1.560452
573.40 1.561144
573.50 1.561843
573.60 1.562542
573.70 1.563239
573.80 1.563937
573.90 1.564633
574.00 1.56533
574.10 1.566025
574.20 1.56672
574.30 1.567414
574.40 1.568108
574.50 1.568802
574.60 1.569494
574.70 1.570186
574.80 1.570878
574.90 1.571569
575.00 1.572259
575.10 1.572949
575.20 1.573638
575.30 1.574327
575.40 1.575015
575.50 1.575702
575.60 1.576389
575.70 1.577075
575.80 1.577761
575.90 1.578446
576.00 1.579131
576.10 1.579815
576.20 1.580498
576.30 1.581181
576.40 1.581864
576.50 1.582545
576.60 1.583227
576.70 1.583907
576.80 1.584587
576.90 1.585267
577.00 1.585946
577.10 1.586624
577.20 1.587302
577.30 1.587979
577.40 1.588656
577.50 1.589332
577.60 1.590009
577.70 1.590687
577.80 1.591364
577.90 1.592041
578.00 1.592718
578.10 1.593394
578.20 1.594069
578.30 1.594744
578.40 1.595418
578.50 1.596091
578.60 1.596764
578.70 1.597437
578.80 1.598109
578.90 1.59878
579.00 1.599451
579.10 1.600122
579.20 1.600808
579.30 1.601494
579.40 1.602179
579.50 1.602863
579.60 1.603547
579.70 1.60423
579.80 1.604913
579.90 1.605595
580.00 1.606276
580.10 1.606954
580.20 1.607626
580.30 1.608298
580.40 1.608969
580.50 1.60964
580.60 1.61031
580.70 1.610979
580.80 1.611648
580.90 1.612316
581.00 1.612984
581.10 1.613651
581.20 1.614318
581.30 1.614984
581.40 1.61565
581.50 1.616315
581.60 1.616979
581.70 1.617643
581.80 1.618306
581.90 1.618969
582.00 1.619631
582.10 1.620299
582.20 1.620975
582.30 1.621651
582.40 1.622326
582.50 1.623001
582.60 1.623675
582.70 1.624349
582.80 1.625022
582.90 1.625694
583.00 1.626366
583.10 1.627038
583.20 1.627709
583.30 1.628379
583.40 1.629049
583.50 1.629718
583.60 1.630382
583.70 1.631038
583.80 1.631693
583.90 1.632348
584.00 1.633002
584.10 1.633656
584.20 1.634309
584.30 1.634962
584.40 1.635614
584.50 1.636265
584.60 1.636916
584.70 1.637567
584.80 1.638217
584.90 1.63887
585.00 1.63954
585.10 1.64021
585.20 1.640881
585.30 1.641552
585.40 1.642223
585.50 1.642893
585.60 1.643563
585.70 1.644232
585.80 1.6449
585.90 1.645569
586.00 1.646236
586.10 1.646903
586.20 1.64756
586.30 1.648202
586.40 1.648843
586.50 1.649484
586.60 1.650124
586.70 1.650764
586.80 1.651409
586.90 1.652062
587.00 1.652715
587.10 1.653368
587.20 1.654037
587.30 1.654733
587.40 1.655292
587.50 1.655988
587.60 1.656673
587.70 1.657278
587.80 1.657993
587.90 1.658596
588.00 1.659216
588.10 1.659863
588.20 1.66051
588.30 1.661156
588.40 1.661807
588.50 1.662467
588.60 1.663126
588.70 1.663785
588.80 1.664443
588.90 1.665101
589.00 1.665756
589.10 1.666407
589.20 1.667057
589.30 1.667707
589.40 1.668356
589.50 1.669004
589.60 1.669652
589.70 1.6703
589.80 1.670947
589.90 1.671593
590.00 1.672236
590.10 1.672875
590.20 1.673513
590.30 1.67415
590.40 1.674787
590.50 1.675424
590.60 1.67606
590.70 1.676695
590.80 1.677342
590.90 1.677994
591.00 1.678645
591.10 1.679295
591.20 1.679945
591.30 1.680595
591.40 1.681244
591.50 1.681892
591.60 1.682536
591.70 1.683173
591.80 1.683809
591.90 1.684445
592.00 1.68508
592.10 1.685715
592.20 1.686349
592.30 1.686983
592.40 1.687616
592.50 1.688249
592.60 1.688881
592.70 1.689512
592.80 1.690144
592.90 1.690774
593.00 1.691404
593.10 1.692037
593.20 1.692675
593.30 1.693312
593.40 1.693949
593.50 1.694585
593.60 1.695221
593.70 1.695856
593.80 1.696491
593.90 1.697125
594.00 1.697758
594.10 1.698391
594.20 1.699024
594.30 1.699656
594.40 1.700288
594.50 1.700919
594.60 1.701549
594.70 1.702179
594.80 1.702809
594.90 1.703437
595.00 1.704066
595.10 1.704694
595.20 1.705322
595.30 1.705949
595.40 1.706576
595.50 1.707202
595.60 1.707828
595.70 1.708453
595.80 1.709078
595.90 1.709702
596.00 1.710326
596.10 1.710949
596.20 1.711572
596.30 1.712194
596.40 1.712816
596.50 1.713437
596.60 1.714058
596.70 1.714674
596.80 1.715288
596.90 1.715901
597.00 1.716513
597.10 1.717125
597.20 1.717737
597.30 1.718348
597.40 1.718958
597.50 1.719568
597.60 1.720165
597.70 1.720739
597.80 1.721312
597.90 1.721885
598.00 1.722458
598.10 1.72303
598.20 1.723602
598.30 1.724173
598.40 1.724744
598.50 1.725314
598.60 1.725884
598.70 1.726453
598.80 1.727022
598.90 1.72759
599.00 1.728158
599.10 1.728725
599.20 1.729292
599.30 1.729859
599.40 1.730491
599.50 1.731122
599.60 1.731753
599.70 1.732384
599.80 1.733014
599.90 1.733644
600.00 1.734273
600.10 1.734901
600.20 1.735529
600.30 1.736157
600.40 1.736784
600.50 1.73741
600.60 1.738036
600.70 1.738662
600.80 1.739286
600.90 1.739911
601.00 1.740535
601.10 1.741158
601.20 1.741781
601.30 1.742403
601.40 1.743008
601.50 1.743611
601.60 1.744214
601.70 1.744817
601.80 1.745419
601.90 1.746021
602.00 1.746622
602.10 1.747222
602.20 1.747822
602.30 1.748422
602.40 1.749021
602.50 1.74962
602.60 1.750218
602.70 1.751361
602.80 1.752532
602.90 1.753125
603.00 1.753717
603.10 1.754308
603.20 1.7549
603.30 1.75549
603.40 1.75608
603.50 1.75667
603.60 1.757259
603.70 1.757848
603.80 1.758436
603.90 1.759024
604.00 1.759611
604.10 1.760198
604.20 1.760784
604.30 1.76137
604.40 1.761955
604.50 1.762562
604.60 1.763167
604.70 1.763772
604.80 1.764377
604.90 1.764981
605.00 1.765584
605.10 1.766187
605.20 1.76679
605.30 1.767392
605.40 1.767994
605.50 1.768538
605.60 1.769083
605.70 1.769626
605.80 1.77017
605.90 1.770713
606.00 1.771255
606.10 1.771938
606.20 1.77262
606.30 1.773302
606.40 1.773983
606.50 1.774242
606.60 1.7745
606.70 1.775601
606.80 1.775859
606.90 1.776116
607.00 1.777216
607.10 1.777472
607.20 1.777729
607.30 1.778405
607.40 1.779082
607.50 1.779757
607.60 1.780432
607.70 1.780967
607.80 1.781501
607.90 1.782035
608.00 1.782568
608.10 1.783101
608.20 1.783633
608.30 1.784214
608.40 1.784795
608.50 1.785375
608.60 1.785955
608.70 1.786542
608.80 1.787132
608.90 1.787722
609.00 1.788312
609.10 1.788901
609.20 1.789489
609.30 1.790051
609.40 1.790613
609.50 1.791174
609.60 1.791735
609.70 1.792295
609.80 1.792855
609.90 1.793414
610.00 1.793973
610.10 1.794531
610.20 1.795089
610.30 1.795646
610.40 1.796203
610.50 1.79676
610.60 1.797316
610.70 1.797871
610.80 1.798427
610.90 1.799057
611.00 1.799688
611.10 1.800318
611.20 1.800947
611.30 1.801576
611.40 1.802204
611.50 1.802832
611.60 1.803459
611.70 1.804086
611.80 1.804713
611.90 1.805338
612.00 1.805964
612.10 1.806589
612.20 1.807213
612.30 1.807837
612.40 1.808405
612.50 1.808972
612.60 1.80954
612.70 1.810106
612.80 1.810673
612.90 1.811238
613.00 1.811804
613.10 1.812369
613.20 1.812933
613.30 1.813497
613.40 1.81406
613.50 1.814623
613.60 1.815186
613.70 1.815748
613.80 1.81631
613.90 1.816871
614.00 1.817432
614.10 1.817992
614.20 1.818552
614.30 1.819111
614.40 1.819702
614.50 1.820292
614.60 1.820882
614.70 1.821471
614.80 1.821996
614.90 1.822506
615.00 1.823017
615.10 1.823526
615.20 1.824036
615.30 1.824545
615.40 1.825054
615.50 1.825562
615.60 1.826069
615.70 1.826577
615.80 1.827084
615.90 1.82759
616.00 1.828096
616.10 1.828602
616.20 1.829107
616.30 1.829612
616.40 1.830116
616.50 1.83062
616.60 1.831123
616.70 1.831627
616.80 1.832129
616.90 1.832699
617.00 1.833268
617.10 1.833837
617.20 1.834406
617.30 1.834974
617.40 1.835541
617.50 1.836109
617.60 1.836675
617.70 1.837241
617.80 1.837807
617.90 1.838372
618.00 1.838937
618.10 1.839501
618.20 1.840065
618.30 1.840629
618.40 1.841192
618.50 1.841754
618.60 1.842316
618.70 1.842878
618.80 1.843439
618.90 1.843999
619.00 1.844559
619.10 1.845119
619.20 1.845678
619.30 1.846237
619.40 1.846796
619.50 1.847353
619.60 1.847911
619.70 1.848468
619.80 1.849024
619.90 1.84958
620.00 1.850136
620.10 1.850691
620.20 1.851246
620.30 1.8518
620.40 1.852354
620.50 1.852907
620.60 1.85346
620.70 1.854012
620.80 1.854564
620.90 1.855113
621.00 1.855656
621.10 1.856199
621.20 1.856741
621.30 1.857283
621.40 1.857824
621.50 1.858365
621.60 1.858906
621.70 1.859446
621.80 1.859985
621.90 1.860524
622.00 1.861063
622.10 1.861601
622.20 1.862139
622.30 1.862677
622.40 1.863213
622.50 1.86375
622.60 1.864286
622.70 1.864822
622.80 1.865357
622.90 1.865891
623.00 1.866426
623.10 1.86696
623.20 1.867493
623.30 1.868026
623.40 1.868558
623.50 1.869091
623.60 1.869622
623.70 1.870153
623.80 1.870684
623.90 1.871215
624.00 1.871744
624.10 1.872274
624.20 1.872803
624.30 1.873332
624.40 1.87386
624.50 1.874387
624.60 1.874915
624.70 1.875442
624.80 1.875968
624.90 1.876494
625.00 1.87702
625.10 1.877545
625.20 1.878069
625.30 1.878594
625.40 1.879118
625.50 1.879641
625.60 1.880164
625.70 1.880686
625.80 1.881209
625.90 1.88173
626.00 1.882252
626.10 1.882772
626.20 1.883293
626.30 1.883813
626.40 1.884332
626.50 1.884851
626.60 1.88537
626.70 1.885888
626.80 1.886406
626.90 1.886924
627.00 1.887441
627.10 1.887954
627.20 1.888459
627.30 1.888964
627.40 1.889469
627.50 1.889973
627.60 1.890476
627.70 1.890979
627.80 1.891482
627.90 1.891985
628.00 1.892486
628.10 1.892988
628.20 1.893489
628.30 1.89399
628.40 1.89449
628.50 1.89499
628.60 1.895489
628.70 1.895988
628.80 1.896487
628.90 1.896985
629.00 1.897483
629.10 1.89798
629.20 1.898477
629.30 1.898974
629.40 1.89947
629.50 1.899965
629.60 1.900461
629.70 1.900956
629.80 1.90145
629.90 1.901944
630.00 1.902438
630.10 1.902931
630.20 1.903424
630.30 1.903916
630.40 1.904408
630.50 1.904899
630.60 1.90539
630.70 1.90588
630.80 1.90637
630.90 1.90686
631.00 1.907349
631.10 1.907838
631.20 1.908327
631.30 1.908815
631.40 1.909302
631.50 1.909789
631.60 1.910276
631.70 1.910763
631.80 1.911249
631.90 1.911734
632.00 1.91222
632.10 1.912704
632.20 1.913189
632.30 1.913673
632.40 1.914156
632.50 1.914639
632.60 1.915122
632.70 1.915605
632.80 1.916087
632.90 1.916568
633.00 1.917049
633.10 1.91753
633.20 1.918011
633.30 1.918491
633.40 1.918992
633.50 1.919509
633.60 1.920027
633.70 1.920544
633.80 1.92106
633.90 1.921576
634.00 1.922092
634.10 1.922607
634.20 1.923122
634.30 1.923636
634.40 1.92415
634.50 1.924664
634.60 1.925177
634.70 1.92569
634.80 1.926202
634.90 1.926714
635.00 1.927225
635.10 1.927736
635.20 1.928247
635.30 1.928757
635.40 1.929267
635.50 1.929776
635.60 1.930285
635.70 1.930794
635.80 1.931302
635.90 1.931809
636.00 1.932317
636.10 1.932824
636.20 1.93333
636.30 1.933836
636.40 1.934342
636.50 1.934847
636.60 1.935308
636.70 1.935764
636.80 1.936219
636.90 1.936674
637.00 1.937129
637.10 1.937583
637.20 1.938036
637.30 1.93849
637.40 1.938943
637.50 1.939396
637.60 1.939848
637.70 1.9403
637.80 1.940751
637.90 1.941202
638.00 1.941653
638.10 1.942104
638.20 1.942554
638.30 1.943003
638.40 1.943453
638.50 1.943901
638.60 1.94435
638.70 1.944798
638.80 1.945246
638.90 1.945693
639.00 1.94614
639.10 1.946587
639.20 1.947033
639.30 1.947479
639.40 1.947924
639.50 1.94837
639.60 1.948814
639.70 1.949267
639.80 1.949748
639.90 1.950229
640.00 1.950709
640.10 1.951188
640.20 1.951668
640.30 1.952147
640.40 1.952625
640.50 1.953103
640.60 1.953581
640.70 1.954058
640.80 1.954535
640.90 1.955012
641.00 1.955488
641.10 1.955964
641.20 1.956439
641.30 1.956914
641.40 1.957388
641.50 1.957863
641.60 1.958336
641.70 1.95881
641.80 1.959283
641.90 1.959755
642.00 1.960228
642.10 1.9607
642.20 1.961171
642.30 1.961642
642.40 1.962113
642.50 1.962583
642.60 1.963053
642.70 1.963522
642.80 1.963992
642.90 1.96446
643.00 1.964929
643.10 1.965397
643.20 1.965865
643.30 1.966333
643.40 1.9668
643.50 1.967267
643.60 1.967733
643.70 1.968199
643.80 1.968665
643.90 1.96913
644.00 1.969595
644.10 1.970059
644.20 1.970523
644.30 1.970987
644.40 1.97145
644.50 1.971913
644.60 1.972376
644.70 1.972838
644.80 1.9733
644.90 1.973761
645.00 1.974222
645.10 1.974683
645.20 1.975143
645.30 1.975603
645.40 1.976062
645.50 1.976522
645.60 1.97698
645.70 1.977439
645.80 1.977897
645.90 1.978354
646.00 1.978811
646.10 1.979254
646.20 1.979653
646.30 1.980053
646.40 1.980452
646.50 1.980851
646.60 1.981249
646.70 1.981648
646.80 1.982045
646.90 1.982443
647.00 1.98284
647.10 1.983237
647.20 1.983633
647.30 1.984029
647.40 1.984425
647.50 1.984821
647.60 1.985216
647.70 1.98561
647.80 1.986005
647.90 1.986399
648.00 1.986793
648.10 1.987186
648.20 1.987579
648.30 1.987972
648.40 1.988364
648.50 1.988756
648.60 1.989148
648.70 1.989539
648.80 1.98993
648.90 1.990321
649.00 1.990712
649.10 1.991102
649.20 1.991491
649.30 1.991881
649.40 1.992313
649.50 1.992747
649.60 1.993181
649.70 1.993614
649.80 1.994047
649.90 1.994479
650.00 1.994911
650.10 1.995343
650.20 1.995774
650.30 1.996205
650.40 1.996636
650.50 1.997066
650.60 1.997496
650.70 1.997926
650.80 1.998355
650.90 1.998784
651.00 1.999213
651.10 1.999641
651.20 2.000069
651.30 2.000496
651.40 2.000923
651.50 2.00135
651.60 2.001776
651.70 2.002202
651.80 2.002628
651.90 2.003053
652.00 2.003478
652.10 2.003903
652.20 2.004327
652.30 2.004751
652.40 2.005175
652.50 2.005598
652.60 2.006035
652.70 2.006479
652.80 2.006922
652.90 2.007366
653.00 2.007809
653.10 2.008252
653.20 2.008694
653.30 2.009136
653.40 2.009577
653.50 2.010018
653.60 2.010459
653.70 2.0109
653.80 2.01134
653.90 2.01178
654.00 2.012219
654.10 2.012658
654.20 2.013097
654.30 2.013535
654.40 2.013973
654.50 2.01441
654.60 2.014847
654.70 2.015284
654.80 2.015721
654.90 2.016157
655.00 2.016593
655.10 2.017028
655.20 2.017463
655.30 2.017898
655.40 2.018332
655.50 2.018766
655.60 2.0192
655.70 2.019633
655.80 2.020027
655.90 2.020421
656.00 2.020815
656.10 2.021208
656.20 2.021601
656.30 2.021994
656.40 2.022386
656.50 2.022778
656.60 2.02317
656.70 2.023561
656.80 2.023952
656.90 2.024343
657.00 2.024733
657.10 2.025123
657.20 2.025513
657.30 2.025902
657.40 2.026291
657.50 2.02668
657.60 2.027068
657.70 2.027457
657.80 2.028087
657.90 2.028539
658.00 2.028959
658.10 2.029378
658.20 2.029797
658.30 2.030216
658.40 2.030635
658.50 2.031053
658.60 2.03147
658.70 2.031888
658.80 2.032305
658.90 2.032721
659.00 2.033137
659.10 2.033549
659.20 2.033952
659.30 2.034359
659.40 2.034767
659.50 2.035173
659.60 2.03558
659.70 2.035986
659.80 2.036392
659.90 2.036798
660.00 2.037203
660.10 2.037608
660.20 2.038012
660.30 2.038416
660.40 2.0387
660.50 2.038963
660.60 2.039226
660.70 2.039488
660.80 2.03975
660.90 2.040127
661.00 2.040504
661.10 2.040881
661.20 2.041258
661.30 2.041634
661.40 2.04201
661.50 2.042385
661.60 2.042761
661.70 2.043136
661.80 2.04351
661.90 2.043993
662.00 2.044476
662.10 2.044958
662.20 2.04544
662.30 2.045921
662.40 2.045468
662.50 2.045911
662.60 2.046354
662.70 2.046797
662.80 2.047239
662.90 2.047327
663.00 2.047416
663.10 2.04821
663.20 2.049003
663.30 2.049091
663.40 2.049178
663.50 2.049971
663.60 2.050762
663.70 2.0508
663.80 2.050837
663.90 2.051611
664.00 2.052515
664.10 2.052836
664.20 2.053155
664.30 2.053475
664.40 2.053794
664.50 2.054113
664.60 2.054432
664.70 2.054848
664.80 2.055264
664.90 2.055679
665.00 2.056094
665.10 2.056509
665.20 2.056923
665.30 2.057338
665.40 2.057751
665.50 2.057932
665.60 2.05807
665.70 2.057991
665.80 2.058473
665.90 2.058954
666.00 2.059434
666.10 2.059915
666.20 2.060395
666.30 2.060874
666.40 2.061353
666.50 2.061691
666.60 2.062004
666.70 2.062316
666.80 2.062628
666.90 2.06294
667.00 2.063252
667.10 2.063413
667.20 2.063549
667.30 2.064227
667.40 2.064905
667.50 2.065072
667.60 2.06515
667.70 2.066028
667.80 2.065844
667.90 2.066182
668.00 2.066955
668.10 2.066927
668.20 2.067003
668.30 2.067375
668.40 2.067798
668.50 2.068222
668.60 2.068644
668.70 2.06957
668.80 2.069759
668.90 2.069949
669.00 2.070138
669.10 2.070326
669.20 2.070515
669.30 2.070842
669.40 2.071193
669.50 2.071543
669.60 2.071894
669.70 2.072244
669.80 2.072594
669.90 2.072943
670.00 2.073292
670.10 2.073641
670.20 2.073989
670.30 2.074484
670.40 2.075004
670.50 2.075524
670.60 2.076043
670.70 2.076562
670.80 2.076933
670.90 2.077303
671.00 2.077673
671.10 2.078043
671.20 2.078412
671.30 2.078781
671.40 2.07915
671.50 2.079518
671.60 2.079886
671.70 2.080254
671.80 2.080622
671.90 2.080863
672.00 2.081082
672.10 2.0813
672.20 2.081519
672.30 2.081737
672.40 2.082034
672.50 2.082337
672.60 2.08264
672.70 2.082942
672.80 2.083244
672.90 2.083546
673.00 2.083848
673.10 2.084149
673.20 2.08445
673.30 2.085022
673.40 2.085395
673.50 2.085734
673.60 2.086072
673.70 2.08641
673.80 2.086748
673.90 2.087085
674.00 2.087423
674.10 2.087759
674.20 2.088096
674.30 2.088432
674.40 2.088768
674.50 2.089104
674.60 2.089439
674.70 2.089774
674.80 2.090109
674.90 2.090444
675.00 2.090778
675.10 2.091112
675.20 2.091446
675.30 2.091779
675.40 2.092135
675.50 2.092495
675.60 2.092855
675.70 2.093214
675.80 2.093573
675.90 2.093932
676.00 2.09429
676.10 2.094649
676.20 2.095006
676.30 2.095364
676.40 2.095721
676.50 2.096078
676.60 2.096435
676.70 2.096791
676.80 2.097147
676.90 2.097503
677.00 2.097858
677.10 2.098213
677.20 2.098568
677.30 2.098923
677.40 2.099277
677.50 2.099631
677.60 2.099985
677.70 2.100338
677.80 2.100691
677.90 2.100973
678.00 2.101242
678.10 2.101511
678.20 2.10178
678.30 2.102049
678.40 2.102317
678.50 2.102585
678.60 2.102853
678.70 2.103121
678.80 2.103388
678.90 2.103655
679.00 2.103922
679.10 2.10422
679.20 2.104532
679.30 2.104844
679.40 2.105155
679.50 2.105466
679.60 2.105776
679.70 2.106087
679.80 2.106397
679.90 2.106707
680.00 2.107016
680.10 2.107325
680.20 2.107634
680.30 2.107943
680.40 2.108252
680.50 2.10856
680.60 2.108868
680.70 2.109175
680.80 2.109483
680.90 2.10979
681.00 2.110097
681.10 2.110403
681.20 2.11071
681.30 2.111016
681.40 2.111321
681.50 2.111627
681.60 2.111932
681.70 2.112237
681.80 2.112542
681.90 2.112846
682.00 2.11315
682.10 2.113454
682.20 2.113758
682.30 2.114061
682.40 2.114364
682.50 2.114667
682.60 2.114969
682.70 2.115271
682.80 2.115573
682.90 2.115875
683.00 2.116177
683.10 2.116478
683.20 2.116779
683.30 2.117079
683.40 2.11738
683.50 2.11768
683.60 2.11798
683.70 2.118279
683.80 2.118579
683.90 2.118878
684.00 2.119176
684.10 2.119475
684.20 2.119773
684.30 2.120071
684.40 2.120369
684.50 2.120666
684.60 2.120964
684.70 2.12126
684.80 2.121557
684.90 2.121854
685.00 2.12215
685.10 2.122446
685.20 2.122741
685.30 2.123037
685.40 2.123332
685.50 2.123626
685.60 2.123921
685.70 2.124215
685.80 2.124509
685.90 2.124811
686.00 2.125115
686.10 2.125418
686.20 2.125721
686.30 2.126024
686.40 2.126326
686.50 2.126628
686.60 2.12693
686.70 2.127232
686.80 2.127534
686.90 2.127835
687.00 2.128136
687.10 2.128436
687.20 2.128737
687.30 2.129037
687.40 2.129337
687.50 2.129636
687.60 2.129935
687.70 2.130234
687.80 2.130533
687.90 2.130832
688.00 2.13113
688.10 2.131428
688.20 2.131726
688.30 2.132023
688.40 2.13232
688.50 2.132617
688.60 2.132914
688.70 2.13321
688.80 2.133507
688.90 2.133802
689.00 2.134098
689.10 2.134393
689.20 2.134688
689.30 2.134983
689.40 2.135278
689.50 2.135572
689.60 2.135866
689.70 2.13616
689.80 2.136454
689.90 2.136747
690.00 2.13704
690.10 2.137333
690.20 2.137625
690.30 2.137917
690.40 2.138209
690.50 2.138501
690.60 2.138793
690.70 2.139084
690.80 2.139375
690.90 2.139665
691.00 2.139956
691.10 2.140246
691.20 2.140536
691.30 2.140826
691.40 2.141115
691.50 2.141404
691.60 2.141693
691.70 2.141982
691.80 2.14227
691.90 2.142558
692.00 2.142846
692.10 2.143134
692.20 2.143421
692.30 2.143708
692.40 2.143995
692.50 2.144282
692.60 2.144568
692.70 2.144848
692.80 2.145104
692.90 2.14536
693.00 2.145616
693.10 2.145872
693.20 2.146128
693.30 2.146383
693.40 2.146638
693.50 2.146893
693.60 2.147147
693.70 2.147401
693.80 2.147655
693.90 2.147909
694.00 2.148163
694.10 2.148416
694.20 2.148669
694.30 2.148922
694.40 2.149175
694.50 2.149427
694.60 2.14968
694.70 2.149932
694.80 2.150183
694.90 2.150435
695.00 2.150686
695.10 2.150937
695.20 2.151188
695.30 2.151438
695.40 2.151689
695.50 2.151939
695.60 2.152189
695.70 2.152438
695.80 2.152688
695.90 2.152937
696.00 2.153186
696.10 2.153434
696.20 2.153683
696.30 2.153931
696.40 2.154179
696.50 2.154427
696.60 2.154677
696.70 2.154928
696.80 2.155179
696.90 2.15543
697.00 2.15568
697.10 2.15593
697.20 2.15618
697.30 2.15643
697.40 2.156679
697.50 2.156928
697.60 2.157177
697.70 2.157426
697.80 2.157674
697.90 2.157923
698.00 2.158171
698.10 2.158418
698.20 2.158666
698.30 2.158913
698.40 2.15916
698.50 2.159407
698.60 2.159654
698.70 2.1599
698.80 2.160147
698.90 2.160392
699.00 2.160638
699.10 2.160886
699.20 2.161135
699.30 2.161383
699.40 2.161631
699.50 2.161879
699.60 2.162127
699.70 2.162404
699.80 2.162682
699.90 2.16296
700.00 2.163238
700.10 2.163516
700.20 2.163793
700.30 2.16407
700.40 2.164347
700.50 2.164624
700.60 2.1649
700.70 2.165176
700.80 2.165452
700.90 2.165728
701.00 2.166003
701.10 2.166237
701.20 2.166461
701.30 2.166684
701.40 2.166908
701.50 2.167131
701.60 2.167354
701.70 2.167576
701.80 2.167799
701.90 2.168021
702.00 2.168243
702.10 2.168465
702.20 2.168686
702.30 2.168908
702.40 2.169129
702.50 2.16935
702.60 2.169592
702.70 2.169839
702.80 2.170085
702.90 2.170331
703.00 2.170577
703.10 2.170823
703.20 2.171069
703.30 2.171314
703.40 2.171559
703.50 2.171804
703.60 2.172049
703.70 2.172293
703.80 2.172537
703.90 2.172781
704.00 2.173025
704.10 2.173269
704.20 2.173525
704.30 2.173783
704.40 2.174042
704.50 2.1743
704.60 2.174558
704.70 2.174816
704.80 2.175073
704.90 2.175331
705.00 2.175588
705.10 2.175845
705.20 2.176068
705.30 2.176282
705.40 2.176497
705.50 2.176711
705.60 2.176926
705.70 2.177139
705.80 2.177437
705.90 2.177755
706.00 2.178072
706.10 2.178388
706.20 2.178453
706.30 2.178458
706.40 2.179204
706.50 2.178913
706.60 2.179213
706.70 2.179249
706.80 2.179726
706.90 2.17973
707.00 2.179986
707.10 2.1803
707.20 2.180615
707.30 2.180928
707.40 2.181158
707.50 2.181369
707.60 2.181578
707.70 2.181788
707.80 2.181998
707.90 2.182207
708.00 2.182449
708.10 2.1827
708.20 2.182949
708.30 2.183199
708.40 2.183449
708.50 2.183698
708.60 2.183947
708.70 2.184196
708.80 2.184444
708.90 2.184692
709.00 2.184865
709.10 2.185021
709.20 2.185176
709.30 2.185331
709.40 2.185486
709.50 2.18564
709.60 2.185795
709.70 2.185949
709.80 2.186103
709.90 2.186257
710.00 2.186411
710.10 2.186564
710.20 2.186718
710.30 2.186871
710.40 2.187024
710.50 2.187177
710.60 2.187371
710.70 2.187575
710.80 2.187778
710.90 2.187981
711.00 2.188184
711.10 2.188387
711.20 2.18859
711.30 2.188793
711.40 2.188995
711.50 2.189197
711.60 2.189399
711.70 2.189601
711.80 2.189802
711.90 2.190003
712.00 2.190205
712.10 2.190406
712.20 2.190608
712.30 2.190809
712.40 2.191011
712.50 2.191212
712.60 2.191413
712.70 2.191613
712.80 2.191814
712.90 2.192014
713.00 2.192214
713.10 2.192414
713.20 2.192614
713.30 2.192813
713.40 2.193013
713.50 2.193212
713.60 2.193411
713.70 2.193684
713.80 2.194107
713.90 2.194531
714.00 2.194954
714.10 2.195167
714.20 2.195331
714.30 2.195495
714.40 2.195659
714.50 2.195822
714.60 2.195986
714.70 2.196149
714.80 2.196312
714.90 2.196475
715.00 2.196637
715.10 2.1968
715.20 2.196962
715.30 2.197124
715.40 2.197286
715.50 2.197448
715.60 2.19761
715.70 2.197771
715.80 2.197932
715.90 2.198094
716.00 2.198254
716.10 2.198415
716.20 2.198576
716.30 2.198736
716.40 2.198896
716.50 2.199056
716.60 2.199256
716.70 2.199465
716.80 2.199673
716.90 2.199882
717.00 2.20009
717.10 2.200298
717.20 2.200506
717.30 2.200714
717.40 2.200921
717.50 2.201128
717.60 2.201335
717.70 2.201542
717.80 2.201749
717.90 2.201955
718.00 2.202161
718.10 2.202367
718.20 2.202573
718.30 2.202777
718.40 2.202982
718.50 2.203186
718.60 2.203391
718.70 2.203595
718.80 2.203798
718.90 2.204002
719.00 2.204205
719.10 2.204409
719.20 2.204612
719.30 2.204814
719.40 2.205017
719.50 2.205219
719.60 2.205422
719.70 2.205624
719.80 2.205825
719.90 2.206027
720.00 2.206228
720.10 2.20643
720.20 2.206631
720.30 2.206831
720.40 2.207032
720.50 2.207233
720.60 2.207433
720.70 2.207564
720.80 2.207659
720.90 2.207826
721.00 2.207996
721.10 2.208166
721.20 2.208336
721.30 2.208505
721.40 2.208675
721.50 2.208844
721.60 2.209013
721.70 2.209182
721.80 2.20935
721.90 2.209519
722.00 2.209687
722.10 2.209855
722.20 2.210023
722.30 2.210191
722.40 2.210359
722.50 2.210526
722.60 2.210694
722.70 2.210869
722.80 2.21105
722.90 2.21123
723.00 2.21141
723.10 2.211589
723.20 2.211769
723.30 2.211948
723.40 2.212128
723.50 2.212307
723.60 2.212486
723.70 2.212664
723.80 2.212843
723.90 2.213021
724.00 2.213199
724.10 2.213377
724.20 2.213523
724.30 2.213651
724.40 2.213779
724.50 2.213907
724.60 2.214035
724.70 2.214163
724.80 2.21429
724.90 2.214417
725.00 2.214545
725.10 2.214672
725.20 2.214798
725.30 2.214925
725.40 2.215052
725.50 2.215178
725.60 2.215304
725.70 2.215431
725.80 2.215614
725.90 2.215828
726.00 2.216042
726.10 2.216256
726.20 2.216469
726.30 2.216683
726.40 2.216896
726.50 2.217109
726.60 2.217321
726.70 2.217534
726.80 2.217721
726.90 2.217894
727.00 2.218066
727.10 2.218239
727.20 2.218412
727.30 2.218584
727.40 2.218629
727.50 2.218605
727.60 2.218582
727.70 2.218558
727.80 2.218915
727.90 2.219477
728.00 2.219277
728.10 2.219838
728.20 2.21996
728.30 2.219789
728.40 2.21994
728.50 2.220501
728.60 2.22068
728.70 2.220655
728.80 2.22063
728.90 2.220605
729.00 2.220706
729.10 2.220876
729.20 2.221045
729.30 2.221214
729.40 2.221382
729.50 2.221551
729.60 2.221745
729.70 2.221952
729.80 2.222158
729.90 2.222365
730.00 2.222572
730.10 2.222778
730.20 2.222984
730.30 2.22319
730.40 2.223396
730.50 2.223601
730.60 2.22375
730.70 2.223868
730.80 2.223985
730.90 2.224103
731.00 2.22422
731.10 2.224338
731.20 2.224455
731.30 2.224572
731.40 2.224689
731.50 2.224806
731.60 2.224922
731.70 2.225039
731.80 2.225155
731.90 2.225271
732.00 2.225387
732.10 2.225503
732.20 2.22565
732.30 2.225814
732.40 2.225978
732.50 2.226141
732.60 2.226304
732.70 2.226467
732.80 2.22663
732.90 2.226793
733.00 2.226956
733.10 2.227118
733.20 2.22728
733.30 2.227443
733.40 2.227604
733.50 2.227766
733.60 2.227928
733.70 2.228042
733.80 2.22813
733.90 2.228218
734.00 2.228307
734.10 2.228395
734.20 2.228483
734.30 2.22857
734.40 2.228658
734.50 2.228746
734.60 2.228833
734.70 2.22892
734.80 2.229007
734.90 2.229094
735.00 2.229181
735.10 2.229268
735.20 2.229354
735.30 2.229466
735.40 2.229863
735.50 2.230261
735.60 2.230657
735.70 2.230879
735.80 2.231007
735.90 2.231134
736.00 2.231261
736.10 2.231388
736.20 2.231514
736.30 2.231641
736.40 2.231768
736.50 2.231894
736.60 2.23202
736.70 2.232146
736.80 2.232272
736.90 2.232398
737.00 2.232523
737.10 2.232649
737.20 2.232774
737.30 2.232899
737.40 2.233024
737.50 2.233149
737.60 2.233273
737.70 2.233398
737.80 2.233522
737.90 2.233646
738.00 2.233771
738.10 2.233894
738.20 2.234004
738.30 2.234106
738.40 2.234207
738.50 2.234309
738.60 2.23441
738.70 2.234512
738.80 2.234613
738.90 2.234714
739.00 2.234815
739.10 2.234915
739.20 2.235016
739.30 2.235116
739.40 2.235217
739.50 2.235317
739.60 2.235417
739.70 2.235517
739.80 2.235616
739.90 2.235716
740.00 2.235816
740.10 2.235915
740.20 2.236014
740.30 2.236113
740.40 2.236212
740.50 2.236311
740.60 2.23641
740.70 2.236508
740.80 2.236607
740.90 2.236705
741.00 2.236803
741.10 2.236901
741.20 2.236999
741.30 2.237097
741.40 2.237194
741.50 2.237292
741.60 2.237389
741.70 2.237486
741.80 2.237583
741.90 2.23768
742.00 2.237777
742.10 2.237874
742.20 2.23797
742.30 2.238067
742.40 2.238163
742.50 2.238259
742.60 2.238355
742.70 2.238485
742.80 2.238643
742.90 2.238801
743.00 2.238959
743.10 2.239117
743.20 2.239274
743.30 2.239432
743.40 2.239589
743.50 2.239746
743.60 2.239902
743.70 2.240048
743.80 2.240148
743.90 2.240247
744.00 2.240347
744.10 2.240446
744.20 2.240545
744.30 2.240644
744.40 2.240743
744.50 2.240842
744.60 2.240941
744.70 2.24104
744.80 2.241138
744.90 2.241236
745.00 2.241334
745.10 2.241432
745.20 2.24153
745.30 2.241628
745.40 2.241726
745.50 2.241823
745.60 2.241921
745.70 2.242018
745.80 2.242115
745.90 2.242212
746.00 2.242309
746.10 2.242405
746.20 2.242502
746.30 2.242598
746.40 2.242695
746.50 2.242791
746.60 2.242887
746.70 2.242983
746.80 2.243079
746.90 2.243174
747.00 2.24327
747.10 2.243365
747.20 2.243461
747.30 2.243556
747.40 2.243651
747.50 2.243746
747.60 2.24384
747.70 2.243935
747.80 2.244029
747.90 2.244124
748.00 2.244218
748.10 2.244312
748.20 2.244406
748.30 2.2445
748.40 2.244593
748.50 2.244687
748.60 2.24478
748.70 2.244874
748.80 2.244967
748.90 2.24506
749.00 2.245153
749.10 2.245246
749.20 2.245338
749.30 2.245431
749.40 2.245523
749.50 2.245615
749.60 2.245707
749.70 2.2458
749.80 2.245891
749.90 2.245983
750.00 2.246075
750.10 2.246162
750.20 2.24624
750.30 2.246318
750.40 2.246395
750.50 2.246472
750.60 2.246549
750.70 2.246626
750.80 2.246703
750.90 2.24678
751.00 2.246857
751.10 2.246933
751.20 2.24701
751.30 2.247086
751.40 2.247162
751.50 2.247238
751.60 2.247314
751.70 2.24739
751.80 2.247466
751.90 2.247541
752.00 2.247617
752.10 2.247692
752.20 2.247767
752.30 2.247842
752.40 2.247917
752.50 2.247992
752.60 2.248067
752.70 2.248142
752.80 2.248216
752.90 2.24829
753.00 2.248365
753.10 2.248439
753.20 2.248513
753.30 2.248587
753.40 2.248661
753.50 2.248734
753.60 2.248808
753.70 2.248881
753.80 2.248955
753.90 2.249028
754.00 2.249101
754.10 2.249174
754.20 2.249247
754.30 2.249319
754.40 2.249392
754.50 2.249465
754.60 2.249537
754.70 2.249609
754.80 2.249681
754.90 2.249753
755.00 2.249825
755.10 2.249897
755.20 2.249969
755.30 2.25004
755.40 2.250112
755.50 2.250183
755.60 2.250254
755.70 2.250325
755.80 2.250396
755.90 2.250467
756.00 2.250538
756.10 2.250609
756.20 2.250679
756.30 2.25075
756.40 2.25082
756.50 2.25089
756.60 2.25096
756.70 2.25103
756.80 2.2511
756.90 2.251169
757.00 2.251239
757.10 2.251309
757.20 2.251378
757.30 2.251447
757.40 2.251516
757.50 2.251585
757.60 2.251652
757.70 2.251714
757.80 2.251776
757.90 2.251838
758.00 2.2519
758.10 2.251962
758.20 2.252023
758.30 2.252085
758.40 2.252146
758.50 2.252207
758.60 2.252269
758.70 2.25233
758.80 2.252391
758.90 2.252451
759.00 2.252512
759.10 2.252573
759.20 2.252633
759.30 2.252693
759.40 2.252754
759.50 2.252814
759.60 2.252874
759.70 2.252934
759.80 2.252994
759.90 2.253053
760.00 2.253113
760.10 2.253172
760.20 2.253232
760.30 2.253291
760.40 2.25335
760.50 2.253409
760.60 2.253468
760.70 2.253527
760.80 2.253586
760.90 2.253644
761.00 2.253703
761.10 2.253761
761.20 2.25382
761.30 2.253878
761.40 2.253936
761.50 2.253994
761.60 2.254052
761.70 2.254109
761.80 2.254167
761.90 2.254224
762.00 2.254282
762.10 2.254339
762.20 2.254396
762.30 2.254454
762.40 2.254511
762.50 2.254567
762.60 2.254624
762.70 2.254681
762.80 2.254737
762.90 2.254794
763.00 2.25485
763.10 2.254906
763.20 2.254963
763.30 2.255019
763.40 2.255075
763.50 2.25513
763.60 2.255186
763.70 2.255242
763.80 2.255297
763.90 2.255353
764.00 2.255408
764.10 2.255463
764.20 2.255518
764.30 2.255573
764.40 2.255628
764.50 2.255683
764.60 2.255737
764.70 2.255792
764.80 2.255846
764.90 2.255901
765.00 2.255955
765.10 2.256009
765.20 2.25606
765.30 2.256107
765.40 2.256155
765.50 2.256202
765.60 2.256249
765.70 2.256296
765.80 2.256343
765.90 2.25639
766.00 2.256437
766.10 2.256484
766.20 2.25653
766.30 2.256577
766.40 2.256623
766.50 2.256669
766.60 2.256716
766.70 2.256762
766.80 2.256808
766.90 2.256854
767.00 2.256899
767.10 2.256945
767.20 2.256991
767.30 2.257036
767.40 2.257082
767.50 2.257127
767.60 2.257172
767.70 2.257217
767.80 2.257262
767.90 2.257307
768.00 2.257352
768.10 2.257396
768.20 2.257441
768.30 2.257486
768.40 2.25753
768.50 2.257574
768.60 2.257618
768.70 2.257663
768.80 2.257707
768.90 2.25775
769.00 2.257794
769.10 2.257838
769.20 2.257882
769.30 2.257925
769.40 2.257968
769.50 2.258012
769.60 2.258055
769.70 2.258098
769.80 2.258141
769.90 2.258184
770.00 2.258227
770.10 2.258269
770.20 2.258312
770.30 2.258355
770.40 2.258397
770.50 2.258439
770.60 2.258482
770.70 2.258524
770.80 2.258566
770.90 2.258608
771.00 2.258649
771.10 2.258691
771.20 2.258733
771.30 2.258774
771.40 2.258816
771.50 2.258857
771.60 2.258898
771.70 2.25894
771.80 2.258981
771.90 2.259022
772.00 2.259062
772.10 2.259103
772.20 2.259144
772.30 2.259184
772.40 2.259225
772.50 2.259265
772.60 2.259305
772.70 2.259346
772.80 2.259386
772.90 2.259406
773.00 2.259426
773.10 2.259447
773.20 2.259467
773.30 2.259487
773.40 2.259507
773.50 2.259527
773.60 2.259547
773.70 2.259566
773.80 2.259586
773.90 2.259605
774.00 2.259625
774.10 2.259644
774.20 2.259664
774.30 2.259683
774.40 2.259702
774.50 2.259721
774.60 2.25974
774.70 2.259759
774.80 2.259777
774.90 2.259796
775.00 2.259815
775.10 2.259833
775.20 2.259852
775.30 2.25987
775.40 2.259888
775.50 2.259906
775.60 2.259925
775.70 2.259943
775.80 2.25996
775.90 2.259978
776.00 2.259996
776.10 2.260014
776.20 2.260031
776.30 2.260049
776.40 2.260066
776.50 2.260084
776.60 2.260101
776.70 2.260118
776.80 2.260135
776.90 2.260152
777.00 2.260169
777.10 2.260186
777.20 2.260203
777.30 2.260219
777.40 2.260236
777.50 2.260252
777.60 2.260269
777.70 2.260285
777.80 2.260301
777.90 2.260318
778.00 2.260334
778.10 2.26035
778.20 2.260366
778.30 2.260381
778.40 2.260397
778.50 2.260413
778.60 2.260428
778.70 2.260444
778.80 2.260459
778.90 2.260475
779.00 2.26049
779.10 2.260505
779.20 2.26052
779.30 2.260535
779.40 2.26055
779.50 2.260565
779.60 2.26058
779.70 2.260594
779.80 2.260609
779.90 2.260624
780.00 2.260638
780.10 2.260652
780.20 2.260667
780.30 2.260681
780.40 2.260695
780.50 2.260709
780.60 2.260713
780.70 2.260713
780.80 2.260714
780.90 2.260714
781.00 2.260714
781.10 2.260714
781.20 2.260714
781.30 2.260714
781.40 2.260714
781.50 2.260714
781.60 2.260713
781.70 2.260713
781.80 2.260712
781.90 2.260712
782.00 2.260711
782.10 2.260711
782.20 2.26071
782.30 2.260709
782.40 2.260708
782.50 2.260707
782.60 2.260706
782.70 2.260705
782.80 2.260704
782.90 2.260703
783.00 2.260701
783.10 2.2607
783.20 2.260698
783.30 2.260697
783.40 2.260695
783.50 2.260693
783.60 2.260692
783.70 2.26069
783.80 2.260688
783.90 2.260686
784.00 2.260684
784.10 2.260682
784.20 2.260679
784.30 2.260677
784.40 2.260675
784.50 2.260672
784.60 2.260667
784.70 2.260653
784.80 2.260639
784.90 2.260625
785.00 2.260612
785.10 2.260598
785.20 2.260584
785.30 2.26057
785.40 2.260556
785.50 2.260542
785.60 2.260527
785.70 2.260513
785.80 2.260499
785.90 2.260484
786.00 2.26047
786.10 2.260455
786.20 2.260441
786.30 2.260426
786.40 2.260411
786.50 2.260396
786.60 2.260381
786.70 2.260367
786.80 2.260352
786.90 2.260336
787.00 2.260321
787.10 2.260306
787.20 2.260291
787.30 2.260276
787.40 2.26026
787.50 2.260245
787.60 2.260229
787.70 2.260214
787.80 2.260198
787.90 2.260182
788.00 2.260166
788.10 2.260151
788.20 2.260135
788.30 2.260119
788.40 2.26012
788.50 2.260129
788.60 2.260138
788.70 2.260147
788.80 2.260156
788.90 2.260165
789.00 2.260174
789.10 2.260183
789.20 2.260191
789.30 2.2602
789.40 2.260208
789.50 2.260217
789.60 2.260225
789.70 2.260234
789.80 2.260242
789.90 2.26025
790.00 2.260258
790.10 2.260266
790.20 2.260274
790.30 2.260282
790.40 2.26029
790.50 2.260297
790.60 2.260305
790.70 2.260312
790.80 2.26032
790.90 2.260327
791.00 2.260335
791.10 2.260342
791.20 2.260349
791.30 2.260356
791.40 2.260363
791.50 2.26037
791.60 2.260377
791.70 2.260384
791.80 2.26039
791.90 2.260397
792.00 2.260404
792.10 2.26041
792.20 2.260417
792.30 2.260417
792.40 2.260398
792.50 2.260379
792.60 2.26036
792.70 2.260342
792.80 2.260323
792.90 2.260304
793.00 2.260285
793.10 2.260266
793.20 2.260246
793.30 2.260227
793.40 2.260208
793.50 2.260188
793.60 2.260169
793.70 2.26015
793.80 2.26013
793.90 2.26011
794.00 2.260091
794.10 2.260071
794.20 2.260051
794.30 2.260031
794.40 2.260011
794.50 2.259991
794.60 2.259971
794.70 2.259951
794.80 2.259931
794.90 2.259911
795.00 2.259891
795.10 2.25987
795.20 2.25985
795.30 2.259829
795.40 2.259809
795.50 2.259788
795.60 2.259768
795.70 2.259747
795.80 2.259726
795.90 2.259705
796.00 2.259684
796.10 2.259663
796.20 2.259642
796.30 2.259606
796.40 2.259568
796.50 2.259529
796.60 2.25949
796.70 2.25945
796.80 2.259411
796.90 2.259372
797.00 2.259333
797.10 2.259294
797.20 2.259254
797.30 2.259215
797.40 2.259176
797.50 2.259136
797.60 2.259097
797.70 2.259057
797.80 2.259017
797.90 2.258978
798.00 2.258938
798.10 2.258898
798.20 2.258858
798.30 2.258818
798.40 2.258778
798.50 2.258738
798.60 2.258698
798.70 2.258658
798.80 2.258618
798.90 2.258578
799.00 2.258538
799.10 2.258497
799.20 2.258457
799.30 2.258417
799.40 2.258376
799.50 2.258336
799.60 2.258295
799.70 2.258255
799.80 2.258214
799.90 2.258173
800.00 2.258132
800.10 2.258092
800.20 2.258051
800.30 2.25801
800.40 2.257969
800.50 2.257928
800.60 2.257887
800.70 2.257846
800.80 2.257805
800.90 2.257763
801.00 2.257722
801.10 2.257681
801.20 2.25764
801.30 2.257598
801.40 2.257557
801.50 2.257515
801.60 2.257474
801.70 2.257432
801.80 2.25739
801.90 2.257349
802.00 2.257307
802.10 2.257265
802.20 2.257223
802.30 2.257181
802.40 2.25714
802.50 2.257098
802.60 2.257056
802.70 2.257013
802.80 2.256971
802.90 2.256929
803.00 2.256887
803.10 2.256845
803.20 2.256802
803.30 2.25676
803.40 2.256717
803.50 2.256675
803.60 2.256632
803.70 2.25659
803.80 2.256547
803.90 2.256505
804.00 2.256462
804.10 2.256419
804.20 2.256378
804.30 2.256342
804.40 2.256305
804.50 2.256269
804.60 2.256233
804.70 2.256197
804.80 2.25616
804.90 2.256124
805.00 2.256088
805.10 2.256051
805.20 2.256014
805.30 2.255978
805.40 2.255941
805.50 2.255904
805.60 2.255868
805.70 2.255831
805.80 2.255794
805.90 2.255757
806.00 2.25572
806.10 2.255683
806.20 2.255646
806.30 2.255609
806.40 2.255572
806.50 2.255535
806.60 2.255497
806.70 2.25546
806.80 2.255423
806.90 2.255385
807.00 2.255348
807.10 2.25531
807.20 2.255273
807.30 2.255235
807.40 2.255197
807.50 2.255159
807.60 2.255122
807.70 2.255084
807.80 2.255046
807.90 2.255008
808.00 2.25497
808.10 2.254932
808.20 2.254894
808.30 2.254832
808.40 2.25477
808.50 2.254708
808.60 2.254646
808.70 2.254585
808.80 2.254523
808.90 2.254461
809.00 2.254399
809.10 2.254336
809.20 2.254274
809.30 2.254212
809.40 2.25415
809.50 2.254088
809.60 2.254026
809.70 2.253963
809.80 2.253901
809.90 2.253839
810.00 2.253776
810.10 2.253714
810.20 2.253651
810.30 2.253589
810.40 2.253526
810.50 2.253464
810.60 2.253401
810.70 2.253338
810.80 2.253276
810.90 2.253213
811.00 2.25315
811.10 2.253087
811.20 2.253024
811.30 2.252961
811.40 2.252899
811.50 2.252836
811.60 2.252773
811.70 2.252709
811.80 2.252646
811.90 2.252583
812.00 2.25252
812.10 2.252457
812.20 2.252394
812.30 2.252323
812.40 2.252251
812.50 2.252179
812.60 2.252107
812.70 2.252034
812.80 2.251962
812.90 2.25189
813.00 2.251817
813.10 2.251745
813.20 2.251673
813.30 2.2516
813.40 2.251528
813.50 2.251455
813.60 2.251382
813.70 2.25131
813.80 2.251237
813.90 2.251164
814.00 2.251092
814.10 2.251019
814.20 2.250946
814.30 2.250873
814.40 2.250801
814.50 2.250728
814.60 2.250655
814.70 2.250582
814.80 2.250509
814.90 2.250436
815.00 2.250363
815.10 2.25029
815.20 2.250217
815.30 2.250144
815.40 2.250071
815.50 2.249997
815.60 2.249924
815.70 2.249851
815.80 2.249778
815.90 2.249704
816.00 2.249631
816.10 2.249558
816.20 2.249484
816.30 2.249411
816.40 2.249337
816.50 2.249264
816.60 2.24919
816.70 2.249117
816.80 2.249043
816.90 2.24897
817.00 2.248896
817.10 2.248822
817.20 2.248749
817.30 2.248675
817.40 2.248601
817.50 2.248527
817.60 2.248453
817.70 2.248379
817.80 2.248306
817.90 2.248232
818.00 2.248158
818.10 2.248084
818.20 2.24801
818.30 2.247936
818.40 2.247861
818.50 2.247787
818.60 2.247713
818.70 2.247639
818.80 2.247565
818.90 2.247491
819.00 2.247416
819.10 2.247342
819.20 2.247268
819.30 2.247235
819.40 2.247229
819.50 2.247224
819.60 2.247219
819.70 2.247213
819.80 2.247207
819.90 2.247202
820.00 2.247196
820.10 2.247141
820.20 2.246949
820.30 2.246801
820.40 2.246693
820.50 2.246614
820.60 2.246535
820.70 2.246457
820.80 2.246378
820.90 2.246299
821.00 2.24622
821.10 2.246141
821.20 2.246062
821.30 2.245984
821.40 2.245905
821.50 2.245826
821.60 2.245747
821.70 2.245668
821.80 2.245589
821.90 2.24551
822.00 2.245431
822.10 2.245352
822.20 2.245272
822.30 2.245193
822.40 2.245114
822.50 2.245035
822.60 2.244956
822.70 2.244876
822.80 2.244797
822.90 2.244718
823.00 2.244638
823.10 2.244559
823.20 2.244479
823.30 2.2444
823.40 2.244321
823.50 2.244241
823.60 2.244162
823.70 2.244082
823.80 2.244002
823.90 2.243923
824.00 2.243843
824.10 2.243763
824.20 2.243684
824.30 2.243604
824.40 2.243524
824.50 2.243445
824.60 2.243365
824.70 2.243285
824.80 2.243205
824.90 2.243125
825.00 2.243045
825.10 2.242965
825.20 2.242885
825.30 2.242805
825.40 2.242725
825.50 2.242645
825.60 2.242565
825.70 2.242485
825.80 2.242405
825.90 2.242325
826.00 2.242245
826.10 2.242165
826.20 2.242084
826.30 2.241987
826.40 2.241878
826.50 2.241769
826.60 2.24166
826.70 2.241551
826.80 2.241441
826.90 2.241332
827.00 2.241223
827.10 2.241114
827.20 2.241005
827.30 2.240896
827.40 2.240787
827.50 2.240678
827.60 2.240568
827.70 2.240459
827.80 2.24035
827.90 2.240241
828.00 2.240132
828.10 2.240022
828.20 2.239913
828.30 2.239804
828.40 2.239694
828.50 2.239585
828.60 2.239485
828.70 2.239391
828.80 2.239298
828.90 2.239205
829.00 2.239112
829.10 2.239018
829.20 2.238925
829.30 2.238832
829.40 2.238739
829.50 2.238645
829.60 2.238552
829.70 2.238458
829.80 2.238365
829.90 2.238272
830.00 2.238178
830.10 2.238085
830.20 2.237991
830.30 2.237898
830.40 2.237804
830.50 2.237711
830.60 2.237617
830.70 2.237523
830.80 2.23743
830.90 2.237336
831.00 2.237243
831.10 2.237149
831.20 2.237055
831.30 2.236961
831.40 2.236868
831.50 2.236774
831.60 2.23668
831.70 2.236586
831.80 2.236493
831.90 2.236399
832.00 2.236305
832.10 2.236211
832.20 2.236117
832.30 2.236023
832.40 2.235929
832.50 2.235835
832.60 2.235742
832.70 2.235648
832.80 2.235554
832.90 2.23546
833.00 2.235365
833.10 2.235271
833.20 2.235177
833.30 2.235083
833.40 2.234989
833.50 2.234895
833.60 2.234801
833.70 2.234707
833.80 2.234613
833.90 2.234518
834.00 2.234424
834.10 2.23433
834.20 2.234236
834.30 2.234141
834.40 2.234047
834.50 2.233953
834.60 2.233858
834.70 2.233764
834.80 2.23367
834.90 2.233575
835.00 2.233481
835.10 2.233386
835.20 2.233292
835.30 2.233197
835.40 2.233103
835.50 2.233008
835.60 2.232914
835.70 2.232819
835.80 2.232725
835.90 2.23263
836.00 2.232536
836.10 2.232441
836.20 2.232346
836.30 2.232252
836.40 2.232157
836.50 2.232062
836.60 2.231968
836.70 2.231873
836.80 2.231778
836.90 2.231673
837.00 2.231563
837.10 2.231453
837.20 2.231344
837.30 2.231234
837.40 2.231124
837.50 2.231014
837.60 2.230905
837.70 2.230795
837.80 2.230685
837.90 2.230575
838.00 2.230465
838.10 2.230356
838.20 2.230246
838.30 2.230136
838.40 2.230026
838.50 2.229916
838.60 2.229806
838.70 2.229696
838.80 2.229586
838.90 2.229476
839.00 2.229366
839.10 2.229256
839.20 2.229146
839.30 2.229036
839.40 2.228926
839.50 2.228816
839.60 2.228706
839.70 2.228596
839.80 2.228486
839.90 2.228376
840.00 2.228266
840.10 2.228156
840.20 2.228046
840.30 2.227936
840.40 2.227826
840.50 2.227716
840.60 2.227606
840.70 2.227496
840.80 2.227386
840.90 2.227275
841.00 2.227165
841.10 2.227055
841.20 2.226945
841.30 2.226834
841.40 2.226724
841.50 2.226614
841.60 2.226503
841.70 2.226393
841.80 2.226283
841.90 2.226172
842.00 2.226062
842.10 2.225952
842.20 2.225841
842.30 2.225731
842.40 2.22562
842.50 2.22551
842.60 2.2254
842.70 2.225289
842.80 2.225179
842.90 2.225068
843.00 2.224958
843.10 2.224847
843.20 2.224737
843.30 2.224626
843.40 2.224516
843.50 2.224405
843.60 2.224295
843.70 2.224184
843.80 2.224074
843.90 2.223963
844.00 2.223853
844.10 2.223742
844.20 2.223631
844.30 2.223521
844.40 2.22341
844.50 2.2233
844.60 2.223189
844.70 2.223078
844.80 2.222968
844.90 2.222857
845.00 2.222746
845.10 2.222636
845.20 2.222525
845.30 2.2224
845.40 2.222275
845.50 2.22215
845.60 2.222025
845.70 2.2219
845.80 2.221775
845.90 2.22165
846.00 2.221525
846.10 2.2214
846.20 2.221275
846.30 2.22115
846.40 2.221025
846.50 2.2209
846.60 2.220775
846.70 2.22065
846.80 2.220524
846.90 2.220399
847.00 2.220274
847.10 2.220149
847.20 2.220024
847.30 2.219899
847.40 2.219774
847.50 2.219649
847.60 2.219524
847.70 2.219399
847.80 2.219274
847.90 2.219149
848.00 2.219024
848.10 2.218899
848.20 2.218774
848.30 2.218648
848.40 2.218523
848.50 2.218398
848.60 2.218273
848.70 2.218148
848.80 2.218023
848.90 2.217898
849.00 2.217773
849.10 2.217648
849.20 2.217522
849.30 2.217397
849.40 2.217272
849.50 2.217147
849.60 2.217022
849.70 2.216897
849.80 2.216772
849.90 2.216647
850.00 2.216521
850.10 2.216396
850.20 2.216271
850.30 2.216146
850.40 2.216021
850.50 2.215896
850.60 2.215771
850.70 2.215645
850.80 2.21552
850.90 2.215395
851.00 2.21527
851.10 2.215145
851.20 2.21502
851.30 2.214895
851.40 2.214769
851.50 2.214644
851.60 2.214519
851.70 2.214394
851.80 2.214269
851.90 2.214143
852.00 2.214018
852.10 2.213893
852.20 2.213768
852.30 2.213643
852.40 2.213518
852.50 2.213392
852.60 2.213267
852.70 2.213142
852.80 2.213017
852.90 2.212892
853.00 2.212766
853.10 2.212641
853.20 2.212516
853.30 2.212391
853.40 2.212266
853.50 2.21214
853.60 2.212015
853.70 2.211893
853.80 2.211774
853.90 2.211655
854.00 2.211535
854.10 2.211416
854.20 2.211297
854.30 2.211178
854.40 2.211059
854.50 2.21094
854.60 2.210821
854.70 2.210701
854.80 2.210582
854.90 2.210463
855.00 2.210344
855.10 2.210225
855.20 2.210106
855.30 2.209986
855.40 2.209867
855.50 2.209748
855.60 2.209629
855.70 2.20951
855.80 2.20939
855.90 2.209271
856.00 2.209152
856.10 2.209033
856.20 2.208914
856.30 2.208794
856.40 2.208675
856.50 2.208556
856.60 2.208437
856.70 2.208317
856.80 2.208198
856.90 2.208079
857.00 2.20796
857.10 2.20784
857.20 2.207721
857.30 2.207602
857.40 2.207483
857.50 2.207363
857.60 2.207244
857.70 2.207125
857.80 2.207005
857.90 2.206886
858.00 2.206751
858.10 2.206612
858.20 2.206473
858.30 2.206334
858.40 2.206195
858.50 2.206056
858.60 2.205917
858.70 2.205778
858.80 2.205639
858.90 2.2055
859.00 2.205361
859.10 2.205222
859.20 2.205083
859.30 2.204944
859.40 2.204805
859.50 2.204666
859.60 2.204527
859.70 2.204388
859.80 2.204249
859.90 2.20411
860.00 2.203971
860.10 2.203832
860.20 2.203693
860.30 2.203554
860.40 2.203415
860.50 2.203276
860.60 2.203137
860.70 2.202998
860.80 2.202859
860.90 2.20272
861.00 2.202581
861.10 2.202442
861.20 2.202304
861.30 2.202165
861.40 2.202026
861.50 2.201887
861.60 2.201748
861.70 2.201609
861.80 2.20147
861.90 2.201331
862.00 2.201193
862.10 2.201054
862.20 2.200913
862.30 2.200761
862.40 2.200609
862.50 2.200457
862.60 2.200304
862.70 2.200152
862.80 2.2
862.90 2.199848
863.00 2.199696
863.10 2.199544
863.20 2.199391
863.30 2.199239
863.40 2.199087
863.50 2.198935
863.60 2.198783
863.70 2.198631
863.80 2.198479
863.90 2.198327
864.00 2.198175
864.10 2.198023
864.20 2.197871
864.30 2.197719
864.40 2.197567
864.50 2.197415
864.60 2.197263
864.70 2.197111
864.80 2.196959
864.90 2.196807
865.00 2.196655
865.10 2.196503
865.20 2.196351
865.30 2.196199
865.40 2.196048
865.50 2.195896
865.60 2.195744
865.70 2.195592
865.80 2.19544
865.90 2.195288
866.00 2.195137
866.10 2.194985
866.20 2.194833
866.30 2.194681
866.40 2.194529
866.50 2.194378
866.60 2.194226
866.70 2.194074
866.80 2.193922
866.90 2.193771
867.00 2.193619
867.10 2.193467
867.20 2.193316
867.30 2.193164
867.40 2.193012
867.50 2.192861
867.60 2.192709
867.70 2.192558
867.80 2.192406
867.90 2.192254
868.00 2.192103
868.10 2.191951
868.20 2.1918
868.30 2.191648
868.40 2.191497
868.50 2.191345
868.60 2.191194
868.70 2.191042
868.80 2.190891
868.90 2.190739
869.00 2.190588
869.10 2.190436
869.20 2.190285
869.30 2.190133
869.40 2.189982
869.50 2.189831
869.60 2.189679
869.70 2.189528
869.80 2.189376
869.90 2.189225
870.00 2.189074
870.10 2.188922
870.20 2.188771
870.30 2.18862
870.40 2.188469
870.50 2.188317
870.60 2.188166
870.70 2.188015
870.80 2.187863
870.90 2.187718
871.00 2.187572
871.10 2.187427
871.20 2.187282
871.30 2.187136
871.40 2.186991
871.50 2.186846
871.60 2.186701
871.70 2.186555
871.80 2.18641
871.90 2.186265
872.00 2.18612
872.10 2.185975
872.20 2.185829
872.30 2.185684
872.40 2.185539
872.50 2.185394
872.60 2.185249
872.70 2.185104
872.80 2.184959
872.90 2.184813
873.00 2.184668
873.10 2.184523
873.20 2.184378
873.30 2.184233
873.40 2.184088
873.50 2.183943
873.60 2.183798
873.70 2.183653
873.80 2.183508
873.90 2.183363
874.00 2.183218
874.10 2.183073
874.20 2.182928
874.30 2.182783
874.40 2.182638
874.50 2.182493
874.60 2.182348
874.70 2.182203
874.80 2.182058
874.90 2.181913
875.00 2.181768
875.10 2.181623
875.20 2.181471
875.30 2.181308
875.40 2.181144
875.50 2.180981
875.60 2.180817
875.70 2.180654
875.80 2.180491
875.90 2.180327
876.00 2.180164
876.10 2.18
876.20 2.179837
876.30 2.179674
876.40 2.17951
876.50 2.179347
876.60 2.179184
876.70 2.179021
876.80 2.178857
876.90 2.178694
877.00 2.178531
877.10 2.178368
877.20 2.178205
877.30 2.178041
877.40 2.177878
877.50 2.177715
877.60 2.177552
877.70 2.177389
877.80 2.177226
877.90 2.177063
878.00 2.1769
878.10 2.176737
878.20 2.176574
878.30 2.176411
878.40 2.176248
878.50 2.176085
878.60 2.175922
878.70 2.175759
878.80 2.175596
878.90 2.175433
879.00 2.175271
879.10 2.175108
879.20 2.174945
879.30 2.174782
879.40 2.174619
879.50 2.174457
879.60 2.174291
879.70 2.174125
879.80 2.173959
879.90 2.173793
880.00 2.173627
880.10 2.173461
880.20 2.173295
880.30 2.173129
880.40 2.172963
880.50 2.172798
880.60 2.172632
880.70 2.172466
880.80 2.1723
880.90 2.172134
881.00 2.171968
881.10 2.171803
881.20 2.171637
881.30 2.171471
881.40 2.171305
881.50 2.17114
881.60 2.170974
881.70 2.170808
881.80 2.170643
881.90 2.170477
882.00 2.170312
882.10 2.170146
882.20 2.16998
882.30 2.169815
882.40 2.169649
882.50 2.169484
882.60 2.169318
882.70 2.169153
882.80 2.168987
882.90 2.168822
883.00 2.168657
883.10 2.168491
883.20 2.168326
883.30 2.168161
883.40 2.167995
883.50 2.16783
883.60 2.167665
883.70 2.167499
883.80 2.167334
883.90 2.167169
884.00 2.167004
884.10 2.166839
884.20 2.166673
884.30 2.166508
884.40 2.166343
884.50 2.166178
884.60 2.166013
884.70 2.165848
884.80 2.165683
884.90 2.165518
885.00 2.165353
885.10 2.165188
885.20 2.165024
885.30 2.164859
885.40 2.164694
885.50 2.164529
885.60 2.164364
885.70 2.164199
885.80 2.164035
885.90 2.16387
886.00 2.163705
886.10 2.16354
886.20 2.163376
886.30 2.163211
886.40 2.163046
886.50 2.162882
886.60 2.162717
886.70 2.162552
886.80 2.162388
886.90 2.162223
887.00 2.162059
887.10 2.161894
887.20 2.161729
887.30 2.161565
887.40 2.1614
887.50 2.161236
887.60 2.161072
887.70 2.160907
887.80 2.160743
887.90 2.160578
888.00 2.160414
888.10 2.16025
888.20 2.160085
888.30 2.159921
888.40 2.159738
888.50 2.159553
888.60 2.159368
888.70 2.159183
888.80 2.158998
888.90 2.158813
889.00 2.158628
889.10 2.158443
889.20 2.158258
889.30 2.158073
889.40 2.157888
889.50 2.157703
889.60 2.157518
889.70 2.157333
889.80 2.157148
889.90 2.156964
890.00 2.156779
890.10 2.156594
890.20 2.156409
890.30 2.156225
890.40 2.15604
890.50 2.155855
890.60 2.155671
890.70 2.155486
890.80 2.155302
890.90 2.155117
891.00 2.154933
891.10 2.154748
891.20 2.154564
891.30 2.154379
891.40 2.154195
891.50 2.154011
891.60 2.153826
891.70 2.153642
891.80 2.153458
891.90 2.153274
892.00 2.15309
892.10 2.152905
892.20 2.152721
892.30 2.152537
892.40 2.152353
892.50 2.152169
892.60 2.151985
892.70 2.151801
892.80 2.151617
892.90 2.151433
893.00 2.151249
893.10 2.151065
893.20 2.150881
893.30 2.150698
893.40 2.150514
893.50 2.15033
893.60 2.150146
893.70 2.149963
893.80 2.149779
893.90 2.149595
894.00 2.149412
894.10 2.149228
894.20 2.149044
894.30 2.148861
894.40 2.148677
894.50 2.148494
894.60 2.14831
894.70 2.148127
894.80 2.147944
894.90 2.14776
895.00 2.147577
895.10 2.147394
895.20 2.14721
895.30 2.147027
895.40 2.146844
895.50 2.146661
895.60 2.146477
895.70 2.146294
895.80 2.146111
895.90 2.145928
896.00 2.145745
896.10 2.145562
896.20 2.145379
896.30 2.145196
896.40 2.145013
896.50 2.14483
896.60 2.144647
896.70 2.144464
896.80 2.144282
896.90 2.144099
897.00 2.143916
897.10 2.143733
897.20 2.14355
897.30 2.143365
897.40 2.143179
897.50 2.142994
897.60 2.142808
897.70 2.142623
897.80 2.142437
897.90 2.142252
898.00 2.142066
898.10 2.141881
898.20 2.141696
898.30 2.14151
898.40 2.141325
898.50 2.14114
898.60 2.140954
898.70 2.140769
898.80 2.140584
898.90 2.140399
899.00 2.140214
899.10 2.140029
899.20 2.139844
899.30 2.139659
899.40 2.139474
899.50 2.139289
899.60 2.139104
899.70 2.138919
899.80 2.138734
899.90 2.138549
900.00 2.138364
900.10 2.138179
900.20 2.137995
900.30 2.13781
900.40 2.137625
900.50 2.137441
900.60 2.137256
900.70 2.137071
900.80 2.136887
900.90 2.136702
901.00 2.136518
901.10 2.136333
901.20 2.136149
901.30 2.135964
901.40 2.13578
901.50 2.135595
901.60 2.135411
901.70 2.135227
901.80 2.135042
901.90 2.134858
902.00 2.134674
902.10 2.13449
902.20 2.134306
902.30 2.134121
902.40 2.133937
902.50 2.133753
902.60 2.133569
902.70 2.133385
902.80 2.133201
902.90 2.133017
903.00 2.132833
903.10 2.132649
903.20 2.132465
903.30 2.132281
903.40 2.132098
903.50 2.131914
903.60 2.13173
903.70 2.131546
903.80 2.131363
903.90 2.131179
904.00 2.130995
904.10 2.130812
904.20 2.130628
904.30 2.130444
904.40 2.130261
904.50 2.130077
904.60 2.129894
904.70 2.12971
904.80 2.129527
904.90 2.129344
905.00 2.12916
905.10 2.128977
905.20 2.128794
905.30 2.12861
905.40 2.128427
905.50 2.128244
905.60 2.128061
905.70 2.127878
905.80 2.127694
905.90 2.127511
906.00 2.127328
906.10 2.127145
906.20 2.126961
906.30 2.126775
906.40 2.12659
906.50 2.126404
906.60 2.126218
906.70 2.126032
906.80 2.125847
906.90 2.125661
907.00 2.125475
907.10 2.12529
907.20 2.125104
907.30 2.124919
907.40 2.124733
907.50 2.124548
907.60 2.124362
907.70 2.124177
907.80 2.123992
907.90 2.123806
908.00 2.123621
908.10 2.123436
908.20 2.12325
908.30 2.123065
908.40 2.12288
908.50 2.122695
908.60 2.12251
908.70 2.122325
908.80 2.122139
908.90 2.121954
909.00 2.121769
909.10 2.121584
909.20 2.121399
909.30 2.121215
909.40 2.12103
909.50 2.120845
909.60 2.12066
909.70 2.120475
909.80 2.12029
909.90 2.120106
910.00 2.119921
910.10 2.119736
910.20 2.119552
910.30 2.119367
910.40 2.119182
910.50 2.118998
910.60 2.118813
910.70 2.118629
910.80 2.118428
910.90 2.118227
911.00 2.118026
911.10 2.117825
911.20 2.117624
911.30 2.117423
911.40 2.117222
911.50 2.117022
911.60 2.116821
911.70 2.11662
911.80 2.11642
911.90 2.116219
912.00 2.116019
912.10 2.115818
912.20 2.115618
912.30 2.115417
912.40 2.115217
912.50 2.115016
912.60 2.114816
912.70 2.114616
912.80 2.114416
912.90 2.114215
913.00 2.114015
913.10 2.113815
913.20 2.113615
913.30 2.113415
913.40 2.113215
913.50 2.113015
913.60 2.112815
913.70 2.112615
913.80 2.112415
913.90 2.112215
914.00 2.112015
914.10 2.111816
914.20 2.111616
914.30 2.111416
914.40 2.111217
914.50 2.111017
914.60 2.110817
914.70 2.110618
914.80 2.110418
914.90 2.110219
915.00 2.110019
915.10 2.10982
915.20 2.109621
915.30 2.109419
915.40 2.109218
915.50 2.109016
915.60 2.108814
915.70 2.108612
915.80 2.108411
915.90 2.108209
916.00 2.108007
916.10 2.107806
916.20 2.107604
916.30 2.107403
916.40 2.107201
916.50 2.107
916.60 2.106798
916.70 2.106597
916.80 2.106396
916.90 2.106194
917.00 2.105993
917.10 2.105792
917.20 2.105591
917.30 2.105389
917.40 2.105188
917.50 2.104987
917.60 2.104786
917.70 2.104585
917.80 2.104384
917.90 2.104183
918.00 2.103982
918.10 2.103782
918.20 2.103581
918.30 2.10338
918.40 2.103179
918.50 2.102979
918.60 2.102778
918.70 2.102577
918.80 2.102377
918.90 2.102176
919.00 2.101976
919.10 2.101775
919.20 2.101575
919.30 2.101374
919.40 2.101174
919.50 2.100974
919.60 2.100773
919.70 2.100573
919.80 2.100373
919.90 2.100173
920.00 2.099973
920.10 2.099773
920.20 2.099573
920.30 2.099373
920.40 2.099173
920.50 2.098973
920.60 2.098773
920.70 2.098573
920.80 2.098373
920.90 2.098173
921.00 2.097973
921.10 2.097774
921.20 2.097574
921.30 2.097374
921.40 2.097175
921.50 2.096975
921.60 2.096776
921.70 2.096576
921.80 2.096377
921.90 2.096177
922.00 2.095978
922.10 2.095779
922.20 2.095579
922.30 2.09538
922.40 2.095181
922.50 2.094982
922.60 2.094782
922.70 2.094583
922.80 2.094384
922.90 2.094185
923.00 2.093986
923.10 2.093787
923.20 2.093588
923.30 2.093389
923.40 2.09319
923.50 2.092992
923.60 2.092793
923.70 2.092594
923.80 2.092395
923.90 2.092197
924.00 2.091998
924.10 2.091799
924.20 2.091601
924.30 2.091402
924.40 2.091201
924.50 2.090984
924.60 2.090767
924.70 2.090551
924.80 2.090334
924.90 2.090117
925.00 2.089901
925.10 2.089685
925.20 2.089468
925.30 2.089252
925.40 2.089036
925.50 2.088819
925.60 2.088603
925.70 2.088387
925.80 2.088171
925.90 2.087955
926.00 2.087739
926.10 2.087523
926.20 2.087307
926.30 2.087091
926.40 2.086875
926.50 2.086659
926.60 2.086444
926.70 2.086228
926.80 2.086012
926.90 2.085797
927.00 2.085581
927.10 2.085365
927.20 2.08515
927.30 2.084934
927.40 2.084719
927.50 2.084504
927.60 2.084288
927.70 2.084073
927.80 2.083858
927.90 2.083643
928.00 2.083428
928.10 2.083212
928.20 2.082997
928.30 2.082782
928.40 2.082567
928.50 2.082353
928.60 2.082138
928.70 2.081923
928.80 2.081708
928.90 2.081493
929.00 2.081279
929.10 2.081064
929.20 2.080849
929.30 2.080635
929.40 2.08042
929.50 2.080206
929.60 2.079991
929.70 2.079777
929.80 2.079563
929.90 2.079348
930.00 2.079134
930.10 2.07892
930.20 2.078706
930.30 2.078492
930.40 2.078278
930.50 2.078064
930.60 2.07785
930.70 2.077636
930.80 2.077422
930.90 2.077208
931.00 2.076994
931.10 2.07678
931.20 2.076567
931.30 2.076353
931.40 2.076139
931.50 2.075926
931.60 2.075712
931.70 2.075499
931.80 2.075285
931.90 2.075072
932.00 2.074858
932.10 2.074645
932.20 2.074432
932.30 2.074218
932.40 2.074005
932.50 2.073792
932.60 2.073579
932.70 2.073366
932.80 2.073153
932.90 2.07294
933.00 2.072727
933.10 2.072514
933.20 2.072301
933.30 2.072088
933.40 2.071876
933.50 2.071663
933.60 2.07145
933.70 2.071236
933.80 2.071021
933.90 2.070806
934.00 2.070591
934.10 2.070377
934.20 2.070162
934.30 2.069947
934.40 2.069733
934.50 2.069518
934.60 2.069304
934.70 2.069089
934.80 2.068875
934.90 2.068661
935.00 2.068446
935.10 2.068232
935.20 2.068018
935.30 2.067803
935.40 2.067589
935.50 2.067375
935.60 2.067161
935.70 2.066947
935.80 2.066733
935.90 2.066519
936.00 2.066305
936.10 2.066091
936.20 2.065878
936.30 2.065664
936.40 2.06545
936.50 2.065237
936.60 2.065023
936.70 2.064809
936.80 2.064596
936.90 2.064382
937.00 2.064169
937.10 2.063955
937.20 2.063742
937.30 2.063529
937.40 2.063316
937.50 2.063102
937.60 2.062889
937.70 2.062676
937.80 2.062463
937.90 2.06225
938.00 2.062037
938.10 2.061824
938.20 2.061611
938.30 2.061398
938.40 2.061185
938.50 2.060972
938.60 2.06076
938.70 2.060547
938.80 2.060334
938.90 2.060122
939.00 2.059909
939.10 2.059697
939.20 2.059484
939.30 2.059272
939.40 2.059059
939.50 2.058847
939.60 2.058635
939.70 2.058422
939.80 2.05821
939.90 2.057998
940.00 2.057786
940.10 2.057574
940.20 2.057362
940.30 2.05715
940.40 2.056938
940.50 2.056726
940.60 2.056514
940.70 2.056302
940.80 2.056091
940.90 2.055879
941.00 2.055667
941.10 2.055455
941.20 2.055244
941.30 2.055032
941.40 2.054821
941.50 2.054609
941.60 2.054398
941.70 2.054186
941.80 2.053975
941.90 2.053764
942.00 2.053553
942.10 2.053341
942.20 2.05313
942.30 2.052919
942.40 2.052708
942.50 2.052497
942.60 2.052286
942.70 2.052075
942.80 2.051864
942.90 2.051653
943.00 2.051439
943.10 2.051218
943.20 2.050998
943.30 2.050778
943.40 2.050557
943.50 2.050337
943.60 2.050117
943.70 2.049897
943.80 2.049677
943.90 2.049457
944.00 2.049237
944.10 2.049017
944.20 2.048797
944.30 2.048577
944.40 2.048357
944.50 2.048137
944.60 2.047918
944.70 2.047698
944.80 2.047478
944.90 2.047259
945.00 2.047039
945.10 2.04682
945.20 2.0466
945.30 2.046381
945.40 2.046162
945.50 2.045942
945.60 2.045723
945.70 2.045504
945.80 2.045285
945.90 2.045066
946.00 2.044847
946.10 2.044628
946.20 2.044409
946.30 2.04419
946.40 2.043971
946.50 2.043752
946.60 2.043533
946.70 2.043315
946.80 2.043096
946.90 2.042877
947.00 2.042659
947.10 2.04244
947.20 2.042222
947.30 2.042003
947.40 2.041785
947.50 2.041567
947.60 2.041348
947.70 2.04113
947.80 2.040912
947.90 2.040694
948.00 2.040476
948.10 2.040258
948.20 2.04004
948.30 2.039822
948.40 2.039604
948.50 2.039386
948.60 2.039168
948.70 2.03895
948.80 2.038732
948.90 2.038515
949.00 2.038297
949.10 2.038079
949.20 2.037862
949.30 2.037644
949.40 2.037427
949.50 2.03721
949.60 2.036992
949.70 2.036775
949.80 2.036558
949.90 2.03634
950.00 2.036123
950.10 2.035906
950.20 2.035689
950.30 2.035472
950.40 2.035255
950.50 2.035038
950.60 2.034821
950.70 2.034604
950.80 2.034387
950.90 2.034171
951.00 2.033954
951.10 2.033737
951.20 2.033521
951.30 2.033304
951.40 2.033087
951.50 2.032871
951.60 2.032654
951.70 2.032438
951.80 2.032222
951.90 2.032005
952.00 2.031789
952.10 2.031573
952.20 2.031357
952.30 2.031141
952.40 2.030924
952.50 2.030699
952.60 2.030473
952.70 2.030248
952.80 2.030023
952.90 2.029798
953.00 2.029573
953.10 2.029348
953.20 2.029123
953.30 2.028898
953.40 2.028673
953.50 2.028448
953.60 2.028224
953.70 2.027999
953.80 2.027774
953.90 2.02755
954.00 2.027325
954.10 2.027101
954.20 2.026876
954.30 2.026652
954.40 2.026428
954.50 2.026203
954.60 2.025979
954.70 2.025755
954.80 2.025531
954.90 2.025307
955.00 2.025082
955.10 2.024858
955.20 2.024635
955.30 2.024411
955.40 2.024187
955.50 2.023963
955.60 2.023739
955.70 2.023516
955.80 2.023292
955.90 2.023068
956.00 2.022845
956.10 2.022621
956.20 2.022398
956.30 2.022174
956.40 2.021951
956.50 2.021728
956.60 2.021504
956.70 2.021281
956.80 2.021058
956.90 2.020835
957.00 2.020612
957.10 2.020389
957.20 2.020166
957.30 2.019943
957.40 2.01972
957.50 2.019497
957.60 2.019274
957.70 2.019052
957.80 2.018829
957.90 2.018606
958.00 2.018384
958.10 2.018161
958.20 2.017939
958.30 2.017716
958.40 2.017494
958.50 2.017272
958.60 2.017049
958.70 2.016827
958.80 2.016605
958.90 2.016383
959.00 2.016161
959.10 2.015939
959.20 2.015717
959.30 2.015495
959.40 2.015273
959.50 2.015051
959.60 2.014829
959.70 2.014608
959.80 2.014386
959.90 2.014164
960.00 2.013943
960.10 2.013721
960.20 2.0135
960.30 2.013278
960.40 2.013057
960.50 2.012835
960.60 2.012614
960.70 2.012393
960.80 2.012172
960.90 2.011951
961.00 2.011729
961.10 2.011508
961.20 2.011287
961.30 2.011066
961.40 2.010845
961.50 2.010625
961.60 2.010404
961.70 2.010183
961.80 2.009962
961.90 2.009742
962.00 2.009508
962.10 2.009271
962.20 2.009035
962.30 2.008798
962.40 2.008562
962.50 2.008326
962.60 2.00809
962.70 2.007853
962.80 2.007617
962.90 2.007381
963.00 2.007145
963.10 2.006909
963.20 2.006674
963.30 2.006438
963.40 2.006202
963.50 2.005966
963.60 2.005731
963.70 2.005495
963.80 2.00526
963.90 2.005024
964.00 2.004789
964.10 2.004553
964.20 2.004318
964.30 2.004083
964.40 2.003848
964.50 2.003612
964.60 2.003377
964.70 2.003142
964.80 2.002907
964.90 2.002672
965.00 2.002437
965.10 2.002203
965.20 2.001968
965.30 2.001733
965.40 2.001498
965.50 2.001264
965.60 2.001029
965.70 2.000795
965.80 2.00056
965.90 2.000326
966.00 2.000092
966.10 1.999857
966.20 1.999623
966.30 1.999389
966.40 1.999155
966.50 1.998921
966.60 1.998687
966.70 1.998453
966.80 1.998219
966.90 1.997985
967.00 1.997751
967.10 1.997517
967.20 1.997284
967.30 1.99705
967.40 1.996816
967.50 1.996583
967.60 1.996349
967.70 1.996116
967.80 1.995883
967.90 1.995649
968.00 1.995416
968.10 1.995183
968.20 1.99495
968.30 1.994717
968.40 1.994484
968.50 1.994251
968.60 1.994018
968.70 1.993785
968.80 1.993552
968.90 1.993319
969.00 1.993086
969.10 1.992854
969.20 1.992621
969.30 1.992389
969.40 1.992156
969.50 1.991924
969.60 1.991691
969.70 1.991459
969.80 1.991227
969.90 1.990994
970.00 1.990762
970.10 1.99053
970.20 1.990298
970.30 1.990066
970.40 1.989834
970.50 1.989602
970.60 1.98937
970.70 1.989138
970.80 1.988907
970.90 1.988675
971.00 1.988443
971.10 1.988212
971.20 1.98798
971.30 1.987749
971.40 1.987517
971.50 1.987286
971.60 1.987053
971.70 1.98682
971.80 1.986587
971.90 1.986354
972.00 1.986121
972.10 1.985889
972.20 1.985656
972.30 1.985423
972.40 1.985191
972.50 1.984958
972.60 1.984725
972.70 1.984493
972.80 1.98426
972.90 1.984028
973.00 1.983796
973.10 1.983563
973.20 1.983331
973.30 1.983099
973.40 1.982867
973.50 1.982635
973.60 1.982403
973.70 1.982171
973.80 1.981939
973.90 1.981707
974.00 1.981475
974.10 1.981243
974.20 1.981012
974.30 1.98078
974.40 1.980549
974.50 1.980317
974.60 1.980086
974.70 1.979854
974.80 1.979623
974.90 1.979391
975.00 1.97916
975.10 1.978929
975.20 1.978698
975.30 1.978467
975.40 1.978236
975.50 1.978005
975.60 1.977774
975.70 1.977543
975.80 1.977312
975.90 1.977081
976.00 1.97685
976.10 1.97662
976.20 1.976389
976.30 1.976158
976.40 1.975928
976.50 1.975697
976.60 1.975467
976.70 1.975237
976.80 1.975006
976.90 1.974776
977.00 1.974546
977.10 1.974316
977.20 1.974086
977.30 1.973856
977.40 1.973626
977.50 1.973396
977.60 1.973166
977.70 1.972936
977.80 1.972706
977.90 1.972476
978.00 1.972247
978.10 1.972017
978.20 1.971787
978.30 1.971558
978.40 1.971328
978.50 1.971099
978.60 1.97087
978.70 1.97064
978.80 1.970411
978.90 1.970182
979.00 1.969953
979.10 1.969724
979.20 1.969495
979.30 1.969266
979.40 1.969037
979.50 1.968808
979.60 1.968579
979.70 1.96835
979.80 1.968121
979.90 1.967893
980.00 1.967664
980.10 1.967436
980.20 1.967207
980.30 1.966979
980.40 1.96675
980.50 1.966522
980.60 1.966293
980.70 1.966065
980.80 1.965837
980.90 1.965609
981.00 1.965381
981.10 1.965153
981.20 1.964925
981.30 1.964689
981.40 1.964446
981.50 1.964204
981.60 1.963961
981.70 1.963719
981.80 1.963476
981.90 1.963234
982.00 1.962991
982.10 1.962749
982.20 1.962507
982.30 1.962264
982.40 1.962022
982.50 1.96178
982.60 1.961538
982.70 1.961296
982.80 1.961054
982.90 1.960812
983.00 1.96057
983.10 1.960329
983.20 1.960087
983.30 1.959845
983.40 1.959604
983.50 1.959362
983.60 1.959121
983.70 1.958879
983.80 1.958638
983.90 1.958396
984.00 1.958155
984.10 1.957914
984.20 1.957673
984.30 1.957432
984.40 1.957191
984.50 1.95695
984.60 1.956709
984.70 1.956468
984.80 1.956227
984.90 1.955987
985.00 1.955746
985.10 1.955505
985.20 1.955265
985.30 1.955024
985.40 1.954784
985.50 1.954543
985.60 1.954303
985.70 1.954063
985.80 1.953823
985.90 1.953582
986.00 1.953342
986.10 1.953102
986.20 1.952862
986.30 1.952622
986.40 1.952382
986.50 1.952143
986.60 1.951903
986.70 1.951663
986.80 1.951423
986.90 1.951184
987.00 1.950944
987.10 1.950705
987.20 1.950465
987.30 1.950226
987.40 1.949987
987.50 1.949748
987.60 1.949508
987.70 1.949269
987.80 1.94903
987.90 1.948791
988.00 1.948552
988.10 1.948313
988.20 1.948074
988.30 1.947836
988.40 1.947597
988.50 1.947358
988.60 1.94712
988.70 1.946881
988.80 1.946643
988.90 1.946404
989.00 1.946166
989.10 1.945927
989.20 1.945689
989.30 1.945451
989.40 1.945213
989.50 1.944975
989.60 1.944737
989.70 1.944499
989.80 1.944261
989.90 1.944023
990.00 1.943785
990.10 1.943547
990.20 1.943309
990.30 1.943072
990.40 1.942834
990.50 1.942597
990.60 1.942359
990.70 1.942122
990.80 1.941884
990.90 1.941647
991.00 1.94141
991.10 1.941172
991.20 1.940933
991.30 1.940695
991.40 1.940456
991.50 1.940218
991.60 1.939979
991.70 1.939741
991.80 1.939502
991.90 1.939264
992.00 1.939026
992.10 1.938788
992.20 1.93855
992.30 1.938312
992.40 1.938074
992.50 1.937836
992.60 1.937598
992.70 1.93736
992.80 1.937122
992.90 1.936885
993.00 1.936647
993.10 1.936409
993.20 1.936172
993.30 1.935934
993.40 1.935697
993.50 1.93546
993.60 1.935222
993.70 1.934985
993.80 1.934748
993.90 1.934511
994.00 1.934274
994.10 1.934037
994.20 1.9338
994.30 1.933563
994.40 1.933326
994.50 1.933089
994.60 1.932852
994.70 1.932616
994.80 1.932379
994.90 1.932142
995.00 1.931906
995.10 1.931669
995.20 1.931433
995.30 1.931197
995.40 1.93096
995.50 1.930724
995.60 1.930488
995.70 1.930252
995.80 1.930016
995.90 1.92978
996.00 1.929544
996.10 1.929297
996.20 1.929049
996.30 1.928801
996.40 1.928552
996.50 1.928304
996.60 1.928056
996.70 1.927807
996.80 1.927559
996.90 1.927311
997.00 1.927063
997.10 1.926815
997.20 1.926567
997.30 1.926319
997.40 1.926072
997.50 1.925824
997.60 1.925576
997.70 1.925329
997.80 1.925081
997.90 1.924834
998.00 1.924586
998.10 1.924339
998.20 1.924092
998.30 1.923845
998.40 1.923597
998.50 1.92335
998.60 1.923103
998.70 1.922856
998.80 1.922609
998.90 1.922362
999.00 1.922116
999.10 1.921869
999.20 1.921622
999.30 1.921376
999.40 1.921129
999.50 1.920883
999.60 1.920636
999.70 1.92039
999.80 1.920143
999.90 1.919897
1000.00 1.919651
1000.10 1.919405
1000.20 1.919159
1000.30 1.918913
1000.40 1.918667
1000.50 1.918421
1000.60 1.918175
1000.70 1.917929
1000.80 1.917684
1000.90 1.917438
1001.00 1.917195
1001.10 1.916961
1001.20 1.916726
1001.30 1.916492
1001.40 1.916257
1001.50 1.916023
1001.60 1.915789
1001.70 1.915555
1001.80 1.915321
1001.90 1.915087
1002.00 1.914853
1002.10 1.914619
1002.20 1.914385
1002.30 1.914151
1002.40 1.913917
1002.50 1.913683
1002.60 1.91345
1002.70 1.913216
1002.80 1.912982
1002.90 1.912749
1003.00 1.912515
1003.10 1.912282
1003.20 1.912049
1003.30 1.911815
1003.40 1.911582
1003.50 1.911349
1003.60 1.911116
1003.70 1.910883
1003.80 1.91065
1003.90 1.910417
1004.00 1.910184
1004.10 1.909951
1004.20 1.909718
1004.30 1.909485
1004.40 1.909253
1004.50 1.90902
1004.60 1.908787
1004.70 1.908555
1004.80 1.908322
1004.90 1.90809
1005.00 1.907858
1005.10 1.907625
1005.20 1.907393
1005.30 1.907161
1005.40 1.906929
1005.50 1.906697
1005.60 1.906465
1005.70 1.906233
1005.80 1.906001
1005.90 1.905769
1006.00 1.905535
1006.10 1.905291
1006.20 1.905047
1006.30 1.904803
1006.40 1.904559
1006.50 1.904315
1006.60 1.904071
1006.70 1.903828
1006.80 1.903584
1006.90 1.903341
1007.00 1.903097
1007.10 1.902854
1007.20 1.902611
1007.30 1.902367
1007.40 1.902124
1007.50 1.901881
1007.60 1.901638
1007.70 1.901395
1007.80 1.901152
1007.90 1.900909
1008.00 1.900666
1008.10 1.900423
1008.20 1.90018
1008.30 1.899938
1008.40 1.899695
1008.50 1.899453
1008.60 1.89921
1008.70 1.898968
1008.80 1.898725
1008.90 1.898483
1009.00 1.898241
1009.10 1.897998
1009.20 1.897756
1009.30 1.897514
1009.40 1.897272
1009.50 1.89703
1009.60 1.896788
1009.70 1.896546
1009.80 1.896305
1009.90 1.896063
1010.00 1.895821
1010.10 1.895579
1010.20 1.895338
1010.30 1.895096
1010.40 1.894855
1010.50 1.894614
1010.60 1.894372
1010.70 1.894131
1010.80 1.89389
1010.90 1.893649
1011.00 1.893405
1011.10 1.893151
1011.20 1.892896
1011.30 1.892642
1011.40 1.892388
1011.50 1.892134
1011.60 1.89188
1011.70 1.891626
1011.80 1.891372
1011.90 1.891118
1012.00 1.890864
1012.10 1.89061
1012.20 1.890357
1012.30 1.890103
1012.40 1.889849
1012.50 1.889596
1012.60 1.889342
1012.70 1.889089
1012.80 1.888836
1012.90 1.888582
1013.00 1.888329
1013.10 1.888076
1013.20 1.887823
1013.30 1.88757
1013.40 1.887317
1013.50 1.887064
1013.60 1.886811
1013.70 1.886559
1013.80 1.886306
1013.90 1.886053
1014.00 1.885801
1014.10 1.885548
1014.20 1.885296
1014.30 1.885043
1014.40 1.884791
1014.50 1.884539
1014.60 1.884287
1014.70 1.884034
1014.80 1.883782
1014.90 1.88353
1015.00 1.883278
1015.10 1.883027
1015.20 1.882775
1015.30 1.882523
1015.40 1.882271
1015.50 1.88202
1015.60 1.881768
1015.70 1.881517
1015.80 1.881265
1015.90 1.881014
1016.00 1.880763
1016.10 1.880519
1016.20 1.880279
1016.30 1.88004
1016.40 1.879801
1016.50 1.879562
1016.60 1.879323
1016.70 1.879084
1016.80 1.878845
1016.90 1.878606
1017.00 1.878367
1017.10 1.878128
1017.20 1.87789
1017.30 1.877651
1017.40 1.877412
1017.50 1.877174
1017.60 1.876935
1017.70 1.876697
1017.80 1.876458
1017.90 1.87622
1018.00 1.875982
1018.10 1.875744
1018.20 1.875505
1018.30 1.875267
1018.40 1.875029
1018.50 1.874791
1018.60 1.874553
1018.70 1.874316
1018.80 1.874078
1018.90 1.87384
1019.00 1.873602
1019.10 1.873365
1019.20 1.873127
1019.30 1.87289
1019.40 1.872652
1019.50 1.872415
1019.60 1.872177
1019.70 1.87194
1019.80 1.871703
1019.90 1.871466
1020.00 1.871229
1020.10 1.870992
1020.20 1.870755
1020.30 1.870518
1020.40 1.870281
1020.50 1.870044
1020.60 1.869807
1020.70 1.86957
1020.80 1.869334
1020.90 1.869097
1021.00 1.868861
1021.10 1.868623
1021.20 1.868374
1021.30 1.868124
1021.40 1.867875
1021.50 1.867626
1021.60 1.867377
1021.70 1.867128
1021.80 1.866879
1021.90 1.86663
1022.00 1.866381
1022.10 1.866132
1022.20 1.865883
1022.30 1.865635
1022.40 1.865386
1022.50 1.865137
1022.60 1.864889
1022.70 1.86464
1022.80 1.864392
1022.90 1.864144
1023.00 1.863895
1023.10 1.863647
1023.20 1.863399
1023.30 1.863151
1023.40 1.862903
1023.50 1.862655
1023.60 1.862407
1023.70 1.862159
1023.80 1.861911
1023.90 1.861664
1024.00 1.861416
1024.10 1.861168
1024.20 1.860921
1024.30 1.860673
1024.40 1.860426
1024.50 1.860179
1024.60 1.859931
1024.70 1.859684
1024.80 1.859437
1024.90 1.85919
1025.00 1.858943
1025.10 1.858696
1025.20 1.858449
1025.30 1.858202
1025.40 1.857955
1025.50 1.857708
1025.60 1.857462
1025.70 1.857215
1025.80 1.856969
1025.90 1.856722
1026.00 1.856476
1026.10 1.856229
1026.20 1.855983
1026.30 1.855737
1026.40 1.855491
1026.50 1.855244
1026.60 1.854998
1026.70 1.854752
1026.80 1.854506
1026.90 1.854261
1027.00 1.854015
1027.10 1.853769
1027.20 1.853523
1027.30 1.853278
1027.40 1.853032
1027.50 1.852787
1027.60 1.852541
1027.70 1.852296
1027.80 1.85205
1027.90 1.851805
1028.00 1.85156
1028.10 1.851315
1028.20 1.85107
1028.30 1.850825
1028.40 1.85058
1028.50 1.850335
1028.60 1.85009
1028.70 1.849845
1028.80 1.8496
1028.90 1.849356
1029.00 1.849111
1029.10 1.848867
1029.20 1.848622
1029.30 1.848378
1029.40 1.848133
1029.50 1.847889
1029.60 1.847645
1029.70 1.847401
1029.80 1.847157
1029.90 1.846912
1030.00 1.846668
1030.10 1.846425
1030.20 1.846181
1030.30 1.845937
1030.40 1.845693
1030.50 1.845449
1030.60 1.845206
1030.70 1.844962
1030.80 1.844719
1030.90 1.844475
1031.00 1.844232
1031.10 1.843988
1031.20 1.843745
1031.30 1.843502
1031.40 1.843247
1031.50 1.842991
1031.60 1.842736
1031.70 1.84248
1031.80 1.842225
1031.90 1.84197
1032.00 1.841714
1032.10 1.841459
1032.20 1.841204
1032.30 1.840949
1032.40 1.840694
1032.50 1.840439
1032.60 1.840184
1032.70 1.839929
1032.80 1.839675
1032.90 1.83942
1033.00 1.839165
1033.10 1.838911
1033.20 1.838656
1033.30 1.838402
1033.40 1.838148
1033.50 1.837893
1033.60 1.837639
1033.70 1.837385
1033.80 1.837131
1033.90 1.836877
1034.00 1.836623
1034.10 1.836369
1034.20 1.836115
1034.30 1.835861
1034.40 1.835608
1034.50 1.835354
1034.60 1.8351
1034.70 1.834847
1034.80 1.834593
1034.90 1.83434
1035.00 1.834087
1035.10 1.833833
1035.20 1.83358
1035.30 1.833327
1035.40 1.833074
1035.50 1.832821
1035.60 1.832568
1035.70 1.832315
1035.80 1.832062
1035.90 1.83181
1036.00 1.831557
1036.10 1.831304
1036.20 1.831052
1036.30 1.830799
1036.40 1.830547
1036.50 1.830299
1036.60 1.830058
1036.70 1.829817
1036.80 1.829576
1036.90 1.829335
1037.00 1.829094
1037.10 1.828853
1037.20 1.828612
1037.30 1.828372
1037.40 1.828131
1037.50 1.827891
1037.60 1.82765
1037.70 1.82741
1037.80 1.827169
1037.90 1.826929
1038.00 1.826689
1038.10 1.826448
1038.20 1.826208
1038.30 1.825968
1038.40 1.825728
1038.50 1.825488
1038.60 1.825248
1038.70 1.825008
1038.80 1.824769
1038.90 1.824529
1039.00 1.824289
1039.10 1.82405
1039.20 1.82381
1039.30 1.823571
1039.40 1.823331
1039.50 1.823092
1039.60 1.822852
1039.70 1.822613
1039.80 1.822374
1039.90 1.822135
1040.00 1.821896
1040.10 1.821657
1040.20 1.821418
1040.30 1.821179
1040.40 1.82094
1040.50 1.820701
1040.60 1.820462
1040.70 1.820224
1040.80 1.819985
1040.90 1.819746
1041.00 1.819508
1041.10 1.819269
1041.20 1.819031
1041.30 1.818793
1041.40 1.818554
1041.50 1.818316
1041.60 1.818078
1041.70 1.81783
1041.80 1.81758
1041.90 1.81733
1042.00 1.81708
1042.10 1.81683
1042.20 1.81658
1042.30 1.81633
1042.40 1.81608
1042.50 1.815831
1042.60 1.815581
1042.70 1.815331
1042.80 1.815082
1042.90 1.814832
1043.00 1.814583
1043.10 1.814334
1043.20 1.814084
1043.30 1.813835
1043.40 1.813586
1043.50 1.813337
1043.60 1.813088
1043.70 1.812839
1043.80 1.81259
1043.90 1.812341
1044.00 1.812093
1044.10 1.811844
1044.20 1.811595
1044.30 1.811347
1044.40 1.811098
1044.50 1.81085
1044.60 1.810601
1044.70 1.810353
1044.80 1.810105
1044.90 1.809856
1045.00 1.809608
1045.10 1.80936
1045.20 1.809112
1045.30 1.808864
1045.40 1.808616
1045.50 1.808368
1045.60 1.808121
1045.70 1.807873
1045.80 1.807625
1045.90 1.807378
1046.00 1.80713
1046.10 1.806883
1046.20 1.806635
1046.30 1.806388
1046.40 1.806141
1046.50 1.805893
1046.60 1.805646
1046.70 1.805399
1046.80 1.805152
1046.90 1.804897
1047.00 1.804639
1047.10 1.804382
1047.20 1.804124
1047.30 1.803866
1047.40 1.803609
1047.50 1.803351
1047.60 1.803094
1047.70 1.802837
1047.80 1.802579
1047.90 1.802322
1048.00 1.802065
1048.10 1.801808
1048.20 1.801551
1048.30 1.801294
1048.40 1.801037
1048.50 1.80078
1048.60 1.800524
1048.70 1.800267
1048.80 1.80001
1048.90 1.799754
1049.00 1.799497
1049.10 1.799241
1049.20 1.798985
1049.30 1.798728
1049.40 1.798472
1049.50 1.798216
1049.60 1.79796
1049.70 1.797704
1049.80 1.797448
1049.90 1.797192
1050.00 1.796936
1050.10 1.79668
1050.20 1.796425
1050.30 1.796169
1050.40 1.795913
1050.50 1.795658
1050.60 1.795403
1050.70 1.795147
1050.80 1.794892
1050.90 1.794637
1051.00 1.794381
1051.10 1.794126
1051.20 1.793871
1051.30 1.793616
1051.40 1.793361
1051.50 1.793106
1051.60 1.792852
1051.70 1.792597
1051.80 1.792342
1051.90 1.792088
1052.00 1.791833
1052.10 1.791582
1052.20 1.791332
1052.30 1.791082
1052.40 1.790832
1052.50 1.790582
1052.60 1.790333
1052.70 1.790083
1052.80 1.789833
1052.90 1.789584
1053.00 1.789334
1053.10 1.789085
1053.20 1.788836
1053.30 1.788587
1053.40 1.788337
1053.50 1.788088
1053.60 1.787839
1053.70 1.78759
1053.80 1.787341
1053.90 1.787092
1054.00 1.786844
1054.10 1.786595
1054.20 1.786346
1054.30 1.786097
1054.40 1.785849
1054.50 1.7856
1054.60 1.785352
1054.70 1.785104
1054.80 1.784855
1054.90 1.784607
1055.00 1.784359
1055.10 1.784111
1055.20 1.783863
1055.30 1.783615
1055.40 1.783367
1055.50 1.783119
1055.60 1.782871
1055.70 1.782623
1055.80 1.782376
1055.90 1.782128
1056.00 1.78188
1056.10 1.781633
1056.20 1.781385
1056.30 1.781138
1056.40 1.780891
1056.50 1.780643
1056.60 1.780396
1056.70 1.780149
1056.80 1.779902
1056.90 1.779655
1057.00 1.779408
1057.10 1.779161
1057.20 1.778914
1057.30 1.778667
1057.40 1.778421
1057.50 1.778174
1057.60 1.777928
1057.70 1.777681
1057.80 1.777435
1057.90 1.777188
1058.00 1.776942
1058.10 1.776696
1058.20 1.776449
1058.30 1.776203
1058.40 1.775957
1058.50 1.775711
1058.60 1.775465
1058.70 1.775219
1058.80 1.774973
1058.90 1.774727
1059.00 1.774482
1059.10 1.774236
1059.20 1.77399
1059.30 1.773745
1059.40 1.773499
1059.50 1.773254
1059.60 1.773009
1059.70 1.772763
1059.80 1.772518
1059.90 1.772273
1060.00 1.772028
1060.10 1.771783
1060.20 1.771538
1060.30 1.771293
1060.40 1.771048
1060.50 1.770803
1060.60 1.770558
1060.70 1.770314
1060.80 1.770069
1060.90 1.769825
1061.00 1.76958
1061.10 1.769336
1061.20 1.769091
1061.30 1.768847
1061.40 1.768603
1061.50 1.768358
1061.60 1.768114
1061.70 1.76787
1061.80 1.767626
1061.90 1.767382
1062.00 1.767138
1062.10 1.766894
1062.20 1.766651
1062.30 1.766407
1062.40 1.766163
1062.50 1.76592
1062.60 1.765673
1062.70 1.765424
1062.80 1.765174
1062.90 1.764925
1063.00 1.764676
1063.10 1.764426
1063.20 1.764177
1063.30 1.763928
1063.40 1.763679
1063.50 1.76343
1063.60 1.763181
1063.70 1.762932
1063.80 1.762683
1063.90 1.762434
1064.00 1.762186
1064.10 1.761937
1064.20 1.761688
1064.30 1.76144
1064.40 1.761191
1064.50 1.760943
1064.60 1.760695
1064.70 1.760446
1064.80 1.760198
1064.90 1.75995
1065.00 1.759702
1065.10 1.759454
1065.20 1.759206
1065.30 1.758958
1065.40 1.75871
1065.50 1.758462
1065.60 1.758215
1065.70 1.757967
1065.80 1.757719
1065.90 1.757472
1066.00 1.757224
1066.10 1.756977
1066.20 1.75673
1066.30 1.756482
1066.40 1.756235
1066.50 1.755988
1066.60 1.755741
1066.70 1.755494
1066.80 1.755247
1066.90 1.755
1067.00 1.754753
1067.10 1.754506
1067.20 1.754259
1067.30 1.754013
1067.40 1.753766
1067.50 1.75352
1067.60 1.753273
1067.70 1.753027
1067.80 1.75278
1067.90 1.752534
1068.00 1.752288
1068.10 1.752042
1068.20 1.751796
1068.30 1.75155
1068.40 1.751304
1068.50 1.751058
1068.60 1.750812
1068.70 1.750566
1068.80 1.75032
1068.90 1.750075
1069.00 1.749829
1069.10 1.749583
1069.20 1.749338
1069.30 1.749093
1069.40 1.748847
1069.50 1.748602
1069.60 1.748357
1069.70 1.748111
1069.80 1.747866
1069.90 1.747621
1070.00 1.747376
1070.10 1.747131
1070.20 1.746886
1070.30 1.746642
1070.40 1.746397
1070.50 1.746152
1070.60 1.745908
1070.70 1.745663
1070.80 1.745418
1070.90 1.745174
1071.00 1.74493
1071.10 1.744685
1071.20 1.744441
1071.30 1.744197
1071.40 1.743953
1071.50 1.743709
1071.60 1.743465
1071.70 1.743221
1071.80 1.742977
1071.90 1.742733
1072.00 1.742489
1072.10 1.742245
1072.20 1.742002
1072.30 1.741758
1072.40 1.741515
1072.50 1.741271
1072.60 1.741028
1072.70 1.740784
1072.80 1.740541
1072.90 1.740298
1073.00 1.740055
1073.10 1.739812
1073.20 1.739566
1073.30 1.739312
1073.40 1.739059
1073.50 1.738805
1073.60 1.738551
1073.70 1.738298
1073.80 1.738044
1073.90 1.737791
1074.00 1.737537
1074.10 1.737284
1074.20 1.737031
1074.30 1.736777
1074.40 1.736524
1074.50 1.736271
1074.60 1.736018
1074.70 1.735765
1074.80 1.735512
1074.90 1.735259
1075.00 1.735007
1075.10 1.734754
1075.20 1.734501
1075.30 1.734249
1075.40 1.733996
1075.50 1.733744
1075.60 1.733491
1075.70 1.733239
1075.80 1.732987
1075.90 1.732735
1076.00 1.732483
1076.10 1.732231
1076.20 1.731979
1076.30 1.731727
1076.40 1.731475
1076.50 1.731223
1076.60 1.730971
1076.70 1.73072
1076.80 1.730468
1076.90 1.730216
1077.00 1.729965
1077.10 1.729713
1077.20 1.729462
1077.30 1.729211
1077.40 1.72896
1077.50 1.728708
1077.60 1.728457
1077.70 1.728206
1077.80 1.727955
1077.90 1.727704
1078.00 1.727454
1078.10 1.727203
1078.20 1.726952
1078.30 1.726701
1078.40 1.726451
1078.50 1.7262
1078.60 1.72595
1078.70 1.725699
1078.80 1.725449
1078.90 1.725199
1079.00 1.724949
1079.10 1.724698
1079.20 1.724448
1079.30 1.724198
1079.40 1.723948
1079.50 1.723698
1079.60 1.723449
1079.70 1.723199
1079.80 1.722949
1079.90 1.722699
1080.00 1.72245
1080.10 1.7222
1080.20 1.721951
1080.30 1.721701
1080.40 1.721452
1080.50 1.721203
1080.60 1.720954
1080.70 1.720705
1080.80 1.720455
1080.90 1.720206
1081.00 1.719957
1081.10 1.719709
1081.20 1.71946
1081.30 1.719211
1081.40 1.718962
1081.50 1.718714
1081.60 1.718465
1081.70 1.718216
1081.80 1.717968
1081.90 1.71772
1082.00 1.717471
1082.10 1.717223
1082.20 1.716975
1082.30 1.716727
1082.40 1.716479
1082.50 1.716231
1082.60 1.715983
1082.70 1.715735
1082.80 1.715487
1082.90 1.715239
1083.00 1.714991
1083.10 1.714744
1083.20 1.714496
1083.30 1.714249
1083.40 1.714001
1083.50 1.713754
1083.60 1.713506
1083.70 1.713259
1083.80 1.713012
1083.90 1.712765
1084.00 1.712517
1084.10 1.712269
1084.20 1.712022
1084.30 1.711774
1084.40 1.711527
1084.50 1.711279
1084.60 1.711032
1084.70 1.710784
1084.80 1.710537
1084.90 1.71029
1085.00 1.710043
1085.10 1.709796
1085.20 1.709549
1085.30 1.709302
1085.40 1.709055
1085.50 1.708808
1085.60 1.708561
1085.70 1.708314
1085.80 1.708068
1085.90 1.707821
1086.00 1.707575
1086.10 1.707328
1086.20 1.707082
1086.30 1.706835
1086.40 1.706589
1086.50 1.706343
1086.60 1.706097
1086.70 1.705851
1086.80 1.705605
1086.90 1.705359
1087.00 1.705113
1087.10 1.704867
1087.20 1.704621
1087.30 1.704375
1087.40 1.70413
1087.50 1.703884
1087.60 1.703639
1087.70 1.703393
1087.80 1.703148
1087.90 1.702902
1088.00 1.702657
1088.10 1.702412
1088.20 1.702167
1088.30 1.701921
1088.40 1.701676
1088.50 1.701431
1088.60 1.701186
1088.70 1.700942
1088.80 1.700697
1088.90 1.700452
1089.00 1.700207
1089.10 1.699963
1089.20 1.699718
1089.30 1.699474
1089.40 1.699223
1089.50 1.698969
1089.60 1.698715
1089.70 1.698461
1089.80 1.698207
1089.90 1.697953
1090.00 1.697699
1090.10 1.697446
1090.20 1.697192
1090.30 1.696939
1090.40 1.696685
1090.50 1.696432
1090.60 1.696179
1090.70 1.695925
1090.80 1.695672
1090.90 1.695419
1091.00 1.695166
1091.10 1.694913
1091.20 1.69466
1091.30 1.694407
1091.40 1.694154
1091.50 1.693902
1091.60 1.693649
1091.70 1.693396
1091.80 1.693144
1091.90 1.692891
1092.00 1.692639
1092.10 1.692387
1092.20 1.692134
1092.30 1.691882
1092.40 1.69163
1092.50 1.691378
1092.60 1.691126
1092.70 1.690874
1092.80 1.690622
1092.90 1.69037
1093.00 1.690118
1093.10 1.689867
1093.20 1.689615
1093.30 1.689364
1093.40 1.689112
1093.50 1.688861
1093.60 1.688609
1093.70 1.688358
1093.80 1.688107
1093.90 1.687855
1094.00 1.687604
1094.10 1.687353
1094.20 1.687102
1094.30 1.686851
1094.40 1.6866
1094.50 1.68635
1094.60 1.686099
1094.70 1.685848
1094.80 1.6856
1094.90 1.685353
1095.00 1.685107
1095.10 1.684861
1095.20 1.684614
1095.30 1.684368
1095.40 1.684122
1095.50 1.683876
1095.60 1.68363
1095.70 1.683384
1095.80 1.683138
1095.90 1.682892
1096.00 1.682647
1096.10 1.682401
1096.20 1.682155
1096.30 1.68191
1096.40 1.681664
1096.50 1.681419
1096.60 1.681174
1096.70 1.680928
1096.80 1.680683
1096.90 1.680438
1097.00 1.680193
1097.10 1.679948
1097.20 1.679703
1097.30 1.679458
1097.40 1.679213
1097.50 1.678968
1097.60 1.678723
1097.70 1.678479
1097.80 1.678234
1097.90 1.67799
1098.00 1.677745
1098.10 1.677501
1098.20 1.677256
1098.30 1.677012
1098.40 1.676768
1098.50 1.676524
1098.60 1.676279
1098.70 1.676035
1098.80 1.675791
1098.90 1.675547
1099.00 1.675303
1099.10 1.67506
1099.20 1.674816
1099.30 1.674572
1099.40 1.674329
1099.50 1.674085
1099.60 1.673841
1099.70 1.673598
1099.80 1.673355
1099.90 1.673111
1100.00 1.672868
1100.10 1.672625
1100.20 1.672382
1100.30 1.672139
1100.40 1.671895
1100.50 1.671652
1100.60 1.67141
1100.70 1.671167
1100.80 1.670924
1100.90 1.670681
1101.00 1.670439
1101.10 1.670196
1101.20 1.669953
1101.30 1.669711
1101.40 1.669468
1101.50 1.669226
1101.60 1.668984
1101.70 1.668742
1101.80 1.668499
1101.90 1.668257
1102.00 1.668015
1102.10 1.667773
1102.20 1.667531
1102.30 1.667289
1102.40 1.667047
1102.50 1.666806
1102.60 1.666564
1102.70 1.666322
1102.80 1.666081
1102.90 1.665839
1103.00 1.665598
1103.10 1.665356
1103.20 1.665115
1103.30 1.664874
1103.40 1.664633
1103.50 1.664391
1103.60 1.66415
1103.70 1.663909
1103.80 1.663668
1103.90 1.663427
1104.00 1.663186
1104.10 1.662946
1104.20 1.662705
1104.30 1.662464
1104.40 1.662224
1104.50 1.661983
1104.60 1.661743
1104.70 1.661502
1104.80 1.661262
1104.90 1.661021
1105.00 1.660781
1105.10 1.660541
1105.20 1.660301
1105.30 1.660061
1105.40 1.659821
1105.50 1.659581
1105.60 1.659341
1105.70 1.659101
1105.80 1.658851
1105.90 1.658602
1106.00 1.658352
1106.10 1.658103
1106.20 1.657854
1106.30 1.657604
1106.40 1.657355
1106.50 1.657106
1106.60 1.656857
1106.70 1.656608
1106.80 1.656359
1106.90 1.65611
1107.00 1.655861
1107.10 1.655613
1107.20 1.655364
1107.30 1.655115
1107.40 1.654867
1107.50 1.654618
1107.60 1.65437
1107.70 1.654122
1107.80 1.653873
1107.90 1.653625
1108.00 1.653377
1108.10 1.653129
1108.20 1.652881
1108.30 1.652633
1108.40 1.652385
1108.50 1.652137
1108.60 1.651889
1108.70 1.651641
1108.80 1.651394
1108.90 1.651146
1109.00 1.650898
1109.10 1.650651
1109.20 1.650404
1109.30 1.650156
1109.40 1.649909
1109.50 1.649662
1109.60 1.649414
1109.70 1.649167
1109.80 1.64892
1109.90 1.648673
1110.00 1.648426
1110.10 1.648179
1110.20 1.647933
1110.30 1.647686
1110.40 1.647439
1110.50 1.647193
1110.60 1.646946
1110.70 1.6467
1110.80 1.646453
1110.90 1.646207
1111.00 1.64596
1111.10 1.645714
1111.20 1.645468
1111.30 1.645222
1111.40 1.644976
1111.50 1.64473
1111.60 1.644484
1111.70 1.644238
1111.80 1.643992
1111.90 1.643747
1112.00 1.643501
1112.10 1.643255
1112.20 1.64301
1112.30 1.642764
1112.40 1.642519
1112.50 1.642273
1112.60 1.642028
1112.70 1.641783
1112.80 1.641538
1112.90 1.641292
1113.00 1.641047
1113.10 1.640802
1113.20 1.640557
1113.30 1.640312
1113.40 1.640068
1113.50 1.639823
1113.60 1.639578
1113.70 1.639334
1113.80 1.639089
1113.90 1.638844
1114.00 1.6386
1114.10 1.638356
1114.20 1.638111
1114.30 1.637867
1114.40 1.637623
1114.50 1.637379
1114.60 1.637135
1114.70 1.636891
1114.80 1.636647
1114.90 1.636403
1115.00 1.636159
1115.10 1.635915
1115.20 1.635671
1115.30 1.635428
1115.40 1.635184
1115.50 1.63494
1115.60 1.634697
1115.70 1.634454
1115.80 1.63421
1115.90 1.633967
1116.00 1.633724
1116.10 1.633481
1116.20 1.633237
1116.30 1.632994
1116.40 1.632751
1116.50 1.632508
1116.60 1.632266
1116.70 1.632023
1116.80 1.631778
1116.90 1.63153
1117.00 1.631283
1117.10 1.631035
1117.20 1.630788
1117.30 1.63054
1117.40 1.630293
1117.50 1.630046
1117.60 1.629798
1117.70 1.629551
1117.80 1.629304
1117.90 1.629057
1118.00 1.62881
1118.10 1.628563
1118.20 1.628317
1118.30 1.62807
1118.40 1.627823
1118.50 1.627577
1118.60 1.62733
1118.70 1.627083
1118.80 1.626837
1118.90 1.626591
1119.00 1.626344
1119.10 1.626098
1119.20 1.625852
1119.30 1.625606
1119.40 1.62536
1119.50 1.625114
1119.60 1.624868
1119.70 1.624622
1119.80 1.624376
1119.90 1.62413
1120.00 1.623884
1120.10 1.623639
1120.20 1.623393
1120.30 1.623148
1120.40 1.622902
1120.50 1.622657
1120.60 1.622411
1120.70 1.622166
1120.80 1.621921
1120.90 1.621676
1121.00 1.621431
1121.10 1.621186
1121.20 1.620941
1121.30 1.620696
1121.40 1.620451
1121.50 1.620206
1121.60 1.619962
1121.70 1.619717
1121.80 1.619472
1121.90 1.619228
1122.00 1.618983
1122.10 1.618739
1122.20 1.618495
1122.30 1.61825
1122.40 1.618006
1122.50 1.617762
1122.60 1.617518
1122.70 1.617274
1122.80 1.61703
1122.90 1.616786
1123.00 1.616542
1123.10 1.616298
1123.20 1.616054
1123.30 1.615811
1123.40 1.615567
1123.50 1.615324
1123.60 1.61508
1123.70 1.614837
1123.80 1.614593
1123.90 1.61435
1124.00 1.614107
1124.10 1.613864
1124.20 1.613621
1124.30 1.613377
1124.40 1.613134
1124.50 1.612892
1124.60 1.612649
1124.70 1.612406
1124.80 1.612163
1124.90 1.61192
1125.00 1.611678
1125.10 1.611435
1125.20 1.611193
1125.30 1.61095
1125.40 1.610708
1125.50 1.610466
1125.60 1.610223
1125.70 1.609981
1125.80 1.609739
1125.90 1.609497
1126.00 1.609255
1126.10 1.609013
1126.20 1.608771
1126.30 1.608529
1126.40 1.608287
1126.50 1.608046
1126.60 1.607804
1126.70 1.607562
1126.80 1.607321
1126.90 1.607079
1127.00 1.606838
1127.10 1.606597
1127.20 1.606355
1127.30 1.606114
1127.40 1.605873
1127.50 1.605632
1127.60 1.605391
1127.70 1.60515
1127.80 1.604909
1127.90 1.604668
1128.00 1.604423
1128.10 1.604178
1128.20 1.603932
1128.30 1.603687
1128.40 1.603442
1128.50 1.603196
1128.60 1.602951
1128.70 1.602706
1128.80 1.602461
1128.90 1.602216
1129.00 1.601971
1129.10 1.601726
1129.20 1.601481
1129.30 1.601236
1129.40 1.600992
1129.50 1.600747
1129.60 1.600502
1129.70 1.600258
1129.80 1.600013
1129.90 1.599769
1130.00 1.599525
1130.10 1.59928
1130.20 1.599036
1130.30 1.598792
1130.40 1.598548
1130.50 1.598304
1130.60 1.59806
1130.70 1.597816
1130.80 1.597572
1130.90 1.597328
1131.00 1.597085
1131.10 1.596841
1131.20 1.596597
1131.30 1.596354
1131.40 1.59611
1131.50 1.595867
1131.60 1.595623
1131.70 1.59538
1131.80 1.595137
1131.90 1.594894
1132.00 1.594651
1132.10 1.594407
1132.20 1.594164
1132.30 1.593922
1132.40 1.593679
1132.50 1.593436
1132.60 1.593193
1132.70 1.59295
1132.80 1.592708
1132.90 1.592465
1133.00 1.592223
1133.10 1.59198
1133.20 1.591738
1133.30 1.591495
1133.40 1.591253
1133.50 1.591011
1133.60 1.590769
1133.70 1.590527
1133.80 1.590285
1133.90 1.590043
1134.00 1.589801
1134.10 1.589559
1134.20 1.589317
1134.30 1.589075
1134.40 1.588834
1134.50 1.588592
1134.60 1.588351
1134.70 1.588109
1134.80 1.587868
1134.90 1.587626
1135.00 1.587385
1135.10 1.587144
1135.20 1.586903
1135.30 1.586662
1135.40 1.58642
1135.50 1.586179
1135.60 1.585938
1135.70 1.585698
1135.80 1.585457
1135.90 1.585216
1136.00 1.584975
1136.10 1.584735
1136.20 1.584494
1136.30 1.584254
1136.40 1.584013
1136.50 1.583773
1136.60 1.583532
1136.70 1.583292
1136.80 1.583052
1136.90 1.582812
1137.00 1.582572
1137.10 1.582332
1137.20 1.582092
1137.30 1.581852
1137.40 1.581612
1137.50 1.581372
1137.60 1.581132
1137.70 1.580893
1137.80 1.580653
1137.90 1.580413
1138.00 1.580174
1138.10 1.579934
1138.20 1.579695
1138.30 1.579456
1138.40 1.579217
1138.50 1.578977
1138.60 1.578738
1138.70 1.578499
1138.80 1.57826
1138.90 1.578021
1139.00 1.577782
1139.10 1.577543
1139.20 1.577305
1139.30 1.577061
1139.40 1.576818
1139.50 1.576575
1139.60 1.576332
1139.70 1.576089
1139.80 1.575846
1139.90 1.575603
1140.00 1.57536
1140.10 1.575117
1140.20 1.574874
1140.30 1.574632
1140.40 1.574389
1140.50 1.574147
1140.60 1.573904
1140.70 1.573662
1140.80 1.573419
1140.90 1.573177
1141.00 1.572935
1141.10 1.572692
1141.20 1.57245
1141.30 1.572208
1141.40 1.571966
1141.50 1.571724
1141.60 1.571482
1141.70 1.57124
1141.80 1.570999
1141.90 1.570757
1142.00 1.570515
1142.10 1.570274
1142.20 1.570032
1142.30 1.569791
1142.40 1.569549
1142.50 1.569308
1142.60 1.569067
1142.70 1.568825
1142.80 1.568584
1142.90 1.568343
1143.00 1.568102
1143.10 1.567861
1143.20 1.56762
1143.30 1.567379
1143.40 1.567139
1143.50 1.566898
1143.60 1.566657
1143.70 1.566416
1143.80 1.566176
1143.90 1.565935
1144.00 1.565695
1144.10 1.565455
1144.20 1.565214
1144.30 1.564974
1144.40 1.564734
1144.50 1.564494
1144.60 1.564253
1144.70 1.564013
1144.80 1.563774
1144.90 1.563534
1145.00 1.563294
1145.10 1.563054
1145.20 1.562814
1145.30 1.562575
1145.40 1.562335
1145.50 1.562095
1145.60 1.561856
1145.70 1.561616
1145.80 1.561377
1145.90 1.561138
1146.00 1.560899
1146.10 1.560659
1146.20 1.56042
1146.30 1.560181
1146.40 1.559942
1146.50 1.559703
1146.60 1.559464
1146.70 1.559225
1146.80 1.558987
1146.90 1.558748
1147.00 1.558509
1147.10 1.558271
1147.20 1.558032
1147.30 1.557794
1147.40 1.557555
1147.50 1.557317
1147.60 1.557079
1147.70 1.55684
1147.80 1.556602
1147.90 1.556364
1148.00 1.556126
1148.10 1.555888
1148.20 1.55565
1148.30 1.555412
1148.40 1.555174
1148.50 1.554937
1148.60 1.554699
1148.70 1.554461
1148.80 1.554224
1148.90 1.553986
1149.00 1.553749
1149.10 1.553511
1149.20 1.553274
1149.30 1.553037
1149.40 1.552799
1149.50 1.552562
1149.60 1.552325
1149.70 1.552088
1149.80 1.551851
1149.90 1.551614
1150.00 1.551377
1150.10 1.551141
1150.20 1.550904
1150.30 1.550667
1150.40 1.55043
1150.50 1.550194
1150.60 1.549957
1150.70 1.549721
1150.80 1.549484
1150.90 1.549247
1151.00 1.549011
1151.10 1.548774
1151.20 1.548537
1151.30 1.548301
1151.40 1.548065
1151.50 1.547828
1151.60 1.547592
1151.70 1.547356
1151.80 1.54712
1151.90 1.546884
1152.00 1.546648
1152.10 1.546412
1152.20 1.546176
1152.30 1.54594
1152.40 1.545704
1152.50 1.545468
1152.60 1.545233
1152.70 1.544997
1152.80 1.544762
1152.90 1.544526
1153.00 1.544291
1153.10 1.544055
1153.20 1.54382
1153.30 1.543585
1153.40 1.54335
1153.50 1.543114
1153.60 1.542879
1153.70 1.542644
1153.80 1.542409
1153.90 1.542174
1154.00 1.54194
1154.10 1.541705
1154.20 1.54147
1154.30 1.541235
1154.40 1.541001
1154.50 1.540766
1154.60 1.540532
1154.70 1.540297
1154.80 1.540063
1154.90 1.539828
1155.00 1.539594
1155.10 1.53936
1155.20 1.539126
1155.30 1.538892
1155.40 1.538658
1155.50 1.538424
1155.60 1.53819
1155.70 1.537956
1155.80 1.537722
1155.90 1.537488
1156.00 1.537255
1156.10 1.537021
1156.20 1.536787
1156.30 1.536554
1156.40 1.536316
1156.50 1.536075
1156.60 1.535833
1156.70 1.535592
1156.80 1.535351
1156.90 1.535109
1157.00 1.534868
1157.10 1.534627
1157.20 1.534386
1157.30 1.534145
1157.40 1.533904
1157.50 1.533663
1157.60 1.533422
1157.70 1.533182
1157.80 1.532941
1157.90 1.5327
1158.00 1.53246
1158.10 1.532219
1158.20 1.531979
1158.30 1.531738
1158.40 1.531498
1158.50 1.531258
1158.60 1.531018
1158.70 1.530777
1158.80 1.530537
1158.90 1.530297
1159.00 1.530057
1159.10 1.529817
1159.20 1.529578
1159.30 1.529338
1159.40 1.529098
1159.50 1.528858
1159.60 1.528619
1159.70 1.528379
1159.80 1.52814
1159.90 1.5279
1160.00 1.527661
1160.10 1.527422
1160.20 1.527182
1160.30 1.526943
1160.40 1.526704
1160.50 1.526465
1160.60 1.526226
1160.70 1.525987
1160.80 1.525748
1160.90 1.525509
1161.00 1.525271
1161.10 1.525032
1161.20 1.524793
1161.30 1.524555
1161.40 1.524316
1161.50 1.524078
1161.60 1.523839
1161.70 1.523601
1161.80 1.523363
1161.90 1.523124
1162.00 1.522886
1162.10 1.522648
1162.20 1.52241
1162.30 1.522171
1162.40 1.521933
1162.50 1.521695
1162.60 1.521457
1162.70 1.521219
1162.80 1.520981
1162.90 1.520743
1163.00 1.520505
1163.10 1.520268
1163.20 1.52003
1163.30 1.519792
1163.40 1.519555
1163.50 1.519317
1163.60 1.51908
1163.70 1.518842
1163.80 1.518605
1163.90 1.518368
1164.00 1.518131
1164.10 1.517893
1164.20 1.517656
1164.30 1.517419
1164.40 1.517182
1164.50 1.516945
1164.60 1.516709
1164.70 1.516472
1164.80 1.516235
1164.90 1.515998
1165.00 1.515762
1165.10 1.515525
1165.20 1.515289
1165.30 1.515052
1165.40 1.514816
1165.50 1.514579
1165.60 1.514343
1165.70 1.514107
1165.80 1.513871
1165.90 1.513635
1166.00 1.513399
1166.10 1.513163
1166.20 1.512927
1166.30 1.512691
1166.40 1.512455
1166.50 1.512219
1166.60 1.511984
1166.70 1.511748
1166.80 1.511512
1166.90 1.511277
1167.00 1.511041
1167.10 1.510806
1167.20 1.510571
1167.30 1.510335
1167.40 1.5101
1167.50 1.509865
1167.60 1.50963
1167.70 1.509395
1167.80 1.50916
1167.90 1.508925
1168.00 1.50869
1168.10 1.508455
1168.20 1.50822
1168.30 1.507986
1168.40 1.507751
1168.50 1.507516
1168.60 1.507282
1168.70 1.507047
1168.80 1.506813
1168.90 1.506579
1169.00 1.506344
1169.10 1.50611
1169.20 1.505876
1169.30 1.505642
1169.40 1.505408
1169.50 1.505174
1169.60 1.50494
1169.70 1.504706
1169.80 1.504472
1169.90 1.504238
1170.00 1.504005
1170.10 1.503771
1170.20 1.503537
1170.30 1.503304
1170.40 1.50307
1170.50 1.502837
1170.60 1.502604
1170.70 1.50237
1170.80 1.502137
1170.90 1.501904
1171.00 1.501671
1171.10 1.501438
1171.20 1.501205
1171.30 1.500972
1171.40 1.500739
1171.50 1.500506
1171.60 1.500273
1171.70 1.50004
1171.80 1.499808
1171.90 1.499575
1172.00 1.499342
1172.10 1.49911
1172.20 1.498877
1172.30 1.498645
1172.40 1.498413
1172.50 1.49818
1172.60 1.497948
1172.70 1.497716
1172.80 1.497484
1172.90 1.497252
1173.00 1.49702
1173.10 1.496788
1173.20 1.496556
1173.30 1.496324
1173.40 1.496093
1173.50 1.495861
1173.60 1.495629
1173.70 1.495398
1173.80 1.495166
1173.90 1.494934
1174.00 1.494703
1174.10 1.494471
1174.20 1.49424
1174.30 1.494008
1174.40 1.493777
1174.50 1.493545
1174.60 1.493314
1174.70 1.493083
1174.80 1.492852
1174.90 1.49262
1175.00 1.492389
1175.10 1.492158
1175.20 1.491927
1175.30 1.491697
1175.40 1.491466
1175.50 1.491235
1175.60 1.491004
1175.70 1.490773
1175.80 1.490543
1175.90 1.490312
1176.00 1.490082
1176.10 1.489851
1176.20 1.489621
1176.30 1.489391
1176.40 1.48916
1176.50 1.48893
1176.60 1.4887
1176.70 1.48847
1176.80 1.48824
1176.90 1.48801
1177.00 1.48778
1177.10 1.48755
1177.20 1.48732
1177.30 1.48709
1177.40 1.486861
1177.50 1.486631
1177.60 1.486402
1177.70 1.486172
1177.80 1.485943
1177.90 1.485713
1178.00 1.485484
1178.10 1.485254
1178.20 1.485025
1178.30 1.484796
1178.40 1.484567
1178.50 1.484338
1178.60 1.484109
1178.70 1.48388
1178.80 1.483651
1178.90 1.483422
1179.00 1.483193
1179.10 1.482964
1179.20 1.482736
1179.30 1.482507
1179.40 1.482279
1179.50 1.48205
1179.60 1.481821
1179.70 1.481585
1179.80 1.481349
1179.90 1.481113
1180.00 1.480877
1180.10 1.480641
1180.20 1.480406
1180.30 1.48017
1180.40 1.479934
1180.50 1.479699
1180.60 1.479463
1180.70 1.479228
1180.80 1.478992
1180.90 1.478757
1181.00 1.478522
1181.10 1.478287
1181.20 1.478052
1181.30 1.477817
1181.40 1.477581
1181.50 1.477347
1181.60 1.477112
1181.70 1.476877
1181.80 1.476642
1181.90 1.476407
1182.00 1.476173
1182.10 1.475938
1182.20 1.475703
1182.30 1.475469
1182.40 1.475235
1182.50 1.475
1182.60 1.474766
1182.70 1.474532
1182.80 1.474297
1182.90 1.474063
1183.00 1.473829
1183.10 1.473595
1183.20 1.473361
1183.30 1.473127
1183.40 1.472893
1183.50 1.47266
1183.60 1.472426
1183.70 1.472192
1183.80 1.471959
1183.90 1.471725
1184.00 1.471492
1184.10 1.471258
1184.20 1.471025
1184.30 1.470791
1184.40 1.470558
1184.50 1.470325
1184.60 1.470092
1184.70 1.469859
1184.80 1.469626
1184.90 1.469393
1185.00 1.46916
1185.10 1.468927
1185.20 1.468694
1185.30 1.468461
1185.40 1.468229
1185.50 1.467996
1185.60 1.467763
1185.70 1.46753
1185.80 1.467298
1185.90 1.467065
1186.00 1.466833
1186.10 1.4666
1186.20 1.466368
1186.30 1.466136
1186.40 1.465903
1186.50 1.465671
1186.60 1.465439
1186.70 1.465207
1186.80 1.464975
1186.90 1.464743
1187.00 1.464511
1187.10 1.464279
1187.20 1.464047
1187.30 1.463816
1187.40 1.463584
1187.50 1.463352
1187.60 1.463121
1187.70 1.462889
1187.80 1.462658
1187.90 1.462426
1188.00 1.462195
1188.10 1.461964
1188.20 1.461732
1188.30 1.461501
1188.40 1.46127
1188.50 1.461039
1188.60 1.460808
1188.70 1.460577
1188.80 1.460346
1188.90 1.460115
1189.00 1.459885
1189.10 1.459654
1189.20 1.459423
1189.30 1.459193
1189.40 1.458962
1189.50 1.458732
1189.60 1.458501
1189.70 1.458271
1189.80 1.45804
1189.90 1.45781
1190.00 1.45758
1190.10 1.45735
1190.20 1.45712
1190.30 1.45689
1190.40 1.45666
1190.50 1.45643
1190.60 1.4562
1190.70 1.45597
1190.80 1.45574
1190.90 1.455511
1191.00 1.455281
1191.10 1.455051
1191.20 1.454822
1191.30 1.454592
1191.40 1.454363
1191.50 1.454134
1191.60 1.453904
1191.70 1.453675
1191.80 1.453446
1191.90 1.453217
1192.00 1.452988
1192.10 1.452759
1192.20 1.45253
1192.30 1.452301
1192.40 1.452072
1192.50 1.451843
1192.60 1.451614
1192.70 1.451386
1192.80 1.451157
1192.90 1.450928
1193.00 1.4507
1193.10 1.450471
1193.20 1.450243
1193.30 1.450015
1193.40 1.449786
1193.50 1.449558
1193.60 1.44933
1193.70 1.449102
1193.80 1.448874
1193.90 1.448646
1194.00 1.448418
1194.10 1.44819
1194.20 1.447962
1194.30 1.447734
1194.40 1.447507
1194.50 1.447279
1194.60 1.447051
1194.70 1.446824
1194.80 1.446596
1194.90 1.446369
1195.00 1.446141
1195.10 1.445914
1195.20 1.445687
1195.30 1.44546
1195.40 1.445232
1195.50 1.445005
1195.60 1.444778
1195.70 1.444551
1195.80 1.444324
1195.90 1.444097
1196.00 1.443871
1196.10 1.443644
1196.20 1.443417
1196.30 1.44319
1196.40 1.442964
1196.50 1.442737
1196.60 1.442511
1196.70 1.442284
1196.80 1.442058
1196.90 1.441832
1197.00 1.441605
1197.10 1.441379
1197.20 1.441153
1197.30 1.440927
1197.40 1.440694
1197.50 1.440461
1197.60 1.440227
1197.70 1.439994
1197.80 1.439761
1197.90 1.439528
1198.00 1.439295
1198.10 1.439062
1198.20 1.438829
1198.30 1.438596
1198.40 1.438363
1198.50 1.43813
1198.60 1.437897
1198.70 1.437665
1198.80 1.437432
1198.90 1.4372
1199.00 1.436967
1199.10 1.436735
1199.20 1.436502
1199.30 1.43627
1199.40 1.436038
1199.50 1.435805
1199.60 1.435573
1199.70 1.435341
1199.80 1.435109
1199.90 1.434877
1200.00 1.434645
