# Version 2.1 - nm, norm@500 to 1, cut digits, bergeron_He_10000_85.dat_10000
# Wavelength(nm)  Flambda(ergs/cm^s/s/nm)
300.00 2.000467
300.10 2.000059
300.20 1.999638
300.30 1.999232
300.40 1.998925
300.50 1.998618
300.60 1.998311
300.70 1.998003
300.80 1.997696
300.90 1.997389
301.00 1.997082
301.10 1.996775
301.20 1.996467
301.30 1.99616
301.40 1.995853
301.50 1.995545
301.60 1.995238
301.70 1.994931
301.80 1.994623
301.90 1.994316
302.00 1.994008
302.10 1.993709
302.20 1.993411
302.30 1.993113
302.40 1.992815
302.50 1.992517
302.60 1.992219
302.70 1.991921
302.80 1.991623
302.90 1.991325
303.00 1.991027
303.10 1.990728
303.20 1.99043
303.30 1.990126
303.40 1.989777
303.50 1.989427
303.60 1.989077
303.70 1.988727
303.80 1.988378
303.90 1.988028
304.00 1.987678
304.10 1.987329
304.20 1.986979
304.30 1.98663
304.40 1.98628
304.50 1.985931
304.60 1.985604
304.70 1.985281
304.80 1.984957
304.90 1.984634
305.00 1.98431
305.10 1.983986
305.20 1.983663
305.30 1.983339
305.40 1.983016
305.50 1.982692
305.60 1.982368
305.70 1.982045
305.80 1.981721
305.90 1.981397
306.00 1.981074
306.10 1.98075
306.20 1.980427
306.30 1.980103
306.40 1.979756
306.50 1.979403
306.60 1.97905
306.70 1.978696
306.80 1.978343
306.90 1.97799
307.00 1.977637
307.10 1.977284
307.20 1.976931
307.30 1.976578
307.40 1.976225
307.50 1.975872
307.60 1.975519
307.70 1.975166
307.80 1.974813
307.90 1.97446
308.00 1.974107
308.10 1.973755
308.20 1.973402
308.30 1.973049
308.40 1.972697
308.50 1.972344
308.60 1.971992
308.70 1.971639
308.80 1.971293
308.90 1.970962
309.00 1.970544
309.10 1.970127
309.20 1.969709
309.30 1.969291
309.40 1.968883
309.50 1.968533
309.60 1.968182
309.70 1.967832
309.80 1.967482
309.90 1.967131
310.00 1.966781
310.10 1.966431
310.20 1.966081
310.30 1.96573
310.40 1.965354
310.50 1.964949
310.60 1.964544
310.70 1.96414
310.80 1.963735
310.90 1.963331
311.00 1.963011
311.10 1.962692
311.20 1.962373
311.30 1.962044
311.40 1.96169
311.50 1.961336
311.60 1.960983
311.70 1.960629
311.80 1.960275
311.90 1.959921
312.00 1.959568
312.10 1.959214
312.20 1.95868
312.30 1.958203
312.40 1.957921
312.50 1.957438
312.60 1.957124
312.70 1.95681
312.80 1.956496
312.90 1.956129
313.00 1.955705
313.10 1.95528
313.20 1.954856
313.30 1.954446
313.40 1.954076
313.50 1.953706
313.60 1.953336
313.70 1.952966
313.80 1.952596
313.90 1.952227
314.00 1.951857
314.10 1.951433
314.20 1.95101
314.30 1.950586
314.40 1.950163
314.50 1.94974
314.60 1.949317
314.70 1.948894
314.80 1.948451
314.90 1.947968
315.00 1.947505
315.10 1.947128
315.20 1.946751
315.30 1.946375
315.40 1.945998
315.50 1.945621
315.60 1.945245
315.70 1.944868
315.80 1.944492
315.90 1.944115
316.00 1.943739
316.10 1.943363
316.20 1.942987
316.30 1.942327
316.40 1.941951
316.50 1.941575
316.60 1.940916
316.70 1.940541
316.80 1.940166
316.90 1.939791
317.00 1.939416
317.10 1.939041
317.20 1.938666
317.30 1.938418
317.40 1.938123
317.50 1.937697
317.60 1.937271
317.70 1.936845
317.80 1.936419
317.90 1.935941
318.00 1.935327
318.10 1.934954
318.20 1.93458
318.30 1.934206
318.40 1.933833
318.50 1.933459
318.60 1.932867
318.70 1.932298
318.80 1.932121
318.90 1.931552
319.00 1.931034
319.10 1.930662
319.20 1.930263
319.30 1.929792
319.40 1.929321
319.50 1.92885
319.60 1.928774
319.70 1.928304
319.80 1.927833
319.90 1.927363
320.00 1.92694
320.10 1.926569
320.20 1.926047
320.30 1.925538
320.40 1.925056
320.50 1.924796
320.60 1.924159
320.70 1.923789
320.80 1.923418
320.90 1.923048
321.00 1.922677
321.10 1.922307
321.20 1.921739
321.30 1.921305
321.40 1.920871
321.50 1.920438
321.60 1.920004
321.70 1.919571
321.80 1.91913
321.90 1.918679
322.00 1.918426
322.10 1.917984
322.20 1.917543
322.30 1.917102
322.40 1.916662
322.50 1.916221
322.60 1.915781
322.70 1.91534
322.80 1.914731
322.90 1.914272
323.00 1.913813
323.10 1.913354
323.20 1.912895
323.30 1.912436
323.40 1.911978
323.50 1.91152
323.60 1.911062
323.70 1.910604
323.80 1.910146
323.90 1.909689
324.00 1.909234
324.10 1.90878
324.20 1.908326
324.30 1.907864
324.40 1.907398
324.50 1.90695
324.60 1.906503
324.70 1.906055
324.80 1.905608
324.90 1.905161
325.00 1.904715
325.10 1.904268
325.20 1.90383
325.30 1.903408
325.40 1.902987
325.50 1.902533
325.60 1.90204
325.70 1.901548
325.80 1.901055
325.90 1.900604
326.00 1.900199
326.10 1.899794
326.20 1.899389
326.30 1.899007
326.40 1.898691
326.50 1.898226
326.60 1.897761
326.70 1.897296
326.80 1.896832
326.90 1.896368
327.00 1.895904
327.10 1.89544
327.20 1.894977
327.30 1.894513
327.40 1.89405
327.50 1.893587
327.60 1.893125
327.70 1.892662
327.80 1.8922
327.90 1.891652
328.00 1.891089
328.10 1.890619
328.20 1.89015
328.30 1.88968
328.40 1.889211
328.50 1.888672
328.60 1.888115
328.70 1.88756
328.80 1.887035
328.90 1.8866
329.00 1.886165
329.10 1.88573
329.20 1.885295
329.30 1.884861
329.40 1.884426
329.50 1.883992
329.60 1.883558
329.70 1.883124
329.80 1.882691
329.90 1.882257
330.00 1.881801
330.10 1.881319
330.20 1.880836
330.30 1.880354
330.40 1.879874
330.50 1.879397
330.60 1.878921
330.70 1.878444
330.80 1.877968
330.90 1.877492
331.00 1.877017
331.10 1.876541
331.20 1.876066
331.30 1.875591
331.40 1.875116
331.50 1.874627
331.60 1.874119
331.70 1.873612
331.80 1.873132
331.90 1.872653
332.00 1.872174
332.10 1.871695
332.20 1.871217
332.30 1.870738
332.40 1.87026
332.50 1.869783
332.60 1.869305
332.70 1.868828
332.80 1.868351
332.90 1.867874
333.00 1.867398
333.10 1.866908
333.20 1.866402
333.30 1.865896
333.40 1.865391
333.50 1.864886
333.60 1.864381
333.70 1.863876
333.80 1.863372
333.90 1.862868
334.00 1.862364
334.10 1.861853
334.20 1.861333
334.30 1.860813
334.40 1.860293
334.50 1.859774
334.60 1.859255
334.70 1.858689
334.80 1.858185
334.90 1.857849
335.00 1.857513
335.10 1.856795
335.20 1.856193
335.30 1.85587
335.40 1.855269
335.50 1.854731
335.60 1.854383
335.70 1.853808
335.80 1.853461
335.90 1.853
336.00 1.852401
336.10 1.851802
336.20 1.851203
336.30 1.850681
336.40 1.85025
336.50 1.84982
336.60 1.84939
336.70 1.848961
336.80 1.848531
336.90 1.848024
337.00 1.847423
337.10 1.846823
337.20 1.846223
337.30 1.845661
337.40 1.845153
337.50 1.844646
337.60 1.84414
337.70 1.843633
337.80 1.843127
337.90 1.842662
338.00 1.842247
338.10 1.841832
338.20 1.841417
338.30 1.841002
338.40 1.840555
338.50 1.840026
338.60 1.839498
338.70 1.83897
338.80 1.838442
338.90 1.837915
339.00 1.837388
339.10 1.836861
339.20 1.836335
339.30 1.835787
339.40 1.835209
339.50 1.83466
339.60 1.834147
339.70 1.833634
339.80 1.833121
339.90 1.832609
340.00 1.832097
340.10 1.831585
340.20 1.831073
340.30 1.830562
340.40 1.830051
340.50 1.829541
340.60 1.82903
340.70 1.82852
340.80 1.827984
340.90 1.827411
341.00 1.826889
341.10 1.826429
341.20 1.825969
341.30 1.825509
341.40 1.825049
341.50 1.82459
341.60 1.824131
341.70 1.823672
341.80 1.823146
341.90 1.822537
342.00 1.821929
342.10 1.821321
342.20 1.820865
342.30 1.820323
342.40 1.819699
342.50 1.819206
342.60 1.818713
342.70 1.818221
342.80 1.817728
342.90 1.817236
343.00 1.816758
343.10 1.816297
343.20 1.815836
343.30 1.815375
343.40 1.814868
343.50 1.814293
343.60 1.813719
343.70 1.813145
343.80 1.812571
343.90 1.811998
344.00 1.811474
344.10 1.811021
344.20 1.810569
344.30 1.810117
344.40 1.809616
344.50 1.809045
344.60 1.808289
344.70 1.807958
344.80 1.807149
344.90 1.806818
345.00 1.806193
345.10 1.805624
345.20 1.805124
345.30 1.804723
345.40 1.804322
345.50 1.803838
345.60 1.803259
345.70 1.802692
345.80 1.802125
345.90 1.801558
346.00 1.800992
346.10 1.800426
346.20 1.79988
346.30 1.799362
346.40 1.798844
346.50 1.798327
346.60 1.79781
346.70 1.797293
346.80 1.796777
346.90 1.796261
347.00 1.795745
347.10 1.795229
347.20 1.794713
347.30 1.794194
347.40 1.793676
347.50 1.793158
347.60 1.79264
347.70 1.792123
347.80 1.791606
347.90 1.791089
348.00 1.790572
348.10 1.790056
348.20 1.78954
348.30 1.789025
348.40 1.788509
348.50 1.787994
348.60 1.78748
348.70 1.78684
348.80 1.786224
348.90 1.785699
349.00 1.785174
349.10 1.784649
349.20 1.784124
349.30 1.7836
349.40 1.783075
349.50 1.782552
349.60 1.782028
349.70 1.781505
349.80 1.780982
349.90 1.78046
350.00 1.779938
350.10 1.779416
350.20 1.778894
350.30 1.778359
350.40 1.777805
350.50 1.777252
350.60 1.776698
350.70 1.776145
350.80 1.775593
350.90 1.775041
351.00 1.774489
351.10 1.773937
351.20 1.773386
351.30 1.772835
351.40 1.772275
351.50 1.771699
351.60 1.771122
351.70 1.770547
351.80 1.769971
351.90 1.769396
352.00 1.768822
352.10 1.768247
352.20 1.76784
352.30 1.767393
352.40 1.766864
352.50 1.766334
352.60 1.765805
352.70 1.765276
352.80 1.764748
352.90 1.76422
353.00 1.763692
353.10 1.763164
353.20 1.762637
353.30 1.76211
353.40 1.761584
353.50 1.761009
353.60 1.760423
353.70 1.759837
353.80 1.759251
353.90 1.758683
354.00 1.758146
354.10 1.757609
354.20 1.757073
354.30 1.756536
354.40 1.756
354.50 1.755465
354.60 1.75493
354.70 1.754395
354.80 1.753842
354.90 1.753263
355.00 1.752684
355.10 1.752106
355.20 1.751529
355.30 1.750961
355.40 1.750393
355.50 1.749826
355.60 1.749259
355.70 1.748804
355.80 1.7484
355.90 1.747787
356.00 1.747153
356.10 1.746607
356.20 1.746061
356.30 1.745515
356.40 1.74497
356.50 1.744425
356.60 1.74388
356.70 1.743335
356.80 1.742791
356.90 1.742248
357.00 1.741704
357.10 1.741161
357.20 1.740618
357.30 1.740076
357.40 1.739521
357.50 1.738946
357.60 1.73837
357.70 1.737795
357.80 1.737227
357.90 1.73666
358.00 1.736111
358.10 1.735566
358.20 1.735022
358.30 1.734477
358.40 1.733934
358.50 1.73339
358.60 1.732847
358.70 1.732304
358.80 1.731762
358.90 1.731219
359.00 1.730668
359.10 1.7301
359.20 1.729529
359.30 1.728945
359.40 1.728361
359.50 1.727852
359.60 1.727362
359.70 1.726873
359.80 1.726245
359.90 1.725619
360.00 1.72502
360.10 1.72447
360.20 1.723921
360.30 1.723372
360.40 1.722823
360.50 1.722275
360.60 1.721918
360.70 1.721401
360.80 1.720883
360.90 1.720366
361.00 1.719693
361.10 1.718983
361.20 1.71866
361.30 1.718145
361.40 1.717607
361.50 1.716853
361.60 1.716321
361.70 1.715807
361.80 1.715258
361.90 1.71465
362.00 1.714041
362.10 1.713404
362.20 1.712821
362.30 1.712351
362.40 1.711881
362.50 1.711411
362.60 1.710941
362.70 1.710332
362.80 1.709582
362.90 1.709069
363.00 1.708557
363.10 1.70801
363.20 1.707463
363.30 1.707033
363.40 1.706201
363.50 1.705585
363.60 1.705077
363.70 1.704617
363.80 1.704062
363.90 1.703535
364.00 1.703007
364.10 1.70248
364.20 1.701954
364.30 1.701292
364.40 1.700596
364.50 1.700095
364.60 1.699589
364.70 1.699083
364.80 1.698577
364.90 1.698073
365.00 1.69757
365.10 1.696853
365.20 1.69635
365.30 1.695635
365.40 1.695133
365.50 1.694631
365.60 1.694129
365.70 1.693589
365.80 1.69305
365.90 1.69239
366.00 1.691702
366.10 1.691194
366.20 1.690687
366.30 1.690181
366.40 1.689675
366.50 1.688782
366.60 1.688284
366.70 1.687843
366.80 1.687403
366.90 1.6869
367.00 1.686285
367.10 1.68567
367.20 1.685055
367.30 1.684441
367.40 1.683827
367.50 1.683345
367.60 1.682897
367.70 1.682314
367.80 1.681731
367.90 1.681149
368.00 1.6805
368.10 1.680002
368.20 1.679421
368.30 1.678839
368.40 1.678257
368.50 1.677675
368.60 1.677094
368.70 1.676513
368.80 1.675933
368.90 1.675503
369.00 1.674929
369.10 1.674252
369.20 1.673765
369.30 1.673275
369.40 1.672786
369.50 1.672297
369.60 1.671599
369.70 1.670902
369.80 1.670334
369.90 1.669768
370.00 1.669202
370.10 1.66854
370.20 1.668049
370.30 1.667563
370.40 1.667081
370.50 1.666383
370.60 1.665893
370.70 1.665211
370.80 1.664725
370.90 1.664238
371.00 1.663756
371.10 1.663275
371.20 1.662584
371.30 1.661894
371.40 1.661524
371.50 1.660936
371.60 1.660349
371.70 1.659762
371.80 1.659176
371.90 1.65859
372.00 1.657936
372.10 1.657632
372.20 1.657015
372.30 1.656398
372.40 1.655782
372.50 1.655166
372.60 1.654551
372.70 1.653936
372.80 1.653456
372.90 1.652976
373.00 1.652297
373.10 1.651617
373.20 1.65114
373.30 1.650663
373.40 1.650187
373.50 1.649507
373.60 1.648828
373.70 1.648353
373.80 1.647967
373.90 1.647403
374.00 1.646827
374.10 1.646252
374.20 1.645676
374.30 1.645102
374.40 1.644476
374.50 1.64375
374.60 1.643174
374.70 1.642602
374.80 1.64203
374.90 1.641458
375.00 1.640987
375.10 1.640516
375.20 1.640046
375.30 1.63946
375.40 1.638875
375.50 1.63829
375.60 1.637706
375.70 1.637122
375.80 1.636538
375.90 1.635955
376.00 1.635483
376.10 1.634877
376.20 1.634271
376.30 1.633665
376.40 1.633059
376.50 1.63246
376.60 1.631869
376.70 1.631279
376.80 1.630692
376.90 1.630106
377.00 1.629522
377.10 1.628937
377.20 1.628373
377.30 1.627883
377.40 1.627393
377.50 1.626904
377.60 1.626302
377.70 1.625701
377.80 1.625101
377.90 1.6245
378.00 1.624185
378.10 1.623609
378.20 1.623026
378.30 1.622444
378.40 1.621863
378.50 1.621281
378.60 1.6207
378.70 1.62012
378.80 1.61954
378.90 1.618966
379.00 1.618405
379.10 1.617868
379.20 1.617331
379.30 1.616764
379.40 1.616167
379.50 1.61557
379.60 1.615004
379.70 1.614476
379.80 1.613913
379.90 1.613351
380.00 1.61279
380.10 1.612228
380.20 1.611668
380.30 1.611107
380.40 1.610547
380.50 1.609987
380.60 1.609251
380.70 1.608673
380.80 1.608096
380.90 1.607519
381.00 1.606942
381.10 1.606343
381.20 1.605821
381.30 1.60527
381.40 1.604816
381.50 1.604175
381.60 1.603586
381.70 1.603004
381.80 1.602555
381.90 1.601716
382.00 1.601267
382.10 1.600818
382.20 1.600058
382.30 1.599416
382.40 1.598855
382.50 1.598417
382.60 1.59798
382.70 1.597355
382.80 1.596656
382.90 1.596094
383.00 1.595531
383.10 1.59497
383.20 1.594396
383.30 1.593778
383.40 1.593185
383.50 1.592631
383.60 1.59221
383.70 1.591634
383.80 1.591059
383.90 1.590485
384.00 1.58991
384.10 1.589336
384.20 1.588763
384.30 1.58819
384.40 1.587625
384.50 1.587068
384.60 1.586512
384.70 1.585956
384.80 1.585343
384.90 1.584635
385.00 1.584141
385.10 1.583641
385.20 1.583002
385.30 1.582569
385.40 1.582031
385.50 1.581389
385.60 1.580747
385.70 1.580106
385.80 1.579521
385.90 1.579149
386.00 1.57869
386.10 1.578131
386.20 1.577461
386.30 1.576792
386.40 1.576142
386.50 1.575771
386.60 1.57518
386.70 1.57465
386.80 1.573931
386.90 1.573498
387.00 1.572884
387.10 1.572251
387.20 1.571714
387.30 1.571017
387.40 1.570575
387.50 1.569933
387.60 1.569393
387.70 1.568867
387.80 1.568341
387.90 1.567816
388.00 1.567232
388.10 1.566482
388.20 1.566114
388.30 1.565547
388.40 1.564981
388.50 1.56433
388.60 1.563632
388.70 1.563097
388.80 1.562669
388.90 1.562218
389.00 1.561439
389.10 1.561012
389.20 1.560373
389.30 1.559851
389.40 1.559242
389.50 1.558683
389.60 1.558131
389.70 1.557421
389.80 1.556876
389.90 1.556332
390.00 1.555789
390.10 1.555245
390.20 1.554702
390.30 1.554146
390.40 1.553575
390.50 1.553005
390.60 1.552434
390.70 1.551865
390.80 1.551288
390.90 1.550705
391.00 1.550066
391.10 1.549634
391.20 1.549127
391.30 1.548451
391.40 1.547908
391.50 1.547364
391.60 1.546821
391.70 1.546279
391.80 1.545736
391.90 1.545078
392.00 1.544418
392.10 1.543951
392.20 1.543455
392.30 1.542794
392.40 1.542251
392.50 1.54153
392.60 1.541049
392.70 1.540633
392.80 1.539849
392.90 1.539502
393.00 1.538914
393.10 1.53836
393.20 1.537837
393.30 1.537239
393.40 1.536625
393.50 1.535844
393.60 1.53543
393.70 1.534916
393.80 1.534254
393.90 1.533658
394.00 1.5331
394.10 1.532722
394.20 1.53213
394.30 1.531446
394.40 1.5307
394.50 1.530259
394.60 1.529688
394.70 1.529109
394.80 1.528502
394.90 1.527901
395.00 1.527481
395.10 1.526963
395.20 1.526394
395.30 1.52574
395.40 1.525087
395.50 1.524563
395.60 1.524088
395.70 1.523595
395.80 1.523054
395.90 1.522512
396.00 1.521951
396.10 1.521232
396.20 1.520645
396.30 1.52001
396.40 1.519605
396.50 1.518838
396.60 1.518434
396.70 1.517795
396.80 1.517265
396.90 1.516861
397.00 1.516097
397.10 1.515634
397.20 1.515011
397.30 1.514559
397.40 1.51391
397.50 1.513262
397.60 1.512627
397.70 1.512121
397.80 1.511616
397.90 1.511076
398.00 1.510445
398.10 1.509815
398.20 1.509262
398.30 1.508798
398.40 1.508326
398.50 1.507569
398.60 1.507094
398.70 1.506531
398.80 1.505922
398.90 1.505354
399.00 1.504864
399.10 1.504132
399.20 1.503624
399.30 1.503117
399.40 1.502609
399.50 1.502102
399.60 1.501527
399.70 1.500928
399.80 1.500328
399.90 1.499729
400.00 1.499134
400.10 1.498658
400.20 1.497983
400.30 1.497459
400.40 1.496992
400.50 1.496449
400.60 1.495831
400.70 1.495261
400.80 1.494855
400.90 1.494171
401.00 1.49378
401.10 1.493035
401.20 1.492568
401.30 1.4919
401.40 1.491348
401.50 1.490866
401.60 1.490377
401.70 1.489635
401.80 1.48917
401.90 1.488689
402.00 1.488116
402.10 1.487376
402.20 1.486988
402.30 1.486249
402.40 1.485861
402.50 1.485123
402.60 1.484736
402.70 1.483999
402.80 1.483613
402.90 1.483016
403.00 1.482456
403.10 1.481755
403.20 1.48137
403.30 1.480635
403.40 1.480176
403.50 1.47968
403.60 1.479133
403.70 1.4784
403.80 1.478023
403.90 1.477489
404.00 1.476902
404.10 1.476171
404.20 1.475615
404.30 1.475059
404.40 1.474677
404.50 1.473948
404.60 1.473567
404.70 1.472839
404.80 1.472458
404.90 1.471731
405.00 1.471276
405.10 1.470724
405.20 1.470121
405.30 1.46952
405.40 1.468968
405.50 1.468416
405.60 1.467865
405.70 1.467314
405.80 1.466764
405.90 1.466214
406.00 1.46563
406.10 1.465047
406.20 1.464465
406.30 1.463882
406.40 1.463296
406.50 1.462921
406.60 1.462201
406.70 1.461697
406.80 1.461247
406.90 1.460737
407.00 1.460156
407.10 1.459576
407.20 1.458997
407.30 1.458417
407.40 1.457838
407.50 1.45726
407.60 1.456682
407.70 1.456104
407.80 1.455527
407.90 1.454952
408.00 1.454425
408.10 1.453862
408.20 1.453327
408.30 1.452838
408.40 1.452348
408.50 1.451697
408.60 1.451104
408.70 1.450512
408.80 1.44995
408.90 1.44957
409.00 1.448991
409.10 1.448414
409.20 1.447836
409.30 1.447259
409.40 1.446682
409.50 1.446095
409.60 1.445509
409.70 1.44493
409.80 1.444381
409.90 1.443838
410.00 1.443462
410.10 1.442758
410.20 1.44216
410.30 1.441589
410.40 1.44104
410.50 1.44056
410.60 1.440081
410.70 1.439584
410.80 1.43902
410.90 1.438456
411.00 1.437862
411.10 1.437258
411.20 1.436654
411.30 1.436089
411.40 1.435673
411.50 1.435094
411.60 1.434516
411.70 1.433947
411.80 1.433418
411.90 1.432857
412.00 1.432161
412.10 1.431801
412.20 1.431106
412.30 1.430747
412.40 1.430065
412.50 1.429694
412.60 1.429001
412.70 1.428412
412.80 1.42785
412.90 1.427271
413.00 1.426932
413.10 1.426374
413.20 1.425816
413.30 1.425258
413.40 1.4247
413.50 1.424117
413.60 1.423468
413.70 1.422946
413.80 1.422425
413.90 1.421903
414.00 1.421382
414.10 1.420862
414.20 1.420302
414.30 1.419616
414.40 1.419196
414.50 1.418577
414.60 1.417933
414.70 1.417414
414.80 1.416896
414.90 1.416378
415.00 1.415861
415.10 1.415344
415.20 1.414812
415.30 1.414234
415.40 1.413655
415.50 1.413078
415.60 1.412516
415.70 1.411955
415.80 1.411391
415.90 1.41082
416.00 1.41025
416.10 1.40969
416.20 1.409171
416.30 1.408651
416.40 1.408132
416.50 1.407613
416.60 1.407101
416.70 1.406585
416.80 1.40591
416.90 1.405411
417.00 1.404888
417.10 1.40422
417.20 1.40371
417.30 1.403199
417.40 1.402642
417.50 1.402086
417.60 1.401506
417.70 1.40084
417.80 1.400333
417.90 1.399825
418.00 1.399318
418.10 1.398812
418.20 1.398305
418.30 1.397794
418.40 1.397152
418.50 1.39659
418.60 1.396028
418.70 1.395467
418.80 1.394906
418.90 1.394346
419.00 1.393786
419.10 1.393226
419.20 1.392667
419.30 1.392109
419.40 1.391559
419.50 1.39101
419.60 1.390482
419.70 1.390037
419.80 1.389593
419.90 1.38912
420.00 1.388553
420.10 1.387987
420.20 1.387421
420.30 1.386855
420.40 1.38629
420.50 1.385725
420.60 1.385161
420.70 1.384597
420.80 1.384033
420.90 1.38347
421.00 1.382929
421.10 1.382387
421.20 1.381852
421.30 1.381333
421.40 1.380814
421.50 1.380296
421.60 1.379778
421.70 1.379261
421.80 1.378744
421.90 1.378194
422.00 1.377541
422.10 1.376908
422.20 1.376357
422.30 1.375806
422.40 1.375255
422.50 1.374717
422.60 1.374179
422.70 1.373641
422.80 1.373104
422.90 1.372567
423.00 1.372031
423.10 1.371495
423.20 1.370959
423.30 1.370423
423.40 1.369888
423.50 1.369354
423.60 1.368819
423.70 1.368285
423.80 1.367752
423.90 1.367218
424.00 1.366685
424.10 1.366153
424.20 1.36562
424.30 1.365088
424.40 1.364533
424.50 1.363986
424.60 1.363439
424.70 1.362892
424.80 1.362346
424.90 1.3618
425.00 1.361255
425.10 1.36071
425.20 1.360165
425.30 1.359621
425.40 1.359078
425.50 1.358544
425.60 1.358009
425.70 1.357475
425.80 1.356941
425.90 1.356408
426.00 1.355875
426.10 1.355342
426.20 1.35481
426.30 1.354278
426.40 1.353747
426.50 1.353215
426.60 1.352684
426.70 1.352154
426.80 1.351624
426.90 1.351094
427.00 1.35056
427.10 1.350026
427.20 1.349492
427.30 1.348959
427.40 1.348427
427.50 1.347894
427.60 1.347362
427.70 1.346831
427.80 1.3463
427.90 1.345769
428.00 1.345238
428.10 1.344708
428.20 1.344178
428.30 1.343648
428.40 1.343119
428.50 1.34259
428.60 1.342062
428.70 1.341534
428.80 1.341005
428.90 1.340466
429.00 1.339928
429.10 1.33939
429.20 1.338852
429.30 1.338315
429.40 1.337778
429.50 1.337242
429.60 1.336705
429.70 1.33617
429.80 1.335634
429.90 1.335099
430.00 1.334564
430.10 1.33403
430.20 1.333495
430.30 1.332962
430.40 1.332428
430.50 1.331895
430.60 1.331363
430.70 1.33083
430.80 1.330298
430.90 1.329767
431.00 1.329235
431.10 1.328704
431.20 1.328174
431.30 1.327644
431.40 1.32712
431.50 1.326597
431.60 1.326074
431.70 1.325551
431.80 1.325028
431.90 1.324506
432.00 1.323985
432.10 1.323463
432.20 1.322942
432.30 1.322421
432.40 1.321901
432.50 1.321381
432.60 1.320861
432.70 1.320342
432.80 1.319823
432.90 1.319304
433.00 1.318786
433.10 1.318268
433.20 1.31775
433.30 1.317231
433.40 1.316689
433.50 1.316147
433.60 1.315605
433.70 1.315064
433.80 1.314494
433.90 1.313888
434.00 1.313348
434.10 1.312849
434.20 1.31235
434.30 1.311852
434.40 1.311354
434.50 1.310856
434.60 1.310358
434.70 1.309861
434.80 1.309361
434.90 1.308821
435.00 1.308281
435.10 1.307741
435.20 1.307202
435.30 1.306663
435.40 1.306124
435.50 1.305586
435.60 1.305048
435.70 1.30451
435.80 1.303973
435.90 1.303436
436.00 1.3029
436.10 1.302364
436.20 1.301828
436.30 1.301265
436.40 1.300674
436.50 1.300157
436.60 1.299641
436.70 1.299125
436.80 1.298609
436.90 1.298093
437.00 1.297578
437.10 1.297063
437.20 1.296571
437.30 1.296099
437.40 1.295623
437.50 1.29508
437.60 1.294538
437.70 1.293996
437.80 1.293454
437.90 1.292913
438.00 1.292377
438.10 1.2919
438.20 1.291423
438.30 1.290896
438.40 1.290318
438.50 1.289877
438.60 1.289426
438.70 1.288839
438.80 1.288251
438.90 1.287664
439.00 1.287373
439.10 1.286786
439.20 1.286206
439.30 1.285694
439.40 1.285182
439.50 1.284671
439.60 1.284155
439.70 1.283571
439.80 1.283018
439.90 1.282501
440.00 1.281986
440.10 1.28147
440.20 1.280954
440.30 1.280431
440.40 1.279908
440.50 1.279386
440.60 1.278864
440.70 1.278342
440.80 1.277821
440.90 1.2773
441.00 1.276779
441.10 1.276258
441.20 1.275747
441.30 1.275349
441.40 1.27487
441.50 1.274293
441.60 1.273716
441.70 1.273139
441.80 1.272652
441.90 1.272165
442.00 1.271678
442.10 1.271192
442.20 1.270706
442.30 1.27022
442.40 1.269694
442.50 1.269121
442.60 1.268547
442.70 1.268061
442.80 1.267691
442.90 1.267119
443.00 1.266547
443.10 1.265975
443.20 1.265477
443.30 1.265046
443.40 1.264552
443.50 1.263982
443.60 1.263412
443.70 1.263023
443.80 1.262562
443.90 1.261993
444.00 1.261425
444.10 1.260857
444.20 1.260289
444.30 1.26001
444.40 1.259443
444.50 1.258877
444.60 1.258377
444.70 1.25796
444.80 1.257466
444.90 1.256901
445.00 1.256336
445.10 1.255772
445.20 1.25523
445.30 1.254714
445.40 1.254199
445.50 1.253684
445.60 1.25317
445.70 1.252656
445.80 1.252154
445.90 1.251663
446.00 1.251172
446.10 1.250681
446.20 1.250159
446.30 1.249599
446.40 1.249076
446.50 1.248588
446.60 1.2481
446.70 1.247613
446.80 1.247162
446.90 1.246747
447.00 1.246257
447.10 1.2457
447.20 1.245143
447.30 1.244586
447.40 1.244104
447.50 1.24369
447.60 1.243202
447.70 1.242647
447.80 1.242092
447.90 1.241537
448.00 1.241008
448.10 1.240501
448.20 1.239995
448.30 1.239489
448.40 1.238983
448.50 1.238478
448.60 1.238008
448.70 1.237572
448.80 1.237127
448.90 1.236576
449.00 1.236025
449.10 1.235475
449.20 1.234925
449.30 1.234375
449.40 1.23394
449.50 1.233504
449.60 1.233029
449.70 1.232518
449.80 1.232008
449.90 1.231498
450.00 1.230988
450.10 1.230478
450.20 1.229969
450.30 1.22946
450.40 1.228961
450.50 1.228462
450.60 1.227963
450.70 1.227465
450.80 1.226967
450.90 1.22647
451.00 1.225926
451.10 1.225382
451.20 1.224975
451.30 1.224576
451.40 1.224033
451.50 1.223491
451.60 1.222949
451.70 1.222408
451.80 1.221867
451.90 1.221326
452.00 1.220925
452.10 1.220524
452.20 1.219984
452.30 1.219445
452.40 1.218906
452.50 1.218367
452.60 1.218016
452.70 1.217568
452.80 1.21703
452.90 1.216493
453.00 1.215956
453.10 1.215419
453.20 1.214925
453.30 1.214431
453.40 1.213938
453.50 1.213445
453.60 1.212952
453.70 1.21246
453.80 1.211984
453.90 1.21153
454.00 1.211077
454.10 1.210623
454.20 1.21009
454.30 1.209558
454.40 1.209025
454.50 1.208493
454.60 1.207962
454.70 1.207458
454.80 1.206979
454.90 1.206501
455.00 1.206023
455.10 1.205545
455.20 1.205067
455.30 1.20459
455.40 1.204113
455.50 1.203637
455.60 1.203161
455.70 1.202685
455.80 1.202157
455.90 1.20163
456.00 1.201103
456.10 1.200583
456.20 1.200082
456.30 1.199581
456.40 1.199081
456.50 1.198581
456.60 1.198082
456.70 1.197583
456.80 1.197084
456.90 1.196585
457.00 1.196087
457.10 1.195589
457.20 1.19535
457.30 1.194846
457.40 1.194343
457.50 1.19384
457.60 1.193337
457.70 1.192835
457.80 1.192333
457.90 1.191831
458.00 1.191329
458.10 1.190828
458.20 1.190327
458.30 1.189827
458.40 1.189327
458.50 1.188827
458.60 1.188328
458.70 1.187849
458.80 1.187378
458.90 1.186908
459.00 1.186438
459.10 1.185969
459.20 1.185499
459.30 1.185002
459.40 1.184505
459.50 1.184008
459.60 1.183512
459.70 1.183016
459.80 1.18252
459.90 1.182025
460.00 1.181529
460.10 1.181035
460.20 1.18054
460.30 1.180046
460.40 1.179552
460.50 1.179059
460.60 1.178565
460.70 1.178096
460.80 1.177639
460.90 1.177182
461.00 1.176725
461.10 1.176269
461.20 1.175774
461.30 1.175265
461.40 1.174755
461.50 1.174246
461.60 1.173737
461.70 1.173229
461.80 1.172758
461.90 1.172288
462.00 1.171818
462.10 1.171348
462.20 1.170878
462.30 1.170409
462.40 1.16994
462.50 1.169471
462.60 1.169003
462.70 1.168535
462.80 1.168067
462.90 1.1676
463.00 1.167133
463.10 1.166666
463.20 1.166173
463.30 1.165669
463.40 1.165166
463.50 1.164664
463.60 1.164161
463.70 1.163659
463.80 1.163157
463.90 1.162682
464.00 1.162214
464.10 1.161745
464.20 1.161278
464.30 1.16081
464.40 1.160343
464.50 1.159876
464.60 1.159409
464.70 1.15892
464.80 1.158421
464.90 1.157923
465.00 1.157425
465.10 1.156927
465.20 1.15643
465.30 1.15596
465.40 1.155508
465.50 1.155057
465.60 1.154606
465.70 1.154156
465.80 1.153705
465.90 1.153219
466.00 1.152724
466.10 1.15223
466.20 1.151736
466.30 1.151242
466.40 1.150748
466.50 1.150255
466.60 1.149762
466.70 1.149269
466.80 1.148777
466.90 1.148285
467.00 1.147793
467.10 1.147302
467.20 1.14681
467.30 1.146523
467.40 1.146089
467.50 1.145599
467.60 1.145109
467.70 1.14462
467.80 1.14413
467.90 1.143641
468.00 1.143153
468.10 1.142664
468.20 1.142176
468.30 1.141688
468.40 1.141201
468.50 1.140714
468.60 1.140227
468.70 1.139741
468.80 1.139254
468.90 1.138769
469.00 1.138283
469.10 1.137844
469.20 1.137423
469.30 1.137003
469.40 1.136583
469.50 1.136118
469.60 1.135634
469.70 1.13515
469.80 1.134667
469.90 1.134184
470.00 1.133702
470.10 1.133219
470.20 1.132737
470.30 1.132256
470.40 1.131774
470.50 1.131293
470.60 1.130813
470.70 1.130332
470.80 1.129852
470.90 1.129372
471.00 1.128893
471.10 1.128414
471.20 1.127935
471.30 1.127712
471.40 1.127234
471.50 1.126756
471.60 1.126278
471.70 1.1258
471.80 1.125323
471.90 1.124846
472.00 1.12437
472.10 1.123893
472.20 1.123417
472.30 1.122942
472.40 1.122466
472.50 1.121991
472.60 1.121517
472.70 1.121042
472.80 1.120568
472.90 1.120094
473.00 1.11962
473.10 1.119147
473.20 1.118674
473.30 1.118202
473.40 1.117729
473.50 1.117257
473.60 1.116785
473.70 1.116314
473.80 1.115843
473.90 1.115372
474.00 1.114901
474.10 1.114431
474.20 1.114
474.30 1.113585
474.40 1.11317
474.50 1.112756
474.60 1.112337
474.70 1.111868
474.80 1.1114
474.90 1.110932
475.00 1.110464
475.10 1.109996
475.20 1.109529
475.30 1.109063
475.40 1.108596
475.50 1.10813
475.60 1.107664
475.70 1.107198
475.80 1.106733
475.90 1.106268
476.00 1.105803
476.10 1.105339
476.20 1.104874
476.30 1.10441
476.40 1.103947
476.50 1.103484
476.60 1.103021
476.70 1.102558
476.80 1.102095
476.90 1.101633
477.00 1.101171
477.10 1.10071
477.20 1.100249
477.30 1.099788
477.40 1.099327
477.50 1.098866
477.60 1.098406
477.70 1.097947
477.80 1.097487
477.90 1.097028
478.00 1.096569
478.10 1.09611
478.20 1.095652
478.30 1.095194
478.40 1.094736
478.50 1.094278
478.60 1.093821
478.70 1.093364
478.80 1.092907
478.90 1.092451
479.00 1.091995
479.10 1.091539
479.20 1.091084
479.30 1.090628
479.40 1.090173
479.50 1.089719
479.60 1.089264
479.70 1.08881
479.80 1.088356
479.90 1.087903
480.00 1.08745
480.10 1.086997
480.20 1.086544
480.30 1.086092
480.40 1.08564
480.50 1.085188
480.60 1.084736
480.70 1.084285
480.80 1.083834
480.90 1.083383
481.00 1.082933
481.10 1.082483
481.20 1.082033
481.30 1.081583
481.40 1.081134
481.50 1.080685
481.60 1.080236
481.70 1.079788
481.80 1.079339
481.90 1.078892
482.00 1.078444
482.10 1.077997
482.20 1.07755
482.30 1.077103
482.40 1.076656
482.50 1.07621
482.60 1.075764
482.70 1.075318
482.80 1.074873
482.90 1.074428
483.00 1.073983
483.10 1.073538
483.20 1.073094
483.30 1.07265
483.40 1.072206
483.50 1.071763
483.60 1.07132
483.70 1.070877
483.80 1.070434
483.90 1.069992
484.00 1.06955
484.10 1.069108
484.20 1.068636
484.30 1.068152
484.40 1.067668
484.50 1.067184
484.60 1.066701
484.70 1.066221
484.80 1.065781
484.90 1.065341
485.00 1.064902
485.10 1.064463
485.20 1.064024
485.30 1.063586
485.40 1.063148
485.50 1.06271
485.60 1.062272
485.70 1.061835
485.80 1.061398
485.90 1.060961
486.00 1.060524
486.10 1.060088
486.20 1.059652
486.30 1.059216
486.40 1.058781
486.50 1.058345
486.60 1.05791
486.70 1.057476
486.80 1.057041
486.90 1.056607
487.00 1.056173
487.10 1.05574
487.20 1.055284
487.30 1.054829
487.40 1.054375
487.50 1.05392
487.60 1.053466
487.70 1.053012
487.80 1.052559
487.90 1.052106
488.00 1.051653
488.10 1.0512
488.20 1.050749
488.30 1.050319
488.40 1.049889
488.50 1.049459
488.60 1.049029
488.70 1.0486
488.80 1.048171
488.90 1.047742
489.00 1.047314
489.10 1.046886
489.20 1.046458
489.30 1.04603
489.40 1.045602
489.50 1.045175
489.60 1.044748
489.70 1.044322
489.80 1.043892
489.90 1.043419
490.00 1.042947
490.10 1.042474
490.20 1.042002
490.30 1.041531
490.40 1.041106
490.50 1.040682
490.60 1.040257
490.70 1.039834
490.80 1.03941
490.90 1.038986
491.00 1.038563
491.10 1.03814
491.20 1.037718
491.30 1.037295
491.40 1.036873
491.50 1.036451
491.60 1.03603
491.70 1.035608
491.80 1.035172
491.90 1.034531
492.00 1.034111
492.10 1.033691
492.20 1.033271
492.30 1.032851
492.40 1.032431
492.50 1.032012
492.60 1.031593
492.70 1.031175
492.80 1.030756
492.90 1.030338
493.00 1.029917
493.10 1.029453
493.20 1.028989
493.30 1.028526
493.40 1.028063
493.50 1.027601
493.60 1.027184
493.70 1.026768
493.80 1.026352
493.90 1.025937
494.00 1.025521
494.10 1.025106
494.20 1.024692
494.30 1.024277
494.40 1.023863
494.50 1.023449
494.60 1.023035
494.70 1.022621
494.80 1.022189
494.90 1.021705
495.00 1.021221
495.10 1.020738
495.20 1.020325
495.30 1.019913
495.40 1.019502
495.50 1.01909
495.60 1.018679
495.70 1.018268
495.80 1.017857
495.90 1.017447
496.00 1.017037
496.10 1.016627
496.20 1.016213
496.30 1.015747
496.40 1.015281
496.50 1.014815
496.60 1.01435
496.70 1.013942
496.80 1.013534
496.90 1.013126
497.00 1.012718
497.10 1.012311
497.20 1.011903
497.30 1.011496
497.40 1.01109
497.50 1.010683
497.60 1.010218
497.70 1.009642
497.80 1.009236
497.90 1.008831
498.00 1.008426
498.10 1.008021
498.20 1.007616
498.30 1.007212
498.40 1.006808
498.50 1.006404
498.60 1.006
498.70 1.005597
498.80 1.005194
498.90 1.004729
499.00 1.004264
499.10 1.003799
499.20 1.003355
499.30 1.002953
499.40 1.002552
499.50 1.00215
499.60 1.001749
499.70 1.001345
499.80 1.000896
499.90 1.000448
500.00 1
500.10 0.9995523
500.20 0.9991201
500.30 0.9987207
500.40 0.9983216
500.50 0.9979227
500.60 0.9975241
500.70 0.9971257
500.80 0.9967056
500.90 0.9962395
501.00 0.9957736
501.10 0.995308
501.20 0.9949109
501.30 0.994514
501.40 0.9941173
501.50 0.9937209
501.60 0.9933247
501.70 0.9929288
501.80 0.9925331
501.90 0.9921376
502.00 0.9917103
502.10 0.9912151
502.20 0.9907272
502.30 0.9903327
502.40 0.9899385
502.50 0.9895446
502.60 0.9891508
502.70 0.9887573
502.80 0.9883641
502.90 0.9879711
503.00 0.9875605
503.10 0.9871127
503.20 0.9866651
503.30 0.9862178
503.40 0.9857851
503.50 0.9853935
503.60 0.9850022
503.70 0.9846112
503.80 0.9842203
503.90 0.9838297
504.00 0.9834217
504.10 0.9829765
504.20 0.9825315
504.30 0.9820869
504.40 0.9816568
504.50 0.9812676
504.60 0.9808787
504.70 0.9804901
504.80 0.9801017
504.90 0.9797135
505.00 0.9791026
505.10 0.9787149
505.20 0.9783275
505.30 0.9779403
505.40 0.9775533
505.50 0.9771666
505.60 0.9767684
505.70 0.9763454
505.80 0.9759227
505.90 0.9755003
506.00 0.9750781
506.10 0.9746562
506.20 0.9742376
506.30 0.973828
506.40 0.9734186
506.50 0.9730095
506.60 0.9726006
506.70 0.972192
506.80 0.9717836
506.90 0.9713755
507.00 0.9709676
507.10 0.9705679
507.20 0.970178
507.30 0.9697679
507.40 0.9693581
507.50 0.9689486
507.60 0.9685392
507.70 0.9681302
507.80 0.9677213
507.90 0.9673128
508.00 0.9669044
508.10 0.9664963
508.20 0.9660885
508.30 0.9656809
508.40 0.9652736
508.50 0.9648665
508.60 0.9644596
508.70 0.964053
508.80 0.9636538
508.90 0.9632751
509.00 0.9628966
509.10 0.9625067
509.20 0.9620924
509.30 0.9616783
509.40 0.9612644
509.50 0.9608508
509.60 0.9604374
509.70 0.9600243
509.80 0.9596114
509.90 0.9591988
510.00 0.9587864
510.10 0.9583743
510.20 0.9579624
510.30 0.9575515
510.40 0.9571425
510.50 0.9567339
510.60 0.9563255
510.70 0.9559173
510.80 0.9555094
510.90 0.9551017
511.00 0.9546943
511.10 0.9542871
511.20 0.9538801
511.30 0.9534734
511.40 0.953067
511.50 0.9526608
511.60 0.9522557
511.70 0.9518528
511.80 0.9514501
511.90 0.9510477
512.00 0.9506455
512.10 0.9502436
512.20 0.9498419
512.30 0.9494415
512.40 0.9490446
512.50 0.9486479
512.60 0.9482514
512.70 0.9478551
512.80 0.9474591
512.90 0.9470634
513.00 0.9466678
513.10 0.9462725
513.20 0.9458775
513.30 0.9454826
513.40 0.945088
513.50 0.9446937
513.60 0.9442996
513.70 0.9439057
513.80 0.943512
513.90 0.9431186
514.00 0.9427192
514.10 0.942319
514.20 0.9419191
514.30 0.9415194
514.40 0.9411199
514.50 0.9407207
514.60 0.9403217
514.70 0.9399229
514.80 0.9395244
514.90 0.9391261
515.00 0.9387281
515.10 0.9383303
515.20 0.9379327
515.30 0.9375354
515.40 0.9371383
515.50 0.9367415
515.60 0.9363449
515.70 0.9359485
515.80 0.9355524
515.90 0.9351565
516.00 0.9347608
516.10 0.9343654
516.20 0.9339702
516.30 0.9335752
516.40 0.9331805
516.50 0.932786
516.60 0.9323918
516.70 0.9319977
516.80 0.931604
516.90 0.9312104
517.00 0.9308171
517.10 0.930424
517.20 0.9300312
517.30 0.9296385
517.40 0.9292462
517.50 0.928854
517.60 0.9284621
517.70 0.9280704
517.80 0.927679
517.90 0.9272877
518.00 0.9268968
518.10 0.926506
518.20 0.9261155
518.30 0.9257252
518.40 0.9253352
518.50 0.9249453
518.60 0.9245558
518.70 0.9241664
518.80 0.9237773
518.90 0.9233884
519.00 0.9229997
519.10 0.9226114
519.20 0.9222236
519.30 0.9218359
519.40 0.9214485
519.50 0.9210614
519.60 0.9206744
519.70 0.9202877
519.80 0.9199012
519.90 0.919515
520.00 0.9191289
520.10 0.9187431
520.20 0.9183576
520.30 0.9179722
520.40 0.9175871
520.50 0.9172022
520.60 0.9168176
520.70 0.9164331
520.80 0.9160489
520.90 0.915665
521.00 0.9152812
521.10 0.9148977
521.20 0.9145144
521.30 0.9141313
521.40 0.9137485
521.50 0.9133659
521.60 0.9129835
521.70 0.9126013
521.80 0.9122194
521.90 0.9118377
522.00 0.9114562
522.10 0.9110749
522.20 0.9106939
522.30 0.9103131
522.40 0.9099325
522.50 0.9095521
522.60 0.909172
522.70 0.9087921
522.80 0.9084124
522.90 0.9080329
523.00 0.9076537
523.10 0.9072747
523.20 0.9068959
523.30 0.9065173
523.40 0.906139
523.50 0.9057609
523.60 0.905383
523.70 0.9050053
523.80 0.9046278
523.90 0.9042506
524.00 0.9038736
524.10 0.9034968
524.20 0.9031202
524.30 0.9027396
524.40 0.9023559
524.50 0.9019725
524.60 0.9015892
524.70 0.9012062
524.80 0.9008234
524.90 0.9004408
525.00 0.9000585
525.10 0.8996764
525.20 0.8992945
525.30 0.8989128
525.40 0.8985314
525.50 0.8981502
525.60 0.8977692
525.70 0.8973884
525.80 0.8970079
525.90 0.8966276
526.00 0.8962475
526.10 0.8958676
526.20 0.895488
526.30 0.8951086
526.40 0.8947294
526.50 0.8943504
526.60 0.8939716
526.70 0.8935931
526.80 0.8932148
526.90 0.8928367
527.00 0.8924589
527.10 0.8920812
527.20 0.8917038
527.30 0.8913266
527.40 0.8909497
527.50 0.8905729
527.60 0.8901964
527.70 0.8898201
527.80 0.889444
527.90 0.8890682
528.00 0.8886925
528.10 0.8883171
528.20 0.8879419
528.30 0.8875669
528.40 0.8871922
528.50 0.8868176
528.60 0.8864433
528.70 0.8860692
528.80 0.8856953
528.90 0.8853217
529.00 0.8849482
529.10 0.884575
529.20 0.884202
529.30 0.8838292
529.40 0.8834567
529.50 0.8830844
529.60 0.8827127
529.70 0.8823411
529.80 0.8819698
529.90 0.8815988
530.00 0.8812279
530.10 0.8808572
530.20 0.8804868
530.30 0.8801166
530.40 0.8797466
530.50 0.8793768
530.60 0.8790073
530.70 0.8786379
530.80 0.8782688
530.90 0.8778999
531.00 0.8775312
531.10 0.8771627
531.20 0.8767944
531.30 0.8764264
531.40 0.8760585
531.50 0.8756909
531.60 0.8753235
531.70 0.8749563
531.80 0.8745893
531.90 0.8742225
532.00 0.873856
532.10 0.8734896
532.20 0.8731185
532.30 0.872745
532.40 0.8723717
532.50 0.8719986
532.60 0.8716258
532.70 0.8712532
532.80 0.8708807
532.90 0.8705086
533.00 0.8701366
533.10 0.8697648
533.20 0.8693933
533.30 0.869022
533.40 0.8686509
533.50 0.86828
533.60 0.8679093
533.70 0.8675388
533.80 0.8671686
533.90 0.8667986
534.00 0.8664288
534.10 0.8660592
534.20 0.8656898
534.30 0.8653207
534.40 0.8649517
534.50 0.864583
534.60 0.8642145
534.70 0.8638462
534.80 0.8634789
534.90 0.8631152
535.00 0.8627517
535.10 0.8623884
535.20 0.8620254
535.30 0.8616625
535.40 0.8612999
535.50 0.8609375
535.60 0.8605752
535.70 0.8602132
535.80 0.8598514
535.90 0.8594898
536.00 0.8591285
536.10 0.8587673
536.20 0.8584063
536.30 0.8580456
536.40 0.857685
536.50 0.8573247
536.60 0.8569646
536.70 0.8566047
536.80 0.856245
536.90 0.8558855
537.00 0.8555262
537.10 0.8551671
537.20 0.8548082
537.30 0.8544496
537.40 0.8540911
537.50 0.8537329
537.60 0.8533748
537.70 0.853017
537.80 0.8526594
537.90 0.852302
538.00 0.8519448
538.10 0.8515878
538.20 0.851231
538.30 0.8508744
538.40 0.850518
538.50 0.8501618
538.60 0.8498058
538.70 0.8494501
538.80 0.8490945
538.90 0.8487391
539.00 0.848384
539.10 0.848029
539.20 0.8476743
539.30 0.8473197
539.40 0.8469654
539.50 0.8466113
539.60 0.8462574
539.70 0.8459036
539.80 0.8455501
539.90 0.8451968
540.00 0.8448437
540.10 0.8444908
540.20 0.8441333
540.30 0.8437739
540.40 0.8434148
540.50 0.8430559
540.60 0.8426972
540.70 0.8423388
540.80 0.8419805
540.90 0.8416224
541.00 0.8412646
541.10 0.8409069
541.20 0.8405495
541.30 0.8401922
541.40 0.8398352
541.50 0.8394783
541.60 0.8391217
541.70 0.8387653
541.80 0.8384091
541.90 0.8380531
542.00 0.8376973
542.10 0.8373417
542.20 0.8369863
542.30 0.8366311
542.40 0.8362762
542.50 0.8359214
542.60 0.8355668
542.70 0.8352125
542.80 0.8348583
542.90 0.8345043
543.00 0.8341506
543.10 0.833797
543.20 0.8334437
543.30 0.8330906
543.40 0.8327376
543.50 0.8323849
543.60 0.8320324
543.70 0.83168
543.80 0.8313279
543.90 0.830976
544.00 0.8306243
544.10 0.8302728
544.20 0.8299215
544.30 0.8295703
544.40 0.8292194
544.50 0.8288687
544.60 0.8285182
544.70 0.8281679
544.80 0.8278178
544.90 0.8274679
545.00 0.8271182
545.10 0.8267687
545.20 0.8264194
545.30 0.8260703
545.40 0.8257214
545.50 0.8253727
545.60 0.825027
545.70 0.8246827
545.80 0.8243385
545.90 0.8239946
546.00 0.8236508
546.10 0.8233073
546.20 0.8229639
546.30 0.8226208
546.40 0.8222778
546.50 0.821935
546.60 0.8215925
546.70 0.8212501
546.80 0.8209079
546.90 0.8205659
547.00 0.8202242
547.10 0.8198826
547.20 0.8195412
547.30 0.8192
547.40 0.8188589
547.50 0.8185181
547.60 0.8181775
547.70 0.8178371
547.80 0.8174969
547.90 0.8171568
548.00 0.816817
548.10 0.8164773
548.20 0.8161379
548.30 0.8157957
548.40 0.8154497
548.50 0.8151039
548.60 0.8147582
548.70 0.8144128
548.80 0.8140676
548.90 0.8137226
549.00 0.8133777
549.10 0.8130331
549.20 0.8126887
549.30 0.8123444
549.40 0.8120004
549.50 0.8116565
549.60 0.8113129
549.70 0.8109694
549.80 0.8106262
549.90 0.8102831
550.00 0.8099402
550.10 0.8095976
550.20 0.8092551
550.30 0.8089128
550.40 0.8085707
550.50 0.8082289
550.60 0.8078872
550.70 0.8075457
550.80 0.8072044
550.90 0.8068633
551.00 0.8065224
551.10 0.8061822
551.20 0.8058421
551.30 0.8055023
551.40 0.8051627
551.50 0.8048232
551.60 0.8044839
551.70 0.8041449
551.80 0.803806
551.90 0.8034673
552.00 0.8031288
552.10 0.8027905
552.20 0.8024524
552.30 0.8021145
552.40 0.8017768
552.50 0.8014392
552.60 0.8011019
552.70 0.8007647
552.80 0.8004278
552.90 0.800091
553.00 0.7997544
553.10 0.7994181
553.20 0.7990819
553.30 0.7987459
553.40 0.7984101
553.50 0.7980744
553.60 0.797739
553.70 0.7974038
553.80 0.7970687
553.90 0.7967339
554.00 0.7963992
554.10 0.7960647
554.20 0.7957304
554.30 0.7953963
554.40 0.7950624
554.50 0.7947287
554.60 0.7943952
554.70 0.7940618
554.80 0.7937287
554.90 0.7933957
555.00 0.7930629
555.10 0.7927303
555.20 0.7923979
555.30 0.7920657
555.40 0.7917337
555.50 0.7914018
555.60 0.7910702
555.70 0.7907387
555.80 0.7904074
555.90 0.7900764
556.00 0.7897454
556.10 0.7894147
556.20 0.7890842
556.30 0.7887539
556.40 0.7884237
556.50 0.7880936
556.60 0.787761
556.70 0.7874285
556.80 0.7870963
556.90 0.7867642
557.00 0.7864324
557.10 0.7861007
557.20 0.7857692
557.30 0.7854379
557.40 0.7851068
557.50 0.7847758
557.60 0.7844451
557.70 0.7841145
557.80 0.7837842
557.90 0.783454
558.00 0.783124
558.10 0.7827942
558.20 0.7824645
558.30 0.7821351
558.40 0.7818059
558.50 0.7814768
558.60 0.7811479
558.70 0.7808192
558.80 0.7804907
558.90 0.7801624
559.00 0.7798342
559.10 0.7795063
559.20 0.7791785
559.30 0.7788509
559.40 0.7785235
559.50 0.7781963
559.60 0.7778692
559.70 0.7775424
559.80 0.7772157
559.90 0.7768892
560.00 0.7765629
560.10 0.7762368
560.20 0.7759109
560.30 0.7755851
560.40 0.7752596
560.50 0.7749342
560.60 0.774609
560.70 0.774284
560.80 0.7739591
560.90 0.7736345
561.00 0.77331
561.10 0.7729857
561.20 0.7726616
561.30 0.7723377
561.40 0.7720139
561.50 0.7716904
561.60 0.771367
561.70 0.7710438
561.80 0.7707208
561.90 0.7703979
562.00 0.7700753
562.10 0.7697517
562.20 0.7694267
562.30 0.7691019
562.40 0.7687773
562.50 0.7684528
562.60 0.7681285
562.70 0.7678044
562.80 0.7674805
562.90 0.7671568
563.00 0.7668332
563.10 0.7665099
563.20 0.7661867
563.30 0.7658637
563.40 0.7655409
563.50 0.7652182
563.60 0.7648958
563.70 0.7645735
563.80 0.7642514
563.90 0.7639295
564.00 0.7636077
564.10 0.7632862
564.20 0.7629648
564.30 0.7626436
564.40 0.7623226
564.50 0.7620018
564.60 0.7616811
564.70 0.7613606
564.80 0.7610403
564.90 0.7607202
565.00 0.7604002
565.10 0.7600804
565.20 0.7597608
565.30 0.7594414
565.40 0.7591222
565.50 0.7588031
565.60 0.7584842
565.70 0.7581655
565.80 0.757847
565.90 0.7575286
566.00 0.7572104
566.10 0.7568924
566.20 0.7565746
566.30 0.756257
566.40 0.7559395
566.50 0.7556222
566.60 0.7553051
566.70 0.7549881
566.80 0.7546714
566.90 0.7543548
567.00 0.7540384
567.10 0.7537222
567.20 0.7534061
567.30 0.7530902
567.40 0.7527745
567.50 0.752459
567.60 0.7521436
567.70 0.7518285
567.80 0.751514
567.90 0.7511997
568.00 0.7508856
568.10 0.7505716
568.20 0.7502578
568.30 0.7499442
568.40 0.7496307
568.50 0.7493174
568.60 0.7490043
568.70 0.7486914
568.80 0.7483787
568.90 0.7480661
569.00 0.7477537
569.10 0.7474414
569.20 0.7471294
569.30 0.7468175
569.40 0.7465058
569.50 0.7461942
569.60 0.7458829
569.70 0.7455717
569.80 0.7452606
569.90 0.7449498
570.00 0.7446391
570.10 0.7443286
570.20 0.7440183
570.30 0.7437081
570.40 0.7433981
570.50 0.7430883
570.60 0.7427786
570.70 0.7424691
570.80 0.7421598
570.90 0.7418507
571.00 0.7415417
571.10 0.7412329
571.20 0.7409243
571.30 0.7406159
571.40 0.7403076
571.50 0.7399995
571.60 0.7396915
571.70 0.7393838
571.80 0.7390762
571.90 0.7387687
572.00 0.7384615
572.10 0.7381544
572.20 0.7378475
572.30 0.7375407
572.40 0.7372341
572.50 0.7369277
572.60 0.7366215
572.70 0.7363154
572.80 0.7360095
572.90 0.7357037
573.00 0.7353982
573.10 0.7350928
573.20 0.7347875
573.30 0.7344825
573.40 0.7341756
573.50 0.7338661
573.60 0.7335568
573.70 0.7332477
573.80 0.7329388
573.90 0.73263
574.00 0.7323214
574.10 0.7320129
574.20 0.7317047
574.30 0.7313966
574.40 0.7310886
574.50 0.7307809
574.60 0.7304733
574.70 0.7301659
574.80 0.7298586
574.90 0.7295516
575.00 0.7292447
575.10 0.7289379
575.20 0.7286313
575.30 0.7283249
575.40 0.7280187
575.50 0.7277126
575.60 0.7274068
575.70 0.727101
575.80 0.7267955
575.90 0.7264901
576.00 0.7261849
576.10 0.7258798
576.20 0.7255749
576.30 0.7252702
576.40 0.7249657
576.50 0.7246613
576.60 0.7243571
576.70 0.724053
576.80 0.7237491
576.90 0.7234454
577.00 0.7231419
577.10 0.7228385
577.20 0.7225353
577.30 0.7222323
577.40 0.7219294
577.50 0.7216267
577.60 0.721323
577.70 0.7210176
577.80 0.7207123
577.90 0.7204073
578.00 0.7201023
578.10 0.7197976
578.20 0.719493
578.30 0.7191886
578.40 0.7188844
578.50 0.7185803
578.60 0.7182764
578.70 0.7179727
578.80 0.7176692
578.90 0.7173658
579.00 0.7170625
579.10 0.7167597
579.20 0.7164599
579.30 0.7161602
579.40 0.7158607
579.50 0.7155614
579.60 0.7152622
579.70 0.7149632
579.80 0.7146643
579.90 0.7143656
580.00 0.7140671
580.10 0.7137693
580.20 0.7134726
580.30 0.7131761
580.40 0.7128797
580.50 0.7125835
580.60 0.7122875
580.70 0.7119916
580.80 0.7116959
580.90 0.7114004
581.00 0.711105
581.10 0.7108097
581.20 0.7105147
581.30 0.7102197
581.40 0.709925
581.50 0.7096304
581.60 0.709336
581.70 0.7090417
581.80 0.7087476
581.90 0.7084537
582.00 0.7081599
582.10 0.7078641
582.20 0.7075651
582.30 0.7072662
582.40 0.7069674
582.50 0.7066689
582.60 0.7063705
582.70 0.7060722
582.80 0.7057742
582.90 0.7054762
583.00 0.7051785
583.10 0.7048809
583.20 0.7045835
583.30 0.7042862
583.40 0.7039891
583.50 0.7036922
583.60 0.7033973
583.70 0.7031058
583.80 0.7028144
583.90 0.7025231
584.00 0.702232
584.10 0.7019411
584.20 0.7016503
584.30 0.7013597
584.40 0.7010693
584.50 0.700779
584.60 0.7004889
584.70 0.7001989
584.80 0.6999091
584.90 0.6996178
585.00 0.6993193
585.10 0.6990209
585.20 0.6987264
585.30 0.6984379
585.40 0.6981495
585.50 0.6978613
585.60 0.6975732
585.70 0.6972853
585.80 0.6969976
585.90 0.69671
586.00 0.6964226
586.10 0.6961353
586.20 0.6958461
586.30 0.6955536
586.40 0.6952613
586.50 0.6949691
586.60 0.6946771
586.70 0.6943853
586.80 0.6940988
586.90 0.693821
587.00 0.6935434
587.10 0.6932659
587.20 0.6929729
587.30 0.6926546
587.40 0.6923677
587.50 0.692132
587.60 0.6917359
587.70 0.6914964
587.80 0.6912299
587.90 0.6909125
588.00 0.6906109
588.10 0.690335
588.20 0.6900592
588.30 0.6897835
588.40 0.6895028
588.50 0.6892138
588.60 0.6889249
588.70 0.6886362
588.80 0.6883477
588.90 0.6880593
589.00 0.6877731
589.10 0.6874905
589.20 0.687208
589.30 0.6869257
589.40 0.6866435
589.50 0.6863615
589.60 0.6860796
589.70 0.6857979
589.80 0.6855164
589.90 0.6852349
590.00 0.6849481
590.10 0.6846523
590.20 0.6843566
590.30 0.6840611
590.40 0.6837658
590.50 0.6834706
590.60 0.6831756
590.70 0.6828807
590.80 0.6826028
590.90 0.6823326
591.00 0.6820626
591.10 0.6817926
591.20 0.6815229
591.30 0.6812532
591.40 0.6809838
591.50 0.6807144
591.60 0.6804395
591.70 0.6801554
591.80 0.6798714
591.90 0.6795876
592.00 0.679304
592.10 0.6790205
592.20 0.6787372
592.30 0.678454
592.40 0.6781709
592.50 0.6778881
592.60 0.6776053
592.70 0.6773228
592.80 0.6770403
592.90 0.6767581
593.00 0.6764759
593.10 0.6761929
593.20 0.6759084
593.30 0.6756241
593.40 0.6753399
593.50 0.6750558
593.60 0.6747719
593.70 0.6744882
593.80 0.6742046
593.90 0.6739212
594.00 0.6736379
594.10 0.6733547
594.20 0.6730718
594.30 0.6727889
594.40 0.6725062
594.50 0.6722237
594.60 0.6719414
594.70 0.6716591
594.80 0.6713771
594.90 0.6710951
595.00 0.6708134
595.10 0.6705338
595.20 0.6702576
595.30 0.6699815
595.40 0.6697056
595.50 0.6694298
595.60 0.6691542
595.70 0.6688787
595.80 0.6686034
595.90 0.6683282
596.00 0.6680532
596.10 0.6677783
596.20 0.6675036
596.30 0.667229
596.40 0.6669545
596.50 0.6666802
596.60 0.6664061
596.70 0.6661314
596.80 0.6658563
596.90 0.6655814
597.00 0.6653067
597.10 0.6650321
597.20 0.6647576
597.30 0.6644833
597.40 0.6642092
597.50 0.6639351
597.60 0.66366
597.70 0.663383
597.80 0.6631062
597.90 0.6628295
598.00 0.662553
598.10 0.6622766
598.20 0.6620003
598.30 0.6617242
598.40 0.6614482
598.50 0.6611724
598.60 0.6608968
598.70 0.6606213
598.80 0.6603459
598.90 0.6600707
599.00 0.6597956
599.10 0.6595207
599.20 0.6592459
599.30 0.6589712
599.40 0.658696
599.50 0.6584209
599.60 0.658146
599.70 0.6578712
599.80 0.6575965
599.90 0.657322
600.00 0.6570476
600.10 0.6567734
600.20 0.6564993
600.30 0.6562254
600.40 0.6559516
600.50 0.655678
600.60 0.6554045
600.70 0.6551312
600.80 0.654858
600.90 0.6545849
601.00 0.654312
601.10 0.6540393
601.20 0.6537667
601.30 0.6534942
601.40 0.6532167
601.50 0.6529393
601.60 0.6526621
601.70 0.652385
601.80 0.652108
601.90 0.6518312
602.00 0.6515546
602.10 0.6512781
602.20 0.6510018
602.30 0.6507256
602.40 0.6504495
602.50 0.6501736
602.60 0.6498978
602.70 0.6496792
602.80 0.6494637
602.90 0.6491896
603.00 0.6489156
603.10 0.6486419
603.20 0.6483682
603.30 0.6480947
603.40 0.6478214
603.50 0.6475482
603.60 0.6472751
603.70 0.6470022
603.80 0.6467294
603.90 0.6464568
604.00 0.6461843
604.10 0.645912
604.20 0.6456398
604.30 0.6453677
604.40 0.6450958
604.50 0.6448357
604.60 0.6445758
604.70 0.644316
604.80 0.6440563
604.90 0.6437968
605.00 0.6435374
605.10 0.6432781
605.20 0.643019
605.30 0.64276
605.40 0.6425011
605.50 0.6422372
605.60 0.6419734
605.70 0.6417098
605.80 0.6414464
605.90 0.641183
606.00 0.6409198
606.10 0.640631
606.20 0.6403423
606.30 0.6400537
606.40 0.6397653
606.50 0.6395544
606.60 0.6393435
606.70 0.6389783
606.80 0.6387678
606.90 0.6384801
607.00 0.6381926
607.10 0.6379052
607.20 0.637618
607.30 0.6373695
607.40 0.6371212
607.50 0.6368729
607.60 0.6366248
607.70 0.636364
607.80 0.6361033
607.90 0.6358428
608.00 0.6355824
608.10 0.6353221
608.20 0.6350619
608.30 0.6347819
608.40 0.6345019
608.50 0.6342222
608.60 0.6339425
608.70 0.633675
608.80 0.6334129
608.90 0.633151
609.00 0.6328892
609.10 0.6326275
609.20 0.632366
609.30 0.6321106
609.40 0.6318553
609.50 0.6316002
609.60 0.6313452
609.70 0.6310903
609.80 0.6308355
609.90 0.6305809
610.00 0.6303265
610.10 0.6300721
610.20 0.6298179
610.30 0.6295638
610.40 0.6293099
610.50 0.6290561
610.60 0.6288024
610.70 0.6285488
610.80 0.6282954
610.90 0.6280288
611.00 0.6277623
611.10 0.627496
611.20 0.6272298
611.30 0.6269638
611.40 0.6266978
611.50 0.6264321
611.60 0.6261664
611.70 0.625901
611.80 0.6256356
611.90 0.6253704
612.00 0.6251053
612.10 0.6248404
612.20 0.6245756
612.30 0.624311
612.40 0.624054
612.50 0.6237972
612.60 0.6235406
612.70 0.623284
612.80 0.6230277
612.90 0.6227714
613.00 0.6225153
613.10 0.6222593
613.20 0.6220034
613.30 0.6217477
613.40 0.6214921
613.50 0.6212366
613.60 0.6209813
613.70 0.6207261
613.80 0.6204711
613.90 0.6202162
614.00 0.6199614
614.10 0.6197067
614.20 0.6194522
614.30 0.6191978
614.40 0.6189601
614.50 0.6187226
614.60 0.6184852
614.70 0.6182479
614.80 0.6179927
614.90 0.617734
615.00 0.6174754
615.10 0.6172169
615.20 0.6169586
615.30 0.6167004
615.40 0.6164423
615.50 0.6161844
615.60 0.6159266
615.70 0.6156689
615.80 0.6154114
615.90 0.615154
616.00 0.6148968
616.10 0.6146397
616.20 0.6143827
616.30 0.6141258
616.40 0.6138691
616.50 0.6136125
616.60 0.6133561
616.70 0.6130998
616.80 0.6128436
616.90 0.6125898
617.00 0.6123361
617.10 0.6120826
617.20 0.6118292
617.30 0.6115759
617.40 0.6113227
617.50 0.6110697
617.60 0.6108168
617.70 0.6105641
617.80 0.6103115
617.90 0.610059
618.00 0.6098066
618.10 0.6095544
618.20 0.6093023
618.30 0.6090503
618.40 0.6087985
618.50 0.6085468
618.60 0.6082952
618.70 0.6080438
618.80 0.6077925
618.90 0.6075413
619.00 0.6072903
619.10 0.6070393
619.20 0.6067886
619.30 0.6065379
619.40 0.6062874
619.50 0.606037
619.60 0.6057867
619.70 0.6055366
619.80 0.6052866
619.90 0.6050367
620.00 0.604787
620.10 0.6045373
620.20 0.6042878
620.30 0.6040385
620.40 0.6037893
620.50 0.6035402
620.60 0.6032912
620.70 0.6030424
620.80 0.6027936
620.90 0.6025458
621.00 0.6022996
621.10 0.6020534
621.20 0.6018074
621.30 0.6015615
621.40 0.6013157
621.50 0.6010701
621.60 0.6008246
621.70 0.6005792
621.80 0.6003339
621.90 0.6000888
622.00 0.5998438
622.10 0.5995989
622.20 0.5993542
622.30 0.5991095
622.40 0.598865
622.50 0.5986207
622.60 0.5983764
622.70 0.5981323
622.80 0.5978883
622.90 0.5976444
623.00 0.5974007
623.10 0.597157
623.20 0.5969136
623.30 0.5966702
623.40 0.5964269
623.50 0.5961838
623.60 0.5959408
623.70 0.595698
623.80 0.5954552
623.90 0.5952126
624.00 0.5949701
624.10 0.5947277
624.20 0.5944855
624.30 0.5942434
624.40 0.5940014
624.50 0.5937595
624.60 0.5935178
624.70 0.5932762
624.80 0.5930347
624.90 0.5927933
625.00 0.592552
625.10 0.5923109
625.20 0.5920699
625.30 0.591829
625.40 0.5915883
625.50 0.5913477
625.60 0.5911072
625.70 0.5908668
625.80 0.5906265
625.90 0.5903864
626.00 0.5901464
626.10 0.5899065
626.20 0.5896667
626.30 0.5894271
626.40 0.5891876
626.50 0.5889482
626.60 0.5887089
626.70 0.5884697
626.80 0.5882307
626.90 0.5879918
627.00 0.587753
627.10 0.5875132
627.20 0.5872706
627.30 0.5870281
627.40 0.5867857
627.50 0.5865434
627.60 0.5863012
627.70 0.5860592
627.80 0.5858173
627.90 0.5855755
628.00 0.5853339
628.10 0.5850924
628.20 0.584851
628.30 0.5846097
628.40 0.5843685
628.50 0.5841275
628.60 0.5838866
628.70 0.5836458
628.80 0.5834051
628.90 0.5831646
629.00 0.5829242
629.10 0.5826839
629.20 0.5824437
629.30 0.5822037
629.40 0.5819637
629.50 0.581724
629.60 0.5814843
629.70 0.5812447
629.80 0.5810053
629.90 0.580766
630.00 0.5805268
630.10 0.5802877
630.20 0.5800488
630.30 0.57981
630.40 0.5795713
630.50 0.5793328
630.60 0.5790943
630.70 0.578856
630.80 0.5786178
630.90 0.5783798
631.00 0.5781418
631.10 0.577904
631.20 0.5776663
631.30 0.5774287
631.40 0.5771913
631.50 0.5769539
631.60 0.5767167
631.70 0.5764796
631.80 0.5762426
631.90 0.5760058
632.00 0.5757691
632.10 0.5755324
632.20 0.575296
632.30 0.5750596
632.40 0.5748233
632.50 0.5745872
632.60 0.5743512
632.70 0.5741153
632.80 0.5738796
632.90 0.5736439
633.00 0.5734084
633.10 0.573173
633.20 0.5729377
633.30 0.5727025
633.40 0.5724678
633.50 0.5722334
633.60 0.5719991
633.70 0.5717649
633.80 0.5715308
633.90 0.5712969
634.00 0.5710631
634.10 0.5708294
634.20 0.5705958
634.30 0.5703624
634.40 0.570129
634.50 0.5698958
634.60 0.5696627
634.70 0.5694297
634.80 0.5691969
634.90 0.5689641
635.00 0.5687315
635.10 0.568499
635.20 0.5682666
635.30 0.5680343
635.40 0.5678021
635.50 0.5675701
635.60 0.5673382
635.70 0.5671064
635.80 0.5668747
635.90 0.5666431
636.00 0.5664117
636.10 0.5661804
636.20 0.5659491
636.30 0.5657181
636.40 0.5654871
636.50 0.5652562
636.60 0.5650255
636.70 0.5647949
636.80 0.5645644
636.90 0.564334
637.00 0.5641037
637.10 0.5638736
637.20 0.5636436
637.30 0.5634137
637.40 0.5631839
637.50 0.5629542
637.60 0.5627246
637.70 0.5624952
637.80 0.5622659
637.90 0.5620366
638.00 0.5618076
638.10 0.5615786
638.20 0.5613497
638.30 0.561121
638.40 0.5608923
638.50 0.5606638
638.60 0.5604354
638.70 0.5602071
638.80 0.559979
638.90 0.5597509
639.00 0.559523
639.10 0.5592951
639.20 0.5590674
639.30 0.5588398
639.40 0.5586124
639.50 0.558385
639.60 0.5581577
639.70 0.5579307
639.80 0.5577042
639.90 0.5574779
640.00 0.5572516
640.10 0.5570254
640.20 0.5567994
640.30 0.5565735
640.40 0.5563477
640.50 0.556122
640.60 0.5558964
640.70 0.5556709
640.80 0.5554456
640.90 0.5552203
641.00 0.5549952
641.10 0.5547702
641.20 0.5545453
641.30 0.5543205
641.40 0.5540958
641.50 0.5538713
641.60 0.5536468
641.70 0.5534225
641.80 0.5531983
641.90 0.5529742
642.00 0.5527502
642.10 0.5525263
642.20 0.5523025
642.30 0.5520789
642.40 0.5518553
642.50 0.5516319
642.60 0.5514086
642.70 0.5511854
642.80 0.5509623
642.90 0.5507383
643.00 0.5505111
643.10 0.550284
643.20 0.550057
643.30 0.5498302
643.40 0.5496035
643.50 0.5493769
643.60 0.5491504
643.70 0.548924
643.80 0.5486977
643.90 0.5484715
644.00 0.5482455
644.10 0.5480196
644.20 0.5477938
644.30 0.547568
644.40 0.5473425
644.50 0.547117
644.60 0.5468916
644.70 0.5466664
644.80 0.5464412
644.90 0.5462162
645.00 0.5459913
645.10 0.5457665
645.20 0.5455418
645.30 0.5453173
645.40 0.5450928
645.50 0.5448685
645.60 0.5446442
645.70 0.5444201
645.80 0.5441961
645.90 0.5439722
646.00 0.5437485
646.10 0.543526
646.20 0.5433072
646.30 0.5430886
646.40 0.54287
646.50 0.5426515
646.60 0.5424332
646.70 0.5422149
646.80 0.5419968
646.90 0.5417788
647.00 0.5415608
647.10 0.541343
647.20 0.5411253
647.30 0.5409077
647.40 0.5406903
647.50 0.5404729
647.60 0.5402556
647.70 0.5400385
647.80 0.5398214
647.90 0.5396045
648.00 0.5393876
648.10 0.5391709
648.20 0.5389543
648.30 0.5387378
648.40 0.5385214
648.50 0.5383051
648.60 0.5380889
648.70 0.5378728
648.80 0.5376569
648.90 0.537441
649.00 0.5372252
649.10 0.5370096
649.20 0.5367941
649.30 0.5365786
649.40 0.5363593
649.50 0.5361399
649.60 0.5359207
649.70 0.5357015
649.80 0.5354825
649.90 0.5352635
650.00 0.5350447
650.10 0.534826
650.20 0.5346074
650.30 0.5343889
650.40 0.5341705
650.50 0.5339522
650.60 0.5337341
650.70 0.533516
650.80 0.533298
650.90 0.5330802
651.00 0.5328625
651.10 0.5326448
651.20 0.5324273
651.30 0.5322099
651.40 0.5319926
651.50 0.5317754
651.60 0.5315583
651.70 0.5313414
651.80 0.5311245
651.90 0.5309077
652.00 0.5306911
652.10 0.5304745
652.20 0.5302581
652.30 0.5300418
652.40 0.5298255
652.50 0.5296094
652.60 0.5293954
652.70 0.5291826
652.80 0.5289699
652.90 0.5287573
653.00 0.5285449
653.10 0.5283325
653.20 0.5281202
653.30 0.527908
653.40 0.527696
653.50 0.527484
653.60 0.5272722
653.70 0.5270604
653.80 0.5268488
653.90 0.5266372
654.00 0.5264258
654.10 0.5262145
654.20 0.5260032
654.30 0.5257921
654.40 0.5255811
654.50 0.5253702
654.60 0.5251594
654.70 0.5249487
654.80 0.5247381
654.90 0.5245276
655.00 0.5243172
655.10 0.5241069
655.20 0.5238967
655.30 0.5236866
655.40 0.5234767
655.50 0.5232668
655.60 0.523057
655.70 0.5228473
655.80 0.522635
655.90 0.5224228
656.00 0.5222107
656.10 0.5219987
656.20 0.5217868
656.30 0.521575
656.40 0.5213633
656.50 0.5211517
656.60 0.5209403
656.70 0.5207289
656.80 0.5205176
656.90 0.5203065
657.00 0.5200954
657.10 0.5198844
657.20 0.5196736
657.30 0.5194628
657.40 0.5192522
657.50 0.5190417
657.60 0.5188312
657.70 0.5186209
657.80 0.5184632
657.90 0.5182608
658.00 0.5180505
658.10 0.5178404
658.20 0.5176303
658.30 0.5174204
658.40 0.5172106
658.50 0.5170008
658.60 0.5167912
658.70 0.5165817
658.80 0.5163723
658.90 0.516163
659.00 0.5159537
659.10 0.5157283
659.20 0.5154784
659.30 0.5152751
659.40 0.5150719
659.50 0.5148688
659.60 0.5146658
659.70 0.5144629
659.80 0.5142602
659.90 0.5140575
660.00 0.5138549
660.10 0.5136524
660.20 0.51345
660.30 0.5132477
660.40 0.5130396
660.50 0.5128305
660.60 0.5126216
660.70 0.5124127
660.80 0.5122039
660.90 0.5119969
661.00 0.5117899
661.10 0.5115831
661.20 0.5113763
661.30 0.5111697
661.40 0.5109631
661.50 0.5107567
661.60 0.5105503
661.70 0.5103441
661.80 0.510138
661.90 0.5099334
662.00 0.509729
662.10 0.5095247
662.20 0.5093204
662.30 0.5091163
662.40 0.5089551
662.50 0.5087367
662.60 0.5085184
662.70 0.5083002
662.80 0.5080821
662.90 0.5078641
663.00 0.5076463
663.10 0.5074932
663.20 0.5072755
663.30 0.507058
663.40 0.5069051
663.50 0.5066878
663.60 0.5064705
663.70 0.5062579
663.80 0.5060453
663.90 0.5058246
664.00 0.5056026
664.10 0.5054074
664.20 0.5052122
664.30 0.5050172
664.40 0.5048223
664.50 0.5046274
664.60 0.5044327
664.70 0.5042335
664.80 0.5040345
664.90 0.5038356
665.00 0.5036367
665.10 0.503438
665.20 0.5032393
665.30 0.5030408
665.40 0.5028423
665.50 0.5026252
665.60 0.5024048
665.70 0.5022292
665.80 0.5020279
665.90 0.5018268
666.00 0.5016258
666.10 0.5014249
666.20 0.5012241
666.30 0.5010233
666.40 0.5008227
666.50 0.5006105
666.60 0.5003964
666.70 0.5001823
666.80 0.4999684
666.90 0.4997545
667.00 0.4995408
667.10 0.4993814
667.20 0.4992318
667.30 0.4990228
667.40 0.4988139
667.50 0.4986013
667.60 0.4983881
667.70 0.4982134
667.80 0.4979526
667.90 0.4978035
668.00 0.4975271
668.10 0.497324
668.20 0.4971115
668.30 0.4969262
668.40 0.4967457
668.50 0.4965653
668.60 0.4963849
668.70 0.4962317
668.80 0.4960093
668.90 0.495787
669.00 0.4955648
669.10 0.4953427
669.20 0.4951207
669.30 0.4949185
669.40 0.4947199
669.50 0.4945214
669.60 0.494323
669.70 0.4941247
669.80 0.4939264
669.90 0.4937283
670.00 0.4935303
670.10 0.4933324
670.20 0.4931345
670.30 0.4929576
670.40 0.4927845
670.50 0.4926114
670.60 0.4924385
670.70 0.4922656
670.80 0.4920622
670.90 0.4918588
671.00 0.4916556
671.10 0.4914525
671.20 0.4912495
671.30 0.4910466
671.40 0.4908437
671.50 0.490641
671.60 0.4904384
671.70 0.4902359
671.80 0.4900334
671.90 0.4898356
672.00 0.4896387
672.10 0.4894418
672.20 0.489245
672.30 0.4890484
672.40 0.4888601
672.50 0.4886725
672.60 0.4884849
672.70 0.4882975
672.80 0.4881102
672.90 0.4879229
673.00 0.4877358
673.10 0.4875487
673.20 0.4873617
673.30 0.4871079
673.40 0.4869043
673.50 0.4867096
673.60 0.4865149
673.70 0.4863204
673.80 0.486126
673.90 0.4859317
674.00 0.4857374
674.10 0.4855433
674.20 0.4853492
674.30 0.4851552
674.40 0.4849614
674.50 0.4847676
674.60 0.4845739
674.70 0.4843803
674.80 0.4841868
674.90 0.4839934
675.00 0.4838001
675.10 0.4836069
675.20 0.4834138
675.30 0.4832208
675.40 0.4830278
675.50 0.482835
675.60 0.4826423
675.70 0.4824496
675.80 0.482257
675.90 0.4820646
676.00 0.4818722
676.10 0.4816799
676.20 0.4814877
676.30 0.4812956
676.40 0.4811036
676.50 0.4809117
676.60 0.4807199
676.70 0.4805282
676.80 0.4803365
676.90 0.480145
677.00 0.4799535
677.10 0.4797622
677.20 0.4795709
677.30 0.4793797
677.40 0.4791886
677.50 0.4789977
677.60 0.4788068
677.70 0.4786159
677.80 0.4784252
677.90 0.4782334
678.00 0.4780414
678.10 0.4778496
678.20 0.4776578
678.30 0.4774661
678.40 0.4772745
678.50 0.477083
678.60 0.4768916
678.70 0.4767003
678.80 0.4765091
678.90 0.476318
679.00 0.4761269
679.10 0.4759372
679.20 0.475748
679.30 0.475559
679.40 0.47537
679.50 0.4751812
679.60 0.4749924
679.70 0.4748037
679.80 0.4746151
679.90 0.4744266
680.00 0.4742382
680.10 0.4740498
680.20 0.4738616
680.30 0.4736735
680.40 0.4734854
680.50 0.4732974
680.60 0.4731096
680.70 0.4729218
680.80 0.4727341
680.90 0.4725465
681.00 0.472359
681.10 0.4721715
681.20 0.4719842
681.30 0.4717969
681.40 0.4716098
681.50 0.4714227
681.60 0.4712357
681.70 0.4710488
681.80 0.470862
681.90 0.4706753
682.00 0.4704887
682.10 0.4703022
682.20 0.4701157
682.30 0.4699294
682.40 0.4697431
682.50 0.4695569
682.60 0.4693709
682.70 0.4691849
682.80 0.4689989
682.90 0.4688131
683.00 0.4686274
683.10 0.4684417
683.20 0.4682562
683.30 0.4680707
683.40 0.4678853
683.50 0.4677001
683.60 0.4675149
683.70 0.4673297
683.80 0.4671447
683.90 0.4669598
684.00 0.4667749
684.10 0.4665902
684.20 0.4664055
684.30 0.4662209
684.40 0.4660364
684.50 0.465852
684.60 0.4656677
684.70 0.4654835
684.80 0.4652993
684.90 0.4651153
685.00 0.4649313
685.10 0.4647474
685.20 0.4645636
685.30 0.4643799
685.40 0.4641963
685.50 0.4640128
685.60 0.4638293
685.70 0.4636459
685.80 0.4634627
685.90 0.4632785
686.00 0.4630941
686.10 0.4629098
686.20 0.4627256
686.30 0.4625415
686.40 0.4623575
686.50 0.4621735
686.60 0.4619897
686.70 0.4618059
686.80 0.4616223
686.90 0.4614387
687.00 0.4612552
687.10 0.4610718
687.20 0.4608884
687.30 0.4607052
687.40 0.4605221
687.50 0.460339
687.60 0.460156
687.70 0.4599731
687.80 0.4597903
687.90 0.4596076
688.00 0.459425
688.10 0.4592424
688.20 0.45906
688.30 0.4588776
688.40 0.4586953
688.50 0.4585131
688.60 0.458331
688.70 0.458149
688.80 0.4579671
688.90 0.4577852
689.00 0.4576035
689.10 0.4574218
689.20 0.4572402
689.30 0.4570587
689.40 0.4568773
689.50 0.4566959
689.60 0.4565147
689.70 0.4563335
689.80 0.4561525
689.90 0.4559715
690.00 0.4557906
690.10 0.4556098
690.20 0.455429
690.30 0.4552484
690.40 0.4550678
690.50 0.4548873
690.60 0.454707
690.70 0.4545267
690.80 0.4543464
690.90 0.4541663
691.00 0.4539862
691.10 0.4538063
691.20 0.4536264
691.30 0.4534466
691.40 0.4532669
691.50 0.4530873
691.60 0.4529077
691.70 0.4527283
691.80 0.4525489
691.90 0.4523696
692.00 0.4521904
692.10 0.4520113
692.20 0.4518323
692.30 0.4516534
692.40 0.4514745
692.50 0.4512957
692.60 0.451117
692.70 0.4509382
692.80 0.4507587
692.90 0.4505792
693.00 0.4503999
693.10 0.4502206
693.20 0.4500414
693.30 0.4498623
693.40 0.4496833
693.50 0.4495044
693.60 0.4493256
693.70 0.4491468
693.80 0.4489681
693.90 0.4487895
694.00 0.448611
694.10 0.4484326
694.20 0.4482542
694.30 0.448076
694.40 0.4478978
694.50 0.4477197
694.60 0.4475417
694.70 0.4473638
694.80 0.447186
694.90 0.4470082
695.00 0.4468306
695.10 0.446653
695.20 0.4464755
695.30 0.4462981
695.40 0.4461207
695.50 0.4459435
695.60 0.4457663
695.70 0.4455892
695.80 0.4454122
695.90 0.4452353
696.00 0.4450585
696.10 0.4448817
696.20 0.4447051
696.30 0.4445285
696.40 0.444352
696.50 0.4441756
696.60 0.4440008
696.70 0.4438265
696.80 0.4436523
696.90 0.4434781
697.00 0.4433041
697.10 0.4431301
697.20 0.4429562
697.30 0.4427824
697.40 0.4426087
697.50 0.442435
697.60 0.4422615
697.70 0.442088
697.80 0.4419146
697.90 0.4417413
698.00 0.441568
698.10 0.4413949
698.20 0.4412218
698.30 0.4410488
698.40 0.4408759
698.50 0.440703
698.60 0.4405303
698.70 0.4403576
698.80 0.440185
698.90 0.4400125
699.00 0.4398401
699.10 0.4396732
699.20 0.4395078
699.30 0.4393424
699.40 0.4391771
699.50 0.4390119
699.60 0.4388468
699.70 0.4386726
699.80 0.4384979
699.90 0.4383234
700.00 0.4381489
700.10 0.4379746
700.20 0.4378003
700.30 0.4376261
700.40 0.4374519
700.50 0.4372779
700.60 0.4371039
700.70 0.43693
700.80 0.4367562
700.90 0.4365825
701.00 0.4364088
701.10 0.4362376
701.20 0.4360669
701.30 0.4358963
701.40 0.4357258
701.50 0.4355554
701.60 0.435385
701.70 0.4352147
701.80 0.4350445
701.90 0.4348744
702.00 0.4347044
702.10 0.4345345
702.20 0.4343646
702.30 0.4341948
702.40 0.4340251
702.50 0.4338554
702.60 0.4336824
702.70 0.4335086
702.80 0.4333349
702.90 0.4331612
703.00 0.4329877
703.10 0.4328142
703.20 0.4326408
703.30 0.4324675
703.40 0.4322943
703.50 0.4321211
703.60 0.4319481
703.70 0.4317751
703.80 0.4316022
703.90 0.4314294
704.00 0.4312566
704.10 0.4310839
704.20 0.4309148
704.30 0.4307466
704.40 0.4305785
704.50 0.4304105
704.60 0.4302425
704.70 0.4300746
704.80 0.4299068
704.90 0.4297391
705.00 0.4295714
705.10 0.4294038
705.20 0.4292425
705.30 0.4290827
705.40 0.428923
705.50 0.4287633
705.60 0.4286037
705.70 0.4284442
705.80 0.4282694
705.90 0.428091
706.00 0.4279127
706.10 0.4277345
706.20 0.4275563
706.30 0.4273783
706.40 0.4272465
706.50 0.4270956
706.60 0.4268908
706.70 0.42677
706.80 0.4266031
706.90 0.4264256
707.00 0.4262481
707.10 0.4260707
707.20 0.4258933
707.30 0.4257161
707.40 0.4255543
707.50 0.4253961
707.60 0.4252381
707.70 0.4250801
707.80 0.4249221
707.90 0.4247643
708.00 0.4246004
708.10 0.4244351
708.20 0.4242699
708.30 0.4241048
708.40 0.4239397
708.50 0.4237748
708.60 0.4236099
708.70 0.423445
708.80 0.4232803
708.90 0.4231156
709.00 0.4229476
709.10 0.4227789
709.20 0.4226102
709.30 0.4224416
709.40 0.4222731
709.50 0.4221047
709.60 0.4219363
709.70 0.421768
709.80 0.4215998
709.90 0.4214317
710.00 0.4212636
710.10 0.4210957
710.20 0.4209278
710.30 0.42076
710.40 0.4205922
710.50 0.4204246
710.60 0.4202604
710.70 0.4200971
710.80 0.4199339
710.90 0.4197708
711.00 0.4196078
711.10 0.4194448
711.20 0.4192819
711.30 0.419119
711.40 0.4189563
711.50 0.4187936
711.60 0.418631
711.70 0.4184685
711.80 0.418306
711.90 0.4181436
712.00 0.4179813
712.10 0.4178168
712.20 0.4176519
712.30 0.4174871
712.40 0.4173223
712.50 0.4171576
712.60 0.4169929
712.70 0.4168284
712.80 0.4166639
712.90 0.4164995
713.00 0.4163352
713.10 0.4161709
713.20 0.4160068
713.30 0.4158427
713.40 0.4156787
713.50 0.4155147
713.60 0.4153508
713.70 0.4151922
713.80 0.4150442
713.90 0.4148962
714.00 0.4147484
714.10 0.4145901
714.20 0.4144294
714.30 0.4142688
714.40 0.4141083
714.50 0.4139478
714.60 0.4137874
714.70 0.4136271
714.80 0.4134669
714.90 0.4133067
715.00 0.4131466
715.10 0.4129866
715.20 0.4128267
715.30 0.4126668
715.40 0.412507
715.50 0.4123473
715.60 0.4121877
715.70 0.4120281
715.80 0.4118686
715.90 0.4117092
716.00 0.4115498
716.10 0.4113905
716.20 0.4112313
716.30 0.4110722
716.40 0.4109131
716.50 0.4107541
716.60 0.4105923
716.70 0.4104297
716.80 0.4102673
716.90 0.4101049
717.00 0.4099426
717.10 0.4097804
717.20 0.4096183
717.30 0.4094562
717.40 0.4092942
717.50 0.4091323
717.60 0.4089705
717.70 0.4088087
717.80 0.408647
717.90 0.4084854
718.00 0.4083238
718.10 0.4081624
718.20 0.4080033
718.30 0.4078457
718.40 0.4076881
718.50 0.4075305
718.60 0.4073731
718.70 0.4072157
718.80 0.4070584
718.90 0.4069012
719.00 0.406744
719.10 0.4065869
719.20 0.4064299
719.30 0.4062729
719.40 0.406116
719.50 0.4059592
719.60 0.4058025
719.70 0.4056458
719.80 0.4054892
719.90 0.4053327
720.00 0.4051763
720.10 0.4050199
720.20 0.4048636
720.30 0.4047073
720.40 0.4045512
720.50 0.4043951
720.60 0.404239
720.70 0.4040694
720.80 0.4038926
720.90 0.4037378
721.00 0.403584
721.10 0.4034303
721.20 0.4032766
721.30 0.403123
721.40 0.4029695
721.50 0.4028161
721.60 0.4026627
721.70 0.4025094
721.80 0.4023561
721.90 0.402203
722.00 0.4020499
722.10 0.4018968
722.20 0.4017439
722.30 0.401591
722.40 0.4014382
722.50 0.4012854
722.60 0.4011327
722.70 0.4009741
722.80 0.4008124
722.90 0.4006508
723.00 0.4004892
723.10 0.4003277
723.20 0.4001663
723.30 0.4000049
723.40 0.3998436
723.50 0.3996824
723.60 0.3995213
723.70 0.3993602
723.80 0.3991992
723.90 0.3990383
724.00 0.3988775
724.10 0.3987167
724.20 0.3985625
724.30 0.3984118
724.40 0.3982612
724.50 0.3981106
724.60 0.3979601
724.70 0.3978097
724.80 0.3976594
724.90 0.3975091
725.00 0.3973589
725.10 0.3972087
725.20 0.3970587
725.30 0.3969087
725.40 0.3967587
725.50 0.3966089
725.60 0.396459
725.70 0.3963093
725.80 0.3961579
725.90 0.3960056
726.00 0.3958534
726.10 0.3957012
726.20 0.3955491
726.30 0.3953971
726.40 0.3952451
726.50 0.3950932
726.60 0.3949414
726.70 0.3947897
726.80 0.394631
726.90 0.3944686
727.00 0.3943063
727.10 0.3941441
727.20 0.393982
727.30 0.3938199
727.40 0.3936753
727.50 0.3935403
727.60 0.3934053
727.70 0.3932703
727.80 0.393118
727.90 0.3929563
728.00 0.3927571
728.10 0.3926144
728.20 0.3925066
728.30 0.3922917
728.40 0.3921491
728.50 0.3919879
728.60 0.3918442
728.70 0.3917099
728.80 0.3915756
728.90 0.3914414
729.00 0.3912899
729.10 0.3911291
729.20 0.3909684
729.30 0.3908077
729.40 0.3906472
729.50 0.3904867
729.60 0.3903332
729.70 0.3901835
729.80 0.3900339
729.90 0.3898843
730.00 0.3897348
730.10 0.3895854
730.20 0.3894361
730.30 0.3892868
730.40 0.3891376
730.50 0.3889884
730.60 0.3888411
730.70 0.3886947
730.80 0.3885484
730.90 0.3884022
731.00 0.388256
731.10 0.3881099
731.20 0.3879639
731.30 0.387818
731.40 0.3876721
731.50 0.3875262
731.60 0.3873805
731.70 0.3872348
731.80 0.3870891
731.90 0.3869436
732.00 0.3867981
732.10 0.3866526
732.20 0.3865009
732.30 0.3863459
732.40 0.386191
732.50 0.3860361
732.60 0.3858813
732.70 0.3857265
732.80 0.3855718
732.90 0.3854172
733.00 0.3852627
733.10 0.3851082
733.20 0.3849538
733.30 0.3847995
733.40 0.3846453
733.50 0.3844911
733.60 0.384337
733.70 0.3841901
733.80 0.3840472
733.90 0.3839043
734.00 0.3837615
734.10 0.3836187
734.20 0.3834761
734.30 0.3833334
734.40 0.3831909
734.50 0.3830484
734.60 0.382906
734.70 0.3827636
734.80 0.3826213
734.90 0.382479
735.00 0.3823369
735.10 0.3821948
735.20 0.3820527
735.30 0.3819089
735.40 0.3817437
735.50 0.3815786
735.60 0.3814136
735.70 0.3812612
735.80 0.3811156
735.90 0.38097
736.00 0.3808245
736.10 0.3806791
736.20 0.3805337
736.30 0.3803884
736.40 0.3802432
736.50 0.380098
736.60 0.3799529
736.70 0.3798078
736.80 0.3796629
736.90 0.3795179
737.00 0.3793731
737.10 0.3792283
737.20 0.3790836
737.30 0.3789389
737.40 0.3787943
737.50 0.3786498
737.60 0.3785054
737.70 0.378361
737.80 0.3782166
737.90 0.3780724
738.00 0.3779281
738.10 0.377784
738.20 0.37764
738.30 0.3774961
738.40 0.3773522
738.50 0.3772084
738.60 0.3770647
738.70 0.376921
738.80 0.3767774
738.90 0.3766339
739.00 0.3764904
739.10 0.376347
739.20 0.3762037
739.30 0.3760604
739.40 0.3759172
739.50 0.375774
739.60 0.3756309
739.70 0.3754879
739.80 0.3753449
739.90 0.375202
740.00 0.3750592
740.10 0.3749164
740.20 0.3747737
740.30 0.3746311
740.40 0.3744885
740.50 0.374346
740.60 0.3742035
740.70 0.3740611
740.80 0.3739188
740.90 0.3737765
741.00 0.3736343
741.10 0.3734922
741.20 0.3733501
741.30 0.3732081
741.40 0.3730662
741.50 0.3729243
741.60 0.3727824
741.70 0.3726407
741.80 0.372499
741.90 0.3723574
742.00 0.3722158
742.10 0.3720743
742.20 0.3719328
742.30 0.3717914
742.40 0.3716501
742.50 0.3715089
742.60 0.3713677
742.70 0.3712218
742.80 0.371072
742.90 0.3709224
743.00 0.3707728
743.10 0.3706233
743.20 0.3704738
743.30 0.3703244
743.40 0.3701751
743.50 0.3700259
743.60 0.3698767
743.70 0.3697291
743.80 0.3695879
743.90 0.3694468
744.00 0.3693057
744.10 0.3691647
744.20 0.3690237
744.30 0.3688828
744.40 0.368742
744.50 0.3686012
744.60 0.3684605
744.70 0.3683198
744.80 0.3681793
744.90 0.3680387
745.00 0.3678983
745.10 0.3677579
745.20 0.3676175
745.30 0.3674773
745.40 0.3673371
745.50 0.3671969
745.60 0.3670568
745.70 0.3669168
745.80 0.3667768
745.90 0.3666369
746.00 0.3664971
746.10 0.3663573
746.20 0.3662176
746.30 0.3660779
746.40 0.3659383
746.50 0.3657988
746.60 0.3656593
746.70 0.3655199
746.80 0.3653806
746.90 0.3652413
747.00 0.3651021
747.10 0.3649629
747.20 0.3648238
747.30 0.3646848
747.40 0.3645458
747.50 0.3644069
747.60 0.364268
747.70 0.3641292
747.80 0.3639905
747.90 0.3638518
748.00 0.3637132
748.10 0.3635746
748.20 0.3634361
748.30 0.3632977
748.40 0.3631594
748.50 0.363021
748.60 0.3628828
748.70 0.3627446
748.80 0.3626065
748.90 0.3624684
749.00 0.3623304
749.10 0.3621925
749.20 0.3620546
749.30 0.3619168
749.40 0.361779
749.50 0.3616413
749.60 0.3615037
749.70 0.3613661
749.80 0.3612286
749.90 0.3610911
750.00 0.3609537
750.10 0.3608166
750.20 0.36068
750.30 0.3605435
750.40 0.360407
750.50 0.3602706
750.60 0.3601342
750.70 0.3599979
750.80 0.3598617
750.90 0.3597255
751.00 0.3595894
751.10 0.3594534
751.20 0.3593174
751.30 0.3591814
751.40 0.3590456
751.50 0.3589098
751.60 0.358774
751.70 0.3586383
751.80 0.3585027
751.90 0.3583671
752.00 0.3582316
752.10 0.3580961
752.20 0.3579607
752.30 0.3578254
752.40 0.3576901
752.50 0.3575549
752.60 0.3574197
752.70 0.3572846
752.80 0.3571496
752.90 0.3570146
753.00 0.3568797
753.10 0.3567448
753.20 0.35661
753.30 0.3564752
753.40 0.3563405
753.50 0.3562059
753.60 0.3560713
753.70 0.3559368
753.80 0.3558024
753.90 0.355668
754.00 0.3555336
754.10 0.3553994
754.20 0.3552651
754.30 0.355131
754.40 0.3549969
754.50 0.3548628
754.60 0.3547289
754.70 0.3545949
754.80 0.3544611
754.90 0.3543273
755.00 0.3541935
755.10 0.3540598
755.20 0.3539262
755.30 0.3537926
755.40 0.3536591
755.50 0.3535256
755.60 0.3533922
755.70 0.3532589
755.80 0.3531256
755.90 0.3529924
756.00 0.3528592
756.10 0.3527261
756.20 0.3525931
756.30 0.3524601
756.40 0.3523271
756.50 0.3521943
756.60 0.3520614
756.70 0.3519287
756.80 0.351796
756.90 0.3516633
757.00 0.3515307
757.10 0.3513982
757.20 0.3512657
757.30 0.3511333
757.40 0.351001
757.50 0.3508687
757.60 0.3507358
757.70 0.3506014
757.80 0.3504671
757.90 0.3503328
758.00 0.3501986
758.10 0.3500644
758.20 0.3499303
758.30 0.3497962
758.40 0.3496622
758.50 0.3495283
758.60 0.3493944
758.70 0.3492606
758.80 0.3491269
758.90 0.3489932
759.00 0.3488595
759.10 0.3487259
759.20 0.3485924
759.30 0.348459
759.40 0.3483255
759.50 0.3481922
759.60 0.3480589
759.70 0.3479257
759.80 0.3477925
759.90 0.3476594
760.00 0.3475263
760.10 0.3473933
760.20 0.3472604
760.30 0.3471275
760.40 0.3469947
760.50 0.3468619
760.60 0.3467292
760.70 0.3465965
760.80 0.3464639
760.90 0.3463314
761.00 0.3461989
761.10 0.3460665
761.20 0.3459341
761.30 0.3458018
761.40 0.3456706
761.50 0.345541
761.60 0.3454115
761.70 0.345282
761.80 0.3451525
761.90 0.3450232
762.00 0.3448938
762.10 0.3447646
762.20 0.3446354
762.30 0.3445062
762.40 0.3443771
762.50 0.3442481
762.60 0.3441191
762.70 0.3439901
762.80 0.3438613
762.90 0.3437324
763.00 0.3436037
763.10 0.343475
763.20 0.3433463
763.30 0.3432177
763.40 0.3430892
763.50 0.3429607
763.60 0.3428323
763.70 0.3427039
763.80 0.3425756
763.90 0.3424473
764.00 0.3423191
764.10 0.3421909
764.20 0.3420628
764.30 0.3419348
764.40 0.3418068
764.50 0.3416789
764.60 0.341551
764.70 0.3414232
764.80 0.3412954
764.90 0.3411677
765.00 0.34104
765.10 0.3409124
765.20 0.3407844
765.30 0.340656
765.40 0.3405277
765.50 0.3403995
765.60 0.3402712
765.70 0.3401431
765.80 0.340015
765.90 0.3398869
766.00 0.3397589
766.10 0.339631
766.20 0.3395031
766.30 0.3393753
766.40 0.3392475
766.50 0.3391198
766.60 0.3389922
766.70 0.3388646
766.80 0.338737
766.90 0.3386095
767.00 0.3384821
767.10 0.3383547
767.20 0.3382274
767.30 0.3381001
767.40 0.3379729
767.50 0.3378457
767.60 0.3377186
767.70 0.3375915
767.80 0.3374645
767.90 0.3373376
768.00 0.3372107
768.10 0.3370839
768.20 0.3369571
768.30 0.3368303
768.40 0.3367037
768.50 0.336577
768.60 0.3364505
768.70 0.336324
768.80 0.3361975
768.90 0.3360711
769.00 0.3359448
769.10 0.3358185
769.20 0.3356922
769.30 0.3355661
769.40 0.3354399
769.50 0.3353139
769.60 0.3351878
769.70 0.3350619
769.80 0.334936
769.90 0.3348101
770.00 0.3346843
770.10 0.3345585
770.20 0.3344328
770.30 0.3343072
770.40 0.3341816
770.50 0.3340561
770.60 0.3339306
770.70 0.3338052
770.80 0.3336798
770.90 0.3335545
771.00 0.3334292
771.10 0.333304
771.20 0.3331788
771.30 0.3330537
771.40 0.3329287
771.50 0.3328037
771.60 0.3326787
771.70 0.3325539
771.80 0.332429
771.90 0.3323042
772.00 0.3321795
772.10 0.3320548
772.20 0.3319302
772.30 0.3318056
772.40 0.3316811
772.50 0.3315567
772.60 0.3314323
772.70 0.3313079
772.80 0.3311836
772.90 0.3310585
773.00 0.3309334
773.10 0.3308084
773.20 0.3306835
773.30 0.3305586
773.40 0.3304338
773.50 0.330309
773.60 0.3301843
773.70 0.3300596
773.80 0.329935
773.90 0.3298104
774.00 0.3296859
774.10 0.3295614
774.20 0.329437
774.30 0.3293127
774.40 0.3291884
774.50 0.3290641
774.60 0.32894
774.70 0.3288158
774.80 0.3286917
774.90 0.3285677
775.00 0.3284437
775.10 0.3283198
775.20 0.3281959
775.30 0.3280721
775.40 0.3279483
775.50 0.3278246
775.60 0.3277009
775.70 0.3275773
775.80 0.3274538
775.90 0.3273303
776.00 0.3272068
776.10 0.3270834
776.20 0.3269601
776.30 0.3268368
776.40 0.3267135
776.50 0.3265903
776.60 0.3264672
776.70 0.3263441
776.80 0.3262211
776.90 0.3260981
777.00 0.3259752
777.10 0.3258523
777.20 0.3257295
777.30 0.3256067
777.40 0.325484
777.50 0.3253613
777.60 0.3252387
777.70 0.3251162
777.80 0.3249937
777.90 0.3248712
778.00 0.3247488
778.10 0.3246265
778.20 0.3245042
778.30 0.3243819
778.40 0.3242597
778.50 0.3241376
778.60 0.3240155
778.70 0.3238935
778.80 0.3237715
778.90 0.3236495
779.00 0.3235277
779.10 0.3234058
779.20 0.3232841
779.30 0.3231623
779.40 0.3230407
779.50 0.322919
779.60 0.3227975
779.70 0.3226759
779.80 0.3225545
779.90 0.3224331
780.00 0.3223117
780.10 0.3221904
780.20 0.3220691
780.30 0.3219479
780.40 0.3218268
780.50 0.3217056
780.60 0.3215858
780.70 0.3214665
780.80 0.3213473
780.90 0.3212281
781.00 0.3211089
781.10 0.3209898
781.20 0.3208708
781.30 0.3207518
781.40 0.3206328
781.50 0.3205139
781.60 0.3203951
781.70 0.3202763
781.80 0.3201575
781.90 0.3200388
782.00 0.3199202
782.10 0.3198016
782.20 0.319683
782.30 0.3195645
782.40 0.3194461
782.50 0.3193277
782.60 0.3192094
782.70 0.3190911
782.80 0.3189728
782.90 0.3188546
783.00 0.3187365
783.10 0.3186184
783.20 0.3185003
783.30 0.3183823
783.40 0.3182644
783.50 0.3181465
783.60 0.3180286
783.70 0.3179108
783.80 0.3177931
783.90 0.3176754
784.00 0.3175577
784.10 0.3174401
784.20 0.3173226
784.30 0.3172051
784.40 0.3170877
784.50 0.3169703
784.60 0.3168528
784.70 0.3167353
784.80 0.3166178
784.90 0.3165003
785.00 0.3163829
785.10 0.3162655
785.20 0.3161482
785.30 0.316031
785.40 0.3159138
785.50 0.3157966
785.60 0.3156795
785.70 0.3155624
785.80 0.3154454
785.90 0.3153284
786.00 0.3152115
786.10 0.3150947
786.20 0.3149779
786.30 0.3148611
786.40 0.3147444
786.50 0.3146277
786.60 0.3145111
786.70 0.3143945
786.80 0.314278
786.90 0.3141615
787.00 0.3140451
787.10 0.3139287
787.20 0.3138124
787.30 0.3136961
787.40 0.3135799
787.50 0.3134637
787.60 0.3133476
787.70 0.3132315
787.80 0.3131155
787.90 0.3129995
788.00 0.3128836
788.10 0.3127677
788.20 0.3126519
788.30 0.3125361
788.40 0.3124199
788.50 0.3123035
788.60 0.3121872
788.70 0.312071
788.80 0.3119548
788.90 0.3118386
789.00 0.3117225
789.10 0.3116064
789.20 0.3114904
789.30 0.3113745
789.40 0.3112585
789.50 0.3111427
789.60 0.3110269
789.70 0.3109111
789.80 0.3107954
789.90 0.3106797
790.00 0.3105641
790.10 0.3104485
790.20 0.310333
790.30 0.3102175
790.40 0.3101021
790.50 0.3099867
790.60 0.3098714
790.70 0.3097561
790.80 0.3096409
790.90 0.3095257
791.00 0.3094105
791.10 0.3092954
791.20 0.3091804
791.30 0.3090654
791.40 0.3089505
791.50 0.3088356
791.60 0.3087207
791.70 0.3086059
791.80 0.3084912
791.90 0.3083765
792.00 0.3082618
792.10 0.3081472
792.20 0.3080326
792.30 0.3079181
792.40 0.3078037
792.50 0.3076892
792.60 0.3075748
792.70 0.3074605
792.80 0.3073462
792.90 0.307232
793.00 0.3071178
793.10 0.3070037
793.20 0.3068896
793.30 0.3067756
793.40 0.3066616
793.50 0.3065476
793.60 0.3064337
793.70 0.3063199
793.80 0.3062061
793.90 0.3060923
794.00 0.3059786
794.10 0.3058649
794.20 0.3057513
794.30 0.3056378
794.40 0.3055242
794.50 0.3054108
794.60 0.3052973
794.70 0.305184
794.80 0.3050706
794.90 0.3049574
795.00 0.3048441
795.10 0.3047309
795.20 0.3046178
795.30 0.3045047
795.40 0.3043917
795.50 0.3042787
795.60 0.3041657
795.70 0.3040528
795.80 0.30394
795.90 0.3038271
796.00 0.3037144
796.10 0.3036017
796.20 0.303489
796.30 0.3033776
796.40 0.3032666
796.50 0.3031555
796.60 0.3030445
796.70 0.3029336
796.80 0.3028227
796.90 0.3027118
797.00 0.302601
797.10 0.3024903
797.20 0.3023796
797.30 0.3022689
797.40 0.3021583
797.50 0.3020477
797.60 0.3019372
797.70 0.3018267
797.80 0.3017162
797.90 0.3016058
798.00 0.3014955
798.10 0.3013852
798.20 0.3012749
798.30 0.3011647
798.40 0.3010546
798.50 0.3009445
798.60 0.3008344
798.70 0.3007244
798.80 0.3006144
798.90 0.3005044
799.00 0.3003946
799.10 0.3002847
799.20 0.3001749
799.30 0.3000652
799.40 0.2999555
799.50 0.2998458
799.60 0.2997362
799.70 0.2996266
799.80 0.2995171
799.90 0.2994076
800.00 0.2992982
800.10 0.2991888
800.20 0.2990794
800.30 0.2989701
800.40 0.2988609
800.50 0.2987517
800.60 0.2986425
800.70 0.2985334
800.80 0.2984243
800.90 0.2983153
801.00 0.2982063
801.10 0.2980974
801.20 0.2979885
801.30 0.2978797
801.40 0.2977709
801.50 0.2976621
801.60 0.2975534
801.70 0.2974447
801.80 0.2973361
801.90 0.2972275
802.00 0.297119
802.10 0.2970105
802.20 0.2969021
802.30 0.2967937
802.40 0.2966853
802.50 0.296577
802.60 0.2964687
802.70 0.2963605
802.80 0.2962524
802.90 0.2961442
803.00 0.2960361
803.10 0.2959281
803.20 0.2958201
803.30 0.2957122
803.40 0.2956043
803.50 0.2954964
803.60 0.2953886
803.70 0.2952808
803.80 0.2951731
803.90 0.2950654
804.00 0.2949578
804.10 0.2948502
804.20 0.2947424
804.30 0.2946342
804.40 0.294526
804.50 0.2944178
804.60 0.2943097
804.70 0.2942016
804.80 0.2940936
804.90 0.2939856
805.00 0.2938776
805.10 0.2937697
805.20 0.2936619
805.30 0.2935541
805.40 0.2934463
805.50 0.2933386
805.60 0.2932309
805.70 0.2931233
805.80 0.2930157
805.90 0.2929081
806.00 0.2928006
806.10 0.2926932
806.20 0.2925858
806.30 0.2924784
806.40 0.2923711
806.50 0.2922638
806.60 0.2921566
806.70 0.2920494
806.80 0.2919422
806.90 0.2918351
807.00 0.2917281
807.10 0.2916211
807.20 0.2915141
807.30 0.2914072
807.40 0.2913003
807.50 0.2911934
807.60 0.2910866
807.70 0.2909799
807.80 0.2908732
807.90 0.2907665
808.00 0.2906599
808.10 0.2905533
808.20 0.2904468
808.30 0.2903403
808.40 0.2902339
808.50 0.2901275
808.60 0.2900211
808.70 0.2899148
808.80 0.2898085
808.90 0.2897023
809.00 0.2895961
809.10 0.28949
809.20 0.2893839
809.30 0.2892779
809.40 0.2891719
809.50 0.2890659
809.60 0.28896
809.70 0.2888541
809.80 0.2887483
809.90 0.2886425
810.00 0.2885367
810.10 0.288431
810.20 0.2883254
810.30 0.2882198
810.40 0.2881142
810.50 0.2880087
810.60 0.2879032
810.70 0.2877977
810.80 0.2876923
810.90 0.287587
811.00 0.2874817
811.10 0.2873764
811.20 0.2872712
811.30 0.287166
811.40 0.2870608
811.50 0.2869558
811.60 0.2868507
811.70 0.2867457
811.80 0.2866407
811.90 0.2865358
812.00 0.2864309
812.10 0.2863261
812.20 0.2862213
812.30 0.2861165
812.40 0.2860117
812.50 0.2859069
812.60 0.2858022
812.70 0.2856976
812.80 0.2855929
812.90 0.2854884
813.00 0.2853838
813.10 0.2852793
813.20 0.2851749
813.30 0.2850705
813.40 0.2849661
813.50 0.2848618
813.60 0.2847575
813.70 0.2846533
813.80 0.2845491
813.90 0.2844449
814.00 0.2843408
814.10 0.2842368
814.20 0.2841328
814.30 0.2840288
814.40 0.2839248
814.50 0.2838209
814.60 0.2837171
814.70 0.2836133
814.80 0.2835095
814.90 0.2834058
815.00 0.2833021
815.10 0.2831985
815.20 0.2830949
815.30 0.2829913
815.40 0.2828878
815.50 0.2827843
815.60 0.2826809
815.70 0.2825775
815.80 0.2824742
815.90 0.2823709
816.00 0.2822676
816.10 0.2821644
816.20 0.2820612
816.30 0.2819581
816.40 0.281855
816.50 0.2817519
816.60 0.2816489
816.70 0.281546
816.80 0.281443
816.90 0.2813402
817.00 0.2812373
817.10 0.2811345
817.20 0.2810318
817.30 0.2809291
817.40 0.2808264
817.50 0.2807237
817.60 0.2806212
817.70 0.2805186
817.80 0.2804161
817.90 0.2803136
818.00 0.2802112
818.10 0.2801088
818.20 0.2800065
818.30 0.2799042
818.40 0.279802
818.50 0.2796997
818.60 0.2795976
818.70 0.2794954
818.80 0.2793934
818.90 0.2792913
819.00 0.2791893
819.10 0.2790873
819.20 0.2789854
819.30 0.2788859
819.40 0.278788
819.50 0.2786901
819.60 0.2785923
819.70 0.2784945
819.80 0.2783967
819.90 0.278299
820.00 0.2782013
820.10 0.2781063
820.20 0.278006
820.30 0.2779016
820.40 0.2777994
820.50 0.2776988
820.60 0.2775982
820.70 0.2774976
820.80 0.2773971
820.90 0.2772966
821.00 0.2771962
821.10 0.2770958
821.20 0.2769954
821.30 0.2768951
821.40 0.2767948
821.50 0.2766946
821.60 0.2765944
821.70 0.2764942
821.80 0.2763941
821.90 0.276294
822.00 0.276194
822.10 0.276094
822.20 0.2759941
822.30 0.2758942
822.40 0.2757943
822.50 0.2756945
822.60 0.2755947
822.70 0.2754949
822.80 0.2753952
822.90 0.2752955
823.00 0.2751959
823.10 0.2750963
823.20 0.2749968
823.30 0.2748973
823.40 0.2747978
823.50 0.2746984
823.60 0.274599
823.70 0.2744996
823.80 0.2744003
823.90 0.2743011
824.00 0.2742018
824.10 0.2741027
824.20 0.2740035
824.30 0.2739044
824.40 0.2738053
824.50 0.2737063
824.60 0.2736073
824.70 0.2735084
824.80 0.2734095
824.90 0.2733106
825.00 0.2732118
825.10 0.273113
825.20 0.2730142
825.30 0.2729155
825.40 0.2728169
825.50 0.2727182
825.60 0.2726197
825.70 0.2725211
825.80 0.2724226
825.90 0.2723241
826.00 0.2722257
826.10 0.2721273
826.20 0.272029
826.30 0.2719306
826.40 0.2718323
826.50 0.2717341
826.60 0.2716359
826.70 0.2715377
826.80 0.2714396
826.90 0.2713415
827.00 0.2712434
827.10 0.2711454
827.20 0.2710474
827.30 0.2709495
827.40 0.2708515
827.50 0.2707537
827.60 0.2706559
827.70 0.2705581
827.80 0.2704603
827.90 0.2703626
828.00 0.270265
828.10 0.2701673
828.20 0.2700698
828.30 0.2699722
828.40 0.2698747
828.50 0.2697772
828.60 0.26968
828.70 0.2695829
828.80 0.2694859
828.90 0.2693889
829.00 0.269292
829.10 0.2691951
829.20 0.2690982
829.30 0.2690014
829.40 0.2689046
829.50 0.2688079
829.60 0.2687112
829.70 0.2686145
829.80 0.2685179
829.90 0.2684213
830.00 0.2683247
830.10 0.2682282
830.20 0.2681317
830.30 0.2680353
830.40 0.2679389
830.50 0.2678426
830.60 0.2677462
830.70 0.26765
830.80 0.2675537
830.90 0.2674575
831.00 0.2673613
831.10 0.2672652
831.20 0.2671691
831.30 0.2670731
831.40 0.2669771
831.50 0.2668811
831.60 0.2667852
831.70 0.2666893
831.80 0.2665934
831.90 0.2664976
832.00 0.2664018
832.10 0.2663061
832.20 0.2662104
832.30 0.2661147
832.40 0.2660191
832.50 0.2659235
832.60 0.2658279
832.70 0.2657324
832.80 0.265637
832.90 0.2655415
833.00 0.2654461
833.10 0.2653508
833.20 0.2652554
833.30 0.2651602
833.40 0.2650649
833.50 0.2649697
833.60 0.2648745
833.70 0.2647794
833.80 0.2646843
833.90 0.2645893
834.00 0.2644942
834.10 0.2643993
834.20 0.2643043
834.30 0.2642094
834.40 0.2641146
834.50 0.2640197
834.60 0.2639249
834.70 0.2638302
834.80 0.2637355
834.90 0.2636408
835.00 0.2635462
835.10 0.2634516
835.20 0.263357
835.30 0.2632625
835.40 0.263168
835.50 0.2630735
835.60 0.2629791
835.70 0.2628848
835.80 0.2627904
835.90 0.2626961
836.00 0.2626019
836.10 0.2625076
836.20 0.2624134
836.30 0.2623193
836.40 0.2622252
836.50 0.2621311
836.60 0.2620371
836.70 0.2619431
836.80 0.2618491
836.90 0.2617554
837.00 0.2616618
837.10 0.2615683
837.20 0.2614748
837.30 0.2613813
837.40 0.2612879
837.50 0.2611945
837.60 0.2611012
837.70 0.2610078
837.80 0.2609146
837.90 0.2608213
838.00 0.2607281
838.10 0.260635
838.20 0.2605418
838.30 0.2604487
838.40 0.2603557
838.50 0.2602627
838.60 0.2601697
838.70 0.2600767
838.80 0.2599838
838.90 0.2598909
839.00 0.2597981
839.10 0.2597053
839.20 0.2596126
839.30 0.2595198
839.40 0.2594271
839.50 0.2593345
839.60 0.2592419
839.70 0.2591493
839.80 0.2590568
839.90 0.2589643
840.00 0.2588718
840.10 0.2587794
840.20 0.258687
840.30 0.2585946
840.40 0.2585023
840.50 0.25841
840.60 0.2583178
840.70 0.2582256
840.80 0.2581334
840.90 0.2580412
841.00 0.2579491
841.10 0.2578555
841.20 0.2577615
841.30 0.2576676
841.40 0.2575738
841.50 0.2574799
841.60 0.2573861
841.70 0.2572924
841.80 0.2571987
841.90 0.257105
842.00 0.2570113
842.10 0.2569177
842.20 0.2568242
842.30 0.2567306
842.40 0.2566372
842.50 0.2565437
842.60 0.2564503
842.70 0.2563569
842.80 0.2562636
842.90 0.2561703
843.00 0.256077
843.10 0.2559838
843.20 0.2558906
843.30 0.2557974
843.40 0.2557043
843.50 0.2556112
843.60 0.2555181
843.70 0.2554251
843.80 0.2553322
843.90 0.2552392
844.00 0.2551463
844.10 0.2550535
844.20 0.2549606
844.30 0.2548678
844.40 0.2547751
844.50 0.2546824
844.60 0.2545897
844.70 0.2544971
844.80 0.2544044
844.90 0.2543119
845.00 0.2542193
845.10 0.2541269
845.20 0.2540344
845.30 0.2539442
845.40 0.253854
845.50 0.2537638
845.60 0.2536737
845.70 0.2535836
845.80 0.2534936
845.90 0.2534036
846.00 0.2533136
846.10 0.2532236
846.20 0.2531337
846.30 0.2530439
846.40 0.252954
846.50 0.2528642
846.60 0.2527745
846.70 0.2526847
846.80 0.252595
846.90 0.2525054
847.00 0.2524158
847.10 0.2523262
847.20 0.2522366
847.30 0.2521471
847.40 0.2520576
847.50 0.2519682
847.60 0.2518788
847.70 0.2517894
847.80 0.2517
847.90 0.2516107
848.00 0.2515215
848.10 0.2514322
848.20 0.251343
848.30 0.2512539
848.40 0.2511647
848.50 0.2510756
848.60 0.2509866
848.70 0.2508975
848.80 0.2508085
848.90 0.2507196
849.00 0.2506307
849.10 0.2505418
849.20 0.2504529
849.30 0.2503641
849.40 0.2502753
849.50 0.2501866
849.60 0.2500979
849.70 0.2500092
849.80 0.2499206
849.90 0.249832
850.00 0.2497434
850.10 0.2496548
850.20 0.2495663
850.30 0.2494779
850.40 0.2493894
850.50 0.249301
850.60 0.2492127
850.70 0.2491243
850.80 0.249036
850.90 0.2489478
851.00 0.2488596
851.10 0.2487714
851.20 0.2486832
851.30 0.2485951
851.40 0.248507
851.50 0.2484189
851.60 0.2483309
851.70 0.2482429
851.80 0.248155
851.90 0.2480671
852.00 0.2479792
852.10 0.2478914
852.20 0.2478035
852.30 0.2477158
852.40 0.247628
852.50 0.2475403
852.60 0.2474526
852.70 0.247365
852.80 0.2472774
852.90 0.2471898
853.00 0.2471023
853.10 0.2470148
853.20 0.2469273
853.30 0.2468399
853.40 0.2467525
853.50 0.2466651
853.60 0.2465778
853.70 0.2464906
853.80 0.2464036
853.90 0.2463167
854.00 0.2462298
854.10 0.2461429
854.20 0.2460561
854.30 0.2459693
854.40 0.2458825
854.50 0.2457958
854.60 0.2457091
854.70 0.2456224
854.80 0.2455358
854.90 0.2454492
855.00 0.2453626
855.10 0.2452761
855.20 0.2451896
855.30 0.2451031
855.40 0.2450167
855.50 0.2449303
855.60 0.2448439
855.70 0.2447576
855.80 0.2446713
855.90 0.244585
856.00 0.2444988
856.10 0.2444126
856.20 0.2443264
856.30 0.2442403
856.40 0.2441542
856.50 0.2440682
856.60 0.2439821
856.70 0.2438961
856.80 0.2438102
856.90 0.2437242
857.00 0.2436384
857.10 0.2435525
857.20 0.2434667
857.30 0.2433809
857.40 0.2432951
857.50 0.2432094
857.60 0.2431237
857.70 0.243038
857.80 0.2429524
857.90 0.2428668
858.00 0.2427813
858.10 0.2426957
858.20 0.2426102
858.30 0.2425248
858.40 0.2424393
858.50 0.2423539
858.60 0.2422686
858.70 0.2421833
858.80 0.242098
858.90 0.2420127
859.00 0.2419275
859.10 0.2418423
859.20 0.2417571
859.30 0.241672
859.40 0.2415869
859.50 0.2415018
859.60 0.2414168
859.70 0.2413318
859.80 0.2412468
859.90 0.2411619
860.00 0.241077
860.10 0.2409921
860.20 0.2409073
860.30 0.2408225
860.40 0.2407377
860.50 0.240653
860.60 0.2405683
860.70 0.2404836
860.80 0.240399
860.90 0.2403144
861.00 0.2402298
861.10 0.2401453
861.20 0.2400608
861.30 0.2399763
861.40 0.2398919
861.50 0.2398075
861.60 0.2397231
861.70 0.2396388
861.80 0.2395545
861.90 0.2394702
862.00 0.239386
862.10 0.2393017
862.20 0.2392175
862.30 0.2391328
862.40 0.239048
862.50 0.2389634
862.60 0.2388787
862.70 0.2387941
862.80 0.2387095
862.90 0.238625
863.00 0.2385405
863.10 0.238456
863.20 0.2383715
863.30 0.2382871
863.40 0.2382027
863.50 0.2381184
863.60 0.2380341
863.70 0.2379498
863.80 0.2378655
863.90 0.2377813
864.00 0.2376971
864.10 0.237613
864.20 0.2375288
864.30 0.2374447
864.40 0.2373607
864.50 0.2372767
864.60 0.2371927
864.70 0.2371087
864.80 0.2370248
864.90 0.2369409
865.00 0.236857
865.10 0.2367732
865.20 0.2366894
865.30 0.2366056
865.40 0.2365219
865.50 0.2364382
865.60 0.2363545
865.70 0.2362709
865.80 0.2361873
865.90 0.2361037
866.00 0.2360202
866.10 0.2359367
866.20 0.2358532
866.30 0.2357698
866.40 0.2356863
866.50 0.235603
866.60 0.2355196
866.70 0.2354363
866.80 0.235353
866.90 0.2352698
867.00 0.2351866
867.10 0.2351034
867.20 0.2350202
867.30 0.2349371
867.40 0.234854
867.50 0.234771
867.60 0.2346879
867.70 0.2346049
867.80 0.234522
867.90 0.234439
868.00 0.2343562
868.10 0.2342733
868.20 0.2341905
868.30 0.2341077
868.40 0.2340249
868.50 0.2339422
868.60 0.2338594
868.70 0.2337768
868.80 0.2336941
868.90 0.2336115
869.00 0.2335289
869.10 0.2334464
869.20 0.2333639
869.30 0.2332814
869.40 0.233199
869.50 0.2331165
869.60 0.2330341
869.70 0.2329518
869.80 0.2328695
869.90 0.2327872
870.00 0.2327049
870.10 0.2326227
870.20 0.2325405
870.30 0.2324583
870.40 0.2323762
870.50 0.2322941
870.60 0.232212
870.70 0.23213
870.80 0.232048
870.90 0.231967
871.00 0.2318862
871.10 0.2318055
871.20 0.2317247
871.30 0.231644
871.40 0.2315633
871.50 0.2314827
871.60 0.2314021
871.70 0.2313215
871.80 0.2312409
871.90 0.2311604
872.00 0.2310799
872.10 0.2309995
872.20 0.230919
872.30 0.2308386
872.40 0.2307583
872.50 0.2306779
872.60 0.2305976
872.70 0.2305174
872.80 0.2304371
872.90 0.2303569
873.00 0.2302767
873.10 0.2301966
873.20 0.2301164
873.30 0.2300364
873.40 0.2299563
873.50 0.2298763
873.60 0.2297963
873.70 0.2297163
873.80 0.2296364
873.90 0.2295564
874.00 0.2294766
874.10 0.2293967
874.20 0.2293169
874.30 0.2292371
874.40 0.2291574
874.50 0.2290776
874.60 0.2289979
874.70 0.2289183
874.80 0.2288387
874.90 0.228759
875.00 0.2286795
875.10 0.2285999
875.20 0.2285204
875.30 0.2284409
875.40 0.2283615
875.50 0.2282821
875.60 0.2282027
875.70 0.2281233
875.80 0.228044
875.90 0.2279647
876.00 0.2278854
876.10 0.2278062
876.20 0.227727
876.30 0.2276478
876.40 0.2275687
876.50 0.2274895
876.60 0.2274104
876.70 0.2273314
876.80 0.2272524
876.90 0.2271734
877.00 0.2270944
877.10 0.2270155
877.20 0.2269366
877.30 0.2268577
877.40 0.2267788
877.50 0.2267
877.60 0.2266212
877.70 0.2265425
877.80 0.2264637
877.90 0.226385
878.00 0.2263064
878.10 0.2262277
878.20 0.2261491
878.30 0.2260706
878.40 0.225992
878.50 0.2259135
878.60 0.225835
878.70 0.2257565
878.80 0.2256781
878.90 0.2255997
879.00 0.2255214
879.10 0.225443
879.20 0.2253647
879.30 0.2252864
879.40 0.2252082
879.50 0.22513
879.60 0.225052
879.70 0.2249741
879.80 0.2248962
879.90 0.2248184
880.00 0.2247406
880.10 0.2246628
880.20 0.2245851
880.30 0.2245074
880.40 0.2244297
880.50 0.2243521
880.60 0.2242744
880.70 0.2241968
880.80 0.2241193
880.90 0.2240417
881.00 0.2239642
881.10 0.2238868
881.20 0.2238093
881.30 0.2237319
881.40 0.2236545
881.50 0.2235771
881.60 0.2234998
881.70 0.2234225
881.80 0.2233452
881.90 0.223268
882.00 0.2231908
882.10 0.2231136
882.20 0.2230365
882.30 0.2229593
882.40 0.2228822
882.50 0.2228052
882.60 0.2227281
882.70 0.2226511
882.80 0.2225741
882.90 0.2224972
883.00 0.2224203
883.10 0.2223434
883.20 0.2222665
883.30 0.2221897
883.40 0.2221129
883.50 0.2220361
883.60 0.2219594
883.70 0.2218826
883.80 0.221806
883.90 0.2217293
884.00 0.2216513
884.10 0.221573
884.20 0.2214948
884.30 0.2214166
884.40 0.2213384
884.50 0.2212603
884.60 0.2211822
884.70 0.2211041
884.80 0.221026
884.90 0.220948
885.00 0.22087
885.10 0.220792
885.20 0.2207141
885.30 0.2206362
885.40 0.2205583
885.50 0.2204805
885.60 0.2204027
885.70 0.2203249
885.80 0.2202471
885.90 0.2201694
886.00 0.2200917
886.10 0.220014
886.20 0.2199364
886.30 0.2198588
886.40 0.2197812
886.50 0.2197037
886.60 0.2196261
886.70 0.2195486
886.80 0.2194712
886.90 0.2193937
887.00 0.2193163
887.10 0.219239
887.20 0.2191616
887.30 0.2190843
887.40 0.219007
887.50 0.2189298
887.60 0.2188525
887.70 0.2187753
887.80 0.2186982
887.90 0.218621
888.00 0.2185439
888.10 0.2184668
888.20 0.2183898
888.30 0.2183128
888.40 0.2182374
888.50 0.2181624
888.60 0.2180873
888.70 0.2180123
888.80 0.2179373
888.90 0.2178624
889.00 0.2177875
889.10 0.2177126
889.20 0.2176377
889.30 0.2175628
889.40 0.217488
889.50 0.2174133
889.60 0.2173385
889.70 0.2172638
889.80 0.2171891
889.90 0.2171144
890.00 0.2170398
890.10 0.2169651
890.20 0.2168906
890.30 0.216816
890.40 0.2167415
890.50 0.216667
890.60 0.2165925
890.70 0.216518
890.80 0.2164436
890.90 0.2163692
891.00 0.2162949
891.10 0.2162205
891.20 0.2161462
891.30 0.2160719
891.40 0.2159977
891.50 0.2159235
891.60 0.2158493
891.70 0.2157751
891.80 0.215701
891.90 0.2156269
892.00 0.2155528
892.10 0.2154787
892.20 0.2154047
892.30 0.2153307
892.40 0.2152567
892.50 0.2151828
892.60 0.2151089
892.70 0.215035
892.80 0.2149611
892.90 0.2148873
893.00 0.2148135
893.10 0.2147397
893.20 0.2146659
893.30 0.2145922
893.40 0.2145185
893.50 0.2144448
893.60 0.2143712
893.70 0.2142976
893.80 0.214224
893.90 0.2141504
894.00 0.2140769
894.10 0.2140034
894.20 0.2139299
894.30 0.2138565
894.40 0.2137831
894.50 0.2137097
894.60 0.2136363
894.70 0.213563
894.80 0.2134897
894.90 0.2134164
895.00 0.2133431
895.10 0.2132699
895.20 0.2131967
895.30 0.2131235
895.40 0.2130504
895.50 0.2129772
895.60 0.2129042
895.70 0.2128311
895.80 0.2127581
895.90 0.212685
896.00 0.2126121
896.10 0.2125391
896.20 0.2124662
896.30 0.2123933
896.40 0.2123204
896.50 0.2122476
896.60 0.2121747
896.70 0.2121019
896.80 0.2120292
896.90 0.2119564
897.00 0.2118837
897.10 0.2118111
897.20 0.2117384
897.30 0.211666
897.40 0.2115937
897.50 0.2115214
897.60 0.2114491
897.70 0.2113768
897.80 0.2113046
897.90 0.2112323
898.00 0.2111602
898.10 0.211088
898.20 0.2110159
898.30 0.2109437
898.40 0.2108717
898.50 0.2107996
898.60 0.2107276
898.70 0.2106556
898.80 0.2105836
898.90 0.2105117
899.00 0.2104398
899.10 0.2103679
899.20 0.210296
899.30 0.2102242
899.40 0.2101523
899.50 0.2100806
899.60 0.2100088
899.70 0.2099371
899.80 0.2098654
899.90 0.2097937
900.00 0.209722
900.10 0.2096504
900.20 0.2095788
900.30 0.2095072
900.40 0.2094357
900.50 0.2093642
900.60 0.2092927
900.70 0.2092212
900.80 0.2091498
900.90 0.2090784
901.00 0.209007
901.10 0.2089356
901.20 0.2088643
901.30 0.208793
901.40 0.2087217
901.50 0.2086504
901.60 0.2085792
901.70 0.208508
901.80 0.2084368
901.90 0.2083657
902.00 0.2082946
902.10 0.2082235
902.20 0.2081524
902.30 0.2080814
902.40 0.2080104
902.50 0.2079394
902.60 0.2078684
902.70 0.2077975
902.80 0.2077266
902.90 0.2076557
903.00 0.2075848
903.10 0.207514
903.20 0.2074432
903.30 0.2073724
903.40 0.2073016
903.50 0.2072309
903.60 0.2071602
903.70 0.2070895
903.80 0.2070189
903.90 0.2069483
904.00 0.2068777
904.10 0.2068071
904.20 0.2067366
904.30 0.2066661
904.40 0.2065956
904.50 0.2065251
904.60 0.2064547
904.70 0.2063843
904.80 0.2063139
904.90 0.2062435
905.00 0.2061732
905.10 0.2061029
905.20 0.2060326
905.30 0.2059623
905.40 0.2058921
905.50 0.2058219
905.60 0.2057517
905.70 0.2056816
905.80 0.2056114
905.90 0.2055413
906.00 0.2054713
906.10 0.2054012
906.20 0.2053308
906.30 0.2052595
906.40 0.2051883
906.50 0.205117
906.60 0.2050458
906.70 0.2049747
906.80 0.2049035
906.90 0.2048324
907.00 0.2047613
907.10 0.2046902
907.20 0.2046192
907.30 0.2045482
907.40 0.2044772
907.50 0.2044062
907.60 0.2043353
907.70 0.2042644
907.80 0.2041935
907.90 0.2041226
908.00 0.2040518
908.10 0.203981
908.20 0.2039102
908.30 0.2038395
908.40 0.2037687
908.50 0.203698
908.60 0.2036274
908.70 0.2035567
908.80 0.2034861
908.90 0.2034155
909.00 0.2033449
909.10 0.2032744
909.20 0.2032039
909.30 0.2031334
909.40 0.2030629
909.50 0.2029925
909.60 0.2029221
909.70 0.2028517
909.80 0.2027813
909.90 0.202711
910.00 0.2026407
910.10 0.2025704
910.20 0.2025002
910.30 0.2024299
910.40 0.2023597
910.50 0.2022895
910.60 0.2022194
910.70 0.2021493
910.80 0.2020807
910.90 0.2020121
911.00 0.2019436
911.10 0.2018751
911.20 0.2018066
911.30 0.2017381
911.40 0.2016697
911.50 0.2016013
911.60 0.2015329
911.70 0.2014645
911.80 0.2013962
911.90 0.2013279
912.00 0.2012596
912.10 0.2011913
912.20 0.2011231
912.30 0.2010549
912.40 0.2009867
912.50 0.2009186
912.60 0.2008504
912.70 0.2007823
912.80 0.2007142
912.90 0.2006462
913.00 0.2005781
913.10 0.2005101
913.20 0.2004421
913.30 0.2003742
913.40 0.2003062
913.50 0.2002383
913.60 0.2001704
913.70 0.2001026
913.80 0.2000347
913.90 0.1999669
914.00 0.1998991
914.10 0.1998314
914.20 0.1997637
914.30 0.1996959
914.40 0.1996283
914.50 0.1995606
914.60 0.199493
914.70 0.1994253
914.80 0.1993578
914.90 0.1992902
915.00 0.1992227
915.10 0.1991551
915.20 0.1990877
915.30 0.1990204
915.40 0.1989532
915.50 0.198886
915.60 0.1988188
915.70 0.1987517
915.80 0.1986846
915.90 0.1986175
916.00 0.1985505
916.10 0.1984834
916.20 0.1984164
916.30 0.1983494
916.40 0.1982825
916.50 0.1982155
916.60 0.1981486
916.70 0.1980818
916.80 0.1980149
916.90 0.1979481
917.00 0.1978813
917.10 0.1978145
917.20 0.1977477
917.30 0.197681
917.40 0.1976143
917.50 0.1975476
917.60 0.1974809
917.70 0.1974143
917.80 0.1973476
917.90 0.1972811
918.00 0.1972145
918.10 0.1971479
918.20 0.1970814
918.30 0.1970149
918.40 0.1969485
918.50 0.196882
918.60 0.1968156
918.70 0.1967492
918.80 0.1966828
918.90 0.1966165
919.00 0.1965502
919.10 0.1964839
919.20 0.1964176
919.30 0.1963513
919.40 0.1962851
919.50 0.1962189
919.60 0.1961527
919.70 0.1960866
919.80 0.1960204
919.90 0.1959543
920.00 0.1958882
920.10 0.1958222
920.20 0.1957562
920.30 0.1956901
920.40 0.1956242
920.50 0.1955582
920.60 0.1954923
920.70 0.1954263
920.80 0.1953605
920.90 0.1952946
921.00 0.1952287
921.10 0.1951629
921.20 0.1950971
921.30 0.1950314
921.40 0.1949656
921.50 0.1948999
921.60 0.1948342
921.70 0.1947685
921.80 0.1947029
921.90 0.1946372
922.00 0.1945716
922.10 0.1945061
922.20 0.1944405
922.30 0.194375
922.40 0.1943095
922.50 0.194244
922.60 0.1941785
922.70 0.1941131
922.80 0.1940477
922.90 0.1939823
923.00 0.1939169
923.10 0.1938516
923.20 0.1937863
923.30 0.193721
923.40 0.1936557
923.50 0.1935905
923.60 0.1935252
923.70 0.19346
923.80 0.1933949
923.90 0.1933297
924.00 0.1932646
924.10 0.1931995
924.20 0.1931344
924.30 0.1930694
924.40 0.1930044
924.50 0.1929396
924.60 0.1928748
924.70 0.1928101
924.80 0.1927454
924.90 0.1926807
925.00 0.1926161
925.10 0.1925514
925.20 0.1924868
925.30 0.1924222
925.40 0.1923577
925.50 0.1922931
925.60 0.1922286
925.70 0.1921641
925.80 0.1920996
925.90 0.1920352
926.00 0.1919707
926.10 0.1919063
926.20 0.191842
926.30 0.1917776
926.40 0.1917133
926.50 0.191649
926.60 0.1915847
926.70 0.1915204
926.80 0.1914562
926.90 0.191392
927.00 0.1913278
927.10 0.1912636
927.20 0.1911995
927.30 0.1911353
927.40 0.1910712
927.50 0.1910072
927.60 0.1909431
927.70 0.1908791
927.80 0.1908151
927.90 0.1907511
928.00 0.1906871
928.10 0.1906232
928.20 0.1905593
928.30 0.1904954
928.40 0.1904315
928.50 0.1903677
928.60 0.1903038
928.70 0.19024
928.80 0.1901763
928.90 0.1901125
929.00 0.1900488
929.10 0.1899837
929.20 0.1899186
929.30 0.1898535
929.40 0.1897885
929.50 0.1897234
929.60 0.1896584
929.70 0.1895934
929.80 0.1895284
929.90 0.1894635
930.00 0.1893986
930.10 0.1893337
930.20 0.1892688
930.30 0.189204
930.40 0.1891391
930.50 0.1890743
930.60 0.1890096
930.70 0.1889448
930.80 0.1888801
930.90 0.1888154
931.00 0.1887507
931.10 0.188686
931.20 0.1886214
931.30 0.1885568
931.40 0.1884922
931.50 0.1884276
931.60 0.1883631
931.70 0.1882985
931.80 0.188234
931.90 0.1881696
932.00 0.1881051
932.10 0.1880407
932.20 0.1879763
932.30 0.1879119
932.40 0.1878475
932.50 0.1877832
932.60 0.1877189
932.70 0.1876546
932.80 0.1875903
932.90 0.1875261
933.00 0.1874619
933.10 0.1873977
933.20 0.1873335
933.30 0.1872694
933.40 0.1872052
933.50 0.1871411
933.60 0.1870771
933.70 0.1870142
933.80 0.1869518
933.90 0.1868894
934.00 0.1868271
934.10 0.1867648
934.20 0.1867024
934.30 0.1866402
934.40 0.1865779
934.50 0.1865156
934.60 0.1864534
934.70 0.1863912
934.80 0.1863291
934.90 0.1862669
935.00 0.1862048
935.10 0.1861427
935.20 0.1860806
935.30 0.1860185
935.40 0.1859565
935.50 0.1858944
935.60 0.1858324
935.70 0.1857705
935.80 0.1857085
935.90 0.1856466
936.00 0.1855847
936.10 0.1855228
936.20 0.1854609
936.30 0.1853991
936.40 0.1853373
936.50 0.1852755
936.60 0.1852137
936.70 0.1851519
936.80 0.1850902
936.90 0.1850285
937.00 0.1849668
937.10 0.1849052
937.20 0.1848435
937.30 0.1847819
937.40 0.1847203
937.50 0.1846587
937.60 0.1845972
937.70 0.1845356
937.80 0.1844741
937.90 0.1844126
938.00 0.1843512
938.10 0.1842897
938.20 0.1842283
938.30 0.1841669
938.40 0.1841055
938.50 0.1840442
938.60 0.1839828
938.70 0.1839215
938.80 0.1838602
938.90 0.183799
939.00 0.1837377
939.10 0.1836765
939.20 0.1836153
939.30 0.1835541
939.40 0.1834929
939.50 0.1834318
939.60 0.1833707
939.70 0.1833096
939.80 0.1832485
939.90 0.1831875
940.00 0.1831264
940.10 0.1830654
940.20 0.1830045
940.30 0.1829435
940.40 0.1828826
940.50 0.1828216
940.60 0.1827607
940.70 0.1826999
940.80 0.182639
940.90 0.1825782
941.00 0.1825174
941.10 0.1824566
941.20 0.1823958
941.30 0.1823351
941.40 0.1822743
941.50 0.1822136
941.60 0.182153
941.70 0.1820923
941.80 0.1820317
941.90 0.1819711
942.00 0.1819105
942.10 0.1818499
942.20 0.1817893
942.30 0.1817288
942.40 0.1816683
942.50 0.1816078
942.60 0.1815474
942.70 0.1814869
942.80 0.1814265
942.90 0.1813661
943.00 0.1813058
943.10 0.1812457
943.20 0.1811855
943.30 0.1811255
943.40 0.1810654
943.50 0.1810053
943.60 0.1809453
943.70 0.1808853
943.80 0.1808253
943.90 0.1807653
944.00 0.1807054
944.10 0.1806455
944.20 0.1805856
944.30 0.1805257
944.40 0.1804658
944.50 0.180406
944.60 0.1803462
944.70 0.1802864
944.80 0.1802266
944.90 0.1801668
945.00 0.1801071
945.10 0.1800474
945.20 0.1799877
945.30 0.179928
945.40 0.1798684
945.50 0.1798088
945.60 0.1797492
945.70 0.1796896
945.80 0.17963
945.90 0.1795705
946.00 0.179511
946.10 0.1794515
946.20 0.179392
946.30 0.1793325
946.40 0.1792731
946.50 0.1792137
946.60 0.1791543
946.70 0.1790949
946.80 0.1790356
946.90 0.1789762
947.00 0.1789169
947.10 0.1788576
947.20 0.1787984
947.30 0.1787391
947.40 0.1786799
947.50 0.1786207
947.60 0.1785615
947.70 0.1785023
947.80 0.1784432
947.90 0.1783841
948.00 0.178325
948.10 0.1782659
948.20 0.1782069
948.30 0.1781478
948.40 0.1780888
948.50 0.1780298
948.60 0.1779708
948.70 0.1779119
948.80 0.177853
948.90 0.177794
949.00 0.1777352
949.10 0.1776763
949.20 0.1776174
949.30 0.1775586
949.40 0.1774998
949.50 0.177441
949.60 0.1773823
949.70 0.1773235
949.80 0.1772648
949.90 0.1772061
950.00 0.1771474
950.10 0.1770887
950.20 0.1770301
950.30 0.1769715
950.40 0.1769129
950.50 0.1768543
950.60 0.1767958
950.70 0.1767372
950.80 0.1766787
950.90 0.1766202
951.00 0.1765617
951.10 0.1765033
951.20 0.1764448
951.30 0.1763864
951.40 0.176328
951.50 0.1762697
951.60 0.1762113
951.70 0.176153
951.80 0.1760947
951.90 0.1760364
952.00 0.1759781
952.10 0.1759199
952.20 0.1758617
952.30 0.1758035
952.40 0.1757453
952.50 0.1756873
952.60 0.1756294
952.70 0.1755715
952.80 0.1755136
952.90 0.1754557
953.00 0.1753979
953.10 0.17534
953.20 0.1752822
953.30 0.1752244
953.40 0.1751667
953.50 0.1751089
953.60 0.1750512
953.70 0.1749935
953.80 0.1749358
953.90 0.1748781
954.00 0.1748205
954.10 0.1747628
954.20 0.1747052
954.30 0.1746476
954.40 0.1745901
954.50 0.1745325
954.60 0.174475
954.70 0.1744175
954.80 0.17436
954.90 0.1743025
955.00 0.1742451
955.10 0.1741877
955.20 0.1741303
955.30 0.1740729
955.40 0.1740155
955.50 0.1739582
955.60 0.1739008
955.70 0.1738435
955.80 0.1737863
955.90 0.173729
956.00 0.1736717
956.10 0.1736145
956.20 0.1735573
956.30 0.1735001
956.40 0.173443
956.50 0.1733858
956.60 0.1733287
956.70 0.1732716
956.80 0.1732145
956.90 0.1731575
957.00 0.1731004
957.10 0.1730434
957.20 0.1729864
957.30 0.1729294
957.40 0.1728724
957.50 0.1728155
957.60 0.1727586
957.70 0.1727017
957.80 0.1726448
957.90 0.1725879
958.00 0.1725311
958.10 0.1724743
958.20 0.1724175
958.30 0.1723607
958.40 0.1723039
958.50 0.1722472
958.60 0.1721904
958.70 0.1721337
958.80 0.1720771
958.90 0.1720204
959.00 0.1719638
959.10 0.1719071
959.20 0.1718505
959.30 0.1717939
959.40 0.1717374
959.50 0.1716808
959.60 0.1716243
959.70 0.1715678
959.80 0.1715113
959.90 0.1714549
960.00 0.1713984
960.10 0.171342
960.20 0.1712856
960.30 0.1712292
960.40 0.1711728
960.50 0.1711165
960.60 0.1710602
960.70 0.1710039
960.80 0.1709476
960.90 0.1708913
961.00 0.1708351
961.10 0.1707788
961.20 0.1707226
961.30 0.1706664
961.40 0.1706103
961.50 0.1705541
961.60 0.170498
961.70 0.1704419
961.80 0.1703858
961.90 0.1703297
962.00 0.1702738
962.10 0.170218
962.20 0.1701622
962.30 0.1701064
962.40 0.1700506
962.50 0.1699949
962.60 0.1699392
962.70 0.1698835
962.80 0.1698278
962.90 0.1697721
963.00 0.1697164
963.10 0.1696608
963.20 0.1696052
963.30 0.1695496
963.40 0.169494
963.50 0.1694385
963.60 0.1693829
963.70 0.1693274
963.80 0.1692719
963.90 0.1692164
964.00 0.169161
964.10 0.1691055
964.20 0.1690501
964.30 0.1689947
964.40 0.1689393
964.50 0.168884
964.60 0.1688286
964.70 0.1687733
964.80 0.168718
964.90 0.1686627
965.00 0.1686075
965.10 0.1685522
965.20 0.168497
965.30 0.1684418
965.40 0.1683866
965.50 0.1683314
965.60 0.1682763
965.70 0.1682212
965.80 0.1681661
965.90 0.168111
966.00 0.1680559
966.10 0.1680008
966.20 0.1679458
966.30 0.1678908
966.40 0.1678358
966.50 0.1677808
966.60 0.1677259
966.70 0.1676709
966.80 0.167616
966.90 0.1675611
967.00 0.1675062
967.10 0.1674514
967.20 0.1673965
967.30 0.1673417
967.40 0.1672869
967.50 0.1672321
967.60 0.1671773
967.70 0.1671226
967.80 0.1670679
967.90 0.1670132
968.00 0.1669585
968.10 0.1669038
968.20 0.1668491
968.30 0.1667945
968.40 0.1667399
968.50 0.1666853
968.60 0.1666307
968.70 0.1665762
968.80 0.1665216
968.90 0.1664671
969.00 0.1664126
969.10 0.1663581
969.20 0.1663037
969.30 0.1662492
969.40 0.1661948
969.50 0.1661404
969.60 0.166086
969.70 0.1660317
969.80 0.1659773
969.90 0.165923
970.00 0.1658687
970.10 0.1658144
970.20 0.1657601
970.30 0.1657058
970.40 0.1656516
970.50 0.1655974
970.60 0.1655432
970.70 0.165489
970.80 0.1654349
970.90 0.1653807
971.00 0.1653266
971.10 0.1652725
971.20 0.1652184
971.30 0.1651643
971.40 0.1651103
971.50 0.1650563
971.60 0.1650024
971.70 0.1649486
971.80 0.1648948
971.90 0.1648411
972.00 0.1647873
972.10 0.1647336
972.20 0.1646799
972.30 0.1646262
972.40 0.1645726
972.50 0.1645189
972.60 0.1644653
972.70 0.1644117
972.80 0.1643581
972.90 0.1643045
973.00 0.164251
973.10 0.1641974
973.20 0.1641439
973.30 0.1640904
973.40 0.164037
973.50 0.1639835
973.60 0.1639301
973.70 0.1638766
973.80 0.1638232
973.90 0.1637699
974.00 0.1637165
974.10 0.1636631
974.20 0.1636098
974.30 0.1635565
974.40 0.1635032
974.50 0.1634499
974.60 0.1633967
974.70 0.1633434
974.80 0.1632902
974.90 0.163237
975.00 0.1631838
975.10 0.1631307
975.20 0.1630775
975.30 0.1630244
975.40 0.1629713
975.50 0.1629182
975.60 0.1628651
975.70 0.1628121
975.80 0.162759
975.90 0.162706
976.00 0.162653
976.10 0.1626
976.20 0.1625471
976.30 0.1624941
976.40 0.1624412
976.50 0.1623883
976.60 0.1623354
976.70 0.1622826
976.80 0.1622297
976.90 0.1621769
977.00 0.162124
977.10 0.1620713
977.20 0.1620185
977.30 0.1619657
977.40 0.161913
977.50 0.1618602
977.60 0.1618075
977.70 0.1617548
977.80 0.1617022
977.90 0.1616495
978.00 0.1615969
978.10 0.1615443
978.20 0.1614917
978.30 0.1614391
978.40 0.1613865
978.50 0.161334
978.60 0.1612815
978.70 0.161229
978.80 0.1611765
978.90 0.161124
979.00 0.1610715
979.10 0.1610191
979.20 0.1609667
979.30 0.1609143
979.40 0.1608619
979.50 0.1608096
979.60 0.1607572
979.70 0.1607049
979.80 0.1606526
979.90 0.1606003
980.00 0.160548
980.10 0.1604958
980.20 0.1604435
980.30 0.1603913
980.40 0.1603391
980.50 0.1602869
980.60 0.1602348
980.70 0.1601826
980.80 0.1601305
980.90 0.1600784
981.00 0.1600263
981.10 0.1599742
981.20 0.1599221
981.30 0.1598702
981.40 0.1598184
981.50 0.1597666
981.60 0.1597148
981.70 0.159663
981.80 0.1596112
981.90 0.1595595
982.00 0.1595078
982.10 0.1594561
982.20 0.1594044
982.30 0.1593527
982.40 0.1593011
982.50 0.1592494
982.60 0.1591978
982.70 0.1591462
982.80 0.1590947
982.90 0.1590431
983.00 0.1589916
983.10 0.15894
983.20 0.1588885
983.30 0.158837
983.40 0.1587856
983.50 0.1587341
983.60 0.1586827
983.70 0.1586312
983.80 0.1585798
983.90 0.1585285
984.00 0.1584771
984.10 0.1584257
984.20 0.1583744
984.30 0.1583231
984.40 0.1582718
984.50 0.1582205
984.60 0.1581693
984.70 0.158118
984.80 0.1580668
984.90 0.1580156
985.00 0.1579644
985.10 0.1579132
985.20 0.1578621
985.30 0.1578109
985.40 0.1577598
985.50 0.1577087
985.60 0.1576576
985.70 0.1576065
985.80 0.1575555
985.90 0.1575045
986.00 0.1574534
986.10 0.1574024
986.20 0.1573515
986.30 0.1573005
986.40 0.1572496
986.50 0.1571986
986.60 0.1571477
986.70 0.1570968
986.80 0.1570459
986.90 0.1569951
987.00 0.1569442
987.10 0.1568934
987.20 0.1568426
987.30 0.1567918
987.40 0.156741
987.50 0.1566903
987.60 0.1566396
987.70 0.1565888
987.80 0.1565381
987.90 0.1564874
988.00 0.1564368
988.10 0.1563861
988.20 0.1563355
988.30 0.1562849
988.40 0.1562343
988.50 0.1561837
988.60 0.1561331
988.70 0.1560826
988.80 0.156032
988.90 0.1559815
989.00 0.155931
989.10 0.1558806
989.20 0.1558301
989.30 0.1557797
989.40 0.1557292
989.50 0.1556788
989.60 0.1556284
989.70 0.1555781
989.80 0.1555277
989.90 0.1554774
990.00 0.155427
990.10 0.1553767
990.20 0.1553264
990.30 0.1552762
990.40 0.1552259
990.50 0.1551757
990.60 0.1551254
990.70 0.1550752
990.80 0.1550251
990.90 0.1549749
991.00 0.1549247
991.10 0.1548747
991.20 0.1548247
991.30 0.1547748
991.40 0.1547249
991.50 0.154675
991.60 0.1546252
991.70 0.1545753
991.80 0.1545255
991.90 0.1544757
992.00 0.1544259
992.10 0.1543761
992.20 0.1543263
992.30 0.1542766
992.40 0.1542268
992.50 0.1541771
992.60 0.1541274
992.70 0.1540778
992.80 0.1540281
992.90 0.1539785
993.00 0.1539288
993.10 0.1538792
993.20 0.1538296
993.30 0.15378
993.40 0.1537305
993.50 0.1536809
993.60 0.1536314
993.70 0.1535819
993.80 0.1535324
993.90 0.1534829
994.00 0.1534335
994.10 0.153384
994.20 0.1533346
994.30 0.1532852
994.40 0.1532358
994.50 0.1531864
994.60 0.153137
994.70 0.1530877
994.80 0.1530384
994.90 0.1529891
995.00 0.1529398
995.10 0.1528905
995.20 0.1528412
995.30 0.152792
995.40 0.1527428
995.50 0.1526936
995.60 0.1526444
995.70 0.1525952
995.80 0.152546
995.90 0.1524969
996.00 0.1524478
996.10 0.1523987
996.20 0.1523496
996.30 0.1523005
996.40 0.1522514
996.50 0.1522024
996.60 0.1521534
996.70 0.1521044
996.80 0.1520554
996.90 0.1520064
997.00 0.1519575
997.10 0.1519085
997.20 0.1518596
997.30 0.1518107
997.40 0.1517618
997.50 0.1517129
997.60 0.1516641
997.70 0.1516152
997.80 0.1515664
997.90 0.1515176
998.00 0.1514688
998.10 0.15142
998.20 0.1513713
998.30 0.1513225
998.40 0.1512738
998.50 0.1512251
998.60 0.1511764
998.70 0.1511277
998.80 0.1510791
998.90 0.1510304
999.00 0.1509818
999.10 0.1509332
999.20 0.1508846
999.30 0.150836
999.40 0.1507875
999.50 0.1507389
999.60 0.1506904
999.70 0.1506419
999.80 0.1505934
999.90 0.1505449
1000.00 0.1504964
1000.10 0.150448
1000.20 0.1503996
1000.30 0.1503512
1000.40 0.1503028
1000.50 0.1502544
1000.60 0.150206
1000.70 0.1501577
1000.80 0.1501093
1000.90 0.150061
1001.00 0.1500128
1001.10 0.1499647
1001.20 0.1499166
1001.30 0.1498685
1001.40 0.1498205
1001.50 0.1497724
1001.60 0.1497244
1001.70 0.1496764
1001.80 0.1496284
1001.90 0.1495804
1002.00 0.1495325
1002.10 0.1494845
1002.20 0.1494366
1002.30 0.1493887
1002.40 0.1493408
1002.50 0.1492929
1002.60 0.1492451
1002.70 0.1491972
1002.80 0.1491494
1002.90 0.1491016
1003.00 0.1490538
1003.10 0.149006
1003.20 0.1489583
1003.30 0.1489105
1003.40 0.1488628
1003.50 0.1488151
1003.60 0.1487674
1003.70 0.1487197
1003.80 0.148672
1003.90 0.1486244
1004.00 0.1485767
1004.10 0.1485291
1004.20 0.1484815
1004.30 0.1484339
1004.40 0.1483863
1004.50 0.1483388
1004.60 0.1482913
1004.70 0.1482437
1004.80 0.1481962
1004.90 0.1481487
1005.00 0.1481013
1005.10 0.1480538
1005.20 0.1480064
1005.30 0.1479589
1005.40 0.1479115
1005.50 0.1478641
1005.60 0.1478167
1005.70 0.1477694
1005.80 0.147722
1005.90 0.1476747
1006.00 0.1476274
1006.10 0.1475801
1006.20 0.1475328
1006.30 0.1474855
1006.40 0.1474383
1006.50 0.147391
1006.60 0.1473438
1006.70 0.1472966
1006.80 0.1472494
1006.90 0.1472022
1007.00 0.1471551
1007.10 0.1471079
1007.20 0.1470608
1007.30 0.1470137
1007.40 0.1469666
1007.50 0.1469195
1007.60 0.1468724
1007.70 0.1468254
1007.80 0.1467783
1007.90 0.1467313
1008.00 0.1466843
1008.10 0.1466373
1008.20 0.1465904
1008.30 0.1465434
1008.40 0.1464965
1008.50 0.1464495
1008.60 0.1464026
1008.70 0.1463557
1008.80 0.1463089
1008.90 0.146262
1009.00 0.1462152
1009.10 0.1461683
1009.20 0.1461215
1009.30 0.1460747
1009.40 0.1460279
1009.50 0.1459812
1009.60 0.1459344
1009.70 0.1458877
1009.80 0.145841
1009.90 0.1457943
1010.00 0.1457476
1010.10 0.1457009
1010.20 0.1456542
1010.30 0.1456076
1010.40 0.145561
1010.50 0.1455144
1010.60 0.1454678
1010.70 0.1454212
1010.80 0.1453746
1010.90 0.1453281
1011.00 0.1452818
1011.10 0.1452365
1011.20 0.1451913
1011.30 0.1451461
1011.40 0.1451009
1011.50 0.1450557
1011.60 0.1450106
1011.70 0.1449654
1011.80 0.1449203
1011.90 0.1448752
1012.00 0.1448301
1012.10 0.144785
1012.20 0.1447399
1012.30 0.1446948
1012.40 0.1446498
1012.50 0.1446048
1012.60 0.1445598
1012.70 0.1445148
1012.80 0.1444698
1012.90 0.1444248
1013.00 0.1443799
1013.10 0.1443349
1013.20 0.14429
1013.30 0.1442451
1013.40 0.1442002
1013.50 0.1441553
1013.60 0.1441105
1013.70 0.1440656
1013.80 0.1440208
1013.90 0.143976
1014.00 0.1439311
1014.10 0.1438864
1014.20 0.1438416
1014.30 0.1437968
1014.40 0.1437521
1014.50 0.1437074
1014.60 0.1436626
1014.70 0.1436179
1014.80 0.1435733
1014.90 0.1435286
1015.00 0.1434839
1015.10 0.1434393
1015.20 0.1433947
1015.30 0.1433501
1015.40 0.1433055
1015.50 0.1432609
1015.60 0.1432163
1015.70 0.1431718
1015.80 0.1431272
1015.90 0.1430827
1016.00 0.1430382
1016.10 0.142993
1016.20 0.1429475
1016.30 0.1429019
1016.40 0.1428564
1016.50 0.1428108
1016.60 0.1427653
1016.70 0.1427198
1016.80 0.1426744
1016.90 0.1426289
1017.00 0.1425835
1017.10 0.142538
1017.20 0.1424926
1017.30 0.1424472
1017.40 0.1424018
1017.50 0.1423565
1017.60 0.1423111
1017.70 0.1422658
1017.80 0.1422204
1017.90 0.1421751
1018.00 0.1421298
1018.10 0.1420846
1018.20 0.1420393
1018.30 0.141994
1018.40 0.1419488
1018.50 0.1419036
1018.60 0.1418584
1018.70 0.1418132
1018.80 0.141768
1018.90 0.1417229
1019.00 0.1416777
1019.10 0.1416326
1019.20 0.1415875
1019.30 0.1415424
1019.40 0.1414973
1019.50 0.1414522
1019.60 0.1414072
1019.70 0.1413621
1019.80 0.1413171
1019.90 0.1412721
1020.00 0.1412271
1020.10 0.1411821
1020.20 0.1411371
1020.30 0.1410922
1020.40 0.1410473
1020.50 0.1410023
1020.60 0.1409574
1020.70 0.1409125
1020.80 0.1408677
1020.90 0.1408228
1021.00 0.140778
1021.10 0.1407331
1021.20 0.1406885
1021.30 0.1406439
1021.40 0.1405993
1021.50 0.1405547
1021.60 0.1405101
1021.70 0.1404655
1021.80 0.1404209
1021.90 0.1403764
1022.00 0.1403319
1022.10 0.1402874
1022.20 0.1402429
1022.30 0.1401984
1022.40 0.1401539
1022.50 0.1401095
1022.60 0.140065
1022.70 0.1400206
1022.80 0.1399762
1022.90 0.1399318
1023.00 0.1398874
1023.10 0.1398431
1023.20 0.1397987
1023.30 0.1397544
1023.40 0.1397101
1023.50 0.1396657
1023.60 0.1396215
1023.70 0.1395772
1023.80 0.1395329
1023.90 0.1394887
1024.00 0.1394444
1024.10 0.1394002
1024.20 0.139356
1024.30 0.1393118
1024.40 0.1392677
1024.50 0.1392235
1024.60 0.1391794
1024.70 0.1391352
1024.80 0.1390911
1024.90 0.139047
1025.00 0.1390029
1025.10 0.1389588
1025.20 0.1389148
1025.30 0.1388707
1025.40 0.1388267
1025.50 0.1387827
1025.60 0.1387387
1025.70 0.1386947
1025.80 0.1386508
1025.90 0.1386068
1026.00 0.1385629
1026.10 0.1385189
1026.20 0.138475
1026.30 0.1384311
1026.40 0.1383872
1026.50 0.1383434
1026.60 0.1382995
1026.70 0.1382557
1026.80 0.1382118
1026.90 0.138168
1027.00 0.1381242
1027.10 0.1380804
1027.20 0.1380367
1027.30 0.1379929
1027.40 0.1379492
1027.50 0.1379054
1027.60 0.1378617
1027.70 0.137818
1027.80 0.1377743
1027.90 0.1377307
1028.00 0.137687
1028.10 0.1376434
1028.20 0.1375997
1028.30 0.1375561
1028.40 0.1375125
1028.50 0.1374689
1028.60 0.1374254
1028.70 0.1373818
1028.80 0.1373383
1028.90 0.1372948
1029.00 0.1372512
1029.10 0.1372077
1029.20 0.1371643
1029.30 0.1371208
1029.40 0.1370773
1029.50 0.1370339
1029.60 0.1369905
1029.70 0.1369471
1029.80 0.1369037
1029.90 0.1368603
1030.00 0.1368169
1030.10 0.1367736
1030.20 0.1367302
1030.30 0.1366869
1030.40 0.1366436
1030.50 0.1366003
1030.60 0.136557
1030.70 0.1365137
1030.80 0.1364705
1030.90 0.1364272
1031.00 0.136384
1031.10 0.1363408
1031.20 0.1362976
1031.30 0.1362544
1031.40 0.1362124
1031.50 0.1361704
1031.60 0.1361285
1031.70 0.1360866
1031.80 0.1360447
1031.90 0.1360028
1032.00 0.1359609
1032.10 0.135919
1032.20 0.1358772
1032.30 0.1358353
1032.40 0.1357935
1032.50 0.1357517
1032.60 0.1357099
1032.70 0.1356681
1032.80 0.1356263
1032.90 0.1355846
1033.00 0.1355428
1033.10 0.1355011
1033.20 0.1354594
1033.30 0.1354177
1033.40 0.135376
1033.50 0.1353343
1033.60 0.1352926
1033.70 0.135251
1033.80 0.1352093
1033.90 0.1351677
1034.00 0.1351261
1034.10 0.1350845
1034.20 0.1350429
1034.30 0.1350014
1034.40 0.1349598
1034.50 0.1349183
1034.60 0.1348767
1034.70 0.1348352
1034.80 0.1347937
1034.90 0.1347522
1035.00 0.1347107
1035.10 0.1346693
1035.20 0.1346278
1035.30 0.1345864
1035.40 0.134545
1035.50 0.1345036
1035.60 0.1344622
1035.70 0.1344208
1035.80 0.1343794
1035.90 0.1343381
1036.00 0.1342967
1036.10 0.1342554
1036.20 0.1342141
1036.30 0.1341728
1036.40 0.1341315
1036.50 0.1340898
1036.60 0.1340475
1036.70 0.1340053
1036.80 0.133963
1036.90 0.1339208
1037.00 0.1338785
1037.10 0.1338363
1037.20 0.1337941
1037.30 0.1337519
1037.40 0.1337097
1037.50 0.1336676
1037.60 0.1336254
1037.70 0.1335833
1037.80 0.1335412
1037.90 0.1334991
1038.00 0.133457
1038.10 0.1334149
1038.20 0.1333728
1038.30 0.1333308
1038.40 0.1332887
1038.50 0.1332467
1038.60 0.1332047
1038.70 0.1331627
1038.80 0.1331207
1038.90 0.1330787
1039.00 0.1330368
1039.10 0.1329948
1039.20 0.1329529
1039.30 0.132911
1039.40 0.1328691
1039.50 0.1328272
1039.60 0.1327853
1039.70 0.1327434
1039.80 0.1327016
1039.90 0.1326598
1040.00 0.1326179
1040.10 0.1325761
1040.20 0.1325343
1040.30 0.1324925
1040.40 0.1324508
1040.50 0.132409
1040.60 0.1323673
1040.70 0.1323256
1040.80 0.1322839
1040.90 0.1322422
1041.00 0.1322005
1041.10 0.1321588
1041.20 0.1321171
1041.30 0.1320755
1041.40 0.1320339
1041.50 0.1319922
1041.60 0.1319506
1041.70 0.13191
1041.80 0.1318696
1041.90 0.1318292
1042.00 0.1317888
1042.10 0.1317485
1042.20 0.1317081
1042.30 0.1316678
1042.40 0.1316274
1042.50 0.1315871
1042.60 0.1315468
1042.70 0.1315065
1042.80 0.1314662
1042.90 0.131426
1043.00 0.1313857
1043.10 0.1313455
1043.20 0.1313053
1043.30 0.131265
1043.40 0.1312248
1043.50 0.1311846
1043.60 0.1311445
1043.70 0.1311043
1043.80 0.1310642
1043.90 0.131024
1044.00 0.1309839
1044.10 0.1309438
1044.20 0.1309037
1044.30 0.1308636
1044.40 0.1308235
1044.50 0.1307835
1044.60 0.1307434
1044.70 0.1307034
1044.80 0.1306634
1044.90 0.1306234
1045.00 0.1305834
1045.10 0.1305434
1045.20 0.1305034
1045.30 0.1304635
1045.40 0.1304235
1045.50 0.1303836
1045.60 0.1303437
1045.70 0.1303038
1045.80 0.1302639
1045.90 0.130224
1046.00 0.1301842
1046.10 0.1301443
1046.20 0.1301045
1046.30 0.1300647
1046.40 0.1300248
1046.50 0.129985
1046.60 0.1299453
1046.70 0.1299055
1046.80 0.1298657
1046.90 0.1298252
1047.00 0.1297845
1047.10 0.1297438
1047.20 0.1297031
1047.30 0.1296624
1047.40 0.1296217
1047.50 0.129581
1047.60 0.1295404
1047.70 0.1294997
1047.80 0.1294591
1047.90 0.1294185
1048.00 0.1293779
1048.10 0.1293373
1048.20 0.1292967
1048.30 0.1292562
1048.40 0.1292156
1048.50 0.1291751
1048.60 0.1291346
1048.70 0.1290941
1048.80 0.1290536
1048.90 0.1290131
1049.00 0.1289726
1049.10 0.1289322
1049.20 0.1288917
1049.30 0.1288513
1049.40 0.1288109
1049.50 0.1287705
1049.60 0.1287301
1049.70 0.1286897
1049.80 0.1286493
1049.90 0.128609
1050.00 0.1285687
1050.10 0.1285283
1050.20 0.128488
1050.30 0.1284477
1050.40 0.1284074
1050.50 0.1283672
1050.60 0.1283269
1050.70 0.1282867
1050.80 0.1282464
1050.90 0.1282062
1051.00 0.128166
1051.10 0.1281258
1051.20 0.1280856
1051.30 0.1280454
1051.40 0.1280053
1051.50 0.1279651
1051.60 0.127925
1051.70 0.1278849
1051.80 0.1278448
1051.90 0.1278047
1052.00 0.1277646
1052.10 0.127725
1052.20 0.1276856
1052.30 0.1276462
1052.40 0.1276068
1052.50 0.1275674
1052.60 0.1275281
1052.70 0.1274887
1052.80 0.1274494
1052.90 0.1274101
1053.00 0.1273708
1053.10 0.1273315
1053.20 0.1272922
1053.30 0.1272529
1053.40 0.1272137
1053.50 0.1271744
1053.60 0.1271352
1053.70 0.127096
1053.80 0.1270568
1053.90 0.1270176
1054.00 0.1269784
1054.10 0.1269392
1054.20 0.1269001
1054.30 0.126861
1054.40 0.1268218
1054.50 0.1267827
1054.60 0.1267436
1054.70 0.1267045
1054.80 0.1266654
1054.90 0.1266264
1055.00 0.1265873
1055.10 0.1265483
1055.20 0.1265092
1055.30 0.1264702
1055.40 0.1264312
1055.50 0.1263922
1055.60 0.1263532
1055.70 0.1263143
1055.80 0.1262753
1055.90 0.1262364
1056.00 0.1261975
1056.10 0.1261585
1056.20 0.1261196
1056.30 0.1260807
1056.40 0.1260419
1056.50 0.126003
1056.60 0.1259641
1056.70 0.1259253
1056.80 0.1258865
1056.90 0.1258477
1057.00 0.1258088
1057.10 0.1257701
1057.20 0.1257313
1057.30 0.1256925
1057.40 0.1256538
1057.50 0.125615
1057.60 0.1255763
1057.70 0.1255376
1057.80 0.1254989
1057.90 0.1254602
1058.00 0.1254215
1058.10 0.1253828
1058.20 0.1253442
1058.30 0.1253055
1058.40 0.1252669
1058.50 0.1252283
1058.60 0.1251897
1058.70 0.1251511
1058.80 0.1251125
1058.90 0.1250739
1059.00 0.1250354
1059.10 0.1249968
1059.20 0.1249583
1059.30 0.1249198
1059.40 0.1248813
1059.50 0.1248428
1059.60 0.1248043
1059.70 0.1247658
1059.80 0.1247273
1059.90 0.1246889
1060.00 0.1246505
1060.10 0.124612
1060.20 0.1245736
1060.30 0.1245352
1060.40 0.1244969
1060.50 0.1244585
1060.60 0.1244201
1060.70 0.1243818
1060.80 0.1243434
1060.90 0.1243051
1061.00 0.1242668
1061.10 0.1242285
1061.20 0.1241902
1061.30 0.1241519
1061.40 0.1241137
1061.50 0.1240754
1061.60 0.1240372
1061.70 0.123999
1061.80 0.1239608
1061.90 0.1239226
1062.00 0.1238844
1062.10 0.1238462
1062.20 0.123808
1062.30 0.1237699
1062.40 0.1237317
1062.50 0.1236936
1062.60 0.1236558
1062.70 0.1236183
1062.80 0.1235808
1062.90 0.1235434
1063.00 0.1235059
1063.10 0.1234685
1063.20 0.123431
1063.30 0.1233936
1063.40 0.1233562
1063.50 0.1233188
1063.60 0.1232815
1063.70 0.1232441
1063.80 0.1232068
1063.90 0.1231694
1064.00 0.1231321
1064.10 0.1230948
1064.20 0.1230575
1064.30 0.1230202
1064.40 0.1229829
1064.50 0.1229456
1064.60 0.1229084
1064.70 0.1228711
1064.80 0.1228339
1064.90 0.1227967
1065.00 0.1227594
1065.10 0.1227222
1065.20 0.1226851
1065.30 0.1226479
1065.40 0.1226107
1065.50 0.1225736
1065.60 0.1225364
1065.70 0.1224993
1065.80 0.1224622
1065.90 0.1224251
1066.00 0.122388
1066.10 0.1223509
1066.20 0.1223138
1066.30 0.1222768
1066.40 0.1222397
1066.50 0.1222027
1066.60 0.1221657
1066.70 0.1221287
1066.80 0.1220917
1066.90 0.1220547
1067.00 0.1220177
1067.10 0.1219807
1067.20 0.1219438
1067.30 0.1219068
1067.40 0.1218699
1067.50 0.121833
1067.60 0.1217961
1067.70 0.1217592
1067.80 0.1217223
1067.90 0.1216851
1068.00 0.1216473
1068.10 0.1216095
1068.20 0.1215718
1068.30 0.121534
1068.40 0.1214963
1068.50 0.1214585
1068.60 0.1214208
1068.70 0.1213831
1068.80 0.1213454
1068.90 0.1213077
1069.00 0.12127
1069.10 0.1212323
1069.20 0.1211947
1069.30 0.121157
1069.40 0.1211194
1069.50 0.1210818
1069.60 0.1210442
1069.70 0.1210066
1069.80 0.120969
1069.90 0.1209314
1070.00 0.1208939
1070.10 0.1208563
1070.20 0.1208188
1070.30 0.1207813
1070.40 0.1207437
1070.50 0.1207062
1070.60 0.1206688
1070.70 0.1206313
1070.80 0.1205938
1070.90 0.1205564
1071.00 0.1205189
1071.10 0.1204815
1071.20 0.1204441
1071.30 0.1204067
1071.40 0.1203693
1071.50 0.1203319
1071.60 0.1202945
1071.70 0.1202572
1071.80 0.1202198
1071.90 0.1201825
1072.00 0.1201452
1072.10 0.1201079
1072.20 0.1200706
1072.30 0.1200333
1072.40 0.119996
1072.50 0.1199587
1072.60 0.1199215
1072.70 0.1198842
1072.80 0.119847
1072.90 0.1198098
1073.00 0.1197726
1073.10 0.1197354
1073.20 0.1196984
1073.30 0.1196623
1073.40 0.1196263
1073.50 0.1195902
1073.60 0.1195541
1073.70 0.1195181
1073.80 0.119482
1073.90 0.119446
1074.00 0.11941
1074.10 0.119374
1074.20 0.119338
1074.30 0.119302
1074.40 0.119266
1074.50 0.11923
1074.60 0.1191941
1074.70 0.1191581
1074.80 0.1191222
1074.90 0.1190863
1075.00 0.1190504
1075.10 0.1190145
1075.20 0.1189786
1075.30 0.1189427
1075.40 0.1189069
1075.50 0.118871
1075.60 0.1188352
1075.70 0.1187994
1075.80 0.1187635
1075.90 0.1187277
1076.00 0.1186919
1076.10 0.1186562
1076.20 0.1186204
1076.30 0.1185846
1076.40 0.1185489
1076.50 0.1185131
1076.60 0.1184774
1076.70 0.1184417
1076.80 0.118406
1076.90 0.1183703
1077.00 0.1183346
1077.10 0.118299
1077.20 0.1182633
1077.30 0.1182276
1077.40 0.118192
1077.50 0.1181564
1077.60 0.1181208
1077.70 0.1180852
1077.80 0.1180496
1077.90 0.118014
1078.00 0.1179784
1078.10 0.1179429
1078.20 0.1179073
1078.30 0.1178718
1078.40 0.1178363
1078.50 0.1178007
1078.60 0.1177652
1078.70 0.1177297
1078.80 0.1176943
1078.90 0.1176588
1079.00 0.1176233
1079.10 0.1175879
1079.20 0.1175525
1079.30 0.117517
1079.40 0.1174816
1079.50 0.1174462
1079.60 0.1174108
1079.70 0.1173754
1079.80 0.1173401
1079.90 0.1173047
1080.00 0.1172694
1080.10 0.117234
1080.20 0.1171987
1080.30 0.1171634
1080.40 0.1171281
1080.50 0.1170928
1080.60 0.1170575
1080.70 0.1170222
1080.80 0.116987
1080.90 0.1169517
1081.00 0.1169165
1081.10 0.1168813
1081.20 0.1168461
1081.30 0.1168109
1081.40 0.1167757
1081.50 0.1167405
1081.60 0.1167053
1081.70 0.1166702
1081.80 0.116635
1081.90 0.1165999
1082.00 0.1165647
1082.10 0.1165296
1082.20 0.1164945
1082.30 0.1164594
1082.40 0.1164243
1082.50 0.1163893
1082.60 0.1163542
1082.70 0.1163192
1082.80 0.1162841
1082.90 0.1162491
1083.00 0.1162141
1083.10 0.1161791
1083.20 0.1161441
1083.30 0.1161091
1083.40 0.1160741
1083.50 0.1160392
1083.60 0.1160042
1083.70 0.1159693
1083.80 0.1159343
1083.90 0.1158994
1084.00 0.1158638
1084.10 0.1158282
1084.20 0.1157925
1084.30 0.1157569
1084.40 0.1157213
1084.50 0.1156857
1084.60 0.1156501
1084.70 0.1156145
1084.80 0.1155789
1084.90 0.1155434
1085.00 0.1155078
1085.10 0.1154723
1085.20 0.1154367
1085.30 0.1154012
1085.40 0.1153657
1085.50 0.1153302
1085.60 0.1152947
1085.70 0.1152592
1085.80 0.1152238
1085.90 0.1151883
1086.00 0.1151529
1086.10 0.1151174
1086.20 0.115082
1086.30 0.1150466
1086.40 0.1150112
1086.50 0.1149758
1086.60 0.1149405
1086.70 0.1149051
1086.80 0.1148697
1086.90 0.1148344
1087.00 0.1147991
1087.10 0.1147637
1087.20 0.1147284
1087.30 0.1146931
1087.40 0.1146578
1087.50 0.1146226
1087.60 0.1145873
1087.70 0.114552
1087.80 0.1145168
1087.90 0.1144816
1088.00 0.1144464
1088.10 0.1144111
1088.20 0.1143759
1088.30 0.1143408
1088.40 0.1143056
1088.50 0.1142704
1088.60 0.1142353
1088.70 0.1142001
1088.80 0.114165
1088.90 0.1141299
1089.00 0.1140947
1089.10 0.1140596
1089.20 0.1140246
1089.30 0.1139895
1089.40 0.113955
1089.50 0.1139208
1089.60 0.1138867
1089.70 0.1138525
1089.80 0.1138184
1089.90 0.1137842
1090.00 0.1137501
1090.10 0.113716
1090.20 0.1136819
1090.30 0.1136478
1090.40 0.1136137
1090.50 0.1135797
1090.60 0.1135456
1090.70 0.1135116
1090.80 0.1134775
1090.90 0.1134435
1091.00 0.1134095
1091.10 0.1133755
1091.20 0.1133415
1091.30 0.1133075
1091.40 0.1132735
1091.50 0.1132396
1091.60 0.1132056
1091.70 0.1131717
1091.80 0.1131377
1091.90 0.1131038
1092.00 0.1130699
1092.10 0.113036
1092.20 0.1130021
1092.30 0.1129682
1092.40 0.1129344
1092.50 0.1129005
1092.60 0.1128667
1092.70 0.1128328
1092.80 0.112799
1092.90 0.1127652
1093.00 0.1127314
1093.10 0.1126976
1093.20 0.1126638
1093.30 0.11263
1093.40 0.1125962
1093.50 0.1125625
1093.60 0.1125287
1093.70 0.112495
1093.80 0.1124613
1093.90 0.1124276
1094.00 0.1123939
1094.10 0.1123602
1094.20 0.1123265
1094.30 0.1122928
1094.40 0.1122592
1094.50 0.1122255
1094.60 0.1121919
1094.70 0.1121583
1094.80 0.1121247
1094.90 0.1120912
1095.00 0.1120578
1095.10 0.1120243
1095.20 0.1119909
1095.30 0.1119574
1095.40 0.111924
1095.50 0.1118906
1095.60 0.1118572
1095.70 0.1118238
1095.80 0.1117904
1095.90 0.111757
1096.00 0.1117237
1096.10 0.1116903
1096.20 0.111657
1096.30 0.1116237
1096.40 0.1115903
1096.50 0.111557
1096.60 0.1115237
1096.70 0.1114904
1096.80 0.1114572
1096.90 0.1114239
1097.00 0.1113906
1097.10 0.1113574
1097.20 0.1113241
1097.30 0.1112909
1097.40 0.1112577
1097.50 0.1112245
1097.60 0.1111913
1097.70 0.1111581
1097.80 0.1111249
1097.90 0.1110918
1098.00 0.1110586
1098.10 0.1110255
1098.20 0.1109923
1098.30 0.1109592
1098.40 0.1109261
1098.50 0.110893
1098.60 0.1108599
1098.70 0.1108268
1098.80 0.1107937
1098.90 0.1107607
1099.00 0.1107276
1099.10 0.1106946
1099.20 0.1106615
1099.30 0.1106285
1099.40 0.1105955
1099.50 0.1105625
1099.60 0.1105295
1099.70 0.1104965
1099.80 0.1104635
1099.90 0.1104306
1100.00 0.1103976
1100.10 0.1103647
1100.20 0.1103317
1100.30 0.1102988
1100.40 0.1102659
1100.50 0.110233
1100.60 0.1102001
1100.70 0.1101672
1100.80 0.1101344
1100.90 0.1101015
1101.00 0.1100687
1101.10 0.1100358
1101.20 0.110003
1101.30 0.1099702
1101.40 0.1099374
1101.50 0.1099046
1101.60 0.1098718
1101.70 0.109839
1101.80 0.1098062
1101.90 0.1097735
1102.00 0.1097407
1102.10 0.109708
1102.20 0.1096752
1102.30 0.1096425
1102.40 0.1096098
1102.50 0.1095771
1102.60 0.1095444
1102.70 0.1095117
1102.80 0.1094791
1102.90 0.1094464
1103.00 0.1094138
1103.10 0.1093811
1103.20 0.1093485
1103.30 0.1093159
1103.40 0.1092833
1103.50 0.1092507
1103.60 0.1092181
1103.70 0.1091855
1103.80 0.1091529
1103.90 0.1091204
1104.00 0.1090878
1104.10 0.1090553
1104.20 0.1090227
1104.30 0.1089902
1104.40 0.1089577
1104.50 0.1089252
1104.60 0.1088927
1104.70 0.1088602
1104.80 0.1088278
1104.90 0.1087953
1105.00 0.1087629
1105.10 0.1087304
1105.20 0.108698
1105.30 0.1086656
1105.40 0.1086332
1105.50 0.1086008
1105.60 0.1085684
1105.70 0.108536
1105.80 0.1085038
1105.90 0.1084715
1106.00 0.1084393
1106.10 0.1084071
1106.20 0.1083749
1106.30 0.1083427
1106.40 0.1083105
1106.50 0.1082783
1106.60 0.1082462
1106.70 0.108214
1106.80 0.1081819
1106.90 0.1081497
1107.00 0.1081176
1107.10 0.1080855
1107.20 0.1080534
1107.30 0.1080213
1107.40 0.1079892
1107.50 0.1079571
1107.60 0.1079251
1107.70 0.107893
1107.80 0.1078609
1107.90 0.1078289
1108.00 0.1077969
1108.10 0.1077649
1108.20 0.1077329
1108.30 0.1077009
1108.40 0.1076689
1108.50 0.1076369
1108.60 0.1076049
1108.70 0.107573
1108.80 0.107541
1108.90 0.1075091
1109.00 0.1074771
1109.10 0.1074452
1109.20 0.1074133
1109.30 0.1073814
1109.40 0.1073495
1109.50 0.1073176
1109.60 0.1072858
1109.70 0.1072539
1109.80 0.1072221
1109.90 0.1071902
1110.00 0.1071584
1110.10 0.1071266
1110.20 0.1070948
1110.30 0.1070629
1110.40 0.1070312
1110.50 0.1069994
1110.60 0.1069676
1110.70 0.1069358
1110.80 0.1069041
1110.90 0.1068723
1111.00 0.1068406
1111.10 0.1068089
1111.20 0.1067772
1111.30 0.1067455
1111.40 0.1067138
1111.50 0.1066821
1111.60 0.1066504
1111.70 0.1066187
1111.80 0.1065871
1111.90 0.1065554
1112.00 0.1065238
1112.10 0.1064922
1112.20 0.1064605
1112.30 0.1064289
1112.40 0.1063973
1112.50 0.1063657
1112.60 0.1063342
1112.70 0.1063026
1112.80 0.106271
1112.90 0.1062395
1113.00 0.1062079
1113.10 0.1061764
1113.20 0.1061449
1113.30 0.1061134
1113.40 0.1060819
1113.50 0.1060504
1113.60 0.1060189
1113.70 0.1059874
1113.80 0.1059559
1113.90 0.1059245
1114.00 0.105893
1114.10 0.1058616
1114.20 0.1058302
1114.30 0.1057988
1114.40 0.1057674
1114.50 0.105736
1114.60 0.1057046
1114.70 0.1056732
1114.80 0.1056418
1114.90 0.1056105
1115.00 0.1055791
1115.10 0.1055478
1115.20 0.1055164
1115.30 0.1054851
1115.40 0.1054538
1115.50 0.1054225
1115.60 0.1053912
1115.70 0.1053599
1115.80 0.1053286
1115.90 0.1052974
1116.00 0.1052661
1116.10 0.1052349
1116.20 0.1052036
1116.30 0.1051724
1116.40 0.1051412
1116.50 0.10511
1116.60 0.1050788
1116.70 0.1050476
1116.80 0.1050165
1116.90 0.1049854
1117.00 0.1049544
1117.10 0.1049234
1117.20 0.1048924
1117.30 0.1048613
1117.40 0.1048303
1117.50 0.1047994
1117.60 0.1047684
1117.70 0.1047374
1117.80 0.1047064
1117.90 0.1046755
1118.00 0.1046446
1118.10 0.1046136
1118.20 0.1045827
1118.30 0.1045518
1118.40 0.1045209
1118.50 0.10449
1118.60 0.1044591
1118.70 0.1044282
1118.80 0.1043973
1118.90 0.1043665
1119.00 0.1043356
1119.10 0.1043048
1119.20 0.104274
1119.30 0.1042431
1119.40 0.1042123
1119.50 0.1041815
1119.60 0.1041507
1119.70 0.10412
1119.80 0.1040892
1119.90 0.1040584
1120.00 0.1040277
1120.10 0.1039969
1120.20 0.1039662
1120.30 0.1039354
1120.40 0.1039047
1120.50 0.103874
1120.60 0.1038433
1120.70 0.1038126
1120.80 0.1037819
1120.90 0.1037513
1121.00 0.1037206
1121.10 0.10369
1121.20 0.1036593
1121.30 0.1036287
1121.40 0.1035981
1121.50 0.1035674
1121.60 0.1035368
1121.70 0.1035062
1121.80 0.1034756
1121.90 0.1034451
1122.00 0.1034145
1122.10 0.1033839
1122.20 0.1033534
1122.30 0.1033228
1122.40 0.1032923
1122.50 0.1032618
1122.60 0.1032313
1122.70 0.1032008
1122.80 0.1031703
1122.90 0.1031398
1123.00 0.1031093
1123.10 0.1030788
1123.20 0.1030484
1123.30 0.1030179
1123.40 0.1029875
1123.50 0.102957
1123.60 0.1029266
1123.70 0.1028962
1123.80 0.1028658
1123.90 0.1028354
1124.00 0.102805
1124.10 0.1027746
1124.20 0.1027443
1124.30 0.1027139
1124.40 0.1026835
1124.50 0.1026532
1124.60 0.1026229
1124.70 0.1025925
1124.80 0.1025622
1124.90 0.1025319
1125.00 0.1025016
1125.10 0.1024713
1125.20 0.1024411
1125.30 0.1024108
1125.40 0.1023805
1125.50 0.1023503
1125.60 0.10232
1125.70 0.1022898
1125.80 0.1022596
1125.90 0.1022294
1126.00 0.1021992
1126.10 0.102169
1126.20 0.1021388
1126.30 0.1021086
1126.40 0.1020784
1126.50 0.1020483
1126.60 0.1020181
1126.70 0.101988
1126.80 0.1019579
1126.90 0.1019277
1127.00 0.1018976
1127.10 0.1018675
1127.20 0.1018374
1127.30 0.1018073
1127.40 0.1017773
1127.50 0.1017472
1127.60 0.1017171
1127.70 0.1016871
1127.80 0.101657
1127.90 0.101627
1128.00 0.1015971
1128.10 0.1015672
1128.20 0.1015373
1128.30 0.1015074
1128.40 0.1014776
1128.50 0.1014477
1128.60 0.1014179
1128.70 0.101388
1128.80 0.1013582
1128.90 0.1013284
1129.00 0.1012986
1129.10 0.1012688
1129.20 0.101239
1129.30 0.1012092
1129.40 0.1011794
1129.50 0.1011496
1129.60 0.1011199
1129.70 0.1010901
1129.80 0.1010604
1129.90 0.1010307
1130.00 0.1010009
1130.10 0.1009712
1130.20 0.1009415
1130.30 0.1009118
1130.40 0.1008821
1130.50 0.1008525
1130.60 0.1008228
1130.70 0.1007931
1130.80 0.1007635
1130.90 0.1007338
1131.00 0.1007042
1131.10 0.1006746
1131.20 0.100645
1131.30 0.1006154
1131.40 0.1005858
1131.50 0.1005562
1131.60 0.1005266
1131.70 0.100497
1131.80 0.1004675
1131.90 0.1004379
1132.00 0.1004084
1132.10 0.1003788
1132.20 0.1003493
1132.30 0.1003198
1132.40 0.1002903
1132.50 0.1002608
1132.60 0.1002313
1132.70 0.1002018
1132.80 0.1001723
1132.90 0.1001429
1133.00 0.1001134
1133.10 0.100084
1133.20 0.1000545
1133.30 0.1000251
1133.40 0.09999568
1133.50 0.09996627
1133.60 0.09993687
1133.70 0.09990747
1133.80 0.09987809
1133.90 0.09984871
1134.00 0.09981935
1134.10 0.09978999
1134.20 0.09976064
1134.30 0.0997313
1134.40 0.09970197
1134.50 0.09967264
1134.60 0.09964333
1134.70 0.09961402
1134.80 0.09958473
1134.90 0.09955544
1135.00 0.09952616
1135.10 0.09949689
1135.20 0.09946763
1135.30 0.09943837
1135.40 0.09940913
1135.50 0.09937989
1135.60 0.09935067
1135.70 0.09932145
1135.80 0.09929224
1135.90 0.09926304
1136.00 0.09923385
1136.10 0.09920466
1136.20 0.09917549
1136.30 0.09914632
1136.40 0.09911717
1136.50 0.09908802
1136.60 0.09905888
1136.70 0.09902975
1136.80 0.09900063
1136.90 0.09897151
1137.00 0.09894241
1137.10 0.09891331
1137.20 0.09888423
1137.30 0.09885515
1137.40 0.09882608
1137.50 0.09879702
1137.60 0.09876796
1137.70 0.09873892
1137.80 0.09870989
1137.90 0.09868086
1138.00 0.09865184
1138.10 0.09862283
1138.20 0.09859383
1138.30 0.09856484
1138.40 0.09853586
1138.50 0.09850688
1138.60 0.09847792
1138.70 0.09844896
1138.80 0.09842001
1138.90 0.09839107
1139.00 0.09836214
1139.10 0.09833322
1139.20 0.09830431
1139.30 0.09827589
1139.40 0.09824749
1139.50 0.0982191
1139.60 0.09819072
1139.70 0.09816235
1139.80 0.09813399
1139.90 0.09810563
1140.00 0.09807728
1140.10 0.09804895
1140.20 0.09802062
1140.30 0.09799229
1140.40 0.09796398
1140.50 0.09793568
1140.60 0.09790738
1140.70 0.09787909
1140.80 0.09785081
1140.90 0.09782254
1141.00 0.09779428
1141.10 0.09776602
1141.20 0.09773778
1141.30 0.09770954
1141.40 0.09768131
1141.50 0.09765309
1141.60 0.09762488
1141.70 0.09759667
1141.80 0.09756848
1141.90 0.09754029
1142.00 0.09751211
1142.10 0.09748394
1142.20 0.09745578
1142.30 0.09742763
1142.40 0.09739948
1142.50 0.09737134
1142.60 0.09734321
1142.70 0.09731509
1142.80 0.09728698
1142.90 0.09725888
1143.00 0.09723078
1143.10 0.0972027
1143.20 0.09717462
1143.30 0.09714655
1143.40 0.09711849
1143.50 0.09709043
1143.60 0.09706239
1143.70 0.09703435
1143.80 0.09700632
1143.90 0.0969783
1144.00 0.09695029
1144.10 0.09692229
1144.20 0.09689429
1144.30 0.0968663
1144.40 0.09683832
1144.50 0.09681035
1144.60 0.09678239
1144.70 0.09675444
1144.80 0.09672649
1144.90 0.09669856
1145.00 0.09667063
1145.10 0.09664271
1145.20 0.09661479
1145.30 0.09658689
1145.40 0.09655899
1145.50 0.09653111
1145.60 0.09650323
1145.70 0.09647535
1145.80 0.09644749
1145.90 0.09641964
1146.00 0.09639179
1146.10 0.09636395
1146.20 0.09633612
1146.30 0.0963083
1146.40 0.09628049
1146.50 0.09625268
1146.60 0.09622489
1146.70 0.0961971
1146.80 0.09616932
1146.90 0.09614155
1147.00 0.09611378
1147.10 0.09608603
1147.20 0.09605828
1147.30 0.09603054
1147.40 0.09600281
1147.50 0.09597508
1147.60 0.09594737
1147.70 0.09591966
1147.80 0.09589197
1147.90 0.09586428
1148.00 0.09583659
1148.10 0.09580892
1148.20 0.09578125
1148.30 0.0957536
1148.40 0.09572595
1148.50 0.09569831
1148.60 0.09567067
1148.70 0.09564305
1148.80 0.09561543
1148.90 0.09558782
1149.00 0.09556022
1149.10 0.09553263
1149.20 0.09550505
1149.30 0.09547747
1149.40 0.09544991
1149.50 0.09542235
1149.60 0.09539479
1149.70 0.09536725
1149.80 0.09533972
1149.90 0.09531219
1150.00 0.09528467
1150.10 0.09525716
1150.20 0.09522966
1150.30 0.09520216
1150.40 0.09517468
1150.50 0.0951472
1150.60 0.09511971
1150.70 0.09509198
1150.80 0.09506426
1150.90 0.09503655
1151.00 0.09500885
1151.10 0.09498115
1151.20 0.09495346
1151.30 0.09492579
1151.40 0.09489811
1151.50 0.09487045
1151.60 0.0948428
1151.70 0.09481515
1151.80 0.09478751
1151.90 0.09475988
1152.00 0.09473226
1152.10 0.09470464
1152.20 0.09467704
1152.30 0.09464944
1152.40 0.09462185
1152.50 0.09459427
1152.60 0.0945667
1152.70 0.09453913
1152.80 0.09451157
1152.90 0.09448402
1153.00 0.09445648
1153.10 0.09442895
1153.20 0.09440143
1153.30 0.09437391
1153.40 0.0943464
1153.50 0.0943189
1153.60 0.09429141
1153.70 0.09426393
1153.80 0.09423645
1153.90 0.09420898
1154.00 0.09418152
1154.10 0.09415407
1154.20 0.09412663
1154.30 0.09409919
1154.40 0.09407176
1154.50 0.09404435
1154.60 0.09401693
1154.70 0.09398953
1154.80 0.09396214
1154.90 0.09393475
1155.00 0.09390737
1155.10 0.09388
1155.20 0.09385264
1155.30 0.09382528
1155.40 0.09379794
1155.50 0.0937706
1155.60 0.09374327
1155.70 0.09371595
1155.80 0.09368863
1155.90 0.09366133
1156.00 0.09363403
1156.10 0.09360674
1156.20 0.09357946
1156.30 0.09355218
1156.40 0.09352532
1156.50 0.0934988
1156.60 0.09347229
1156.70 0.09344579
1156.80 0.0934193
1156.90 0.09339282
1157.00 0.09336634
1157.10 0.09333987
1157.20 0.09331341
1157.30 0.09328696
1157.40 0.09326051
1157.50 0.09323407
1157.60 0.09320764
1157.70 0.09318122
1157.80 0.09315481
1157.90 0.0931284
1158.00 0.093102
1158.10 0.09307561
1158.20 0.09304923
1158.30 0.09302285
1158.40 0.09299648
1158.50 0.09297012
1158.60 0.09294377
1158.70 0.09291742
1158.80 0.09289109
1158.90 0.09286476
1159.00 0.09283843
1159.10 0.09281212
1159.20 0.09278581
1159.30 0.09275951
1159.40 0.09273322
1159.50 0.09270694
1159.60 0.09268066
1159.70 0.0926544
1159.80 0.09262814
1159.90 0.09260188
1160.00 0.09257564
1160.10 0.0925494
1160.20 0.09252317
1160.30 0.09249695
1160.40 0.09247073
1160.50 0.09244453
1160.60 0.09241833
1160.70 0.09239214
1160.80 0.09236595
1160.90 0.09233978
1161.00 0.09231361
1161.10 0.09228745
1161.20 0.09226129
1161.30 0.09223515
1161.40 0.09220901
1161.50 0.09218288
1161.60 0.09215676
1161.70 0.09213064
1161.80 0.09210454
1161.90 0.09207844
1162.00 0.09205234
1162.10 0.09202626
1162.20 0.09199956
1162.30 0.09197286
1162.40 0.09194617
1162.50 0.09191949
1162.60 0.09189282
1162.70 0.09186616
1162.80 0.0918395
1162.90 0.09181286
1163.00 0.09178622
1163.10 0.09175958
1163.20 0.09173296
1163.30 0.09170634
1163.40 0.09167973
1163.50 0.09165313
1163.60 0.09162654
1163.70 0.09159995
1163.80 0.09157338
1163.90 0.09154681
1164.00 0.09152024
1164.10 0.09149369
1164.20 0.09146714
1164.30 0.0914406
1164.40 0.09141407
1164.50 0.09138755
1164.60 0.09136103
1164.70 0.09133453
1164.80 0.09130802
1164.90 0.09128153
1165.00 0.09125505
1165.10 0.09122857
1165.20 0.0912021
1165.30 0.09117564
1165.40 0.09114919
1165.50 0.09112274
1165.60 0.0910963
1165.70 0.09106987
1165.80 0.09104345
1165.90 0.09101703
1166.00 0.09099063
1166.10 0.09096423
1166.20 0.09093784
1166.30 0.09091145
1166.40 0.09088508
1166.50 0.09085871
1166.60 0.09083235
1166.70 0.09080599
1166.80 0.09077965
1166.90 0.09075331
1167.00 0.09072698
1167.10 0.09070066
1167.20 0.09067434
1167.30 0.09064803
1167.40 0.09062174
1167.50 0.09059544
1167.60 0.09056916
1167.70 0.09054288
1167.80 0.09051661
1167.90 0.09049035
1168.00 0.0904641
1168.10 0.09043786
1168.20 0.09041162
1168.30 0.09038539
1168.40 0.09035917
1168.50 0.09033296
1168.60 0.09030675
1168.70 0.09028055
1168.80 0.09025436
1168.90 0.09022818
1169.00 0.09020201
1169.10 0.09017584
1169.20 0.09014968
1169.30 0.09012353
1169.40 0.09009738
1169.50 0.09007125
1169.60 0.09004512
1169.70 0.09001899
1169.80 0.08999288
1169.90 0.08996677
1170.00 0.08994068
1170.10 0.08991458
1170.20 0.0898885
1170.30 0.08986242
1170.40 0.08983636
1170.50 0.0898103
1170.60 0.08978424
1170.70 0.0897582
1170.80 0.08973216
1170.90 0.08970613
1171.00 0.08968011
1171.10 0.08965409
1171.20 0.08962808
1171.30 0.08960208
1171.40 0.08957609
1171.50 0.0895501
1171.60 0.08952413
1171.70 0.08949816
1171.80 0.08947219
1171.90 0.08944624
1172.00 0.08942029
1172.10 0.08939435
1172.20 0.08936842
1172.30 0.0893425
1172.40 0.08931658
1172.50 0.08929067
1172.60 0.08926477
1172.70 0.08923887
1172.80 0.08921299
1172.90 0.08918711
1173.00 0.08916124
1173.10 0.08913537
1173.20 0.08910951
1173.30 0.08908367
1173.40 0.08905782
1173.50 0.08903199
1173.60 0.08900616
1173.70 0.08898034
1173.80 0.08895517
1173.90 0.08893017
1174.00 0.08890518
1174.10 0.0888802
1174.20 0.08885522
1174.30 0.08883025
1174.40 0.08880529
1174.50 0.08878034
1174.60 0.08875539
1174.70 0.08873045
1174.80 0.08870552
1174.90 0.08868059
1175.00 0.08865567
1175.10 0.08863076
1175.20 0.08860586
1175.30 0.08858096
1175.40 0.08855607
1175.50 0.08853119
1175.60 0.08850631
1175.70 0.08848144
1175.80 0.08845658
1175.90 0.08843173
1176.00 0.08840688
1176.10 0.08838204
1176.20 0.08835721
1176.30 0.08833239
1176.40 0.08830757
1176.50 0.08828276
1176.60 0.08825795
1176.70 0.08823316
1176.80 0.08820837
1176.90 0.08818359
1177.00 0.08815881
1177.10 0.08813404
1177.20 0.08810928
1177.30 0.08808453
1177.40 0.08805978
1177.50 0.08803504
1177.60 0.08801031
1177.70 0.08798559
1177.80 0.08796087
1177.90 0.08793616
1178.00 0.08791145
1178.10 0.08788676
1178.20 0.08786207
1178.30 0.08783739
1178.40 0.08781271
1178.50 0.08778804
1178.60 0.08776338
1178.70 0.08773873
1178.80 0.08771408
1178.90 0.08768944
1179.00 0.08766481
1179.10 0.08764018
1179.20 0.08761557
1179.30 0.08759095
1179.40 0.08756635
1179.50 0.08754175
1179.60 0.08751716
1179.70 0.08749258
1179.80 0.08746801
1179.90 0.08744344
1180.00 0.08741888
1180.10 0.08739433
1180.20 0.08736978
1180.30 0.08734524
1180.40 0.08732071
1180.50 0.08729619
1180.60 0.08727167
1180.70 0.08724716
1180.80 0.08722265
1180.90 0.08719816
1181.00 0.08717367
1181.10 0.08714919
1181.20 0.08712471
1181.30 0.08710024
1181.40 0.08707578
1181.50 0.08705133
1181.60 0.08702688
1181.70 0.08700244
1181.80 0.08697801
1181.90 0.08695358
1182.00 0.08692916
1182.10 0.08690475
1182.20 0.08688034
1182.30 0.08685594
1182.40 0.08683155
1182.50 0.08680717
1182.60 0.08678279
1182.70 0.08675842
1182.80 0.08673406
1182.90 0.0867097
1183.00 0.08668535
1183.10 0.08666101
1183.20 0.08663668
1183.30 0.08661235
1183.40 0.08658803
1183.50 0.08656371
1183.60 0.08653941
1183.70 0.08651511
1183.80 0.08649081
1183.90 0.08646653
1184.00 0.08644225
1184.10 0.08641797
1184.20 0.08639371
1184.30 0.08636945
1184.40 0.0863452
1184.50 0.08632096
1184.60 0.08629672
1184.70 0.08627249
1184.80 0.08624826
1184.90 0.08622405
1185.00 0.08619984
1185.10 0.08617563
1185.20 0.08615144
1185.30 0.08612725
1185.40 0.08610307
1185.50 0.08607865
1185.60 0.08605389
1185.70 0.08602914
1185.80 0.0860044
1185.90 0.08597966
1186.00 0.08595494
1186.10 0.08593022
1186.20 0.0859055
1186.30 0.0858808
1186.40 0.0858561
1186.50 0.08583141
1186.60 0.08580672
1186.70 0.08578204
1186.80 0.08575737
1186.90 0.08573271
1187.00 0.08570805
1187.10 0.0856834
1187.20 0.08565876
1187.30 0.08563413
1187.40 0.0856095
1187.50 0.08558488
1187.60 0.08556026
1187.70 0.08553566
1187.80 0.08551106
1187.90 0.08548646
1188.00 0.08546188
1188.10 0.0854373
1188.20 0.08541273
1188.30 0.08538816
1188.40 0.0853636
1188.50 0.08533905
1188.60 0.08531451
1188.70 0.08528997
1188.80 0.08526545
1188.90 0.08524092
1189.00 0.08521641
1189.10 0.0851919
1189.20 0.0851674
1189.30 0.0851429
1189.40 0.08511842
1189.50 0.08509394
1189.60 0.08506946
1189.70 0.085045
1189.80 0.08502054
1189.90 0.08499609
1190.00 0.08497164
1190.10 0.08494721
1190.20 0.08492277
1190.30 0.08489835
1190.40 0.08487393
1190.50 0.08484952
1190.60 0.08482512
1190.70 0.08480073
1190.80 0.08477634
1190.90 0.08475195
1191.00 0.08472758
1191.10 0.08470321
1191.20 0.08467885
1191.30 0.0846545
1191.40 0.08463025
1191.50 0.08460659
1191.60 0.08458293
1191.70 0.08455928
1191.80 0.08453564
1191.90 0.084512
1192.00 0.08448837
1192.10 0.08446474
1192.20 0.08444113
1192.30 0.08441752
1192.40 0.08439391
1192.50 0.08437032
1192.60 0.08434673
1192.70 0.08432314
1192.80 0.08429957
1192.90 0.084276
1193.00 0.08425243
1193.10 0.08422888
1193.20 0.08420533
1193.30 0.08418178
1193.40 0.08415825
1193.50 0.08413472
1193.60 0.08411119
1193.70 0.08408768
1193.80 0.08406417
1193.90 0.08404067
1194.00 0.08401717
1194.10 0.08399368
1194.20 0.0839702
1194.30 0.08394672
1194.40 0.08392325
1194.50 0.08389979
1194.60 0.08387633
1194.70 0.08385288
1194.80 0.08382944
1194.90 0.083806
1195.00 0.08378258
1195.10 0.08375915
1195.20 0.08373574
1195.30 0.08371233
1195.40 0.08368892
1195.50 0.08366553
1195.60 0.08364214
1195.70 0.08361876
1195.80 0.08359538
1195.90 0.08357201
1196.00 0.08354865
1196.10 0.08352529
1196.20 0.08350194
1196.30 0.0834786
1196.40 0.08345526
1196.50 0.08343193
1196.60 0.08340861
1196.70 0.08338529
1196.80 0.08336198
1196.90 0.08333868
1197.00 0.08331538
1197.10 0.08329209
1197.20 0.08326881
1197.30 0.08324554
1197.40 0.08322235
1197.50 0.08319918
1197.60 0.08317602
1197.70 0.08315286
1197.80 0.08312971
1197.90 0.08310657
1198.00 0.08308343
1198.10 0.0830603
1198.20 0.08303718
1198.30 0.08301406
1198.40 0.08299095
1198.50 0.08296784
1198.60 0.08294475
1198.70 0.08292166
1198.80 0.08289857
1198.90 0.08287549
1199.00 0.08285242
1199.10 0.08282936
1199.20 0.0828063
1199.30 0.08278325
1199.40 0.0827602
1199.50 0.08273717
1199.60 0.08271413
1199.70 0.08269111
1199.80 0.08266809
1199.90 0.08264508
1200.00 0.08262207
