# Version 2.1 - nm, norm@500 to 1, cut digits, bergeron_He_8000_75.dat_8000
# Wavelength(nm)  Flambda(ergs/cm^s/s/nm)
300.00 1.283587
300.10 1.284071
300.20 1.284573
300.30 1.285049
300.40 1.285355
300.50 1.285661
300.60 1.285967
300.70 1.286271
300.80 1.286575
300.90 1.286879
301.00 1.287181
301.10 1.287483
301.20 1.287785
301.30 1.288085
301.40 1.288385
301.50 1.288684
301.60 1.288983
301.70 1.28928
301.80 1.289578
301.90 1.289874
302.00 1.29017
302.10 1.290475
302.20 1.29078
302.30 1.291085
302.40 1.291389
302.50 1.291693
302.60 1.291995
302.70 1.292297
302.80 1.292599
302.90 1.292899
303.00 1.293199
303.10 1.293499
303.20 1.293797
303.30 1.294091
303.40 1.294344
303.50 1.294597
303.60 1.294849
303.70 1.2951
303.80 1.295351
303.90 1.295601
304.00 1.295851
304.10 1.2961
304.20 1.296348
304.30 1.296596
304.40 1.296843
304.50 1.29709
304.60 1.297375
304.70 1.297664
304.80 1.297953
304.90 1.298241
305.00 1.298528
305.10 1.298814
305.20 1.2991
305.30 1.299386
305.40 1.29967
305.50 1.299954
305.60 1.300237
305.70 1.30052
305.80 1.300802
305.90 1.301083
306.00 1.301364
306.10 1.301644
306.20 1.301924
306.30 1.302202
306.40 1.302481
306.50 1.302759
306.60 1.303037
306.70 1.303314
306.80 1.303591
306.90 1.303867
307.00 1.304142
307.10 1.304416
307.20 1.30469
307.30 1.304963
307.40 1.305236
307.50 1.305508
307.60 1.305779
307.70 1.30605
307.80 1.30632
307.90 1.30659
308.00 1.306859
308.10 1.307127
308.20 1.307394
308.30 1.307661
308.40 1.307928
308.50 1.308194
308.60 1.308459
308.70 1.308723
308.80 1.308942
308.90 1.309034
309.00 1.309404
309.10 1.309773
309.20 1.310141
309.30 1.310509
309.40 1.310843
309.50 1.310972
309.60 1.311101
309.70 1.31123
309.80 1.311358
309.90 1.311485
310.00 1.311613
310.10 1.31174
310.20 1.311866
310.30 1.311992
310.40 1.312165
310.50 1.312389
310.60 1.312612
310.70 1.312834
310.80 1.313056
310.90 1.313278
311.00 1.313682
311.10 1.314086
311.20 1.314489
311.30 1.314834
311.40 1.315018
311.50 1.315202
311.60 1.315385
311.70 1.315567
311.80 1.315749
311.90 1.315931
312.00 1.316112
312.10 1.316293
312.20 1.316847
312.30 1.317098
312.40 1.316898
312.50 1.317398
312.60 1.317487
312.70 1.317576
312.80 1.317665
312.90 1.317831
313.00 1.318082
313.10 1.318332
313.20 1.318582
313.30 1.318835
313.40 1.319103
313.50 1.319369
313.60 1.319635
313.70 1.3199
313.80 1.320165
313.90 1.320429
314.00 1.320693
314.10 1.320887
314.20 1.321081
314.30 1.321275
314.40 1.321468
314.50 1.32166
314.60 1.321852
314.70 1.322043
314.80 1.322346
314.90 1.322635
315.00 1.322564
315.10 1.322673
315.20 1.322781
315.30 1.322889
315.40 1.322996
315.50 1.323103
315.60 1.32321
315.70 1.323505
315.80 1.323799
315.90 1.324093
316.00 1.324386
316.10 1.324678
316.20 1.32497
316.30 1.325261
316.40 1.324988
316.50 1.325278
316.60 1.326131
316.70 1.325857
316.80 1.325582
316.90 1.32587
317.00 1.326158
317.10 1.326445
317.20 1.326731
317.30 1.327184
317.40 1.327507
317.50 1.32746
317.60 1.327412
317.70 1.327365
317.80 1.327317
317.90 1.327953
318.00 1.328172
318.10 1.328453
318.20 1.328734
318.30 1.329014
318.40 1.329148
318.50 1.32887
318.60 1.329171
318.70 1.328893
318.80 1.329004
318.90 1.329448
319.00 1.329846
319.10 1.330122
319.20 1.330338
319.30 1.330384
319.40 1.330429
319.50 1.330475
319.60 1.330403
319.70 1.33074
319.80 1.331076
319.90 1.331412
320.00 1.331716
320.10 1.331987
320.20 1.331728
320.30 1.331997
320.40 1.332266
320.50 1.332204
320.60 1.33223
320.70 1.332498
320.80 1.332765
320.90 1.333031
321.00 1.333296
321.10 1.333561
321.20 1.333547
321.30 1.333663
321.40 1.333779
321.50 1.333894
321.60 1.33401
321.70 1.334124
321.80 1.33414
321.90 1.334047
322.00 1.334801
322.10 1.33492
322.20 1.335039
322.30 1.335157
322.40 1.335275
322.50 1.335393
322.60 1.33551
322.70 1.335626
322.80 1.33554
322.90 1.335675
323.00 1.335809
323.10 1.335943
323.20 1.336077
323.30 1.33621
323.40 1.336343
323.50 1.336475
323.60 1.336607
323.70 1.336738
323.80 1.33687
323.90 1.337
324.00 1.337038
324.10 1.337075
324.20 1.337113
324.30 1.337284
324.40 1.337617
324.50 1.337712
324.60 1.337808
324.70 1.337903
324.80 1.337997
324.90 1.338092
325.00 1.338186
325.10 1.338279
325.20 1.338436
325.30 1.338729
325.40 1.339021
325.50 1.339174
325.60 1.339156
325.70 1.339139
325.80 1.339121
325.90 1.339201
326.00 1.339387
326.10 1.339572
326.20 1.339757
326.30 1.339899
326.40 1.339919
326.50 1.340047
326.60 1.340174
326.70 1.340301
326.80 1.340428
326.90 1.340554
327.00 1.34068
327.10 1.340805
327.20 1.340931
327.30 1.341055
327.40 1.341179
327.50 1.341303
327.60 1.341427
327.70 1.34155
327.80 1.341672
327.90 1.341832
328.00 1.341982
328.10 1.342069
328.20 1.342155
328.30 1.342241
328.40 1.342326
328.50 1.342397
328.60 1.342464
328.70 1.34253
328.80 1.342597
328.90 1.342665
329.00 1.342732
329.10 1.342799
329.20 1.342866
329.30 1.342932
329.40 1.342998
329.50 1.343064
329.60 1.34313
329.70 1.343195
329.80 1.343259
329.90 1.343324
330.00 1.343463
330.10 1.343693
330.20 1.343923
330.30 1.344153
330.40 1.344286
330.50 1.344317
330.60 1.344347
330.70 1.344376
330.80 1.344406
330.90 1.344435
331.00 1.344464
331.10 1.344492
331.20 1.344521
331.30 1.344549
331.40 1.344576
331.50 1.344784
331.60 1.34521
331.70 1.345636
331.80 1.345676
331.90 1.3457
332.00 1.345724
332.10 1.345747
332.20 1.34577
332.30 1.345793
332.40 1.345816
332.50 1.345838
332.60 1.34586
332.70 1.345882
332.80 1.345904
332.90 1.345925
333.00 1.345946
333.10 1.346006
333.20 1.346114
333.30 1.346221
333.40 1.346328
333.50 1.346435
333.60 1.346541
333.70 1.346647
333.80 1.346752
333.90 1.346857
334.00 1.346962
334.10 1.347036
334.20 1.347073
334.30 1.347109
334.40 1.347145
334.50 1.347181
334.60 1.347216
334.70 1.34731
334.80 1.347392
334.90 1.347356
335.00 1.34732
335.10 1.34713
335.20 1.347331
335.30 1.347206
335.40 1.347281
335.50 1.347481
335.60 1.347681
335.70 1.347329
335.80 1.347528
335.90 1.347727
336.00 1.347925
336.10 1.348123
336.20 1.348321
336.30 1.348442
336.40 1.348473
336.50 1.348502
336.60 1.348532
336.70 1.348561
336.80 1.34859
336.90 1.348578
337.00 1.348516
337.10 1.348454
337.20 1.348392
337.30 1.348369
337.40 1.348402
337.50 1.348435
337.60 1.348468
337.70 1.3485
337.80 1.348532
337.90 1.348536
338.00 1.348504
338.10 1.348472
338.20 1.34844
338.30 1.348408
338.40 1.348412
338.50 1.348503
338.60 1.348594
338.70 1.348685
338.80 1.348775
338.90 1.348865
339.00 1.348955
339.10 1.349044
339.20 1.349133
339.30 1.34927
339.40 1.349475
339.50 1.349569
339.60 1.349525
339.70 1.349481
339.80 1.349437
339.90 1.349393
340.00 1.349348
340.10 1.349304
340.20 1.349259
340.30 1.349214
340.40 1.349169
340.50 1.349123
340.60 1.349078
340.70 1.349032
340.80 1.349087
340.90 1.349288
341.00 1.349424
341.10 1.349482
341.20 1.34954
341.30 1.349598
341.40 1.349655
341.50 1.349712
341.60 1.349769
341.70 1.349825
341.80 1.349808
341.90 1.3497
342.00 1.349593
342.10 1.349485
342.20 1.349723
342.30 1.349971
342.40 1.349923
342.50 1.349943
342.60 1.349962
342.70 1.349981
342.80 1.35
342.90 1.350018
343.00 1.349995
343.10 1.34992
343.20 1.349846
343.30 1.349771
343.40 1.349732
343.50 1.349744
343.60 1.349755
343.70 1.349767
343.80 1.349778
343.90 1.349789
344.00 1.349767
344.10 1.349698
344.20 1.349629
344.30 1.349559
344.40 1.349587
344.50 1.349756
344.60 1.349557
344.70 1.349701
344.80 1.349868
344.90 1.350035
345.00 1.349641
345.10 1.349808
345.20 1.349847
345.30 1.349706
345.40 1.349564
345.50 1.349544
345.60 1.349622
345.70 1.349629
345.80 1.349636
345.90 1.349642
346.00 1.349648
346.10 1.349654
346.20 1.349647
346.30 1.349621
346.40 1.349595
346.50 1.349568
346.60 1.349542
346.70 1.349515
346.80 1.349488
346.90 1.349461
347.00 1.349434
347.10 1.349406
347.20 1.349386
347.30 1.349376
347.40 1.349365
347.50 1.349355
347.60 1.349344
347.70 1.349334
347.80 1.349322
347.90 1.349311
348.00 1.3493
348.10 1.349288
348.20 1.349276
348.30 1.349264
348.40 1.349252
348.50 1.349239
348.60 1.349226
348.70 1.349158
348.80 1.349095
348.90 1.349064
349.00 1.349033
349.10 1.349001
349.20 1.34897
349.30 1.348938
349.40 1.348906
349.50 1.348874
349.60 1.348841
349.70 1.348809
349.80 1.348776
349.90 1.348743
350.00 1.34871
350.10 1.348677
350.20 1.348644
350.30 1.348615
350.40 1.348595
350.50 1.348574
350.60 1.348553
350.70 1.348532
350.80 1.348511
350.90 1.34849
351.00 1.348468
351.10 1.348446
351.20 1.348424
351.30 1.348402
351.40 1.348376
351.50 1.348344
351.60 1.348312
351.70 1.34828
351.80 1.348247
351.90 1.348215
352.00 1.348182
352.10 1.348149
352.20 1.348007
352.30 1.347891
352.40 1.347831
352.50 1.347771
352.60 1.347711
352.70 1.34765
352.80 1.34759
352.90 1.347529
353.00 1.347468
353.10 1.347408
353.20 1.347346
353.30 1.347285
353.40 1.347224
353.50 1.347253
353.60 1.347305
353.70 1.347357
353.80 1.347408
353.90 1.34742
354.00 1.347364
354.10 1.347308
354.20 1.347251
354.30 1.347194
354.40 1.347137
354.50 1.34708
354.60 1.347023
354.70 1.346966
354.80 1.346871
354.90 1.346722
355.00 1.346573
355.10 1.346424
355.20 1.346275
355.30 1.346347
355.40 1.34642
355.50 1.346492
355.60 1.346563
355.70 1.346327
355.80 1.345954
355.90 1.346015
356.00 1.346121
356.10 1.346043
356.20 1.345965
356.30 1.345888
356.40 1.34581
356.50 1.345732
356.60 1.345654
356.70 1.345576
356.80 1.345497
356.90 1.345419
357.00 1.34534
357.10 1.345261
357.20 1.345183
357.30 1.345104
357.40 1.345066
357.50 1.345103
357.60 1.345139
357.70 1.345175
357.80 1.344824
357.90 1.344474
358.00 1.344343
358.10 1.344267
358.20 1.344191
358.30 1.344115
358.40 1.344039
358.50 1.343963
358.60 1.343886
358.70 1.343809
358.80 1.343733
358.90 1.343656
359.00 1.34362
359.10 1.343657
359.20 1.34369
359.30 1.343693
359.40 1.343696
359.50 1.343598
359.60 1.343474
359.70 1.343351
359.80 1.343265
359.90 1.34318
360.00 1.34309
360.10 1.342992
360.20 1.342895
360.30 1.342798
360.40 1.342701
360.50 1.342603
360.60 1.342968
360.70 1.342874
360.80 1.342781
360.90 1.342687
361.00 1.342359
361.10 1.342097
361.20 1.341739
361.30 1.341861
361.40 1.34194
361.50 1.342105
361.60 1.341674
361.70 1.341796
361.80 1.341849
361.90 1.341781
362.00 1.341713
362.10 1.341585
362.20 1.341431
362.30 1.341257
362.40 1.341082
362.50 1.340908
362.60 1.340734
362.70 1.340584
362.80 1.340227
362.90 1.340341
363.00 1.340456
363.10 1.340501
363.20 1.340544
363.30 1.339963
363.40 1.340081
363.50 1.340198
363.60 1.339888
363.70 1.340053
363.80 1.339695
363.90 1.339568
364.00 1.339441
364.10 1.339314
364.20 1.339187
364.30 1.338952
364.40 1.338689
364.50 1.33881
364.60 1.338641
364.70 1.338471
364.80 1.338301
364.90 1.338416
365.00 1.33853
365.10 1.338221
365.20 1.338335
365.30 1.338025
365.40 1.338139
365.50 1.337829
365.60 1.33752
365.70 1.337556
365.80 1.337592
365.90 1.33739
366.00 1.337127
366.10 1.337018
366.20 1.336909
366.30 1.336799
366.40 1.33669
366.50 1.336836
366.60 1.336956
366.70 1.336863
366.80 1.33677
366.90 1.336665
367.00 1.33654
367.10 1.336415
367.20 1.33629
367.30 1.336165
367.40 1.336039
367.50 1.335804
367.60 1.335542
367.70 1.335475
367.80 1.335408
367.90 1.335341
368.00 1.335142
368.10 1.33524
368.20 1.335065
368.30 1.334886
368.40 1.334707
368.50 1.334528
368.60 1.334348
368.70 1.334169
368.80 1.33399
368.90 1.334148
369.00 1.334088
369.10 1.333823
369.20 1.333934
369.30 1.333764
369.40 1.333593
369.50 1.333423
369.60 1.333113
369.70 1.332803
369.80 1.332749
369.90 1.332698
370.00 1.332646
370.10 1.332401
370.20 1.332497
370.30 1.332601
370.40 1.332281
370.50 1.331994
370.60 1.332097
370.70 1.332201
370.80 1.331891
370.90 1.331581
371.00 1.331276
371.10 1.33097
371.20 1.331069
371.30 1.331167
371.40 1.330678
371.50 1.330571
371.60 1.330465
371.70 1.330358
371.80 1.330251
371.90 1.330144
372.00 1.330484
372.10 1.330351
372.20 1.33018
372.30 1.330009
372.40 1.329838
372.50 1.329666
372.60 1.329495
372.70 1.329324
372.80 1.329015
372.90 1.328706
373.00 1.328806
373.10 1.328909
373.20 1.328602
373.30 1.328296
373.40 1.328394
373.50 1.328088
373.60 1.327782
373.70 1.32788
373.80 1.327346
373.90 1.327267
374.00 1.327163
374.10 1.327059
374.20 1.326955
374.30 1.32685
374.40 1.326645
374.50 1.327024
374.60 1.326735
374.70 1.32643
374.80 1.326125
374.90 1.325821
375.00 1.325649
375.10 1.325478
375.20 1.325306
375.30 1.325173
375.40 1.325039
375.50 1.324906
375.60 1.324772
375.70 1.324638
375.80 1.324505
375.90 1.324371
376.00 1.324457
376.10 1.324278
376.20 1.324095
376.30 1.323913
376.40 1.323731
376.50 1.32356
376.60 1.323406
376.70 1.323252
376.80 1.323103
376.90 1.322957
377.00 1.322811
377.10 1.322664
377.20 1.322506
377.30 1.322299
377.40 1.322092
377.50 1.321886
377.60 1.321874
377.70 1.321863
377.80 1.321851
377.90 1.321839
378.00 1.321553
378.10 1.321397
378.20 1.321246
378.30 1.321096
378.40 1.320946
378.50 1.320795
378.60 1.320645
378.70 1.320494
378.80 1.320344
378.90 1.320206
379.00 1.320092
379.10 1.31971
379.20 1.319328
379.30 1.319169
379.40 1.319233
379.50 1.319297
379.60 1.319057
379.70 1.318482
379.80 1.318359
379.90 1.318237
380.00 1.318114
380.10 1.317991
380.20 1.317868
380.30 1.317745
380.40 1.317622
380.50 1.317499
380.60 1.317025
380.70 1.316864
380.80 1.316704
380.90 1.316543
381.00 1.316383
381.10 1.316178
381.20 1.316124
381.30 1.316011
381.40 1.316092
381.50 1.3158
381.60 1.315609
381.70 1.315435
381.80 1.31552
381.90 1.315219
382.00 1.314917
382.10 1.315003
382.20 1.314469
382.30 1.314168
382.40 1.313923
382.50 1.313763
382.60 1.313603
382.70 1.313569
382.80 1.31355
382.90 1.313403
383.00 1.313255
383.10 1.313108
383.20 1.312937
383.30 1.312676
383.40 1.312466
383.50 1.31233
383.60 1.312459
383.70 1.31228
383.80 1.312102
383.90 1.311923
384.00 1.311744
384.10 1.311566
384.20 1.311387
384.30 1.311208
384.40 1.311045
384.50 1.310898
384.60 1.31075
384.70 1.310602
384.80 1.310342
384.90 1.309891
385.00 1.309864
385.10 1.309825
385.20 1.309326
385.30 1.309033
385.40 1.308813
385.50 1.308665
385.60 1.308518
385.70 1.30837
385.80 1.308204
385.90 1.30797
386.00 1.307783
386.10 1.307647
386.20 1.307554
386.30 1.307462
386.40 1.307262
386.50 1.307157
386.60 1.30667
386.70 1.306561
386.80 1.30664
386.90 1.30653
387.00 1.306044
387.10 1.306123
387.20 1.305994
387.30 1.305527
387.40 1.305606
387.50 1.305266
387.60 1.305089
387.70 1.304792
387.80 1.304494
387.90 1.304197
388.00 1.304005
388.10 1.304014
388.20 1.304215
388.30 1.304019
388.40 1.303823
388.50 1.303461
388.60 1.303002
388.70 1.302867
388.80 1.302944
388.90 1.302274
389.00 1.302351
389.10 1.301989
389.20 1.302082
389.30 1.301969
389.40 1.301682
389.50 1.301493
389.60 1.301319
389.70 1.300828
389.80 1.300666
389.90 1.300505
390.00 1.300343
390.10 1.300181
390.20 1.300019
390.30 1.299831
390.40 1.299612
390.50 1.299394
390.60 1.299175
390.70 1.298957
390.80 1.298725
390.90 1.298478
391.00 1.298762
391.10 1.298456
391.20 1.298075
391.30 1.297643
391.40 1.297472
391.50 1.2973
391.60 1.297129
391.70 1.296957
391.80 1.296786
391.90 1.296707
392.00 1.296585
392.10 1.296241
392.20 1.295982
392.30 1.296192
392.40 1.296016
392.50 1.295356
392.60 1.295428
392.70 1.294897
392.80 1.294842
392.90 1.29505
393.00 1.29478
393.10 1.294577
393.20 1.294433
393.30 1.29414
393.40 1.293814
393.50 1.293747
393.60 1.293228
393.70 1.2933
393.80 1.292709
393.90 1.29278
394.00 1.292786
394.10 1.292304
394.20 1.292017
394.30 1.291862
394.40 1.291677
394.50 1.291688
394.60 1.291439
394.70 1.291174
394.80 1.290853
394.90 1.290545
395.00 1.290592
395.10 1.290446
395.20 1.290197
395.30 1.28978
395.40 1.289363
395.50 1.289203
395.60 1.289138
395.70 1.289037
395.80 1.288839
395.90 1.288642
396.00 1.288403
396.10 1.287947
396.20 1.288016
396.30 1.287891
396.40 1.287367
396.50 1.287311
396.60 1.28738
396.70 1.286982
396.80 1.2868
396.90 1.286223
397.00 1.28622
397.10 1.286169
397.20 1.285801
397.30 1.285831
397.40 1.285633
397.50 1.285436
397.60 1.285221
397.70 1.284828
397.80 1.284435
397.90 1.284112
398.00 1.283976
398.10 1.28384
398.20 1.283602
398.30 1.28325
398.40 1.282905
398.50 1.282808
398.60 1.28287
398.70 1.282611
398.80 1.282258
398.90 1.281987
399.00 1.28187
399.10 1.281966
399.20 1.281649
399.30 1.281332
399.40 1.281016
399.50 1.280699
399.60 1.280475
399.70 1.280286
399.80 1.280096
399.90 1.279907
400.00 1.27972
400.10 1.279624
400.20 1.279131
400.30 1.278937
400.40 1.278855
400.50 1.278623
400.60 1.278242
400.70 1.277956
400.80 1.278116
400.90 1.277593
401.00 1.277544
401.10 1.277609
401.20 1.276972
401.30 1.27686
401.40 1.27678
401.50 1.276663
401.60 1.27653
401.70 1.275895
401.80 1.275809
401.90 1.27569
402.00 1.275389
402.10 1.275453
402.20 1.274819
402.30 1.274883
402.40 1.274249
402.50 1.274313
402.60 1.273718
402.70 1.273744
402.80 1.273808
402.90 1.273454
403.00 1.27317
403.10 1.272608
403.20 1.272687
403.30 1.27259
403.40 1.272104
403.50 1.271798
403.60 1.271594
403.70 1.271599
403.80 1.270982
403.90 1.270746
404.00 1.270801
404.10 1.270467
404.20 1.270184
404.30 1.269901
404.40 1.269963
404.50 1.269681
404.60 1.269398
404.70 1.26946
404.80 1.268853
404.90 1.268895
405.00 1.268269
405.10 1.268036
405.20 1.267902
405.30 1.267767
405.40 1.2676
405.50 1.267433
405.60 1.267265
405.70 1.267098
405.80 1.266931
405.90 1.266764
406.00 1.266416
406.10 1.266068
406.20 1.26572
406.30 1.265372
406.40 1.265085
406.50 1.265077
406.60 1.264797
406.70 1.26473
406.80 1.264374
406.90 1.263968
407.00 1.263756
407.10 1.263544
407.20 1.263332
407.30 1.26312
407.40 1.262909
407.50 1.262697
407.60 1.262485
407.70 1.262274
407.80 1.262062
407.90 1.26185
408.00 1.261602
408.10 1.26128
408.20 1.261015
408.30 1.260839
408.40 1.260663
408.50 1.260165
408.60 1.260016
408.70 1.259868
408.80 1.259667
408.90 1.259145
409.00 1.258918
409.10 1.258691
409.20 1.258464
409.30 1.258238
409.40 1.258014
409.50 1.257875
409.60 1.257737
409.70 1.257565
409.80 1.257262
409.90 1.256968
410.00 1.257007
410.10 1.256394
410.20 1.256201
410.30 1.256113
410.40 1.255952
410.50 1.255561
410.60 1.25517
410.70 1.254843
410.80 1.254774
410.90 1.254705
411.00 1.254517
411.10 1.254286
411.20 1.254054
411.30 1.253747
411.40 1.253152
411.50 1.253014
411.60 1.252877
411.70 1.252711
411.80 1.252436
411.90 1.252094
412.00 1.252152
412.10 1.251544
412.20 1.251602
412.30 1.251108
412.40 1.251052
412.50 1.25054
412.60 1.250408
412.70 1.250103
412.80 1.249756
412.90 1.250011
413.00 1.249501
413.10 1.24929
413.20 1.249079
413.30 1.248868
413.40 1.248657
413.50 1.248368
413.60 1.247843
413.70 1.24757
413.80 1.247297
413.90 1.247024
414.00 1.246751
414.10 1.246478
414.20 1.246522
414.30 1.246183
414.40 1.246108
414.50 1.245638
414.60 1.245773
414.70 1.245501
414.80 1.245229
414.90 1.244956
415.00 1.244684
415.10 1.244412
415.20 1.244111
415.30 1.243716
415.40 1.243321
415.50 1.242934
415.60 1.242805
415.70 1.242676
415.80 1.242537
415.90 1.242369
416.00 1.242201
416.10 1.24201
416.20 1.241726
416.30 1.241442
416.40 1.241158
416.50 1.240875
416.60 1.240605
416.70 1.240325
416.80 1.23973
416.90 1.239785
417.00 1.23919
417.10 1.239255
417.20 1.238986
417.30 1.238713
417.40 1.238349
417.50 1.237985
417.60 1.237686
417.70 1.237639
417.80 1.23737
417.90 1.237102
418.00 1.236833
418.10 1.236565
418.20 1.236296
418.30 1.236043
418.40 1.23614
418.50 1.235829
418.60 1.235519
418.70 1.235208
418.80 1.234898
418.90 1.234588
419.00 1.234278
419.10 1.233969
419.20 1.233659
419.30 1.233355
419.40 1.233221
419.50 1.233086
419.60 1.232905
419.70 1.232534
419.80 1.232163
419.90 1.231831
420.00 1.231621
420.10 1.231411
420.20 1.2312
420.30 1.23099
420.40 1.23078
420.50 1.23057
420.60 1.23036
420.70 1.230151
420.80 1.229941
420.90 1.229727
421.00 1.229372
421.10 1.229017
421.20 1.228696
421.30 1.228476
421.40 1.228256
421.50 1.228036
421.60 1.227816
421.70 1.227596
421.80 1.227376
421.90 1.227144
422.00 1.226874
422.10 1.226581
422.20 1.2262
422.30 1.225819
422.40 1.225442
422.50 1.225182
422.60 1.224921
422.70 1.224661
422.80 1.224401
422.90 1.224141
423.00 1.223882
423.10 1.223622
423.20 1.223362
423.30 1.223103
423.40 1.222843
423.50 1.222584
423.60 1.222325
423.70 1.222066
423.80 1.221807
423.90 1.221548
424.00 1.22129
424.10 1.221031
424.20 1.220773
424.30 1.220514
424.40 1.220189
424.50 1.219931
424.60 1.219673
424.70 1.219415
424.80 1.219157
424.90 1.218899
425.00 1.218641
425.10 1.218384
425.20 1.218126
425.30 1.217869
425.40 1.217608
425.50 1.217325
425.60 1.217042
425.70 1.216759
425.80 1.216476
425.90 1.216194
426.00 1.215911
426.10 1.215629
426.20 1.215347
426.30 1.215065
426.40 1.214783
426.50 1.214501
426.60 1.21422
426.70 1.213938
426.80 1.213657
426.90 1.213376
427.00 1.213102
427.10 1.212827
427.20 1.212553
427.30 1.21228
427.40 1.212006
427.50 1.211732
427.60 1.211459
427.70 1.211185
427.80 1.210912
427.90 1.210639
428.00 1.210366
428.10 1.210093
428.20 1.20982
428.30 1.209548
428.40 1.209275
428.50 1.209003
428.60 1.20873
428.70 1.208458
428.80 1.208187
428.90 1.207918
429.00 1.207649
429.10 1.207381
429.20 1.207113
429.30 1.206845
429.40 1.206577
429.50 1.206309
429.60 1.206041
429.70 1.205773
429.80 1.205506
429.90 1.205238
430.00 1.204971
430.10 1.204704
430.20 1.204436
430.30 1.204169
430.40 1.203903
430.50 1.203636
430.60 1.203369
430.70 1.203103
430.80 1.202836
430.90 1.20257
431.00 1.202304
431.10 1.202038
431.20 1.201772
431.30 1.201507
431.40 1.201254
431.50 1.201
431.60 1.200747
431.70 1.200494
431.80 1.20024
431.90 1.199987
432.00 1.199734
432.10 1.199482
432.20 1.199229
432.30 1.198976
432.40 1.198724
432.50 1.198472
432.60 1.198219
432.70 1.197967
432.80 1.197715
432.90 1.197463
433.00 1.197211
433.10 1.196959
433.20 1.196708
433.30 1.196453
433.40 1.196162
433.50 1.19587
433.60 1.195579
433.70 1.195287
433.80 1.194879
433.90 1.194328
434.00 1.193952
434.10 1.193682
434.20 1.193413
434.30 1.193143
434.40 1.192874
434.50 1.192605
434.60 1.192336
434.70 1.192067
434.80 1.191799
434.90 1.191537
435.00 1.191275
435.10 1.191013
435.20 1.190751
435.30 1.190489
435.40 1.190228
435.50 1.189966
435.60 1.189705
435.70 1.189444
435.80 1.189183
435.90 1.188922
436.00 1.188661
436.10 1.1884
436.20 1.188139
436.30 1.187945
436.40 1.187816
436.50 1.187508
436.60 1.187199
436.70 1.186891
436.80 1.186583
436.90 1.186275
437.00 1.185967
437.10 1.185659
437.20 1.185355
437.30 1.185054
437.40 1.184757
437.50 1.18451
437.60 1.184264
437.70 1.184017
437.80 1.183771
437.90 1.183525
438.00 1.183274
438.10 1.182959
438.20 1.182643
438.30 1.182227
438.40 1.181708
438.50 1.181463
438.60 1.181197
438.70 1.181246
438.80 1.180707
438.90 1.180565
439.00 1.180238
439.10 1.179994
439.20 1.179749
439.30 1.179505
439.40 1.17926
439.50 1.179016
439.60 1.178752
439.70 1.178216
439.80 1.1778
439.90 1.177531
440.00 1.177262
440.10 1.176993
440.20 1.176727
440.30 1.176483
440.40 1.17624
440.50 1.175997
440.60 1.175754
440.70 1.175512
440.80 1.175269
440.90 1.175026
441.00 1.174784
441.10 1.174542
441.20 1.174279
441.30 1.173747
441.40 1.173304
441.50 1.17297
441.60 1.172637
441.70 1.17278
441.80 1.172425
441.90 1.172071
442.00 1.171718
442.10 1.171364
442.20 1.171011
442.30 1.170658
442.40 1.170396
442.50 1.170245
442.60 1.170094
442.70 1.169792
442.80 1.169289
442.90 1.169116
443.00 1.168918
443.10 1.168689
443.20 1.168449
443.30 1.168199
443.40 1.167954
443.50 1.167715
443.60 1.167346
443.70 1.16682
443.80 1.166868
443.90 1.166342
444.00 1.165946
444.10 1.165707
444.20 1.165339
444.30 1.165402
444.40 1.165096
444.50 1.16479
444.60 1.164386
444.70 1.163863
444.80 1.163485
444.90 1.163243
445.00 1.163
445.10 1.162758
445.20 1.162519
445.30 1.162285
445.40 1.162051
445.50 1.161818
445.60 1.161584
445.70 1.16135
445.80 1.16104
445.90 1.160659
446.00 1.160278
446.10 1.159897
446.20 1.159454
446.30 1.159501
446.40 1.159129
446.50 1.158894
446.60 1.158658
446.70 1.158422
446.80 1.158039
446.90 1.157521
447.00 1.157568
447.10 1.157051
447.20 1.156703
447.30 1.156581
447.40 1.15621
447.50 1.155976
447.60 1.155787
447.70 1.155642
447.80 1.155257
447.90 1.155033
448.00 1.154755
448.10 1.154427
448.20 1.154099
448.30 1.153772
448.40 1.153444
448.50 1.153117
448.60 1.152812
448.70 1.152527
448.80 1.152244
448.90 1.151973
449.00 1.151702
449.10 1.151432
449.20 1.151162
449.30 1.150782
449.40 1.150496
449.50 1.150209
449.60 1.149922
449.70 1.149633
449.80 1.149345
449.90 1.149057
450.00 1.148768
450.10 1.14848
450.20 1.148193
450.30 1.147905
450.40 1.147581
450.50 1.147257
450.60 1.146933
450.70 1.146609
450.80 1.146286
450.90 1.145963
451.00 1.145679
451.10 1.145394
451.20 1.145264
451.30 1.145041
451.40 1.144811
451.50 1.144581
451.60 1.144074
451.70 1.143845
451.80 1.143615
451.90 1.143109
452.00 1.142879
452.10 1.14265
452.20 1.142283
452.30 1.141916
452.40 1.141549
452.50 1.141182
452.60 1.141051
452.70 1.140852
452.80 1.140592
452.90 1.140332
453.00 1.140072
453.10 1.139812
453.20 1.139477
453.30 1.139143
453.40 1.138808
453.50 1.138473
453.60 1.138139
453.70 1.137805
453.80 1.137539
453.90 1.137355
454.00 1.137172
454.10 1.136989
454.20 1.136688
454.30 1.136387
454.40 1.136087
454.50 1.135786
454.60 1.135486
454.70 1.13519
454.80 1.134899
454.90 1.134608
455.00 1.134316
455.10 1.134025
455.20 1.133734
455.30 1.133443
455.40 1.133153
455.50 1.132862
455.60 1.132572
455.70 1.132282
455.80 1.131931
455.90 1.13158
456.00 1.131229
456.10 1.130894
456.20 1.1306
456.30 1.130306
456.40 1.130013
456.50 1.129719
456.60 1.129426
456.70 1.129133
456.80 1.12884
456.90 1.128547
457.00 1.128255
457.10 1.127962
457.20 1.127566
457.30 1.127261
457.40 1.126957
457.50 1.126654
457.60 1.12635
457.70 1.126046
457.80 1.125743
457.90 1.12544
458.00 1.125137
458.10 1.124834
458.20 1.124531
458.30 1.124229
458.40 1.123926
458.50 1.123624
458.60 1.123322
458.70 1.12302
458.80 1.122719
458.90 1.122417
459.00 1.122116
459.10 1.121815
459.20 1.121514
459.30 1.12125
459.40 1.120986
459.50 1.120722
459.60 1.120458
459.70 1.120194
459.80 1.119931
459.90 1.119668
460.00 1.119404
460.10 1.119141
460.20 1.118878
460.30 1.118615
460.40 1.118352
460.50 1.11809
460.60 1.117827
460.70 1.117487
460.80 1.11711
460.90 1.116732
461.00 1.116355
461.10 1.115978
461.20 1.115722
461.30 1.115516
461.40 1.1152
461.50 1.114856
461.60 1.114513
461.70 1.11417
461.80 1.113872
461.90 1.113575
462.00 1.113278
462.10 1.112982
462.20 1.112685
462.30 1.112389
462.40 1.112092
462.50 1.111796
462.60 1.1115
462.70 1.111205
462.80 1.110909
462.90 1.110613
463.00 1.110318
463.10 1.110023
463.20 1.109759
463.30 1.109509
463.40 1.109258
463.50 1.109008
463.60 1.108758
463.70 1.108507
463.80 1.108257
463.90 1.107981
464.00 1.107698
464.10 1.107415
464.20 1.107132
464.30 1.10685
464.40 1.106567
464.50 1.106285
464.60 1.106003
464.70 1.105705
464.80 1.1054
464.90 1.105096
465.00 1.104791
465.10 1.104487
465.20 1.104183
465.30 1.103885
465.40 1.10359
465.50 1.103296
465.60 1.103002
465.70 1.102708
465.80 1.102414
465.90 1.102078
466.00 1.101732
466.10 1.101387
466.20 1.101041
466.30 1.100717
466.40 1.1004
466.50 1.100084
466.60 1.099769
466.70 1.099453
466.80 1.099137
466.90 1.098822
467.00 1.098507
467.10 1.098192
467.20 1.097877
467.30 1.097856
467.40 1.097581
467.50 1.097213
467.60 1.096845
467.70 1.096478
467.80 1.09611
467.90 1.095854
468.00 1.095644
468.10 1.095433
468.20 1.095223
468.30 1.09483
468.40 1.094363
468.50 1.094294
468.60 1.093943
468.70 1.093476
468.80 1.093524
468.90 1.093057
469.00 1.092591
469.10 1.092308
469.20 1.092099
469.30 1.09189
469.40 1.091681
469.50 1.091369
469.60 1.091014
469.70 1.09066
469.80 1.090307
469.90 1.089944
470.00 1.089856
470.10 1.089602
470.20 1.089243
470.30 1.088884
470.40 1.088525
470.50 1.088166
470.60 1.087826
470.70 1.087491
470.80 1.087157
470.90 1.086823
471.00 1.08676
471.10 1.086434
471.20 1.085973
471.30 1.086021
471.40 1.08556
471.50 1.0851
471.60 1.084843
471.70 1.084637
471.80 1.084329
471.90 1.083996
472.00 1.083664
472.10 1.083331
472.20 1.083057
472.30 1.082797
472.40 1.082538
472.50 1.082279
472.60 1.082019
472.70 1.081619
472.80 1.081283
472.90 1.080977
473.00 1.080672
473.10 1.080366
473.20 1.080061
473.30 1.079756
473.40 1.079451
473.50 1.079146
473.60 1.078841
473.70 1.078537
473.80 1.07821
473.90 1.077878
474.00 1.077546
474.10 1.077215
474.20 1.07695
474.30 1.076714
474.40 1.076477
474.50 1.07624
474.60 1.075997
474.70 1.075681
474.80 1.075365
474.90 1.07505
475.00 1.074735
475.10 1.07442
475.20 1.074105
475.30 1.07379
475.40 1.073514
475.50 1.073248
475.60 1.072982
475.70 1.072716
475.80 1.07245
475.90 1.072184
476.00 1.071918
476.10 1.071653
476.20 1.071359
476.30 1.071053
476.40 1.070747
476.50 1.070442
476.60 1.070137
476.70 1.069832
476.80 1.069527
476.90 1.069217
477.00 1.068906
477.10 1.068595
477.20 1.068284
477.30 1.067973
477.40 1.067663
477.50 1.067353
477.60 1.067043
477.70 1.066733
477.80 1.066423
477.90 1.066114
478.00 1.065804
478.10 1.065495
478.20 1.065186
478.30 1.064877
478.40 1.064568
478.50 1.06426
478.60 1.063951
478.70 1.063729
478.80 1.063543
478.90 1.063227
479.00 1.062878
479.10 1.06253
479.20 1.062181
479.30 1.061833
479.40 1.061513
479.50 1.06121
479.60 1.060907
479.70 1.060603
479.80 1.060301
479.90 1.059998
480.00 1.059695
480.10 1.059393
480.20 1.05909
480.30 1.058788
480.40 1.058486
480.50 1.058185
480.60 1.057883
480.70 1.057581
480.80 1.05728
480.90 1.056979
481.00 1.056678
481.10 1.056377
481.20 1.056072
481.30 1.055767
481.40 1.055462
481.50 1.055157
481.60 1.054853
481.70 1.054549
481.80 1.054244
481.90 1.05394
482.00 1.053637
482.10 1.053333
482.20 1.05303
482.30 1.052731
482.40 1.052433
482.50 1.052134
482.60 1.051836
482.70 1.051538
482.80 1.05124
482.90 1.050943
483.00 1.050645
483.10 1.050348
483.20 1.050051
483.30 1.049754
483.40 1.049457
483.50 1.04916
483.60 1.048864
483.70 1.048612
483.80 1.048361
483.90 1.048109
484.00 1.047858
484.10 1.047607
484.20 1.047289
484.30 1.046942
484.40 1.046595
484.50 1.046249
484.60 1.045903
484.70 1.045562
484.80 1.045289
484.90 1.045017
485.00 1.044745
485.10 1.044473
485.20 1.044201
485.30 1.043929
485.40 1.043658
485.50 1.043387
485.60 1.043115
485.70 1.042817
485.80 1.042519
485.90 1.042221
486.00 1.041924
486.10 1.041626
486.20 1.041329
486.30 1.041032
486.40 1.040735
486.50 1.040438
486.60 1.040141
486.70 1.039844
486.80 1.039534
486.90 1.039224
487.00 1.038914
487.10 1.038605
487.20 1.038309
487.30 1.038013
487.40 1.037718
487.50 1.037423
487.60 1.037128
487.70 1.036833
487.80 1.036538
487.90 1.036243
488.00 1.035949
488.10 1.035654
488.20 1.035358
488.30 1.035027
488.40 1.034697
488.50 1.034366
488.60 1.034036
488.70 1.033707
488.80 1.033457
488.90 1.033208
489.00 1.032929
489.10 1.032572
489.20 1.032214
489.30 1.031857
489.40 1.0315
489.50 1.031144
489.60 1.030787
489.70 1.030431
489.80 1.030487
489.90 1.03016
490.00 1.029832
490.10 1.029505
490.20 1.029177
490.30 1.02885
490.40 1.028548
490.50 1.028246
490.60 1.027944
490.70 1.027642
490.80 1.027254
490.90 1.027274
491.00 1.026856
491.10 1.026437
491.20 1.026019
491.30 1.02607
491.40 1.025652
491.50 1.025235
491.60 1.024884
491.70 1.024675
491.80 1.024451
491.90 1.024035
492.00 1.023619
492.10 1.023669
492.20 1.023253
492.30 1.022837
492.40 1.022453
492.50 1.022473
492.60 1.022066
492.70 1.021767
492.80 1.021469
492.90 1.02117
493.00 1.020871
493.10 1.020548
493.20 1.020226
493.30 1.019904
493.40 1.019582
493.50 1.01926
493.60 1.01886
493.70 1.01862
493.80 1.01838
493.90 1.018073
494.00 1.017661
494.10 1.017305
494.20 1.01707
494.30 1.016835
494.40 1.016599
494.50 1.016364
494.60 1.016117
494.70 1.015706
494.80 1.015332
494.90 1.015063
495.00 1.014795
495.10 1.014526
495.20 1.014212
495.30 1.013897
495.40 1.013583
495.50 1.013269
495.60 1.012955
495.70 1.012641
495.80 1.012328
495.90 1.012015
496.00 1.011701
496.10 1.011475
496.20 1.011417
496.30 1.011122
496.40 1.010827
496.50 1.010533
496.60 1.010238
496.70 1.0099
496.80 1.009561
496.90 1.009222
497.00 1.008884
497.10 1.008546
497.20 1.008208
497.30 1.007893
497.40 1.007643
497.50 1.007394
497.60 1.007094
497.70 1.006697
497.80 1.006393
497.90 1.006089
498.00 1.005785
498.10 1.005482
498.20 1.005179
498.30 1.004876
498.40 1.004573
498.50 1.00427
498.60 1.003967
498.70 1.003792
498.80 1.003616
498.90 1.003214
499.00 1.002812
499.10 1.00241
499.20 1.002145
499.30 1.002088
499.40 1.001795
499.50 1.001502
499.60 1.001209
499.70 1.000915
499.80 1.00061
499.90 1.000305
500.00 1
500.10 0.9996952
500.20 0.9993842
500.30 0.9990599
500.40 0.9987358
500.50 0.9984119
500.60 0.9980882
500.70 0.9977646
500.80 0.9974606
500.90 0.997198
501.00 0.9969355
501.10 0.9966731
501.20 0.9962754
501.30 0.995878
501.40 0.9954808
501.50 0.9955328
501.60 0.9951359
501.70 0.9947393
501.80 0.9944146
501.90 0.9942426
502.00 0.9939989
502.10 0.993603
502.20 0.9932252
502.30 0.9930856
502.40 0.992888
502.50 0.9925674
502.60 0.992247
502.70 0.9919267
502.80 0.9916067
502.90 0.9912868
503.00 0.9909784
503.10 0.9906944
503.20 0.9904106
503.30 0.9901268
503.40 0.9898427
503.50 0.9895572
503.60 0.9892718
503.70 0.9889865
503.80 0.9886885
503.90 0.9882962
504.00 0.9879391
504.10 0.9876566
504.20 0.9873743
504.30 0.9870921
504.40 0.9867817
504.50 0.9863905
504.60 0.9859996
504.70 0.9860523
504.80 0.9856617
504.90 0.9852713
505.00 0.9849387
505.10 0.98477
505.20 0.9845439
505.30 0.9841543
505.40 0.9837649
505.50 0.9833757
505.60 0.9830334
505.70 0.9827904
505.80 0.9825475
505.90 0.9823048
506.00 0.9820621
506.10 0.9818196
506.20 0.981565
506.30 0.9812758
506.40 0.9809868
506.50 0.980698
506.60 0.9804093
506.70 0.9801208
506.80 0.9798324
506.90 0.9795442
507.00 0.9792561
507.10 0.9789367
507.20 0.9785722
507.30 0.9782687
507.40 0.9779654
507.50 0.9776622
507.60 0.9773592
507.70 0.9770564
507.80 0.9767537
507.90 0.9764512
508.00 0.9761489
508.10 0.9758467
508.20 0.9755447
508.30 0.9752429
508.40 0.9749412
508.50 0.9746397
508.60 0.9743383
508.70 0.9740371
508.80 0.9737148
508.90 0.9734655
509.00 0.9732632
509.10 0.9730264
509.20 0.9727165
509.30 0.9724068
509.40 0.9720972
509.50 0.9717878
509.60 0.9714785
509.70 0.9711695
509.80 0.9708606
509.90 0.9705519
510.00 0.9702433
510.10 0.9699349
510.20 0.9696267
510.30 0.9693173
510.40 0.9690045
510.50 0.9686919
510.60 0.9683795
510.70 0.9680672
510.80 0.9677551
510.90 0.9674432
511.00 0.9671314
511.10 0.9668198
511.20 0.9665084
511.30 0.9661971
511.40 0.9658861
511.50 0.9655751
511.60 0.9652822
511.70 0.9650271
511.80 0.9647722
511.90 0.9645174
512.00 0.9642627
512.10 0.9640081
512.20 0.9637537
512.30 0.9634882
512.40 0.9631908
512.50 0.9628936
512.60 0.9625966
512.70 0.9622997
512.80 0.962003
512.90 0.9617065
513.00 0.9614101
513.10 0.9611138
513.20 0.9608177
513.30 0.9605218
513.40 0.9602261
513.50 0.9599304
513.60 0.959635
513.70 0.9593397
513.80 0.9590446
513.90 0.9587496
514.00 0.958459
514.10 0.9581693
514.20 0.9578798
514.30 0.9575904
514.40 0.9573012
514.50 0.9570121
514.60 0.9567231
514.70 0.9564343
514.80 0.9561457
514.90 0.9558572
515.00 0.9555689
515.10 0.9552807
515.20 0.9549927
515.30 0.9547048
515.40 0.9544171
515.50 0.9541295
515.60 0.9538421
515.70 0.9535549
515.80 0.9532677
515.90 0.9529808
516.00 0.952694
516.10 0.9524073
516.20 0.9521208
516.30 0.9518344
516.40 0.9515482
516.50 0.9512595
516.60 0.9509572
516.70 0.950655
516.80 0.9503529
516.90 0.9500511
517.00 0.9497494
517.10 0.9494478
517.20 0.9491465
517.30 0.9488452
517.40 0.9485442
517.50 0.9482433
517.60 0.9479426
517.70 0.947642
517.80 0.9473416
517.90 0.9470414
518.00 0.9467413
518.10 0.9464414
518.20 0.9461416
518.30 0.945842
518.40 0.9455426
518.50 0.9452433
518.60 0.9449442
518.70 0.9446452
518.80 0.9443464
518.90 0.9440478
519.00 0.9437493
519.10 0.9434544
519.20 0.9431637
519.30 0.9428731
519.40 0.9425826
519.50 0.9422923
519.60 0.9420022
519.70 0.9417122
519.80 0.9414224
519.90 0.9411327
520.00 0.9408432
520.10 0.9405538
520.20 0.9402646
520.30 0.9399755
520.40 0.9396866
520.50 0.9393978
520.60 0.9391092
520.70 0.9388208
520.80 0.9385325
520.90 0.9382443
521.00 0.9379563
521.10 0.9376685
521.20 0.9373808
521.30 0.9370932
521.40 0.9368058
521.50 0.9365186
521.60 0.9362315
521.70 0.9359446
521.80 0.9356578
521.90 0.9353711
522.00 0.9350847
522.10 0.9347983
522.20 0.9345121
522.30 0.9342261
522.40 0.9339402
522.50 0.9336545
522.60 0.9333689
522.70 0.9330835
522.80 0.9327982
522.90 0.9325131
523.00 0.9322281
523.10 0.9319432
523.20 0.9316586
523.30 0.931374
523.40 0.9310896
523.50 0.9308054
523.60 0.9305213
523.70 0.9302374
523.80 0.9299536
523.90 0.9296699
524.00 0.9293865
524.10 0.9291031
524.20 0.9288199
524.30 0.9285277
524.40 0.9282285
524.50 0.9279294
524.60 0.9276304
524.70 0.9273317
524.80 0.927033
524.90 0.9267346
525.00 0.9264363
525.10 0.9261382
525.20 0.9258402
525.30 0.9255424
525.40 0.9252447
525.50 0.9249472
525.60 0.9246499
525.70 0.9243527
525.80 0.9240557
525.90 0.9237589
526.00 0.9234622
526.10 0.9231656
526.20 0.9228692
526.30 0.922573
526.40 0.922277
526.50 0.9219811
526.60 0.9216853
526.70 0.9213897
526.80 0.9210943
526.90 0.920799
527.00 0.9205039
527.10 0.9202089
527.20 0.9199141
527.30 0.9196195
527.40 0.919325
527.50 0.9190307
527.60 0.9187365
527.70 0.9184425
527.80 0.9181486
527.90 0.9178549
528.00 0.9175614
528.10 0.917268
528.20 0.9169748
528.30 0.9166817
528.40 0.9163888
528.50 0.916096
528.60 0.9158034
528.70 0.915511
528.80 0.9152187
528.90 0.9149265
529.00 0.9146346
529.10 0.9143427
529.20 0.9140511
529.30 0.9137595
529.40 0.9134682
529.50 0.913178
529.60 0.912894
529.70 0.9126101
529.80 0.9123264
529.90 0.9120429
530.00 0.9117595
530.10 0.9114762
530.20 0.9111931
530.30 0.9109101
530.40 0.9106273
530.50 0.9103447
530.60 0.9100622
530.70 0.9097798
530.80 0.9094976
530.90 0.9092155
531.00 0.9089336
531.10 0.9086518
531.20 0.9083702
531.30 0.9080887
531.40 0.9078074
531.50 0.9075262
531.60 0.9072452
531.70 0.9069643
531.80 0.9066836
531.90 0.906403
532.00 0.9061225
532.10 0.9058422
532.20 0.9055621
532.30 0.9052821
532.40 0.9050023
532.50 0.9047226
532.60 0.9044431
532.70 0.9041637
532.80 0.9038844
532.90 0.9036053
533.00 0.9033264
533.10 0.9030475
533.20 0.9027689
533.30 0.9024904
533.40 0.902212
533.50 0.9019337
533.60 0.9016557
533.70 0.9013777
533.80 0.9010999
533.90 0.9008223
534.00 0.9005448
534.10 0.9002674
534.20 0.8999902
534.30 0.8997131
534.40 0.8994362
534.50 0.8991594
534.60 0.8988828
534.70 0.8986063
534.80 0.898327
534.90 0.8980354
535.00 0.897744
535.10 0.8974527
535.20 0.8971616
535.30 0.8968707
535.40 0.8965799
535.50 0.8962893
535.60 0.8959988
535.70 0.8957084
535.80 0.8954183
535.90 0.8951282
536.00 0.8948384
536.10 0.8945486
536.20 0.8942591
536.30 0.8939697
536.40 0.8936804
536.50 0.8933913
536.60 0.8931024
536.70 0.8928136
536.80 0.8925249
536.90 0.8922365
537.00 0.8919481
537.10 0.8916599
537.20 0.8913719
537.30 0.891084
537.40 0.8907963
537.50 0.8905087
537.60 0.8902213
537.70 0.889934
537.80 0.8896469
537.90 0.88936
538.00 0.8890732
538.10 0.8887865
538.20 0.8885
538.30 0.8882136
538.40 0.8879274
538.50 0.8876414
538.60 0.8873555
538.70 0.8870697
538.80 0.8867841
538.90 0.8864987
539.00 0.8862134
539.10 0.8859282
539.20 0.8856432
539.30 0.8853584
539.40 0.8850737
539.50 0.8847891
539.60 0.8845047
539.70 0.8842205
539.80 0.8839364
539.90 0.8836525
540.00 0.8833687
540.10 0.883085
540.20 0.8828012
540.30 0.8825174
540.40 0.8822338
540.50 0.8819503
540.60 0.881667
540.70 0.8813838
540.80 0.8811008
540.90 0.8808179
541.00 0.8805352
541.10 0.8802526
541.20 0.8799702
541.30 0.8796879
541.40 0.8794058
541.50 0.8791238
541.60 0.8788419
541.70 0.8785602
541.80 0.8782787
541.90 0.8779973
542.00 0.8777161
542.10 0.877435
542.20 0.877154
542.30 0.8768732
542.40 0.8765926
542.50 0.876312
542.60 0.8760317
542.70 0.8757515
542.80 0.8754714
542.90 0.8751915
543.00 0.8749117
543.10 0.8746321
543.20 0.8743526
543.30 0.8740733
543.40 0.8737941
543.50 0.873515
543.60 0.8732361
543.70 0.8729574
543.80 0.8726788
543.90 0.8724003
544.00 0.872122
544.10 0.8718439
544.20 0.8715658
544.30 0.871288
544.40 0.8710102
544.50 0.8707327
544.60 0.8704552
544.70 0.8701779
544.80 0.8699008
544.90 0.8696238
545.00 0.8693469
545.10 0.8690702
545.20 0.8687936
545.30 0.8685172
545.40 0.8682409
545.50 0.8679648
545.60 0.8676885
545.70 0.8674122
545.80 0.8671361
545.90 0.8668601
546.00 0.8665843
546.10 0.8663086
546.20 0.866033
546.30 0.8657576
546.40 0.8654823
546.50 0.8652072
546.60 0.8649322
546.70 0.8646574
546.80 0.8643827
546.90 0.8641081
547.00 0.8638337
547.10 0.8635595
547.20 0.8632853
547.30 0.8630114
547.40 0.8627375
547.50 0.8624638
547.60 0.8621903
547.70 0.8619169
547.80 0.8616436
547.90 0.8613705
548.00 0.8610975
548.10 0.8608247
548.20 0.860552
548.30 0.8602794
548.40 0.860007
548.50 0.8597347
548.60 0.8594626
548.70 0.8591907
548.80 0.8589188
548.90 0.8586471
549.00 0.8583756
549.10 0.8581042
549.20 0.8578329
549.30 0.8575618
549.40 0.8572908
549.50 0.8570199
549.60 0.8567492
549.70 0.8564786
549.80 0.8562082
549.90 0.8559379
550.00 0.8556678
550.10 0.8553977
550.20 0.8551279
550.30 0.8548581
550.40 0.8545886
550.50 0.8543191
550.60 0.8540498
550.70 0.8537806
550.80 0.8535116
550.90 0.8532427
551.00 0.8529718
551.10 0.8526893
551.20 0.8524069
551.30 0.8521247
551.40 0.8518426
551.50 0.8515607
551.60 0.8512789
551.70 0.8509973
551.80 0.8507158
551.90 0.8504344
552.00 0.8501532
552.10 0.8498722
552.20 0.8495913
552.30 0.8493105
552.40 0.8490299
552.50 0.8487495
552.60 0.8484692
552.70 0.848189
552.80 0.847909
552.90 0.8476291
553.00 0.8473494
553.10 0.8470698
553.20 0.8467904
553.30 0.8465111
553.40 0.846232
553.50 0.845953
553.60 0.8456742
553.70 0.8453955
553.80 0.8451169
553.90 0.8448385
554.00 0.8445603
554.10 0.8442822
554.20 0.8440042
554.30 0.8437264
554.40 0.8434487
554.50 0.8431712
554.60 0.8428938
554.70 0.8426166
554.80 0.8423395
554.90 0.8420625
555.00 0.8417857
555.10 0.8415091
555.20 0.8412326
555.30 0.8409562
555.40 0.84068
555.50 0.8404039
555.60 0.840128
555.70 0.8398522
555.80 0.8395765
555.90 0.839301
556.00 0.8390257
556.10 0.8387504
556.20 0.8384754
556.30 0.8382004
556.40 0.8379257
556.50 0.8376513
556.60 0.8373831
556.70 0.8371151
556.80 0.8368471
556.90 0.8365793
557.00 0.8363117
557.10 0.8360442
557.20 0.8357768
557.30 0.8355095
557.40 0.8352424
557.50 0.8349755
557.60 0.8347086
557.70 0.834442
557.80 0.8341754
557.90 0.833909
558.00 0.8336427
558.10 0.8333766
558.20 0.8331106
558.30 0.8328447
558.40 0.832579
558.50 0.8323134
558.60 0.8320479
558.70 0.8317826
558.80 0.8315174
558.90 0.8312524
559.00 0.8309875
559.10 0.8307227
559.20 0.8304581
559.30 0.8301936
559.40 0.8299292
559.50 0.829665
559.60 0.8294009
559.70 0.8291369
559.80 0.8288731
559.90 0.8286094
560.00 0.8283459
560.10 0.8280825
560.20 0.8278192
560.30 0.827556
560.40 0.827293
560.50 0.8270302
560.60 0.8267674
560.70 0.8265048
560.80 0.8262424
560.90 0.82598
561.00 0.8257178
561.10 0.8254558
561.20 0.8251938
561.30 0.824932
561.40 0.8246704
561.50 0.8244088
561.60 0.8241474
561.70 0.8238862
561.80 0.8236251
561.90 0.8233641
562.00 0.8231032
562.10 0.8228347
562.20 0.8225547
562.30 0.8222749
562.40 0.8219952
562.50 0.8217157
562.60 0.8214363
562.70 0.821157
562.80 0.8208779
562.90 0.820599
563.00 0.8203202
563.10 0.8200415
563.20 0.819763
563.30 0.8194846
563.40 0.8192064
563.50 0.8189283
563.60 0.8186504
563.70 0.8183726
563.80 0.818095
563.90 0.8178175
564.00 0.8175401
564.10 0.8172629
564.20 0.8169858
564.30 0.8167089
564.40 0.8164322
564.50 0.8161555
564.60 0.8158791
564.70 0.8156027
564.80 0.8153265
564.90 0.8150541
565.00 0.8147908
565.10 0.8145277
565.20 0.8142646
565.30 0.8140017
565.40 0.8137389
565.50 0.8134763
565.60 0.8132138
565.70 0.8129514
565.80 0.8126892
565.90 0.8124271
566.00 0.8121652
566.10 0.8119033
566.20 0.8116416
566.30 0.8113801
566.40 0.8111187
566.50 0.8108574
566.60 0.8105962
566.70 0.8103352
566.80 0.8100743
566.90 0.8098136
567.00 0.8095529
567.10 0.8092925
567.20 0.8090321
567.30 0.8087719
567.40 0.8085118
567.50 0.8082518
567.60 0.807992
567.70 0.8077311
567.80 0.8074651
567.90 0.8071993
568.00 0.8069336
568.10 0.806668
568.20 0.8064026
568.30 0.8061373
568.40 0.8058722
568.50 0.8056071
568.60 0.8053423
568.70 0.8050775
568.80 0.8048129
568.90 0.8045484
569.00 0.8042841
569.10 0.8040199
569.20 0.8037558
569.30 0.8034919
569.40 0.8032281
569.50 0.8029645
569.60 0.8027009
569.70 0.8024376
569.80 0.8021743
569.90 0.8019112
570.00 0.8016482
570.10 0.8013854
570.20 0.8011227
570.30 0.8008601
570.40 0.8005976
570.50 0.8003353
570.60 0.8000732
570.70 0.7998111
570.80 0.7995492
570.90 0.7992875
571.00 0.7990258
571.10 0.7987643
571.20 0.798503
571.30 0.7982418
571.40 0.7979807
571.50 0.7977197
571.60 0.7974589
571.70 0.7971982
571.80 0.7969376
571.90 0.7966772
572.00 0.7964169
572.10 0.7961567
572.20 0.7958967
572.30 0.7956368
572.40 0.7953771
572.50 0.7951174
572.60 0.7948579
572.70 0.7945986
572.80 0.7943393
572.90 0.7940802
573.00 0.7938213
573.10 0.7935624
573.20 0.7933037
573.30 0.7930452
573.40 0.792786
573.50 0.7925259
573.60 0.7922659
573.70 0.792006
573.80 0.7917463
573.90 0.7914867
574.00 0.7912273
574.10 0.790968
574.20 0.7907088
574.30 0.7904498
574.40 0.7901908
574.50 0.789932
574.60 0.7896734
574.70 0.7894149
574.80 0.7891565
574.90 0.7888982
575.00 0.7886401
575.10 0.7883821
575.20 0.7881242
575.30 0.7878665
575.40 0.7876089
575.50 0.7873515
575.60 0.7870941
575.70 0.7868369
575.80 0.7865798
575.90 0.7863229
576.00 0.7860661
576.10 0.7858094
576.20 0.7855529
576.30 0.7852964
576.40 0.7850401
576.50 0.784784
576.60 0.784528
576.70 0.7842721
576.80 0.7840163
576.90 0.7837607
577.00 0.7835052
577.10 0.7832498
577.20 0.7829945
577.30 0.7827394
577.40 0.7824844
577.50 0.7822296
577.60 0.7819687
577.70 0.781698
577.80 0.7814275
577.90 0.7811571
578.00 0.7808868
578.10 0.7806167
578.20 0.7803467
578.30 0.7800768
578.40 0.7798071
578.50 0.7795375
578.60 0.7792681
578.70 0.7789988
578.80 0.7787297
578.90 0.7784606
579.00 0.7781918
579.10 0.7779261
579.20 0.7776922
579.30 0.7774584
579.40 0.7772247
579.50 0.7769911
579.60 0.7767577
579.70 0.7765243
579.80 0.7762911
579.90 0.7760579
580.00 0.7758249
580.10 0.7755789
580.20 0.7753116
580.30 0.7750444
580.40 0.7747773
580.50 0.7745104
580.60 0.7742437
580.70 0.773977
580.80 0.7737105
580.90 0.7734442
581.00 0.7731779
581.10 0.7729119
581.20 0.7726459
581.30 0.7723801
581.40 0.7721144
581.50 0.7718489
581.60 0.7715835
581.70 0.7713182
581.80 0.7710531
581.90 0.7707881
582.00 0.7705233
582.10 0.770267
582.20 0.7700246
582.30 0.7697824
582.40 0.7695402
582.50 0.7692982
582.60 0.7690563
582.70 0.7688146
582.80 0.7685729
582.90 0.7683314
583.00 0.76809
583.10 0.7678487
583.20 0.7676076
583.30 0.7673665
583.40 0.7671256
583.50 0.7668848
583.60 0.7666357
583.70 0.766373
583.80 0.7661105
583.90 0.7658481
584.00 0.7655859
584.10 0.7653238
584.20 0.7650618
584.30 0.7647999
584.40 0.7645382
584.50 0.7642766
584.60 0.7640152
584.70 0.7637539
584.80 0.7634927
584.90 0.7632316
585.00 0.7629707
585.10 0.7627099
585.20 0.7624493
585.30 0.7621888
585.40 0.7619284
585.50 0.7616682
585.60 0.7614081
585.70 0.7611481
585.80 0.7608882
585.90 0.7606285
586.00 0.7603689
586.10 0.7601095
586.20 0.7598502
586.30 0.759591
586.40 0.759332
586.50 0.7590731
586.60 0.7588143
586.70 0.7585556
586.80 0.7583283
586.90 0.7581518
587.00 0.7579755
587.10 0.7577992
587.20 0.7575919
587.30 0.7573339
587.40 0.7570761
587.50 0.7568184
587.60 0.7565608
587.70 0.7563034
587.80 0.756046
587.90 0.7557889
588.00 0.7555318
588.10 0.7552749
588.20 0.7550181
588.30 0.7547615
588.40 0.7545049
588.50 0.7542485
588.60 0.7539923
588.70 0.7537361
588.80 0.7534801
588.90 0.7532243
589.00 0.7529685
589.10 0.7527129
589.20 0.7524574
589.30 0.7522021
589.40 0.7519469
589.50 0.7516918
589.60 0.7514368
589.70 0.751182
589.80 0.7509273
589.90 0.7506727
590.00 0.7504182
590.10 0.7501639
590.20 0.7499097
590.30 0.7496557
590.40 0.7494018
590.50 0.749148
590.60 0.7488943
590.70 0.7486408
590.80 0.7483873
590.90 0.7481341
591.00 0.7478809
591.10 0.7476279
591.20 0.747375
591.30 0.7471222
591.40 0.7468696
591.50 0.7466171
591.60 0.7463647
591.70 0.7461124
591.80 0.7458603
591.90 0.7456083
592.00 0.7453564
592.10 0.7451047
592.20 0.7448531
592.30 0.7446016
592.40 0.7443502
592.50 0.744099
592.60 0.7438479
592.70 0.7435969
592.80 0.743346
592.90 0.7430953
593.00 0.7428447
593.10 0.7426003
593.20 0.742366
593.30 0.7421318
593.40 0.7418978
593.50 0.7416638
593.60 0.74143
593.70 0.7411962
593.80 0.7409626
593.90 0.7407291
594.00 0.7404957
594.10 0.7402625
594.20 0.7400293
594.30 0.7397963
594.40 0.7395634
594.50 0.7393306
594.60 0.7390979
594.70 0.7388653
594.80 0.7386329
594.90 0.7384005
595.00 0.7381683
595.10 0.7379301
595.20 0.7376822
595.30 0.7374344
595.40 0.7371867
595.50 0.7369391
595.60 0.7366917
595.70 0.7364443
595.80 0.7361972
595.90 0.7359501
596.00 0.7357031
596.10 0.7354563
596.20 0.7352096
596.30 0.7349631
596.40 0.7347166
596.50 0.7344703
596.60 0.7342241
596.70 0.733978
596.80 0.7337321
596.90 0.7334862
597.00 0.7332405
597.10 0.732995
597.20 0.7327495
597.30 0.7325042
597.40 0.732259
597.50 0.7320139
597.60 0.7317689
597.70 0.7315241
597.80 0.7312793
597.90 0.7310348
598.00 0.7307903
598.10 0.7305459
598.20 0.7303017
598.30 0.7300576
598.40 0.7298136
598.50 0.7295698
598.60 0.729326
598.70 0.7290824
598.80 0.7288389
598.90 0.7285955
599.00 0.7283523
599.10 0.7281092
599.20 0.7278661
599.30 0.7276233
599.40 0.7273805
599.50 0.7271379
599.60 0.7268953
599.70 0.7266529
599.80 0.7264107
599.90 0.7261685
600.00 0.7259265
600.10 0.7256845
600.20 0.7254428
600.30 0.7252011
600.40 0.7249595
600.50 0.7247181
600.60 0.7244768
600.70 0.7242356
600.80 0.7239945
600.90 0.7237536
601.00 0.7235127
601.10 0.723272
601.20 0.7230314
601.30 0.722791
601.40 0.7225506
601.50 0.7223104
601.60 0.7220703
601.70 0.7218303
601.80 0.7215904
601.90 0.7213507
602.00 0.721111
602.10 0.7208715
602.20 0.7206321
602.30 0.7203929
602.40 0.7201537
602.50 0.7199147
602.60 0.7196758
602.70 0.719437
602.80 0.7191983
602.90 0.7189403
603.00 0.7186825
603.10 0.7184247
603.20 0.7181672
603.30 0.7179097
603.40 0.7176524
603.50 0.7173952
603.60 0.7171381
603.70 0.7168812
603.80 0.7166244
603.90 0.7163677
604.00 0.7161112
604.10 0.7158548
604.20 0.7155985
604.30 0.7153424
604.40 0.7150864
604.50 0.7148498
604.60 0.7146133
604.70 0.714377
604.80 0.7141408
604.90 0.7139047
605.00 0.7136687
605.10 0.7134329
605.20 0.7131971
605.30 0.7129615
605.40 0.712726
605.50 0.7124906
605.60 0.7122553
605.70 0.7120201
605.80 0.7117851
605.90 0.7115501
606.00 0.7113153
606.10 0.7110806
606.20 0.710846
606.30 0.7106116
606.40 0.7103772
606.50 0.710143
606.60 0.7099089
606.70 0.7096749
606.80 0.709441
606.90 0.7092072
607.00 0.7089735
607.10 0.70874
607.20 0.7085066
607.30 0.7082733
607.40 0.7080401
607.50 0.707807
607.60 0.707574
607.70 0.7073412
607.80 0.7071084
607.90 0.7068758
608.00 0.7066433
608.10 0.7064109
608.20 0.7061786
608.30 0.7059465
608.40 0.7057144
608.50 0.7054825
608.60 0.7052507
608.70 0.705019
608.80 0.7047874
608.90 0.7045559
609.00 0.7043245
609.10 0.7040933
609.20 0.7038622
609.30 0.7036311
609.40 0.7034002
609.50 0.7031694
609.60 0.7029388
609.70 0.7027082
609.80 0.7024777
609.90 0.7022474
610.00 0.7020172
610.10 0.7017871
610.20 0.7015571
610.30 0.7013272
610.40 0.7010974
610.50 0.7008677
610.60 0.7006382
610.70 0.7004088
610.80 0.7001794
610.90 0.6999301
611.00 0.6996808
611.10 0.6994317
611.20 0.6991827
611.30 0.6989338
611.40 0.698685
611.50 0.6984364
611.60 0.6981879
611.70 0.6979395
611.80 0.6976912
611.90 0.6974431
612.00 0.6971951
612.10 0.6969472
612.20 0.6966995
612.30 0.6964518
612.40 0.6962244
612.50 0.6959971
612.60 0.6957699
612.70 0.6955428
612.80 0.6953158
612.90 0.6950889
613.00 0.6948622
613.10 0.6946355
613.20 0.694409
613.30 0.6941825
613.40 0.6939562
613.50 0.69373
613.60 0.6935039
613.70 0.6932779
613.80 0.693052
613.90 0.6928263
614.00 0.6926006
614.10 0.6923751
614.20 0.6921496
614.30 0.6919243
614.40 0.6916991
614.50 0.691474
614.60 0.691249
614.70 0.6910241
614.80 0.6907874
614.90 0.6905484
615.00 0.6903095
615.10 0.6900707
615.20 0.6898321
615.30 0.6895936
615.40 0.6893552
615.50 0.6891169
615.60 0.6888787
615.70 0.6886406
615.80 0.6884027
615.90 0.6881649
616.00 0.6879272
616.10 0.6876896
616.20 0.6874521
616.30 0.6872148
616.40 0.6869776
616.50 0.6867404
616.60 0.6865034
616.70 0.6862666
616.80 0.6860298
616.90 0.6858001
617.00 0.6855705
617.10 0.6853411
617.20 0.6851117
617.30 0.6848825
617.40 0.6846533
617.50 0.6844243
617.60 0.6841954
617.70 0.6839666
617.80 0.6837379
617.90 0.6835094
618.00 0.6832809
618.10 0.6830525
618.20 0.6828243
618.30 0.6825962
618.40 0.6823682
618.50 0.6821403
618.60 0.6819125
618.70 0.6816848
618.80 0.6814573
618.90 0.6812298
619.00 0.6810025
619.10 0.6807752
619.20 0.6805481
619.30 0.6803211
619.40 0.6800942
619.50 0.6798674
619.60 0.6796407
619.70 0.6794142
619.80 0.6791877
619.90 0.6789614
620.00 0.6787352
620.10 0.678509
620.20 0.678283
620.30 0.6780571
620.40 0.6778313
620.50 0.6776057
620.60 0.6773801
620.70 0.6771546
620.80 0.6769293
620.90 0.6767032
621.00 0.6764759
621.10 0.6762486
621.20 0.6760215
621.30 0.6757945
621.40 0.6755676
621.50 0.6753408
621.60 0.6751141
621.70 0.6748875
621.80 0.674661
621.90 0.6744347
622.00 0.6742084
622.10 0.6739823
622.20 0.6737563
622.30 0.6735304
622.40 0.6733046
622.50 0.6730789
622.60 0.6728533
622.70 0.6726278
622.80 0.6724025
622.90 0.6721772
623.00 0.6719521
623.10 0.671727
623.20 0.6715021
623.30 0.6712773
623.40 0.6710526
623.50 0.670828
623.60 0.6706035
623.70 0.6703791
623.80 0.6701549
623.90 0.6699307
624.00 0.6697067
624.10 0.6694827
624.20 0.6692589
624.30 0.6690352
624.40 0.6688116
624.50 0.6685881
624.60 0.6683647
624.70 0.6681414
624.80 0.6679182
624.90 0.6676951
625.00 0.6674722
625.10 0.6672493
625.20 0.6670266
625.30 0.666804
625.40 0.6665814
625.50 0.666359
625.60 0.6661367
625.70 0.6659145
625.80 0.6656924
625.90 0.6654704
626.00 0.6652486
626.10 0.6650268
626.20 0.6648051
626.30 0.6645836
626.40 0.6643621
626.50 0.6641408
626.60 0.6639196
626.70 0.6636984
626.80 0.6634774
626.90 0.6632565
627.00 0.6630357
627.10 0.6628126
627.20 0.6625829
627.30 0.6623534
627.40 0.6621239
627.50 0.6618946
627.60 0.6616654
627.70 0.6614363
627.80 0.6612074
627.90 0.6609785
628.00 0.6607497
628.10 0.6605211
628.20 0.6602926
628.30 0.6600641
628.40 0.6598358
628.50 0.6596076
628.60 0.6593796
628.70 0.6591516
628.80 0.6589237
628.90 0.658696
629.00 0.6584683
629.10 0.6582408
629.20 0.6580134
629.30 0.6577861
629.40 0.6575589
629.50 0.6573318
629.60 0.6571049
629.70 0.656878
629.80 0.6566513
629.90 0.6564246
630.00 0.6561981
630.10 0.6559717
630.20 0.6557454
630.30 0.6555275
630.40 0.6553105
630.50 0.6550936
630.60 0.6548768
630.70 0.6546601
630.80 0.6544435
630.90 0.654227
631.00 0.6540106
631.10 0.6537943
631.20 0.6535781
631.30 0.6533621
631.40 0.6531461
631.50 0.6529302
631.60 0.6527145
631.70 0.6524988
631.80 0.6522832
631.90 0.6520678
632.00 0.6518524
632.10 0.6516372
632.20 0.651422
632.30 0.651207
632.40 0.6509921
632.50 0.6507772
632.60 0.6505625
632.70 0.6503479
632.80 0.6501334
632.90 0.6499189
633.00 0.6497046
633.10 0.6494904
633.20 0.6492763
633.30 0.6490623
633.40 0.6488434
633.50 0.6486208
633.60 0.6483983
633.70 0.648176
633.80 0.6479537
633.90 0.6477315
634.00 0.6475094
634.10 0.6472875
634.20 0.6470656
634.30 0.6468439
634.40 0.6466223
634.50 0.6464007
634.60 0.6461793
634.70 0.645958
634.80 0.6457368
634.90 0.6455157
635.00 0.6452947
635.10 0.6450738
635.20 0.6448531
635.30 0.6446324
635.40 0.6444118
635.50 0.6441914
635.60 0.643971
635.70 0.6437508
635.80 0.6435307
635.90 0.6433106
636.00 0.6430907
636.10 0.6428709
636.20 0.6426512
636.30 0.6424316
636.40 0.6422121
636.50 0.6419927
636.60 0.6417813
636.70 0.641571
636.80 0.6413607
636.90 0.6411505
637.00 0.6409404
637.10 0.6407305
637.20 0.6405206
637.30 0.6403108
637.40 0.6401011
637.50 0.6398916
637.60 0.6396821
637.70 0.6394727
637.80 0.6392634
637.90 0.6390543
638.00 0.6388452
638.10 0.6386362
638.20 0.6384273
638.30 0.6382186
638.40 0.6380099
638.50 0.6378013
638.60 0.6375928
638.70 0.6373844
638.80 0.6371762
638.90 0.636968
639.00 0.6367599
639.10 0.6365519
639.20 0.636344
639.30 0.6361362
639.40 0.6359286
639.50 0.635721
639.60 0.6355135
639.70 0.6353041
639.80 0.6350883
639.90 0.6348726
640.00 0.634657
640.10 0.6344414
640.20 0.634226
640.30 0.6340107
640.40 0.6337955
640.50 0.6335804
640.60 0.6333654
640.70 0.6331505
640.80 0.6329357
640.90 0.632721
641.00 0.6325065
641.10 0.632292
641.20 0.6320776
641.30 0.6318633
641.40 0.6316491
641.50 0.6314351
641.60 0.6312211
641.70 0.6310072
641.80 0.6307935
641.90 0.6305798
642.00 0.6303663
642.10 0.6301528
642.20 0.6299394
642.30 0.6297262
642.40 0.629513
642.50 0.6293
642.60 0.6290871
642.70 0.6288742
642.80 0.6286615
642.90 0.6284488
643.00 0.6282363
643.10 0.6280239
643.20 0.6278115
643.30 0.6275993
643.40 0.6273871
643.50 0.6271751
643.60 0.6269632
643.70 0.6267513
643.80 0.6265396
643.90 0.626328
644.00 0.6261165
644.10 0.625905
644.20 0.6256937
644.30 0.6254825
644.40 0.6252714
644.50 0.6250603
644.60 0.6248494
644.70 0.6246386
644.80 0.6244279
644.90 0.6242173
645.00 0.6240068
645.10 0.6237963
645.20 0.623586
645.30 0.6233758
645.40 0.6231657
645.50 0.6229557
645.60 0.6227458
645.70 0.6225359
645.80 0.6223262
645.90 0.6221166
646.00 0.6219071
646.10 0.6216977
646.20 0.6214886
646.30 0.6212795
646.40 0.6210706
646.50 0.6208617
646.60 0.620653
646.70 0.6204443
646.80 0.6202358
646.90 0.6200273
647.00 0.619819
647.10 0.6196107
647.20 0.6194026
647.30 0.6191945
647.40 0.6189866
647.50 0.6187787
647.60 0.6185709
647.70 0.6183633
647.80 0.6181557
647.90 0.6179483
648.00 0.6177409
648.10 0.6175336
648.20 0.6173265
648.30 0.6171194
648.40 0.6169124
648.50 0.6167055
648.60 0.6164988
648.70 0.6162921
648.80 0.6160855
648.90 0.615879
649.00 0.6156727
649.10 0.6154664
649.20 0.6152602
649.30 0.6150541
649.40 0.6148402
649.50 0.614626
649.60 0.6144119
649.70 0.614198
649.80 0.6139841
649.90 0.6137703
650.00 0.6135567
650.10 0.6133431
650.20 0.6131297
650.30 0.6129163
650.40 0.6127031
650.50 0.6124899
650.60 0.6122769
650.70 0.6120639
650.80 0.6118511
650.90 0.6116384
651.00 0.6114257
651.10 0.6112132
651.20 0.6110008
651.30 0.6107884
651.40 0.6105762
651.50 0.6103641
651.60 0.6101521
651.70 0.6099401
651.80 0.6097283
651.90 0.6095166
652.00 0.609305
652.10 0.6090934
652.20 0.608882
652.30 0.6086707
652.40 0.6084595
652.50 0.6082484
652.60 0.6080425
652.70 0.6078394
652.80 0.6076365
652.90 0.6074336
653.00 0.6072308
653.10 0.6070282
653.20 0.6068256
653.30 0.6066231
653.40 0.6064207
653.50 0.6062184
653.60 0.6060162
653.70 0.6058141
653.80 0.6056121
653.90 0.6054102
654.00 0.6052084
654.10 0.6050067
654.20 0.6048051
654.30 0.6046036
654.40 0.6044021
654.50 0.6042008
654.60 0.6039995
654.70 0.6037984
654.80 0.6035973
654.90 0.6033964
655.00 0.6031955
655.10 0.6029948
655.20 0.6027941
655.30 0.6025935
655.40 0.602393
655.50 0.6021926
655.60 0.6019923
655.70 0.6017921
655.80 0.6015955
655.90 0.6013989
656.00 0.6012025
656.10 0.6010061
656.20 0.6008098
656.30 0.6006136
656.40 0.6004175
656.50 0.6002215
656.60 0.6000256
656.70 0.5998298
656.80 0.5996341
656.90 0.5994384
657.00 0.5992429
657.10 0.5990474
657.20 0.5988521
657.30 0.5986568
657.40 0.5984616
657.50 0.5982665
657.60 0.5980715
657.70 0.5978766
657.80 0.5974679
657.90 0.5972344
658.00 0.597032
658.10 0.5968296
658.20 0.5966273
658.30 0.5964251
658.40 0.5962231
658.50 0.5960211
658.60 0.5958192
658.70 0.5956174
658.80 0.5954157
658.90 0.595214
659.00 0.5950125
659.10 0.5948195
659.20 0.594639
659.30 0.5944353
659.40 0.5942318
659.50 0.5940283
659.60 0.5938249
659.70 0.5936216
659.80 0.5934184
659.90 0.5932153
660.00 0.5930123
660.10 0.5928094
660.20 0.5926066
660.30 0.5924039
660.40 0.592221
660.50 0.5920417
660.60 0.5918625
660.70 0.5916833
660.80 0.5915043
660.90 0.5912994
661.00 0.5910947
661.10 0.59089
661.20 0.5906855
661.30 0.590481
661.40 0.5902767
661.50 0.5900724
661.60 0.5898682
661.70 0.5896642
661.80 0.5894602
661.90 0.5892821
662.00 0.5891041
662.10 0.5889261
662.20 0.5887483
662.30 0.5885705
662.40 0.5883928
662.50 0.5881509
662.60 0.587909
662.70 0.5876673
662.80 0.5874258
662.90 0.5872485
663.00 0.5870714
663.10 0.5868943
663.20 0.5867174
663.30 0.5865405
663.40 0.5863637
663.50 0.5861869
663.60 0.5860103
663.70 0.5858337
663.80 0.5856572
663.90 0.5853631
664.00 0.5850483
664.10 0.5848721
664.20 0.584696
664.30 0.58452
664.40 0.5843441
664.50 0.5841682
664.60 0.5839924
664.70 0.5837853
664.80 0.5835784
664.90 0.5833715
665.00 0.5831647
665.10 0.5829581
665.20 0.5827515
665.30 0.582545
665.40 0.5823386
665.50 0.5821589
665.60 0.581984
665.70 0.5817928
665.80 0.5815847
665.90 0.5813767
666.00 0.5811688
666.10 0.580961
666.20 0.5807533
666.30 0.5805457
666.40 0.5803382
666.50 0.5801591
666.60 0.579985
666.70 0.5798111
666.80 0.5796372
666.90 0.5794634
667.00 0.5792896
667.10 0.579116
667.20 0.5789424
667.30 0.5787689
667.40 0.5785954
667.50 0.5783144
667.60 0.5780144
667.70 0.5778223
667.80 0.5776493
667.90 0.5774763
668.00 0.5773034
668.10 0.5771306
668.20 0.5769579
668.30 0.5767852
668.40 0.5766127
668.50 0.5764402
668.60 0.5762678
668.70 0.5758428
668.80 0.5756707
668.90 0.5754985
669.00 0.5753265
669.10 0.5751546
669.20 0.5749827
669.30 0.5747894
669.40 0.5745925
669.50 0.5743957
669.60 0.5741989
669.70 0.5740023
669.80 0.5738057
669.90 0.5736093
670.00 0.5734129
670.10 0.5732166
670.20 0.5730204
670.30 0.5728457
670.40 0.5726748
670.50 0.572504
670.60 0.5723333
670.70 0.5721626
670.80 0.5719695
670.90 0.5717765
671.00 0.5715836
671.10 0.5713908
671.20 0.5711981
671.30 0.5710054
671.40 0.5708129
671.50 0.5706204
671.60 0.5704281
671.70 0.5702358
671.80 0.5700436
671.90 0.5698273
672.00 0.5696069
672.10 0.5693866
672.20 0.5691664
672.30 0.5689463
672.40 0.5687475
672.50 0.5685504
672.60 0.5683534
672.70 0.5681565
672.80 0.5679597
672.90 0.567763
673.00 0.5675663
673.10 0.5673698
673.20 0.5671734
673.30 0.5670049
673.40 0.5668153
673.50 0.5666221
673.60 0.566429
673.70 0.566236
673.80 0.5660431
673.90 0.5658502
674.00 0.5656575
674.10 0.5654648
674.20 0.5652722
674.30 0.5650797
674.40 0.5648873
674.50 0.564695
674.60 0.5645028
674.70 0.5643107
674.80 0.5641186
674.90 0.5639267
675.00 0.5637348
675.10 0.563543
675.20 0.5633513
675.30 0.5631597
675.40 0.5629724
675.50 0.562786
675.60 0.5625996
675.70 0.5624133
675.80 0.5622271
675.90 0.5620409
676.00 0.5618549
676.10 0.5616689
676.20 0.5614831
676.30 0.5612973
676.40 0.5611116
676.50 0.560926
676.60 0.5607404
676.70 0.560555
676.80 0.5603696
676.90 0.5601844
677.00 0.5599992
677.10 0.5598141
677.20 0.559629
677.30 0.5594441
677.40 0.5592592
677.50 0.5590745
677.60 0.5588898
677.70 0.5587052
677.80 0.5585207
677.90 0.5583358
678.00 0.5581509
678.10 0.557966
678.20 0.5577813
678.30 0.5575967
678.40 0.5574121
678.50 0.5572276
678.60 0.5570432
678.70 0.5568589
678.80 0.5566746
678.90 0.5564905
679.00 0.5563064
679.10 0.5561189
679.20 0.5559299
679.30 0.555741
679.40 0.5555522
679.50 0.5553635
679.60 0.5551748
679.70 0.5549863
679.80 0.5547978
679.90 0.5546095
680.00 0.5544212
680.10 0.554233
680.20 0.5540449
680.30 0.5538568
680.40 0.5536689
680.50 0.553481
680.60 0.5532933
680.70 0.5531056
680.80 0.552918
680.90 0.5527305
681.00 0.5525431
681.10 0.5523557
681.20 0.5521685
681.30 0.5519813
681.40 0.5517942
681.50 0.5516072
681.60 0.5514203
681.70 0.5512335
681.80 0.5510468
681.90 0.5508601
682.00 0.5506736
682.10 0.5504871
682.20 0.5503007
682.30 0.5501144
682.40 0.5499282
682.50 0.549742
682.60 0.549556
682.70 0.54937
682.80 0.5491842
682.90 0.5489984
683.00 0.5488127
683.10 0.548627
683.20 0.5484415
683.30 0.548256
683.40 0.5480707
683.50 0.5478854
683.60 0.5477002
683.70 0.5475151
683.80 0.5473301
683.90 0.5471451
684.00 0.5469603
684.10 0.5467755
684.20 0.5465908
684.30 0.5464062
684.40 0.5462217
684.50 0.5460372
684.60 0.5458529
684.70 0.5456686
684.80 0.5454844
684.90 0.5453003
685.00 0.5451163
685.10 0.5449324
685.20 0.5447486
685.30 0.5445648
685.40 0.5443811
685.50 0.5441975
685.60 0.544014
685.70 0.5438306
685.80 0.5436472
685.90 0.5434642
686.00 0.5432813
686.10 0.5430984
686.20 0.5429157
686.30 0.542733
686.40 0.5425504
686.50 0.5423679
686.60 0.5421855
686.70 0.5420031
686.80 0.5418209
686.90 0.5416387
687.00 0.5414566
687.10 0.5412746
687.20 0.5410927
687.30 0.5409108
687.40 0.5407291
687.50 0.5405474
687.60 0.5403658
687.70 0.5401843
687.80 0.5400029
687.90 0.5398215
688.00 0.5396402
688.10 0.5394591
688.20 0.539278
688.30 0.539097
688.40 0.538916
688.50 0.5387352
688.60 0.5385544
688.70 0.5383737
688.80 0.5381931
688.90 0.5380126
689.00 0.5378322
689.10 0.5376518
689.20 0.5374715
689.30 0.5372913
689.40 0.5371112
689.50 0.5369312
689.60 0.5367512
689.70 0.5365714
689.80 0.5363916
689.90 0.5362119
690.00 0.5360323
690.10 0.5358527
690.20 0.5356733
690.30 0.5354939
690.40 0.5353146
690.50 0.5351354
690.60 0.5349562
690.70 0.5347772
690.80 0.5345982
690.90 0.5344193
691.00 0.5342405
691.10 0.5340618
691.20 0.5338832
691.30 0.5337046
691.40 0.5335261
691.50 0.5333477
691.60 0.5331694
691.70 0.5329911
691.80 0.532813
691.90 0.5326349
692.00 0.5324569
692.10 0.532279
692.20 0.5321012
692.30 0.5319234
692.40 0.5317457
692.50 0.5315681
692.60 0.5313906
692.70 0.5312131
692.80 0.5310352
692.90 0.5308574
693.00 0.5306798
693.10 0.5305021
693.20 0.5303246
693.30 0.5301472
693.40 0.5299698
693.50 0.5297925
693.60 0.5296153
693.70 0.5294382
693.80 0.5292611
693.90 0.5290842
694.00 0.5289073
694.10 0.5287305
694.20 0.5285537
694.30 0.5283771
694.40 0.5282005
694.50 0.528024
694.60 0.5278476
694.70 0.5276713
694.80 0.527495
694.90 0.5273189
695.00 0.5271428
695.10 0.5269668
695.20 0.5267908
695.30 0.526615
695.40 0.5264392
695.50 0.5262635
695.60 0.5260879
695.70 0.5259124
695.80 0.5257369
695.90 0.5255615
696.00 0.5253862
696.10 0.525211
696.20 0.5250359
696.30 0.5248608
696.40 0.5246858
696.50 0.5245109
696.60 0.5243331
696.70 0.5241547
696.80 0.5239763
696.90 0.5237981
697.00 0.5236199
697.10 0.5234418
697.20 0.5232638
697.30 0.5230858
697.40 0.522908
697.50 0.5227302
697.60 0.5225525
697.70 0.5223748
697.80 0.5221973
697.90 0.5220198
698.00 0.5218425
698.10 0.5216652
698.20 0.5214879
698.30 0.5213108
698.40 0.5211337
698.50 0.5209567
698.60 0.5207798
698.70 0.520603
698.80 0.5204263
698.90 0.5202496
699.00 0.520073
699.10 0.5198871
699.20 0.5196989
699.30 0.5195109
699.40 0.519323
699.50 0.5191351
699.60 0.5189473
699.70 0.5187815
699.80 0.518617
699.90 0.5184525
700.00 0.5182881
700.10 0.5181237
700.20 0.5179594
700.30 0.5177952
700.40 0.5176311
700.50 0.5174671
700.60 0.5173031
700.70 0.5171392
700.80 0.5169753
700.90 0.5168116
701.00 0.5166479
701.10 0.5164726
701.20 0.5162947
701.30 0.5161168
701.40 0.5159391
701.50 0.5157614
701.60 0.5155838
701.70 0.5154062
701.80 0.5152288
701.90 0.5150514
702.00 0.5148742
702.10 0.5146969
702.20 0.5145198
702.30 0.5143428
702.40 0.5141658
702.50 0.5139889
702.60 0.5138137
702.70 0.5136389
702.80 0.5134641
702.90 0.5132895
703.00 0.5131149
703.10 0.5129404
703.20 0.5127659
703.30 0.5125916
703.40 0.5124173
703.50 0.5122431
703.60 0.512069
703.70 0.511895
703.80 0.511721
703.90 0.5115472
704.00 0.5113734
704.10 0.5111996
704.20 0.5110306
704.30 0.5108627
704.40 0.5106949
704.50 0.5105272
704.60 0.5103596
704.70 0.510192
704.80 0.5100245
704.90 0.5098571
705.00 0.5096897
705.10 0.5095224
705.20 0.509343
705.30 0.5091607
705.40 0.5089785
705.50 0.5087964
705.60 0.5086144
705.70 0.5084325
705.80 0.5082812
705.90 0.5081372
706.00 0.5079933
706.10 0.5078494
706.20 0.5077056
706.30 0.5075618
706.40 0.5074125
706.50 0.5070483
706.60 0.5069048
706.70 0.5067613
706.80 0.5066179
706.90 0.5064746
707.00 0.5062856
707.10 0.5060859
707.20 0.5058864
707.30 0.5056869
707.40 0.5055332
707.50 0.5053903
707.60 0.5052475
707.70 0.5051047
707.80 0.504962
707.90 0.5048193
708.00 0.5046585
708.10 0.5044934
708.20 0.5043284
708.30 0.5041635
708.40 0.5039987
708.50 0.5038339
708.60 0.5036693
708.70 0.5035046
708.80 0.5033401
708.90 0.5031756
709.00 0.5030067
709.10 0.5028368
709.20 0.5026669
709.30 0.5024971
709.40 0.5023274
709.50 0.5021578
709.60 0.5019882
709.70 0.5018187
709.80 0.5016493
709.90 0.50148
710.00 0.5013107
710.10 0.5011415
710.20 0.5009724
710.30 0.5008034
710.40 0.5006345
710.50 0.5004656
710.60 0.5002953
710.70 0.5001247
710.80 0.4999541
710.90 0.4997837
711.00 0.4996133
711.10 0.4994431
711.20 0.4992728
711.30 0.4991027
711.40 0.4989327
711.50 0.4987627
711.60 0.4985928
711.70 0.4984229
711.80 0.4982532
711.90 0.4980835
712.00 0.4979139
712.10 0.4977465
712.20 0.4975797
712.30 0.497413
712.40 0.4972464
712.50 0.4970798
712.60 0.4969133
712.70 0.4967469
712.80 0.4965806
712.90 0.4964143
713.00 0.4962481
713.10 0.496082
713.20 0.4959159
713.30 0.4957499
713.40 0.495584
713.50 0.4954182
713.60 0.4952524
713.70 0.4950749
713.80 0.4948732
713.90 0.4946716
714.00 0.4944701
714.10 0.4942982
714.20 0.4941332
714.30 0.4939683
714.40 0.4938034
714.50 0.4936387
714.60 0.493474
714.70 0.4933094
714.80 0.4931448
714.90 0.4929804
715.00 0.492816
715.10 0.4926516
715.20 0.4924874
715.30 0.4923232
715.40 0.4921591
715.50 0.4919951
715.60 0.4918311
715.70 0.4916672
715.80 0.4915034
715.90 0.4913397
716.00 0.491176
716.10 0.4910124
716.20 0.4908489
716.30 0.4906854
716.40 0.490522
716.50 0.4903587
716.60 0.4901948
716.70 0.4900308
716.80 0.4898669
716.90 0.489703
717.00 0.4895393
717.10 0.4893756
717.20 0.4892119
717.30 0.4890484
717.40 0.4888849
717.50 0.4887215
717.60 0.4885581
717.70 0.4883949
717.80 0.4882317
717.90 0.4880685
718.00 0.4879055
718.10 0.4877425
718.20 0.4875801
718.30 0.4874181
718.40 0.4872561
718.50 0.4870943
718.60 0.4869325
718.70 0.4867707
718.80 0.4866091
718.90 0.4864475
719.00 0.486286
719.10 0.4861245
719.20 0.4859631
719.30 0.4858018
719.40 0.4856406
719.50 0.4854794
719.60 0.4853184
719.70 0.4851573
719.80 0.4849964
719.90 0.4848355
720.00 0.4846747
720.10 0.484514
720.20 0.4843533
720.30 0.4841927
720.40 0.4840322
720.50 0.4838717
720.60 0.4837113
720.70 0.483568
720.80 0.4834338
720.90 0.4832769
721.00 0.4831191
721.10 0.4829614
721.20 0.4828038
721.30 0.4826462
721.40 0.4824887
721.50 0.4823313
721.60 0.4821739
721.70 0.4820166
721.80 0.4818594
721.90 0.4817022
722.00 0.4815451
722.10 0.4813881
722.20 0.4812311
722.30 0.4810743
722.40 0.4809174
722.50 0.4807607
722.60 0.480604
722.70 0.480444
722.80 0.4802823
722.90 0.4801206
723.00 0.479959
723.10 0.4797974
723.20 0.479636
723.30 0.4794746
723.40 0.4793132
723.50 0.479152
723.60 0.4789908
723.70 0.4788297
723.80 0.4786686
723.90 0.4785077
724.00 0.4783468
724.10 0.4781859
724.20 0.4780263
724.30 0.4778674
724.40 0.4777086
724.50 0.4775498
724.60 0.4773912
724.70 0.4772325
724.80 0.477074
724.90 0.4769155
725.00 0.4767571
725.10 0.4765988
725.20 0.4764405
725.30 0.4762823
725.40 0.4761241
725.50 0.4759661
725.60 0.4758081
725.70 0.4756501
725.80 0.4754818
725.90 0.475308
726.00 0.4751342
726.10 0.4749605
726.20 0.4747869
726.30 0.4746133
726.40 0.4744398
726.50 0.4742664
726.60 0.4740931
726.70 0.4739199
726.80 0.4737745
726.90 0.4736442
727.00 0.4735139
727.10 0.4733836
727.20 0.4732535
727.30 0.4731233
727.40 0.4729586
727.50 0.4727752
727.60 0.4725919
727.70 0.4724087
727.80 0.4722603
727.90 0.4721305
728.00 0.4720008
728.10 0.4718579
728.20 0.4715286
728.30 0.4713991
728.40 0.4712697
728.50 0.4711403
728.60 0.4709764
728.70 0.470794
728.80 0.4706117
728.90 0.4704294
729.00 0.4702818
729.10 0.4701528
729.20 0.4700238
729.30 0.4698949
729.40 0.4697661
729.50 0.4696373
729.60 0.469481
729.70 0.4693099
729.80 0.4691389
729.90 0.468968
730.00 0.4687971
730.10 0.4686263
730.20 0.4684556
730.30 0.468285
730.40 0.4681144
730.50 0.4679439
730.60 0.4677838
730.70 0.4676294
730.80 0.467475
730.90 0.4673206
731.00 0.4671664
731.10 0.4670122
731.20 0.466858
731.30 0.466704
731.40 0.46655
731.50 0.466396
731.60 0.4662422
731.70 0.4660884
731.80 0.4659346
731.90 0.465781
732.00 0.4656274
732.10 0.4654738
732.20 0.4653192
732.30 0.4651641
732.40 0.465009
732.50 0.464854
732.60 0.464699
732.70 0.4645441
732.80 0.4643893
732.90 0.4642346
733.00 0.4640799
733.10 0.4639253
733.20 0.4637707
733.30 0.4636162
733.40 0.4634618
733.50 0.4633075
733.60 0.4631532
733.70 0.4630007
733.80 0.4628492
733.90 0.4626978
734.00 0.4625464
734.10 0.4623951
734.20 0.4622438
734.30 0.4620927
734.40 0.4619416
734.50 0.4617905
734.60 0.4616395
734.70 0.4614886
734.80 0.4613378
734.90 0.461187
735.00 0.4610363
735.10 0.4608856
735.20 0.460735
735.30 0.4605865
735.40 0.4604613
735.50 0.4603361
735.60 0.4602109
735.70 0.4600641
735.80 0.4599057
735.90 0.4597474
736.00 0.4595891
736.10 0.4594309
736.20 0.4592727
736.30 0.4591147
736.40 0.4589566
736.50 0.4587987
736.60 0.4586408
736.70 0.458483
736.80 0.4583253
736.90 0.4581677
737.00 0.4580101
737.10 0.4578525
737.20 0.4576951
737.30 0.4575377
737.40 0.4573804
737.50 0.4572231
737.60 0.457066
737.70 0.4569088
737.80 0.4567518
737.90 0.4565948
738.00 0.4564379
738.10 0.4562811
738.20 0.4561279
738.30 0.4559768
738.40 0.4558258
738.50 0.4556748
738.60 0.4555239
738.70 0.455373
738.80 0.4552222
738.90 0.4550715
739.00 0.4549208
739.10 0.4547702
739.20 0.4546197
739.30 0.4544692
739.40 0.4543188
739.50 0.4541685
739.60 0.4540182
739.70 0.453868
739.80 0.4537179
739.90 0.4535678
740.00 0.4534178
740.10 0.4532678
740.20 0.4531179
740.30 0.4529681
740.40 0.4528183
740.50 0.4526687
740.60 0.452519
740.70 0.4523695
740.80 0.45222
740.90 0.4520705
741.00 0.4519212
741.10 0.4517718
741.20 0.4516226
741.30 0.4514734
741.40 0.4513243
741.50 0.4511753
741.60 0.4510263
741.70 0.4508773
741.80 0.4507285
741.90 0.4505797
742.00 0.450431
742.10 0.4502823
742.20 0.4501337
742.30 0.4499851
742.40 0.4498367
742.50 0.4496883
742.60 0.4495399
742.70 0.4493848
742.80 0.4492243
742.90 0.4490638
743.00 0.4489034
743.10 0.4487431
743.20 0.4485828
743.30 0.4484226
743.40 0.4482625
743.50 0.4481025
743.60 0.4479425
743.70 0.4477854
743.80 0.4476394
743.90 0.4474935
744.00 0.4473477
744.10 0.4472019
744.20 0.4470563
744.30 0.4469106
744.40 0.446765
744.50 0.4466195
744.60 0.4464741
744.70 0.4463287
744.80 0.4461834
744.90 0.4460381
745.00 0.4458929
745.10 0.4457478
745.20 0.4456027
745.30 0.4454577
745.40 0.4453127
745.50 0.4451678
745.60 0.445023
745.70 0.4448782
745.80 0.4447335
745.90 0.4445889
746.00 0.4444443
746.10 0.4442998
746.20 0.4441553
746.30 0.4440109
746.40 0.4438666
746.50 0.4437223
746.60 0.4435781
746.70 0.4434339
746.80 0.4432899
746.90 0.4431458
747.00 0.4430019
747.10 0.4428579
747.20 0.4427141
747.30 0.4425703
747.40 0.4424266
747.50 0.4422829
747.60 0.4421393
747.70 0.4419958
747.80 0.4418523
747.90 0.4417089
748.00 0.4415655
748.10 0.4414222
748.20 0.441279
748.30 0.4411358
748.40 0.4409927
748.50 0.4408496
748.60 0.4407066
748.70 0.4405637
748.80 0.4404208
748.90 0.440278
749.00 0.4401353
749.10 0.4399926
749.20 0.43985
749.30 0.4397074
749.40 0.4395649
749.50 0.4394224
749.60 0.43928
749.70 0.4391377
749.80 0.4389954
749.90 0.4388532
750.00 0.4387111
750.10 0.438567
750.20 0.438418
750.30 0.4382691
750.40 0.4381202
750.50 0.4379713
750.60 0.4378226
750.70 0.4376739
750.80 0.4375252
750.90 0.4373767
751.00 0.4372282
751.10 0.4370797
751.20 0.4369313
751.30 0.436783
751.40 0.4366348
751.50 0.4364866
751.60 0.4363384
751.70 0.4361904
751.80 0.4360424
751.90 0.4358944
752.00 0.4357466
752.10 0.4355987
752.20 0.435451
752.30 0.4353033
752.40 0.4351557
752.50 0.4350081
752.60 0.4348606
752.70 0.4347132
752.80 0.4345658
752.90 0.4344185
753.00 0.4342713
753.10 0.4341241
753.20 0.433977
753.30 0.4338299
753.40 0.4336829
753.50 0.433536
753.60 0.4333891
753.70 0.4332423
753.80 0.4330956
753.90 0.432953
754.00 0.4328117
754.10 0.4326705
754.20 0.4325293
754.30 0.4323881
754.40 0.432247
754.50 0.432106
754.60 0.431965
754.70 0.4318241
754.80 0.4316833
754.90 0.4315425
755.00 0.4314018
755.10 0.4312611
755.20 0.4311205
755.30 0.43098
755.40 0.4308395
755.50 0.4306991
755.60 0.4305587
755.70 0.4304184
755.80 0.4302781
755.90 0.4301379
756.00 0.4299978
756.10 0.4298577
756.20 0.4297177
756.30 0.4295778
756.40 0.4294379
756.50 0.429298
756.60 0.4291582
756.70 0.4290185
756.80 0.4288789
756.90 0.4287393
757.00 0.4285997
757.10 0.4284602
757.20 0.4283208
757.30 0.4281814
757.40 0.4280421
757.50 0.4279029
757.60 0.4277623
757.70 0.4276183
757.80 0.4274743
757.90 0.4273303
758.00 0.4271864
758.10 0.4270426
758.20 0.4268989
758.30 0.4267552
758.40 0.4266115
758.50 0.426468
758.60 0.4263244
758.70 0.426181
758.80 0.4260376
758.90 0.4258943
759.00 0.425751
759.10 0.4256078
759.20 0.4254646
759.30 0.4253216
759.40 0.4251785
759.50 0.4250356
759.60 0.4248927
759.70 0.4247498
759.80 0.424607
759.90 0.4244643
760.00 0.4243216
760.10 0.424179
760.20 0.4240365
760.30 0.423894
760.40 0.4237516
760.50 0.4236092
760.60 0.4234669
760.70 0.4233247
760.80 0.4231825
760.90 0.4230404
761.00 0.4228983
761.10 0.4227563
761.20 0.4226144
761.30 0.4224725
761.40 0.4223327
761.50 0.4221961
761.60 0.4220595
761.70 0.421923
761.80 0.4217866
761.90 0.4216502
762.00 0.4215139
762.10 0.4213776
762.20 0.4212414
762.30 0.4211052
762.40 0.4209691
762.50 0.420833
762.60 0.420697
762.70 0.4205611
762.80 0.4204252
762.90 0.4202894
763.00 0.4201536
763.10 0.4200179
763.20 0.4198823
763.30 0.4197467
763.40 0.4196111
763.50 0.4194756
763.60 0.4193402
763.70 0.4192049
763.80 0.4190695
763.90 0.4189343
764.00 0.4187991
764.10 0.4186639
764.20 0.4185289
764.30 0.4183938
764.40 0.4182588
764.50 0.4181239
764.60 0.4179891
764.70 0.4178543
764.80 0.4177195
764.90 0.4175848
765.00 0.4174502
765.10 0.4173156
765.20 0.4171786
765.30 0.4170393
765.40 0.4169001
765.50 0.416761
765.60 0.4166219
765.70 0.4164829
765.80 0.4163439
765.90 0.416205
766.00 0.4160662
766.10 0.4159274
766.20 0.4157886
766.30 0.41565
766.40 0.4155114
766.50 0.4153728
766.60 0.4152343
766.70 0.4150959
766.80 0.4149575
766.90 0.4148192
767.00 0.4146809
767.10 0.4145427
767.20 0.4144045
767.30 0.4142665
767.40 0.4141284
767.50 0.4139904
767.60 0.4138525
767.70 0.4137147
767.80 0.4135769
767.90 0.4134391
768.00 0.4133014
768.10 0.4131638
768.20 0.4130262
768.30 0.4128887
768.40 0.4127513
768.50 0.4126139
768.60 0.4124765
768.70 0.4123392
768.80 0.412202
768.90 0.4120648
769.00 0.4119277
769.10 0.4117907
769.20 0.4116537
769.30 0.4115167
769.40 0.4113799
769.50 0.411243
769.60 0.4111063
769.70 0.4109696
769.80 0.4108329
769.90 0.4106963
770.00 0.4105598
770.10 0.4104233
770.20 0.4102869
770.30 0.4101505
770.40 0.4100142
770.50 0.4098779
770.60 0.4097417
770.70 0.4096056
770.80 0.4094695
770.90 0.4093335
771.00 0.4091975
771.10 0.4090616
771.20 0.4089257
771.30 0.4087899
771.40 0.4086542
771.50 0.4085185
771.60 0.4083829
771.70 0.4082473
771.80 0.4081118
771.90 0.4079763
772.00 0.4078409
772.10 0.4077056
772.20 0.4075703
772.30 0.4074351
772.40 0.4072999
772.50 0.4071648
772.60 0.4070297
772.70 0.4068947
772.80 0.4067597
772.90 0.4066251
773.00 0.4064906
773.10 0.4063561
773.20 0.4062217
773.30 0.4060873
773.40 0.4059529
773.50 0.4058187
773.60 0.4056845
773.70 0.4055503
773.80 0.4054162
773.90 0.4052822
774.00 0.4051482
774.10 0.4050142
774.20 0.4048804
774.30 0.4047465
774.40 0.4046128
774.50 0.4044791
774.60 0.4043454
774.70 0.4042118
774.80 0.4040783
774.90 0.4039448
775.00 0.4038113
775.10 0.403678
775.20 0.4035446
775.30 0.4034114
775.40 0.4032781
775.50 0.403145
775.60 0.4030119
775.70 0.4028788
775.80 0.4027458
775.90 0.4026129
776.00 0.40248
776.10 0.4023472
776.20 0.4022144
776.30 0.4020817
776.40 0.4019491
776.50 0.4018164
776.60 0.4016839
776.70 0.4015514
776.80 0.401419
776.90 0.4012866
777.00 0.4011542
777.10 0.401022
777.20 0.4008897
777.30 0.4007576
777.40 0.4006255
777.50 0.4004934
777.60 0.4003614
777.70 0.4002295
777.80 0.4000976
777.90 0.3999657
778.00 0.3998339
778.10 0.3997022
778.20 0.3995705
778.30 0.3994389
778.40 0.3993073
778.50 0.3991758
778.60 0.3990444
778.70 0.398913
778.80 0.3987816
778.90 0.3986503
779.00 0.3985191
779.10 0.3983879
779.20 0.3982568
779.30 0.3981257
779.40 0.3979947
779.50 0.3978637
779.60 0.3977328
779.70 0.3976019
779.80 0.3974711
779.90 0.3973403
780.00 0.3972096
780.10 0.397079
780.20 0.3969484
780.30 0.3968179
780.40 0.3966874
780.50 0.396557
780.60 0.3964275
780.70 0.3962984
780.80 0.3961694
780.90 0.3960405
781.00 0.3959116
781.10 0.3957827
781.20 0.395654
781.30 0.3955252
781.40 0.3953965
781.50 0.3952679
781.60 0.3951393
781.70 0.3950108
781.80 0.3948823
781.90 0.3947539
782.00 0.3946255
782.10 0.3944972
782.20 0.394369
782.30 0.3942407
782.40 0.3941126
782.50 0.3939845
782.60 0.3938564
782.70 0.3937284
782.80 0.3936005
782.90 0.3934726
783.00 0.3933448
783.10 0.393217
783.20 0.3930892
783.30 0.3929615
783.40 0.3928339
783.50 0.3927063
783.60 0.3925788
783.70 0.3924513
783.80 0.3923239
783.90 0.3921965
784.00 0.3920692
784.10 0.391942
784.20 0.3918147
784.30 0.3916876
784.40 0.3915605
784.50 0.3914334
784.60 0.3913058
784.70 0.3911768
784.80 0.3910479
784.90 0.390919
785.00 0.3907902
785.10 0.3906615
785.20 0.3905328
785.30 0.3904041
785.40 0.3902755
785.50 0.390147
785.60 0.3900185
785.70 0.38989
785.80 0.3897616
785.90 0.3896333
786.00 0.389505
786.10 0.3893768
786.20 0.3892486
786.30 0.3891205
786.40 0.3889924
786.50 0.3888644
786.60 0.3887364
786.70 0.3886085
786.80 0.3884806
786.90 0.3883528
787.00 0.3882251
787.10 0.3880973
787.20 0.3879697
787.30 0.3878421
787.40 0.3877145
787.50 0.387587
787.60 0.3874596
787.70 0.3873322
787.80 0.3872049
787.90 0.3870776
788.00 0.3869503
788.10 0.3868232
788.20 0.386696
788.30 0.3865689
788.40 0.3864428
788.50 0.3863171
788.60 0.3861915
788.70 0.386066
788.80 0.3859405
788.90 0.385815
789.00 0.3856896
789.10 0.3855642
789.20 0.3854389
789.30 0.3853137
789.40 0.3851885
789.50 0.3850633
789.60 0.3849382
789.70 0.3848132
789.80 0.3846882
789.90 0.3845632
790.00 0.3844384
790.10 0.3843135
790.20 0.3841887
790.30 0.384064
790.40 0.3839393
790.50 0.3838146
790.60 0.3836901
790.70 0.3835655
790.80 0.383441
790.90 0.3833166
791.00 0.3831922
791.10 0.3830679
791.20 0.3829436
791.30 0.3828193
791.40 0.3826952
791.50 0.382571
791.60 0.3824469
791.70 0.3823229
791.80 0.3821989
791.90 0.382075
792.00 0.3819511
792.10 0.3818273
792.20 0.3817035
792.30 0.3815798
792.40 0.3814561
792.50 0.3813324
792.60 0.3812089
792.70 0.3810853
792.80 0.3809618
792.90 0.3808384
793.00 0.380715
793.10 0.3805917
793.20 0.3804684
793.30 0.3803452
793.40 0.380222
793.50 0.3800988
793.60 0.3799757
793.70 0.3798527
793.80 0.3797297
793.90 0.3796068
794.00 0.3794839
794.10 0.3793611
794.20 0.3792383
794.30 0.3791155
794.40 0.3789929
794.50 0.3788702
794.60 0.3787476
794.70 0.3786251
794.80 0.3785026
794.90 0.3783802
795.00 0.3782578
795.10 0.3781354
795.20 0.3780132
795.30 0.3778909
795.40 0.3777687
795.50 0.3776466
795.60 0.3775245
795.70 0.3774024
795.80 0.3772805
795.90 0.3771585
796.00 0.3770366
796.10 0.3769148
796.20 0.376793
796.30 0.3766696
796.40 0.3765459
796.50 0.3764223
796.60 0.3762988
796.70 0.3761752
796.80 0.3760518
796.90 0.3759284
797.00 0.375805
797.10 0.3756817
797.20 0.3755584
797.30 0.3754352
797.40 0.3753121
797.50 0.375189
797.60 0.3750659
797.70 0.3749429
797.80 0.3748199
797.90 0.374697
798.00 0.3745742
798.10 0.3744514
798.20 0.3743286
798.30 0.3742059
798.40 0.3740832
798.50 0.3739606
798.60 0.3738381
798.70 0.3737155
798.80 0.3735931
798.90 0.3734707
799.00 0.3733483
799.10 0.373226
799.20 0.3731037
799.30 0.3729815
799.40 0.3728594
799.50 0.3727372
799.60 0.3726152
799.70 0.3724932
799.80 0.3723712
799.90 0.3722493
800.00 0.3721274
800.10 0.3720056
800.20 0.3718838
800.30 0.3717621
800.40 0.3716404
800.50 0.3715188
800.60 0.3713972
800.70 0.3712757
800.80 0.3711542
800.90 0.3710328
801.00 0.3709114
801.10 0.3707901
801.20 0.3706688
801.30 0.3705476
801.40 0.3704264
801.50 0.3703053
801.60 0.3701842
801.70 0.3700632
801.80 0.3699422
801.90 0.3698212
802.00 0.3697004
802.10 0.3695795
802.20 0.3694587
802.30 0.369338
802.40 0.3692173
802.50 0.3690966
802.60 0.3689761
802.70 0.3688555
802.80 0.368735
802.90 0.3686146
803.00 0.3684942
803.10 0.3683738
803.20 0.3682535
803.30 0.3681332
803.40 0.368013
803.50 0.3678929
803.60 0.3677728
803.70 0.3676527
803.80 0.3675327
803.90 0.3674127
804.00 0.3672928
804.10 0.3671729
804.20 0.3670537
804.30 0.3669363
804.40 0.3668191
804.50 0.3667019
804.60 0.3665847
804.70 0.3664675
804.80 0.3663505
804.90 0.3662334
805.00 0.3661164
805.10 0.3659995
805.20 0.3658826
805.30 0.3657658
805.40 0.365649
805.50 0.3655322
805.60 0.3654155
805.70 0.3652988
805.80 0.3651822
805.90 0.3650656
806.00 0.3649491
806.10 0.3648326
806.20 0.3647162
806.30 0.3645998
806.40 0.3644835
806.50 0.3643672
806.60 0.364251
806.70 0.3641348
806.80 0.3640186
806.90 0.3639025
807.00 0.3637865
807.10 0.3636705
807.20 0.3635545
807.30 0.3634386
807.40 0.3633227
807.50 0.3632069
807.60 0.3630911
807.70 0.3629754
807.80 0.3628597
807.90 0.362744
808.00 0.3626284
808.10 0.3625129
808.20 0.3623973
808.30 0.3622776
808.40 0.3621579
808.50 0.3620382
808.60 0.3619186
808.70 0.361799
808.80 0.3616795
808.90 0.3615601
809.00 0.3614406
809.10 0.3613213
809.20 0.3612019
809.30 0.3610827
809.40 0.3609634
809.50 0.3608443
809.60 0.3607251
809.70 0.3606061
809.80 0.360487
809.90 0.360368
810.00 0.3602491
810.10 0.3601302
810.20 0.3600114
810.30 0.3598926
810.40 0.3597738
810.50 0.3596551
810.60 0.3595365
810.70 0.3594178
810.80 0.3592993
810.90 0.3591808
811.00 0.3590623
811.10 0.3589439
811.20 0.3588255
811.30 0.3587072
811.40 0.3585889
811.50 0.3584707
811.60 0.3583525
811.70 0.3582344
811.80 0.3581163
811.90 0.3579983
812.00 0.3578803
812.10 0.3577623
812.20 0.3576444
812.30 0.357529
812.40 0.3574142
812.50 0.3572994
812.60 0.3571846
812.70 0.3570699
812.80 0.3569553
812.90 0.3568407
813.00 0.3567262
813.10 0.3566117
813.20 0.3564972
813.30 0.3563828
813.40 0.3562684
813.50 0.3561541
813.60 0.3560398
813.70 0.3559256
813.80 0.3558114
813.90 0.3556972
814.00 0.3555831
814.10 0.3554691
814.20 0.3553551
814.30 0.3552411
814.40 0.3551272
814.50 0.3550133
814.60 0.3548995
814.70 0.3547857
814.80 0.354672
814.90 0.3545583
815.00 0.3544447
815.10 0.3543311
815.20 0.3542175
815.30 0.354104
815.40 0.3539905
815.50 0.3538771
815.60 0.3537637
815.70 0.3536504
815.80 0.3535371
815.90 0.3534239
816.00 0.3533107
816.10 0.3531975
816.20 0.3530844
816.30 0.3529714
816.40 0.3528583
816.50 0.3527454
816.60 0.3526325
816.70 0.3525196
816.80 0.3524067
816.90 0.3522939
817.00 0.3521812
817.10 0.3520685
817.20 0.3519558
817.30 0.3518432
817.40 0.3517306
817.50 0.3516181
817.60 0.3515056
817.70 0.3513932
817.80 0.3512808
817.90 0.3511685
818.00 0.3510562
818.10 0.3509439
818.20 0.3508317
818.30 0.3507195
818.40 0.3506074
818.50 0.3504953
818.60 0.3503833
818.70 0.3502713
818.80 0.3501593
818.90 0.3500474
819.00 0.3499356
819.10 0.3498238
819.20 0.349712
819.30 0.3496042
819.40 0.3494991
819.50 0.3493941
819.60 0.3492891
819.70 0.3491841
819.80 0.3490792
819.90 0.3489743
820.00 0.3488694
820.10 0.3487664
820.20 0.3486167
820.30 0.348459
820.40 0.3483287
820.50 0.3482182
820.60 0.3481078
820.70 0.3479974
820.80 0.347887
820.90 0.3477767
821.00 0.3476664
821.10 0.3475562
821.20 0.347446
821.30 0.3473358
821.40 0.3472257
821.50 0.3471156
821.60 0.3470056
821.70 0.3468956
821.80 0.3467857
821.90 0.3466758
822.00 0.346566
822.10 0.3464561
822.20 0.3463464
822.30 0.3462367
822.40 0.346127
822.50 0.3460174
822.60 0.3459078
822.70 0.3457982
822.80 0.3456887
822.90 0.3455793
823.00 0.3454698
823.10 0.3453605
823.20 0.3452511
823.30 0.3451418
823.40 0.3450326
823.50 0.3449234
823.60 0.3448142
823.70 0.3447051
823.80 0.344596
823.90 0.344487
824.00 0.344378
824.10 0.3442691
824.20 0.3441602
824.30 0.3440513
824.40 0.3439425
824.50 0.3438337
824.60 0.343725
824.70 0.3436163
824.80 0.3435076
824.90 0.343399
825.00 0.3432905
825.10 0.3431819
825.20 0.3430735
825.30 0.342965
825.40 0.3428566
825.50 0.3427483
825.60 0.34264
825.70 0.3425317
825.80 0.3424235
825.90 0.3423153
826.00 0.3422072
826.10 0.3420991
826.20 0.341991
826.30 0.3418809
826.40 0.3417695
826.50 0.3416581
826.60 0.3415468
826.70 0.3414355
826.80 0.3413243
826.90 0.3412131
827.00 0.3411019
827.10 0.3409908
827.20 0.3408797
827.30 0.3407687
827.40 0.3406577
827.50 0.3405468
827.60 0.3404359
827.70 0.340325
827.80 0.3402142
827.90 0.3401035
828.00 0.3399928
828.10 0.3398821
828.20 0.3397714
828.30 0.3396609
828.40 0.3395503
828.50 0.3394398
828.60 0.3393297
828.70 0.3392201
828.80 0.3391104
828.90 0.3390008
829.00 0.3388913
829.10 0.3387818
829.20 0.3386723
829.30 0.3385629
829.40 0.3384535
829.50 0.3383442
829.60 0.3382349
829.70 0.3381256
829.80 0.3380164
829.90 0.3379073
830.00 0.3377982
830.10 0.3376891
830.20 0.33758
830.30 0.3374711
830.40 0.3373621
830.50 0.3372532
830.60 0.3371443
830.70 0.3370355
830.80 0.3369267
830.90 0.336818
831.00 0.3367093
831.10 0.3366007
831.20 0.336492
831.30 0.3363835
831.40 0.336275
831.50 0.3361665
831.60 0.336058
831.70 0.3359496
831.80 0.3358413
831.90 0.335733
832.00 0.3356247
832.10 0.3355165
832.20 0.3354083
832.30 0.3353001
832.40 0.335192
832.50 0.335084
832.60 0.334976
832.70 0.334868
832.80 0.3347601
832.90 0.3346522
833.00 0.3345443
833.10 0.3344365
833.20 0.3343288
833.30 0.334221
833.40 0.3341134
833.50 0.3340057
833.60 0.3338981
833.70 0.3337906
833.80 0.3336831
833.90 0.3335756
834.00 0.3334682
834.10 0.3333608
834.20 0.3332535
834.30 0.3331462
834.40 0.3330389
834.50 0.3329317
834.60 0.3328245
834.70 0.3327174
834.80 0.3326103
834.90 0.3325032
835.00 0.3323962
835.10 0.3322893
835.20 0.3321823
835.30 0.3320754
835.40 0.3319686
835.50 0.3318618
835.60 0.3317551
835.70 0.3316483
835.80 0.3315417
835.90 0.331435
836.00 0.3313284
836.10 0.3312219
836.20 0.3311154
836.30 0.3310089
836.40 0.3309025
836.50 0.3307961
836.60 0.3306898
836.70 0.3305835
836.80 0.3304772
836.90 0.3303712
837.00 0.3302653
837.10 0.3301594
837.20 0.3300536
837.30 0.3299478
837.40 0.329842
837.50 0.3297363
837.60 0.3296307
837.70 0.3295251
837.80 0.3294195
837.90 0.3293139
838.00 0.3292084
838.10 0.329103
838.20 0.3289976
838.30 0.3288922
838.40 0.3287869
838.50 0.3286816
838.60 0.3285763
838.70 0.3284711
838.80 0.3283659
838.90 0.3282608
839.00 0.3281557
839.10 0.3280507
839.20 0.3279457
839.30 0.3278407
839.40 0.3277358
839.50 0.3276309
839.60 0.3275261
839.70 0.3274213
839.80 0.3273165
839.90 0.3272118
840.00 0.3271071
840.10 0.3270024
840.20 0.3268978
840.30 0.3267933
840.40 0.3266888
840.50 0.3265843
840.60 0.3264799
840.70 0.3263755
840.80 0.3262711
840.90 0.3261668
841.00 0.3260625
841.10 0.3259583
841.20 0.3258541
841.30 0.3257499
841.40 0.3256458
841.50 0.3255418
841.60 0.3254377
841.70 0.3253337
841.80 0.3252298
841.90 0.3251259
842.00 0.325022
842.10 0.3249182
842.20 0.3248144
842.30 0.3247107
842.40 0.324607
842.50 0.3245033
842.60 0.3243997
842.70 0.3242961
842.80 0.3241925
842.90 0.324089
843.00 0.3239856
843.10 0.3238821
843.20 0.3237787
843.30 0.3236754
843.40 0.3235721
843.50 0.3234688
843.60 0.3233656
843.70 0.3232624
843.80 0.3231593
843.90 0.3230562
844.00 0.3229531
844.10 0.3228501
844.20 0.3227471
844.30 0.3226441
844.40 0.3225412
844.50 0.3224383
844.60 0.3223355
844.70 0.3222327
844.80 0.32213
844.90 0.3220273
845.00 0.3219246
845.10 0.321822
845.20 0.3217194
845.30 0.3216171
845.40 0.3215148
845.50 0.3214126
845.60 0.3213104
845.70 0.3212083
845.80 0.3211062
845.90 0.3210041
846.00 0.3209021
846.10 0.3208001
846.20 0.3206982
846.30 0.3205963
846.40 0.3204944
846.50 0.3203926
846.60 0.3202908
846.70 0.3201891
846.80 0.3200874
846.90 0.3199857
847.00 0.3198841
847.10 0.3197825
847.20 0.3196809
847.30 0.3195794
847.40 0.3194779
847.50 0.3193765
847.60 0.3192751
847.70 0.3191738
847.80 0.3190724
847.90 0.3189712
848.00 0.3188699
848.10 0.3187687
848.20 0.3186676
848.30 0.3185664
848.40 0.3184654
848.50 0.3183643
848.60 0.3182633
848.70 0.3181623
848.80 0.3180614
848.90 0.3179605
849.00 0.3178597
849.10 0.3177589
849.20 0.3176581
849.30 0.3175574
849.40 0.3174567
849.50 0.317356
849.60 0.3172554
849.70 0.3171548
849.80 0.3170543
849.90 0.3169538
850.00 0.3168533
850.10 0.3167529
850.20 0.3166525
850.30 0.3165521
850.40 0.3164518
850.50 0.3163515
850.60 0.3162513
850.70 0.3161511
850.80 0.316051
850.90 0.3159508
851.00 0.3158508
851.10 0.3157507
851.20 0.3156507
851.30 0.3155507
851.40 0.3154508
851.50 0.3153509
851.60 0.3152511
851.70 0.3151513
851.80 0.3150515
851.90 0.3149518
852.00 0.3148521
852.10 0.3147524
852.20 0.3146528
852.30 0.3145532
852.40 0.3144536
852.50 0.3143541
852.60 0.3142547
852.70 0.3141552
852.80 0.3140558
852.90 0.3139565
853.00 0.3138572
853.10 0.3137579
853.20 0.3136586
853.30 0.3135594
853.40 0.3134603
853.50 0.3133611
853.60 0.313262
853.70 0.3131631
853.80 0.3130644
853.90 0.3129656
854.00 0.3128669
854.10 0.3127683
854.20 0.3126697
854.30 0.3125711
854.40 0.3124726
854.50 0.3123741
854.60 0.3122756
854.70 0.3121772
854.80 0.3120788
854.90 0.3119805
855.00 0.3118821
855.10 0.3117839
855.20 0.3116856
855.30 0.3115874
855.40 0.3114893
855.50 0.3113911
855.60 0.3112931
855.70 0.311195
855.80 0.311097
855.90 0.310999
856.00 0.3109011
856.10 0.3108032
856.20 0.3107053
856.30 0.3106075
856.40 0.3105097
856.50 0.3104119
856.60 0.3103142
856.70 0.3102166
856.80 0.3101189
856.90 0.3100213
857.00 0.3099237
857.10 0.3098262
857.20 0.3097287
857.30 0.3096313
857.40 0.3095339
857.50 0.3094365
857.60 0.3093391
857.70 0.3092418
857.80 0.3091446
857.90 0.3090473
858.00 0.3089501
858.10 0.308853
858.20 0.3087558
858.30 0.3086588
858.40 0.3085617
858.50 0.3084647
858.60 0.3083677
858.70 0.3082708
858.80 0.3081739
858.90 0.308077
859.00 0.3079802
859.10 0.3078834
859.20 0.3077866
859.30 0.3076899
859.40 0.3075932
859.50 0.3074966
859.60 0.3074
859.70 0.3073034
859.80 0.3072069
859.90 0.3071104
860.00 0.3070139
860.10 0.3069175
860.20 0.3068211
860.30 0.3067248
860.40 0.3066285
860.50 0.3065322
860.60 0.3064359
860.70 0.3063397
860.80 0.3062436
860.90 0.3061474
861.00 0.3060513
861.10 0.3059553
861.20 0.3058592
861.30 0.3057633
861.40 0.3056673
861.50 0.3055714
861.60 0.3054755
861.70 0.3053797
861.80 0.3052839
861.90 0.3051881
862.00 0.3050924
862.10 0.3049967
862.20 0.3049008
862.30 0.3048037
862.40 0.3047066
862.50 0.3046095
862.60 0.3045125
862.70 0.3044155
862.80 0.3043185
862.90 0.3042216
863.00 0.3041247
863.10 0.3040279
863.20 0.3039311
863.30 0.3038343
863.40 0.3037376
863.50 0.3036409
863.60 0.3035442
863.70 0.3034476
863.80 0.303351
863.90 0.3032545
864.00 0.303158
864.10 0.3030615
864.20 0.302965
864.30 0.3028686
864.40 0.3027723
864.50 0.3026759
864.60 0.3025796
864.70 0.3024834
864.80 0.3023872
864.90 0.302291
865.00 0.3021948
865.10 0.3020987
865.20 0.3020026
865.30 0.3019066
865.40 0.3018106
865.50 0.3017146
865.60 0.3016187
865.70 0.3015228
865.80 0.3014269
865.90 0.3013311
866.00 0.3012353
866.10 0.3011396
866.20 0.3010439
866.30 0.3009482
866.40 0.3008526
866.50 0.300757
866.60 0.3006614
866.70 0.3005658
866.80 0.3004704
866.90 0.3003749
867.00 0.3002795
867.10 0.3001841
867.20 0.3000887
867.30 0.2999934
867.40 0.2998981
867.50 0.2998029
867.60 0.2997077
867.70 0.2996125
867.80 0.2995174
867.90 0.2994223
868.00 0.2993272
868.10 0.2992322
868.20 0.2991372
868.30 0.2990422
868.40 0.2989473
868.50 0.2988524
868.60 0.2987576
868.70 0.2986627
868.80 0.298568
868.90 0.2984732
869.00 0.2983785
869.10 0.2982838
869.20 0.2981892
869.30 0.2980946
869.40 0.298
869.50 0.2979055
869.60 0.297811
869.70 0.2977166
869.80 0.2976221
869.90 0.2975277
870.00 0.2974334
870.10 0.2973391
870.20 0.2972448
870.30 0.2971506
870.40 0.2970563
870.50 0.2969622
870.60 0.296868
870.70 0.2967739
870.80 0.2966799
870.90 0.2965876
871.00 0.2964956
871.10 0.2964036
871.20 0.2963116
871.30 0.2962197
871.40 0.2961278
871.50 0.2960359
871.60 0.2959441
871.70 0.2958523
871.80 0.2957605
871.90 0.2956688
872.00 0.2955771
872.10 0.2954855
872.20 0.2953939
872.30 0.2953023
872.40 0.2952107
872.50 0.2951192
872.60 0.2950277
872.70 0.2949363
872.80 0.2948449
872.90 0.2947535
873.00 0.2946621
873.10 0.2945708
873.20 0.2944795
873.30 0.2943883
873.40 0.2942971
873.50 0.2942059
873.60 0.2941148
873.70 0.2940237
873.80 0.2939326
873.90 0.2938415
874.00 0.2937505
874.10 0.2936596
874.20 0.2935686
874.30 0.2934777
874.40 0.2933868
874.50 0.293296
874.60 0.2932052
874.70 0.2931144
874.80 0.2930237
874.90 0.292933
875.00 0.2928423
875.10 0.2927517
875.20 0.2926599
875.30 0.2925659
875.40 0.292472
875.50 0.2923781
875.60 0.2922843
875.70 0.2921905
875.80 0.2920967
875.90 0.292003
876.00 0.2919093
876.10 0.2918156
876.20 0.291722
876.30 0.2916284
876.40 0.2915348
876.50 0.2914413
876.60 0.2913478
876.70 0.2912543
876.80 0.2911609
876.90 0.2910675
877.00 0.2909741
877.10 0.2908808
877.20 0.2907875
877.30 0.2906943
877.40 0.2906011
877.50 0.2905079
877.60 0.2904148
877.70 0.2903216
877.80 0.2902286
877.90 0.2901355
878.00 0.2900425
878.10 0.2899496
878.20 0.2898566
878.30 0.2897637
878.40 0.2896709
878.50 0.289578
878.60 0.2894852
878.70 0.2893925
878.80 0.2892997
878.90 0.2892071
879.00 0.2891144
879.10 0.2890218
879.20 0.2889292
879.30 0.2888366
879.40 0.2887441
879.50 0.2886516
879.60 0.2885621
879.70 0.2884733
879.80 0.2883845
879.90 0.2882957
880.00 0.288207
880.10 0.2881183
880.20 0.2880297
880.30 0.287941
880.40 0.2878524
880.50 0.2877639
880.60 0.2876753
880.70 0.2875868
880.80 0.2874984
880.90 0.2874099
881.00 0.2873215
881.10 0.2872331
881.20 0.2871448
881.30 0.2870565
881.40 0.2869682
881.50 0.28688
881.60 0.2867918
881.70 0.2867036
881.80 0.2866155
881.90 0.2865274
882.00 0.2864393
882.10 0.2863513
882.20 0.2862632
882.30 0.2861753
882.40 0.2860873
882.50 0.2859994
882.60 0.2859115
882.70 0.2858237
882.80 0.2857359
882.90 0.2856481
883.00 0.2855603
883.10 0.2854726
883.20 0.2853849
883.30 0.2852973
883.40 0.2852097
883.50 0.2851221
883.60 0.2850345
883.70 0.284947
883.80 0.2848595
883.90 0.284772
884.00 0.2846818
884.10 0.2845912
884.20 0.2845005
884.30 0.2844099
884.40 0.2843193
884.50 0.2842288
884.60 0.2841382
884.70 0.2840478
884.80 0.2839573
884.90 0.2838669
885.00 0.2837765
885.10 0.2836862
885.20 0.2835959
885.30 0.2835056
885.40 0.2834153
885.50 0.2833251
885.60 0.2832349
885.70 0.2831448
885.80 0.2830547
885.90 0.2829646
886.00 0.2828745
886.10 0.2827845
886.20 0.2826945
886.30 0.2826046
886.40 0.2825147
886.50 0.2824248
886.60 0.282335
886.70 0.2822451
886.80 0.2821554
886.90 0.2820656
887.00 0.2819759
887.10 0.2818862
887.20 0.2817966
887.30 0.281707
887.40 0.2816174
887.50 0.2815278
887.60 0.2814383
887.70 0.2813489
887.80 0.2812594
887.90 0.28117
888.00 0.2810806
888.10 0.2809913
888.20 0.2809019
888.30 0.2808127
888.40 0.280725
888.50 0.2806377
888.60 0.2805504
888.70 0.2804631
888.80 0.2803759
888.90 0.2802886
889.00 0.2802015
889.10 0.2801143
889.20 0.2800272
889.30 0.2799401
889.40 0.279853
889.50 0.279766
889.60 0.279679
889.70 0.2795921
889.80 0.2795051
889.90 0.2794183
890.00 0.2793314
890.10 0.2792446
890.20 0.2791578
890.30 0.279071
890.40 0.2789843
890.50 0.2788976
890.60 0.2788109
890.70 0.2787242
890.80 0.2786376
890.90 0.2785511
891.00 0.2784645
891.10 0.278378
891.20 0.2782915
891.30 0.2782051
891.40 0.2781187
891.50 0.2780323
891.60 0.2779459
891.70 0.2778596
891.80 0.2777733
891.90 0.277687
892.00 0.2776008
892.10 0.2775146
892.20 0.2774285
892.30 0.2773423
892.40 0.2772562
892.50 0.2771702
892.60 0.2770841
892.70 0.2769981
892.80 0.2769122
892.90 0.2768262
893.00 0.2767403
893.10 0.2766544
893.20 0.2765686
893.30 0.2764828
893.40 0.276397
893.50 0.2763112
893.60 0.2762255
893.70 0.2761398
893.80 0.2760542
893.90 0.2759685
894.00 0.2758829
894.10 0.2757974
894.20 0.2757118
894.30 0.2756263
894.40 0.2755409
894.50 0.2754554
894.60 0.27537
894.70 0.2752846
894.80 0.2751993
894.90 0.275114
895.00 0.2750287
895.10 0.2749434
895.20 0.2748582
895.30 0.274773
895.40 0.2746879
895.50 0.2746028
895.60 0.2745177
895.70 0.2744326
895.80 0.2743476
895.90 0.2742626
896.00 0.2741776
896.10 0.2740927
896.20 0.2740077
896.30 0.2739229
896.40 0.273838
896.50 0.2737532
896.60 0.2736684
896.70 0.2735837
896.80 0.2734989
896.90 0.2734143
897.00 0.2733296
897.10 0.273245
897.20 0.2731603
897.30 0.2730744
897.40 0.2729886
897.50 0.2729027
897.60 0.2728169
897.70 0.2727312
897.80 0.2726454
897.90 0.2725597
898.00 0.272474
898.10 0.2723884
898.20 0.2723028
898.30 0.2722172
898.40 0.2721316
898.50 0.2720461
898.60 0.2719606
898.70 0.2718752
898.80 0.2717898
898.90 0.2717044
899.00 0.271619
899.10 0.2715337
899.20 0.2714484
899.30 0.2713631
899.40 0.2712779
899.50 0.2711927
899.60 0.2711075
899.70 0.2710223
899.80 0.2709372
899.90 0.2708521
900.00 0.2707671
900.10 0.2706821
900.20 0.2705971
900.30 0.2705121
900.40 0.2704272
900.50 0.2703423
900.60 0.2702574
900.70 0.2701726
900.80 0.2700878
900.90 0.270003
901.00 0.2699183
901.10 0.2698336
901.20 0.2697489
901.30 0.2696643
901.40 0.2695796
901.50 0.2694951
901.60 0.2694105
901.70 0.2693265
901.80 0.2692451
901.90 0.2691638
902.00 0.2690824
902.10 0.2690011
902.20 0.2689199
902.30 0.2688386
902.40 0.2687574
902.50 0.2686762
902.60 0.268595
902.70 0.2685139
902.80 0.2684328
902.90 0.2683517
903.00 0.2682707
903.10 0.2681897
903.20 0.2681087
903.30 0.2680277
903.40 0.2679468
903.50 0.2678659
903.60 0.267785
903.70 0.2677042
903.80 0.2676234
903.90 0.2675426
904.00 0.2674618
904.10 0.2673811
904.20 0.2673004
904.30 0.2672198
904.40 0.2671391
904.50 0.2670585
904.60 0.2669779
904.70 0.2668974
904.80 0.2668169
904.90 0.2667364
905.00 0.2666559
905.10 0.2665755
905.20 0.2664951
905.30 0.2664147
905.40 0.2663344
905.50 0.2662541
905.60 0.2661738
905.70 0.2660935
905.80 0.2660133
905.90 0.2659331
906.00 0.2658529
906.10 0.2657728
906.20 0.2656918
906.30 0.2656089
906.40 0.265526
906.50 0.2654431
906.60 0.2653603
906.70 0.2652775
906.80 0.2651948
906.90 0.2651121
907.00 0.2650294
907.10 0.2649467
907.20 0.2648641
907.30 0.2647815
907.40 0.2646989
907.50 0.2646163
907.60 0.2645338
907.70 0.2644513
907.80 0.2643689
907.90 0.2642865
908.00 0.2642041
908.10 0.2641217
908.20 0.2640394
908.30 0.2639571
908.40 0.2638748
908.50 0.2637925
908.60 0.2637103
908.70 0.2636281
908.80 0.263546
908.90 0.2634638
909.00 0.2633817
909.10 0.2632997
909.20 0.2632176
909.30 0.2631356
909.40 0.2630537
909.50 0.2629717
909.60 0.2628898
909.70 0.2628079
909.80 0.262726
909.90 0.2626442
910.00 0.2625624
910.10 0.2624806
910.20 0.2623989
910.30 0.2623172
910.40 0.2622355
910.50 0.2621539
910.60 0.2620722
910.70 0.2619906
910.80 0.2619091
910.90 0.2618275
911.00 0.261746
911.10 0.2616646
911.20 0.2615831
911.30 0.2615017
911.40 0.2614203
911.50 0.261339
911.60 0.2612576
911.70 0.2611763
911.80 0.2610951
911.90 0.2610138
912.00 0.2609326
912.10 0.2608514
912.20 0.2607703
912.30 0.2606892
912.40 0.2606081
912.50 0.260527
912.60 0.260446
912.70 0.260365
912.80 0.260284
912.90 0.260203
913.00 0.2601221
913.10 0.2600412
913.20 0.2599604
913.30 0.2598795
913.40 0.2597987
913.50 0.259718
913.60 0.2596372
913.70 0.2595565
913.80 0.2594758
913.90 0.2593952
914.00 0.2593145
914.10 0.2592339
914.20 0.2591534
914.30 0.2590728
914.40 0.2589923
914.50 0.2589118
914.60 0.2588314
914.70 0.258751
914.80 0.2586706
914.90 0.2585902
915.00 0.2585099
915.10 0.2584296
915.20 0.2583493
915.30 0.2582692
915.40 0.2581892
915.50 0.2581093
915.60 0.2580293
915.70 0.2579494
915.80 0.2578696
915.90 0.2577897
916.00 0.2577099
916.10 0.2576301
916.20 0.2575504
916.30 0.2574706
916.40 0.2573909
916.50 0.2573113
916.60 0.2572316
916.70 0.257152
916.80 0.2570724
916.90 0.2569929
917.00 0.2569133
917.10 0.2568338
917.20 0.2567544
917.30 0.2566749
917.40 0.2565955
917.50 0.2565161
917.60 0.2564368
917.70 0.2563574
917.80 0.2562781
917.90 0.2561989
918.00 0.2561196
918.10 0.2560404
918.20 0.2559612
918.30 0.2558821
918.40 0.2558029
918.50 0.2557238
918.60 0.2556448
918.70 0.2555657
918.80 0.2554867
918.90 0.2554077
919.00 0.2553288
919.10 0.2552498
919.20 0.2551709
919.30 0.2550921
919.40 0.2550132
919.50 0.2549344
919.60 0.2548556
919.70 0.2547768
919.80 0.2546981
919.90 0.2546221
920.00 0.2545464
920.10 0.2544707
920.20 0.2543949
920.30 0.2543193
920.40 0.2542436
920.50 0.254168
920.60 0.2540924
920.70 0.2540168
920.80 0.2539413
920.90 0.2538657
921.00 0.2537903
921.10 0.2537148
921.20 0.2536394
921.30 0.2535639
921.40 0.2534886
921.50 0.2534132
921.60 0.2533379
921.70 0.2532626
921.80 0.2531873
921.90 0.253112
922.00 0.2530368
922.10 0.2529616
922.20 0.2528864
922.30 0.2528113
922.40 0.2527362
922.50 0.2526611
922.60 0.252586
922.70 0.252511
922.80 0.252436
922.90 0.252361
923.00 0.252286
923.10 0.2522111
923.20 0.2521362
923.30 0.2520613
923.40 0.2519865
923.50 0.2519116
923.60 0.2518368
923.70 0.2517621
923.80 0.2516873
923.90 0.2516126
924.00 0.2515379
924.10 0.2514632
924.20 0.2513886
924.30 0.251314
924.40 0.2512389
924.50 0.2511617
924.60 0.2510845
924.70 0.2510073
924.80 0.2509302
924.90 0.2508531
925.00 0.250776
925.10 0.250699
925.20 0.2506219
925.30 0.2505449
925.40 0.250468
925.50 0.250391
925.60 0.2503141
925.70 0.2502372
925.80 0.2501603
925.90 0.2500835
926.00 0.2500067
926.10 0.2499299
926.20 0.2498532
926.30 0.2497764
926.40 0.2496997
926.50 0.2496231
926.60 0.2495464
926.70 0.2494698
926.80 0.2493932
926.90 0.2493167
927.00 0.2492401
927.10 0.2491636
927.20 0.2490871
927.30 0.2490107
927.40 0.2489343
927.50 0.2488579
927.60 0.2487815
927.70 0.2487052
927.80 0.2486288
927.90 0.2485525
928.00 0.2484763
928.10 0.2484
928.20 0.2483238
928.30 0.2482477
928.40 0.2481715
928.50 0.2480954
928.60 0.2480193
928.70 0.2479432
928.80 0.2478672
928.90 0.2477911
929.00 0.2477151
929.10 0.2476392
929.20 0.2475632
929.30 0.2474873
929.40 0.2474114
929.50 0.2473356
929.60 0.2472598
929.70 0.2471839
929.80 0.2471082
929.90 0.2470324
930.00 0.2469567
930.10 0.246881
930.20 0.2468053
930.30 0.2467297
930.40 0.2466541
930.50 0.2465785
930.60 0.2465029
930.70 0.2464274
930.80 0.2463519
930.90 0.2462764
931.00 0.2462009
931.10 0.2461255
931.20 0.2460501
931.30 0.2459747
931.40 0.2458994
931.50 0.2458241
931.60 0.2457488
931.70 0.2456735
931.80 0.2455983
931.90 0.245523
932.00 0.2454479
932.10 0.2453727
932.20 0.2452976
932.30 0.2452224
932.40 0.2451474
932.50 0.2450723
932.60 0.2449973
932.70 0.2449223
932.80 0.2448473
932.90 0.2447724
933.00 0.2446974
933.10 0.2446225
933.20 0.2445477
933.30 0.2444728
933.40 0.244398
933.50 0.2443232
933.60 0.2442484
933.70 0.2441739
933.80 0.2440994
933.90 0.2440249
934.00 0.2439505
934.10 0.2438761
934.20 0.2438017
934.30 0.2437273
934.40 0.243653
934.50 0.2435787
934.60 0.2435044
934.70 0.2434302
934.80 0.2433559
934.90 0.2432817
935.00 0.2432075
935.10 0.2431334
935.20 0.2430593
935.30 0.2429852
935.40 0.2429111
935.50 0.2428371
935.60 0.242763
935.70 0.242689
935.80 0.2426151
935.90 0.2425411
936.00 0.2424672
936.10 0.2423933
936.20 0.2423195
936.30 0.2422456
936.40 0.2421718
936.50 0.242098
936.60 0.2420243
936.70 0.2419506
936.80 0.2418768
936.90 0.2418032
937.00 0.2417295
937.10 0.2416559
937.20 0.2415823
937.30 0.2415087
937.40 0.2414352
937.50 0.2413616
937.60 0.2412881
937.70 0.2412147
937.80 0.2411412
937.90 0.2410678
938.00 0.2409944
938.10 0.240921
938.20 0.2408477
938.30 0.2407744
938.40 0.2407011
938.50 0.2406278
938.60 0.2405546
938.70 0.2404813
938.80 0.2404082
938.90 0.240335
939.00 0.2402619
939.10 0.2401887
939.20 0.2401157
939.30 0.2400426
939.40 0.2399696
939.50 0.2398965
939.60 0.2398236
939.70 0.2397506
939.80 0.2396777
939.90 0.2396048
940.00 0.2395319
940.10 0.239459
940.20 0.2393862
940.30 0.2393134
940.40 0.2392406
940.50 0.2391679
940.60 0.2390951
940.70 0.2390224
940.80 0.2389498
940.90 0.2388771
941.00 0.2388045
941.10 0.2387319
941.20 0.2386593
941.30 0.2385867
941.40 0.2385142
941.50 0.2384417
941.60 0.2383692
941.70 0.2382968
941.80 0.2382244
941.90 0.238152
942.00 0.2380796
942.10 0.2380073
942.20 0.2379349
942.30 0.2378626
942.40 0.2377904
942.50 0.2377181
942.60 0.2376459
942.70 0.2375737
942.80 0.2375015
942.90 0.2374294
943.00 0.2373574
943.10 0.2372855
943.20 0.2372136
943.30 0.2371418
943.40 0.23707
943.50 0.2369982
943.60 0.2369265
943.70 0.2368548
943.80 0.2367831
943.90 0.2367114
944.00 0.2366397
944.10 0.2365681
944.20 0.2364965
944.30 0.2364249
944.40 0.2363534
944.50 0.2362818
944.60 0.2362103
944.70 0.2361389
944.80 0.2360674
944.90 0.235996
945.00 0.2359246
945.10 0.2358532
945.20 0.2357819
945.30 0.2357105
945.40 0.2356392
945.50 0.235568
945.60 0.2354967
945.70 0.2354255
945.80 0.2353543
945.90 0.2352831
946.00 0.235212
946.10 0.2351408
946.20 0.2350697
946.30 0.2349986
946.40 0.2349276
946.50 0.2348566
946.60 0.2347856
946.70 0.2347146
946.80 0.2346436
946.90 0.2345727
947.00 0.2345018
947.10 0.2344309
947.20 0.2343601
947.30 0.2342892
947.40 0.2342184
947.50 0.2341476
947.60 0.2340769
947.70 0.2340062
947.80 0.2339354
947.90 0.2338648
948.00 0.2337941
948.10 0.2337235
948.20 0.2336529
948.30 0.2335823
948.40 0.2335117
948.50 0.2334412
948.60 0.2333707
948.70 0.2333002
948.80 0.2332297
948.90 0.2331593
949.00 0.2330889
949.10 0.2330185
949.20 0.2329481
949.30 0.2328778
949.40 0.2328075
949.50 0.2327372
949.60 0.2326669
949.70 0.2325967
949.80 0.2325265
949.90 0.2324563
950.00 0.2323861
950.10 0.232316
950.20 0.2322458
950.30 0.2321757
950.40 0.2321057
950.50 0.2320356
950.60 0.2319656
950.70 0.2318956
950.80 0.2318256
950.90 0.2317557
951.00 0.2316858
951.10 0.2316159
951.20 0.231546
951.30 0.2314761
951.40 0.2314063
951.50 0.2313365
951.60 0.2312667
951.70 0.231197
951.80 0.2311272
951.90 0.2310575
952.00 0.2309879
952.10 0.2309182
952.20 0.2308486
952.30 0.230779
952.40 0.2307094
952.50 0.23064
952.60 0.2305707
952.70 0.2305014
952.80 0.2304321
952.90 0.2303629
953.00 0.2302936
953.10 0.2302244
953.20 0.2301552
953.30 0.2300861
953.40 0.2300169
953.50 0.2299478
953.60 0.2298787
953.70 0.2298097
953.80 0.2297406
953.90 0.2296716
954.00 0.2296026
954.10 0.2295337
954.20 0.2294647
954.30 0.2293958
954.40 0.2293269
954.50 0.229258
954.60 0.2291892
954.70 0.2291203
954.80 0.2290515
954.90 0.2289828
955.00 0.228914
955.10 0.2288453
955.20 0.2287766
955.30 0.2287079
955.40 0.2286392
955.50 0.2285706
955.60 0.228502
955.70 0.2284334
955.80 0.2283648
955.90 0.2282963
956.00 0.2282278
956.10 0.2281593
956.20 0.2280908
956.30 0.2280223
956.40 0.2279539
956.50 0.2278855
956.60 0.2278172
956.70 0.2277488
956.80 0.2276805
956.90 0.2276122
957.00 0.2275439
957.10 0.2274756
957.20 0.2274074
957.30 0.2273392
957.40 0.227271
957.50 0.2272028
957.60 0.2271347
957.70 0.2270666
957.80 0.2269985
957.90 0.2269304
958.00 0.2268624
958.10 0.2267943
958.20 0.2267263
958.30 0.2266584
958.40 0.2265904
958.50 0.2265225
958.60 0.2264546
958.70 0.2263867
958.80 0.2263188
958.90 0.226251
959.00 0.2261832
959.10 0.2261154
959.20 0.2260476
959.30 0.2259799
959.40 0.2259122
959.50 0.2258445
959.60 0.2257768
959.70 0.2257092
959.80 0.2256415
959.90 0.2255739
960.00 0.2255064
960.10 0.2254388
960.20 0.2253713
960.30 0.2253038
960.40 0.2252363
960.50 0.2251688
960.60 0.2251014
960.70 0.2250339
960.80 0.2249666
960.90 0.2248992
961.00 0.2248318
961.10 0.2247645
961.20 0.2246972
961.30 0.2246299
961.40 0.2245627
961.50 0.2244955
961.60 0.2244282
961.70 0.2243611
961.80 0.2242939
961.90 0.2242268
962.00 0.2241587
962.10 0.2240906
962.20 0.2240225
962.30 0.2239543
962.40 0.2238863
962.50 0.2238182
962.60 0.2237501
962.70 0.2236821
962.80 0.2236141
962.90 0.2235462
963.00 0.2234782
963.10 0.2234103
963.20 0.2233424
963.30 0.2232745
963.40 0.2232067
963.50 0.2231388
963.60 0.223071
963.70 0.2230032
963.80 0.2229355
963.90 0.2228677
964.00 0.2228
964.10 0.2227323
964.20 0.2226647
964.30 0.222597
964.40 0.2225294
964.50 0.2224618
964.60 0.2223942
964.70 0.2223267
964.80 0.2222592
964.90 0.2221917
965.00 0.2221242
965.10 0.2220567
965.20 0.2219893
965.30 0.2219219
965.40 0.2218545
965.50 0.2217871
965.60 0.2217198
965.70 0.2216524
965.80 0.2215852
965.90 0.2215179
966.00 0.2214506
966.10 0.2213834
966.20 0.2213162
966.30 0.221249
966.40 0.2211819
966.50 0.2211147
966.60 0.2210476
966.70 0.2209805
966.80 0.2209135
966.90 0.2208464
967.00 0.2207794
967.10 0.2207124
967.20 0.2206454
967.30 0.2205785
967.40 0.2205116
967.50 0.2204446
967.60 0.2203778
967.70 0.2203109
967.80 0.2202441
967.90 0.2201773
968.00 0.2201105
968.10 0.2200437
968.20 0.219977
968.30 0.2199102
968.40 0.2198435
968.50 0.2197769
968.60 0.2197102
968.70 0.2196436
968.80 0.219577
968.90 0.2195104
969.00 0.2194438
969.10 0.2193773
969.20 0.2193108
969.30 0.2192443
969.40 0.2191778
969.50 0.2191114
969.60 0.2190449
969.70 0.2189785
969.80 0.2189122
969.90 0.2188458
970.00 0.2187795
970.10 0.2187132
970.20 0.2186469
970.30 0.2185806
970.40 0.2185144
970.50 0.2184481
970.60 0.2183819
970.70 0.2183158
970.80 0.2182496
970.90 0.2181835
971.00 0.2181174
971.10 0.2180513
971.20 0.2179852
971.30 0.2179192
971.40 0.2178532
971.50 0.2177872
971.60 0.2177221
971.70 0.2176576
971.80 0.2175931
971.90 0.2175287
972.00 0.2174642
972.10 0.2173998
972.20 0.2173354
972.30 0.217271
972.40 0.2172067
972.50 0.2171424
972.60 0.217078
972.70 0.2170137
972.80 0.2169495
972.90 0.2168852
973.00 0.216821
973.10 0.2167568
973.20 0.2166926
973.30 0.2166285
973.40 0.2165643
973.50 0.2165002
973.60 0.2164361
973.70 0.216372
973.80 0.216308
973.90 0.216244
974.00 0.21618
974.10 0.216116
974.20 0.216052
974.30 0.2159881
974.40 0.2159241
974.50 0.2158602
974.60 0.2157964
974.70 0.2157325
974.80 0.2156687
974.90 0.2156049
975.00 0.2155411
975.10 0.2154773
975.20 0.2154136
975.30 0.2153498
975.40 0.2152861
975.50 0.2152225
975.60 0.2151588
975.70 0.2150952
975.80 0.2150315
975.90 0.2149679
976.00 0.2149044
976.10 0.2148408
976.20 0.2147773
976.30 0.2147138
976.40 0.2146503
976.50 0.2145868
976.60 0.2145234
976.70 0.2144599
976.80 0.2143965
976.90 0.2143332
977.00 0.2142698
977.10 0.2142065
977.20 0.2141432
977.30 0.2140799
977.40 0.2140166
977.50 0.2139533
977.60 0.2138901
977.70 0.2138269
977.80 0.2137637
977.90 0.2137005
978.00 0.2136374
978.10 0.2135743
978.20 0.2135112
978.30 0.2134481
978.40 0.213385
978.50 0.213322
978.60 0.213259
978.70 0.213196
978.80 0.213133
978.90 0.21307
979.00 0.2130071
979.10 0.2129442
979.20 0.2128813
979.30 0.2128184
979.40 0.2127556
979.50 0.2126928
979.60 0.21263
979.70 0.2125672
979.80 0.2125044
979.90 0.2124417
980.00 0.212379
980.10 0.2123163
980.20 0.2122536
980.30 0.2121909
980.40 0.2121283
980.50 0.2120657
980.60 0.2120031
980.70 0.2119405
980.80 0.211878
980.90 0.2118154
981.00 0.2117529
981.10 0.2116904
981.20 0.211628
981.30 0.2115656
981.40 0.2115034
981.50 0.2114412
981.60 0.211379
981.70 0.2113168
981.80 0.2112547
981.90 0.2111925
982.00 0.2111304
982.10 0.2110683
982.20 0.2110063
982.30 0.2109442
982.40 0.2108822
982.50 0.2108202
982.60 0.2107582
982.70 0.2106963
982.80 0.2106343
982.90 0.2105724
983.00 0.2105105
983.10 0.2104486
983.20 0.2103868
983.30 0.210325
983.40 0.2102631
983.50 0.2102014
983.60 0.2101396
983.70 0.2100778
983.80 0.2100161
983.90 0.2099544
984.00 0.2098927
984.10 0.209831
984.20 0.2097694
984.30 0.2097078
984.40 0.2096461
984.50 0.2095846
984.60 0.209523
984.70 0.2094615
984.80 0.2093999
984.90 0.2093384
985.00 0.2092769
985.10 0.2092155
985.20 0.209154
985.30 0.2090926
985.40 0.2090312
985.50 0.2089698
985.60 0.2089085
985.70 0.2088471
985.80 0.2087858
985.90 0.2087245
986.00 0.2086633
986.10 0.208602
986.20 0.2085408
986.30 0.2084795
986.40 0.2084184
986.50 0.2083572
986.60 0.208296
986.70 0.2082349
986.80 0.2081738
986.90 0.2081127
987.00 0.2080516
987.10 0.2079906
987.20 0.2079295
987.30 0.2078685
987.40 0.2078075
987.50 0.2077466
987.60 0.2076856
987.70 0.2076247
987.80 0.2075638
987.90 0.2075029
988.00 0.207442
988.10 0.2073812
988.20 0.2073204
988.30 0.2072596
988.40 0.2071988
988.50 0.207138
988.60 0.2070773
988.70 0.2070165
988.80 0.2069558
988.90 0.2068952
989.00 0.2068345
989.10 0.2067738
989.20 0.2067132
989.30 0.2066526
989.40 0.206592
989.50 0.2065315
989.60 0.2064709
989.70 0.2064104
989.80 0.2063499
989.90 0.2062894
990.00 0.206229
990.10 0.2061685
990.20 0.2061081
990.30 0.2060477
990.40 0.2059873
990.50 0.205927
990.60 0.2058666
990.70 0.2058063
990.80 0.205746
990.90 0.2056857
991.00 0.2056255
991.10 0.2055645
991.20 0.2055021
991.30 0.2054398
991.40 0.2053775
991.50 0.2053152
991.60 0.2052529
991.70 0.2051906
991.80 0.2051284
991.90 0.2050662
992.00 0.205004
992.10 0.2049418
992.20 0.2048797
992.30 0.2048176
992.40 0.2047555
992.50 0.2046934
992.60 0.2046313
992.70 0.2045693
992.80 0.2045073
992.90 0.2044453
993.00 0.2043833
993.10 0.2043213
993.20 0.2042594
993.30 0.2041975
993.40 0.2041356
993.50 0.2040737
993.60 0.2040119
993.70 0.20395
993.80 0.2038882
993.90 0.2038264
994.00 0.2037646
994.10 0.2037029
994.20 0.2036412
994.30 0.2035795
994.40 0.2035178
994.50 0.2034561
994.60 0.2033945
994.70 0.2033328
994.80 0.2032712
994.90 0.2032096
995.00 0.2031481
995.10 0.2030865
995.20 0.203025
995.30 0.2029635
995.40 0.202902
995.50 0.2028406
995.60 0.2027791
995.70 0.2027177
995.80 0.2026563
995.90 0.2025949
996.00 0.2025336
996.10 0.2024741
996.20 0.2024151
996.30 0.2023561
996.40 0.2022971
996.50 0.2022382
996.60 0.2021792
996.70 0.2021203
996.80 0.2020614
996.90 0.2020025
997.00 0.2019437
997.10 0.2018848
997.20 0.201826
997.30 0.2017672
997.40 0.2017084
997.50 0.2016497
997.60 0.2015909
997.70 0.2015322
997.80 0.2014735
997.90 0.2014148
998.00 0.2013562
998.10 0.2012975
998.20 0.2012389
998.30 0.2011803
998.40 0.2011217
998.50 0.2010631
998.60 0.2010046
998.70 0.200946
998.80 0.2008875
998.90 0.200829
999.00 0.2007706
999.10 0.2007121
999.20 0.2006537
999.30 0.2005953
999.40 0.2005369
999.50 0.2004785
999.60 0.2004202
999.70 0.2003618
999.80 0.2003035
999.90 0.2002452
1000.00 0.2001869
1000.10 0.2001287
1000.20 0.2000704
1000.30 0.2000122
1000.40 0.199954
1000.50 0.1998958
1000.60 0.1998377
1000.70 0.1997795
1000.80 0.1997214
1000.90 0.1996633
1001.00 0.1996053
1001.10 0.1995474
1001.20 0.1994895
1001.30 0.1994317
1001.40 0.1993738
1001.50 0.199316
1001.60 0.1992582
1001.70 0.1992005
1001.80 0.1991427
1001.90 0.199085
1002.00 0.1990273
1002.10 0.1989696
1002.20 0.1989119
1002.30 0.1988542
1002.40 0.1987966
1002.50 0.198739
1002.60 0.1986814
1002.70 0.1986238
1002.80 0.1985662
1002.90 0.1985087
1003.00 0.1984511
1003.10 0.1983936
1003.20 0.1983362
1003.30 0.1982787
1003.40 0.1982212
1003.50 0.1981638
1003.60 0.1981064
1003.70 0.198049
1003.80 0.1979916
1003.90 0.1979343
1004.00 0.1978769
1004.10 0.1978196
1004.20 0.1977623
1004.30 0.197705
1004.40 0.1976478
1004.50 0.1975905
1004.60 0.1975333
1004.70 0.1974761
1004.80 0.1974189
1004.90 0.1973618
1005.00 0.1973046
1005.10 0.1972475
1005.20 0.1971904
1005.30 0.1971333
1005.40 0.1970762
1005.50 0.1970192
1005.60 0.1969621
1005.70 0.1969051
1005.80 0.1968481
1005.90 0.1967912
1006.00 0.1967337
1006.10 0.1966746
1006.20 0.1966154
1006.30 0.1965563
1006.40 0.1964972
1006.50 0.1964381
1006.60 0.196379
1006.70 0.1963199
1006.80 0.1962609
1006.90 0.1962019
1007.00 0.1961429
1007.10 0.1960839
1007.20 0.1960249
1007.30 0.195966
1007.40 0.1959071
1007.50 0.1958482
1007.60 0.1957893
1007.70 0.1957305
1007.80 0.1956716
1007.90 0.1956128
1008.00 0.195554
1008.10 0.1954952
1008.20 0.1954364
1008.30 0.1953777
1008.40 0.195319
1008.50 0.1952603
1008.60 0.1952016
1008.70 0.1951429
1008.80 0.1950843
1008.90 0.1950257
1009.00 0.1949671
1009.10 0.1949085
1009.20 0.1948499
1009.30 0.1947913
1009.40 0.1947328
1009.50 0.1946743
1009.60 0.1946158
1009.70 0.1945573
1009.80 0.1944989
1009.90 0.1944405
1010.00 0.194382
1010.10 0.1943237
1010.20 0.1942653
1010.30 0.1942069
1010.40 0.1941486
1010.50 0.1940903
1010.60 0.194032
1010.70 0.1939737
1010.80 0.1939154
1010.90 0.1938572
1011.00 0.1937994
1011.10 0.1937436
1011.20 0.1936878
1011.30 0.193632
1011.40 0.1935762
1011.50 0.1935205
1011.60 0.1934648
1011.70 0.1934091
1011.80 0.1933534
1011.90 0.1932977
1012.00 0.1932421
1012.10 0.1931864
1012.20 0.1931308
1012.30 0.1930752
1012.40 0.1930196
1012.50 0.1929641
1012.60 0.1929085
1012.70 0.192853
1012.80 0.1927975
1012.90 0.192742
1013.00 0.1926865
1013.10 0.1926311
1013.20 0.1925757
1013.30 0.1925202
1013.40 0.1924648
1013.50 0.1924095
1013.60 0.1923541
1013.70 0.1922988
1013.80 0.1922434
1013.90 0.1921881
1014.00 0.1921328
1014.10 0.1920776
1014.20 0.1920223
1014.30 0.1919671
1014.40 0.1919119
1014.50 0.1918567
1014.60 0.1918015
1014.70 0.1917463
1014.80 0.1916912
1014.90 0.1916361
1015.00 0.191581
1015.10 0.1915259
1015.20 0.1914708
1015.30 0.1914157
1015.40 0.1913607
1015.50 0.1913057
1015.60 0.1912507
1015.70 0.1911957
1015.80 0.1911407
1015.90 0.1910858
1016.00 0.1910309
1016.10 0.190976
1016.20 0.1909211
1016.30 0.1908662
1016.40 0.1908113
1016.50 0.1907565
1016.60 0.1907017
1016.70 0.1906469
1016.80 0.1905921
1016.90 0.1905373
1017.00 0.1904826
1017.10 0.1904278
1017.20 0.1903731
1017.30 0.1903184
1017.40 0.1902638
1017.50 0.1902091
1017.60 0.1901545
1017.70 0.1900998
1017.80 0.1900452
1017.90 0.1899906
1018.00 0.1899361
1018.10 0.1898815
1018.20 0.189827
1018.30 0.1897725
1018.40 0.189718
1018.50 0.1896635
1018.60 0.189609
1018.70 0.1895546
1018.80 0.1895001
1018.90 0.1894457
1019.00 0.1893913
1019.10 0.189337
1019.20 0.1892826
1019.30 0.1892283
1019.40 0.1891739
1019.50 0.1891196
1019.60 0.1890653
1019.70 0.1890111
1019.80 0.1889568
1019.90 0.1889026
1020.00 0.1888484
1020.10 0.1887942
1020.20 0.18874
1020.30 0.1886858
1020.40 0.1886317
1020.50 0.1885775
1020.60 0.1885234
1020.70 0.1884693
1020.80 0.1884153
1020.90 0.1883612
1021.00 0.1883072
1021.10 0.188253
1021.20 0.188197
1021.30 0.1881411
1021.40 0.1880852
1021.50 0.1880293
1021.60 0.1879734
1021.70 0.1879175
1021.80 0.1878617
1021.90 0.1878059
1022.00 0.1877501
1022.10 0.1876943
1022.20 0.1876385
1022.30 0.1875827
1022.40 0.187527
1022.50 0.1874713
1022.60 0.1874156
1022.70 0.1873599
1022.80 0.1873042
1022.90 0.1872486
1023.00 0.187193
1023.10 0.1871374
1023.20 0.1870818
1023.30 0.1870262
1023.40 0.1869706
1023.50 0.1869151
1023.60 0.1868596
1023.70 0.1868041
1023.80 0.1867486
1023.90 0.1866931
1024.00 0.1866377
1024.10 0.1865823
1024.20 0.1865269
1024.30 0.1864715
1024.40 0.1864161
1024.50 0.1863607
1024.60 0.1863054
1024.70 0.1862501
1024.80 0.1861948
1024.90 0.1861395
1025.00 0.1860842
1025.10 0.186029
1025.20 0.1859738
1025.30 0.1859185
1025.40 0.1858633
1025.50 0.1858082
1025.60 0.185753
1025.70 0.1856979
1025.80 0.1856428
1025.90 0.1855876
1026.00 0.1855326
1026.10 0.1854775
1026.20 0.1854225
1026.30 0.1853695
1026.40 0.1853166
1026.50 0.1852637
1026.60 0.1852108
1026.70 0.185158
1026.80 0.1851051
1026.90 0.1850523
1027.00 0.1849995
1027.10 0.1849467
1027.20 0.1848939
1027.30 0.1848411
1027.40 0.1847884
1027.50 0.1847356
1027.60 0.1846829
1027.70 0.1846302
1027.80 0.1845776
1027.90 0.1845249
1028.00 0.1844722
1028.10 0.1844196
1028.20 0.184367
1028.30 0.1843144
1028.40 0.1842618
1028.50 0.1842093
1028.60 0.1841567
1028.70 0.1841042
1028.80 0.1840517
1028.90 0.1839992
1029.00 0.1839467
1029.10 0.1838943
1029.20 0.1838418
1029.30 0.1837894
1029.40 0.183737
1029.50 0.1836846
1029.60 0.1836322
1029.70 0.1835799
1029.80 0.1835275
1029.90 0.1834752
1030.00 0.1834229
1030.10 0.1833706
1030.20 0.1833183
1030.30 0.1832661
1030.40 0.1832138
1030.50 0.1831616
1030.60 0.1831094
1030.70 0.1830572
1030.80 0.1830051
1030.90 0.1829529
1031.00 0.1829008
1031.10 0.1828486
1031.20 0.1827965
1031.30 0.1827444
1031.40 0.1826925
1031.50 0.1826407
1031.60 0.1825888
1031.70 0.1825369
1031.80 0.1824851
1031.90 0.1824333
1032.00 0.1823815
1032.10 0.1823297
1032.20 0.1822779
1032.30 0.1822262
1032.40 0.1821744
1032.50 0.1821227
1032.60 0.182071
1032.70 0.1820193
1032.80 0.1819676
1032.90 0.181916
1033.00 0.1818643
1033.10 0.1818127
1033.20 0.1817611
1033.30 0.1817095
1033.40 0.181658
1033.50 0.1816064
1033.60 0.1815549
1033.70 0.1815033
1033.80 0.1814518
1033.90 0.1814004
1034.00 0.1813489
1034.10 0.1812974
1034.20 0.181246
1034.30 0.1811946
1034.40 0.1811432
1034.50 0.1810918
1034.60 0.1810404
1034.70 0.180989
1034.80 0.1809377
1034.90 0.1808864
1035.00 0.1808351
1035.10 0.1807838
1035.20 0.1807325
1035.30 0.1806813
1035.40 0.18063
1035.50 0.1805788
1035.60 0.1805276
1035.70 0.1804764
1035.80 0.1804252
1035.90 0.180374
1036.00 0.1803229
1036.10 0.1802718
1036.20 0.1802207
1036.30 0.1801696
1036.40 0.1801185
1036.50 0.1800666
1036.60 0.1800136
1036.70 0.1799605
1036.80 0.1799074
1036.90 0.1798544
1037.00 0.1798014
1037.10 0.1797484
1037.20 0.1796954
1037.30 0.1796424
1037.40 0.1795895
1037.50 0.1795366
1037.60 0.1794836
1037.70 0.1794307
1037.80 0.1793779
1037.90 0.179325
1038.00 0.1792721
1038.10 0.1792193
1038.20 0.1791665
1038.30 0.1791137
1038.40 0.1790609
1038.50 0.1790082
1038.60 0.1789554
1038.70 0.1789027
1038.80 0.17885
1038.90 0.1787973
1039.00 0.1787446
1039.10 0.178692
1039.20 0.1786393
1039.30 0.1785867
1039.40 0.1785341
1039.50 0.1784815
1039.60 0.1784289
1039.70 0.1783764
1039.80 0.1783238
1039.90 0.1782713
1040.00 0.1782188
1040.10 0.1781663
1040.20 0.1781138
1040.30 0.1780614
1040.40 0.1780089
1040.50 0.1779565
1040.60 0.1779041
1040.70 0.1778517
1040.80 0.1777993
1040.90 0.177747
1041.00 0.1776946
1041.10 0.1776423
1041.20 0.17759
1041.30 0.1775377
1041.40 0.1774854
1041.50 0.1774332
1041.60 0.177381
1041.70 0.1773305
1041.80 0.1772805
1041.90 0.1772305
1042.00 0.1771805
1042.10 0.1771305
1042.20 0.1770806
1042.30 0.1770306
1042.40 0.1769807
1042.50 0.1769308
1042.60 0.1768809
1042.70 0.176831
1042.80 0.1767811
1042.90 0.1767313
1043.00 0.1766815
1043.10 0.1766316
1043.20 0.1765818
1043.30 0.176532
1043.40 0.1764823
1043.50 0.1764325
1043.60 0.1763828
1043.70 0.1763331
1043.80 0.1762833
1043.90 0.1762337
1044.00 0.176184
1044.10 0.1761343
1044.20 0.1760847
1044.30 0.176035
1044.40 0.1759854
1044.50 0.1759358
1044.60 0.1758863
1044.70 0.1758367
1044.80 0.1757871
1044.90 0.1757376
1045.00 0.1756881
1045.10 0.1756386
1045.20 0.1755891
1045.30 0.1755396
1045.40 0.1754902
1045.50 0.1754407
1045.60 0.1753913
1045.70 0.1753419
1045.80 0.1752925
1045.90 0.1752431
1046.00 0.1751938
1046.10 0.1751444
1046.20 0.1750951
1046.30 0.1750458
1046.40 0.1749965
1046.50 0.1749472
1046.60 0.1748979
1046.70 0.1748487
1046.80 0.1747994
1046.90 0.1747487
1047.00 0.1746975
1047.10 0.1746464
1047.20 0.1745952
1047.30 0.1745441
1047.40 0.174493
1047.50 0.1744419
1047.60 0.1743908
1047.70 0.1743397
1047.80 0.1742887
1047.90 0.1742376
1048.00 0.1741866
1048.10 0.1741356
1048.20 0.1740846
1048.30 0.1740337
1048.40 0.1739827
1048.50 0.1739318
1048.60 0.1738808
1048.70 0.1738299
1048.80 0.173779
1048.90 0.1737282
1049.00 0.1736773
1049.10 0.1736265
1049.20 0.1735757
1049.30 0.1735248
1049.40 0.1734741
1049.50 0.1734233
1049.60 0.1733725
1049.70 0.1733218
1049.80 0.173271
1049.90 0.1732203
1050.00 0.1731696
1050.10 0.173119
1050.20 0.1730683
1050.30 0.1730177
1050.40 0.172967
1050.50 0.1729164
1050.60 0.1728658
1050.70 0.1728152
1050.80 0.1727647
1050.90 0.1727141
1051.00 0.1726636
1051.10 0.1726131
1051.20 0.1725626
1051.30 0.1725121
1051.40 0.1724616
1051.50 0.1724112
1051.60 0.1723607
1051.70 0.1723103
1051.80 0.1722599
1051.90 0.1722095
1052.00 0.1721591
1052.10 0.1721102
1052.20 0.172062
1052.30 0.1720138
1052.40 0.1719656
1052.50 0.1719174
1052.60 0.1718692
1052.70 0.1718211
1052.80 0.1717729
1052.90 0.1717248
1053.00 0.1716767
1053.10 0.1716286
1053.20 0.1715805
1053.30 0.1715325
1053.40 0.1714844
1053.50 0.1714364
1053.60 0.1713884
1053.70 0.1713404
1053.80 0.1712924
1053.90 0.1712444
1054.00 0.1711965
1054.10 0.1711486
1054.20 0.1711006
1054.30 0.1710527
1054.40 0.1710048
1054.50 0.170957
1054.60 0.1709091
1054.70 0.1708612
1054.80 0.1708134
1054.90 0.1707656
1055.00 0.1707178
1055.10 0.17067
1055.20 0.1706222
1055.30 0.1705745
1055.40 0.1705267
1055.50 0.170479
1055.60 0.1704313
1055.70 0.1703836
1055.80 0.1703359
1055.90 0.1702883
1056.00 0.1702406
1056.10 0.170193
1056.20 0.1701453
1056.30 0.1700977
1056.40 0.1700501
1056.50 0.1700026
1056.60 0.169955
1056.70 0.1699075
1056.80 0.1698599
1056.90 0.1698124
1057.00 0.1697649
1057.10 0.1697174
1057.20 0.16967
1057.30 0.1696225
1057.40 0.1695751
1057.50 0.1695276
1057.60 0.1694802
1057.70 0.1694328
1057.80 0.1693854
1057.90 0.1693381
1058.00 0.1692907
1058.10 0.1692434
1058.20 0.1691961
1058.30 0.1691487
1058.40 0.1691015
1058.50 0.1690542
1058.60 0.1690069
1058.70 0.1689597
1058.80 0.1689124
1058.90 0.1688652
1059.00 0.168818
1059.10 0.1687708
1059.20 0.1687236
1059.30 0.1686765
1059.40 0.1686293
1059.50 0.1685822
1059.60 0.1685351
1059.70 0.168488
1059.80 0.1684409
1059.90 0.1683938
1060.00 0.1683468
1060.10 0.1682997
1060.20 0.1682527
1060.30 0.1682057
1060.40 0.1681587
1060.50 0.1681117
1060.60 0.1680647
1060.70 0.1680178
1060.80 0.1679708
1060.90 0.1679239
1061.00 0.167877
1061.10 0.1678301
1061.20 0.1677832
1061.30 0.1677364
1061.40 0.1676895
1061.50 0.1676427
1061.60 0.1675959
1061.70 0.1675491
1061.80 0.1675023
1061.90 0.1674555
1062.00 0.1674087
1062.10 0.167362
1062.20 0.1673153
1062.30 0.1672685
1062.40 0.1672218
1062.50 0.1671751
1062.60 0.1671277
1062.70 0.1670793
1062.80 0.1670309
1062.90 0.1669825
1063.00 0.1669342
1063.10 0.1668859
1063.20 0.1668375
1063.30 0.1667892
1063.40 0.166741
1063.50 0.1666927
1063.60 0.1666444
1063.70 0.1665962
1063.80 0.166548
1063.90 0.1664998
1064.00 0.1664516
1064.10 0.1664034
1064.20 0.1663552
1064.30 0.1663071
1064.40 0.1662589
1064.50 0.1662108
1064.60 0.1661627
1064.70 0.1661146
1064.80 0.1660666
1064.90 0.1660185
1065.00 0.1659705
1065.10 0.1659224
1065.20 0.1658744
1065.30 0.1658264
1065.40 0.1657784
1065.50 0.1657305
1065.60 0.1656825
1065.70 0.1656346
1065.80 0.1655867
1065.90 0.1655388
1066.00 0.1654909
1066.10 0.165443
1066.20 0.1653951
1066.30 0.1653473
1066.40 0.1652994
1066.50 0.1652516
1066.60 0.1652038
1066.70 0.165156
1066.80 0.1651083
1066.90 0.1650605
1067.00 0.1650128
1067.10 0.164965
1067.20 0.1649173
1067.30 0.1648696
1067.40 0.164822
1067.50 0.1647743
1067.60 0.1647266
1067.70 0.164679
1067.80 0.1646314
1067.90 0.1645844
1068.00 0.1645387
1068.10 0.1644929
1068.20 0.1644472
1068.30 0.1644015
1068.40 0.1643559
1068.50 0.1643102
1068.60 0.1642646
1068.70 0.1642189
1068.80 0.1641733
1068.90 0.1641277
1069.00 0.1640821
1069.10 0.1640366
1069.20 0.163991
1069.30 0.1639454
1069.40 0.1638999
1069.50 0.1638544
1069.60 0.1638089
1069.70 0.1637634
1069.80 0.1637179
1069.90 0.1636725
1070.00 0.163627
1070.10 0.1635816
1070.20 0.1635362
1070.30 0.1634908
1070.40 0.1634454
1070.50 0.1634
1070.60 0.1633546
1070.70 0.1633093
1070.80 0.1632639
1070.90 0.1632186
1071.00 0.1631733
1071.10 0.163128
1071.20 0.1630827
1071.30 0.1630375
1071.40 0.1629922
1071.50 0.162947
1071.60 0.1629018
1071.70 0.1628566
1071.80 0.1628114
1071.90 0.1627662
1072.00 0.162721
1072.10 0.1626759
1072.20 0.1626307
1072.30 0.1625856
1072.40 0.1625405
1072.50 0.1624954
1072.60 0.1624503
1072.70 0.1624053
1072.80 0.1623602
1072.90 0.1623152
1073.00 0.1622701
1073.10 0.1622251
1073.20 0.1621798
1073.30 0.1621331
1073.40 0.1620865
1073.50 0.1620398
1073.60 0.1619932
1073.70 0.1619466
1073.80 0.1619
1073.90 0.1618534
1074.00 0.1618069
1074.10 0.1617603
1074.20 0.1617138
1074.30 0.1616673
1074.40 0.1616208
1074.50 0.1615743
1074.60 0.1615278
1074.70 0.1614814
1074.80 0.1614349
1074.90 0.1613885
1075.00 0.1613421
1075.10 0.1612957
1075.20 0.1612493
1075.30 0.1612029
1075.40 0.1611566
1075.50 0.1611102
1075.60 0.1610639
1075.70 0.1610176
1075.80 0.1609713
1075.90 0.160925
1076.00 0.1608787
1076.10 0.1608325
1076.20 0.1607862
1076.30 0.16074
1076.40 0.1606938
1076.50 0.1606476
1076.60 0.1606014
1076.70 0.1605552
1076.80 0.1605091
1076.90 0.1604629
1077.00 0.1604168
1077.10 0.1603707
1077.20 0.1603246
1077.30 0.1602785
1077.40 0.1602324
1077.50 0.1601864
1077.60 0.1601403
1077.70 0.1600943
1077.80 0.1600483
1077.90 0.1600023
1078.00 0.1599563
1078.10 0.1599104
1078.20 0.1598644
1078.30 0.1598185
1078.40 0.1597725
1078.50 0.1597266
1078.60 0.1596817
1078.70 0.1596376
1078.80 0.1595936
1078.90 0.1595495
1079.00 0.1595055
1079.10 0.1594615
1079.20 0.1594175
1079.30 0.1593735
1079.40 0.1593295
1079.50 0.1592855
1079.60 0.1592416
1079.70 0.1591976
1079.80 0.1591537
1079.90 0.1591098
1080.00 0.1590659
1080.10 0.159022
1080.20 0.1589781
1080.30 0.1589343
1080.40 0.1588904
1080.50 0.1588466
1080.60 0.1588028
1080.70 0.158759
1080.80 0.1587152
1080.90 0.1586714
1081.00 0.1586277
1081.10 0.1585839
1081.20 0.1585402
1081.30 0.1584965
1081.40 0.1584527
1081.50 0.158409
1081.60 0.1583654
1081.70 0.1583217
1081.80 0.158278
1081.90 0.1582344
1082.00 0.1581908
1082.10 0.1581471
1082.20 0.1581035
1082.30 0.15806
1082.40 0.1580164
1082.50 0.1579728
1082.60 0.1579293
1082.70 0.1578857
1082.80 0.1578422
1082.90 0.1577987
1083.00 0.1577552
1083.10 0.1577117
1083.20 0.1576683
1083.30 0.1576248
1083.40 0.1575814
1083.50 0.1575379
1083.60 0.1574945
1083.70 0.1574511
1083.80 0.1574077
1083.90 0.1573644
1084.00 0.1573195
1084.10 0.1572746
1084.20 0.1572296
1084.30 0.1571847
1084.40 0.1571397
1084.50 0.1570948
1084.60 0.1570499
1084.70 0.157005
1084.80 0.1569601
1084.90 0.1569152
1085.00 0.1568704
1085.10 0.1568255
1085.20 0.1567807
1085.30 0.1567359
1085.40 0.1566911
1085.50 0.1566463
1085.60 0.1566016
1085.70 0.1565568
1085.80 0.1565121
1085.90 0.1564673
1086.00 0.1564226
1086.10 0.1563779
1086.20 0.1563332
1086.30 0.1562886
1086.40 0.1562439
1086.50 0.1561993
1086.60 0.1561546
1086.70 0.15611
1086.80 0.1560654
1086.90 0.1560208
1087.00 0.1559762
1087.10 0.1559317
1087.20 0.1558871
1087.30 0.1558426
1087.40 0.1557981
1087.50 0.1557536
1087.60 0.1557091
1087.70 0.1556646
1087.80 0.1556201
1087.90 0.1555757
1088.00 0.1555312
1088.10 0.1554868
1088.20 0.1554424
1088.30 0.155398
1088.40 0.1553536
1088.50 0.1553092
1088.60 0.1552649
1088.70 0.1552205
1088.80 0.1551762
1088.90 0.1551319
1089.00 0.1550876
1089.10 0.1550433
1089.20 0.154999
1089.30 0.1549548
1089.40 0.1549117
1089.50 0.1548692
1089.60 0.1548268
1089.70 0.1547843
1089.80 0.1547419
1089.90 0.1546994
1090.00 0.154657
1090.10 0.1546146
1090.20 0.1545722
1090.30 0.1545298
1090.40 0.1544875
1090.50 0.1544451
1090.60 0.1544028
1090.70 0.1543605
1090.80 0.1543181
1090.90 0.1542758
1091.00 0.1542336
1091.10 0.1541913
1091.20 0.154149
1091.30 0.1541068
1091.40 0.1540645
1091.50 0.1540223
1091.60 0.1539801
1091.70 0.1539379
1091.80 0.1538957
1091.90 0.1538536
1092.00 0.1538114
1092.10 0.1537692
1092.20 0.1537271
1092.30 0.153685
1092.40 0.1536429
1092.50 0.1536008
1092.60 0.1535587
1092.70 0.1535166
1092.80 0.1534746
1092.90 0.1534325
1093.00 0.1533905
1093.10 0.1533485
1093.20 0.1533065
1093.30 0.1532645
1093.40 0.1532225
1093.50 0.1531806
1093.60 0.1531386
1093.70 0.1530967
1093.80 0.1530547
1093.90 0.1530128
1094.00 0.1529709
1094.10 0.152929
1094.20 0.1528872
1094.30 0.1528453
1094.40 0.1528034
1094.50 0.1527616
1094.60 0.1527198
1094.70 0.152678
1094.80 0.1526358
1094.90 0.1525933
1095.00 0.1525508
1095.10 0.1525083
1095.20 0.1524658
1095.30 0.1524234
1095.40 0.1523809
1095.50 0.1523385
1095.60 0.1522961
1095.70 0.1522537
1095.80 0.1522113
1095.90 0.1521689
1096.00 0.1521266
1096.10 0.1520842
1096.20 0.1520419
1096.30 0.1519995
1096.40 0.1519572
1096.50 0.1519149
1096.60 0.1518726
1096.70 0.1518304
1096.80 0.1517881
1096.90 0.1517458
1097.00 0.1517036
1097.10 0.1516614
1097.20 0.1516192
1097.30 0.151577
1097.40 0.1515348
1097.50 0.1514926
1097.60 0.1514505
1097.70 0.1514083
1097.80 0.1513662
1097.90 0.1513241
1098.00 0.1512819
1098.10 0.1512398
1098.20 0.1511978
1098.30 0.1511557
1098.40 0.1511136
1098.50 0.1510716
1098.60 0.1510296
1098.70 0.1509875
1098.80 0.1509455
1098.90 0.1509035
1099.00 0.1508616
1099.10 0.1508196
1099.20 0.1507776
1099.30 0.1507357
1099.40 0.1506938
1099.50 0.1506519
1099.60 0.15061
1099.70 0.1505681
1099.80 0.1505262
1099.90 0.1504843
1100.00 0.1504425
1100.10 0.1504006
1100.20 0.1503588
1100.30 0.150317
1100.40 0.1502752
1100.50 0.1502334
1100.60 0.1501916
1100.70 0.1501499
1100.80 0.1501081
1100.90 0.1500664
1101.00 0.1500246
1101.10 0.1499829
1101.20 0.1499412
1101.30 0.1498995
1101.40 0.1498579
1101.50 0.1498162
1101.60 0.1497746
1101.70 0.1497329
1101.80 0.1496913
1101.90 0.1496497
1102.00 0.1496081
1102.10 0.1495665
1102.20 0.1495249
1102.30 0.1494834
1102.40 0.1494418
1102.50 0.1494003
1102.60 0.1493588
1102.70 0.1493172
1102.80 0.1492757
1102.90 0.1492343
1103.00 0.1491928
1103.10 0.1491513
1103.20 0.1491099
1103.30 0.1490684
1103.40 0.149027
1103.50 0.1489856
1103.60 0.1489442
1103.70 0.1489028
1103.80 0.1488615
1103.90 0.1488201
1104.00 0.1487787
1104.10 0.1487374
1104.20 0.1486961
1104.30 0.1486548
1104.40 0.1486135
1104.50 0.1485722
1104.60 0.1485309
1104.70 0.1484897
1104.80 0.1484484
1104.90 0.1484072
1105.00 0.148366
1105.10 0.1483248
1105.20 0.1482836
1105.30 0.1482424
1105.40 0.1482012
1105.50 0.14816
1105.60 0.1481189
1105.70 0.1480778
1105.80 0.1480368
1105.90 0.1479958
1106.00 0.1479549
1106.10 0.1479139
1106.20 0.147873
1106.30 0.1478321
1106.40 0.1477912
1106.50 0.1477503
1106.60 0.1477094
1106.70 0.1476685
1106.80 0.1476277
1106.90 0.1475868
1107.00 0.147546
1107.10 0.1475052
1107.20 0.1474644
1107.30 0.1474236
1107.40 0.1473828
1107.50 0.147342
1107.60 0.1473012
1107.70 0.1472605
1107.80 0.1472198
1107.90 0.147179
1108.00 0.1471383
1108.10 0.1470976
1108.20 0.147057
1108.30 0.1470163
1108.40 0.1469756
1108.50 0.146935
1108.60 0.1468943
1108.70 0.1468537
1108.80 0.1468131
1108.90 0.1467725
1109.00 0.1467319
1109.10 0.1466913
1109.20 0.1466508
1109.30 0.1466102
1109.40 0.1465697
1109.50 0.1465292
1109.60 0.1464887
1109.70 0.1464482
1109.80 0.1464077
1109.90 0.1463672
1110.00 0.1463267
1110.10 0.1462863
1110.20 0.1462458
1110.30 0.1462054
1110.40 0.146165
1110.50 0.1461246
1110.60 0.1460842
1110.70 0.1460438
1110.80 0.1460035
1110.90 0.1459631
1111.00 0.1459228
1111.10 0.1458824
1111.20 0.1458421
1111.30 0.1458018
1111.40 0.1457615
1111.50 0.1457212
1111.60 0.145681
1111.70 0.1456407
1111.80 0.1456005
1111.90 0.1455602
1112.00 0.14552
1112.10 0.1454798
1112.20 0.1454396
1112.30 0.1453994
1112.40 0.1453592
1112.50 0.1453191
1112.60 0.1452789
1112.70 0.1452388
1112.80 0.1451987
1112.90 0.1451586
1113.00 0.1451185
1113.10 0.1450784
1113.20 0.1450383
1113.30 0.1449982
1113.40 0.1449582
1113.50 0.1449181
1113.60 0.1448781
1113.70 0.1448381
1113.80 0.1447981
1113.90 0.1447581
1114.00 0.1447181
1114.10 0.1446782
1114.20 0.1446382
1114.30 0.1445983
1114.40 0.1445583
1114.50 0.1445184
1114.60 0.1444785
1114.70 0.1444386
1114.80 0.1443987
1114.90 0.1443588
1115.00 0.144319
1115.10 0.1442791
1115.20 0.1442393
1115.30 0.1441995
1115.40 0.1441597
1115.50 0.1441199
1115.60 0.1440801
1115.70 0.1440403
1115.80 0.1440005
1115.90 0.1439608
1116.00 0.143921
1116.10 0.1438813
1116.20 0.1438416
1116.30 0.1438019
1116.40 0.1437622
1116.50 0.1437225
1116.60 0.1436829
1116.70 0.1436432
1116.80 0.1436033
1116.90 0.143563
1117.00 0.1435227
1117.10 0.1434824
1117.20 0.1434421
1117.30 0.1434019
1117.40 0.1433616
1117.50 0.1433214
1117.60 0.1432812
1117.70 0.1432409
1117.80 0.1432008
1117.90 0.1431606
1118.00 0.1431204
1118.10 0.1430802
1118.20 0.1430401
1118.30 0.143
1118.40 0.1429598
1118.50 0.1429197
1118.60 0.1428796
1118.70 0.1428395
1118.80 0.1427995
1118.90 0.1427594
1119.00 0.1427193
1119.10 0.1426793
1119.20 0.1426393
1119.30 0.1425993
1119.40 0.1425593
1119.50 0.1425193
1119.60 0.1424793
1119.70 0.1424393
1119.80 0.1423994
1119.90 0.1423594
1120.00 0.1423195
1120.10 0.1422796
1120.20 0.1422397
1120.30 0.1421998
1120.40 0.1421599
1120.50 0.14212
1120.60 0.1420802
1120.70 0.1420403
1120.80 0.1420005
1120.90 0.1419607
1121.00 0.1419208
1121.10 0.141881
1121.20 0.1418413
1121.30 0.1418015
1121.40 0.1417617
1121.50 0.141722
1121.60 0.1416822
1121.70 0.1416425
1121.80 0.1416028
1121.90 0.1415631
1122.00 0.1415234
1122.10 0.1414837
1122.20 0.141444
1122.30 0.1414044
1122.40 0.1413657
1122.50 0.1413277
1122.60 0.1412897
1122.70 0.1412517
1122.80 0.1412137
1122.90 0.1411757
1123.00 0.1411377
1123.10 0.1410997
1123.20 0.1410618
1123.30 0.1410238
1123.40 0.1409859
1123.50 0.140948
1123.60 0.1409101
1123.70 0.1408722
1123.80 0.1408343
1123.90 0.1407964
1124.00 0.1407586
1124.10 0.1407207
1124.20 0.1406829
1124.30 0.1406451
1124.40 0.1406073
1124.50 0.1405694
1124.60 0.1405317
1124.70 0.1404939
1124.80 0.1404561
1124.90 0.1404183
1125.00 0.1403806
1125.10 0.1403429
1125.20 0.1403051
1125.30 0.1402674
1125.40 0.1402297
1125.50 0.140192
1125.60 0.1401543
1125.70 0.1401167
1125.80 0.140079
1125.90 0.1400414
1126.00 0.1400037
1126.10 0.1399661
1126.20 0.1399285
1126.30 0.1398909
1126.40 0.1398533
1126.50 0.1398157
1126.60 0.1397781
1126.70 0.1397406
1126.80 0.139703
1126.90 0.1396655
1127.00 0.139628
1127.10 0.1395905
1127.20 0.139553
1127.30 0.1395155
1127.40 0.139478
1127.50 0.1394405
1127.60 0.1394031
1127.70 0.1393656
1127.80 0.1393282
1127.90 0.1392907
1128.00 0.1392528
1128.10 0.1392148
1128.20 0.1391767
1128.30 0.1391387
1128.40 0.1391006
1128.50 0.1390626
1128.60 0.1390246
1128.70 0.1389866
1128.80 0.1389486
1128.90 0.1389107
1129.00 0.1388727
1129.10 0.1388348
1129.20 0.1387968
1129.30 0.1387589
1129.40 0.138721
1129.50 0.1386831
1129.60 0.1386452
1129.70 0.1386073
1129.80 0.1385694
1129.90 0.1385316
1130.00 0.1384937
1130.10 0.1384559
1130.20 0.1384181
1130.30 0.1383803
1130.40 0.1383425
1130.50 0.1383047
1130.60 0.1382669
1130.70 0.1382291
1130.80 0.1381914
1130.90 0.1381536
1131.00 0.1381159
1131.10 0.1380781
1131.20 0.1380404
1131.30 0.1380027
1131.40 0.137965
1131.50 0.1379274
1131.60 0.1378897
1131.70 0.137852
1131.80 0.1378144
1131.90 0.1377768
1132.00 0.1377391
1132.10 0.1377015
1132.20 0.1376639
1132.30 0.1376263
1132.40 0.1375888
1132.50 0.1375512
1132.60 0.1375136
1132.70 0.1374761
1132.80 0.1374385
1132.90 0.137401
1133.00 0.1373635
1133.10 0.137326
1133.20 0.1372885
1133.30 0.137251
1133.40 0.1372136
1133.50 0.1371761
1133.60 0.1371387
1133.70 0.1371012
1133.80 0.1370638
1133.90 0.1370264
1134.00 0.136989
1134.10 0.1369516
1134.20 0.1369142
1134.30 0.1368769
1134.40 0.1368395
1134.50 0.1368022
1134.60 0.1367648
1134.70 0.1367275
1134.80 0.1366902
1134.90 0.1366529
1135.00 0.1366156
1135.10 0.1365783
1135.20 0.136541
1135.30 0.1365038
1135.40 0.1364665
1135.50 0.1364293
1135.60 0.1363921
1135.70 0.1363549
1135.80 0.1363177
1135.90 0.1362805
1136.00 0.1362433
1136.10 0.1362061
1136.20 0.136169
1136.30 0.1361318
1136.40 0.1360947
1136.50 0.1360575
1136.60 0.1360204
1136.70 0.1359833
1136.80 0.1359462
1136.90 0.1359091
1137.00 0.1358721
1137.10 0.135835
1137.20 0.135798
1137.30 0.1357609
1137.40 0.1357239
1137.50 0.1356869
1137.60 0.1356499
1137.70 0.1356129
1137.80 0.1355759
1137.90 0.1355389
1138.00 0.135502
1138.10 0.135465
1138.20 0.1354281
1138.30 0.1353911
1138.40 0.1353542
1138.50 0.1353173
1138.60 0.1352804
1138.70 0.1352435
1138.80 0.1352067
1138.90 0.1351698
1139.00 0.1351329
1139.10 0.1350961
1139.20 0.1350593
1139.30 0.1350226
1139.40 0.1349859
1139.50 0.1349492
1139.60 0.1349126
1139.70 0.1348759
1139.80 0.1348393
1139.90 0.1348026
1140.00 0.134766
1140.10 0.1347294
1140.20 0.1346928
1140.30 0.1346562
1140.40 0.1346197
1140.50 0.1345831
1140.60 0.1345466
1140.70 0.13451
1140.80 0.1344735
1140.90 0.134437
1141.00 0.1344005
1141.10 0.134364
1141.20 0.1343275
1141.30 0.134291
1141.40 0.1342545
1141.50 0.1342181
1141.60 0.1341816
1141.70 0.1341452
1141.80 0.1341088
1141.90 0.1340724
1142.00 0.134036
1142.10 0.1339996
1142.20 0.1339632
1142.30 0.1339268
1142.40 0.1338905
1142.50 0.1338541
1142.60 0.1338178
1142.70 0.1337814
1142.80 0.1337451
1142.90 0.1337088
1143.00 0.1336725
1143.10 0.1336362
1143.20 0.1336
1143.30 0.1335637
1143.40 0.1335275
1143.50 0.1334912
1143.60 0.133455
1143.70 0.1334188
1143.80 0.1333825
1143.90 0.1333463
1144.00 0.1333102
1144.10 0.133274
1144.20 0.1332378
1144.30 0.1332017
1144.40 0.1331655
1144.50 0.1331294
1144.60 0.1330933
1144.70 0.1330571
1144.80 0.133021
1144.90 0.1329849
1145.00 0.1329489
1145.10 0.1329128
1145.20 0.1328767
1145.30 0.1328407
1145.40 0.1328046
1145.50 0.1327686
1145.60 0.1327326
1145.70 0.1326966
1145.80 0.1326606
1145.90 0.1326246
1146.00 0.1325886
1146.10 0.1325526
1146.20 0.1325167
1146.30 0.1324807
1146.40 0.1324448
1146.50 0.1324089
1146.60 0.132373
1146.70 0.1323371
1146.80 0.1323012
1146.90 0.1322653
1147.00 0.1322294
1147.10 0.1321936
1147.20 0.1321577
1147.30 0.1321219
1147.40 0.132086
1147.50 0.1320502
1147.60 0.1320144
1147.70 0.1319786
1147.80 0.1319428
1147.90 0.131907
1148.00 0.1318713
1148.10 0.1318355
1148.20 0.1317998
1148.30 0.131764
1148.40 0.1317283
1148.50 0.1316926
1148.60 0.1316569
1148.70 0.1316212
1148.80 0.1315855
1148.90 0.1315498
1149.00 0.1315142
1149.10 0.1314785
1149.20 0.1314429
1149.30 0.1314073
1149.40 0.1313716
1149.50 0.131336
1149.60 0.1313004
1149.70 0.1312648
1149.80 0.1312293
1149.90 0.1311937
1150.00 0.1311581
1150.10 0.1311226
1150.20 0.131087
1150.30 0.1310515
1150.40 0.131016
1150.50 0.1309805
1150.60 0.130945
1150.70 0.1309104
1150.80 0.1308758
1150.90 0.1308412
1151.00 0.1308066
1151.10 0.130772
1151.20 0.1307375
1151.30 0.1307029
1151.40 0.1306684
1151.50 0.1306338
1151.60 0.1305993
1151.70 0.1305648
1151.80 0.1305303
1151.90 0.1304958
1152.00 0.1304613
1152.10 0.1304268
1152.20 0.1303923
1152.30 0.1303579
1152.40 0.1303234
1152.50 0.130289
1152.60 0.1302545
1152.70 0.1302201
1152.80 0.1301857
1152.90 0.1301513
1153.00 0.1301169
1153.10 0.1300825
1153.20 0.1300482
1153.30 0.1300138
1153.40 0.1299794
1153.50 0.1299451
1153.60 0.1299108
1153.70 0.1298765
1153.80 0.1298421
1153.90 0.1298078
1154.00 0.1297736
1154.10 0.1297393
1154.20 0.129705
1154.30 0.1296707
1154.40 0.1296365
1154.50 0.1296022
1154.60 0.129568
1154.70 0.1295338
1154.80 0.1294996
1154.90 0.1294654
1155.00 0.1294312
1155.10 0.129397
1155.20 0.1293628
1155.30 0.1293287
1155.40 0.1292945
1155.50 0.1292604
1155.60 0.1292262
1155.70 0.1291921
1155.80 0.129158
1155.90 0.1291239
1156.00 0.1290898
1156.10 0.1290557
1156.20 0.1290217
1156.30 0.1289876
1156.40 0.1289528
1156.50 0.1289172
1156.60 0.1288818
1156.70 0.1288463
1156.80 0.1288108
1156.90 0.1287753
1157.00 0.1287399
1157.10 0.1287044
1157.20 0.128669
1157.30 0.1286336
1157.40 0.1285982
1157.50 0.1285627
1157.60 0.1285274
1157.70 0.128492
1157.80 0.1284566
1157.90 0.1284212
1158.00 0.1283859
1158.10 0.1283505
1158.20 0.1283152
1158.30 0.1282799
1158.40 0.1282446
1158.50 0.1282093
1158.60 0.128174
1158.70 0.1281387
1158.80 0.1281034
1158.90 0.1280682
1159.00 0.1280329
1159.10 0.1279977
1159.20 0.1279625
1159.30 0.1279272
1159.40 0.127892
1159.50 0.1278568
1159.60 0.1278217
1159.70 0.1277865
1159.80 0.1277513
1159.90 0.1277162
1160.00 0.127681
1160.10 0.1276459
1160.20 0.1276107
1160.30 0.1275756
1160.40 0.1275405
1160.50 0.1275054
1160.60 0.1274703
1160.70 0.1274353
1160.80 0.1274002
1160.90 0.1273651
1161.00 0.1273301
1161.10 0.1272951
1161.20 0.12726
1161.30 0.127225
1161.40 0.12719
1161.50 0.127155
1161.60 0.12712
1161.70 0.1270851
1161.80 0.1270501
1161.90 0.1270152
1162.00 0.1269802
1162.10 0.1269453
1162.20 0.1269119
1162.30 0.1268786
1162.40 0.1268452
1162.50 0.1268119
1162.60 0.1267786
1162.70 0.1267453
1162.80 0.126712
1162.90 0.1266787
1163.00 0.1266454
1163.10 0.1266121
1163.20 0.1265789
1163.30 0.1265456
1163.40 0.1265124
1163.50 0.1264791
1163.60 0.1264459
1163.70 0.1264127
1163.80 0.1263795
1163.90 0.1263463
1164.00 0.1263131
1164.10 0.1262799
1164.20 0.1262468
1164.30 0.1262136
1164.40 0.1261805
1164.50 0.1261473
1164.60 0.1261142
1164.70 0.1260811
1164.80 0.126048
1164.90 0.1260149
1165.00 0.1259818
1165.10 0.1259487
1165.20 0.1259156
1165.30 0.1258826
1165.40 0.1258495
1165.50 0.1258165
1165.60 0.1257834
1165.70 0.1257504
1165.80 0.1257174
1165.90 0.1256844
1166.00 0.1256514
1166.10 0.1256184
1166.20 0.1255854
1166.30 0.1255525
1166.40 0.1255195
1166.50 0.1254866
1166.60 0.1254536
1166.70 0.1254207
1166.80 0.1253878
1166.90 0.1253549
1167.00 0.125322
1167.10 0.1252891
1167.20 0.1252562
1167.30 0.1252233
1167.40 0.1251905
1167.50 0.1251576
1167.60 0.1251248
1167.70 0.1250919
1167.80 0.1250591
1167.90 0.1250263
1168.00 0.1249922
1168.10 0.124958
1168.20 0.1249238
1168.30 0.1248896
1168.40 0.1248554
1168.50 0.1248212
1168.60 0.124787
1168.70 0.1247529
1168.80 0.1247187
1168.90 0.1246846
1169.00 0.1246505
1169.10 0.1246163
1169.20 0.1245822
1169.30 0.1245481
1169.40 0.124514
1169.50 0.12448
1169.60 0.1244459
1169.70 0.1244118
1169.80 0.1243778
1169.90 0.1243437
1170.00 0.1243097
1170.10 0.1242757
1170.20 0.1242417
1170.30 0.1242077
1170.40 0.1241737
1170.50 0.1241397
1170.60 0.1241057
1170.70 0.1240717
1170.80 0.1240378
1170.90 0.1240038
1171.00 0.1239699
1171.10 0.123936
1171.20 0.1239021
1171.30 0.1238682
1171.40 0.1238343
1171.50 0.1238004
1171.60 0.1237665
1171.70 0.1237327
1171.80 0.1236988
1171.90 0.1236649
1172.00 0.1236311
1172.10 0.1235973
1172.20 0.1235635
1172.30 0.1235297
1172.40 0.1234959
1172.50 0.1234621
1172.60 0.1234283
1172.70 0.1233945
1172.80 0.1233608
1172.90 0.123327
1173.00 0.1232933
1173.10 0.1232596
1173.20 0.1232258
1173.30 0.1231921
1173.40 0.1231584
1173.50 0.1231247
1173.60 0.1230911
1173.70 0.1230574
1173.80 0.1230249
1173.90 0.1229928
1174.00 0.1229607
1174.10 0.1229286
1174.20 0.1228964
1174.30 0.1228644
1174.40 0.1228323
1174.50 0.1228002
1174.60 0.1227681
1174.70 0.1227361
1174.80 0.122704
1174.90 0.122672
1175.00 0.1226399
1175.10 0.1226079
1175.20 0.1225759
1175.30 0.1225439
1175.40 0.1225119
1175.50 0.1224799
1175.60 0.1224479
1175.70 0.122416
1175.80 0.122384
1175.90 0.1223521
1176.00 0.1223201
1176.10 0.1222882
1176.20 0.1222563
1176.30 0.1222244
1176.40 0.1221925
1176.50 0.1221606
1176.60 0.1221287
1176.70 0.1220968
1176.80 0.1220649
1176.90 0.1220331
1177.00 0.1220012
1177.10 0.1219694
1177.20 0.1219375
1177.30 0.1219057
1177.40 0.1218739
1177.50 0.1218421
1177.60 0.1218103
1177.70 0.1217785
1177.80 0.1217467
1177.90 0.121715
1178.00 0.1216832
1178.10 0.1216515
1178.20 0.1216197
1178.30 0.121588
1178.40 0.1215563
1178.50 0.1215246
1178.60 0.1214929
1178.70 0.1214612
1178.80 0.1214295
1178.90 0.1213978
1179.00 0.1213661
1179.10 0.1213345
1179.20 0.1213028
1179.30 0.1212712
1179.40 0.1212395
1179.50 0.1212079
1179.60 0.1211761
1179.70 0.1211432
1179.80 0.1211102
1179.90 0.1210772
1180.00 0.1210443
1180.10 0.1210113
1180.20 0.1209784
1180.30 0.1209454
1180.40 0.1209125
1180.50 0.1208796
1180.60 0.1208467
1180.70 0.1208138
1180.80 0.1207809
1180.90 0.1207481
1181.00 0.1207152
1181.10 0.1206823
1181.20 0.1206495
1181.30 0.1206167
1181.40 0.1205838
1181.50 0.120551
1181.60 0.1205182
1181.70 0.1204854
1181.80 0.1204526
1181.90 0.1204198
1182.00 0.1203871
1182.10 0.1203543
1182.20 0.1203216
1182.30 0.1202888
1182.40 0.1202561
1182.50 0.1202234
1182.60 0.1201906
1182.70 0.1201579
1182.80 0.1201252
1182.90 0.1200925
1183.00 0.1200599
1183.10 0.1200272
1183.20 0.1199945
1183.30 0.1199619
1183.40 0.1199293
1183.50 0.1198966
1183.60 0.119864
1183.70 0.1198314
1183.80 0.1197988
1183.90 0.1197662
1184.00 0.1197336
1184.10 0.119701
1184.20 0.1196685
1184.30 0.1196359
1184.40 0.1196034
1184.50 0.1195708
1184.60 0.1195383
1184.70 0.1195058
1184.80 0.1194733
1184.90 0.1194408
1185.00 0.1194083
1185.10 0.1193758
1185.20 0.1193433
1185.30 0.1193109
1185.40 0.1192784
1185.50 0.1192466
1185.60 0.1192156
1185.70 0.1191847
1185.80 0.1191537
1185.90 0.1191228
1186.00 0.1190919
1186.10 0.119061
1186.20 0.1190301
1186.30 0.1189992
1186.40 0.1189683
1186.50 0.1189374
1186.60 0.1189065
1186.70 0.1188757
1186.80 0.1188448
1186.90 0.118814
1187.00 0.1187831
1187.10 0.1187523
1187.20 0.1187215
1187.30 0.1186907
1187.40 0.1186599
1187.50 0.1186291
1187.60 0.1185983
1187.70 0.1185675
1187.80 0.1185367
1187.90 0.118506
1188.00 0.1184752
1188.10 0.1184445
1188.20 0.1184137
1188.30 0.118383
1188.40 0.1183523
1188.50 0.1183216
1188.60 0.1182909
1188.70 0.1182602
1188.80 0.1182295
1188.90 0.1181989
1189.00 0.1181682
1189.10 0.1181375
1189.20 0.1181069
1189.30 0.1180763
1189.40 0.1180456
1189.50 0.118015
1189.60 0.1179844
1189.70 0.1179538
1189.80 0.1179232
1189.90 0.1178926
1190.00 0.117862
1190.10 0.1178315
1190.20 0.1178009
1190.30 0.1177703
1190.40 0.1177398
1190.50 0.1177093
1190.60 0.1176787
1190.70 0.1176482
1190.80 0.1176177
1190.90 0.1175872
1191.00 0.1175567
1191.10 0.1175262
1191.20 0.1174958
1191.30 0.1174653
1191.40 0.1174348
1191.50 0.1174044
1191.60 0.117374
1191.70 0.1173435
1191.80 0.1173131
1191.90 0.1172827
1192.00 0.1172523
1192.10 0.1172219
1192.20 0.1171915
1192.30 0.1171611
1192.40 0.1171307
1192.50 0.1171004
1192.60 0.11707
1192.70 0.1170397
1192.80 0.1170093
1192.90 0.116979
1193.00 0.1169487
1193.10 0.1169184
1193.20 0.1168881
1193.30 0.1168578
1193.40 0.1168275
1193.50 0.1167972
1193.60 0.116767
1193.70 0.1167367
1193.80 0.1167064
1193.90 0.1166762
1194.00 0.116646
1194.10 0.1166157
1194.20 0.1165855
1194.30 0.1165553
1194.40 0.1165251
1194.50 0.1164949
1194.60 0.1164647
1194.70 0.1164345
1194.80 0.1164044
1194.90 0.1163742
1195.00 0.1163441
1195.10 0.1163139
1195.20 0.1162838
1195.30 0.1162537
1195.40 0.1162236
1195.50 0.1161934
1195.60 0.1161633
1195.70 0.1161333
1195.80 0.1161032
1195.90 0.1160731
1196.00 0.116043
1196.10 0.116013
1196.20 0.1159829
1196.30 0.1159529
1196.40 0.1159228
1196.50 0.1158928
1196.60 0.1158628
1196.70 0.1158328
1196.80 0.1158028
1196.90 0.1157728
1197.00 0.1157428
1197.10 0.1157129
1197.20 0.1156829
1197.30 0.1156529
1197.40 0.1156219
1197.50 0.1155908
1197.60 0.1155596
1197.70 0.1155285
1197.80 0.1154974
1197.90 0.1154663
1198.00 0.1154352
1198.10 0.1154041
1198.20 0.115373
1198.30 0.1153419
1198.40 0.1153108
1198.50 0.1152798
1198.60 0.1152487
1198.70 0.1152177
1198.80 0.1151866
1198.90 0.1151556
1199.00 0.1151246
1199.10 0.1150936
1199.20 0.1150626
1199.30 0.1150316
1199.40 0.1150006
1199.50 0.1149696
1199.60 0.1149387
1199.70 0.1149077
1199.80 0.1148768
1199.90 0.1148458
1200.00 0.1148149
