# Version 2.1 - nm, norm@500 to 1, cut digits, bergeron_He_8000_85.dat_8000
# Wavelength(nm)  Flambda(ergs/cm^s/s/nm)
300.00 1.328877
300.10 1.328942
300.20 1.328979
300.30 1.32905
300.40 1.32935
300.50 1.329649
300.60 1.329948
300.70 1.330246
300.80 1.330543
300.90 1.330839
301.00 1.331135
301.10 1.33143
301.20 1.331725
301.30 1.332018
301.40 1.332311
301.50 1.332604
301.60 1.332895
301.70 1.333186
301.80 1.333477
301.90 1.333766
302.00 1.334055
302.10 1.334354
302.20 1.334653
302.30 1.334951
302.40 1.335248
302.50 1.335545
302.60 1.335841
302.70 1.336136
302.80 1.336431
302.90 1.336725
303.00 1.337019
303.10 1.337311
303.20 1.337603
303.30 1.33788
303.40 1.338023
303.50 1.338166
303.60 1.338308
303.70 1.33845
303.80 1.338592
303.90 1.338732
304.00 1.338873
304.10 1.339013
304.20 1.339152
304.30 1.339291
304.40 1.33943
304.50 1.339568
304.60 1.339837
304.70 1.340121
304.80 1.340403
304.90 1.340686
305.00 1.340967
305.10 1.341248
305.20 1.341528
305.30 1.341807
305.40 1.342086
305.50 1.342364
305.60 1.342642
305.70 1.342918
305.80 1.343194
305.90 1.34347
306.00 1.343745
306.10 1.344019
306.20 1.344293
306.30 1.344566
306.40 1.3448
306.50 1.345023
306.60 1.345245
306.70 1.345466
306.80 1.345687
306.90 1.345907
307.00 1.346127
307.10 1.346346
307.20 1.346565
307.30 1.346782
307.40 1.347
307.50 1.347217
307.60 1.347433
307.70 1.347649
307.80 1.347864
307.90 1.348078
308.00 1.348292
308.10 1.348506
308.20 1.348719
308.30 1.348931
308.40 1.349143
308.50 1.349354
308.60 1.349565
308.70 1.349775
308.80 1.349952
308.90 1.350035
309.00 1.350154
309.10 1.350272
309.20 1.35039
309.30 1.350508
309.40 1.350643
309.50 1.35089
309.60 1.351136
309.70 1.351382
309.80 1.351627
309.90 1.351872
310.00 1.352116
310.10 1.352359
310.20 1.352602
310.30 1.352844
310.40 1.35297
310.50 1.352971
310.60 1.352971
310.70 1.35297
310.80 1.35297
310.90 1.352969
311.00 1.353372
311.10 1.353774
311.20 1.354176
311.30 1.354519
311.40 1.354697
311.50 1.354875
311.60 1.355052
311.70 1.355229
311.80 1.355406
311.90 1.355582
312.00 1.355757
312.10 1.355932
312.20 1.355898
312.30 1.356079
312.40 1.356522
312.50 1.355907
312.60 1.356306
312.70 1.356705
312.80 1.357103
312.90 1.357294
313.00 1.357262
313.10 1.35723
313.20 1.357198
313.30 1.357243
313.40 1.357507
313.50 1.35777
313.60 1.358033
313.70 1.358296
313.80 1.358557
313.90 1.358818
314.00 1.359079
314.10 1.359269
314.20 1.359458
314.30 1.359647
314.40 1.359836
314.50 1.360024
314.60 1.360211
314.70 1.360398
314.80 1.360311
314.90 1.359824
315.00 1.359745
315.10 1.360041
315.20 1.360337
315.30 1.360632
315.40 1.360927
315.50 1.361221
315.60 1.361514
315.70 1.361518
315.80 1.361522
315.90 1.361525
316.00 1.361528
316.10 1.361819
316.20 1.362109
316.30 1.362399
316.40 1.362113
316.50 1.362401
316.60 1.362115
316.70 1.362403
316.80 1.36269
316.90 1.362976
317.00 1.363262
317.10 1.363547
317.20 1.363832
317.30 1.363629
317.40 1.363535
317.50 1.363749
317.60 1.363962
317.70 1.364174
317.80 1.364386
317.90 1.364277
318.00 1.364105
318.10 1.364385
318.20 1.364665
318.30 1.364943
318.40 1.365222
318.50 1.365499
318.60 1.365482
318.70 1.365758
318.80 1.366034
318.90 1.365347
319.00 1.365747
319.10 1.366022
319.20 1.366236
319.30 1.366276
319.40 1.366316
319.50 1.366356
319.60 1.366276
319.70 1.366614
319.80 1.36695
319.90 1.367286
320.00 1.36732
320.10 1.367028
320.20 1.366969
320.30 1.367521
320.40 1.367003
320.50 1.367271
320.60 1.367807
320.70 1.367514
320.80 1.367489
320.90 1.367755
321.00 1.36802
321.10 1.368285
321.20 1.368264
321.30 1.368377
321.40 1.36849
321.50 1.368602
321.60 1.368714
321.70 1.368826
321.80 1.368836
321.90 1.368736
322.00 1.369499
322.10 1.369615
322.20 1.36973
322.30 1.369845
322.40 1.36996
322.50 1.370074
322.60 1.370188
322.70 1.370301
322.80 1.370182
322.90 1.370216
323.00 1.37025
323.10 1.370283
323.20 1.370316
323.30 1.370349
323.40 1.370381
323.50 1.370414
323.60 1.370445
323.70 1.370477
323.80 1.370508
323.90 1.370539
324.00 1.370866
324.10 1.371192
324.20 1.371518
324.30 1.371539
324.40 1.371144
324.50 1.371237
324.60 1.371329
324.70 1.371421
324.80 1.371513
324.90 1.371604
325.00 1.371695
325.10 1.371786
325.20 1.371942
325.30 1.372236
325.40 1.372529
325.50 1.37268
325.60 1.372657
325.70 1.372634
325.80 1.372612
325.90 1.372565
326.00 1.372493
326.10 1.372421
326.20 1.372349
326.30 1.372523
326.40 1.373397
326.50 1.373449
326.60 1.3735
326.70 1.37355
326.80 1.373601
326.90 1.373651
327.00 1.3737
327.10 1.37375
327.20 1.373799
327.30 1.373848
327.40 1.373896
327.50 1.373944
327.60 1.373992
327.70 1.37404
327.80 1.374087
327.90 1.374208
328.00 1.374357
328.10 1.374441
328.20 1.374525
328.30 1.374608
328.40 1.374691
328.50 1.374516
328.60 1.37428
328.70 1.374045
328.80 1.373887
328.90 1.373953
329.00 1.374019
329.10 1.374084
329.20 1.374148
329.30 1.374213
329.40 1.374277
329.50 1.374341
329.60 1.374404
329.70 1.374467
329.80 1.37453
329.90 1.374593
330.00 1.374731
330.10 1.374963
330.20 1.375194
330.30 1.375425
330.40 1.375558
330.50 1.375585
330.60 1.375613
330.70 1.37564
330.80 1.375667
330.90 1.375693
331.00 1.37572
331.10 1.375746
331.20 1.375771
331.30 1.375797
331.40 1.375822
331.50 1.375841
331.60 1.375852
331.70 1.375863
331.80 1.375884
331.90 1.375906
332.00 1.375928
332.10 1.375949
332.20 1.375971
332.30 1.375991
332.40 1.376012
332.50 1.376032
332.60 1.376052
332.70 1.376072
332.80 1.376091
332.90 1.37611
333.00 1.376129
333.10 1.376141
333.20 1.376145
333.30 1.376148
333.40 1.376152
333.50 1.376154
333.60 1.376157
333.70 1.376159
333.80 1.376162
333.90 1.376163
334.00 1.376165
334.10 1.376182
334.20 1.376217
334.30 1.376253
334.40 1.376288
334.50 1.376322
334.60 1.376356
334.70 1.37645
334.80 1.376532
334.90 1.376493
335.00 1.376455
335.10 1.376259
335.20 1.376463
335.30 1.376333
335.40 1.376408
335.50 1.37661
335.60 1.376812
335.70 1.376451
335.80 1.376653
335.90 1.376739
336.00 1.376684
336.10 1.376629
336.20 1.376574
336.30 1.376557
336.40 1.376587
336.50 1.376616
336.60 1.376645
336.70 1.376673
336.80 1.376702
336.90 1.376688
337.00 1.376624
337.10 1.37656
337.20 1.376495
337.30 1.376471
337.40 1.376503
337.50 1.376536
337.60 1.376568
337.70 1.376599
337.80 1.376631
337.90 1.376633
338.00 1.3766
338.10 1.376566
338.20 1.376532
338.30 1.376498
338.40 1.376468
338.50 1.376447
338.60 1.376426
338.70 1.376404
338.80 1.376382
338.90 1.37636
339.00 1.376338
339.10 1.376315
339.20 1.376293
339.30 1.376365
339.40 1.376574
339.50 1.376668
339.60 1.376623
339.70 1.376578
339.80 1.376532
339.90 1.376487
340.00 1.376441
340.10 1.376395
340.20 1.376348
340.30 1.376302
340.40 1.376255
340.50 1.376209
340.60 1.376162
340.70 1.376114
340.80 1.37617
340.90 1.376374
341.00 1.376456
341.10 1.376391
341.20 1.376326
341.30 1.376261
341.40 1.376196
341.50 1.37613
341.60 1.376065
341.70 1.375999
341.80 1.376017
341.90 1.37614
342.00 1.376261
342.10 1.376383
342.20 1.376318
342.30 1.37608
342.40 1.376031
342.50 1.376051
342.60 1.37607
342.70 1.37609
342.80 1.376109
342.90 1.376128
343.00 1.376104
343.10 1.376028
343.20 1.375952
343.30 1.375876
343.40 1.375836
343.50 1.375848
343.60 1.37586
343.70 1.375871
343.80 1.375883
343.90 1.375894
344.00 1.375871
344.10 1.375801
344.20 1.375731
344.30 1.37566
344.40 1.375689
344.50 1.37586
344.60 1.375634
344.70 1.375344
344.80 1.375031
344.90 1.375177
345.00 1.375545
345.10 1.375232
345.20 1.375121
345.30 1.375304
345.40 1.375485
345.50 1.375227
345.60 1.37476
345.70 1.374768
345.80 1.374775
345.90 1.374782
346.00 1.374789
346.10 1.374796
346.20 1.374789
346.30 1.374763
346.40 1.374737
346.50 1.37471
346.60 1.374684
346.70 1.374657
346.80 1.37463
346.90 1.374603
347.00 1.374576
347.10 1.374548
347.20 1.374501
347.30 1.374427
347.40 1.374352
347.50 1.374277
347.60 1.374201
347.70 1.374126
347.80 1.374051
347.90 1.373975
348.00 1.373899
348.10 1.373823
348.20 1.373747
348.30 1.373671
348.40 1.373595
348.50 1.373518
348.60 1.373442
348.70 1.373357
348.80 1.373294
348.90 1.373263
349.00 1.373233
349.10 1.373202
349.20 1.373171
349.30 1.373139
349.40 1.373108
349.50 1.373076
349.60 1.373044
349.70 1.373012
349.80 1.37298
349.90 1.372948
350.00 1.372915
350.10 1.372882
350.20 1.372849
350.30 1.372787
350.40 1.372682
350.50 1.372577
350.60 1.372473
350.70 1.372368
350.80 1.372263
350.90 1.372157
351.00 1.372052
351.10 1.371947
351.20 1.371841
351.30 1.371736
351.40 1.371657
351.50 1.371626
351.60 1.371595
351.70 1.371564
351.80 1.371532
351.90 1.3715
352.00 1.371469
352.10 1.371437
352.20 1.371293
352.30 1.371177
352.40 1.371117
352.50 1.371058
352.60 1.370998
352.70 1.370938
352.80 1.370878
352.90 1.370818
353.00 1.370757
353.10 1.370697
353.20 1.370636
353.30 1.370575
353.40 1.370514
353.50 1.37038
353.60 1.370227
353.70 1.370074
353.80 1.369921
353.90 1.369803
354.00 1.369748
354.10 1.369692
354.20 1.369637
354.30 1.369581
354.40 1.369525
354.50 1.369469
354.60 1.369413
354.70 1.369356
354.80 1.369262
354.90 1.369112
355.00 1.368962
355.10 1.368812
355.20 1.368662
355.30 1.368527
355.40 1.368391
355.50 1.368255
355.60 1.36812
355.70 1.368086
355.80 1.368097
355.90 1.367828
356.00 1.367613
356.10 1.367537
356.20 1.36746
356.30 1.367383
356.40 1.367307
356.50 1.36723
356.60 1.367153
356.70 1.367075
356.80 1.366998
356.90 1.366921
357.00 1.366843
357.10 1.366765
357.20 1.366687
357.30 1.366609
357.40 1.366477
357.50 1.366249
357.60 1.366021
357.70 1.365793
357.80 1.365847
357.90 1.365901
358.00 1.365852
358.10 1.365777
358.20 1.365702
358.30 1.365627
358.40 1.365552
358.50 1.365476
358.60 1.365401
358.70 1.365325
358.80 1.36525
358.90 1.365174
359.00 1.364996
359.10 1.364636
359.20 1.364324
359.30 1.36433
359.40 1.364336
359.50 1.364239
359.60 1.364116
359.70 1.363993
359.80 1.363909
359.90 1.363824
360.00 1.363736
360.10 1.363639
360.20 1.363543
360.30 1.363447
360.40 1.363351
360.50 1.363254
360.60 1.362744
360.70 1.362652
360.80 1.36256
360.90 1.362468
361.00 1.362705
361.10 1.362756
361.20 1.362394
361.30 1.361993
361.40 1.361768
361.50 1.361896
361.60 1.361459
361.70 1.361587
361.80 1.361644
361.90 1.361579
362.00 1.361513
362.10 1.361386
362.20 1.361232
362.30 1.361058
362.40 1.360883
362.50 1.360709
362.60 1.360534
362.70 1.360386
362.80 1.360025
362.90 1.360145
363.00 1.360265
363.10 1.359919
363.20 1.359569
363.30 1.359772
363.40 1.359242
363.50 1.359148
363.60 1.359271
363.70 1.359007
363.80 1.358647
363.90 1.358521
364.00 1.358395
364.10 1.35827
364.20 1.358144
364.30 1.358293
364.40 1.358511
364.50 1.357774
364.60 1.357893
364.70 1.358011
364.80 1.358129
364.90 1.357817
365.00 1.357505
365.10 1.357625
365.20 1.357313
365.30 1.357001
365.40 1.357121
365.50 1.356809
365.60 1.356498
365.70 1.356539
365.80 1.356579
365.90 1.356376
366.00 1.356113
366.10 1.356005
366.20 1.355897
366.30 1.355789
366.40 1.355682
366.50 1.355834
366.60 1.355104
366.70 1.355013
366.80 1.354923
366.90 1.35482
367.00 1.354697
367.10 1.354574
367.20 1.35445
367.30 1.354327
367.40 1.354203
367.50 1.353968
367.60 1.353704
367.70 1.35364
367.80 1.353576
367.90 1.353512
368.00 1.353313
368.10 1.353417
368.20 1.353244
368.30 1.353065
368.40 1.352886
368.50 1.352708
368.60 1.352529
368.70 1.35235
368.80 1.352172
368.90 1.351794
369.00 1.351808
369.10 1.35201
369.20 1.351287
369.30 1.351118
369.40 1.350949
369.50 1.35078
369.60 1.350887
369.70 1.350995
369.80 1.350723
369.90 1.350448
370.00 1.350172
370.10 1.350578
370.20 1.350292
370.30 1.349983
370.40 1.349657
370.50 1.349777
370.60 1.349478
370.70 1.349588
370.80 1.349277
370.90 1.348966
371.00 1.348659
371.10 1.348352
371.20 1.348457
371.30 1.348562
371.40 1.348068
371.50 1.347964
371.60 1.347859
371.70 1.347755
371.80 1.34765
371.90 1.347545
372.00 1.347065
372.10 1.346935
372.20 1.346765
372.30 1.346595
372.40 1.346426
372.50 1.346256
372.60 1.346086
372.70 1.345917
372.80 1.346019
372.90 1.346121
373.00 1.345819
373.10 1.345513
373.20 1.345206
373.30 1.344898
373.40 1.345003
373.50 1.344696
373.60 1.344388
373.70 1.344493
373.80 1.343954
373.90 1.343879
374.00 1.343778
374.10 1.343676
374.20 1.343575
374.30 1.343473
374.40 1.343269
374.50 1.342859
374.60 1.342753
374.70 1.342653
374.80 1.342553
374.90 1.342453
375.00 1.342283
375.10 1.342112
375.20 1.341942
375.30 1.341811
375.40 1.34168
375.50 1.341548
375.60 1.341417
375.70 1.341286
375.80 1.341154
375.90 1.341023
376.00 1.340309
376.10 1.340123
376.20 1.339943
376.30 1.339762
376.40 1.339581
376.50 1.339412
376.60 1.339261
376.70 1.339109
376.80 1.338962
376.90 1.338818
377.00 1.338674
377.10 1.338531
377.20 1.338374
377.30 1.338168
377.40 1.337963
377.50 1.337757
377.60 1.337575
377.70 1.337394
377.80 1.337212
377.90 1.33703
378.00 1.336638
378.10 1.336484
378.20 1.336337
378.30 1.336189
378.40 1.336041
378.50 1.335893
378.60 1.335745
378.70 1.335597
378.80 1.335449
378.90 1.335314
379.00 1.335204
379.10 1.33514
379.20 1.335076
379.30 1.334951
379.40 1.334763
379.50 1.334575
379.60 1.334182
379.70 1.333601
379.80 1.333482
379.90 1.333362
380.00 1.333242
380.10 1.333123
380.20 1.333003
380.30 1.332883
380.40 1.332763
380.50 1.332643
380.60 1.332165
380.70 1.332007
380.80 1.331849
380.90 1.33169
381.00 1.331532
381.10 1.331329
381.20 1.33128
381.30 1.331021
381.40 1.330608
381.50 1.330721
381.60 1.33051
381.70 1.330018
381.80 1.329907
381.90 1.33
382.00 1.329303
382.10 1.329396
382.20 1.329016
382.30 1.329108
382.40 1.328993
382.50 1.328567
382.60 1.328141
382.70 1.32797
382.80 1.327956
382.90 1.327811
383.00 1.327667
383.10 1.327522
383.20 1.327354
383.30 1.327094
383.40 1.326885
383.50 1.326752
383.60 1.326107
383.70 1.325931
383.80 1.325755
383.90 1.325579
384.00 1.325403
384.10 1.325227
384.20 1.325051
384.30 1.324875
384.40 1.324715
384.50 1.32457
384.60 1.324426
384.70 1.324281
384.80 1.324023
384.90 1.323568
385.00 1.323547
385.10 1.323513
385.20 1.323011
385.30 1.322718
385.40 1.3225
385.50 1.322355
385.60 1.322211
385.70 1.322066
385.80 1.321903
385.90 1.321671
386.00 1.321486
386.10 1.321353
386.20 1.321265
386.30 1.321177
386.40 1.320791
386.50 1.320425
386.60 1.320195
386.70 1.320282
386.80 1.319792
386.90 1.319686
387.00 1.319773
387.10 1.319111
387.20 1.319178
387.30 1.319264
387.40 1.318782
387.50 1.318669
387.60 1.31811
387.70 1.318004
387.80 1.317899
387.90 1.317793
388.00 1.317567
388.10 1.317005
388.20 1.317216
388.30 1.317023
388.40 1.316829
388.50 1.316466
388.60 1.316005
388.70 1.315874
388.80 1.315958
388.90 1.315282
389.00 1.315366
389.10 1.315003
389.20 1.315105
389.30 1.314995
389.40 1.314709
389.50 1.314523
389.60 1.314352
389.70 1.313858
389.80 1.313699
389.90 1.31354
390.00 1.313382
390.10 1.313223
390.20 1.313064
390.30 1.312879
390.40 1.312662
390.50 1.312445
390.60 1.312229
390.70 1.312013
390.80 1.311782
390.90 1.311536
391.00 1.311079
391.10 1.310774
391.20 1.310606
391.30 1.310651
391.40 1.310357
391.50 1.310064
391.60 1.30977
391.70 1.309476
391.80 1.309183
391.90 1.309043
392.00 1.308925
392.10 1.308581
392.20 1.308323
392.30 1.30829
392.40 1.307664
392.50 1.307705
392.60 1.307785
392.70 1.307119
392.80 1.3072
392.90 1.306674
393.00 1.306405
393.10 1.306204
393.20 1.306065
393.30 1.305773
393.40 1.305633
393.50 1.305527
393.60 1.305319
393.70 1.304944
393.80 1.305057
393.90 1.304765
394.00 1.304441
394.10 1.303956
394.20 1.30367
394.30 1.303519
394.40 1.303337
394.50 1.303355
394.60 1.303108
394.70 1.302845
394.80 1.302524
394.90 1.302216
395.00 1.302271
395.10 1.302129
395.20 1.301883
395.30 1.301464
395.40 1.301046
395.50 1.300889
395.60 1.30083
395.70 1.300734
395.80 1.300539
395.90 1.300344
396.00 1.300107
396.10 1.29955
396.20 1.29926
396.30 1.298872
396.40 1.29895
396.50 1.298908
396.60 1.298372
396.70 1.298449
396.80 1.298092
396.90 1.297871
397.00 1.297218
397.10 1.297173
397.20 1.296804
397.30 1.296842
397.40 1.296648
397.50 1.296454
397.60 1.296242
397.70 1.295848
397.80 1.295454
397.90 1.295132
398.00 1.295
398.10 1.294869
398.20 1.294633
398.30 1.29428
398.40 1.293936
398.50 1.293844
398.60 1.293914
398.70 1.293657
398.80 1.293304
398.90 1.293035
399.00 1.292923
399.10 1.29232
399.20 1.29217
399.30 1.292019
399.40 1.291869
399.50 1.291719
399.60 1.291542
399.70 1.291356
399.80 1.29117
399.90 1.290983
400.00 1.290783
400.10 1.290138
400.20 1.289998
400.30 1.289795
400.40 1.289435
400.50 1.288998
400.60 1.289334
400.70 1.289049
400.80 1.288502
400.90 1.288576
401.00 1.287933
401.10 1.288007
401.20 1.287365
401.30 1.287258
401.40 1.287183
401.50 1.287071
401.60 1.286943
401.70 1.286302
401.80 1.286222
401.90 1.286108
402.00 1.285808
402.10 1.285168
402.20 1.285241
402.30 1.285011
402.40 1.284675
402.50 1.284747
402.60 1.284109
402.70 1.284181
402.80 1.283543
402.90 1.28319
403.00 1.282908
403.10 1.283051
403.20 1.282431
403.30 1.282339
403.40 1.282406
403.50 1.282253
403.60 1.281994
403.70 1.281359
403.80 1.281442
403.90 1.281209
404.00 1.280867
404.10 1.280233
404.20 1.280304
404.30 1.280375
404.40 1.279742
404.50 1.279461
404.60 1.279181
404.70 1.279251
404.80 1.27864
404.90 1.27869
405.00 1.278059
405.10 1.277829
405.20 1.277699
405.30 1.277569
405.40 1.277289
405.50 1.277009
405.60 1.276729
405.70 1.27645
405.80 1.27617
405.90 1.275891
406.00 1.275684
406.10 1.275477
406.20 1.275271
406.30 1.275064
406.40 1.274845
406.50 1.274393
406.60 1.274287
406.70 1.273878
406.80 1.273523
406.90 1.27381
407.00 1.273531
407.10 1.273253
407.20 1.272975
407.30 1.272697
407.40 1.272419
407.50 1.272141
407.60 1.271863
407.70 1.271586
407.80 1.271308
407.90 1.271032
408.00 1.270787
408.10 1.270467
408.20 1.270204
408.30 1.270032
408.40 1.26986
408.50 1.269359
408.60 1.269215
408.70 1.269071
408.80 1.268875
408.90 1.268349
409.00 1.268125
409.10 1.267902
409.20 1.267678
409.30 1.267454
409.40 1.267226
409.50 1.26685
409.60 1.266474
409.70 1.266176
409.80 1.26619
409.90 1.266185
410.00 1.265567
410.10 1.26552
410.20 1.265231
410.30 1.264882
410.40 1.264576
410.50 1.26441
410.60 1.264243
410.70 1.264042
410.80 1.263703
410.90 1.263364
411.00 1.263105
411.10 1.262877
411.20 1.262649
411.30 1.262343
411.40 1.261744
411.50 1.261611
411.60 1.261478
411.70 1.261318
411.80 1.261045
411.90 1.260704
412.00 1.260092
412.10 1.260158
412.20 1.260224
412.30 1.259729
412.40 1.259679
412.50 1.259165
412.60 1.259038
412.70 1.258735
412.80 1.258388
412.90 1.258006
413.00 1.258111
413.10 1.25777
413.20 1.257428
413.30 1.257087
413.40 1.256747
413.50 1.256493
413.60 1.256499
413.70 1.256228
413.80 1.255957
413.90 1.255686
414.00 1.255415
414.10 1.255145
414.20 1.254794
414.30 1.254188
414.40 1.254119
414.50 1.253648
414.60 1.253793
414.70 1.253524
414.80 1.253254
414.90 1.252984
415.00 1.252715
415.10 1.252445
415.20 1.252146
415.30 1.251751
415.40 1.251356
415.50 1.250969
415.60 1.250845
415.70 1.250721
415.80 1.250535
415.90 1.250152
416.00 1.24977
416.10 1.249408
416.20 1.249127
416.30 1.248845
416.40 1.248564
416.50 1.248283
416.60 1.248016
416.70 1.247788
416.80 1.247802
416.90 1.24756
417.00 1.247268
417.10 1.24668
417.20 1.246413
417.30 1.24615
417.40 1.24602
417.50 1.24589
417.60 1.245667
417.70 1.24508
417.80 1.244814
417.90 1.244548
418.00 1.244282
418.10 1.244016
418.20 1.24375
418.30 1.2435
418.40 1.243607
418.50 1.243298
418.60 1.242989
418.70 1.242681
418.80 1.242372
418.90 1.242064
419.00 1.241756
419.10 1.241448
419.20 1.241141
419.30 1.240839
419.40 1.240709
419.50 1.24058
419.60 1.240403
419.70 1.240033
419.80 1.239663
419.90 1.239317
420.00 1.239046
420.10 1.238776
420.20 1.238505
420.30 1.238235
420.40 1.237965
420.50 1.237695
420.60 1.237426
420.70 1.237156
420.80 1.236886
420.90 1.236614
421.00 1.236261
421.10 1.235907
421.20 1.235588
421.30 1.235372
421.40 1.235155
421.50 1.234939
421.60 1.234723
421.70 1.234507
421.80 1.234291
421.90 1.234062
422.00 1.233794
422.10 1.233504
422.20 1.233123
422.30 1.232743
422.40 1.232366
422.50 1.232076
422.60 1.231786
422.70 1.231496
422.80 1.231206
422.90 1.230917
423.00 1.230628
423.10 1.230338
423.20 1.230049
423.30 1.22976
423.40 1.229472
423.50 1.229183
423.60 1.228894
423.70 1.228606
423.80 1.228318
423.90 1.22803
424.00 1.227742
424.10 1.227454
424.20 1.227166
424.30 1.226879
424.40 1.227168
424.50 1.226848
424.60 1.226529
424.70 1.226209
424.80 1.225889
424.90 1.22557
425.00 1.225251
425.10 1.224932
425.20 1.224613
425.30 1.224294
425.40 1.223981
425.50 1.2237
425.60 1.22342
425.70 1.22314
425.80 1.22286
425.90 1.22258
426.00 1.2223
426.10 1.22202
426.20 1.221741
426.30 1.221461
426.40 1.221182
426.50 1.220903
426.60 1.220623
426.70 1.220345
426.80 1.220066
426.90 1.219787
427.00 1.219516
427.10 1.219244
427.20 1.218973
427.30 1.218702
427.40 1.218431
427.50 1.21816
427.60 1.217889
427.70 1.217618
427.80 1.217348
427.90 1.217077
428.00 1.216807
428.10 1.216537
428.20 1.216266
428.30 1.215996
428.40 1.215727
428.50 1.215457
428.60 1.215187
428.70 1.214918
428.80 1.214647
428.90 1.214356
429.00 1.214065
429.10 1.213774
429.20 1.213484
429.30 1.213193
429.40 1.212903
429.50 1.212613
429.60 1.212323
429.70 1.212033
429.80 1.211743
429.90 1.211454
430.00 1.211164
430.10 1.210875
430.20 1.210586
430.30 1.210297
430.40 1.210008
430.50 1.209719
430.60 1.20943
430.70 1.209142
430.80 1.208853
430.90 1.208565
431.00 1.208277
431.10 1.207989
431.20 1.207701
431.30 1.207414
431.40 1.207133
431.50 1.206852
431.60 1.206571
431.70 1.20629
431.80 1.206009
431.90 1.205728
432.00 1.205448
432.10 1.205167
432.20 1.204887
432.30 1.204607
432.40 1.204327
432.50 1.204047
432.60 1.203767
432.70 1.203487
432.80 1.203208
432.90 1.202928
433.00 1.202649
433.10 1.20237
433.20 1.202091
433.30 1.201811
433.40 1.201522
433.50 1.201233
433.60 1.200944
433.70 1.200655
433.80 1.200248
433.90 1.199694
434.00 1.199319
434.10 1.199052
434.20 1.198786
434.30 1.198519
434.40 1.198253
434.50 1.197987
434.60 1.19772
434.70 1.197455
434.80 1.197186
434.90 1.196885
435.00 1.196585
435.10 1.196285
435.20 1.195984
435.30 1.195684
435.40 1.195384
435.50 1.195084
435.60 1.194785
435.70 1.194485
435.80 1.194186
435.90 1.193887
436.00 1.193588
436.10 1.193289
436.20 1.19299
436.30 1.192777
436.40 1.192654
436.50 1.192348
436.60 1.192042
436.70 1.191736
436.80 1.19143
436.90 1.191124
437.00 1.190819
437.10 1.190513
437.20 1.190212
437.30 1.189913
437.40 1.189619
437.50 1.189375
437.60 1.189133
437.70 1.18889
437.80 1.188647
437.90 1.188404
438.00 1.188157
438.10 1.187843
438.20 1.18753
438.30 1.187114
438.40 1.186594
438.50 1.186352
438.60 1.186089
438.70 1.185952
438.80 1.185606
438.90 1.185066
439.00 1.185144
439.10 1.184903
439.20 1.184651
439.30 1.184261
439.40 1.183871
439.50 1.183482
439.60 1.183082
439.70 1.182833
439.80 1.182724
439.90 1.182458
440.00 1.182192
440.10 1.181926
440.20 1.181658
440.30 1.181359
440.40 1.18106
440.50 1.180761
440.60 1.180462
440.70 1.180164
440.80 1.179865
440.90 1.179567
441.00 1.179269
441.10 1.178971
441.20 1.178656
441.30 1.178122
441.40 1.17777
441.50 1.17764
441.60 1.177509
441.70 1.17717
441.80 1.176817
441.90 1.176464
442.00 1.176112
442.10 1.17576
442.20 1.175408
442.30 1.175056
442.40 1.174797
442.50 1.174652
442.60 1.174506
442.70 1.174207
442.80 1.173702
442.90 1.173534
443.00 1.173341
443.10 1.173115
443.20 1.172731
443.30 1.172202
443.40 1.171805
443.50 1.17157
443.60 1.171202
443.70 1.171259
443.80 1.170731
443.90 1.170569
444.00 1.170261
444.10 1.169734
444.20 1.169791
444.30 1.16928
444.40 1.168976
444.50 1.168673
444.60 1.168405
444.70 1.168181
444.80 1.167875
444.90 1.167493
445.00 1.167111
445.10 1.16673
445.20 1.166416
445.30 1.166186
445.40 1.165956
445.50 1.165726
445.60 1.165496
445.70 1.165267
445.80 1.164958
445.90 1.164578
446.00 1.164198
446.10 1.163819
446.20 1.163375
446.30 1.163432
446.40 1.163061
446.50 1.162829
446.60 1.162596
446.70 1.162364
446.80 1.161983
446.90 1.161463
447.00 1.161116
447.10 1.161
447.20 1.160481
447.30 1.160537
447.40 1.160168
447.50 1.159937
447.60 1.159557
447.70 1.159039
447.80 1.158655
447.90 1.158435
448.00 1.15816
448.10 1.157834
448.20 1.157508
448.30 1.157183
448.40 1.156858
448.50 1.156533
448.60 1.15623
448.70 1.155948
448.80 1.155667
448.90 1.1554
449.00 1.155133
449.10 1.154865
449.20 1.154598
449.30 1.15422
449.40 1.153936
449.50 1.153653
449.60 1.153368
449.70 1.153082
449.80 1.152796
449.90 1.152511
450.00 1.152225
450.10 1.15194
450.20 1.151655
450.30 1.15137
450.40 1.151048
450.50 1.150726
450.60 1.150405
450.70 1.150083
450.80 1.149762
450.90 1.14944
451.00 1.149159
451.10 1.148878
451.20 1.148478
451.30 1.148534
451.40 1.148025
451.50 1.147517
451.60 1.147573
451.70 1.147065
451.80 1.146839
451.90 1.146614
452.00 1.146388
452.10 1.146163
452.20 1.145797
452.30 1.145431
452.40 1.145065
452.50 1.1447
452.60 1.144574
452.70 1.144315
452.80 1.143934
452.90 1.143553
453.00 1.143172
453.10 1.142791
453.20 1.142544
453.30 1.142296
453.40 1.142049
453.50 1.141802
453.60 1.141555
453.70 1.141308
453.80 1.141019
453.90 1.140678
454.00 1.140337
454.10 1.139997
454.20 1.139699
454.30 1.1394
454.40 1.139103
454.50 1.138805
454.60 1.138507
454.70 1.138214
454.80 1.137925
454.90 1.137636
455.00 1.137348
455.10 1.137059
455.20 1.136771
455.30 1.136483
455.40 1.136195
455.50 1.135907
455.60 1.135619
455.70 1.135332
455.80 1.134982
455.90 1.134633
456.00 1.134284
456.10 1.13395
456.20 1.133659
456.30 1.133368
456.40 1.133077
456.50 1.132786
456.60 1.132496
456.70 1.132205
456.80 1.131915
456.90 1.131624
457.00 1.131334
457.10 1.131044
457.20 1.130648
457.30 1.130346
457.40 1.130045
457.50 1.129743
457.60 1.129442
457.70 1.12914
457.80 1.128839
457.90 1.128539
458.00 1.128238
458.10 1.127937
458.20 1.127637
458.30 1.127337
458.40 1.127036
458.50 1.126736
458.60 1.126437
458.70 1.126137
458.80 1.125838
458.90 1.125539
459.00 1.12524
459.10 1.124941
459.20 1.124642
459.30 1.124305
459.40 1.123968
459.50 1.123631
459.60 1.123294
459.70 1.122957
459.80 1.122621
459.90 1.122285
460.00 1.121949
460.10 1.121613
460.20 1.121277
460.30 1.120942
460.40 1.120606
460.50 1.120271
460.60 1.119936
460.70 1.119647
460.80 1.119379
460.90 1.119112
461.00 1.118845
461.10 1.118578
461.20 1.118358
461.30 1.118156
461.40 1.117842
461.50 1.1175
461.60 1.117158
461.70 1.116816
461.80 1.116521
461.90 1.116227
462.00 1.115932
462.10 1.115638
462.20 1.115344
462.30 1.11505
462.40 1.114756
462.50 1.114462
462.60 1.114169
462.70 1.113875
462.80 1.113582
462.90 1.113289
463.00 1.112996
463.10 1.112703
463.20 1.112388
463.30 1.112063
463.40 1.111738
463.50 1.111413
463.60 1.111089
463.70 1.110765
463.80 1.110441
463.90 1.110152
464.00 1.109872
464.10 1.109592
464.20 1.109312
464.30 1.109032
464.40 1.108752
464.50 1.108473
464.60 1.108193
464.70 1.107898
464.80 1.107596
464.90 1.107293
465.00 1.106991
465.10 1.10669
465.20 1.106388
465.30 1.106037
465.40 1.105654
465.50 1.10527
465.60 1.104887
465.70 1.104504
465.80 1.104121
465.90 1.103873
466.00 1.103659
466.10 1.103444
466.20 1.10323
466.30 1.102945
466.40 1.102631
466.50 1.102317
466.60 1.102003
466.70 1.101689
466.80 1.101376
466.90 1.101062
467.00 1.100749
467.10 1.100436
467.20 1.100123
467.30 1.099699
467.40 1.099394
467.50 1.09913
467.60 1.098867
467.70 1.098604
467.80 1.098341
467.90 1.098025
468.00 1.097687
468.10 1.09735
468.20 1.097012
468.30 1.096768
468.40 1.096562
468.50 1.09617
468.60 1.095702
468.70 1.095235
468.80 1.095292
468.90 1.094824
469.00 1.094358
469.10 1.094077
469.20 1.093872
469.30 1.093667
469.40 1.093462
469.50 1.093153
469.60 1.0928
469.70 1.092447
469.80 1.092095
469.90 1.091734
470.00 1.091269
470.10 1.090956
470.20 1.090704
470.30 1.090452
470.40 1.0902
470.50 1.089949
470.60 1.089632
470.70 1.089299
470.80 1.088966
470.90 1.088633
471.00 1.088197
471.10 1.08814
471.20 1.087792
471.30 1.08733
471.40 1.087387
471.50 1.086926
471.60 1.086672
471.70 1.08647
471.80 1.086165
471.90 1.085834
472.00 1.085503
472.10 1.085172
472.20 1.08482
472.30 1.084462
472.40 1.084104
472.50 1.083746
472.60 1.083389
472.70 1.08296
472.80 1.082626
472.90 1.082322
473.00 1.082019
473.10 1.081716
473.20 1.081413
473.30 1.08111
473.40 1.080808
473.50 1.080505
473.60 1.080203
473.70 1.079901
473.80 1.079676
473.90 1.079471
474.00 1.079267
474.10 1.079062
474.20 1.078758
474.30 1.078414
474.40 1.07807
474.50 1.077726
474.60 1.077386
474.70 1.077072
474.80 1.076758
474.90 1.076445
475.00 1.076132
475.10 1.075819
475.20 1.075506
475.30 1.075193
475.40 1.074869
475.50 1.074543
475.60 1.074217
475.70 1.073891
475.80 1.073566
475.90 1.07324
476.00 1.072915
476.10 1.07259
476.20 1.07228
476.30 1.071977
476.40 1.071674
476.50 1.071371
476.60 1.071068
476.70 1.070765
476.80 1.070463
476.90 1.070155
477.00 1.069846
477.10 1.069538
477.20 1.069229
477.30 1.068921
477.40 1.068613
477.50 1.068305
477.60 1.067997
477.70 1.067689
477.80 1.067382
477.90 1.067074
478.00 1.066767
478.10 1.06646
478.20 1.066153
478.30 1.065847
478.40 1.06554
478.50 1.065234
478.60 1.064928
478.70 1.06471
478.80 1.064528
478.90 1.064214
479.00 1.063866
479.10 1.063519
479.20 1.063172
479.30 1.062826
479.40 1.062508
479.50 1.062207
479.60 1.061906
479.70 1.061605
479.80 1.061304
479.90 1.061004
480.00 1.060703
480.10 1.060403
480.20 1.060103
480.30 1.059803
480.40 1.059504
480.50 1.059204
480.60 1.058905
480.70 1.058605
480.80 1.058306
480.90 1.058007
481.00 1.057709
481.10 1.05741
481.20 1.057107
481.30 1.056804
481.40 1.056502
481.50 1.056199
481.60 1.055897
481.70 1.055595
481.80 1.055293
481.90 1.054991
482.00 1.054689
482.10 1.054387
482.20 1.054086
482.30 1.05379
482.40 1.053494
482.50 1.053198
482.60 1.052902
482.70 1.052606
482.80 1.052311
482.90 1.052015
483.00 1.05172
483.10 1.051425
483.20 1.05113
483.30 1.050835
483.40 1.05054
483.50 1.050246
483.60 1.049951
483.70 1.04961
483.80 1.049269
483.90 1.048928
484.00 1.048588
484.10 1.048247
484.20 1.047903
484.30 1.047557
484.40 1.047212
484.50 1.046867
484.60 1.046522
484.70 1.046183
484.80 1.045913
484.90 1.045644
485.00 1.045374
485.10 1.045105
485.20 1.044836
485.30 1.044567
485.40 1.044299
485.50 1.04403
485.60 1.043761
485.70 1.043466
485.80 1.04317
485.90 1.042874
486.00 1.042579
486.10 1.042284
486.20 1.041989
486.30 1.041694
486.40 1.041399
486.50 1.041105
486.60 1.04081
486.70 1.040515
486.80 1.040207
486.90 1.039899
487.00 1.039591
487.10 1.039284
487.20 1.038946
487.30 1.038608
487.40 1.038271
487.50 1.037933
487.60 1.037596
487.70 1.037259
487.80 1.036923
487.90 1.036586
488.00 1.03625
488.10 1.035914
488.20 1.035585
488.30 1.035351
488.40 1.035118
488.50 1.034884
488.60 1.034651
488.70 1.034418
488.80 1.033995
488.90 1.033572
489.00 1.033186
489.10 1.032896
489.20 1.032606
489.30 1.032316
489.40 1.032026
489.50 1.031736
489.60 1.031447
489.70 1.031157
489.80 1.030743
489.90 1.030417
490.00 1.030091
490.10 1.029765
490.20 1.02944
490.30 1.029114
490.40 1.028814
490.50 1.028514
490.60 1.028215
490.70 1.027915
490.80 1.027974
490.90 1.027555
491.00 1.027137
491.10 1.026719
491.20 1.026539
491.30 1.02636
491.40 1.025942
491.50 1.025525
491.60 1.025175
491.70 1.02497
491.80 1.02475
491.90 1.024333
492.00 1.023917
492.10 1.023976
492.20 1.02356
492.30 1.023144
492.40 1.02276
492.50 1.022788
492.60 1.022381
492.70 1.022085
492.80 1.021789
492.90 1.021493
493.00 1.021195
493.10 1.020874
493.20 1.020553
493.30 1.020233
493.40 1.019913
493.50 1.019593
493.60 1.019192
493.70 1.018955
493.80 1.018719
493.90 1.018414
494.00 1.018002
494.10 1.017618
494.20 1.017296
494.30 1.016974
494.40 1.016653
494.50 1.016331
494.60 1.016022
494.70 1.015871
494.80 1.01569
494.90 1.015424
495.00 1.015158
495.10 1.014892
495.20 1.014579
495.30 1.014266
495.40 1.013954
495.50 1.013642
495.60 1.013329
495.70 1.013017
495.80 1.012706
495.90 1.012394
496.00 1.012082
496.10 1.01174
496.20 1.01134
496.30 1.011048
496.40 1.010755
496.50 1.010463
496.60 1.010171
496.70 1.009833
496.80 1.009496
496.90 1.009159
497.00 1.008822
497.10 1.008485
497.20 1.008149
497.30 1.007835
497.40 1.007589
497.50 1.007342
497.60 1.007044
497.70 1.006647
497.80 1.006345
497.90 1.006043
498.00 1.005742
498.10 1.00544
498.20 1.005139
498.30 1.004838
498.40 1.004537
498.50 1.004236
498.60 1.003935
498.70 1.003764
498.80 1.003593
498.90 1.003191
499.00 1.002789
499.10 1.002387
499.20 1.002125
499.30 1.002074
499.40 1.001783
499.50 1.001492
499.60 1.001201
499.70 1.00091
499.80 1.000606
499.90 1.000303
500.00 1
500.10 0.999697
500.20 0.9993878
500.30 0.9990649
500.40 0.9987423
500.50 0.9984198
500.60 0.9980975
500.70 0.9977754
500.80 0.9974733
500.90 0.9972132
501.00 0.9969533
501.10 0.9966935
501.20 0.9962959
501.30 0.9958984
501.40 0.9955012
501.50 0.9951042
501.60 0.9951193
501.70 0.9947684
501.80 0.9943719
501.90 0.9939757
502.00 0.9936447
502.10 0.9934519
502.20 0.993245
502.30 0.9928496
502.40 0.9924787
502.50 0.9921597
502.60 0.9918409
502.70 0.9915222
502.80 0.9912038
502.90 0.9908855
503.00 0.990579
503.10 0.9902972
503.20 0.9900156
503.30 0.9897342
503.40 0.9894524
503.50 0.9891691
503.60 0.9888859
503.70 0.9886029
503.80 0.9883069
503.90 0.9879147
504.00 0.9875584
504.10 0.9872782
504.20 0.9869981
504.30 0.9867182
504.40 0.9864683
504.50 0.9863035
504.60 0.9860799
504.70 0.9856891
504.80 0.9852986
504.90 0.9849084
505.00 0.984577
505.10 0.9844128
505.20 0.9842198
505.30 0.9839447
505.40 0.9836698
505.50 0.983395
505.60 0.9831075
505.70 0.982793
505.80 0.9824787
505.90 0.9821646
506.00 0.9818506
506.10 0.9815368
506.20 0.981217
506.30 0.9808796
506.40 0.9805425
506.50 0.9802055
506.60 0.9798688
506.70 0.9795322
506.80 0.9791958
506.90 0.9788596
507.00 0.9785236
507.10 0.9783069
507.20 0.9782554
507.30 0.9779537
507.40 0.9776521
507.50 0.9773506
507.60 0.9770494
507.70 0.9767482
507.80 0.9764473
507.90 0.9761465
508.00 0.9758459
508.10 0.9755454
508.20 0.9752451
508.30 0.9749449
508.40 0.974645
508.50 0.9743451
508.60 0.9740455
508.70 0.973746
508.80 0.9734249
508.90 0.9730424
509.00 0.9726601
509.10 0.9723016
509.20 0.9719934
509.30 0.9716853
509.40 0.9713774
509.50 0.9710697
509.60 0.9707622
509.70 0.9704548
509.80 0.9701475
509.90 0.9698405
510.00 0.9695336
510.10 0.9692269
510.20 0.9689203
510.30 0.9686215
510.40 0.9683444
510.50 0.9680675
510.60 0.9677907
510.70 0.9675141
510.80 0.9672376
510.90 0.9669612
511.00 0.966685
511.10 0.966409
511.20 0.966133
511.30 0.9658572
511.40 0.9655816
511.50 0.9653061
511.60 0.9650181
511.70 0.9647032
511.80 0.9643885
511.90 0.964074
512.00 0.9637596
512.10 0.9634454
512.20 0.9631314
512.30 0.9628223
512.40 0.9625267
512.50 0.9622313
512.60 0.9619361
512.70 0.961641
512.80 0.961346
512.90 0.9610513
513.00 0.9607566
513.10 0.9604622
513.20 0.9601679
513.30 0.9598737
513.40 0.9595797
513.50 0.9592859
513.60 0.9589922
513.70 0.9586986
513.80 0.9584053
513.90 0.9581121
514.00 0.9578088
514.10 0.957504
514.20 0.9571994
514.30 0.9568949
514.40 0.9565906
514.50 0.9562865
514.60 0.9559825
514.70 0.9556787
514.80 0.9553751
514.90 0.9550716
515.00 0.9547683
515.10 0.9544651
515.20 0.9541622
515.30 0.9538593
515.40 0.9535567
515.50 0.9532542
515.60 0.9529519
515.70 0.9526497
515.80 0.9523477
515.90 0.9520459
516.00 0.9517442
516.10 0.9514427
516.20 0.9511413
516.30 0.9508401
516.40 0.9505391
516.50 0.9502382
516.60 0.9499375
516.70 0.949637
516.80 0.9493366
516.90 0.9490365
517.00 0.9487364
517.10 0.9484365
517.20 0.9481368
517.30 0.9478373
517.40 0.9475379
517.50 0.9472386
517.60 0.9469396
517.70 0.9466407
517.80 0.9463419
517.90 0.9460433
518.00 0.9457449
518.10 0.9454466
518.20 0.9451485
518.30 0.9448506
518.40 0.9445528
518.50 0.9442551
518.60 0.9439577
518.70 0.9436603
518.80 0.9433632
518.90 0.9430662
519.00 0.9427694
519.10 0.9424724
519.20 0.9421752
519.30 0.9418781
519.40 0.9415812
519.50 0.9412845
519.60 0.940988
519.70 0.9406916
519.80 0.9403953
519.90 0.9400992
520.00 0.9398033
520.10 0.9395075
520.20 0.9392119
520.30 0.9389164
520.40 0.9386211
520.50 0.938326
520.60 0.938031
520.70 0.9377362
520.80 0.9374415
520.90 0.937147
521.00 0.9368527
521.10 0.9365585
521.20 0.9362644
521.30 0.9359705
521.40 0.9356768
521.50 0.9353832
521.60 0.9350898
521.70 0.9347966
521.80 0.9345035
521.90 0.9342105
522.00 0.9339177
522.10 0.9336251
522.20 0.9333326
522.30 0.9330403
522.40 0.9327481
522.50 0.9324561
522.60 0.9321643
522.70 0.9318726
522.80 0.931581
522.90 0.9312896
523.00 0.9309984
523.10 0.9307073
523.20 0.9304164
523.30 0.9301256
523.40 0.929835
523.50 0.9295445
523.60 0.9292542
523.70 0.928964
523.80 0.928674
523.90 0.9283842
524.00 0.9280945
524.10 0.9278049
524.20 0.9275155
524.30 0.927226
524.40 0.9269362
524.50 0.9266467
524.60 0.9263573
524.70 0.926068
524.80 0.9257789
524.90 0.92549
525.00 0.9252012
525.10 0.9249126
525.20 0.9246241
525.30 0.9243357
525.40 0.9240475
525.50 0.9237595
525.60 0.9234716
525.70 0.9231839
525.80 0.9228963
525.90 0.9226089
526.00 0.9223217
526.10 0.9220345
526.20 0.9217476
526.30 0.9214608
526.40 0.9211741
526.50 0.9208876
526.60 0.9206012
526.70 0.920315
526.80 0.920029
526.90 0.9197431
527.00 0.9194573
527.10 0.9191717
527.20 0.9188862
527.30 0.9186009
527.40 0.9183158
527.50 0.9180308
527.60 0.9177459
527.70 0.9174612
527.80 0.9171767
527.90 0.9168923
528.00 0.916608
528.10 0.9163239
528.20 0.9160399
528.30 0.9157561
528.40 0.9154725
528.50 0.915189
528.60 0.9149056
528.70 0.9146224
528.80 0.9143393
528.90 0.9140564
529.00 0.9137737
529.10 0.913491
529.20 0.9132086
529.30 0.9129263
529.40 0.9126441
529.50 0.9123598
529.60 0.9120618
529.70 0.9117639
529.80 0.9114662
529.90 0.9111687
530.00 0.9108713
530.10 0.9105741
530.20 0.9102771
530.30 0.9099802
530.40 0.9096834
530.50 0.9093868
530.60 0.9090904
530.70 0.9087942
530.80 0.9084981
530.90 0.9082021
531.00 0.9079063
531.10 0.9076107
531.20 0.9073152
531.30 0.9070199
531.40 0.9067248
531.50 0.9064298
531.60 0.906135
531.70 0.9058403
531.80 0.9055458
531.90 0.9052514
532.00 0.9049572
532.10 0.9046631
532.20 0.9043693
532.30 0.9040755
532.40 0.903782
532.50 0.9034886
532.60 0.9031953
532.70 0.9029022
532.80 0.9026093
532.90 0.9023165
533.00 0.9020239
533.10 0.9017314
533.20 0.9014391
533.30 0.901147
533.40 0.900855
533.50 0.9005631
533.60 0.9002714
533.70 0.8999799
533.80 0.8996885
533.90 0.8993973
534.00 0.8991062
534.10 0.8988153
534.20 0.8985246
534.30 0.898234
534.40 0.8979435
534.50 0.8976532
534.60 0.8973631
534.70 0.8970731
534.80 0.8967846
534.90 0.896502
535.00 0.8962195
535.10 0.8959372
535.20 0.8956551
535.30 0.895373
535.40 0.8950912
535.50 0.8948094
535.60 0.8945279
535.70 0.8942464
535.80 0.8939652
535.90 0.893684
536.00 0.893403
536.10 0.8931222
536.20 0.8928415
536.30 0.892561
536.40 0.8922806
536.50 0.8920003
536.60 0.8917202
536.70 0.8914403
536.80 0.8911605
536.90 0.8908808
537.00 0.8906013
537.10 0.8903219
537.20 0.8900427
537.30 0.8897636
537.40 0.8894847
537.50 0.8892059
537.60 0.8889273
537.70 0.8886488
537.80 0.8883704
537.90 0.8880922
538.00 0.8878142
538.10 0.8875362
538.20 0.8872585
538.30 0.8869809
538.40 0.8867034
538.50 0.886426
538.60 0.8861489
538.70 0.8858718
538.80 0.8855949
538.90 0.8853182
539.00 0.8850416
539.10 0.8847651
539.20 0.8844888
539.30 0.8842126
539.40 0.8839366
539.50 0.8836607
539.60 0.8833849
539.70 0.8831093
539.80 0.8828339
539.90 0.8825586
540.00 0.8822834
540.10 0.8820084
540.20 0.8817228
540.30 0.8814329
540.40 0.8811432
540.50 0.8808537
540.60 0.8805643
540.70 0.8802751
540.80 0.879986
540.90 0.8796971
541.00 0.8794083
541.10 0.8791197
541.20 0.8788312
541.30 0.8785429
541.40 0.8782548
541.50 0.8779668
541.60 0.8776789
541.70 0.8773912
541.80 0.8771037
541.90 0.8768163
542.00 0.876529
542.10 0.8762419
542.20 0.875955
542.30 0.8756682
542.40 0.8753816
542.50 0.8750951
542.60 0.8748088
542.70 0.8745226
542.80 0.8742366
542.90 0.8739507
543.00 0.873665
543.10 0.8733794
543.20 0.873094
543.30 0.8728087
543.40 0.8725236
543.50 0.8722386
543.60 0.8719538
543.70 0.8716692
543.80 0.8713846
543.90 0.8711003
544.00 0.8708161
544.10 0.870532
544.20 0.8702481
544.30 0.8699643
544.40 0.8696807
544.50 0.8693972
544.60 0.8691139
544.70 0.8688307
544.80 0.8685477
544.90 0.8682649
545.00 0.8679821
545.10 0.8676996
545.20 0.8674171
545.30 0.8671349
545.40 0.8668527
545.50 0.8665708
545.60 0.8662937
545.70 0.8660187
545.80 0.8657439
545.90 0.8654692
546.00 0.8651947
546.10 0.8649203
546.20 0.8646461
546.30 0.864372
546.40 0.864098
546.50 0.8638242
546.60 0.8635505
546.70 0.863277
546.80 0.8630036
546.90 0.8627304
547.00 0.8624573
547.10 0.8621843
547.20 0.8619115
547.30 0.8616388
547.40 0.8613663
547.50 0.8610939
547.60 0.8608216
547.70 0.8605495
547.80 0.8602776
547.90 0.8600057
548.00 0.8597341
548.10 0.8594625
548.20 0.8591911
548.30 0.858914
548.40 0.8586288
548.50 0.8583438
548.60 0.858059
548.70 0.8577743
548.80 0.8574898
548.90 0.8572054
549.00 0.8569211
549.10 0.856637
549.20 0.8563531
549.30 0.8560693
549.40 0.8557857
549.50 0.8555022
549.60 0.8552189
549.70 0.8549357
549.80 0.8546526
549.90 0.8543697
550.00 0.854087
550.10 0.8538044
550.20 0.853522
550.30 0.8532397
550.40 0.8529575
550.50 0.8526755
550.60 0.8523937
550.70 0.852112
550.80 0.8518304
550.90 0.851549
551.00 0.8512677
551.10 0.8509863
551.20 0.8507051
551.30 0.850424
551.40 0.8501431
551.50 0.8498623
551.60 0.8495816
551.70 0.8493011
551.80 0.8490208
551.90 0.8487405
552.00 0.8484605
552.10 0.8481806
552.20 0.8479008
552.30 0.8476212
552.40 0.8473417
552.50 0.8470624
552.60 0.8467832
552.70 0.8465042
552.80 0.8462253
552.90 0.8459466
553.00 0.845668
553.10 0.8453895
553.20 0.8451112
553.30 0.8448331
553.40 0.8445551
553.50 0.8442772
553.60 0.8439995
553.70 0.8437219
553.80 0.8434445
553.90 0.8431672
554.00 0.8428901
554.10 0.8426131
554.20 0.8423362
554.30 0.8420595
554.40 0.841783
554.50 0.8415066
554.60 0.8412303
554.70 0.8409542
554.80 0.8406782
554.90 0.8404024
555.00 0.8401267
555.10 0.8398511
555.20 0.8395757
555.30 0.8393005
555.40 0.8390254
555.50 0.8387504
555.60 0.8384756
555.70 0.8382009
555.80 0.8379263
555.90 0.8376519
556.00 0.8373777
556.10 0.8371036
556.20 0.8368296
556.30 0.8365558
556.40 0.8362821
556.50 0.8360086
556.60 0.8357349
556.70 0.8354614
556.80 0.835188
556.90 0.8349148
557.00 0.8346417
557.10 0.8343687
557.20 0.8340959
557.30 0.8338233
557.40 0.8335507
557.50 0.8332783
557.60 0.8330061
557.70 0.832734
557.80 0.8324621
557.90 0.8321902
558.00 0.8319186
558.10 0.831647
558.20 0.8313756
558.30 0.8311044
558.40 0.8308333
558.50 0.8305623
558.60 0.8302915
558.70 0.8300208
558.80 0.8297502
558.90 0.8294798
559.00 0.8292096
559.10 0.8289394
559.20 0.8286695
559.30 0.8283996
559.40 0.8281299
559.50 0.8278603
559.60 0.8275909
559.70 0.8273216
559.80 0.8270525
559.90 0.8267835
560.00 0.8265146
560.10 0.8262459
560.20 0.8259773
560.30 0.8257088
560.40 0.8254405
560.50 0.8251724
560.60 0.8249043
560.70 0.8246364
560.80 0.8243687
560.90 0.8241011
561.00 0.8238336
561.10 0.8235662
561.20 0.823299
561.30 0.823032
561.40 0.822765
561.50 0.8224983
561.60 0.8222316
561.70 0.8219651
561.80 0.8216987
561.90 0.8214325
562.00 0.8211664
562.10 0.8209003
562.20 0.8206342
562.30 0.8203683
562.40 0.8201024
562.50 0.8198368
562.60 0.8195712
562.70 0.8193058
562.80 0.8190406
562.90 0.8187754
563.00 0.8185104
563.10 0.8182456
563.20 0.8179808
563.30 0.8177163
563.40 0.8174518
563.50 0.8171875
563.60 0.8169233
563.70 0.8166593
563.80 0.8163954
563.90 0.8161316
564.00 0.815868
564.10 0.8156045
564.20 0.8153411
564.30 0.8150779
564.40 0.8148148
564.50 0.8145518
564.60 0.814289
564.70 0.8140263
564.80 0.8137638
564.90 0.8134976
565.00 0.8132225
565.10 0.8129476
565.20 0.8126728
565.30 0.8123981
565.40 0.8121236
565.50 0.8118492
565.60 0.8115749
565.70 0.8113008
565.80 0.8110269
565.90 0.8107531
566.00 0.8104794
566.10 0.8102059
566.20 0.8099325
566.30 0.8096592
566.40 0.8093861
566.50 0.8091132
566.60 0.8088403
566.70 0.8085677
566.80 0.8082951
566.90 0.8080227
567.00 0.8077505
567.10 0.8074784
567.20 0.8072064
567.30 0.8069346
567.40 0.8066629
567.50 0.8063914
567.60 0.80612
567.70 0.8058499
567.80 0.8055849
567.90 0.8053201
568.00 0.8050554
568.10 0.8047909
568.20 0.8045265
568.30 0.8042622
568.40 0.8039981
568.50 0.8037341
568.60 0.8034702
568.70 0.8032065
568.80 0.8029429
568.90 0.8026794
569.00 0.8024161
569.10 0.8021529
569.20 0.8018899
569.30 0.801627
569.40 0.8013642
569.50 0.8011015
569.60 0.800839
569.70 0.8005766
569.80 0.8003144
569.90 0.8000523
570.00 0.7997903
570.10 0.7995285
570.20 0.7992668
570.30 0.7990052
570.40 0.7987438
570.50 0.7984825
570.60 0.7982213
570.70 0.7979603
570.80 0.7976994
570.90 0.7974386
571.00 0.797178
571.10 0.7969175
571.20 0.7966571
571.30 0.7963969
571.40 0.7961368
571.50 0.7958768
571.60 0.795617
571.70 0.7953573
571.80 0.7950978
571.90 0.7948383
572.00 0.794579
572.10 0.7943199
572.20 0.7940608
572.30 0.7938019
572.40 0.7935432
572.50 0.7932845
572.60 0.793026
572.70 0.7927677
572.80 0.7925094
572.90 0.7922513
573.00 0.7919933
573.10 0.7917355
573.20 0.7914778
573.30 0.7912202
573.40 0.7909585
573.50 0.790691
573.60 0.7904236
573.70 0.7901564
573.80 0.7898894
573.90 0.7896224
574.00 0.7893556
574.10 0.789089
574.20 0.7888225
574.30 0.7885561
574.40 0.7882898
574.50 0.7880237
574.60 0.7877578
574.70 0.7874919
574.80 0.7872262
574.90 0.7869607
575.00 0.7866953
575.10 0.78643
575.20 0.7861648
575.30 0.7858998
575.40 0.785635
575.50 0.7853702
575.60 0.7851056
575.70 0.7848412
575.80 0.7845768
575.90 0.7843126
576.00 0.7840486
576.10 0.7837847
576.20 0.7835209
576.30 0.7832572
576.40 0.7829937
576.50 0.7827304
576.60 0.7824671
576.70 0.782204
576.80 0.7819411
576.90 0.7816782
577.00 0.7814155
577.10 0.781153
577.20 0.7808905
577.30 0.7806282
577.40 0.7803661
577.50 0.7801041
577.60 0.7798476
577.70 0.7796002
577.80 0.779353
577.90 0.7791058
578.00 0.7788588
578.10 0.7786119
578.20 0.7783651
578.30 0.7781184
578.40 0.7778719
578.50 0.7776255
578.60 0.7773792
578.70 0.7771331
578.80 0.776887
578.90 0.7766411
579.00 0.7763953
579.10 0.7761476
579.20 0.7758797
579.30 0.7756118
579.40 0.7753441
579.50 0.7750765
579.60 0.7748091
579.70 0.7745418
579.80 0.7742747
579.90 0.7740077
580.00 0.7737408
580.10 0.7734805
580.20 0.773231
580.30 0.7729817
580.40 0.7727324
580.50 0.7724833
580.60 0.7722343
580.70 0.7719854
580.80 0.7717367
580.90 0.771488
581.00 0.7712395
581.10 0.7709912
581.20 0.7707429
581.30 0.7704948
581.40 0.7702468
581.50 0.7699989
581.60 0.7697512
581.70 0.7695036
581.80 0.7692561
581.90 0.7690087
582.00 0.7687614
582.10 0.7685079
582.20 0.7682439
582.30 0.76798
582.40 0.7677163
582.50 0.7674528
582.60 0.7671893
582.70 0.766926
582.80 0.7666629
582.90 0.7663998
583.00 0.7661369
583.10 0.7658742
583.20 0.7656116
583.30 0.7653491
583.40 0.7650867
583.50 0.7648245
583.60 0.7645624
583.70 0.7643005
583.80 0.7640387
583.90 0.763777
584.00 0.7635154
584.10 0.763254
584.20 0.7629927
584.30 0.7627316
584.40 0.7624706
584.50 0.7622097
584.60 0.761949
584.70 0.7616884
584.80 0.7614279
584.90 0.7611676
585.00 0.7609074
585.10 0.7606473
585.20 0.7604001
585.30 0.7601739
585.40 0.7599478
585.50 0.7597218
585.60 0.759496
585.70 0.7592702
585.80 0.7590445
585.90 0.758819
586.00 0.7585935
586.10 0.7583682
586.20 0.7581303
586.30 0.7578717
586.40 0.7576132
586.50 0.7573549
586.60 0.7570967
586.70 0.7568386
586.80 0.7565807
586.90 0.7563229
587.00 0.7560652
587.10 0.7558077
587.20 0.7555503
587.30 0.755293
587.40 0.7550359
587.50 0.7547789
587.60 0.754522
587.70 0.7542652
587.80 0.7540086
587.90 0.7537521
588.00 0.7534958
588.10 0.7532395
588.20 0.7529834
588.30 0.7527275
588.40 0.7524716
588.50 0.7522159
588.60 0.7519604
588.70 0.7517049
588.80 0.7514496
588.90 0.7511944
589.00 0.7509394
589.10 0.7506845
589.20 0.7504297
589.30 0.750175
589.40 0.7499205
589.50 0.7496661
589.60 0.7494118
589.70 0.7491576
589.80 0.7489036
589.90 0.7486497
590.00 0.748396
590.10 0.7481423
590.20 0.7478888
590.30 0.7476355
590.40 0.7473822
590.50 0.7471291
590.60 0.7468761
590.70 0.7466233
590.80 0.7463705
590.90 0.7461179
591.00 0.7458655
591.10 0.7456131
591.20 0.7453609
591.30 0.7451088
591.40 0.7448569
591.50 0.744605
591.60 0.7443617
591.70 0.744132
591.80 0.7439025
591.90 0.743673
592.00 0.7434437
592.10 0.7432145
592.20 0.7429854
592.30 0.7427564
592.40 0.7425275
592.50 0.7422988
592.60 0.7420701
592.70 0.7418416
592.80 0.7416132
592.90 0.7413849
593.00 0.7411567
593.10 0.7409203
593.20 0.7406705
593.30 0.7404208
593.40 0.7401713
593.50 0.7399219
593.60 0.7396726
593.70 0.7394235
593.80 0.7391745
593.90 0.7389256
594.00 0.7386768
594.10 0.7384281
594.20 0.7381796
594.30 0.7379312
594.40 0.7376829
594.50 0.7374348
594.60 0.7371868
594.70 0.7369389
594.80 0.7366911
594.90 0.7364434
595.00 0.7361959
595.10 0.7359485
595.20 0.7357012
595.30 0.7354541
595.40 0.7352071
595.50 0.7349602
595.60 0.7347134
595.70 0.7344667
595.80 0.7342202
595.90 0.7339738
596.00 0.7337275
596.10 0.7334814
596.20 0.7332353
596.30 0.7329894
596.40 0.7327437
596.50 0.732498
596.60 0.7322525
596.70 0.732007
596.80 0.7317618
596.90 0.7315166
597.00 0.7312715
597.10 0.7310266
597.20 0.7307818
597.30 0.7305372
597.40 0.7302926
597.50 0.7300482
597.60 0.7298039
597.70 0.7295597
597.80 0.7293156
597.90 0.7290717
598.00 0.7288279
598.10 0.7285842
598.20 0.7283406
598.30 0.7280971
598.40 0.7278538
598.50 0.7276106
598.60 0.7273675
598.70 0.7271246
598.80 0.7268817
598.90 0.726639
599.00 0.7263964
599.10 0.7261539
599.20 0.7259116
599.30 0.7256694
599.40 0.7254272
599.50 0.7251852
599.60 0.7249434
599.70 0.7247016
599.80 0.72446
599.90 0.7242185
600.00 0.7239771
600.10 0.7237358
600.20 0.7234947
600.30 0.7232537
600.40 0.7230128
600.50 0.722772
600.60 0.7225313
600.70 0.7222908
600.80 0.7220504
600.90 0.7218101
601.00 0.7215699
601.10 0.7213298
601.20 0.7210899
601.30 0.72085
601.40 0.7206103
601.50 0.7203708
601.60 0.7201313
601.70 0.7198919
601.80 0.7196527
601.90 0.7194136
602.00 0.7191746
602.10 0.7189358
602.20 0.718697
602.30 0.7184584
602.40 0.7182199
602.50 0.7179815
602.60 0.7177432
602.70 0.7173506
602.80 0.7169502
602.90 0.7167124
603.00 0.7164747
603.10 0.7162371
603.20 0.7159996
603.30 0.7157623
603.40 0.7155251
603.50 0.715288
603.60 0.715051
603.70 0.7148141
603.80 0.7145774
603.90 0.7143407
604.00 0.7141042
604.10 0.7138678
604.20 0.7136315
604.30 0.7133954
604.40 0.7131593
604.50 0.7129234
604.60 0.7126876
604.70 0.7124519
604.80 0.7122163
604.90 0.7119808
605.00 0.7117455
605.10 0.7115103
605.20 0.7112751
605.30 0.7110401
605.40 0.7108053
605.50 0.7105705
605.60 0.7103359
605.70 0.7101013
605.80 0.7098669
605.90 0.7096326
606.00 0.7093984
606.10 0.7091644
606.20 0.7089304
606.30 0.7086966
606.40 0.7084629
606.50 0.7082292
606.60 0.7079958
606.70 0.7077624
606.80 0.7075291
606.90 0.707296
607.00 0.707063
607.10 0.70683
607.20 0.7065972
607.30 0.7063646
607.40 0.706132
607.50 0.7058995
607.60 0.7056672
607.70 0.705435
607.80 0.7052029
607.90 0.7049709
608.00 0.704739
608.10 0.7045072
608.20 0.7042756
608.30 0.7040441
608.40 0.7038126
608.50 0.7035813
608.60 0.7033501
608.70 0.703119
608.80 0.7028881
608.90 0.7026572
609.00 0.7024265
609.10 0.7021959
609.20 0.7019654
609.30 0.7017156
609.40 0.7014659
609.50 0.7012164
609.60 0.700967
609.70 0.7007177
609.80 0.7004686
609.90 0.7002195
610.00 0.6999707
610.10 0.6997219
610.20 0.6994732
610.30 0.6992247
610.40 0.6989763
610.50 0.698728
610.60 0.6984799
610.70 0.6982319
610.80 0.697984
610.90 0.6977555
611.00 0.6975271
611.10 0.6972988
611.20 0.6970707
611.30 0.6968426
611.40 0.6966147
611.50 0.6963869
611.60 0.6961592
611.70 0.6959316
611.80 0.6957041
611.90 0.6954767
612.00 0.6952495
612.10 0.6950223
612.20 0.6947953
612.30 0.6945684
612.40 0.6943415
612.50 0.6941148
612.60 0.6938882
612.70 0.6936618
612.80 0.6934354
612.90 0.6932091
613.00 0.692983
613.10 0.6927569
613.20 0.692531
613.30 0.6923052
613.40 0.6920795
613.50 0.6918539
613.60 0.6916284
613.70 0.691403
613.80 0.6911777
613.90 0.6909526
614.00 0.6907275
614.10 0.6905026
614.20 0.6902778
614.30 0.6900531
614.40 0.6897553
614.50 0.6894577
614.60 0.6891603
614.70 0.688863
614.80 0.6886265
614.90 0.6884026
615.00 0.6881787
615.10 0.687955
615.20 0.6877313
615.30 0.6875078
615.40 0.6872844
615.50 0.6870611
615.60 0.6868379
615.70 0.6866148
615.80 0.6863918
615.90 0.686169
616.00 0.6859462
616.10 0.6857235
616.20 0.685501
616.30 0.6852786
616.40 0.6850562
616.50 0.684834
616.60 0.6846119
616.70 0.6843899
616.80 0.684168
616.90 0.6839387
617.00 0.6837096
617.10 0.6834806
617.20 0.6832517
617.30 0.6830229
617.40 0.6827943
617.50 0.6825657
617.60 0.6823373
617.70 0.6821089
617.80 0.6818807
617.90 0.6816526
618.00 0.6814246
618.10 0.6811967
618.20 0.6809689
618.30 0.6807413
618.40 0.6805137
618.50 0.6802863
618.60 0.680059
618.70 0.6798317
618.80 0.6796046
618.90 0.6793776
619.00 0.6791507
619.10 0.678924
619.20 0.6786973
619.30 0.6784708
619.40 0.6782443
619.50 0.678018
619.60 0.6777918
619.70 0.6775657
619.80 0.6773397
619.90 0.6771138
620.00 0.676888
620.10 0.6766624
620.20 0.6764368
620.30 0.6762114
620.40 0.675986
620.50 0.6757608
620.60 0.6755357
620.70 0.6753107
620.80 0.6750858
620.90 0.6748584
621.00 0.6746267
621.10 0.6743951
621.20 0.6741635
621.30 0.6739321
621.40 0.6737008
621.50 0.6734697
621.60 0.6732386
621.70 0.6730076
621.80 0.6727768
621.90 0.6725461
622.00 0.6723155
622.10 0.672085
622.20 0.6718546
622.30 0.6716243
622.40 0.6713941
622.50 0.6711641
622.60 0.6709342
622.70 0.6707043
622.80 0.6704746
622.90 0.670245
623.00 0.6700156
623.10 0.6697862
623.20 0.6695569
623.30 0.6693278
623.40 0.6690988
623.50 0.6688698
623.60 0.668641
623.70 0.6684124
623.80 0.6681838
623.90 0.6679553
624.00 0.6677269
624.10 0.6674987
624.20 0.6672706
624.30 0.6670425
624.40 0.6668146
624.50 0.6665868
624.60 0.6663592
624.70 0.6661316
624.80 0.6659041
624.90 0.6656768
625.00 0.6654495
625.10 0.6652224
625.20 0.6649954
625.30 0.6647685
625.40 0.6645417
625.50 0.664315
625.60 0.6640884
625.70 0.663862
625.80 0.6636356
625.90 0.6634094
626.00 0.6631833
626.10 0.6629572
626.20 0.6627313
626.30 0.6625055
626.40 0.6622798
626.50 0.6620543
626.60 0.6618288
626.70 0.6616034
626.80 0.6613782
626.90 0.6611531
627.00 0.660928
627.10 0.6607044
627.20 0.6604844
627.30 0.6602645
627.40 0.6600447
627.50 0.6598251
627.60 0.6596055
627.70 0.659386
627.80 0.6591666
627.90 0.6589474
628.00 0.6587282
628.10 0.6585092
628.20 0.6582903
628.30 0.6580714
628.40 0.6578527
628.50 0.6576341
628.60 0.6574156
628.70 0.6571972
628.80 0.6569789
628.90 0.6567607
629.00 0.6565426
629.10 0.6563246
629.20 0.6561067
629.30 0.6558889
629.40 0.6556713
629.50 0.6554537
629.60 0.6552362
629.70 0.6550189
629.80 0.6548016
629.90 0.6545845
630.00 0.6543674
630.10 0.6541505
630.20 0.6539337
630.30 0.6537085
630.40 0.6534826
630.50 0.6532569
630.60 0.6530312
630.70 0.6528057
630.80 0.6525803
630.90 0.652355
631.00 0.6521298
631.10 0.6519047
631.20 0.6516797
631.30 0.6514549
631.40 0.6512301
631.50 0.6510055
631.60 0.650781
631.70 0.6505565
631.80 0.6503322
631.90 0.650108
632.00 0.6498839
632.10 0.6496599
632.20 0.6494361
632.30 0.6492123
632.40 0.6489886
632.50 0.6487651
632.60 0.6485416
632.70 0.6483183
632.80 0.6480951
632.90 0.647872
633.00 0.647649
633.10 0.6474261
633.20 0.6472033
633.30 0.6469806
633.40 0.6467632
633.50 0.64655
633.60 0.6463368
633.70 0.6461238
633.80 0.6459109
633.90 0.6456981
634.00 0.6454853
634.10 0.6452727
634.20 0.6450602
634.30 0.6448478
634.40 0.6446355
634.50 0.6444233
634.60 0.6442112
634.70 0.6439992
634.80 0.6437872
634.90 0.6435754
635.00 0.6433637
635.10 0.6431521
635.20 0.6429406
635.30 0.6427292
635.40 0.6425179
635.50 0.6423067
635.60 0.6420957
635.70 0.6418847
635.80 0.6416738
635.90 0.641463
636.00 0.6412523
636.10 0.6410417
636.20 0.6408312
636.30 0.6406208
636.40 0.6404105
636.50 0.6402003
636.60 0.6399822
636.70 0.6397632
636.80 0.6395444
636.90 0.6393257
637.00 0.639107
637.10 0.6388885
637.20 0.6386701
637.30 0.6384518
637.40 0.6382336
637.50 0.6380154
637.60 0.6377975
637.70 0.6375796
637.80 0.6373618
637.90 0.6371441
638.00 0.6369265
638.10 0.636709
638.20 0.6364917
638.30 0.6362744
638.40 0.6360573
638.50 0.6358402
638.60 0.6356233
638.70 0.6354064
638.80 0.6351897
638.90 0.634973
639.00 0.6347565
639.10 0.6345401
639.20 0.6343238
639.30 0.6341076
639.40 0.6338914
639.50 0.6336754
639.60 0.6334595
639.70 0.6332438
639.80 0.6330283
639.90 0.6328128
640.00 0.6325975
640.10 0.6323823
640.20 0.6321672
640.30 0.6319522
640.40 0.6317373
640.50 0.6315225
640.60 0.6313079
640.70 0.6310933
640.80 0.6308788
640.90 0.6306644
641.00 0.6304501
641.10 0.630236
641.20 0.6300219
641.30 0.6298079
641.40 0.6295941
641.50 0.6293803
641.60 0.6291666
641.70 0.6289531
641.80 0.6287396
641.90 0.6285263
642.00 0.628313
642.10 0.6280999
642.20 0.6278868
642.30 0.6276739
642.40 0.627461
642.50 0.6272483
642.60 0.6270357
642.70 0.6268231
642.80 0.6266107
642.90 0.6263984
643.00 0.6261861
643.10 0.625974
643.20 0.625762
643.30 0.62555
643.40 0.6253382
643.50 0.6251265
643.60 0.6249149
643.70 0.6247033
643.80 0.6244919
643.90 0.6242806
644.00 0.6240694
644.10 0.6238583
644.20 0.6236472
644.30 0.6234363
644.40 0.6232255
644.50 0.6230148
644.60 0.6228042
644.70 0.6225937
644.80 0.6223832
644.90 0.6221729
645.00 0.6219627
645.10 0.6217526
645.20 0.6215426
645.30 0.6213327
645.40 0.6211229
645.50 0.6209132
645.60 0.6207036
645.70 0.620494
645.80 0.6202846
645.90 0.6200753
646.00 0.6198661
646.10 0.619657
646.20 0.6194482
646.30 0.6192395
646.40 0.6190308
646.50 0.6188223
646.60 0.6186138
646.70 0.6184055
646.80 0.6181973
646.90 0.6179891
647.00 0.6177811
647.10 0.6175731
647.20 0.6173653
647.30 0.6171575
647.40 0.6169499
647.50 0.6167423
647.60 0.6165349
647.70 0.6163275
647.80 0.6161203
647.90 0.6159131
648.00 0.615706
648.10 0.6154991
648.20 0.6152922
648.30 0.6150855
648.40 0.6148788
648.50 0.6146722
648.60 0.6144658
648.70 0.6142594
648.80 0.6140531
648.90 0.6138469
649.00 0.6136409
649.10 0.6134349
649.20 0.613229
649.30 0.6130232
649.40 0.6128175
649.50 0.612612
649.60 0.6124065
649.70 0.6122011
649.80 0.6119958
649.90 0.6117906
650.00 0.6115855
650.10 0.6113805
650.20 0.6111756
650.30 0.6109708
650.40 0.6107661
650.50 0.6105615
650.60 0.610357
650.70 0.6101526
650.80 0.6099483
650.90 0.609744
651.00 0.6095399
651.10 0.6093359
651.20 0.6091319
651.30 0.6089281
651.40 0.6087244
651.50 0.6085207
651.60 0.6083172
651.70 0.6081137
651.80 0.6079104
651.90 0.6077071
652.00 0.607504
652.10 0.6073009
652.20 0.6070979
652.30 0.606895
652.40 0.6066923
652.50 0.6064896
652.60 0.6062868
652.70 0.6060839
652.80 0.6058812
652.90 0.6056785
653.00 0.605476
653.10 0.6052735
653.20 0.6050712
653.30 0.6048689
653.40 0.6046667
653.50 0.6044647
653.60 0.6042627
653.70 0.6040608
653.80 0.603859
653.90 0.6036573
654.00 0.6034557
654.10 0.6032542
654.20 0.6030528
654.30 0.6028515
654.40 0.6026503
654.50 0.6024492
654.60 0.6022481
654.70 0.6020472
654.80 0.6018463
654.90 0.6016456
655.00 0.601445
655.10 0.6012444
655.20 0.6010439
655.30 0.6008436
655.40 0.6006433
655.50 0.6004431
655.60 0.600243
655.70 0.600043
655.80 0.5998333
655.90 0.5996236
656.00 0.5994141
656.10 0.5992046
656.20 0.5989953
656.30 0.598786
656.40 0.5985769
656.50 0.5983678
656.60 0.5981589
656.70 0.59795
656.80 0.5977413
656.90 0.5975326
657.00 0.5973241
657.10 0.5971156
657.20 0.5969073
657.30 0.596699
657.40 0.5964909
657.50 0.5962828
657.60 0.5960748
657.70 0.595867
657.80 0.5956858
657.90 0.5954866
658.00 0.5952843
658.10 0.595082
658.20 0.5948799
658.30 0.5946778
658.40 0.5944758
658.50 0.594274
658.60 0.5940722
658.70 0.5938705
658.80 0.593669
658.90 0.5934675
659.00 0.5932661
659.10 0.5930733
659.20 0.5928934
659.30 0.5926898
659.40 0.5924863
659.50 0.5922829
659.60 0.5920796
659.70 0.5918764
659.80 0.5916733
659.90 0.5914702
660.00 0.5912673
660.10 0.5910645
660.20 0.5908618
660.30 0.5906591
660.40 0.5904767
660.50 0.5902979
660.60 0.5901192
660.70 0.5899406
660.80 0.5897621
660.90 0.5895572
661.00 0.5893525
661.10 0.5891479
661.20 0.5889434
661.30 0.588739
661.40 0.5885346
661.50 0.5883304
661.60 0.5881262
661.70 0.5879222
661.80 0.5877183
661.90 0.5875407
662.00 0.5873632
662.10 0.5871858
662.20 0.5870085
662.30 0.5868312
662.40 0.5863917
662.50 0.5862147
662.60 0.5860377
662.70 0.5858609
662.80 0.5856841
662.90 0.5855074
663.00 0.5853308
663.10 0.5851543
663.20 0.5849778
663.30 0.5848015
663.40 0.5846252
663.50 0.584449
663.60 0.5842728
663.70 0.5839752
663.80 0.5836778
663.90 0.5834837
664.00 0.583308
664.10 0.5831323
664.20 0.5829568
664.30 0.5827813
664.40 0.5826058
664.50 0.5824305
664.60 0.5822552
664.70 0.5820481
664.80 0.581841
664.90 0.5816341
665.00 0.5814272
665.10 0.5812205
665.20 0.5810138
665.30 0.5808073
665.40 0.5806008
665.50 0.5804215
665.60 0.5802471
665.70 0.5800562
665.80 0.5798479
665.90 0.5796398
666.00 0.5794318
666.10 0.5792239
666.20 0.579016
666.30 0.5788083
666.40 0.5786007
666.50 0.578422
666.60 0.5782485
666.70 0.578075
666.80 0.5779016
666.90 0.5777283
667.00 0.5775551
667.10 0.577382
667.20 0.5772089
667.30 0.5769157
667.40 0.5766226
667.50 0.5764318
667.60 0.5762591
667.70 0.5760865
667.80 0.575914
667.90 0.5757416
668.00 0.5755692
668.10 0.5753969
668.20 0.5752247
668.30 0.5749978
668.40 0.5747614
668.50 0.574525
668.60 0.5742888
668.70 0.5741074
668.80 0.5739357
668.90 0.5737641
669.00 0.5735926
669.10 0.5734212
669.20 0.5732498
669.30 0.5730567
669.40 0.5728598
669.50 0.572663
669.60 0.5724663
669.70 0.5722696
669.80 0.5720731
669.90 0.5718767
670.00 0.5716803
670.10 0.5714841
670.20 0.5712879
670.30 0.5711137
670.40 0.5709433
670.50 0.570773
670.60 0.5706028
670.70 0.5704326
670.80 0.5702396
670.90 0.5700467
671.00 0.5698539
671.10 0.5696611
671.20 0.5694685
671.30 0.5692759
671.40 0.5690835
671.50 0.5688911
671.60 0.5686988
671.70 0.5685066
671.80 0.5683145
671.90 0.5680978
672.00 0.567877
672.10 0.5676562
672.20 0.5674355
672.30 0.567215
672.40 0.5670161
672.50 0.566819
672.60 0.566622
672.70 0.566425
672.80 0.5662282
672.90 0.5660314
673.00 0.5658348
673.10 0.5656382
673.20 0.5654417
673.30 0.5652738
673.40 0.5650843
673.50 0.5648912
673.60 0.5646981
673.70 0.5645051
673.80 0.5643122
673.90 0.5641194
674.00 0.5639266
674.10 0.563734
674.20 0.5635415
674.30 0.563349
674.40 0.5631566
674.50 0.5629644
674.60 0.5627722
674.70 0.5625801
674.80 0.5623881
674.90 0.5621962
675.00 0.5620043
675.10 0.5618126
675.20 0.5616209
675.30 0.5614294
675.40 0.5612422
675.50 0.5610558
675.60 0.5608696
675.70 0.5606834
675.80 0.5604973
675.90 0.5603113
676.00 0.5601254
676.10 0.5599396
676.20 0.5597538
676.30 0.5595682
676.40 0.5593826
676.50 0.5591971
676.60 0.5590117
676.70 0.5588264
676.80 0.5586412
676.90 0.558456
677.00 0.558271
677.10 0.558086
677.20 0.5579011
677.30 0.5577163
677.40 0.5575316
677.50 0.5573469
677.60 0.5571624
677.70 0.5569779
677.80 0.5567935
677.90 0.5566087
678.00 0.556424
678.10 0.5562392
678.20 0.5560546
678.30 0.5558701
678.40 0.5556856
678.50 0.5555013
678.60 0.555317
678.70 0.5551328
678.80 0.5549487
678.90 0.5547646
679.00 0.5545807
679.10 0.5543932
679.20 0.5542042
679.30 0.5540154
679.40 0.5538266
679.50 0.5536379
679.60 0.5534493
679.70 0.5532607
679.80 0.5530723
679.90 0.5528839
680.00 0.5526957
680.10 0.5525075
680.20 0.5523194
680.30 0.5521314
680.40 0.5519435
680.50 0.5517556
680.60 0.5515679
680.70 0.5513802
680.80 0.5511927
680.90 0.5510052
681.00 0.5508178
681.10 0.5506304
681.20 0.5504432
681.30 0.5502561
681.40 0.550069
681.50 0.5498821
681.60 0.5496952
681.70 0.5495084
681.80 0.5493217
681.90 0.549135
682.00 0.5489485
682.10 0.548762
682.20 0.5485757
682.30 0.5483894
682.40 0.5482032
682.50 0.5480171
682.60 0.547831
682.70 0.5476451
682.80 0.5474592
682.90 0.5472735
683.00 0.5470878
683.10 0.5469022
683.20 0.5467167
683.30 0.5465312
683.40 0.5463459
683.50 0.5461606
683.60 0.5459755
683.70 0.5457904
683.80 0.5456054
683.90 0.5454205
684.00 0.5452356
684.10 0.5450509
684.20 0.5448662
684.30 0.5446816
684.40 0.5444971
684.50 0.5443127
684.60 0.5441284
684.70 0.5439441
684.80 0.54376
684.90 0.5435759
685.00 0.5433919
685.10 0.543208
685.20 0.5430242
685.30 0.5428405
685.40 0.5426568
685.50 0.5424732
685.60 0.5422898
685.70 0.5421064
685.80 0.541923
685.90 0.54174
686.00 0.5415571
686.10 0.5413743
686.20 0.5411916
686.30 0.5410089
686.40 0.5408264
686.50 0.5406439
686.60 0.5404615
686.70 0.5402792
686.80 0.540097
686.90 0.5399148
687.00 0.5397327
687.10 0.5395508
687.20 0.5393689
687.30 0.5391871
687.40 0.5390053
687.50 0.5388237
687.60 0.5386421
687.70 0.5384606
687.80 0.5382792
687.90 0.5380979
688.00 0.5379167
688.10 0.5377355
688.20 0.5375545
688.30 0.5373735
688.40 0.5371926
688.50 0.5370118
688.60 0.536831
688.70 0.5366504
688.80 0.5364698
688.90 0.5362893
689.00 0.5361089
689.10 0.5359286
689.20 0.5357483
689.30 0.5355682
689.40 0.5353881
689.50 0.5352081
689.60 0.5350282
689.70 0.5348483
689.80 0.5346686
689.90 0.5344889
690.00 0.5343093
690.10 0.5341298
690.20 0.5339504
690.30 0.533771
690.40 0.5335918
690.50 0.5334126
690.60 0.5332335
690.70 0.5330545
690.80 0.5328755
690.90 0.5326967
691.00 0.5325179
691.10 0.5323392
691.20 0.5321606
691.30 0.5319821
691.40 0.5318036
691.50 0.5316252
691.60 0.5314469
691.70 0.5312687
691.80 0.5310906
691.90 0.5309126
692.00 0.5307346
692.10 0.5305567
692.20 0.5303789
692.30 0.5302012
692.40 0.5300235
692.50 0.529846
692.60 0.5296685
692.70 0.529491
692.80 0.5293132
692.90 0.5291354
693.00 0.5289577
693.10 0.5287801
693.20 0.5286026
693.30 0.5284252
693.40 0.5282479
693.50 0.5280706
693.60 0.5278934
693.70 0.5277163
693.80 0.5275393
693.90 0.5273623
694.00 0.5271855
694.10 0.5270087
694.20 0.526832
694.30 0.5266554
694.40 0.5264788
694.50 0.5263024
694.60 0.526126
694.70 0.5259497
694.80 0.5257734
694.90 0.5255973
695.00 0.5254212
695.10 0.5252452
695.20 0.5250693
695.30 0.5248935
695.40 0.5247178
695.50 0.5245421
695.60 0.5243665
695.70 0.524191
695.80 0.5240156
695.90 0.5238402
696.00 0.5236649
696.10 0.5234897
696.20 0.5233146
696.30 0.5231396
696.40 0.5229646
696.50 0.5227898
696.60 0.5226119
696.70 0.5224334
696.80 0.522255
696.90 0.5220767
697.00 0.5218985
697.10 0.5217204
697.20 0.5215423
697.30 0.5213643
697.40 0.5211864
697.50 0.5210086
697.60 0.5208308
697.70 0.5206531
697.80 0.5204756
697.90 0.520298
698.00 0.5201206
698.10 0.5199433
698.20 0.519766
698.30 0.5195888
698.40 0.5194117
698.50 0.5192347
698.60 0.5190577
698.70 0.5188809
698.80 0.5187041
698.90 0.5185274
699.00 0.5183508
699.10 0.5181971
699.20 0.5180489
699.30 0.5179007
699.40 0.5177527
699.50 0.5176046
699.60 0.5174567
699.70 0.5172772
699.80 0.5170961
699.90 0.5169151
700.00 0.5167342
700.10 0.5165534
700.20 0.5163726
700.30 0.516192
700.40 0.5160114
700.50 0.5158309
700.60 0.5156505
700.70 0.5154701
700.80 0.5152899
700.90 0.5151097
701.00 0.5149296
701.10 0.5147638
701.20 0.5146014
701.30 0.514439
701.40 0.5142767
701.50 0.5141145
701.60 0.5139524
701.70 0.5137903
701.80 0.5136283
701.90 0.5134664
702.00 0.5133046
702.10 0.5131428
702.20 0.5129811
702.30 0.5128195
702.40 0.5126579
702.50 0.5124964
702.60 0.512324
702.70 0.512149
702.80 0.5119741
702.90 0.5117994
703.00 0.5116246
703.10 0.51145
703.20 0.5112755
703.30 0.511101
703.40 0.5109266
703.50 0.5107523
703.60 0.510578
703.70 0.5104039
703.80 0.5102298
703.90 0.5100558
704.00 0.5098818
704.10 0.509708
704.20 0.5095389
704.30 0.509371
704.40 0.5092032
704.50 0.5090355
704.60 0.5088678
704.70 0.5087002
704.80 0.5085327
704.90 0.5083653
705.00 0.5081979
705.10 0.5080306
705.20 0.5078509
705.30 0.5076683
705.40 0.5074858
705.50 0.5073034
705.60 0.5071211
705.70 0.5069389
705.80 0.5067411
705.90 0.5065398
706.00 0.5063386
706.10 0.5061374
706.20 0.5059831
706.30 0.5058399
706.40 0.5056967
706.50 0.5055535
706.60 0.5054104
706.70 0.5052674
706.80 0.5051244
706.90 0.5049815
707.00 0.5047921
707.10 0.5045917
707.20 0.5043915
707.30 0.5041913
707.40 0.5040068
707.50 0.503826
707.60 0.5036453
707.70 0.5034647
707.80 0.5032841
707.90 0.5031037
708.00 0.5029357
708.10 0.5027707
708.20 0.5026058
708.30 0.5024409
708.40 0.5022761
708.50 0.5021114
708.60 0.5019468
708.70 0.5017822
708.80 0.5016177
708.90 0.5014533
709.00 0.5012843
709.10 0.5011143
709.20 0.5009444
709.30 0.5007746
709.40 0.5006048
709.50 0.5004351
709.60 0.5002655
709.70 0.5000959
709.80 0.4999265
709.90 0.4997571
710.00 0.4995878
710.10 0.4994185
710.20 0.4992494
710.30 0.4990803
710.40 0.4989113
710.50 0.4987424
710.60 0.4985843
710.70 0.4984288
710.80 0.4982733
710.90 0.498118
711.00 0.4979627
711.10 0.4978075
711.20 0.4976523
711.30 0.4974972
711.40 0.4973422
711.50 0.4971873
711.60 0.4970324
711.70 0.4968776
711.80 0.4967228
711.90 0.4965681
712.00 0.4964135
712.10 0.4962489
712.20 0.496082
712.30 0.4959152
712.40 0.4957485
712.50 0.4955818
712.60 0.4954152
712.70 0.4952487
712.80 0.4950822
712.90 0.4949159
713.00 0.4947496
713.10 0.4945833
713.20 0.4944172
713.30 0.4942511
713.40 0.4940851
713.50 0.4939192
713.60 0.4937533
713.70 0.4935754
713.80 0.4933729
713.90 0.4931706
714.00 0.4929683
714.10 0.4927961
714.20 0.492631
714.30 0.492466
714.40 0.4923011
714.50 0.4921362
714.60 0.4919714
714.70 0.4918067
714.80 0.4916421
714.90 0.4914775
715.00 0.4913131
715.10 0.4911486
715.20 0.4909843
715.30 0.49082
715.40 0.4906558
715.50 0.4904917
715.60 0.4903277
715.70 0.4901637
715.80 0.4899998
715.90 0.4898359
716.00 0.4896722
716.10 0.4895085
716.20 0.4893449
716.30 0.4891813
716.40 0.4890178
716.50 0.4888544
716.60 0.4886904
716.70 0.4885263
716.80 0.4883623
716.90 0.4881983
717.00 0.4880345
717.10 0.4878706
717.20 0.4877069
717.30 0.4875432
717.40 0.4873796
717.50 0.4872161
717.60 0.4870527
717.70 0.4868893
717.80 0.486726
717.90 0.4865628
718.00 0.4863996
718.10 0.4862365
718.20 0.486074
718.30 0.4859119
718.40 0.4857499
718.50 0.4855879
718.60 0.4854261
718.70 0.4852642
718.80 0.4851025
718.90 0.4849408
719.00 0.4847792
719.10 0.4846177
719.20 0.4844562
719.30 0.4842948
719.40 0.4841335
719.50 0.4839722
719.60 0.4838111
719.70 0.48365
719.80 0.4834889
719.90 0.4833279
720.00 0.483167
720.10 0.4830062
720.20 0.4828455
720.30 0.4826848
720.40 0.4825242
720.50 0.4823636
720.60 0.4822032
720.70 0.48206
720.80 0.4819263
720.90 0.4817694
721.00 0.4816116
721.10 0.4814538
721.20 0.4812961
721.30 0.4811385
721.40 0.480981
721.50 0.4808235
721.60 0.4806661
721.70 0.4805087
721.80 0.4803515
721.90 0.4801943
722.00 0.4800371
722.10 0.4798801
722.20 0.4797231
722.30 0.4795662
722.40 0.4794093
722.50 0.4792525
722.60 0.4790958
722.70 0.4789357
722.80 0.4787738
722.90 0.478612
723.00 0.4784502
723.10 0.4782886
723.20 0.4781269
723.30 0.4779654
723.40 0.4778039
723.50 0.4776425
723.60 0.4774812
723.70 0.47732
723.80 0.4771588
723.90 0.4769977
724.00 0.4768366
724.10 0.4766757
724.20 0.4765159
724.30 0.4763569
724.40 0.476198
724.50 0.4760392
724.60 0.4758804
724.70 0.4757216
724.80 0.475563
724.90 0.4754044
725.00 0.4752459
725.10 0.4750874
725.20 0.4749291
725.30 0.4747708
725.40 0.4746125
725.50 0.4744544
725.60 0.4742963
725.70 0.4741382
725.80 0.4739838
725.90 0.4738314
726.00 0.473679
726.10 0.4735267
726.20 0.4733745
726.30 0.4732223
726.40 0.4730702
726.50 0.4729182
726.60 0.4727662
726.70 0.4726143
726.80 0.472453
726.90 0.4722868
727.00 0.4721205
727.10 0.4719544
727.20 0.4717883
727.30 0.4716223
727.40 0.4714446
727.50 0.4712606
727.60 0.4710767
727.70 0.4708929
727.80 0.4707445
727.90 0.4706152
728.00 0.4704859
728.10 0.4703567
728.20 0.4702275
728.30 0.4700984
728.40 0.4698988
728.50 0.4696613
728.60 0.4694945
728.70 0.4693656
728.80 0.4692368
728.90 0.4691081
729.00 0.4689559
729.10 0.4687912
729.20 0.4686265
729.30 0.468462
729.40 0.4682975
729.50 0.468133
729.60 0.467978
729.70 0.4678282
729.80 0.4676783
729.90 0.4675286
730.00 0.4673789
730.10 0.4672293
730.20 0.4670797
730.30 0.4669303
730.40 0.4667808
730.50 0.4666315
730.60 0.4664787
730.70 0.466324
730.80 0.4661695
730.90 0.466015
731.00 0.4658606
731.10 0.4657062
731.20 0.4655519
731.30 0.4653977
731.40 0.4652436
731.50 0.4650895
731.60 0.4649355
731.70 0.4647815
731.80 0.4646276
731.90 0.4644738
732.00 0.46432
732.10 0.4641664
732.20 0.4640116
732.30 0.4638562
732.40 0.463701
732.50 0.4635458
732.60 0.4633906
732.70 0.4632355
732.80 0.4630805
732.90 0.4629256
733.00 0.4627707
733.10 0.4626159
733.20 0.4624612
733.30 0.4623065
733.40 0.4621519
733.50 0.4619974
733.60 0.4618429
733.70 0.4616819
733.80 0.4615174
733.90 0.4613529
734.00 0.4611885
734.10 0.4610242
734.20 0.46086
734.30 0.4606958
734.40 0.4605317
734.50 0.4603677
734.60 0.4602037
734.70 0.4600398
734.80 0.459876
734.90 0.4597123
735.00 0.4595486
735.10 0.459385
735.20 0.4592215
735.30 0.4590611
735.40 0.4589363
735.50 0.4588115
735.60 0.4586868
735.70 0.4585455
735.80 0.4583954
735.90 0.4582453
736.00 0.4580953
736.10 0.4579453
736.20 0.4577954
736.30 0.4576456
736.40 0.4574958
736.50 0.4573461
736.60 0.4571965
736.70 0.457047
736.80 0.4568975
736.90 0.456748
737.00 0.4565986
737.10 0.4564493
737.20 0.4563001
737.30 0.4561509
737.40 0.4560018
737.50 0.4558527
737.60 0.4557038
737.70 0.4555548
737.80 0.455406
737.90 0.4552572
738.00 0.4551084
738.10 0.4549598
738.20 0.4548094
738.30 0.4546581
738.40 0.4545069
738.50 0.4543557
738.60 0.4542046
738.70 0.4540536
738.80 0.4539026
738.90 0.4537517
739.00 0.4536009
739.10 0.4534501
739.20 0.4532994
739.30 0.4531487
739.40 0.4529982
739.50 0.4528477
739.60 0.4526972
739.70 0.4525468
739.80 0.4523965
739.90 0.4522463
740.00 0.4520961
740.10 0.4519459
740.20 0.4517959
740.30 0.4516459
740.40 0.451496
740.50 0.4513461
740.60 0.4511963
740.70 0.4510466
740.80 0.4508969
740.90 0.4507473
741.00 0.4505977
741.10 0.4504483
741.20 0.4502988
741.30 0.4501495
741.40 0.4500002
741.50 0.449851
741.60 0.4497018
741.70 0.4495527
741.80 0.4494037
741.90 0.4492547
742.00 0.4491058
742.10 0.448957
742.20 0.4488082
742.30 0.4486595
742.40 0.4485109
742.50 0.4483623
742.60 0.4482138
742.70 0.4480584
742.80 0.4478974
742.90 0.4477366
743.00 0.4475757
743.10 0.447415
743.20 0.4472543
743.30 0.4470937
743.40 0.4469332
743.50 0.4467728
743.60 0.4466124
743.70 0.4464549
743.80 0.4463088
743.90 0.4461628
744.00 0.4460168
744.10 0.4458709
744.20 0.4457251
744.30 0.4455793
744.40 0.4454336
744.50 0.445288
744.60 0.4451424
744.70 0.4449969
744.80 0.4448514
744.90 0.444706
745.00 0.4445607
745.10 0.4444154
745.20 0.4442702
745.30 0.444125
745.40 0.44398
745.50 0.4438349
745.60 0.44369
745.70 0.4435451
745.80 0.4434002
745.90 0.4432554
746.00 0.4431107
746.10 0.4429661
746.20 0.4428215
746.30 0.4426769
746.40 0.4425325
746.50 0.4423881
746.60 0.4422437
746.70 0.4420994
746.80 0.4419552
746.90 0.441811
747.00 0.4416669
747.10 0.4415229
747.20 0.4413789
747.30 0.441235
747.40 0.4410911
747.50 0.4409474
747.60 0.4408036
747.70 0.4406599
747.80 0.4405163
747.90 0.4403728
748.00 0.4402293
748.10 0.4400859
748.20 0.4399425
748.30 0.4397992
748.40 0.4396559
748.50 0.4395128
748.60 0.4393696
748.70 0.4392266
748.80 0.4390836
748.90 0.4389406
749.00 0.4387977
749.10 0.4386549
749.20 0.4385122
749.30 0.4383695
749.40 0.4382268
749.50 0.4380842
749.60 0.4379417
749.70 0.4377993
749.80 0.4376569
749.90 0.4375145
750.00 0.4373722
750.10 0.437228
750.20 0.4370788
750.30 0.4369295
750.40 0.4367804
750.50 0.4366313
750.60 0.4364823
750.70 0.4363333
750.80 0.4361844
750.90 0.4360356
751.00 0.4358868
751.10 0.4357381
751.20 0.4355894
751.30 0.4354409
751.40 0.4352923
751.50 0.4351439
751.60 0.4349955
751.70 0.4348472
751.80 0.4346989
751.90 0.4345507
752.00 0.4344026
752.10 0.4342545
752.20 0.4341065
752.30 0.4339585
752.40 0.4338107
752.50 0.4336628
752.60 0.4335151
752.70 0.4333674
752.80 0.4332198
752.90 0.4330722
753.00 0.4329247
753.10 0.4327773
753.20 0.4326299
753.30 0.4324826
753.40 0.4323353
753.50 0.4321881
753.60 0.432041
753.70 0.4318939
753.80 0.4317469
753.90 0.4316042
754.00 0.4314627
754.10 0.4313213
754.20 0.43118
754.30 0.4310387
754.40 0.4308974
754.50 0.4307563
754.60 0.4306151
754.70 0.4304741
754.80 0.4303331
754.90 0.4301922
755.00 0.4300513
755.10 0.4299105
755.20 0.4297697
755.30 0.429629
755.40 0.4294884
755.50 0.4293478
755.60 0.4292073
755.70 0.4290668
755.80 0.4289264
755.90 0.428786
756.00 0.4286458
756.10 0.4285055
756.20 0.4283654
756.30 0.4282253
756.40 0.4280852
756.50 0.4279452
756.60 0.4278053
756.70 0.4276654
756.80 0.4275256
756.90 0.4273859
757.00 0.4272462
757.10 0.4271065
757.20 0.426967
757.30 0.4268274
757.40 0.426688
757.50 0.4265486
757.60 0.4264093
757.70 0.4262703
757.80 0.4261314
757.90 0.4259925
758.00 0.4258536
758.10 0.4257148
758.20 0.4255761
758.30 0.4254375
758.40 0.4252988
758.50 0.4251603
758.60 0.4250218
758.70 0.4248834
758.80 0.424745
758.90 0.4246067
759.00 0.4244684
759.10 0.4243302
759.20 0.4241921
759.30 0.424054
759.40 0.423916
759.50 0.423778
759.60 0.4236401
759.70 0.4235023
759.80 0.4233645
759.90 0.4232268
760.00 0.4230891
760.10 0.4229515
760.20 0.4228139
760.30 0.4226764
760.40 0.422539
760.50 0.4224016
760.60 0.4222642
760.70 0.422127
760.80 0.4219897
760.90 0.4218526
761.00 0.4217155
761.10 0.4215785
761.20 0.4214415
761.30 0.4213045
761.40 0.4211656
761.50 0.4210235
761.60 0.4208815
761.70 0.4207396
761.80 0.4205977
761.90 0.4204559
762.00 0.4203142
762.10 0.4201725
762.20 0.4200308
762.30 0.4198893
762.40 0.4197477
762.50 0.4196063
762.60 0.4194649
762.70 0.4193236
762.80 0.4191823
762.90 0.4190411
763.00 0.4188999
763.10 0.4187588
763.20 0.4186178
763.30 0.4184768
763.40 0.4183359
763.50 0.418195
763.60 0.4180542
763.70 0.4179135
763.80 0.4177728
763.90 0.4176322
764.00 0.4174916
764.10 0.4173511
764.20 0.4172107
764.30 0.4170703
764.40 0.41693
764.50 0.4167897
764.60 0.4166495
764.70 0.4165094
764.80 0.4163693
764.90 0.4162293
765.00 0.4160893
765.10 0.4159494
765.20 0.415811
765.30 0.4156741
765.40 0.4155373
765.50 0.4154005
765.60 0.4152637
765.70 0.415127
765.80 0.4149904
765.90 0.4148538
766.00 0.4147173
766.10 0.4145809
766.20 0.4144445
766.30 0.4143081
766.40 0.4141718
766.50 0.4140356
766.60 0.4138994
766.70 0.4137633
766.80 0.4136273
766.90 0.4134913
767.00 0.4133553
767.10 0.4132194
767.20 0.4130836
767.30 0.4129478
767.40 0.4128121
767.50 0.4126765
767.60 0.4125409
767.70 0.4124053
767.80 0.4122698
767.90 0.4121344
768.00 0.411999
768.10 0.4118637
768.20 0.4117284
768.30 0.4115932
768.40 0.4114581
768.50 0.411323
768.60 0.4111879
768.70 0.4110529
768.80 0.410918
768.90 0.4107832
769.00 0.4106483
769.10 0.4105136
769.20 0.4103789
769.30 0.4102442
769.40 0.4101096
769.50 0.4099751
769.60 0.4098406
769.70 0.4097062
769.80 0.4095719
769.90 0.4094375
770.00 0.4093033
770.10 0.4091691
770.20 0.409035
770.30 0.4089009
770.40 0.4087668
770.50 0.4086329
770.60 0.408499
770.70 0.4083651
770.80 0.4082313
770.90 0.4080975
771.00 0.4079638
771.10 0.4078302
771.20 0.4076966
771.30 0.4075631
771.40 0.4074296
771.50 0.4072962
771.60 0.4071628
771.70 0.4070295
771.80 0.4068963
771.90 0.4067631
772.00 0.40663
772.10 0.4064969
772.20 0.4063638
772.30 0.4062309
772.40 0.4060979
772.50 0.4059651
772.60 0.4058323
772.70 0.4056995
772.80 0.4055668
772.90 0.4054345
773.00 0.4053021
773.10 0.4051699
773.20 0.4050377
773.30 0.4049055
773.40 0.4047734
773.50 0.4046414
773.60 0.4045094
773.70 0.4043775
773.80 0.4042456
773.90 0.4041138
774.00 0.403982
774.10 0.4038503
774.20 0.4037186
774.30 0.403587
774.40 0.4034555
774.50 0.403324
774.60 0.4031925
774.70 0.4030612
774.80 0.4029298
774.90 0.4027985
775.00 0.4026673
775.10 0.4025362
775.20 0.402405
775.30 0.402274
775.40 0.402143
775.50 0.402012
775.60 0.4018811
775.70 0.4017503
775.80 0.4016195
775.90 0.4014888
776.00 0.4013581
776.10 0.4012274
776.20 0.4010969
776.30 0.4009664
776.40 0.4008359
776.50 0.4007055
776.60 0.4005751
776.70 0.4004448
776.80 0.4003146
776.90 0.4001844
777.00 0.4000542
777.10 0.3999241
777.20 0.3997941
777.30 0.3996641
777.40 0.3995342
777.50 0.3994043
777.60 0.3992745
777.70 0.3991447
777.80 0.399015
777.90 0.3988854
778.00 0.3987557
778.10 0.3986262
778.20 0.3984967
778.30 0.3983673
778.40 0.3982379
778.50 0.3981085
778.60 0.3979792
778.70 0.39785
778.80 0.3977208
778.90 0.3975917
779.00 0.3974626
779.10 0.3973336
779.20 0.3972046
779.30 0.3970757
779.40 0.3969469
779.50 0.3968181
779.60 0.3966893
779.70 0.3965606
779.80 0.3964319
779.90 0.3963033
780.00 0.3961748
780.10 0.3960463
780.20 0.3959179
780.30 0.3957895
780.40 0.3956612
780.50 0.3955329
780.60 0.3954038
780.70 0.3952745
780.80 0.3951452
780.90 0.395016
781.00 0.3948868
781.10 0.3947577
781.20 0.3946287
781.30 0.3944997
781.40 0.3943707
781.50 0.3942418
781.60 0.394113
781.70 0.3939842
781.80 0.3938554
781.90 0.3937267
782.00 0.3935981
782.10 0.3934695
782.20 0.393341
782.30 0.3932125
782.40 0.3930841
782.50 0.3929557
782.60 0.3928274
782.70 0.3926991
782.80 0.3925709
782.90 0.3924428
783.00 0.3923147
783.10 0.3921866
783.20 0.3920586
783.30 0.3919307
783.40 0.3918028
783.50 0.3916749
783.60 0.3915471
783.70 0.3914194
783.80 0.3912917
783.90 0.3911641
784.00 0.3910365
784.10 0.3909089
784.20 0.3907815
784.30 0.390654
784.40 0.3905267
784.50 0.3903994
784.60 0.3902715
784.70 0.3901422
784.80 0.390013
784.90 0.3898838
785.00 0.3897547
785.10 0.3896256
785.20 0.3894966
785.30 0.3893677
785.40 0.3892388
785.50 0.3891099
785.60 0.3889811
785.70 0.3888524
785.80 0.3887237
785.90 0.388595
786.00 0.3884665
786.10 0.3883379
786.20 0.3882095
786.30 0.388081
786.40 0.3879527
786.50 0.3878243
786.60 0.3876961
786.70 0.3875679
786.80 0.3874397
786.90 0.3873116
787.00 0.3871835
787.10 0.3870555
787.20 0.3869276
787.30 0.3867997
787.40 0.3866718
787.50 0.386544
787.60 0.3864163
787.70 0.3862886
787.80 0.386161
787.90 0.3860334
788.00 0.3859058
788.10 0.3857784
788.20 0.3856509
788.30 0.3855236
788.40 0.3853971
788.50 0.3852712
788.60 0.3851453
788.70 0.3850195
788.80 0.3848937
788.90 0.384768
789.00 0.3846423
789.10 0.3845167
789.20 0.3843911
789.30 0.3842656
789.40 0.3841401
789.50 0.3840147
789.60 0.3838894
789.70 0.383764
789.80 0.3836388
789.90 0.3835136
790.00 0.3833884
790.10 0.3832633
790.20 0.3831382
790.30 0.3830132
790.40 0.3828883
790.50 0.3827634
790.60 0.3826385
790.70 0.3825137
790.80 0.3823889
790.90 0.3822642
791.00 0.3821396
791.10 0.382015
791.20 0.3818904
791.30 0.3817659
791.40 0.3816415
791.50 0.3815171
791.60 0.3813927
791.70 0.3812684
791.80 0.3811442
791.90 0.38102
792.00 0.3808959
792.10 0.3807718
792.20 0.3806477
792.30 0.3805237
792.40 0.3803998
792.50 0.3802759
792.60 0.380152
792.70 0.3800282
792.80 0.3799045
792.90 0.3797808
793.00 0.3796571
793.10 0.3795335
793.20 0.37941
793.30 0.3792865
793.40 0.379163
793.50 0.3790396
793.60 0.3789163
793.70 0.378793
793.80 0.3786698
793.90 0.3785466
794.00 0.3784234
794.10 0.3783003
794.20 0.3781773
794.30 0.3780543
794.40 0.3779313
794.50 0.3778084
794.60 0.3776856
794.70 0.3775628
794.80 0.37744
794.90 0.3773173
795.00 0.3771947
795.10 0.3770721
795.20 0.3769495
795.30 0.376827
795.40 0.3767046
795.50 0.3765822
795.60 0.3764599
795.70 0.3763376
795.80 0.3762153
795.90 0.3760931
796.00 0.375971
796.10 0.3758488
796.20 0.3757268
796.30 0.375605
796.40 0.3754834
796.50 0.3753617
796.60 0.3752401
796.70 0.3751186
796.80 0.3749971
796.90 0.3748757
797.00 0.3747543
797.10 0.374633
797.20 0.3745117
797.30 0.3743905
797.40 0.3742693
797.50 0.3741482
797.60 0.3740271
797.70 0.373906
797.80 0.3737851
797.90 0.3736641
798.00 0.3735432
798.10 0.3734224
798.20 0.3733016
798.30 0.3731808
798.40 0.3730602
798.50 0.3729395
798.60 0.3728189
798.70 0.3726984
798.80 0.3725779
798.90 0.3724574
799.00 0.372337
799.10 0.3722167
799.20 0.3720963
799.30 0.3719761
799.40 0.3718559
799.50 0.3717357
799.60 0.3716156
799.70 0.3714955
799.80 0.3713755
799.90 0.3712556
800.00 0.3711356
800.10 0.3710158
800.20 0.370896
800.30 0.3707762
800.40 0.3706565
800.50 0.3705368
800.60 0.3704172
800.70 0.3702976
800.80 0.370178
800.90 0.3700586
801.00 0.3699391
801.10 0.3698197
801.20 0.3697004
801.30 0.3695811
801.40 0.3694619
801.50 0.3693427
801.60 0.3692235
801.70 0.3691044
801.80 0.3689854
801.90 0.3688664
802.00 0.3687474
802.10 0.3686285
802.20 0.3685096
802.30 0.3683908
802.40 0.3682721
802.50 0.3681533
802.60 0.3680347
802.70 0.367916
802.80 0.3677975
802.90 0.3676789
803.00 0.3675605
803.10 0.367442
803.20 0.3673237
803.30 0.3672053
803.40 0.367087
803.50 0.3669688
803.60 0.3668506
803.70 0.3667325
803.80 0.3666144
803.90 0.3664963
804.00 0.3663783
804.10 0.3662603
804.20 0.3661415
804.30 0.3660195
804.40 0.3658975
804.50 0.3657756
804.60 0.3656537
804.70 0.3655319
804.80 0.3654101
804.90 0.3652884
805.00 0.3651667
805.10 0.3650451
805.20 0.3649235
805.30 0.364802
805.40 0.3646805
805.50 0.3645591
805.60 0.3644377
805.70 0.3643164
805.80 0.3641951
805.90 0.3640739
806.00 0.3639527
806.10 0.3638316
806.20 0.3637105
806.30 0.3635894
806.40 0.3634684
806.50 0.3633475
806.60 0.3632266
806.70 0.3631058
806.80 0.362985
806.90 0.3628642
807.00 0.3627435
807.10 0.3626229
807.20 0.3625023
807.30 0.3623817
807.40 0.3622612
807.50 0.3621408
807.60 0.3620204
807.70 0.3619
807.80 0.3617797
807.90 0.3616594
808.00 0.3615392
808.10 0.3614191
808.20 0.361299
808.30 0.3611833
808.40 0.3610677
808.50 0.3609521
808.60 0.3608365
808.70 0.360721
808.80 0.3606056
808.90 0.3604902
809.00 0.3603748
809.10 0.3602595
809.20 0.3601442
809.30 0.360029
809.40 0.3599138
809.50 0.3597987
809.60 0.3596836
809.70 0.3595686
809.80 0.3594536
809.90 0.3593386
810.00 0.3592237
810.10 0.3591089
810.20 0.3589941
810.30 0.3588793
810.40 0.3587646
810.50 0.3586499
810.60 0.3585353
810.70 0.3584207
810.80 0.3583062
810.90 0.3581917
811.00 0.3580772
811.10 0.3579628
811.20 0.3578485
811.30 0.3577342
811.40 0.3576199
811.50 0.3575057
811.60 0.3573915
811.70 0.3572774
811.80 0.3571633
811.90 0.3570493
812.00 0.3569353
812.10 0.3568213
812.20 0.3567074
812.30 0.3565925
812.40 0.3564774
812.50 0.3563624
812.60 0.3562473
812.70 0.3561324
812.80 0.3560174
812.90 0.3559026
813.00 0.3557877
813.10 0.3556729
813.20 0.3555582
813.30 0.3554435
813.40 0.3553288
813.50 0.3552142
813.60 0.3550996
813.70 0.3549851
813.80 0.3548706
813.90 0.3547562
814.00 0.3546418
814.10 0.3545275
814.20 0.3544132
814.30 0.354299
814.40 0.3541848
814.50 0.3540706
814.60 0.3539565
814.70 0.3538424
814.80 0.3537284
814.90 0.3536144
815.00 0.3535005
815.10 0.3533866
815.20 0.3532728
815.30 0.353159
815.40 0.3530452
815.50 0.3529315
815.60 0.3528179
815.70 0.3527043
815.80 0.3525907
815.90 0.3524772
816.00 0.3523637
816.10 0.3522503
816.20 0.3521369
816.30 0.3520235
816.40 0.3519102
816.50 0.351797
816.60 0.3516838
816.70 0.3515706
816.80 0.3514575
816.90 0.3513444
817.00 0.3512314
817.10 0.3511184
817.20 0.3510055
817.30 0.3508926
817.40 0.3507797
817.50 0.3506669
817.60 0.3505542
817.70 0.3504415
817.80 0.3503288
817.90 0.3502162
818.00 0.3501036
818.10 0.349991
818.20 0.3498786
818.30 0.3497661
818.40 0.3496537
818.50 0.3495413
818.60 0.349429
818.70 0.3493168
818.80 0.3492045
818.90 0.3490924
819.00 0.3489802
819.10 0.3488681
819.20 0.3487561
819.30 0.3486481
819.40 0.3485429
819.50 0.3484377
819.60 0.3483325
819.70 0.3482274
819.80 0.3481223
819.90 0.3480173
820.00 0.3479123
820.10 0.3478091
820.20 0.3476584
820.30 0.3474996
820.40 0.3473686
820.50 0.3472579
820.60 0.3471472
820.70 0.3470365
820.80 0.3469259
820.90 0.3468153
821.00 0.3467047
821.10 0.3465942
821.20 0.3464838
821.30 0.3463734
821.40 0.346263
821.50 0.3461527
821.60 0.3460424
821.70 0.3459322
821.80 0.345822
821.90 0.3457118
822.00 0.3456017
822.10 0.3454916
822.20 0.3453816
822.30 0.3452716
822.40 0.3451617
822.50 0.3450518
822.60 0.344942
822.70 0.3448322
822.80 0.3447224
822.90 0.3446127
823.00 0.344503
823.10 0.3443934
823.20 0.3442838
823.30 0.3441742
823.40 0.3440647
823.50 0.3439553
823.60 0.3438458
823.70 0.3437365
823.80 0.3436271
823.90 0.3435179
824.00 0.3434086
824.10 0.3432994
824.20 0.3431902
824.30 0.3430811
824.40 0.3429721
824.50 0.342863
824.60 0.342754
824.70 0.3426451
824.80 0.3425362
824.90 0.3424273
825.00 0.3423185
825.10 0.3422097
825.20 0.342101
825.30 0.3419923
825.40 0.3418837
825.50 0.3417751
825.60 0.3416665
825.70 0.341558
825.80 0.3414495
825.90 0.3413411
826.00 0.3412327
826.10 0.3411243
826.20 0.341016
826.30 0.3409057
826.40 0.3407939
826.50 0.3406822
826.60 0.3405706
826.70 0.340459
826.80 0.3403474
826.90 0.3402359
827.00 0.3401244
827.10 0.340013
827.20 0.3399016
827.30 0.3397903
827.40 0.339679
827.50 0.3395677
827.60 0.3394565
827.70 0.3393453
827.80 0.3392342
827.90 0.3391231
828.00 0.3390121
828.10 0.3389011
828.20 0.3387901
828.30 0.3386792
828.40 0.3385684
828.50 0.3384576
828.60 0.3383483
828.70 0.3382403
828.80 0.3381324
828.90 0.3380245
829.00 0.3379167
829.10 0.3378089
829.20 0.3377012
829.30 0.3375935
829.40 0.3374858
829.50 0.3373782
829.60 0.3372706
829.70 0.3371631
829.80 0.3370556
829.90 0.3369482
830.00 0.3368407
830.10 0.3367334
830.20 0.3366261
830.30 0.3365188
830.40 0.3364115
830.50 0.3363043
830.60 0.3361972
830.70 0.3360901
830.80 0.335983
830.90 0.335876
831.00 0.335769
831.10 0.335662
831.20 0.3355551
831.30 0.3354482
831.40 0.3353414
831.50 0.3352346
831.60 0.3351279
831.70 0.3350212
831.80 0.3349146
831.90 0.3348079
832.00 0.3347014
832.10 0.3345948
832.20 0.3344883
832.30 0.3343819
832.40 0.3342755
832.50 0.3341691
832.60 0.3340628
832.70 0.3339565
832.80 0.3338503
832.90 0.3337441
833.00 0.3336379
833.10 0.3335318
833.20 0.3334257
833.30 0.3333197
833.40 0.3332137
833.50 0.3331077
833.60 0.3330018
833.70 0.332896
833.80 0.3327901
833.90 0.3326844
834.00 0.3325786
834.10 0.3324729
834.20 0.3323672
834.30 0.3322616
834.40 0.332156
834.50 0.3320505
834.60 0.331945
834.70 0.3318395
834.80 0.3317341
834.90 0.3316287
835.00 0.3315234
835.10 0.3314181
835.20 0.3313129
835.30 0.3312077
835.40 0.3311025
835.50 0.3309974
835.60 0.3308923
835.70 0.3307872
835.80 0.3306822
835.90 0.3305772
836.00 0.3304723
836.10 0.3303674
836.20 0.3302626
836.30 0.3301578
836.40 0.330053
836.50 0.3299483
836.60 0.3298436
836.70 0.329739
836.80 0.3296344
836.90 0.3295286
837.00 0.3294224
837.10 0.3293162
837.20 0.3292101
837.30 0.329104
837.40 0.3289979
837.50 0.3288919
837.60 0.3287859
837.70 0.32868
837.80 0.3285741
837.90 0.3284682
838.00 0.3283624
838.10 0.3282566
838.20 0.3281509
838.30 0.3280452
838.40 0.3279395
838.50 0.3278339
838.60 0.3277284
838.70 0.3276228
838.80 0.3275174
838.90 0.3274119
839.00 0.3273065
839.10 0.3272011
839.20 0.3270958
839.30 0.3269905
839.40 0.3268853
839.50 0.3267801
839.60 0.3266749
839.70 0.3265698
839.80 0.3264647
839.90 0.3263597
840.00 0.3262547
840.10 0.3261497
840.20 0.3260448
840.30 0.32594
840.40 0.3258351
840.50 0.3257303
840.60 0.3256256
840.70 0.3255209
840.80 0.3254162
840.90 0.3253116
841.00 0.325207
841.10 0.3251024
841.20 0.3249979
841.30 0.3248935
841.40 0.3247891
841.50 0.3246847
841.60 0.3245803
841.70 0.324476
841.80 0.3243718
841.90 0.3242676
842.00 0.3241634
842.10 0.3240592
842.20 0.3239551
842.30 0.3238511
842.40 0.3237471
842.50 0.3236431
842.60 0.3235392
842.70 0.3234353
842.80 0.3233314
842.90 0.3232276
843.00 0.3231238
843.10 0.3230201
843.20 0.3229164
843.30 0.3228127
843.40 0.3227091
843.50 0.3226055
843.60 0.322502
843.70 0.3223985
843.80 0.322295
843.90 0.3221916
844.00 0.3220882
844.10 0.3219849
844.20 0.3218816
844.30 0.3217784
844.40 0.3216751
844.50 0.321572
844.60 0.3214688
844.70 0.3213657
844.80 0.3212627
844.90 0.3211597
845.00 0.3210567
845.10 0.3209537
845.20 0.3208509
845.30 0.3207502
845.40 0.3206495
845.50 0.3205489
845.60 0.3204483
845.70 0.3203478
845.80 0.3202473
845.90 0.3201468
846.00 0.3200464
846.10 0.319946
846.20 0.3198457
846.30 0.3197454
846.40 0.3196451
846.50 0.3195449
846.60 0.3194447
846.70 0.3193445
846.80 0.3192444
846.90 0.3191444
847.00 0.3190443
847.10 0.3189443
847.20 0.3188444
847.30 0.3187444
847.40 0.3186446
847.50 0.3185447
847.60 0.3184449
847.70 0.3183451
847.80 0.3182454
847.90 0.3181457
848.00 0.3180461
848.10 0.3179465
848.20 0.3178469
848.30 0.3177473
848.40 0.3176478
848.50 0.3175484
848.60 0.317449
848.70 0.3173496
848.80 0.3172502
848.90 0.3171509
849.00 0.3170516
849.10 0.3169524
849.20 0.3168532
849.30 0.3167541
849.40 0.3166549
849.50 0.3165558
849.60 0.3164568
849.70 0.3163578
849.80 0.3162588
849.90 0.3161599
850.00 0.316061
850.10 0.3159621
850.20 0.3158633
850.30 0.3157645
850.40 0.3156658
850.50 0.3155671
850.60 0.3154684
850.70 0.3153698
850.80 0.3152712
850.90 0.3151727
851.00 0.3150741
851.10 0.3149757
851.20 0.3148772
851.30 0.3147788
851.40 0.3146805
851.50 0.3145821
851.60 0.3144838
851.70 0.3143856
851.80 0.3142874
851.90 0.3141892
852.00 0.314091
852.10 0.3139929
852.20 0.3138949
852.30 0.3137968
852.40 0.3136988
852.50 0.3136009
852.60 0.313503
852.70 0.3134051
852.80 0.3133073
852.90 0.3132094
853.00 0.3131117
853.10 0.3130139
853.20 0.3129163
853.30 0.3128186
853.40 0.312721
853.50 0.3126234
853.60 0.3125259
853.70 0.3124276
853.80 0.3123285
853.90 0.3122294
854.00 0.3121304
854.10 0.3120315
854.20 0.3119325
854.30 0.3118336
854.40 0.3117348
854.50 0.311636
854.60 0.3115372
854.70 0.3114385
854.80 0.3113398
854.90 0.3112411
855.00 0.3111425
855.10 0.3110439
855.20 0.3109453
855.30 0.3108468
855.40 0.3107483
855.50 0.3106499
855.60 0.3105515
855.70 0.3104531
855.80 0.3103548
855.90 0.3102565
856.00 0.3101582
856.10 0.31006
856.20 0.3099618
856.30 0.3098637
856.40 0.3097656
856.50 0.3096675
856.60 0.3095695
856.70 0.3094715
856.80 0.3093736
856.90 0.3092756
857.00 0.3091778
857.10 0.3090799
857.20 0.3089821
857.30 0.3088843
857.40 0.3087866
857.50 0.3086889
857.60 0.3085913
857.70 0.3084936
857.80 0.3083961
857.90 0.3082985
858.00 0.308201
858.10 0.3081035
858.20 0.3080061
858.30 0.3079087
858.40 0.3078113
858.50 0.307714
858.60 0.3076167
858.70 0.3075195
858.80 0.3074223
858.90 0.3073251
859.00 0.307228
859.10 0.3071309
859.20 0.3070338
859.30 0.3069368
859.40 0.3068398
859.50 0.3067428
859.60 0.3066459
859.70 0.306549
859.80 0.3064522
859.90 0.3063554
860.00 0.3062586
860.10 0.3061619
860.20 0.3060652
860.30 0.3059685
860.40 0.3058719
860.50 0.3057753
860.60 0.3056788
860.70 0.3055822
860.80 0.3054858
860.90 0.3053893
861.00 0.3052929
861.10 0.3051966
861.20 0.3051002
861.30 0.3050039
861.40 0.3049077
861.50 0.3048115
861.60 0.3047153
861.70 0.3046191
861.80 0.304523
861.90 0.3044269
862.00 0.3043309
862.10 0.3042349
862.20 0.3041387
862.30 0.3040413
862.40 0.3039438
862.50 0.3038464
862.60 0.3037491
862.70 0.3036517
862.80 0.3035545
862.90 0.3034572
863.00 0.30336
863.10 0.3032628
863.20 0.3031657
863.30 0.3030686
863.40 0.3029715
863.50 0.3028745
863.60 0.3027775
863.70 0.3026805
863.80 0.3025836
863.90 0.3024867
864.00 0.3023899
864.10 0.3022931
864.20 0.3021963
864.30 0.3020996
864.40 0.3020029
864.50 0.3019062
864.60 0.3018096
864.70 0.301713
864.80 0.3016165
864.90 0.3015199
865.00 0.3014235
865.10 0.301327
865.20 0.3012306
865.30 0.3011342
865.40 0.3010379
865.50 0.3009416
865.60 0.3008454
865.70 0.3007491
865.80 0.3006529
865.90 0.3005568
866.00 0.3004607
866.10 0.3003646
866.20 0.3002686
866.30 0.3001726
866.40 0.3000766
866.50 0.2999807
866.60 0.2998848
866.70 0.2997889
866.80 0.2996931
866.90 0.2995973
867.00 0.2995015
867.10 0.2994058
867.20 0.2993101
867.30 0.2992145
867.40 0.2991189
867.50 0.2990233
867.60 0.2989278
867.70 0.2988323
867.80 0.2987368
867.90 0.2986414
868.00 0.298546
868.10 0.2984507
868.20 0.2983553
868.30 0.2982601
868.40 0.2981648
868.50 0.2980696
868.60 0.2979744
868.70 0.2978793
868.80 0.2977842
868.90 0.2976891
869.00 0.2975941
869.10 0.2974991
869.20 0.2974041
869.30 0.2973092
869.40 0.2972143
869.50 0.2971195
869.60 0.2970247
869.70 0.2969299
869.80 0.2968351
869.90 0.2967404
870.00 0.2966458
870.10 0.2965511
870.20 0.2964565
870.30 0.296362
870.40 0.2962674
870.50 0.2961729
870.60 0.2960785
870.70 0.295984
870.80 0.2958897
870.90 0.2957971
871.00 0.2957048
871.10 0.2956125
871.20 0.2955203
871.30 0.2954281
871.40 0.2953359
871.50 0.2952437
871.60 0.2951516
871.70 0.2950596
871.80 0.2949675
871.90 0.2948755
872.00 0.2947836
872.10 0.2946916
872.20 0.2945997
872.30 0.2945079
872.40 0.294416
872.50 0.2943242
872.60 0.2942325
872.70 0.2941407
872.80 0.294049
872.90 0.2939574
873.00 0.2938658
873.10 0.2937742
873.20 0.2936826
873.30 0.2935911
873.40 0.2934996
873.50 0.2934082
873.60 0.2933167
873.70 0.2932253
873.80 0.293134
873.90 0.2930427
874.00 0.2929514
874.10 0.2928601
874.20 0.2927689
874.30 0.2926778
874.40 0.2925866
874.50 0.2924955
874.60 0.2924044
874.70 0.2923134
874.80 0.2922224
874.90 0.2921314
875.00 0.2920404
875.10 0.2919495
875.20 0.2918587
875.30 0.2917678
875.40 0.291677
875.50 0.2915862
875.60 0.2914955
875.70 0.2914048
875.80 0.2913141
875.90 0.2912235
876.00 0.2911329
876.10 0.2910423
876.20 0.2909518
876.30 0.2908613
876.40 0.2907708
876.50 0.2906804
876.60 0.29059
876.70 0.2904996
876.80 0.2904093
876.90 0.290319
877.00 0.2902287
877.10 0.2901385
877.20 0.2900483
877.30 0.2899581
877.40 0.289868
877.50 0.2897779
877.60 0.2896878
877.70 0.2895978
877.80 0.2895078
877.90 0.2894178
878.00 0.2893279
878.10 0.289238
878.20 0.2891481
878.30 0.2890583
878.40 0.2889685
878.50 0.2888787
878.60 0.288789
878.70 0.2886993
878.80 0.2886096
878.90 0.28852
879.00 0.2884304
879.10 0.2883408
879.20 0.2882513
879.30 0.2881618
879.40 0.2880723
879.50 0.2879829
879.60 0.2878937
879.70 0.2878046
879.80 0.2877155
879.90 0.2876264
880.00 0.2875374
880.10 0.2874484
880.20 0.2873594
880.30 0.2872705
880.40 0.2871816
880.50 0.2870927
880.60 0.2870039
880.70 0.2869151
880.80 0.2868264
880.90 0.2867376
881.00 0.2866489
881.10 0.2865603
881.20 0.2864716
881.30 0.286383
881.40 0.2862945
881.50 0.2862059
881.60 0.2861174
881.70 0.286029
881.80 0.2859405
881.90 0.2858521
882.00 0.2857638
882.10 0.2856754
882.20 0.2855871
882.30 0.2854989
882.40 0.2854106
882.50 0.2853224
882.60 0.2852342
882.70 0.2851461
882.80 0.285058
882.90 0.2849699
883.00 0.2848819
883.10 0.2847939
883.20 0.2847059
883.30 0.2846179
883.40 0.28453
883.50 0.2844422
883.60 0.2843543
883.70 0.2842665
883.80 0.2841787
883.90 0.284091
884.00 0.2840004
884.10 0.2839094
884.20 0.2838184
884.30 0.2837274
884.40 0.2836365
884.50 0.2835456
884.60 0.2834547
884.70 0.2833639
884.80 0.2832731
884.90 0.2831823
885.00 0.2830916
885.10 0.2830009
885.20 0.2829102
885.30 0.2828196
885.40 0.282729
885.50 0.2826384
885.60 0.2825479
885.70 0.2824574
885.80 0.2823669
885.90 0.2822765
886.00 0.2821861
886.10 0.2820957
886.20 0.2820054
886.30 0.2819151
886.40 0.2818248
886.50 0.2817346
886.60 0.2816444
886.70 0.2815542
886.80 0.2814641
886.90 0.281374
887.00 0.2812839
887.10 0.2811939
887.20 0.2811039
887.30 0.2810139
887.40 0.280924
887.50 0.2808341
887.60 0.2807443
887.70 0.2806544
887.80 0.2805646
887.90 0.2804749
888.00 0.2803851
888.10 0.2802955
888.20 0.2802058
888.30 0.2801162
888.40 0.2800297
888.50 0.2799436
888.60 0.2798577
888.70 0.2797717
888.80 0.2796858
888.90 0.2795999
889.00 0.279514
889.10 0.2794282
889.20 0.2793424
889.30 0.2792567
889.40 0.2791709
889.50 0.2790852
889.60 0.2789996
889.70 0.2789139
889.80 0.2788283
889.90 0.2787428
890.00 0.2786572
890.10 0.2785717
890.20 0.2784862
890.30 0.2784008
890.40 0.2783154
890.50 0.27823
890.60 0.2781446
890.70 0.2780593
890.80 0.277974
890.90 0.2778888
891.00 0.2778035
891.10 0.2777183
891.20 0.2776332
891.30 0.277548
891.40 0.2774629
891.50 0.2773779
891.60 0.2772928
891.70 0.2772078
891.80 0.2771228
891.90 0.2770379
892.00 0.276953
892.10 0.2768681
892.20 0.2767832
892.30 0.2766984
892.40 0.2766136
892.50 0.2765289
892.60 0.2764441
892.70 0.2763594
892.80 0.2762748
892.90 0.2761901
893.00 0.2761055
893.10 0.276021
893.20 0.2759364
893.30 0.2758519
893.40 0.2757674
893.50 0.275683
893.60 0.2755986
893.70 0.2755142
893.80 0.2754298
893.90 0.2753455
894.00 0.2752612
894.10 0.2751769
894.20 0.2750927
894.30 0.2750085
894.40 0.2749243
894.50 0.2748402
894.60 0.2747561
894.70 0.274672
894.80 0.2745879
894.90 0.2745039
895.00 0.2744199
895.10 0.274336
895.20 0.274252
895.30 0.2741681
895.40 0.2740843
895.50 0.2740004
895.60 0.2739166
895.70 0.2738329
895.80 0.2737491
895.90 0.2736654
896.00 0.2735817
896.10 0.2734981
896.20 0.2734144
896.30 0.2733309
896.40 0.2732473
896.50 0.2731638
896.60 0.2730803
896.70 0.2729968
896.80 0.2729134
896.90 0.27283
897.00 0.2727466
897.10 0.2726632
897.20 0.2725798
897.30 0.2724935
897.40 0.2724073
897.50 0.2723211
897.60 0.272235
897.70 0.2721489
897.80 0.2720628
897.90 0.2719767
898.00 0.2718907
898.10 0.2718047
898.20 0.2717187
898.30 0.2716328
898.40 0.2715469
898.50 0.271461
898.60 0.2713752
898.70 0.2712894
898.80 0.2712036
898.90 0.2711178
899.00 0.2710321
899.10 0.2709464
899.20 0.2708608
899.30 0.2707752
899.40 0.2706896
899.50 0.270604
899.60 0.2705185
899.70 0.270433
899.80 0.2703475
899.90 0.2702621
900.00 0.2701767
900.10 0.2700913
900.20 0.270006
900.30 0.2699207
900.40 0.2698354
900.50 0.2697502
900.60 0.269665
900.70 0.2695798
900.80 0.2694946
900.90 0.2694095
901.00 0.2693244
901.10 0.2692394
901.20 0.2691543
901.30 0.2690693
901.40 0.2689844
901.50 0.2688995
901.60 0.2688146
901.70 0.2687302
901.80 0.2686486
901.90 0.2685669
902.00 0.2684853
902.10 0.2684037
902.20 0.2683221
902.30 0.2682406
902.40 0.2681591
902.50 0.2680776
902.60 0.2679962
902.70 0.2679147
902.80 0.2678334
902.90 0.267752
903.00 0.2676707
903.10 0.2675894
903.20 0.2675081
903.30 0.2674269
903.40 0.2673456
903.50 0.2672645
903.60 0.2671833
903.70 0.2671022
903.80 0.2670211
903.90 0.26694
904.00 0.266859
904.10 0.266778
904.20 0.266697
904.30 0.2666161
904.40 0.2665351
904.50 0.2664542
904.60 0.2663734
904.70 0.2662926
904.80 0.2662118
904.90 0.266131
905.00 0.2660502
905.10 0.2659695
905.20 0.2658888
905.30 0.2658082
905.40 0.2657276
905.50 0.265647
905.60 0.2655664
905.70 0.2654859
905.80 0.2654053
905.90 0.2653249
906.00 0.2652444
906.10 0.265164
906.20 0.2650827
906.30 0.2649994
906.40 0.2649162
906.50 0.264833
906.60 0.2647499
906.70 0.2646668
906.80 0.2645837
906.90 0.2645006
907.00 0.2644176
907.10 0.2643346
907.20 0.2642516
907.30 0.2641687
907.40 0.2640858
907.50 0.2640029
907.60 0.2639201
907.70 0.2638372
907.80 0.2637545
907.90 0.2636717
908.00 0.263589
908.10 0.2635063
908.20 0.2634236
908.30 0.263341
908.40 0.2632584
908.50 0.2631758
908.60 0.2630932
908.70 0.2630107
908.80 0.2629282
908.90 0.2628458
909.00 0.2627633
909.10 0.2626809
909.20 0.2625986
909.30 0.2625162
909.40 0.2624339
909.50 0.2623517
909.60 0.2622694
909.70 0.2621872
909.80 0.262105
909.90 0.2620228
910.00 0.2619407
910.10 0.2618586
910.20 0.2617765
910.30 0.2616945
910.40 0.2616125
910.50 0.2615305
910.60 0.2614486
910.70 0.2613667
910.80 0.2612878
910.90 0.261209
911.00 0.2611303
911.10 0.2610515
911.20 0.2609728
911.30 0.2608941
911.40 0.2608155
911.50 0.2607368
911.60 0.2606582
911.70 0.2605797
911.80 0.2605011
911.90 0.2604226
912.00 0.2603441
912.10 0.2602656
912.20 0.2601872
912.30 0.2601088
912.40 0.2600304
912.50 0.2599521
912.60 0.2598738
912.70 0.2597955
912.80 0.2597172
912.90 0.259639
913.00 0.2595607
913.10 0.2594826
913.20 0.2594044
913.30 0.2593263
913.40 0.2592482
913.50 0.2591701
913.60 0.2590921
913.70 0.2590141
913.80 0.2589361
913.90 0.2588581
914.00 0.2587802
914.10 0.2587023
914.20 0.2586244
914.30 0.2585466
914.40 0.2584688
914.50 0.258391
914.60 0.2583132
914.70 0.2582355
914.80 0.2581578
914.90 0.2580801
915.00 0.2580024
915.10 0.2579248
915.20 0.2578472
915.30 0.2577677
915.40 0.2576874
915.50 0.2576071
915.60 0.2575268
915.70 0.2574465
915.80 0.2573663
915.90 0.2572861
916.00 0.257206
916.10 0.2571258
916.20 0.2570457
916.30 0.2569657
916.40 0.2568856
916.50 0.2568056
916.60 0.2567256
916.70 0.2566457
916.80 0.2565657
916.90 0.2564858
917.00 0.256406
917.10 0.2563261
917.20 0.2562463
917.30 0.2561665
917.40 0.2560868
917.50 0.256007
917.60 0.2559273
917.70 0.2558477
917.80 0.255768
917.90 0.2556884
918.00 0.2556088
918.10 0.2555293
918.20 0.2554498
918.30 0.2553703
918.40 0.2552908
918.50 0.2552113
918.60 0.2551319
918.70 0.2550525
918.80 0.2549732
918.90 0.2548939
919.00 0.2548146
919.10 0.2547353
919.20 0.254656
919.30 0.2545768
919.40 0.2544976
919.50 0.2544185
919.60 0.2543394
919.70 0.2542603
919.80 0.2541812
919.90 0.2541049
920.00 0.2540289
920.10 0.2539529
920.20 0.2538769
920.30 0.2538009
920.40 0.253725
920.50 0.2536491
920.60 0.2535732
920.70 0.2534974
920.80 0.2534215
920.90 0.2533457
921.00 0.25327
921.10 0.2531942
921.20 0.2531185
921.30 0.2530428
921.40 0.2529671
921.50 0.2528915
921.60 0.2528159
921.70 0.2527403
921.80 0.2526647
921.90 0.2525892
922.00 0.2525137
922.10 0.2524382
922.20 0.2523628
922.30 0.2522874
922.40 0.252212
922.50 0.2521366
922.60 0.2520612
922.70 0.2519859
922.80 0.2519106
922.90 0.2518354
923.00 0.2517601
923.10 0.2516849
923.20 0.2516097
923.30 0.2515346
923.40 0.2514595
923.50 0.2513843
923.60 0.2513093
923.70 0.2512342
923.80 0.2511592
923.90 0.2510842
924.00 0.2510092
924.10 0.2509343
924.20 0.2508594
924.30 0.2507845
924.40 0.2507091
924.50 0.2506316
924.60 0.2505541
924.70 0.2504766
924.80 0.2503991
924.90 0.2503217
925.00 0.2502443
925.10 0.2501669
925.20 0.2500895
925.30 0.2500122
925.40 0.2499349
925.50 0.2498576
925.60 0.2497804
925.70 0.2497032
925.80 0.249626
925.90 0.2495488
926.00 0.2494717
926.10 0.2493946
926.20 0.2493175
926.30 0.2492405
926.40 0.2491634
926.50 0.2490864
926.60 0.2490095
926.70 0.2489325
926.80 0.2488556
926.90 0.2487787
927.00 0.2487019
927.10 0.248625
927.20 0.2485482
927.30 0.2484715
927.40 0.2483947
927.50 0.248318
927.60 0.2482413
927.70 0.2481646
927.80 0.248088
927.90 0.2480114
928.00 0.2479348
928.10 0.2478582
928.20 0.2477817
928.30 0.2477052
928.40 0.2476287
928.50 0.2475523
928.60 0.2474759
928.70 0.2473995
928.80 0.2473231
928.90 0.2472468
929.00 0.2471704
929.10 0.2470942
929.20 0.2470179
929.30 0.2469417
929.40 0.2468655
929.50 0.2467893
929.60 0.2467131
929.70 0.246637
929.80 0.2465609
929.90 0.2464848
930.00 0.2464088
930.10 0.2463328
930.20 0.2462568
930.30 0.2461808
930.40 0.2461049
930.50 0.246029
930.60 0.2459531
930.70 0.2458773
930.80 0.2458014
930.90 0.2457256
931.00 0.2456499
931.10 0.2455741
931.20 0.2454984
931.30 0.2454227
931.40 0.245347
931.50 0.2452714
931.60 0.2451958
931.70 0.2451202
931.80 0.2450446
931.90 0.2449691
932.00 0.2448936
932.10 0.2448181
932.20 0.2447427
932.30 0.2446672
932.40 0.2445918
932.50 0.2445165
932.60 0.2444411
932.70 0.2443658
932.80 0.2442905
932.90 0.2442153
933.00 0.24414
933.10 0.2440648
933.20 0.2439896
933.30 0.2439145
933.40 0.2438393
933.50 0.2437642
933.60 0.2436891
933.70 0.2436153
933.80 0.2435419
933.90 0.2434686
934.00 0.2433952
934.10 0.2433219
934.20 0.2432486
934.30 0.2431754
934.40 0.2431022
934.50 0.2430289
934.60 0.2429558
934.70 0.2428826
934.80 0.2428095
934.90 0.2427364
935.00 0.2426633
935.10 0.2425903
935.20 0.2425172
935.30 0.2424442
935.40 0.2423713
935.50 0.2422983
935.60 0.2422254
935.70 0.2421525
935.80 0.2420796
935.90 0.2420068
936.00 0.241934
936.10 0.2418612
936.20 0.2417884
936.30 0.2417156
936.40 0.2416429
936.50 0.2415702
936.60 0.2414976
936.70 0.2414249
936.80 0.2413523
936.90 0.2412797
937.00 0.2412072
937.10 0.2411346
937.20 0.2410621
937.30 0.2409896
937.40 0.2409172
937.50 0.2408447
937.60 0.2407723
937.70 0.2406999
937.80 0.2406276
937.90 0.2405552
938.00 0.2404829
938.10 0.2404106
938.20 0.2403384
938.30 0.2402661
938.40 0.2401939
938.50 0.2401217
938.60 0.2400496
938.70 0.2399774
938.80 0.2399053
938.90 0.2398333
939.00 0.2397612
939.10 0.2396892
939.20 0.2396172
939.30 0.2395452
939.40 0.2394732
939.50 0.2394013
939.60 0.2393294
939.70 0.2392575
939.80 0.2391856
939.90 0.2391138
940.00 0.239042
940.10 0.2389702
940.20 0.2388985
940.30 0.2388267
940.40 0.238755
940.50 0.2386834
940.60 0.2386117
940.70 0.2385401
940.80 0.2384685
940.90 0.2383969
941.00 0.2383253
941.10 0.2382538
941.20 0.2381823
941.30 0.2381108
941.40 0.2380394
941.50 0.2379679
941.60 0.2378965
941.70 0.2378252
941.80 0.2377538
941.90 0.2376825
942.00 0.2376112
942.10 0.2375399
942.20 0.2374686
942.30 0.2373974
942.40 0.2373262
942.50 0.237255
942.60 0.2371839
942.70 0.2371127
942.80 0.2370416
942.90 0.2369705
943.00 0.236899
943.10 0.2368269
943.20 0.2367547
943.30 0.2366825
943.40 0.2366104
943.50 0.2365383
943.60 0.2364662
943.70 0.2363942
943.80 0.2363222
943.90 0.2362502
944.00 0.2361782
944.10 0.2361063
944.20 0.2360344
944.30 0.2359625
944.40 0.2358906
944.50 0.2358188
944.60 0.2357469
944.70 0.2356751
944.80 0.2356034
944.90 0.2355316
945.00 0.2354599
945.10 0.2353882
945.20 0.2353166
945.30 0.2352449
945.40 0.2351733
945.50 0.2351017
945.60 0.2350301
945.70 0.2349586
945.80 0.2348871
945.90 0.2348156
946.00 0.2347441
946.10 0.2346727
946.20 0.2346013
946.30 0.2345299
946.40 0.2344585
946.50 0.2343872
946.60 0.2343158
946.70 0.2342445
946.80 0.2341733
946.90 0.234102
947.00 0.2340308
947.10 0.2339596
947.20 0.2338885
947.30 0.2338173
947.40 0.2337462
947.50 0.2336751
947.60 0.233604
947.70 0.233533
947.80 0.233462
947.90 0.233391
948.00 0.23332
948.10 0.2332491
948.20 0.2331781
948.30 0.2331072
948.40 0.2330364
948.50 0.2329655
948.60 0.2328947
948.70 0.2328239
948.80 0.2327531
948.90 0.2326824
949.00 0.2326117
949.10 0.232541
949.20 0.2324703
949.30 0.2323996
949.40 0.232329
949.50 0.2322584
949.60 0.2321878
949.70 0.2321173
949.80 0.2320468
949.90 0.2319763
950.00 0.2319058
950.10 0.2318353
950.20 0.2317649
950.30 0.2316945
950.40 0.2316241
950.50 0.2315538
950.60 0.2314834
950.70 0.2314131
950.80 0.2313428
950.90 0.2312726
951.00 0.2312024
951.10 0.2311321
951.20 0.231062
951.30 0.2309918
951.40 0.2309217
951.50 0.2308516
951.60 0.2307815
951.70 0.2307114
951.80 0.2306414
951.90 0.2305714
952.00 0.2305014
952.10 0.2304314
952.20 0.2303615
952.30 0.2302915
952.40 0.2302217
952.50 0.230152
952.60 0.2300824
952.70 0.2300128
952.80 0.2299432
952.90 0.2298736
953.00 0.2298041
953.10 0.2297346
953.20 0.2296651
953.30 0.2295956
953.40 0.2295262
953.50 0.2294568
953.60 0.2293874
953.70 0.229318
953.80 0.2292487
953.90 0.2291794
954.00 0.2291101
954.10 0.2290408
954.20 0.2289716
954.30 0.2289024
954.40 0.2288332
954.50 0.228764
954.60 0.2286948
954.70 0.2286257
954.80 0.2285566
954.90 0.2284875
955.00 0.2284185
955.10 0.2283494
955.20 0.2282804
955.30 0.2282115
955.40 0.2281425
955.50 0.2280736
955.60 0.2280047
955.70 0.2279358
955.80 0.2278669
955.90 0.2277981
956.00 0.2277293
956.10 0.2276605
956.20 0.2275917
956.30 0.227523
956.40 0.2274542
956.50 0.2273855
956.60 0.2273169
956.70 0.2272482
956.80 0.2271796
956.90 0.227111
957.00 0.2270424
957.10 0.2269739
957.20 0.2269053
957.30 0.2268368
957.40 0.2267683
957.50 0.2266999
957.60 0.2266314
957.70 0.226563
957.80 0.2264946
957.90 0.2264263
958.00 0.2263579
958.10 0.2262896
958.20 0.2262213
958.30 0.2261531
958.40 0.2260848
958.50 0.2260166
958.60 0.2259484
958.70 0.2258802
958.80 0.2258121
958.90 0.2257439
959.00 0.2256758
959.10 0.2256077
959.20 0.2255397
959.30 0.2254717
959.40 0.2254036
959.50 0.2253357
959.60 0.2252677
959.70 0.2251997
959.80 0.2251318
959.90 0.2250639
960.00 0.2249961
960.10 0.2249282
960.20 0.2248604
960.30 0.2247926
960.40 0.2247248
960.50 0.2246571
960.60 0.2245893
960.70 0.2245216
960.80 0.2244539
960.90 0.2243863
961.00 0.2243186
961.10 0.224251
961.20 0.2241834
961.30 0.2241159
961.40 0.2240483
961.50 0.2239808
961.60 0.2239133
961.70 0.2238458
961.80 0.2237784
961.90 0.223711
962.00 0.2236448
962.10 0.2235789
962.20 0.2235131
962.30 0.2234472
962.40 0.2233814
962.50 0.2233156
962.60 0.2232498
962.70 0.2231841
962.80 0.2231184
962.90 0.2230527
963.00 0.222987
963.10 0.2229213
963.20 0.2228557
963.30 0.2227901
963.40 0.2227245
963.50 0.2226589
963.60 0.2225934
963.70 0.2225279
963.80 0.2224624
963.90 0.2223969
964.00 0.2223314
964.10 0.222266
964.20 0.2222006
964.30 0.2221352
964.40 0.2220698
964.50 0.2220045
964.60 0.2219392
964.70 0.2218739
964.80 0.2218086
964.90 0.2217433
965.00 0.2216781
965.10 0.2216129
965.20 0.2215477
965.30 0.2214825
965.40 0.2214174
965.50 0.2213523
965.60 0.2212872
965.70 0.2212221
965.80 0.221157
965.90 0.221092
966.00 0.221027
966.10 0.220962
966.20 0.220897
966.30 0.2208321
966.40 0.2207672
966.50 0.2207023
966.60 0.2206374
966.70 0.2205725
966.80 0.2205077
966.90 0.2204429
967.00 0.2203781
967.10 0.2203133
967.20 0.2202486
967.30 0.2201839
967.40 0.2201192
967.50 0.2200545
967.60 0.2199898
967.70 0.2199252
967.80 0.2198606
967.90 0.219796
968.00 0.2197314
968.10 0.2196669
968.20 0.2196024
968.30 0.2195379
968.40 0.2194734
968.50 0.2194089
968.60 0.2193445
968.70 0.2192801
968.80 0.2192157
968.90 0.2191513
969.00 0.219087
969.10 0.2190226
969.20 0.2189583
969.30 0.218894
969.40 0.2188298
969.50 0.2187655
969.60 0.2187013
969.70 0.2186371
969.80 0.2185729
969.90 0.2185088
970.00 0.2184447
970.10 0.2183806
970.20 0.2183165
970.30 0.2182524
970.40 0.2181884
970.50 0.2181243
970.60 0.2180603
970.70 0.2179964
970.80 0.2179324
970.90 0.2178685
971.00 0.2178046
971.10 0.2177407
971.20 0.2176768
971.30 0.2176129
971.40 0.2175491
971.50 0.2174853
971.60 0.2174208
971.70 0.217356
971.80 0.2172912
971.90 0.2172264
972.00 0.2171617
972.10 0.2170969
972.20 0.2170322
972.30 0.2169675
972.40 0.2169028
972.50 0.2168382
972.60 0.2167735
972.70 0.2167089
972.80 0.2166444
972.90 0.2165798
973.00 0.2165152
973.10 0.2164507
973.20 0.2163862
973.30 0.2163218
973.40 0.2162573
973.50 0.2161929
973.60 0.2161285
973.70 0.2160641
973.80 0.2159997
973.90 0.2159354
974.00 0.215871
974.10 0.2158067
974.20 0.2157425
974.30 0.2156782
974.40 0.215614
974.50 0.2155497
974.60 0.2154856
974.70 0.2154214
974.80 0.2153572
974.90 0.2152931
975.00 0.215229
975.10 0.2151649
975.20 0.2151009
975.30 0.2150368
975.40 0.2149728
975.50 0.2149088
975.60 0.2148448
975.70 0.2147809
975.80 0.214717
975.90 0.214653
976.00 0.2145892
976.10 0.2145253
976.20 0.2144614
976.30 0.2143976
976.40 0.2143338
976.50 0.21427
976.60 0.2142063
976.70 0.2141425
976.80 0.2140788
976.90 0.2140151
977.00 0.2139515
977.10 0.2138878
977.20 0.2138242
977.30 0.2137606
977.40 0.213697
977.50 0.2136334
977.60 0.2135699
977.70 0.2135064
977.80 0.2134429
977.90 0.2133794
978.00 0.2133159
978.10 0.2132525
978.20 0.2131891
978.30 0.2131257
978.40 0.2130623
978.50 0.212999
978.60 0.2129357
978.70 0.2128724
978.80 0.2128091
978.90 0.2127458
979.00 0.2126826
979.10 0.2126193
979.20 0.2125561
979.30 0.212493
979.40 0.2124298
979.50 0.2123667
979.60 0.2123036
979.70 0.2122405
979.80 0.2121774
979.90 0.2121144
980.00 0.2120513
980.10 0.2119883
980.20 0.2119253
980.30 0.2118624
980.40 0.2117994
980.50 0.2117365
980.60 0.2116736
980.70 0.2116107
980.80 0.2115479
980.90 0.211485
981.00 0.2114222
981.10 0.2113594
981.20 0.2112967
981.30 0.211234
981.40 0.2111715
981.50 0.211109
981.60 0.2110465
981.70 0.210984
981.80 0.2109215
981.90 0.2108591
982.00 0.2107967
982.10 0.2107343
982.20 0.210672
982.30 0.2106096
982.40 0.2105473
982.50 0.210485
982.60 0.2104227
982.70 0.2103604
982.80 0.2102982
982.90 0.210236
983.00 0.2101738
983.10 0.2101116
983.20 0.2100495
983.30 0.2099873
983.40 0.2099252
983.50 0.2098631
983.60 0.209801
983.70 0.209739
983.80 0.209677
983.90 0.209615
984.00 0.209553
984.10 0.209491
984.20 0.2094291
984.30 0.2093671
984.40 0.2093052
984.50 0.2092433
984.60 0.2091815
984.70 0.2091196
984.80 0.2090578
984.90 0.208996
985.00 0.2089342
985.10 0.2088725
985.20 0.2088107
985.30 0.208749
985.40 0.2086873
985.50 0.2086256
985.60 0.208564
985.70 0.2085024
985.80 0.2084407
985.90 0.2083792
986.00 0.2083176
986.10 0.208256
986.20 0.2081945
986.30 0.208133
986.40 0.2080715
986.50 0.20801
986.60 0.2079486
986.70 0.2078872
986.80 0.2078257
986.90 0.2077644
987.00 0.207703
987.10 0.2076416
987.20 0.2075803
987.30 0.207519
987.40 0.2074577
987.50 0.2073965
987.60 0.2073352
987.70 0.207274
987.80 0.2072128
987.90 0.2071516
988.00 0.2070905
988.10 0.2070293
988.20 0.2069682
988.30 0.2069071
988.40 0.206846
988.50 0.206785
988.60 0.2067239
988.70 0.2066629
988.80 0.2066019
988.90 0.2065409
989.00 0.20648
989.10 0.2064191
989.20 0.2063581
989.30 0.2062972
989.40 0.2062364
989.50 0.2061755
989.60 0.2061147
989.70 0.2060539
989.80 0.2059931
989.90 0.2059323
990.00 0.2058716
990.10 0.2058108
990.20 0.2057501
990.30 0.2056894
990.40 0.2056287
990.50 0.2055681
990.60 0.2055075
990.70 0.2054469
990.80 0.2053863
990.90 0.2053257
991.00 0.2052652
991.10 0.2052047
991.20 0.2051444
991.30 0.2050841
991.40 0.2050238
991.50 0.2049635
991.60 0.2049033
991.70 0.2048431
991.80 0.2047829
991.90 0.2047227
992.00 0.2046625
992.10 0.2046024
992.20 0.2045423
992.30 0.2044822
992.40 0.2044221
992.50 0.204362
992.60 0.204302
992.70 0.204242
992.80 0.204182
992.90 0.204122
993.00 0.204062
993.10 0.2040021
993.20 0.2039422
993.30 0.2038823
993.40 0.2038224
993.50 0.2037625
993.60 0.2037027
993.70 0.2036429
993.80 0.2035831
993.90 0.2035233
994.00 0.2034635
994.10 0.2034038
994.20 0.2033441
994.30 0.2032844
994.40 0.2032247
994.50 0.203165
994.60 0.2031054
994.70 0.2030458
994.80 0.2029862
994.90 0.2029266
995.00 0.202867
995.10 0.2028075
995.20 0.202748
995.30 0.2026885
995.40 0.202629
995.50 0.2025695
995.60 0.2025101
995.70 0.2024507
995.80 0.2023913
995.90 0.2023319
996.00 0.2022725
996.10 0.2022132
996.20 0.2021539
996.30 0.2020946
996.40 0.2020353
996.50 0.201976
996.60 0.2019168
996.70 0.2018575
996.80 0.2017983
996.90 0.2017392
997.00 0.20168
997.10 0.2016209
997.20 0.2015617
997.30 0.2015026
997.40 0.2014436
997.50 0.2013845
997.60 0.2013254
997.70 0.2012664
997.80 0.2012074
997.90 0.2011484
998.00 0.2010895
998.10 0.2010305
998.20 0.2009716
998.30 0.2009127
998.40 0.2008538
998.50 0.2007949
998.60 0.2007361
998.70 0.2006773
998.80 0.2006184
998.90 0.2005597
999.00 0.2005009
999.10 0.2004421
999.20 0.2003834
999.30 0.2003247
999.40 0.200266
999.50 0.2002073
999.60 0.2001487
999.70 0.20009
999.80 0.2000314
999.90 0.1999728
1000.00 0.1999143
1000.10 0.1998557
1000.20 0.1997972
1000.30 0.1997386
1000.40 0.1996801
1000.50 0.1996217
1000.60 0.1995632
1000.70 0.1995048
1000.80 0.1994464
1000.90 0.199388
1001.00 0.1993296
1001.10 0.1992714
1001.20 0.1992133
1001.30 0.1991551
1001.40 0.199097
1001.50 0.1990389
1001.60 0.1989808
1001.70 0.1989228
1001.80 0.1988647
1001.90 0.1988067
1002.00 0.1987487
1002.10 0.1986907
1002.20 0.1986327
1002.30 0.1985748
1002.40 0.1985168
1002.50 0.1984589
1002.60 0.198401
1002.70 0.1983432
1002.80 0.1982853
1002.90 0.1982275
1003.00 0.1981697
1003.10 0.1981119
1003.20 0.1980541
1003.30 0.1979963
1003.40 0.1979386
1003.50 0.1978809
1003.60 0.1978232
1003.70 0.1977655
1003.80 0.1977078
1003.90 0.1976502
1004.00 0.1975926
1004.10 0.1975349
1004.20 0.1974774
1004.30 0.1974198
1004.40 0.1973622
1004.50 0.1973047
1004.60 0.1972472
1004.70 0.1971897
1004.80 0.1971322
1004.90 0.1970748
1005.00 0.1970173
1005.10 0.1969599
1005.20 0.1969025
1005.30 0.1968452
1005.40 0.1967878
1005.50 0.1967305
1005.60 0.1966731
1005.70 0.1966158
1005.80 0.1965585
1005.90 0.1965013
1006.00 0.196444
1006.10 0.1963868
1006.20 0.1963296
1006.30 0.1962724
1006.40 0.1962152
1006.50 0.1961581
1006.60 0.1961009
1006.70 0.1960438
1006.80 0.1959867
1006.90 0.1959296
1007.00 0.1958726
1007.10 0.1958155
1007.20 0.1957585
1007.30 0.1957015
1007.40 0.1956445
1007.50 0.1955876
1007.60 0.1955306
1007.70 0.1954737
1007.80 0.1954168
1007.90 0.1953599
1008.00 0.195303
1008.10 0.1952461
1008.20 0.1951893
1008.30 0.1951325
1008.40 0.1950757
1008.50 0.1950189
1008.60 0.1949622
1008.70 0.1949054
1008.80 0.1948487
1008.90 0.194792
1009.00 0.1947353
1009.10 0.1946786
1009.20 0.194622
1009.30 0.1945653
1009.40 0.1945087
1009.50 0.1944521
1009.60 0.1943956
1009.70 0.194339
1009.80 0.1942825
1009.90 0.194226
1010.00 0.1941695
1010.10 0.194113
1010.20 0.1940565
1010.30 0.1940001
1010.40 0.1939436
1010.50 0.1938872
1010.60 0.1938308
1010.70 0.1937745
1010.80 0.1937181
1010.90 0.1936618
1011.00 0.1936051
1011.10 0.1935468
1011.20 0.1934885
1011.30 0.1934301
1011.40 0.1933719
1011.50 0.1933136
1011.60 0.1932554
1011.70 0.1931971
1011.80 0.1931389
1011.90 0.1930807
1012.00 0.1930226
1012.10 0.1929644
1012.20 0.1929063
1012.30 0.1928482
1012.40 0.1927901
1012.50 0.192732
1012.60 0.1926739
1012.70 0.1926159
1012.80 0.1925579
1012.90 0.1924999
1013.00 0.1924419
1013.10 0.192384
1013.20 0.192326
1013.30 0.1922681
1013.40 0.1922102
1013.50 0.1921523
1013.60 0.1920945
1013.70 0.1920366
1013.80 0.1919788
1013.90 0.191921
1014.00 0.1918632
1014.10 0.1918054
1014.20 0.1917477
1014.30 0.19169
1014.40 0.1916322
1014.50 0.1915746
1014.60 0.1915169
1014.70 0.1914592
1014.80 0.1914016
1014.90 0.191344
1015.00 0.1912864
1015.10 0.1912288
1015.20 0.1911712
1015.30 0.1911137
1015.40 0.1910562
1015.50 0.1909987
1015.60 0.1909412
1015.70 0.1908837
1015.80 0.1908263
1015.90 0.1907689
1016.00 0.1907115
1016.10 0.1906554
1016.20 0.1906003
1016.30 0.1905451
1016.40 0.19049
1016.50 0.1904349
1016.60 0.1903798
1016.70 0.1903247
1016.80 0.1902697
1016.90 0.1902146
1017.00 0.1901596
1017.10 0.1901046
1017.20 0.1900496
1017.30 0.1899947
1017.40 0.1899397
1017.50 0.1898848
1017.60 0.1898299
1017.70 0.189775
1017.80 0.1897201
1017.90 0.1896652
1018.00 0.1896104
1018.10 0.1895556
1018.20 0.1895008
1018.30 0.189446
1018.40 0.1893912
1018.50 0.1893365
1018.60 0.1892817
1018.70 0.189227
1018.80 0.1891723
1018.90 0.1891176
1019.00 0.189063
1019.10 0.1890083
1019.20 0.1889537
1019.30 0.1888991
1019.40 0.1888445
1019.50 0.1887899
1019.60 0.1887354
1019.70 0.1886808
1019.80 0.1886263
1019.90 0.1885718
1020.00 0.1885173
1020.10 0.1884629
1020.20 0.1884084
1020.30 0.188354
1020.40 0.1882996
1020.50 0.1882452
1020.60 0.1881908
1020.70 0.1881364
1020.80 0.1880821
1020.90 0.1880278
1021.00 0.1879735
1021.10 0.1879192
1021.20 0.1878651
1021.30 0.187811
1021.40 0.1877569
1021.50 0.1877029
1021.60 0.1876489
1021.70 0.1875949
1021.80 0.1875409
1021.90 0.1874869
1022.00 0.1874329
1022.10 0.187379
1022.20 0.1873251
1022.30 0.1872712
1022.40 0.1872173
1022.50 0.1871634
1022.60 0.1871096
1022.70 0.1870557
1022.80 0.1870019
1022.90 0.1869481
1023.00 0.1868943
1023.10 0.1868406
1023.20 0.1867868
1023.30 0.1867331
1023.40 0.1866794
1023.50 0.1866257
1023.60 0.186572
1023.70 0.1865183
1023.80 0.1864647
1023.90 0.1864111
1024.00 0.1863575
1024.10 0.1863039
1024.20 0.1862503
1024.30 0.1861967
1024.40 0.1861432
1024.50 0.1860897
1024.60 0.1860362
1024.70 0.1859827
1024.80 0.1859292
1024.90 0.1858758
1025.00 0.1858223
1025.10 0.1857689
1025.20 0.1857155
1025.30 0.1856621
1025.40 0.1856088
1025.50 0.1855554
1025.60 0.1855021
1025.70 0.1854488
1025.80 0.1853955
1025.90 0.1853422
1026.00 0.185289
1026.10 0.1852357
1026.20 0.1851825
1026.30 0.1851293
1026.40 0.1850761
1026.50 0.1850229
1026.60 0.1849697
1026.70 0.1849166
1026.80 0.1848635
1026.90 0.1848103
1027.00 0.1847573
1027.10 0.1847042
1027.20 0.1846511
1027.30 0.1845981
1027.40 0.1845451
1027.50 0.184492
1027.60 0.1844391
1027.70 0.1843861
1027.80 0.1843331
1027.90 0.1842802
1028.00 0.1842273
1028.10 0.1841744
1028.20 0.1841215
1028.30 0.1840686
1028.40 0.1840158
1028.50 0.1839629
1028.60 0.1839101
1028.70 0.1838573
1028.80 0.1838045
1028.90 0.1837517
1029.00 0.183699
1029.10 0.1836463
1029.20 0.1835935
1029.30 0.1835408
1029.40 0.1834882
1029.50 0.1834355
1029.60 0.1833828
1029.70 0.1833302
1029.80 0.1832776
1029.90 0.183225
1030.00 0.1831724
1030.10 0.1831199
1030.20 0.1830673
1030.30 0.1830148
1030.40 0.1829623
1030.50 0.1829098
1030.60 0.1828573
1030.70 0.1828048
1030.80 0.1827524
1030.90 0.1827
1031.00 0.1826475
1031.10 0.1825952
1031.20 0.1825428
1031.30 0.1824904
1031.40 0.1824382
1031.50 0.1823861
1031.60 0.1823339
1031.70 0.1822818
1031.80 0.1822297
1031.90 0.1821776
1032.00 0.1821256
1032.10 0.1820735
1032.20 0.1820215
1032.30 0.1819694
1032.40 0.1819174
1032.50 0.1818654
1032.60 0.1818135
1032.70 0.1817615
1032.80 0.1817096
1032.90 0.1816577
1033.00 0.1816058
1033.10 0.1815539
1033.20 0.181502
1033.30 0.1814501
1033.40 0.1813983
1033.50 0.1813465
1033.60 0.1812947
1033.70 0.1812429
1033.80 0.1811911
1033.90 0.1811394
1034.00 0.1810876
1034.10 0.1810359
1034.20 0.1809842
1034.30 0.1809325
1034.40 0.1808808
1034.50 0.1808292
1034.60 0.1807775
1034.70 0.1807259
1034.80 0.1806743
1034.90 0.1806227
1035.00 0.1805712
1035.10 0.1805196
1035.20 0.1804681
1035.30 0.1804165
1035.40 0.180365
1035.50 0.1803135
1035.60 0.1802621
1035.70 0.1802106
1035.80 0.1801592
1035.90 0.1801077
1036.00 0.1800563
1036.10 0.1800049
1036.20 0.1799536
1036.30 0.1799022
1036.40 0.1798509
1036.50 0.1797995
1036.60 0.1797482
1036.70 0.1796969
1036.80 0.1796457
1036.90 0.1795944
1037.00 0.1795432
1037.10 0.1794919
1037.20 0.1794407
1037.30 0.1793895
1037.40 0.1793383
1037.50 0.1792872
1037.60 0.179236
1037.70 0.1791849
1037.80 0.1791338
1037.90 0.1790827
1038.00 0.1790316
1038.10 0.1789805
1038.20 0.1789295
1038.30 0.1788785
1038.40 0.1788274
1038.50 0.1787764
1038.60 0.1787255
1038.70 0.1786745
1038.80 0.1786235
1038.90 0.1785726
1039.00 0.1785217
1039.10 0.1784708
1039.20 0.1784199
1039.30 0.178369
1039.40 0.1783182
1039.50 0.1782673
1039.60 0.1782165
1039.70 0.1781657
1039.80 0.1781149
1039.90 0.1780641
1040.00 0.1780134
1040.10 0.1779627
1040.20 0.1779119
1040.30 0.1778612
1040.40 0.1778105
1040.50 0.1777599
1040.60 0.1777092
1040.70 0.1776586
1040.80 0.1776079
1040.90 0.1775573
1041.00 0.1775067
1041.10 0.1774561
1041.20 0.1774056
1041.30 0.177355
1041.40 0.1773045
1041.50 0.177254
1041.60 0.1772035
1041.70 0.1771532
1041.80 0.1771029
1041.90 0.1770526
1042.00 0.1770023
1042.10 0.1769521
1042.20 0.1769018
1042.30 0.1768516
1042.40 0.1768014
1042.50 0.1767512
1042.60 0.176701
1042.70 0.1766509
1042.80 0.1766007
1042.90 0.1765506
1043.00 0.1765005
1043.10 0.1764504
1043.20 0.1764003
1043.30 0.1763503
1043.40 0.1763002
1043.50 0.1762502
1043.60 0.1762002
1043.70 0.1761502
1043.80 0.1761002
1043.90 0.1760502
1044.00 0.1760003
1044.10 0.1759504
1044.20 0.1759004
1044.30 0.1758505
1044.40 0.1758007
1044.50 0.1757508
1044.60 0.1757009
1044.70 0.1756511
1044.80 0.1756013
1044.90 0.1755515
1045.00 0.1755017
1045.10 0.1754519
1045.20 0.1754021
1045.30 0.1753524
1045.40 0.1753027
1045.50 0.175253
1045.60 0.1752033
1045.70 0.1751536
1045.80 0.1751039
1045.90 0.1750543
1046.00 0.1750047
1046.10 0.174955
1046.20 0.1749054
1046.30 0.1748558
1046.40 0.1748063
1046.50 0.1747567
1046.60 0.1747072
1046.70 0.1746577
1046.80 0.1746082
1046.90 0.1745572
1047.00 0.1745057
1047.10 0.1744542
1047.20 0.1744027
1047.30 0.1743513
1047.40 0.1742999
1047.50 0.1742485
1047.60 0.1741971
1047.70 0.1741457
1047.80 0.1740943
1047.90 0.174043
1048.00 0.1739917
1048.10 0.1739404
1048.20 0.1738891
1048.30 0.1738378
1048.40 0.1737865
1048.50 0.1737353
1048.60 0.1736841
1048.70 0.1736328
1048.80 0.1735816
1048.90 0.1735305
1049.00 0.1734793
1049.10 0.1734282
1049.20 0.173377
1049.30 0.1733259
1049.40 0.1732748
1049.50 0.1732237
1049.60 0.1731727
1049.70 0.1731216
1049.80 0.1730706
1049.90 0.1730196
1050.00 0.1729686
1050.10 0.1729176
1050.20 0.1728666
1050.30 0.1728157
1050.40 0.1727648
1050.50 0.1727138
1050.60 0.1726629
1050.70 0.172612
1050.80 0.1725612
1050.90 0.1725103
1051.00 0.1724595
1051.10 0.1724087
1051.20 0.1723579
1051.30 0.1723071
1051.40 0.1722563
1051.50 0.1722055
1051.60 0.1721548
1051.70 0.1721041
1051.80 0.1720534
1051.90 0.1720027
1052.00 0.171952
1052.10 0.1719028
1052.20 0.1718543
1052.30 0.1718058
1052.40 0.1717574
1052.50 0.1717089
1052.60 0.1716605
1052.70 0.1716121
1052.80 0.1715637
1052.90 0.1715153
1053.00 0.171467
1053.10 0.1714186
1053.20 0.1713703
1053.30 0.171322
1053.40 0.1712737
1053.50 0.1712254
1053.60 0.1711771
1053.70 0.1711289
1053.80 0.1710806
1053.90 0.1710324
1054.00 0.1709842
1054.10 0.170936
1054.20 0.1708878
1054.30 0.1708396
1054.40 0.1707915
1054.50 0.1707433
1054.60 0.1706952
1054.70 0.1706471
1054.80 0.170599
1054.90 0.170551
1055.00 0.1705029
1055.10 0.1704548
1055.20 0.1704068
1055.30 0.1703588
1055.40 0.1703108
1055.50 0.1702628
1055.60 0.1702149
1055.70 0.1701669
1055.80 0.170119
1055.90 0.170071
1056.00 0.1700231
1056.10 0.1699752
1056.20 0.1699274
1056.30 0.1698795
1056.40 0.1698316
1056.50 0.1697838
1056.60 0.169736
1056.70 0.1696882
1056.80 0.1696404
1056.90 0.1695926
1057.00 0.1695449
1057.10 0.1694971
1057.20 0.1694494
1057.30 0.1694017
1057.40 0.169354
1057.50 0.1693063
1057.60 0.1692586
1057.70 0.169211
1057.80 0.1691634
1057.90 0.1691157
1058.00 0.1690681
1058.10 0.1690205
1058.20 0.168973
1058.30 0.1689254
1058.40 0.1688778
1058.50 0.1688303
1058.60 0.1687828
1058.70 0.1687353
1058.80 0.1686878
1058.90 0.1686403
1059.00 0.1685929
1059.10 0.1685454
1059.20 0.168498
1059.30 0.1684506
1059.40 0.1684032
1059.50 0.1683558
1059.60 0.1683084
1059.70 0.1682611
1059.80 0.1682137
1059.90 0.1681664
1060.00 0.1681191
1060.10 0.1680718
1060.20 0.1680245
1060.30 0.1679773
1060.40 0.16793
1060.50 0.1678828
1060.60 0.1678356
1060.70 0.1677884
1060.80 0.1677412
1060.90 0.167694
1061.00 0.1676468
1061.10 0.1675997
1061.20 0.1675526
1061.30 0.1675054
1061.40 0.1674583
1061.50 0.1674112
1061.60 0.1673642
1061.70 0.1673171
1061.80 0.1672701
1061.90 0.167223
1062.00 0.167176
1062.10 0.167129
1062.20 0.1670821
1062.30 0.1670351
1062.40 0.1669881
1062.50 0.1669412
1062.60 0.1668943
1062.70 0.1668476
1062.80 0.1668008
1062.90 0.1667541
1063.00 0.1667074
1063.10 0.1666607
1063.20 0.166614
1063.30 0.1665673
1063.40 0.1665207
1063.50 0.166474
1063.60 0.1664274
1063.70 0.1663808
1063.80 0.1663342
1063.90 0.1662876
1064.00 0.1662411
1064.10 0.1661945
1064.20 0.166148
1064.30 0.1661015
1064.40 0.1660549
1064.50 0.1660084
1064.60 0.165962
1064.70 0.1659155
1064.80 0.1658691
1064.90 0.1658226
1065.00 0.1657762
1065.10 0.1657298
1065.20 0.1656834
1065.30 0.165637
1065.40 0.1655907
1065.50 0.1655443
1065.60 0.165498
1065.70 0.1654516
1065.80 0.1654053
1065.90 0.1653591
1066.00 0.1653128
1066.10 0.1652665
1066.20 0.1652203
1066.30 0.165174
1066.40 0.1651278
1066.50 0.1650816
1066.60 0.1650354
1066.70 0.1649892
1066.80 0.1649431
1066.90 0.1648969
1067.00 0.1648508
1067.10 0.1648047
1067.20 0.1647586
1067.30 0.1647125
1067.40 0.1646664
1067.50 0.1646204
1067.60 0.1645743
1067.70 0.1645283
1067.80 0.1644823
1067.90 0.1644363
1068.00 0.1643903
1068.10 0.1643443
1068.20 0.1642983
1068.30 0.1642524
1068.40 0.1642064
1068.50 0.1641605
1068.60 0.1641146
1068.70 0.1640687
1068.80 0.1640228
1068.90 0.163977
1069.00 0.1639311
1069.10 0.1638853
1069.20 0.1638395
1069.30 0.1637937
1069.40 0.1637479
1069.50 0.1637021
1069.60 0.1636563
1069.70 0.1636106
1069.80 0.1635649
1069.90 0.1635191
1070.00 0.1634734
1070.10 0.1634277
1070.20 0.1633821
1070.30 0.1633364
1070.40 0.1632907
1070.50 0.1632451
1070.60 0.1631995
1070.70 0.1631539
1070.80 0.1631083
1070.90 0.1630627
1071.00 0.1630172
1071.10 0.1629716
1071.20 0.1629261
1071.30 0.1628805
1071.40 0.162835
1071.50 0.1627895
1071.60 0.1627441
1071.70 0.1626986
1071.80 0.1626532
1071.90 0.1626077
1072.00 0.1625623
1072.10 0.1625169
1072.20 0.1624715
1072.30 0.1624261
1072.40 0.1623807
1072.50 0.1623354
1072.60 0.1622901
1072.70 0.1622447
1072.80 0.1621994
1072.90 0.1621541
1073.00 0.1621088
1073.10 0.1620636
1073.20 0.162018
1073.30 0.161971
1073.40 0.1619241
1073.50 0.1618772
1073.60 0.1618302
1073.70 0.1617834
1073.80 0.1617365
1073.90 0.1616896
1074.00 0.1616428
1074.10 0.1615959
1074.20 0.1615491
1074.30 0.1615023
1074.40 0.1614555
1074.50 0.1614088
1074.60 0.161362
1074.70 0.1613152
1074.80 0.1612685
1074.90 0.1612218
1075.00 0.1611751
1075.10 0.1611284
1075.20 0.1610817
1075.30 0.1610351
1075.40 0.1609884
1075.50 0.1609418
1075.60 0.1608952
1075.70 0.1608486
1075.80 0.160802
1075.90 0.1607554
1076.00 0.1607089
1076.10 0.1606623
1076.20 0.1606158
1076.30 0.1605693
1076.40 0.1605228
1076.50 0.1604763
1076.60 0.1604299
1076.70 0.1603834
1076.80 0.160337
1076.90 0.1602905
1077.00 0.1602441
1077.10 0.1601977
1077.20 0.1601513
1077.30 0.160105
1077.40 0.1600586
1077.50 0.1600123
1077.60 0.159966
1077.70 0.1599197
1077.80 0.1598734
1077.90 0.1598271
1078.00 0.1597808
1078.10 0.1597346
1078.20 0.1596883
1078.30 0.1596421
1078.40 0.1595959
1078.50 0.1595497
1078.60 0.1595045
1078.70 0.1594602
1078.80 0.1594159
1078.90 0.1593716
1079.00 0.1593273
1079.10 0.1592831
1079.20 0.1592388
1079.30 0.1591946
1079.40 0.1591503
1079.50 0.1591061
1079.60 0.1590619
1079.70 0.1590177
1079.80 0.1589736
1079.90 0.1589294
1080.00 0.1588853
1080.10 0.1588411
1080.20 0.158797
1080.30 0.1587529
1080.40 0.1587088
1080.50 0.1586648
1080.60 0.1586207
1080.70 0.1585766
1080.80 0.1585326
1080.90 0.1584886
1081.00 0.1584446
1081.10 0.1584006
1081.20 0.1583566
1081.30 0.1583126
1081.40 0.1582687
1081.50 0.1582247
1081.60 0.1581808
1081.70 0.1581369
1081.80 0.158093
1081.90 0.1580491
1082.00 0.1580052
1082.10 0.1579614
1082.20 0.1579175
1082.30 0.1578737
1082.40 0.1578299
1082.50 0.1577861
1082.60 0.1577423
1082.70 0.1576985
1082.80 0.1576547
1082.90 0.157611
1083.00 0.1575672
1083.10 0.1575235
1083.20 0.1574798
1083.30 0.1574361
1083.40 0.1573924
1083.50 0.1573488
1083.60 0.1573051
1083.70 0.1572615
1083.80 0.1572178
1083.90 0.1571742
1084.00 0.1571307
1084.10 0.1570873
1084.20 0.1570439
1084.30 0.1570004
1084.40 0.156957
1084.50 0.1569136
1084.60 0.1568703
1084.70 0.1568269
1084.80 0.1567836
1084.90 0.1567402
1085.00 0.1566969
1085.10 0.1566536
1085.20 0.1566103
1085.30 0.156567
1085.40 0.1565237
1085.50 0.1564805
1085.60 0.1564372
1085.70 0.156394
1085.80 0.1563508
1085.90 0.1563076
1086.00 0.1562644
1086.10 0.1562212
1086.20 0.156178
1086.30 0.1561349
1086.40 0.1560917
1086.50 0.1560486
1086.60 0.1560055
1086.70 0.1559624
1086.80 0.1559193
1086.90 0.1558762
1087.00 0.1558332
1087.10 0.1557901
1087.20 0.1557471
1087.30 0.1557041
1087.40 0.1556611
1087.50 0.1556181
1087.60 0.1555751
1087.70 0.1555321
1087.80 0.1554892
1087.90 0.1554462
1088.00 0.1554033
1088.10 0.1553604
1088.20 0.1553175
1088.30 0.1552746
1088.40 0.1552317
1088.50 0.1551889
1088.60 0.155146
1088.70 0.1551032
1088.80 0.1550604
1088.90 0.1550176
1089.00 0.1549748
1089.10 0.154932
1089.20 0.1548892
1089.30 0.1548464
1089.40 0.1548037
1089.50 0.154761
1089.60 0.1547182
1089.70 0.1546755
1089.80 0.1546328
1089.90 0.1545902
1090.00 0.1545475
1090.10 0.1545048
1090.20 0.1544622
1090.30 0.1544196
1090.40 0.154377
1090.50 0.1543343
1090.60 0.1542918
1090.70 0.1542492
1090.80 0.1542066
1090.90 0.1541641
1091.00 0.1541215
1091.10 0.154079
1091.20 0.1540365
1091.30 0.153994
1091.40 0.1539515
1091.50 0.153909
1091.60 0.1538666
1091.70 0.1538241
1091.80 0.1537817
1091.90 0.1537393
1092.00 0.1536969
1092.10 0.1536545
1092.20 0.1536121
1092.30 0.1535697
1092.40 0.1535274
1092.50 0.153485
1092.60 0.1534427
1092.70 0.1534004
1092.80 0.1533581
1092.90 0.1533158
1093.00 0.1532735
1093.10 0.1532312
1093.20 0.153189
1093.30 0.1531467
1093.40 0.1531045
1093.50 0.1530623
1093.60 0.1530201
1093.70 0.1529779
1093.80 0.1529357
1093.90 0.1528936
1094.00 0.1528514
1094.10 0.1528093
1094.20 0.1527672
1094.30 0.152725
1094.40 0.1526829
1094.50 0.1526409
1094.60 0.1525988
1094.70 0.1525567
1094.80 0.1525143
1094.90 0.1524715
1095.00 0.1524288
1095.10 0.152386
1095.20 0.1523433
1095.30 0.1523006
1095.40 0.1522579
1095.50 0.1522152
1095.60 0.1521725
1095.70 0.1521299
1095.80 0.1520872
1095.90 0.1520446
1096.00 0.1520019
1096.10 0.1519593
1096.20 0.1519167
1096.30 0.1518741
1096.40 0.1518316
1096.50 0.151789
1096.60 0.1517465
1096.70 0.1517039
1096.80 0.1516614
1096.90 0.1516189
1097.00 0.1515764
1097.10 0.1515339
1097.20 0.1514915
1097.30 0.151449
1097.40 0.1514066
1097.50 0.1513641
1097.60 0.1513217
1097.70 0.1512793
1097.80 0.1512369
1097.90 0.1511945
1098.00 0.1511522
1098.10 0.1511098
1098.20 0.1510675
1098.30 0.1510251
1098.40 0.1509828
1098.50 0.1509405
1098.60 0.1508982
1098.70 0.150856
1098.80 0.1508137
1098.90 0.1507715
1099.00 0.1507292
1099.10 0.150687
1099.20 0.1506448
1099.30 0.1506026
1099.40 0.1505604
1099.50 0.1505182
1099.60 0.1504761
1099.70 0.1504339
1099.80 0.1503918
1099.90 0.1503497
1100.00 0.1503076
1100.10 0.1502655
1100.20 0.1502234
1100.30 0.1501813
1100.40 0.1501392
1100.50 0.1500972
1100.60 0.1500552
1100.70 0.1500132
1100.80 0.1499711
1100.90 0.1499292
1101.00 0.1498872
1101.10 0.1498452
1101.20 0.1498032
1101.30 0.1497613
1101.40 0.1497194
1101.50 0.1496775
1101.60 0.1496356
1101.70 0.1495937
1101.80 0.1495518
1101.90 0.1495099
1102.00 0.1494681
1102.10 0.1494262
1102.20 0.1493844
1102.30 0.1493426
1102.40 0.1493008
1102.50 0.149259
1102.60 0.1492172
1102.70 0.1491755
1102.80 0.1491337
1102.90 0.149092
1103.00 0.1490502
1103.10 0.1490085
1103.20 0.1489668
1103.30 0.1489251
1103.40 0.1488835
1103.50 0.1488418
1103.60 0.1488002
1103.70 0.1487585
1103.80 0.1487169
1103.90 0.1486753
1104.00 0.1486337
1104.10 0.1485921
1104.20 0.1485505
1104.30 0.148509
1104.40 0.1484674
1104.50 0.1484259
1104.60 0.1483843
1104.70 0.1483428
1104.80 0.1483013
1104.90 0.1482599
1105.00 0.1482184
1105.10 0.1481769
1105.20 0.1481355
1105.30 0.148094
1105.40 0.1480526
1105.50 0.1480112
1105.60 0.1479698
1105.70 0.1479284
1105.80 0.1478881
1105.90 0.1478477
1106.00 0.1478073
1106.10 0.147767
1106.20 0.1477267
1106.30 0.1476864
1106.40 0.1476461
1106.50 0.1476058
1106.60 0.1475655
1106.70 0.1475252
1106.80 0.147485
1106.90 0.1474447
1107.00 0.1474045
1107.10 0.1473643
1107.20 0.1473241
1107.30 0.1472839
1107.40 0.1472437
1107.50 0.1472035
1107.60 0.1471634
1107.70 0.1471232
1107.80 0.1470831
1107.90 0.147043
1108.00 0.1470028
1108.10 0.1469627
1108.20 0.1469227
1108.30 0.1468826
1108.40 0.1468425
1108.50 0.1468025
1108.60 0.1467624
1108.70 0.1467224
1108.80 0.1466824
1108.90 0.1466424
1109.00 0.1466024
1109.10 0.1465624
1109.20 0.1465225
1109.30 0.1464825
1109.40 0.1464426
1109.50 0.1464026
1109.60 0.1463627
1109.70 0.1463228
1109.80 0.1462829
1109.90 0.146243
1110.00 0.1462032
1110.10 0.1461633
1110.20 0.1461235
1110.30 0.1460836
1110.40 0.1460438
1110.50 0.146004
1110.60 0.1459642
1110.70 0.1459244
1110.80 0.1458847
1110.90 0.1458449
1111.00 0.1458051
1111.10 0.1457654
1111.20 0.1457257
1111.30 0.145686
1111.40 0.1456463
1111.50 0.1456066
1111.60 0.1455669
1111.70 0.1455272
1111.80 0.1454876
1111.90 0.1454479
1112.00 0.1454083
1112.10 0.1453687
1112.20 0.1453291
1112.30 0.1452895
1112.40 0.1452499
1112.50 0.1452103
1112.60 0.1451708
1112.70 0.1451312
1112.80 0.1450917
1112.90 0.1450522
1113.00 0.1450127
1113.10 0.1449732
1113.20 0.1449337
1113.30 0.1448942
1113.40 0.1448547
1113.50 0.1448153
1113.60 0.1447758
1113.70 0.1447364
1113.80 0.144697
1113.90 0.1446576
1114.00 0.1446182
1114.10 0.1445788
1114.20 0.1445394
1114.30 0.1445001
1114.40 0.1444607
1114.50 0.1444214
1114.60 0.1443821
1114.70 0.1443428
1114.80 0.1443035
1114.90 0.1442642
1115.00 0.1442249
1115.10 0.1441856
1115.20 0.1441464
1115.30 0.1441072
1115.40 0.1440679
1115.50 0.1440287
1115.60 0.1439895
1115.70 0.1439503
1115.80 0.1439111
1115.90 0.143872
1116.00 0.1438328
1116.10 0.1437937
1116.20 0.1437545
1116.30 0.1437154
1116.40 0.1436763
1116.50 0.1436372
1116.60 0.1435981
1116.70 0.143559
1116.80 0.1435193
1116.90 0.1434787
1117.00 0.1434381
1117.10 0.1433976
1117.20 0.1433571
1117.30 0.1433165
1117.40 0.143276
1117.50 0.1432355
1117.60 0.143195
1117.70 0.1431546
1117.80 0.1431141
1117.90 0.1430737
1118.00 0.1430332
1118.10 0.1429928
1118.20 0.1429524
1118.30 0.142912
1118.40 0.1428716
1118.50 0.1428312
1118.60 0.1427908
1118.70 0.1427505
1118.80 0.1427102
1118.90 0.1426698
1119.00 0.1426295
1119.10 0.1425892
1119.20 0.1425489
1119.30 0.1425086
1119.40 0.1424684
1119.50 0.1424281
1119.60 0.1423879
1119.70 0.1423476
1119.80 0.1423074
1119.90 0.1422672
1120.00 0.142227
1120.10 0.1421868
1120.20 0.1421467
1120.30 0.1421065
1120.40 0.1420664
1120.50 0.1420262
1120.60 0.1419861
1120.70 0.141946
1120.80 0.1419059
1120.90 0.1418658
1121.00 0.1418257
1121.10 0.1417857
1121.20 0.1417456
1121.30 0.1417056
1121.40 0.1416655
1121.50 0.1416255
1121.60 0.1415855
1121.70 0.1415455
1121.80 0.1415056
1121.90 0.1414656
1122.00 0.1414256
1122.10 0.1413857
1122.20 0.1413458
1122.30 0.1413058
1122.40 0.1412669
1122.50 0.1412287
1122.60 0.1411904
1122.70 0.1411522
1122.80 0.141114
1122.90 0.1410757
1123.00 0.1410375
1123.10 0.1409994
1123.20 0.1409612
1123.30 0.140923
1123.40 0.1408848
1123.50 0.1408467
1123.60 0.1408086
1123.70 0.1407704
1123.80 0.1407323
1123.90 0.1406942
1124.00 0.1406561
1124.10 0.1406181
1124.20 0.14058
1124.30 0.1405419
1124.40 0.1405039
1124.50 0.1404658
1124.60 0.1404278
1124.70 0.1403898
1124.80 0.1403518
1124.90 0.1403138
1125.00 0.1402758
1125.10 0.1402379
1125.20 0.1401999
1125.30 0.140162
1125.40 0.1401241
1125.50 0.1400861
1125.60 0.1400482
1125.70 0.1400103
1125.80 0.1399724
1125.90 0.1399346
1126.00 0.1398967
1126.10 0.1398588
1126.20 0.139821
1126.30 0.1397832
1126.40 0.1397453
1126.50 0.1397075
1126.60 0.1396697
1126.70 0.139632
1126.80 0.1395942
1126.90 0.1395564
1127.00 0.1395187
1127.10 0.1394809
1127.20 0.1394432
1127.30 0.1394055
1127.40 0.1393678
1127.50 0.1393301
1127.60 0.1392924
1127.70 0.1392547
1127.80 0.1392171
1127.90 0.1391794
1128.00 0.1391419
1128.10 0.1391044
1128.20 0.1390669
1128.30 0.1390294
1128.40 0.1389919
1128.50 0.1389545
1128.60 0.138917
1128.70 0.1388796
1128.80 0.1388422
1128.90 0.1388048
1129.00 0.1387674
1129.10 0.13873
1129.20 0.1386926
1129.30 0.1386552
1129.40 0.1386179
1129.50 0.1385805
1129.60 0.1385432
1129.70 0.1385059
1129.80 0.1384686
1129.90 0.1384313
1130.00 0.138394
1130.10 0.1383567
1130.20 0.1383195
1130.30 0.1382822
1130.40 0.138245
1130.50 0.1382077
1130.60 0.1381705
1130.70 0.1381333
1130.80 0.1380961
1130.90 0.1380589
1131.00 0.1380217
1131.10 0.1379846
1131.20 0.1379474
1131.30 0.1379103
1131.40 0.1378731
1131.50 0.137836
1131.60 0.1377989
1131.70 0.1377618
1131.80 0.1377247
1131.90 0.1376876
1132.00 0.1376505
1132.10 0.1376135
1132.20 0.1375764
1132.30 0.1375394
1132.40 0.1375024
1132.50 0.1374654
1132.60 0.1374284
1132.70 0.1373914
1132.80 0.1373544
1132.90 0.1373174
1133.00 0.1372805
1133.10 0.1372435
1133.20 0.1372066
1133.30 0.1371697
1133.40 0.1371327
1133.50 0.1370958
1133.60 0.1370589
1133.70 0.1370221
1133.80 0.1369852
1133.90 0.1369483
1134.00 0.1369115
1134.10 0.1368746
1134.20 0.1368378
1134.30 0.136801
1134.40 0.1367642
1134.50 0.1367274
1134.60 0.1366906
1134.70 0.1366538
1134.80 0.1366171
1134.90 0.1365803
1135.00 0.1365436
1135.10 0.1365068
1135.20 0.1364701
1135.30 0.1364334
1135.40 0.1363967
1135.50 0.13636
1135.60 0.1363233
1135.70 0.1362867
1135.80 0.13625
1135.90 0.1362134
1136.00 0.1361767
1136.10 0.1361401
1136.20 0.1361035
1136.30 0.1360669
1136.40 0.1360303
1136.50 0.1359937
1136.60 0.1359572
1136.70 0.1359206
1136.80 0.1358841
1136.90 0.1358475
1137.00 0.135811
1137.10 0.1357745
1137.20 0.135738
1137.30 0.1357015
1137.40 0.135665
1137.50 0.1356285
1137.60 0.1355921
1137.70 0.1355556
1137.80 0.1355192
1137.90 0.1354828
1138.00 0.1354463
1138.10 0.1354099
1138.20 0.1353735
1138.30 0.1353371
1138.40 0.1353008
1138.50 0.1352644
1138.60 0.1352281
1138.70 0.1351917
1138.80 0.1351554
1138.90 0.1351191
1139.00 0.1350827
1139.10 0.1350464
1139.20 0.1350102
1139.30 0.1349732
1139.40 0.1349363
1139.50 0.1348994
1139.60 0.1348625
1139.70 0.1348256
1139.80 0.1347887
1139.90 0.1347519
1140.00 0.134715
1140.10 0.1346781
1140.20 0.1346413
1140.30 0.1346045
1140.40 0.1345677
1140.50 0.1345309
1140.60 0.1344941
1140.70 0.1344573
1140.80 0.1344205
1140.90 0.1343838
1141.00 0.134347
1141.10 0.1343103
1141.20 0.1342735
1141.30 0.1342368
1141.40 0.1342001
1141.50 0.1341634
1141.60 0.1341267
1141.70 0.1340901
1141.80 0.1340534
1141.90 0.1340167
1142.00 0.1339801
1142.10 0.1339435
1142.20 0.1339068
1142.30 0.1338702
1142.40 0.1338336
1142.50 0.1337971
1142.60 0.1337605
1142.70 0.1337239
1142.80 0.1336874
1142.90 0.1336508
1143.00 0.1336143
1143.10 0.1335777
1143.20 0.1335412
1143.30 0.1335047
1143.40 0.1334682
1143.50 0.1334318
1143.60 0.1333953
1143.70 0.1333588
1143.80 0.1333224
1143.90 0.1332859
1144.00 0.1332495
1144.10 0.1332131
1144.20 0.1331767
1144.30 0.1331403
1144.40 0.1331039
1144.50 0.1330675
1144.60 0.1330312
1144.70 0.1329948
1144.80 0.1329585
1144.90 0.1329222
1145.00 0.1328858
1145.10 0.1328495
1145.20 0.1328132
1145.30 0.1327769
1145.40 0.1327407
1145.50 0.1327044
1145.60 0.1326681
1145.70 0.1326319
1145.80 0.1325957
1145.90 0.1325594
1146.00 0.1325232
1146.10 0.132487
1146.20 0.1324508
1146.30 0.1324146
1146.40 0.1323785
1146.50 0.1323423
1146.60 0.1323062
1146.70 0.13227
1146.80 0.1322339
1146.90 0.1321978
1147.00 0.1321617
1147.10 0.1321256
1147.20 0.1320895
1147.30 0.1320534
1147.40 0.1320173
1147.50 0.1319813
1147.60 0.1319452
1147.70 0.1319092
1147.80 0.1318732
1147.90 0.1318372
1148.00 0.1318012
1148.10 0.1317652
1148.20 0.1317292
1148.30 0.1316932
1148.40 0.1316573
1148.50 0.1316213
1148.60 0.1315854
1148.70 0.1315494
1148.80 0.1315135
1148.90 0.1314776
1149.00 0.1314417
1149.10 0.1314058
1149.20 0.13137
1149.30 0.1313341
1149.40 0.1312982
1149.50 0.1312624
1149.60 0.1312266
1149.70 0.1311907
1149.80 0.1311549
1149.90 0.1311191
1150.00 0.1310833
1150.10 0.1310475
1150.20 0.1310118
1150.30 0.130976
1150.40 0.1309403
1150.50 0.1309045
1150.60 0.1308688
1150.70 0.130834
1150.80 0.1307992
1150.90 0.1307644
1151.00 0.1307296
1151.10 0.1306948
1151.20 0.13066
1151.30 0.1306252
1151.40 0.1305904
1151.50 0.1305557
1151.60 0.1305209
1151.70 0.1304862
1151.80 0.1304515
1151.90 0.1304168
1152.00 0.130382
1152.10 0.1303474
1152.20 0.1303127
1152.30 0.130278
1152.40 0.1302433
1152.50 0.1302087
1152.60 0.130174
1152.70 0.1301394
1152.80 0.1301048
1152.90 0.1300702
1153.00 0.1300355
1153.10 0.130001
1153.20 0.1299664
1153.30 0.1299318
1153.40 0.1298972
1153.50 0.1298627
1153.60 0.1298281
1153.70 0.1297936
1153.80 0.1297591
1153.90 0.1297246
1154.00 0.12969
1154.10 0.1296556
1154.20 0.1296211
1154.30 0.1295866
1154.40 0.1295521
1154.50 0.1295177
1154.60 0.1294832
1154.70 0.1294488
1154.80 0.1294144
1154.90 0.12938
1155.00 0.1293456
1155.10 0.1293112
1155.20 0.1292768
1155.30 0.1292424
1155.40 0.129208
1155.50 0.1291737
1155.60 0.1291393
1155.70 0.129105
1155.80 0.1290707
1155.90 0.1290364
1156.00 0.1290021
1156.10 0.1289678
1156.20 0.1289335
1156.30 0.1288992
1156.40 0.1288649
1156.50 0.1288307
1156.60 0.1287964
1156.70 0.1287622
1156.80 0.128728
1156.90 0.1286938
1157.00 0.1286596
1157.10 0.1286254
1157.20 0.1285912
1157.30 0.128557
1157.40 0.1285229
1157.50 0.1284887
1157.60 0.1284546
1157.70 0.1284204
1157.80 0.1283863
1157.90 0.1283522
1158.00 0.1283181
1158.10 0.128284
1158.20 0.1282499
1158.30 0.1282159
1158.40 0.1281818
1158.50 0.1281477
1158.60 0.1281137
1158.70 0.1280797
1158.80 0.1280456
1158.90 0.1280116
1159.00 0.1279776
1159.10 0.1279436
1159.20 0.1279096
1159.30 0.1278757
1159.40 0.1278417
1159.50 0.1278077
1159.60 0.1277738
1159.70 0.1277399
1159.80 0.1277059
1159.90 0.127672
1160.00 0.1276381
1160.10 0.1276042
1160.20 0.1275703
1160.30 0.1275365
1160.40 0.1275026
1160.50 0.1274687
1160.60 0.1274349
1160.70 0.127401
1160.80 0.1273672
1160.90 0.1273334
1161.00 0.1272996
1161.10 0.1272658
1161.20 0.127232
1161.30 0.1271982
1161.40 0.1271645
1161.50 0.1271307
1161.60 0.1270969
1161.70 0.1270632
1161.80 0.1270295
1161.90 0.1269958
1162.00 0.126962
1162.10 0.1269283
1162.20 0.1268933
1162.30 0.1268583
1162.40 0.1268232
1162.50 0.1267882
1162.60 0.1267532
1162.70 0.1267182
1162.80 0.1266832
1162.90 0.1266483
1163.00 0.1266133
1163.10 0.1265784
1163.20 0.1265434
1163.30 0.1265085
1163.40 0.1264736
1163.50 0.1264386
1163.60 0.1264037
1163.70 0.1263689
1163.80 0.126334
1163.90 0.1262991
1164.00 0.1262642
1164.10 0.1262294
1164.20 0.1261945
1164.30 0.1261597
1164.40 0.1261249
1164.50 0.1260901
1164.60 0.1260553
1164.70 0.1260205
1164.80 0.1259857
1164.90 0.1259509
1165.00 0.1259162
1165.10 0.1258814
1165.20 0.1258467
1165.30 0.125812
1165.40 0.1257772
1165.50 0.1257425
1165.60 0.1257078
1165.70 0.1256731
1165.80 0.1256385
1165.90 0.1256038
1166.00 0.1255691
1166.10 0.1255345
1166.20 0.1254998
1166.30 0.1254652
1166.40 0.1254306
1166.50 0.125396
1166.60 0.1253614
1166.70 0.1253268
1166.80 0.1252922
1166.90 0.1252576
1167.00 0.1252231
1167.10 0.1251885
1167.20 0.125154
1167.30 0.1251195
1167.40 0.1250849
1167.50 0.1250504
1167.60 0.1250159
1167.70 0.1249814
1167.80 0.124947
1167.90 0.1249125
1168.00 0.1248793
1168.10 0.1248463
1168.20 0.1248134
1168.30 0.1247804
1168.40 0.1247474
1168.50 0.1247145
1168.60 0.1246815
1168.70 0.1246486
1168.80 0.1246156
1168.90 0.1245827
1169.00 0.1245498
1169.10 0.1245169
1169.20 0.124484
1169.30 0.1244511
1169.40 0.1244183
1169.50 0.1243854
1169.60 0.1243525
1169.70 0.1243197
1169.80 0.1242869
1169.90 0.124254
1170.00 0.1242212
1170.10 0.1241884
1170.20 0.1241556
1170.30 0.1241228
1170.40 0.12409
1170.50 0.1240573
1170.60 0.1240245
1170.70 0.1239918
1170.80 0.123959
1170.90 0.1239263
1171.00 0.1238936
1171.10 0.1238608
1171.20 0.1238281
1171.30 0.1237954
1171.40 0.1237628
1171.50 0.1237301
1171.60 0.1236974
1171.70 0.1236648
1171.80 0.1236321
1171.90 0.1235995
1172.00 0.1235668
1172.10 0.1235342
1172.20 0.1235016
1172.30 0.123469
1172.40 0.1234364
1172.50 0.1234038
1172.60 0.1233713
1172.70 0.1233387
1172.80 0.1233061
1172.90 0.1232736
1173.00 0.1232411
1173.10 0.1232085
1173.20 0.123176
1173.30 0.1231435
1173.40 0.123111
1173.50 0.1230785
1173.60 0.123046
1173.70 0.1230136
1173.80 0.1229812
1173.90 0.1229489
1174.00 0.1229165
1174.10 0.1228842
1174.20 0.1228519
1174.30 0.1228196
1174.40 0.1227873
1174.50 0.122755
1174.60 0.1227227
1174.70 0.1226905
1174.80 0.1226582
1174.90 0.122626
1175.00 0.1225937
1175.10 0.1225615
1175.20 0.1225293
1175.30 0.1224971
1175.40 0.1224649
1175.50 0.1224327
1175.60 0.1224005
1175.70 0.1223683
1175.80 0.1223361
1175.90 0.122304
1176.00 0.1222718
1176.10 0.1222397
1176.20 0.1222076
1176.30 0.1221754
1176.40 0.1221433
1176.50 0.1221112
1176.60 0.1220791
1176.70 0.1220471
1176.80 0.122015
1176.90 0.1219829
1177.00 0.1219509
1177.10 0.1219188
1177.20 0.1218868
1177.30 0.1218547
1177.40 0.1218227
1177.50 0.1217907
1177.60 0.1217587
1177.70 0.1217267
1177.80 0.1216947
1177.90 0.1216628
1178.00 0.1216308
1178.10 0.1215988
1178.20 0.1215669
1178.30 0.121535
1178.40 0.121503
1178.50 0.1214711
1178.60 0.1214392
1178.70 0.1214073
1178.80 0.1213754
1178.90 0.1213435
1179.00 0.1213117
1179.10 0.1212798
1179.20 0.1212479
1179.30 0.1212161
1179.40 0.1211842
1179.50 0.1211524
1179.60 0.1211206
1179.70 0.1210888
1179.80 0.121057
1179.90 0.1210252
1180.00 0.1209934
1180.10 0.1209616
1180.20 0.1209299
1180.30 0.1208981
1180.40 0.1208664
1180.50 0.1208346
1180.60 0.1208029
1180.70 0.1207712
1180.80 0.1207395
1180.90 0.1207078
1181.00 0.1206761
1181.10 0.1206444
1181.20 0.1206127
1181.30 0.1205811
1181.40 0.1205494
1181.50 0.1205178
1181.60 0.1204861
1181.70 0.1204545
1181.80 0.1204229
1181.90 0.1203913
1182.00 0.1203597
1182.10 0.1203281
1182.20 0.1202965
1182.30 0.1202649
1182.40 0.1202334
1182.50 0.1202018
1182.60 0.1201703
1182.70 0.1201387
1182.80 0.1201072
1182.90 0.1200757
1183.00 0.1200442
1183.10 0.1200127
1183.20 0.1199812
1183.30 0.1199497
1183.40 0.1199182
1183.50 0.1198867
1183.60 0.1198553
1183.70 0.1198238
1183.80 0.1197924
1183.90 0.119761
1184.00 0.1197295
1184.10 0.1196981
1184.20 0.1196667
1184.30 0.1196353
1184.40 0.1196039
1184.50 0.1195725
1184.60 0.1195412
1184.70 0.1195098
1184.80 0.1194785
1184.90 0.1194471
1185.00 0.1194158
1185.10 0.1193845
1185.20 0.1193532
1185.30 0.1193218
1185.40 0.1192905
1185.50 0.1192593
1185.60 0.1192281
1185.70 0.119197
1185.80 0.1191658
1185.90 0.1191347
1186.00 0.1191035
1186.10 0.1190724
1186.20 0.1190413
1186.30 0.1190102
1186.40 0.1189791
1186.50 0.118948
1186.60 0.1189169
1186.70 0.1188858
1186.80 0.1188548
1186.90 0.1188237
1187.00 0.1187927
1187.10 0.1187616
1187.20 0.1187306
1187.30 0.1186996
1187.40 0.1186686
1187.50 0.1186375
1187.60 0.1186066
1187.70 0.1185756
1187.80 0.1185446
1187.90 0.1185136
1188.00 0.1184827
1188.10 0.1184517
1188.20 0.1184208
1188.30 0.1183898
1188.40 0.1183589
1188.50 0.118328
1188.60 0.1182971
1188.70 0.1182662
1188.80 0.1182353
1188.90 0.1182044
1189.00 0.1181735
1189.10 0.1181427
1189.20 0.1181118
1189.30 0.118081
1189.40 0.1180501
1189.50 0.1180193
1189.60 0.1179885
1189.70 0.1179577
1189.80 0.1179269
1189.90 0.1178961
1190.00 0.1178653
1190.10 0.1178345
1190.20 0.1178037
1190.30 0.117773
1190.40 0.1177422
1190.50 0.1177115
1190.60 0.1176807
1190.70 0.11765
1190.80 0.1176193
1190.90 0.1175886
1191.00 0.1175579
1191.10 0.1175272
1191.20 0.1174965
1191.30 0.1174658
1191.40 0.117435
1191.50 0.1174029
1191.60 0.1173709
1191.70 0.1173389
1191.80 0.1173069
1191.90 0.1172749
1192.00 0.117243
1192.10 0.117211
1192.20 0.117179
1192.30 0.1171471
1192.40 0.1171151
1192.50 0.1170832
1192.60 0.1170513
1192.70 0.1170194
1192.80 0.1169875
1192.90 0.1169556
1193.00 0.1169237
1193.10 0.1168918
1193.20 0.1168599
1193.30 0.1168281
1193.40 0.1167962
1193.50 0.1167644
1193.60 0.1167325
1193.70 0.1167007
1193.80 0.1166689
1193.90 0.1166371
1194.00 0.1166053
1194.10 0.1165735
1194.20 0.1165417
1194.30 0.1165099
1194.40 0.1164782
1194.50 0.1164464
1194.60 0.1164147
1194.70 0.1163829
1194.80 0.1163512
1194.90 0.1163195
1195.00 0.1162878
1195.10 0.1162561
1195.20 0.1162244
1195.30 0.1161927
1195.40 0.1161611
1195.50 0.1161294
1195.60 0.1160977
1195.70 0.1160661
1195.80 0.1160345
1195.90 0.1160028
1196.00 0.1159712
1196.10 0.1159396
1196.20 0.115908
1196.30 0.1158764
1196.40 0.1158448
1196.50 0.1158133
1196.60 0.1157817
1196.70 0.1157501
1196.80 0.1157186
1196.90 0.115687
1197.00 0.1156555
1197.10 0.115624
1197.20 0.1155925
1197.30 0.115561
1197.40 0.1155308
1197.50 0.1155008
1197.60 0.1154707
1197.70 0.1154407
1197.80 0.1154107
1197.90 0.1153808
1198.00 0.1153508
1198.10 0.1153208
1198.20 0.1152908
1198.30 0.1152609
1198.40 0.1152309
1198.50 0.115201
1198.60 0.1151711
1198.70 0.1151412
1198.80 0.1151112
1198.90 0.1150813
1199.00 0.1150514
1199.10 0.1150216
1199.20 0.1149917
1199.30 0.1149618
1199.40 0.1149319
1199.50 0.1149021
1199.60 0.1148722
1199.70 0.1148424
1199.80 0.1148126
1199.90 0.1147828
1200.00 0.1147529
