# Version 2.1 - nm, norm@500 to 1, cut digits, bergeron_He_8000_90.dat_8000
# Wavelength(nm)  Flambda(ergs/cm^s/s/nm)
300.00 1.343904
300.10 1.344375
300.20 1.344873
300.30 1.345335
300.40 1.345559
300.50 1.345781
300.60 1.346003
300.70 1.346225
300.80 1.346446
300.90 1.346666
301.00 1.346886
301.10 1.347105
301.20 1.347324
301.30 1.347542
301.40 1.347759
301.50 1.347976
301.60 1.348192
301.70 1.348408
301.80 1.348623
301.90 1.348837
302.00 1.349051
302.10 1.349251
302.20 1.34945
302.30 1.349648
302.40 1.349845
302.50 1.350042
302.60 1.350239
302.70 1.350434
302.80 1.350629
302.90 1.350824
303.00 1.351018
303.10 1.351212
303.20 1.351405
303.30 1.351603
303.40 1.351848
303.50 1.352092
303.60 1.352336
303.70 1.352579
303.80 1.352822
303.90 1.353064
304.00 1.353306
304.10 1.353546
304.20 1.353787
304.30 1.354026
304.40 1.354265
304.50 1.354504
304.60 1.35472
304.70 1.354933
304.80 1.355146
304.90 1.355358
305.00 1.35557
305.10 1.355781
305.20 1.355991
305.30 1.356201
305.40 1.356411
305.50 1.35662
305.60 1.356828
305.70 1.357035
305.80 1.357243
305.90 1.357449
306.00 1.357655
306.10 1.35786
306.20 1.358065
306.30 1.35827
306.40 1.358488
306.50 1.358709
306.60 1.358931
306.70 1.359151
306.80 1.359371
306.90 1.359591
307.00 1.35981
307.10 1.360028
307.20 1.360246
307.30 1.360463
307.40 1.36068
307.50 1.360896
307.60 1.361111
307.70 1.361326
307.80 1.361541
307.90 1.361754
308.00 1.361968
308.10 1.36218
308.20 1.362392
308.30 1.362604
308.40 1.362815
308.50 1.363025
308.60 1.363235
308.70 1.363444
308.80 1.36362
308.90 1.363702
309.00 1.363819
309.10 1.363936
309.20 1.364052
309.30 1.364168
309.40 1.364285
309.50 1.364406
309.60 1.364527
309.70 1.364647
309.80 1.364767
309.90 1.364886
310.00 1.365005
310.10 1.365124
310.20 1.365242
310.30 1.36536
310.40 1.365526
310.50 1.365744
310.60 1.365961
310.70 1.366178
310.80 1.366395
310.90 1.366611
311.00 1.366694
311.10 1.366776
311.20 1.366859
311.30 1.366966
311.40 1.367144
311.50 1.367322
311.60 1.367499
311.70 1.367676
311.80 1.367852
311.90 1.368028
312.00 1.368203
312.10 1.368378
312.20 1.368937
312.30 1.369183
312.40 1.368967
312.50 1.36947
312.60 1.369551
312.70 1.369632
312.80 1.369712
312.90 1.369872
313.00 1.370119
313.10 1.370366
313.20 1.370611
313.30 1.370819
313.40 1.37092
313.50 1.371021
313.60 1.371121
313.70 1.371221
313.80 1.371321
313.90 1.37142
314.00 1.371519
314.10 1.371709
314.20 1.371898
314.30 1.372087
314.40 1.372276
314.50 1.372463
314.60 1.372651
314.70 1.372838
314.80 1.372749
314.90 1.372636
315.00 1.373344
315.10 1.373446
315.20 1.373547
315.30 1.373648
315.40 1.373749
315.50 1.373849
315.60 1.373949
315.70 1.373951
315.80 1.373953
315.90 1.373955
316.00 1.373957
316.10 1.374248
316.20 1.374539
316.30 1.374829
316.40 1.37454
316.50 1.374829
316.60 1.374539
316.70 1.374828
316.80 1.375115
316.90 1.375402
317.00 1.375689
317.10 1.375975
317.20 1.37626
317.30 1.376055
317.40 1.375958
317.50 1.376172
317.60 1.376385
317.70 1.376598
317.80 1.37681
317.90 1.376699
318.00 1.376523
318.10 1.376804
318.20 1.377084
318.30 1.377364
318.40 1.377494
318.50 1.377201
318.60 1.377502
318.70 1.377209
318.80 1.377315
318.90 1.377591
319.00 1.378016
319.10 1.377722
319.20 1.377593
319.30 1.377934
319.40 1.378274
319.50 1.378614
319.60 1.37861
319.70 1.378648
319.80 1.378686
319.90 1.378724
320.00 1.378873
320.10 1.379144
320.20 1.378871
320.30 1.37914
320.40 1.379409
320.50 1.379339
320.60 1.379359
320.70 1.379626
320.80 1.379758
320.90 1.379743
321.00 1.379727
321.10 1.379712
321.20 1.379544
321.30 1.379657
321.40 1.37977
321.50 1.379883
321.60 1.379995
321.70 1.380106
321.80 1.380479
321.90 1.381134
322.00 1.380782
322.10 1.380898
322.20 1.381014
322.30 1.381129
322.40 1.381244
322.50 1.381358
322.60 1.381472
322.70 1.381586
322.80 1.381465
322.90 1.381499
323.00 1.381532
323.10 1.381565
323.20 1.381597
323.30 1.38163
323.40 1.381662
323.50 1.381694
323.60 1.381725
323.70 1.381756
323.80 1.381787
323.90 1.381817
324.00 1.381851
324.10 1.381884
324.20 1.381916
324.30 1.382086
324.40 1.382423
324.50 1.382516
324.60 1.382608
324.70 1.382701
324.80 1.382792
324.90 1.382884
325.00 1.382975
325.10 1.383065
325.20 1.383099
325.30 1.383013
325.40 1.382926
325.50 1.382992
325.60 1.383245
325.70 1.383497
325.80 1.383749
325.90 1.383845
326.00 1.383772
326.10 1.383698
326.20 1.383625
326.30 1.383575
326.40 1.383591
326.50 1.383643
326.60 1.383694
326.70 1.383745
326.80 1.383796
326.90 1.383846
327.00 1.383896
327.10 1.383946
327.20 1.383996
327.30 1.384045
327.40 1.384094
327.50 1.384142
327.60 1.38419
327.70 1.384238
327.80 1.384286
327.90 1.384408
328.00 1.384558
328.10 1.384642
328.20 1.384727
328.30 1.384811
328.40 1.384895
328.50 1.384964
328.60 1.385028
328.70 1.385093
328.80 1.385158
328.90 1.385223
329.00 1.385288
329.10 1.385353
329.20 1.385418
329.30 1.385482
329.40 1.385546
329.50 1.38561
329.60 1.385673
329.70 1.385736
329.80 1.385799
329.90 1.385861
330.00 1.385879
330.10 1.385844
330.20 1.385809
330.30 1.385773
330.40 1.385768
330.50 1.385796
330.60 1.385823
330.70 1.38585
330.80 1.385877
330.90 1.385904
331.00 1.385931
331.10 1.385957
331.20 1.385983
331.30 1.386008
331.40 1.386034
331.50 1.386053
331.60 1.386064
331.70 1.386075
331.80 1.386097
331.90 1.386119
332.00 1.386141
332.10 1.386162
332.20 1.386183
332.30 1.386204
332.40 1.386225
332.50 1.386246
332.60 1.386266
332.70 1.386286
332.80 1.386305
332.90 1.386324
333.00 1.386344
333.10 1.386356
333.20 1.386359
333.30 1.386363
333.40 1.386366
333.50 1.386369
333.60 1.386371
333.70 1.386374
333.80 1.386376
333.90 1.386378
334.00 1.38638
334.10 1.386396
334.20 1.386432
334.30 1.386468
334.40 1.386503
334.50 1.386538
334.60 1.386572
334.70 1.386666
334.80 1.386749
334.90 1.38671
335.00 1.386671
335.10 1.386242
335.20 1.385931
335.30 1.38642
335.40 1.386237
335.50 1.385926
335.60 1.386001
335.70 1.386436
335.80 1.386125
335.90 1.386045
336.00 1.386247
336.10 1.386449
336.20 1.386651
336.30 1.386698
336.40 1.386557
336.50 1.386416
336.60 1.386274
336.70 1.386133
336.80 1.385992
336.90 1.385999
337.00 1.386187
337.10 1.386376
337.20 1.386563
337.30 1.386617
337.40 1.386479
337.50 1.386341
337.60 1.386203
337.70 1.386064
337.80 1.385926
337.90 1.385835
338.00 1.385802
338.10 1.385769
338.20 1.385736
338.30 1.385702
338.40 1.385672
338.50 1.385651
338.60 1.38563
338.70 1.385609
338.80 1.385588
338.90 1.385566
339.00 1.385544
339.10 1.385522
339.20 1.3855
339.30 1.385574
339.40 1.385785
339.50 1.38588
339.60 1.385835
339.70 1.38579
339.80 1.385745
339.90 1.3857
340.00 1.385654
340.10 1.385608
340.20 1.385562
340.30 1.385516
340.40 1.385469
340.50 1.385423
340.60 1.385376
340.70 1.385329
340.80 1.385386
340.90 1.385592
341.00 1.385675
341.10 1.385611
341.20 1.385546
341.30 1.385481
341.40 1.385415
341.50 1.38535
341.60 1.385284
341.70 1.385219
341.80 1.385133
341.90 1.385023
342.00 1.384913
342.10 1.384803
342.20 1.385048
342.30 1.385304
342.40 1.385187
342.50 1.385042
342.60 1.384896
342.70 1.384751
342.80 1.384606
342.90 1.38446
343.00 1.384346
343.10 1.384271
343.20 1.384196
343.30 1.38412
343.40 1.384081
343.50 1.384094
343.60 1.384107
343.70 1.38412
343.80 1.384133
343.90 1.384145
344.00 1.384124
344.10 1.384054
344.20 1.383984
344.30 1.383914
344.40 1.383944
344.50 1.384118
344.60 1.383891
344.70 1.384064
344.80 1.384237
344.90 1.383434
345.00 1.383806
345.10 1.383491
345.20 1.383382
345.30 1.383566
345.40 1.38375
345.50 1.383491
345.60 1.383022
345.70 1.383031
345.80 1.38304
345.90 1.383048
346.00 1.383056
346.10 1.383063
346.20 1.383058
346.30 1.383033
346.40 1.383007
346.50 1.382982
346.60 1.382956
346.70 1.382931
346.80 1.382905
346.90 1.382878
347.00 1.382852
347.10 1.382825
347.20 1.382779
347.30 1.382705
347.40 1.382631
347.50 1.382556
347.60 1.382481
347.70 1.382407
347.80 1.382332
347.90 1.382257
348.00 1.382181
348.10 1.382106
348.20 1.38203
348.30 1.381955
348.40 1.381879
348.50 1.381803
348.60 1.381727
348.70 1.381643
348.80 1.381555
348.90 1.381461
349.00 1.381368
349.10 1.381275
349.20 1.381181
349.30 1.381087
349.40 1.380994
349.50 1.3809
349.60 1.380806
349.70 1.380712
349.80 1.380617
349.90 1.380523
350.00 1.380429
350.10 1.380334
350.20 1.380239
350.30 1.380141
350.40 1.380037
350.50 1.379933
350.60 1.379829
350.70 1.379725
350.80 1.379621
350.90 1.379516
351.00 1.379412
351.10 1.379307
351.20 1.379203
351.30 1.379098
351.40 1.37902
351.50 1.378991
351.60 1.378961
351.70 1.378931
351.80 1.378901
351.90 1.378871
352.00 1.37884
352.10 1.378809
352.20 1.378666
352.30 1.378551
352.40 1.378493
352.50 1.378434
352.60 1.378375
352.70 1.378317
352.80 1.378258
352.90 1.378199
353.00 1.378139
353.10 1.37808
353.20 1.37802
353.30 1.377961
353.40 1.377901
353.50 1.377767
353.60 1.377614
353.70 1.377462
353.80 1.377309
353.90 1.377155
354.00 1.376997
354.10 1.37684
354.20 1.376682
354.30 1.376525
354.40 1.376367
354.50 1.376209
354.60 1.376051
354.70 1.375894
354.80 1.375825
354.90 1.375885
355.00 1.375945
355.10 1.376004
355.20 1.376063
355.30 1.375928
355.40 1.375793
355.50 1.375658
355.60 1.375523
355.70 1.37549
355.80 1.375503
355.90 1.375234
356.00 1.374968
356.10 1.374829
356.20 1.37469
356.30 1.374552
356.40 1.374413
356.50 1.374274
356.60 1.374135
356.70 1.373995
356.80 1.373856
356.90 1.373717
357.00 1.373578
357.10 1.373438
357.20 1.373299
357.30 1.373159
357.40 1.373085
357.50 1.373127
357.60 1.373169
357.70 1.373211
357.80 1.372855
357.90 1.3725
358.00 1.37237
358.10 1.372297
358.20 1.372223
358.30 1.37215
358.40 1.372076
358.50 1.372002
358.60 1.371928
358.70 1.371854
358.80 1.37178
358.90 1.371705
359.00 1.371673
359.10 1.371716
359.20 1.371704
359.30 1.371326
359.40 1.370948
359.50 1.370775
359.60 1.370654
359.70 1.370532
359.80 1.370449
359.90 1.370366
360.00 1.370278
360.10 1.370183
360.20 1.370089
360.30 1.369994
360.40 1.369899
360.50 1.369803
360.60 1.369291
360.70 1.369201
360.80 1.36911
360.90 1.369019
361.00 1.36926
361.10 1.369314
361.20 1.36895
361.30 1.368548
361.40 1.368324
361.50 1.368454
361.60 1.368017
361.70 1.368147
361.80 1.368207
361.90 1.368143
362.00 1.368078
362.10 1.367952
362.20 1.367799
362.30 1.367626
362.40 1.367452
362.50 1.367278
362.60 1.367105
362.70 1.366957
362.80 1.366595
362.90 1.366718
363.00 1.366841
363.10 1.366494
363.20 1.366143
363.30 1.36635
363.40 1.365818
363.50 1.365725
363.60 1.365851
363.70 1.365587
363.80 1.365226
363.90 1.365101
364.00 1.364977
364.10 1.364852
364.20 1.364727
364.30 1.364491
364.40 1.364227
364.50 1.364358
364.60 1.364189
364.70 1.36402
364.80 1.363852
364.90 1.363975
365.00 1.364099
365.10 1.363351
365.20 1.363475
365.30 1.363163
365.40 1.362851
365.50 1.362973
365.60 1.363096
365.70 1.362744
365.80 1.362393
365.90 1.362113
366.00 1.361849
366.10 1.361743
366.20 1.361637
366.30 1.361531
366.40 1.361425
366.50 1.36158
366.60 1.36171
366.70 1.361294
366.80 1.360878
366.90 1.360569
367.00 1.360447
367.10 1.360325
367.20 1.360203
367.30 1.360081
367.40 1.359958
367.50 1.359724
367.60 1.359461
367.70 1.359399
367.80 1.359336
367.90 1.359274
368.00 1.359076
368.10 1.359183
368.20 1.359011
368.30 1.358833
368.40 1.358655
368.50 1.358478
368.60 1.3583
368.70 1.358122
368.80 1.357945
368.90 1.357566
369.00 1.357583
369.10 1.357788
369.20 1.357062
369.30 1.356894
369.40 1.356726
369.50 1.356559
369.60 1.356669
369.70 1.35678
369.80 1.356508
369.90 1.356233
370.00 1.355958
370.10 1.35555
370.20 1.355656
370.30 1.35577
370.40 1.355448
370.50 1.35516
370.60 1.355273
370.70 1.354542
370.80 1.35465
370.90 1.354759
371.00 1.354456
371.10 1.35415
371.20 1.353839
371.30 1.353528
371.40 1.353813
371.50 1.353554
371.60 1.353295
371.70 1.353036
371.80 1.352777
371.90 1.352518
372.00 1.352873
372.10 1.352744
372.20 1.352576
372.30 1.352407
372.40 1.352238
372.50 1.352069
372.60 1.351901
372.70 1.351732
372.80 1.351422
372.90 1.351112
373.00 1.350807
373.10 1.350501
373.20 1.35061
373.30 1.350719
373.40 1.350412
373.50 1.350104
373.60 1.350213
373.70 1.34949
373.80 1.34978
373.90 1.349706
374.00 1.349399
374.10 1.349092
374.20 1.348785
374.30 1.348478
374.40 1.348275
374.50 1.348672
374.60 1.348382
374.70 1.348077
374.80 1.347771
374.90 1.347466
375.00 1.347297
375.10 1.347128
375.20 1.34696
375.30 1.34683
375.40 1.3467
375.50 1.346571
375.60 1.346441
375.70 1.346311
375.80 1.346181
375.90 1.346052
376.00 1.346148
376.10 1.345794
376.20 1.345436
376.30 1.345077
376.40 1.34472
376.50 1.344445
376.60 1.344295
376.70 1.344145
376.80 1.343999
376.90 1.343857
377.00 1.343715
377.10 1.343572
377.20 1.343417
377.30 1.343213
377.40 1.343008
377.50 1.342804
377.60 1.342623
377.70 1.342442
377.80 1.342262
377.90 1.342081
378.00 1.341689
378.10 1.341537
378.20 1.341391
378.30 1.341244
378.40 1.341098
378.50 1.340952
378.60 1.340805
378.70 1.340659
378.80 1.340512
378.90 1.340379
379.00 1.34027
379.10 1.339885
379.20 1.339501
379.30 1.339216
379.40 1.33903
379.50 1.338844
379.60 1.338721
379.70 1.338653
379.80 1.338437
379.90 1.338221
380.00 1.338006
380.10 1.33779
380.20 1.337574
380.30 1.337359
380.40 1.337143
380.50 1.336928
380.60 1.337249
380.70 1.337092
380.80 1.336935
380.90 1.336779
381.00 1.336622
381.10 1.336419
381.20 1.336018
381.30 1.335466
381.40 1.335557
381.50 1.335266
381.60 1.335079
381.70 1.334908
381.80 1.335004
381.90 1.334305
382.00 1.334401
382.10 1.3341
382.20 1.333958
382.30 1.333657
382.40 1.333414
382.50 1.333258
382.60 1.333102
382.70 1.333075
382.80 1.332971
382.90 1.332644
383.00 1.332317
383.10 1.33199
383.20 1.331677
383.30 1.331419
383.40 1.331211
383.50 1.33108
383.60 1.331212
383.70 1.330933
383.80 1.330655
383.90 1.330376
384.00 1.330098
384.10 1.32982
384.20 1.329542
384.30 1.329264
384.40 1.329053
384.50 1.328911
384.60 1.328768
384.70 1.328625
384.80 1.328559
384.90 1.328578
385.00 1.328223
385.10 1.327863
385.20 1.327546
385.30 1.32765
385.40 1.32754
385.50 1.327215
385.60 1.32689
385.70 1.326566
385.80 1.326261
385.90 1.326029
386.00 1.325846
386.10 1.325715
386.20 1.325629
386.30 1.325543
386.40 1.325157
386.50 1.324791
386.60 1.324562
386.70 1.324653
386.80 1.324162
386.90 1.324058
387.00 1.324148
387.10 1.323464
387.20 1.323554
387.30 1.32289
387.40 1.322961
387.50 1.322622
387.60 1.32249
387.70 1.322386
387.80 1.322283
387.90 1.322179
388.00 1.321954
388.10 1.32139
388.20 1.321484
388.30 1.321048
388.40 1.320611
388.50 1.320326
388.60 1.320397
388.70 1.320267
388.80 1.319876
388.90 1.319677
389.00 1.319765
389.10 1.319402
389.20 1.319174
389.30 1.318634
389.40 1.318349
389.50 1.318164
389.60 1.318181
389.70 1.318219
389.80 1.317932
389.90 1.317645
390.00 1.317358
390.10 1.317072
390.20 1.316786
390.30 1.316533
390.40 1.316318
390.50 1.316103
390.60 1.315888
390.70 1.315673
390.80 1.315443
390.90 1.315199
391.00 1.314841
391.10 1.314905
391.20 1.314814
391.30 1.314379
391.40 1.314212
391.50 1.314046
391.60 1.313879
391.70 1.313712
391.80 1.313545
391.90 1.313142
392.00 1.312733
392.10 1.312717
392.20 1.312641
392.30 1.312229
392.40 1.312057
392.50 1.31152
392.60 1.311473
392.70 1.311557
392.80 1.310889
392.90 1.311113
393.00 1.310846
393.10 1.31039
393.20 1.309791
393.30 1.309875
393.40 1.309891
393.50 1.309226
393.60 1.309309
393.70 1.308644
393.80 1.308761
393.90 1.30847
394.00 1.308146
394.10 1.307838
394.20 1.307933
394.30 1.307648
394.40 1.307047
394.50 1.307068
394.60 1.306821
394.70 1.30656
394.80 1.306239
394.90 1.305932
395.00 1.305991
395.10 1.305851
395.20 1.305605
395.30 1.305186
395.40 1.304768
395.50 1.304614
395.60 1.304557
395.70 1.304463
395.80 1.304269
395.90 1.304076
396.00 1.30384
396.10 1.303282
396.20 1.302994
396.30 1.302606
396.40 1.302687
396.50 1.302647
396.60 1.30211
396.70 1.301712
396.80 1.301834
396.90 1.301615
397.00 1.300959
397.10 1.300917
397.20 1.300549
397.30 1.30059
397.40 1.300397
397.50 1.300204
397.60 1.299994
397.70 1.2996
397.80 1.299207
397.90 1.298885
398.00 1.298755
398.10 1.298625
398.20 1.298391
398.30 1.298039
398.40 1.297694
398.50 1.297605
398.60 1.297106
398.70 1.296931
398.80 1.296876
398.90 1.296802
399.00 1.296692
399.10 1.296072
399.20 1.295757
399.30 1.295441
399.40 1.295126
399.50 1.294811
399.60 1.294592
399.70 1.294407
399.80 1.294223
399.90 1.294039
400.00 1.293857
400.10 1.293768
400.20 1.293272
400.30 1.293083
400.40 1.293009
400.50 1.292781
400.60 1.292399
400.70 1.292116
400.80 1.292164
400.90 1.291646
401.00 1.291723
401.10 1.291079
401.20 1.291001
401.30 1.290512
401.40 1.290259
401.50 1.290149
401.60 1.29004
401.70 1.28995
401.80 1.289458
401.90 1.289191
402.00 1.288919
402.10 1.288969
402.20 1.288328
402.30 1.288404
402.40 1.287764
402.50 1.28784
402.60 1.287239
402.70 1.287276
402.80 1.286995
402.90 1.286999
403.00 1.286717
403.10 1.28615
403.20 1.286226
403.30 1.285588
403.40 1.28551
403.50 1.285359
403.60 1.285101
403.70 1.284465
403.80 1.284552
403.90 1.28432
404.00 1.283979
404.10 1.284054
404.20 1.283773
404.30 1.283493
404.40 1.282859
404.50 1.282579
404.60 1.282299
404.70 1.282374
404.80 1.281761
404.90 1.281814
405.00 1.281181
405.10 1.280953
405.20 1.280825
405.30 1.280698
405.40 1.280419
405.50 1.28014
405.60 1.279861
405.70 1.279583
405.80 1.279304
405.90 1.279026
406.00 1.278821
406.10 1.278615
406.20 1.27841
406.30 1.278205
406.40 1.277987
406.50 1.277536
406.60 1.277432
406.70 1.277023
406.80 1.276669
406.90 1.276262
407.00 1.276055
407.10 1.275848
407.20 1.275641
407.30 1.275434
407.40 1.275227
407.50 1.275021
407.60 1.274814
407.70 1.274607
407.80 1.274401
407.90 1.274193
408.00 1.273949
408.10 1.273629
408.20 1.273187
408.30 1.27279
408.40 1.272393
408.50 1.272526
408.60 1.272144
408.70 1.271762
408.80 1.271441
408.90 1.271489
409.00 1.271133
409.10 1.270778
409.20 1.270423
409.30 1.270068
409.40 1.26972
409.50 1.269589
409.60 1.269457
409.70 1.269292
409.80 1.268991
409.90 1.2687
410.00 1.268751
410.10 1.268133
410.20 1.267945
410.30 1.267865
410.40 1.267711
410.50 1.26732
410.60 1.266929
410.70 1.266548
410.80 1.26621
410.90 1.265872
411.00 1.265615
411.10 1.265388
411.20 1.265161
411.30 1.264974
411.40 1.264935
411.50 1.264562
411.60 1.26419
411.70 1.263837
411.80 1.263566
411.90 1.263226
412.00 1.263296
412.10 1.262683
412.20 1.262753
412.30 1.262257
412.40 1.26221
412.50 1.261695
412.60 1.261571
412.70 1.261268
412.80 1.260922
412.90 1.260541
413.00 1.26065
413.10 1.260309
413.20 1.259969
413.30 1.259629
413.40 1.259289
413.50 1.259036
413.60 1.259045
413.70 1.258776
413.80 1.258506
413.90 1.258236
414.00 1.257967
414.10 1.257698
414.20 1.257347
414.30 1.256808
414.40 1.256809
414.50 1.256255
414.60 1.256353
414.70 1.256084
414.80 1.255815
414.90 1.255547
415.00 1.255279
415.10 1.255011
415.20 1.254712
415.30 1.254317
415.40 1.253923
415.50 1.253537
415.60 1.253415
415.70 1.253293
415.80 1.253109
415.90 1.252727
416.00 1.252345
416.10 1.251984
416.20 1.251703
416.30 1.251423
416.40 1.251143
416.50 1.250863
416.60 1.250597
416.70 1.25032
416.80 1.250388
416.90 1.249788
417.00 1.249856
417.10 1.249267
417.20 1.249001
417.30 1.248733
417.40 1.24837
417.50 1.248007
417.60 1.247711
417.70 1.247674
417.80 1.247409
417.90 1.247145
418.00 1.24688
418.10 1.246615
418.20 1.246351
418.30 1.246076
418.40 1.245567
418.50 1.245331
418.60 1.245096
418.70 1.24486
418.80 1.244625
418.90 1.244389
419.00 1.244154
419.10 1.243919
419.20 1.243684
419.30 1.243445
419.40 1.243085
419.50 1.242725
419.60 1.242408
419.70 1.242261
419.80 1.242114
419.90 1.241922
420.00 1.241588
420.10 1.241255
420.20 1.240921
420.30 1.240588
420.40 1.240255
420.50 1.239922
420.60 1.23959
420.70 1.239257
420.80 1.238925
420.90 1.238599
421.00 1.238481
421.10 1.238364
421.20 1.238199
421.30 1.23789
421.40 1.237582
421.50 1.237275
421.60 1.236967
421.70 1.23666
421.80 1.236352
421.90 1.236055
422.00 1.235788
422.10 1.235499
422.20 1.235119
422.30 1.234739
422.40 1.234364
422.50 1.234108
422.60 1.233852
422.70 1.233596
422.80 1.23334
422.90 1.233085
423.00 1.232829
423.10 1.232574
423.20 1.232319
423.30 1.232064
423.40 1.231809
423.50 1.231554
423.60 1.231299
423.70 1.231044
423.80 1.23079
423.90 1.230535
424.00 1.230281
424.10 1.230027
424.20 1.229772
424.30 1.229518
424.40 1.229194
424.50 1.228875
424.60 1.228556
424.70 1.228237
424.80 1.227919
424.90 1.227601
425.00 1.227282
425.10 1.226964
425.20 1.226646
425.30 1.226329
425.40 1.226016
425.50 1.225737
425.60 1.225458
425.70 1.225179
425.80 1.2249
425.90 1.224621
426.00 1.224343
426.10 1.224064
426.20 1.223786
426.30 1.223507
426.40 1.223229
426.50 1.222951
426.60 1.222673
426.70 1.222396
426.80 1.222118
426.90 1.22184
427.00 1.221536
427.10 1.221232
427.20 1.220929
427.30 1.220625
427.40 1.220322
427.50 1.220019
427.60 1.219716
427.70 1.219413
427.80 1.219111
427.90 1.218808
428.00 1.218506
428.10 1.218204
428.20 1.217902
428.30 1.2176
428.40 1.217298
428.50 1.216996
428.60 1.216695
428.70 1.216394
428.80 1.216093
428.90 1.215804
429.00 1.215514
429.10 1.215225
429.20 1.214936
429.30 1.214647
429.40 1.214358
429.50 1.214069
429.60 1.21378
429.70 1.213492
429.80 1.213203
429.90 1.212915
430.00 1.212627
430.10 1.212339
430.20 1.212051
430.30 1.211764
430.40 1.211476
430.50 1.211189
430.60 1.210901
430.70 1.210614
430.80 1.210327
430.90 1.21004
431.00 1.209754
431.10 1.209467
431.20 1.209181
431.30 1.208895
431.40 1.208615
431.50 1.208335
431.60 1.208055
431.70 1.207776
431.80 1.207496
431.90 1.207217
432.00 1.206938
432.10 1.206659
432.20 1.20638
432.30 1.206101
432.40 1.205822
432.50 1.205544
432.60 1.205265
432.70 1.204987
432.80 1.204709
432.90 1.204431
433.00 1.204153
433.10 1.203875
433.20 1.203597
433.30 1.203319
433.40 1.203031
433.50 1.202743
433.60 1.202456
433.70 1.202168
433.80 1.201912
433.90 1.201695
434.00 1.201403
434.10 1.201066
434.20 1.200728
434.30 1.200391
434.40 1.200054
434.50 1.199717
434.60 1.199381
434.70 1.199044
434.80 1.198711
434.90 1.198411
435.00 1.198112
435.10 1.197812
435.20 1.197513
435.30 1.197214
435.40 1.196916
435.50 1.196617
435.60 1.196318
435.70 1.19602
435.80 1.195722
435.90 1.195424
436.00 1.195126
436.10 1.194828
436.20 1.19453
436.30 1.194319
436.40 1.194199
436.50 1.193894
436.60 1.193589
436.70 1.193284
436.80 1.192979
436.90 1.192675
437.00 1.19237
437.10 1.192066
437.20 1.191765
437.30 1.191467
437.40 1.191174
437.50 1.190933
437.60 1.190691
437.70 1.19045
437.80 1.190209
437.90 1.189967
438.00 1.189721
438.10 1.189409
438.20 1.189097
438.30 1.188681
438.40 1.18816
438.50 1.187919
438.60 1.187658
438.70 1.187524
438.80 1.187178
438.90 1.186637
439.00 1.186698
439.10 1.186158
439.20 1.185639
439.30 1.1854
439.40 1.185161
439.50 1.184921
439.60 1.184662
439.70 1.184414
439.80 1.184246
439.90 1.183844
440.00 1.183443
440.10 1.183042
440.20 1.182648
440.30 1.18235
440.40 1.182052
440.50 1.181755
440.60 1.181458
440.70 1.18116
440.80 1.180863
440.90 1.180566
441.00 1.180269
441.10 1.179973
441.20 1.179685
441.30 1.179518
441.40 1.179277
441.50 1.178946
441.60 1.178615
441.70 1.178179
441.80 1.177918
441.90 1.177657
442.00 1.177396
442.10 1.177135
442.20 1.176875
442.30 1.176614
442.40 1.176319
442.50 1.175981
442.60 1.175644
442.70 1.175408
442.80 1.17529
442.90 1.17476
443.00 1.174367
443.10 1.174143
443.20 1.173909
443.30 1.173664
443.40 1.173424
443.50 1.17319
443.60 1.172823
443.70 1.172294
443.80 1.172355
443.90 1.171827
444.00 1.171432
444.10 1.171198
444.20 1.170832
444.30 1.170909
444.40 1.170606
444.50 1.170303
444.60 1.1699
444.70 1.169374
444.80 1.168998
444.90 1.16876
445.00 1.168523
445.10 1.168286
445.20 1.168008
445.30 1.167681
445.40 1.167353
445.50 1.167027
445.60 1.1667
445.70 1.166373
445.80 1.166094
445.90 1.165857
446.00 1.165621
446.10 1.165385
446.20 1.16502
446.30 1.164498
446.40 1.164128
446.50 1.163897
446.60 1.163667
446.70 1.163436
446.80 1.163206
446.90 1.162976
447.00 1.162595
447.10 1.162075
447.20 1.162135
447.30 1.161616
447.40 1.161247
447.50 1.161018
447.60 1.160638
447.70 1.160119
447.80 1.16018
447.90 1.159662
448.00 1.159294
448.10 1.159066
448.20 1.158837
448.30 1.158609
448.40 1.15838
448.50 1.158152
448.60 1.157897
448.70 1.157616
448.80 1.157327
448.90 1.156936
449.00 1.156545
449.10 1.156155
449.20 1.155765
449.30 1.155319
449.40 1.155036
449.50 1.154754
449.60 1.15447
449.70 1.154185
449.80 1.153901
449.90 1.153617
450.00 1.153332
450.10 1.153048
450.20 1.152764
450.30 1.152481
450.40 1.15216
450.50 1.151839
450.60 1.151518
450.70 1.151197
450.80 1.150877
450.90 1.150556
451.00 1.150276
451.10 1.149996
451.20 1.149597
451.30 1.149657
451.40 1.149147
451.50 1.148638
451.60 1.148698
451.70 1.14819
451.80 1.147966
451.90 1.147742
452.00 1.147518
452.10 1.147294
452.20 1.146928
452.30 1.146563
452.40 1.146198
452.50 1.145833
452.60 1.145326
452.70 1.144951
452.80 1.144695
452.90 1.14444
453.00 1.144185
453.10 1.14393
453.20 1.143598
453.30 1.143265
453.40 1.142933
453.50 1.142602
453.60 1.14227
453.70 1.141938
453.80 1.141677
453.90 1.1415
454.00 1.141323
454.10 1.141147
454.20 1.14085
454.30 1.140553
454.40 1.140256
454.50 1.139959
454.60 1.139662
454.70 1.139342
454.80 1.139001
454.90 1.13866
455.00 1.13832
455.10 1.137979
455.20 1.137639
455.30 1.137299
455.40 1.136959
455.50 1.136619
455.60 1.136279
455.70 1.13594
455.80 1.135591
455.90 1.135243
456.00 1.134894
456.10 1.134562
456.20 1.134272
456.30 1.133982
456.40 1.133692
456.50 1.133403
456.60 1.133113
456.70 1.132824
456.80 1.132535
456.90 1.132246
457.00 1.131957
457.10 1.131669
457.20 1.131273
457.30 1.130972
457.40 1.130671
457.50 1.130371
457.60 1.130071
457.70 1.129771
457.80 1.129471
457.90 1.129171
458.00 1.128872
458.10 1.128572
458.20 1.128273
458.30 1.127974
458.40 1.127675
458.50 1.127376
458.60 1.127077
458.70 1.126779
458.80 1.126481
458.90 1.126183
459.00 1.125885
459.10 1.125587
459.20 1.12529
459.30 1.124992
459.40 1.124694
459.50 1.124396
459.60 1.124098
459.70 1.123801
459.80 1.123503
459.90 1.123206
460.00 1.122909
460.10 1.122612
460.20 1.122315
460.30 1.122019
460.40 1.121722
460.50 1.121426
460.60 1.12113
460.70 1.12078
460.80 1.120404
460.90 1.120028
461.00 1.119652
461.10 1.119276
461.20 1.119025
461.30 1.118826
461.40 1.118512
461.50 1.118171
461.60 1.11783
461.70 1.117489
461.80 1.117195
461.90 1.116902
462.00 1.116608
462.10 1.116315
462.20 1.116022
462.30 1.115729
462.40 1.115436
462.50 1.115144
462.60 1.114851
462.70 1.114559
462.80 1.114267
462.90 1.113975
463.00 1.113683
463.10 1.113391
463.20 1.113077
463.30 1.112753
463.40 1.112429
463.50 1.112105
463.60 1.111781
463.70 1.111458
463.80 1.111135
463.90 1.110847
464.00 1.110568
464.10 1.110289
464.20 1.11001
464.30 1.109732
464.40 1.109453
464.50 1.109175
464.60 1.108897
464.70 1.108602
464.80 1.108301
464.90 1.108
465.00 1.107699
465.10 1.107398
465.20 1.107098
465.30 1.106747
465.40 1.106364
465.50 1.105981
465.60 1.105598
465.70 1.105216
465.80 1.104833
465.90 1.104587
466.00 1.104374
466.10 1.104161
466.20 1.103948
466.30 1.103664
466.40 1.103351
466.50 1.103038
466.60 1.102725
466.70 1.102412
466.80 1.102099
466.90 1.101787
467.00 1.101475
467.10 1.101162
467.20 1.100851
467.30 1.100426
467.40 1.100122
467.50 1.09986
467.60 1.099598
467.70 1.099336
467.80 1.099074
467.90 1.098759
468.00 1.098422
468.10 1.098085
468.20 1.097748
468.30 1.097317
468.40 1.096849
468.50 1.096909
468.60 1.096441
468.70 1.095973
468.80 1.095641
468.90 1.095566
469.00 1.095099
469.10 1.094726
469.20 1.094391
469.30 1.094056
469.40 1.093721
469.50 1.093455
469.60 1.093217
469.70 1.092978
469.80 1.09274
469.90 1.092484
470.00 1.092019
470.10 1.091706
470.20 1.091455
470.30 1.091205
470.40 1.090954
470.50 1.090704
470.60 1.090388
470.70 1.090056
470.80 1.089723
470.90 1.089391
471.00 1.088955
471.10 1.088493
471.20 1.088553
471.30 1.088091
471.40 1.08763
471.50 1.087429
471.60 1.087229
471.70 1.086768
471.80 1.086411
471.90 1.086081
472.00 1.085751
472.10 1.085421
472.20 1.085151
472.30 1.084896
472.40 1.084641
472.50 1.084386
472.60 1.084131
472.70 1.083732
472.80 1.083398
472.90 1.083095
473.00 1.082793
473.10 1.082491
473.20 1.082189
473.30 1.081887
473.40 1.081585
473.50 1.081283
473.60 1.080982
473.70 1.08068
473.80 1.080356
473.90 1.080027
474.00 1.079697
474.10 1.079368
474.20 1.079029
474.30 1.078685
474.40 1.078342
474.50 1.077999
474.60 1.077659
474.70 1.077346
474.80 1.077034
474.90 1.076721
475.00 1.076409
475.10 1.076097
475.20 1.075785
475.30 1.075473
475.40 1.075201
475.50 1.074939
475.60 1.074677
475.70 1.074415
475.80 1.074154
475.90 1.073892
476.00 1.073631
476.10 1.07337
476.20 1.073079
476.30 1.072777
476.40 1.072474
476.50 1.072172
476.60 1.07187
476.70 1.071568
476.80 1.071266
476.90 1.070959
477.00 1.070651
477.10 1.070343
477.20 1.070035
477.30 1.069728
477.40 1.06942
477.50 1.069113
477.60 1.068806
477.70 1.068499
477.80 1.068192
477.90 1.067885
478.00 1.067579
478.10 1.067273
478.20 1.066966
478.30 1.06666
478.40 1.066355
478.50 1.066049
478.60 1.065743
478.70 1.065339
478.80 1.064894
478.90 1.064527
479.00 1.064181
479.10 1.063834
479.20 1.063488
479.30 1.063142
479.40 1.062825
479.50 1.062525
479.60 1.062224
479.70 1.061925
479.80 1.061625
479.90 1.061325
480.00 1.061026
480.10 1.060727
480.20 1.060428
480.30 1.060129
480.40 1.05983
480.50 1.059531
480.60 1.059233
480.70 1.058934
480.80 1.058636
480.90 1.058338
481.00 1.05804
481.10 1.057743
481.20 1.057441
481.30 1.057139
481.40 1.056837
481.50 1.056535
481.60 1.056234
481.70 1.055932
481.80 1.055631
481.90 1.05533
482.00 1.055029
482.10 1.054729
482.20 1.054429
482.30 1.054133
482.40 1.053838
482.50 1.053543
482.60 1.053248
482.70 1.052953
482.80 1.052658
482.90 1.052364
483.00 1.052069
483.10 1.051775
483.20 1.051481
483.30 1.051187
483.40 1.050893
483.50 1.0506
483.60 1.050306
483.70 1.049965
483.80 1.049625
483.90 1.049285
484.00 1.048944
484.10 1.048604
484.20 1.048261
484.30 1.047916
484.40 1.047571
484.50 1.047226
484.60 1.046882
484.70 1.046543
484.80 1.046274
484.90 1.046006
485.00 1.045738
485.10 1.04547
485.20 1.045202
485.30 1.044934
485.40 1.044666
485.50 1.044399
485.60 1.044131
485.70 1.043791
485.80 1.043452
485.90 1.043112
486.00 1.042773
486.10 1.042434
486.20 1.042095
486.30 1.041756
486.40 1.041417
486.50 1.041079
486.60 1.04074
486.70 1.040405
486.80 1.040097
486.90 1.03979
487.00 1.039484
487.10 1.039177
487.20 1.038885
487.30 1.038592
487.40 1.0383
487.50 1.038008
487.60 1.037716
487.70 1.037425
487.80 1.037133
487.90 1.036842
488.00 1.03655
488.10 1.036259
488.20 1.035966
488.30 1.035637
488.40 1.035309
488.50 1.034981
488.60 1.034654
488.70 1.034326
488.80 1.034081
488.90 1.033837
489.00 1.03358
489.10 1.03329
489.20 1.033001
489.30 1.032712
489.40 1.032423
489.50 1.032134
489.60 1.031845
489.70 1.031557
489.80 1.031142
489.90 1.030817
490.00 1.030491
490.10 1.030166
490.20 1.029841
490.30 1.029516
490.40 1.029217
490.50 1.028918
490.60 1.028619
490.70 1.02832
490.80 1.027901
490.90 1.027482
491.00 1.027545
491.10 1.027126
491.20 1.026708
491.30 1.02629
491.40 1.026353
491.50 1.025935
491.60 1.025518
491.70 1.025101
491.80 1.024715
491.90 1.024747
492.00 1.02433
492.10 1.023914
492.20 1.023498
492.30 1.023561
492.40 1.023145
492.50 1.02273
492.60 1.022323
492.70 1.022027
492.80 1.021732
492.90 1.021437
493.00 1.02114
493.10 1.02082
493.20 1.0205
493.30 1.02018
493.40 1.019861
493.50 1.019541
493.60 1.019604
493.70 1.019191
493.80 1.018779
493.90 1.018456
494.00 1.018273
494.10 1.018046
494.20 1.017724
494.30 1.017403
494.40 1.017082
494.50 1.016761
494.60 1.016434
494.70 1.016023
494.80 1.01565
494.90 1.015385
495.00 1.01512
495.10 1.014855
495.20 1.014543
495.30 1.014231
495.40 1.013919
495.50 1.013607
495.60 1.013296
495.70 1.012985
495.80 1.012674
495.90 1.012363
496.00 1.012052
496.10 1.01171
496.20 1.01131
496.30 1.011019
496.40 1.010727
496.50 1.010435
496.60 1.010144
496.70 1.009877
496.80 1.00961
496.90 1.009343
497.00 1.009076
497.10 1.008809
497.20 1.008543
497.30 1.00824
497.40 1.007835
497.50 1.00743
497.60 1.007145
497.70 1.007092
497.80 1.006739
497.90 1.006386
498.00 1.006034
498.10 1.005681
498.20 1.005329
498.30 1.004977
498.40 1.004626
498.50 1.004274
498.60 1.003923
498.70 1.003753
498.80 1.003584
498.90 1.003308
499.00 1.003033
499.10 1.002757
499.20 1.002442
499.30 1.002069
499.40 1.001779
499.50 1.001488
499.60 1.001198
499.70 1.000908
499.80 1.000605
499.90 1.000302
500.00 1
500.10 0.9996977
500.20 0.9993891
500.30 0.9990669
500.40 0.9987448
500.50 0.9984229
500.60 0.9981012
500.70 0.9977797
500.80 0.9974782
500.90 0.9972192
501.00 0.9969603
501.10 0.9967016
501.20 0.9963039
501.30 0.9959064
501.40 0.9955092
501.50 0.9952506
501.60 0.9951764
501.70 0.9947798
501.80 0.9943833
501.90 0.9939871
502.00 0.9936566
502.10 0.9934653
502.20 0.9932598
502.30 0.9928643
502.40 0.9924936
502.50 0.9921752
502.60 0.9918569
502.70 0.9915388
502.80 0.9912209
502.90 0.9909032
503.00 0.9905973
503.10 0.9903164
503.20 0.9900356
503.30 0.989755
503.40 0.989474
503.50 0.9891915
503.60 0.9889091
503.70 0.9886269
503.80 0.9883316
503.90 0.9879394
504.00 0.9875834
504.10 0.987304
504.20 0.9870248
504.30 0.9867457
504.40 0.9864968
504.50 0.9863336
504.60 0.9861112
504.70 0.9857205
504.80 0.98533
504.90 0.9849397
505.00 0.9846088
505.10 0.9844463
505.20 0.9842247
505.30 0.9838352
505.40 0.9834459
505.50 0.9830569
505.60 0.9827159
505.70 0.982477
505.80 0.9822382
505.90 0.9819994
506.00 0.9817608
506.10 0.9815223
506.20 0.9812583
506.30 0.9809213
506.40 0.9805845
506.50 0.9802479
506.60 0.9799115
506.70 0.9795753
506.80 0.9792393
506.90 0.9789034
507.00 0.9785678
507.10 0.9783523
507.20 0.9782959
507.30 0.9779666
507.40 0.9776375
507.50 0.9773085
507.60 0.9769798
507.70 0.9766512
507.80 0.9763228
507.90 0.9759946
508.00 0.9756665
508.10 0.9753387
508.20 0.975011
508.30 0.9746835
508.40 0.9743562
508.50 0.9740291
508.60 0.9737021
508.70 0.9733754
508.80 0.9732582
508.90 0.9730997
509.00 0.9727174
509.10 0.972359
509.20 0.9720513
509.30 0.9717438
509.40 0.9714364
509.50 0.9711292
509.60 0.9708222
509.70 0.9705153
509.80 0.9702086
509.90 0.969902
510.00 0.9695957
510.10 0.9692895
510.20 0.9689834
510.30 0.9686762
510.40 0.9683655
510.50 0.968055
510.60 0.9677446
510.70 0.9674343
510.80 0.9671243
510.90 0.9668144
511.00 0.9665047
511.10 0.9661951
511.20 0.9658858
511.30 0.9655765
511.40 0.9652675
511.50 0.9649586
511.60 0.9646682
511.70 0.9644166
511.80 0.9641652
511.90 0.9639139
512.00 0.9636628
512.10 0.9634117
512.20 0.9631608
512.30 0.9628985
512.40 0.9626035
512.50 0.9623086
512.60 0.9620139
512.70 0.9617194
512.80 0.961425
512.90 0.9611308
513.00 0.9608368
513.10 0.9605429
513.20 0.9602491
513.30 0.9599555
513.40 0.9596621
513.50 0.9593688
513.60 0.9590757
513.70 0.9587827
513.80 0.9584899
513.90 0.9581972
514.00 0.9578944
514.10 0.9575901
514.20 0.957286
514.30 0.956982
514.40 0.9566782
514.50 0.9563745
514.60 0.956071
514.70 0.9557677
514.80 0.9554645
514.90 0.9551615
515.00 0.9548586
515.10 0.954556
515.20 0.9542534
515.30 0.9539511
515.40 0.9536489
515.50 0.9533469
515.60 0.953045
515.70 0.9527433
515.80 0.9524418
515.90 0.9521404
516.00 0.9518392
516.10 0.9515381
516.20 0.9512372
516.30 0.9509365
516.40 0.9506359
516.50 0.9503355
516.60 0.9500353
516.70 0.9497352
516.80 0.9494353
516.90 0.9491356
517.00 0.948836
517.10 0.9485366
517.20 0.9482373
517.30 0.9479383
517.40 0.9476393
517.50 0.9473405
517.60 0.9470419
517.70 0.9467435
517.80 0.9464452
517.90 0.946147
518.00 0.9458491
518.10 0.9455513
518.20 0.9452536
518.30 0.9449561
518.40 0.9446588
518.50 0.9443616
518.60 0.9440646
518.70 0.9437677
518.80 0.943471
518.90 0.9431745
519.00 0.9428781
519.10 0.9425815
519.20 0.9422848
519.30 0.9419882
519.40 0.9416917
519.50 0.9413955
519.60 0.9410994
519.70 0.9408034
519.80 0.9405076
519.90 0.9402119
520.00 0.9399165
520.10 0.9396211
520.20 0.939326
520.30 0.9390309
520.40 0.9387361
520.50 0.9384414
520.60 0.9381468
520.70 0.9378525
520.80 0.9375582
520.90 0.9372642
521.00 0.9369703
521.10 0.9366765
521.20 0.9363829
521.30 0.9360894
521.40 0.9357962
521.50 0.935503
521.60 0.93521
521.70 0.9349172
521.80 0.9346246
521.90 0.9343321
522.00 0.9340397
522.10 0.9337475
522.20 0.9334555
522.30 0.9331636
522.40 0.9328718
522.50 0.9325803
522.60 0.9322888
522.70 0.9319976
522.80 0.9317065
522.90 0.9314155
523.00 0.9311247
523.10 0.930834
523.20 0.9305435
523.30 0.9302532
523.40 0.929963
523.50 0.929673
523.60 0.9293831
523.70 0.9290934
523.80 0.9288038
523.90 0.9285144
524.00 0.9282251
524.10 0.927936
524.20 0.927647
524.30 0.9273534
524.40 0.927056
524.50 0.9267589
524.60 0.9264618
524.70 0.926165
524.80 0.9258683
524.90 0.9255718
525.00 0.9252754
525.10 0.9249792
525.20 0.9246831
525.30 0.9243872
525.40 0.9240915
525.50 0.9237959
525.60 0.9235004
525.70 0.9232052
525.80 0.9229101
525.90 0.9226151
526.00 0.9223203
526.10 0.9220257
526.20 0.9217312
526.30 0.9214369
526.40 0.9211427
526.50 0.9208487
526.60 0.9205548
526.70 0.9202611
526.80 0.9199676
526.90 0.9196742
527.00 0.919381
527.10 0.9190879
527.20 0.918795
527.30 0.9185023
527.40 0.9182097
527.50 0.9179172
527.60 0.9176249
527.70 0.9173328
527.80 0.9170408
527.90 0.916749
528.00 0.9164573
528.10 0.9161658
528.20 0.9158744
528.30 0.9155832
528.40 0.9152922
528.50 0.9150013
528.60 0.9147105
528.70 0.91442
528.80 0.9141295
528.90 0.9138393
529.00 0.9135491
529.10 0.9132592
529.20 0.9129693
529.30 0.9126797
529.40 0.9123902
529.50 0.9120997
529.60 0.9118021
529.70 0.9115047
529.80 0.9112074
529.90 0.9109103
530.00 0.9106134
530.10 0.9103166
530.20 0.91002
530.30 0.9097236
530.40 0.9094273
530.50 0.9091311
530.60 0.9088351
530.70 0.9085393
530.80 0.9082437
530.90 0.9079482
531.00 0.9076528
531.10 0.9073576
531.20 0.9070626
531.30 0.9067677
531.40 0.906473
531.50 0.9061785
531.60 0.9058841
531.70 0.9055898
531.80 0.9052957
531.90 0.9050018
532.00 0.904708
532.10 0.9044144
532.20 0.904121
532.30 0.9038277
532.40 0.9035346
532.50 0.9032416
532.60 0.9029488
532.70 0.9026561
532.80 0.9023636
532.90 0.9020713
533.00 0.9017791
533.10 0.9014871
533.20 0.9011952
533.30 0.9009035
533.40 0.9006119
533.50 0.9003205
533.60 0.9000292
533.70 0.8997381
533.80 0.8994472
533.90 0.8991564
534.00 0.8988657
534.10 0.8985753
534.20 0.8982849
534.30 0.8979948
534.40 0.8977047
534.50 0.8974149
534.60 0.8971252
534.70 0.8968356
534.80 0.8965461
534.90 0.8962564
535.00 0.8959668
535.10 0.8956774
535.20 0.8953882
535.30 0.8950991
535.40 0.8948101
535.50 0.8945214
535.60 0.8942327
535.70 0.8939442
535.80 0.8936559
535.90 0.8933677
536.00 0.8930797
536.10 0.8927918
536.20 0.8925041
536.30 0.8922165
536.40 0.8919291
536.50 0.8916419
536.60 0.8913547
536.70 0.8910678
536.80 0.890781
536.90 0.8904943
537.00 0.8902078
537.10 0.8899215
537.20 0.8896353
537.30 0.8893492
537.40 0.8890633
537.50 0.8887776
537.60 0.888492
537.70 0.8882065
537.80 0.8879212
537.90 0.8876361
538.00 0.8873511
538.10 0.8870663
538.20 0.8867816
538.30 0.886497
538.40 0.8862126
538.50 0.8859284
538.60 0.8856443
538.70 0.8853604
538.80 0.8850766
538.90 0.8847929
539.00 0.8845094
539.10 0.8842261
539.20 0.8839429
539.30 0.8836599
539.40 0.883377
539.50 0.8830942
539.60 0.8828116
539.70 0.8825292
539.80 0.8822469
539.90 0.8819647
540.00 0.8816827
540.10 0.8814009
540.20 0.8811188
540.30 0.8808368
540.40 0.880555
540.50 0.8802733
540.60 0.8799917
540.70 0.8797103
540.80 0.8794291
540.90 0.879148
541.00 0.878867
541.10 0.8785862
541.20 0.8783055
541.30 0.878025
541.40 0.8777447
541.50 0.8774644
541.60 0.8771844
541.70 0.8769044
541.80 0.8766247
541.90 0.876345
542.00 0.8760655
542.10 0.8757862
542.20 0.875507
542.30 0.875228
542.40 0.8749491
542.50 0.8746703
542.60 0.8743917
542.70 0.8741132
542.80 0.8738349
542.90 0.8735567
543.00 0.8732787
543.10 0.8730008
543.20 0.8727231
543.30 0.8724455
543.40 0.8721681
543.50 0.8718908
543.60 0.8716136
543.70 0.8713366
543.80 0.8710597
543.90 0.870783
544.00 0.8705064
544.10 0.87023
544.20 0.8699537
544.30 0.8696776
544.40 0.8694016
544.50 0.8691257
544.60 0.86885
544.70 0.8685744
544.80 0.868299
544.90 0.8680237
545.00 0.8677486
545.10 0.8674736
545.20 0.8671988
545.30 0.866924
545.40 0.8666495
545.50 0.8663751
545.60 0.8660905
545.70 0.8658016
545.80 0.865513
545.90 0.8652244
546.00 0.864936
546.10 0.8646478
546.20 0.8643597
546.30 0.8640718
546.40 0.863784
546.50 0.8634964
546.60 0.863209
546.70 0.8629216
546.80 0.8626345
546.90 0.8623475
547.00 0.8620606
547.10 0.8617739
547.20 0.8614874
547.30 0.861201
547.40 0.8609147
547.50 0.8606286
547.60 0.8603427
547.70 0.8600569
547.80 0.8597712
547.90 0.8594858
548.00 0.8592004
548.10 0.8589152
548.20 0.8586302
548.30 0.8583513
548.40 0.8580807
548.50 0.8578102
548.60 0.8575399
548.70 0.8572697
548.80 0.8569997
548.90 0.8567298
549.00 0.8564601
549.10 0.8561905
549.20 0.855921
549.30 0.8556517
549.40 0.8553825
549.50 0.8551134
549.60 0.8548445
549.70 0.8545758
549.80 0.8543071
549.90 0.8540386
550.00 0.8537703
550.10 0.8535021
550.20 0.853234
550.30 0.8529661
550.40 0.8526983
550.50 0.8524306
550.60 0.8521631
550.70 0.8518957
550.80 0.8516284
550.90 0.8513613
551.00 0.8510922
551.10 0.8508111
551.20 0.8505301
551.30 0.8502493
551.40 0.8499686
551.50 0.8496881
551.60 0.8494077
551.70 0.8491275
551.80 0.8488474
551.90 0.8485674
552.00 0.8482876
552.10 0.848008
552.20 0.8477285
552.30 0.8474491
552.40 0.8471699
552.50 0.8468909
552.60 0.846612
552.70 0.8463332
552.80 0.8460546
552.90 0.8457761
553.00 0.8454978
553.10 0.8452196
553.20 0.8449416
553.30 0.8446637
553.40 0.8443859
553.50 0.8441083
553.60 0.8438309
553.70 0.8435536
553.80 0.8432764
553.90 0.8429994
554.00 0.8427225
554.10 0.8424458
554.20 0.8421692
554.30 0.8418928
554.40 0.8416165
554.50 0.8413403
554.60 0.8410643
554.70 0.8407885
554.80 0.8405127
554.90 0.8402372
555.00 0.8399617
555.10 0.8396865
555.20 0.8394113
555.30 0.8391363
555.40 0.8388615
555.50 0.8385868
555.60 0.8383122
555.70 0.8380378
555.80 0.8377635
555.90 0.8374893
556.00 0.8372154
556.10 0.8369415
556.20 0.8366678
556.30 0.8363942
556.40 0.8361208
556.50 0.8358475
556.60 0.8355741
556.70 0.8353008
556.80 0.8350277
556.90 0.8347547
557.00 0.8344819
557.10 0.8342092
557.20 0.8339367
557.30 0.8336642
557.40 0.833392
557.50 0.8331199
557.60 0.8328479
557.70 0.832576
557.80 0.8323043
557.90 0.8320328
558.00 0.8317613
558.10 0.8314901
558.20 0.8312189
558.30 0.8309479
558.40 0.8306771
558.50 0.8304063
558.60 0.8301358
558.70 0.8298653
558.80 0.829595
558.90 0.8293249
559.00 0.8290549
559.10 0.828785
559.20 0.8285153
559.30 0.8282457
559.40 0.8279762
559.50 0.8277069
559.60 0.8274377
559.70 0.8271687
559.80 0.8268998
559.90 0.826631
560.00 0.8263624
560.10 0.8260939
560.20 0.8258256
560.30 0.8255574
560.40 0.8252893
560.50 0.8250214
560.60 0.8247536
560.70 0.824486
560.80 0.8242185
560.90 0.8239511
561.00 0.8236839
561.10 0.8234168
561.20 0.8231498
561.30 0.822883
561.40 0.8226163
561.50 0.8223498
561.60 0.8220834
561.70 0.8218171
561.80 0.821551
561.90 0.821285
562.00 0.8210192
562.10 0.8207481
562.20 0.8204692
562.30 0.8201905
562.40 0.8199119
562.50 0.8196334
562.60 0.8193551
562.70 0.8190769
562.80 0.8187989
562.90 0.818521
563.00 0.8182433
563.10 0.8179657
563.20 0.8176883
563.30 0.817411
563.40 0.8171338
563.50 0.8168568
563.60 0.81658
563.70 0.8163033
563.80 0.8160267
563.90 0.8157503
564.00 0.815474
564.10 0.8151979
564.20 0.8149219
564.30 0.814646
564.40 0.8143703
564.50 0.8140948
564.60 0.8138194
564.70 0.8135441
564.80 0.813269
564.90 0.8129978
565.00 0.8127358
565.10 0.8124741
565.20 0.8122124
565.30 0.8119509
565.40 0.8116896
565.50 0.8114283
565.60 0.8111672
565.70 0.8109063
565.80 0.8106455
565.90 0.8103848
566.00 0.8101242
566.10 0.8098638
566.20 0.8096035
566.30 0.8093433
566.40 0.8090833
566.50 0.8088234
566.60 0.8085636
566.70 0.808304
566.80 0.8080445
566.90 0.8077851
567.00 0.8075259
567.10 0.8072668
567.20 0.8070078
567.30 0.806749
567.40 0.8064903
567.50 0.8062317
567.60 0.8059733
567.70 0.8057125
567.80 0.8054414
567.90 0.8051704
568.00 0.8048996
568.10 0.8046289
568.20 0.8043584
568.30 0.804088
568.40 0.8038177
568.50 0.8035476
568.60 0.8032776
568.70 0.8030078
568.80 0.8027381
568.90 0.8024685
569.00 0.8021991
569.10 0.8019299
569.20 0.8016607
569.30 0.8013917
569.40 0.8011229
569.50 0.8008541
569.60 0.8005856
569.70 0.8003171
569.80 0.8000488
569.90 0.7997806
570.00 0.7995126
570.10 0.7992447
570.20 0.798977
570.30 0.7987094
570.40 0.7984419
570.50 0.7981746
570.60 0.7979074
570.70 0.7976403
570.80 0.7973734
570.90 0.7971066
571.00 0.79684
571.10 0.7965735
571.20 0.7963071
571.30 0.7960409
571.40 0.7957748
571.50 0.7955089
571.60 0.795243
571.70 0.7949774
571.80 0.7947118
571.90 0.7944464
572.00 0.7941812
572.10 0.793916
572.20 0.793651
572.30 0.7933862
572.40 0.7931215
572.50 0.7928569
572.60 0.7925924
572.70 0.7923281
572.80 0.7920639
572.90 0.7917999
573.00 0.791536
573.10 0.7912722
573.20 0.7910086
573.30 0.7907451
573.40 0.7904836
573.50 0.7902247
573.60 0.789966
573.70 0.7897074
573.80 0.7894489
573.90 0.7891906
574.00 0.7889323
574.10 0.7886743
574.20 0.7884163
574.30 0.7881585
574.40 0.7879008
574.50 0.7876433
574.60 0.7873859
574.70 0.7871286
574.80 0.7868714
574.90 0.7866144
575.00 0.7863575
575.10 0.7861007
575.20 0.7858441
575.30 0.7855876
575.40 0.7853312
575.50 0.785075
575.60 0.7848189
575.70 0.7845629
575.80 0.7843071
575.90 0.7840513
576.00 0.7837958
576.10 0.7835403
576.20 0.783285
576.30 0.7830298
576.40 0.7827747
576.50 0.7825198
576.60 0.782265
576.70 0.7820103
576.80 0.7817557
576.90 0.7815013
577.00 0.781247
577.10 0.7809929
577.20 0.7807388
577.30 0.7804849
577.40 0.7802312
577.50 0.7799775
577.60 0.7797177
577.70 0.7794478
577.80 0.779178
577.90 0.7789084
578.00 0.7786389
578.10 0.7783695
578.20 0.7781003
578.30 0.7778313
578.40 0.7775623
578.50 0.7772935
578.60 0.7770249
578.70 0.7767563
578.80 0.776488
578.90 0.7762197
579.00 0.7759516
579.10 0.7756837
579.20 0.7754158
579.30 0.7751482
579.40 0.7748806
579.50 0.7746132
579.60 0.7743459
579.70 0.7740788
579.80 0.7738118
579.90 0.773545
580.00 0.7732782
580.10 0.7730182
580.20 0.772769
580.30 0.7725199
580.40 0.7722709
580.50 0.7720221
580.60 0.7717734
580.70 0.7715248
580.80 0.7712763
580.90 0.771028
581.00 0.7707798
581.10 0.7705317
581.20 0.7702837
581.30 0.7700359
581.40 0.7697882
581.50 0.7695406
581.60 0.7692931
581.70 0.7690458
581.80 0.7687986
581.90 0.7685515
582.00 0.7683045
582.10 0.7680512
582.20 0.7677874
582.30 0.7675237
582.40 0.7672601
582.50 0.7669967
582.60 0.7667334
582.70 0.7664703
582.80 0.7662073
582.90 0.7659444
583.00 0.7656817
583.10 0.7654191
583.20 0.7651566
583.30 0.7648943
583.40 0.7646321
583.50 0.76437
583.60 0.7641179
583.70 0.7638819
583.80 0.763646
583.90 0.7634102
584.00 0.7631745
584.10 0.762939
584.20 0.7627036
584.30 0.7624683
584.40 0.7622331
584.50 0.761998
584.60 0.761763
584.70 0.7615282
584.80 0.7612935
584.90 0.7610542
585.00 0.7607941
585.10 0.760534
585.20 0.7602741
585.30 0.7600144
585.40 0.7597547
585.50 0.7594952
585.60 0.7592359
585.70 0.7589766
585.80 0.7587175
585.90 0.7584586
586.00 0.7581997
586.10 0.757941
586.20 0.7576824
586.30 0.757424
586.40 0.7571657
586.50 0.7569075
586.60 0.7566495
586.70 0.7563916
586.80 0.7561338
586.90 0.7558761
587.00 0.7556186
587.10 0.7553612
587.20 0.755104
587.30 0.7548468
587.40 0.7545899
587.50 0.754333
587.60 0.7540763
587.70 0.7538197
587.80 0.7535632
587.90 0.7533069
588.00 0.7530507
588.10 0.7527946
588.20 0.7525386
588.30 0.7522828
588.40 0.7520271
588.50 0.7517716
588.60 0.7515162
588.70 0.7512609
588.80 0.7510057
588.90 0.7507507
589.00 0.7504958
589.10 0.750241
589.20 0.7499864
589.30 0.7497319
589.40 0.7494775
589.50 0.7492232
589.60 0.7489691
589.70 0.7487151
589.80 0.7484612
589.90 0.7482075
590.00 0.7479539
590.10 0.7477004
590.20 0.7474471
590.30 0.7471938
590.40 0.7469407
590.50 0.7466878
590.60 0.7464349
590.70 0.7461822
590.80 0.7459572
590.90 0.7457448
591.00 0.7455324
591.10 0.7453201
591.20 0.7451079
591.30 0.7448958
591.40 0.7446838
591.50 0.7444719
591.60 0.744245
591.70 0.7439935
591.80 0.743742
591.90 0.7434908
592.00 0.7432396
592.10 0.7429886
592.20 0.7427377
592.30 0.7424869
592.40 0.7422362
592.50 0.7419857
592.60 0.7417353
592.70 0.7414851
592.80 0.7412349
592.90 0.7409849
593.00 0.740735
593.10 0.7404852
593.20 0.7402356
593.30 0.7399861
593.40 0.7397367
593.50 0.7394874
593.60 0.7392383
593.70 0.7389893
593.80 0.7387404
593.90 0.7384917
594.00 0.738243
594.10 0.7379945
594.20 0.7377462
594.30 0.7374979
594.40 0.7372498
594.50 0.7370018
594.60 0.7367539
594.70 0.7365061
594.80 0.7362585
594.90 0.736011
595.00 0.7357636
595.10 0.7355164
595.20 0.7352693
595.30 0.7350223
595.40 0.7347754
595.50 0.7345286
595.60 0.734282
595.70 0.7340355
595.80 0.7337891
595.90 0.7335428
596.00 0.7332967
596.10 0.7330507
596.20 0.7328048
596.30 0.732559
596.40 0.7323134
596.50 0.7320679
596.60 0.7318225
596.70 0.7315772
596.80 0.7313321
596.90 0.7310871
597.00 0.7308422
597.10 0.7305974
597.20 0.7303527
597.30 0.7301082
597.40 0.7298638
597.50 0.7296195
597.60 0.7293753
597.70 0.7291313
597.80 0.7288874
597.90 0.7286436
598.00 0.7283999
598.10 0.7281564
598.20 0.7279129
598.30 0.7276696
598.40 0.7274264
598.50 0.7271834
598.60 0.7269404
598.70 0.7266976
598.80 0.7264549
598.90 0.7262123
599.00 0.7259699
599.10 0.7257276
599.20 0.7254853
599.30 0.7252433
599.40 0.7250013
599.50 0.7247594
599.60 0.7245177
599.70 0.7242761
599.80 0.7240346
599.90 0.7237933
600.00 0.723552
600.10 0.7233109
600.20 0.7230699
600.30 0.722829
600.40 0.7225882
600.50 0.7223476
600.60 0.7221071
600.70 0.7218667
600.80 0.7216264
600.90 0.7213862
601.00 0.7211462
601.10 0.7209063
601.20 0.7206665
601.30 0.7204268
601.40 0.7201872
601.50 0.7199478
601.60 0.7197084
601.70 0.7194692
601.80 0.7192302
601.90 0.7189912
602.00 0.7187523
602.10 0.7185136
602.20 0.718275
602.30 0.7180365
602.40 0.7177981
602.50 0.7175599
602.60 0.7173218
602.70 0.7169282
602.80 0.7165267
602.90 0.716289
603.00 0.7160514
603.10 0.715814
603.20 0.7155767
603.30 0.7153395
603.40 0.7151024
603.50 0.7148654
603.60 0.7146286
603.70 0.7143919
603.80 0.7141552
603.90 0.7139188
604.00 0.7136824
604.10 0.7134461
604.20 0.71321
604.30 0.7129739
604.40 0.712738
604.50 0.7125022
604.60 0.7122666
604.70 0.712031
604.80 0.7117956
604.90 0.7115602
605.00 0.711325
605.10 0.71109
605.20 0.710855
605.30 0.7106201
605.40 0.7103854
605.50 0.7101508
605.60 0.7099162
605.70 0.7096819
605.80 0.7094476
605.90 0.7092134
606.00 0.7089794
606.10 0.7087454
606.20 0.7085116
606.30 0.7082779
606.40 0.7080444
606.50 0.7078109
606.60 0.7075775
606.70 0.7073443
606.80 0.7071112
606.90 0.7068782
607.00 0.7066453
607.10 0.7064125
607.20 0.7061799
607.30 0.7059473
607.40 0.7057149
607.50 0.7054826
607.60 0.7052504
607.70 0.7050183
607.80 0.7047863
607.90 0.7045544
608.00 0.7043227
608.10 0.7040911
608.20 0.7038596
608.30 0.7036282
608.40 0.7033969
608.50 0.7031657
608.60 0.7029347
608.70 0.7027037
608.80 0.7024729
608.90 0.7022422
609.00 0.7020116
609.10 0.7017811
609.20 0.7015507
609.30 0.7013009
609.40 0.7010512
609.50 0.7008017
609.60 0.7005523
609.70 0.700303
609.80 0.7000539
609.90 0.6998048
610.00 0.6995559
610.10 0.6993072
610.20 0.6990585
610.30 0.69881
610.40 0.6985616
610.50 0.6983133
610.60 0.6980651
610.70 0.6978171
610.80 0.6975692
610.90 0.6973408
611.00 0.6971126
611.10 0.6968845
611.20 0.6966565
611.30 0.6964285
611.40 0.6962007
611.50 0.6959731
611.60 0.6957455
611.70 0.695518
611.80 0.6952907
611.90 0.6950634
612.00 0.6948363
612.10 0.6946093
612.20 0.6943824
612.30 0.6941556
612.40 0.6939289
612.50 0.6937024
612.60 0.6934759
612.70 0.6932495
612.80 0.6930233
612.90 0.6927972
613.00 0.6925712
613.10 0.6923453
613.20 0.6921195
613.30 0.6918938
613.40 0.6916682
613.50 0.6914427
613.60 0.6912174
613.70 0.6909921
613.80 0.690767
613.90 0.690542
614.00 0.6903171
614.10 0.6900923
614.20 0.6898676
614.30 0.689643
614.40 0.6893448
614.50 0.6890468
614.60 0.688749
614.70 0.6884513
614.80 0.6882149
614.90 0.6879911
615.00 0.6877673
615.10 0.6875437
615.20 0.6873202
615.30 0.6870968
615.40 0.6868735
615.50 0.6866504
615.60 0.6864273
615.70 0.6862044
615.80 0.6859815
615.90 0.6857588
616.00 0.6855361
616.10 0.6853136
616.20 0.6850912
616.30 0.6848689
616.40 0.6846467
616.50 0.6844246
616.60 0.6842026
616.70 0.6839808
616.80 0.683759
616.90 0.6835298
617.00 0.6833008
617.10 0.6830719
617.20 0.682843
617.30 0.6826143
617.40 0.6823857
617.50 0.6821573
617.60 0.6819289
617.70 0.6817006
617.80 0.6814725
617.90 0.6812444
618.00 0.6810165
618.10 0.6807887
618.20 0.680561
618.30 0.6803334
618.40 0.680106
618.50 0.6798786
618.60 0.6796513
618.70 0.6794242
618.80 0.6791972
618.90 0.6789703
619.00 0.6787434
619.10 0.6785168
619.20 0.6782902
619.30 0.6780637
619.40 0.6778373
619.50 0.6776111
619.60 0.6773849
619.70 0.6771589
619.80 0.676933
619.90 0.6767072
620.00 0.6764815
620.10 0.6762559
620.20 0.6760304
620.30 0.675805
620.40 0.6755798
620.50 0.6753546
620.60 0.6751296
620.70 0.6749047
620.80 0.6746799
620.90 0.6744526
621.00 0.6742209
621.10 0.6739892
621.20 0.6737577
621.30 0.6735264
621.40 0.6732951
621.50 0.6730639
621.60 0.6728329
621.70 0.672602
621.80 0.6723711
621.90 0.6721404
622.00 0.6719098
622.10 0.6716794
622.20 0.671449
622.30 0.6712188
622.40 0.6709886
622.50 0.6707586
622.60 0.6705287
622.70 0.6702989
622.80 0.6700692
622.90 0.6698396
623.00 0.6696102
623.10 0.6693808
623.20 0.6691516
623.30 0.6689225
623.40 0.6686935
623.50 0.6684646
623.60 0.6682358
623.70 0.6680071
623.80 0.6677786
623.90 0.6675501
624.00 0.6673218
624.10 0.6670936
624.20 0.6668655
624.30 0.6666375
624.40 0.6664096
624.50 0.6661818
624.60 0.6659542
624.70 0.6657266
624.80 0.6654992
624.90 0.6652719
625.00 0.6650446
625.10 0.6648175
625.20 0.6645905
625.30 0.6643637
625.40 0.6641369
625.50 0.6639102
625.60 0.6636837
625.70 0.6634572
625.80 0.6632309
625.90 0.6630047
626.00 0.6627786
626.10 0.6625526
626.20 0.6623267
626.30 0.662101
626.40 0.6618753
626.50 0.6616497
626.60 0.6614243
626.70 0.661199
626.80 0.6609737
626.90 0.6607486
627.00 0.6605236
627.10 0.6603
627.20 0.6600801
627.30 0.6598603
627.40 0.6596405
627.50 0.6594209
627.60 0.6592014
627.70 0.658982
627.80 0.6587627
627.90 0.6585435
628.00 0.6583244
628.10 0.6581054
628.20 0.6578865
628.30 0.6576678
628.40 0.6574491
628.50 0.6572305
628.60 0.6570121
628.70 0.6567937
628.80 0.6565755
628.90 0.6563573
629.00 0.6561393
629.10 0.6559214
629.20 0.6557036
629.30 0.6554859
629.40 0.6552682
629.50 0.6550507
629.60 0.6548333
629.70 0.654616
629.80 0.6543988
629.90 0.6541818
630.00 0.6539648
630.10 0.6537479
630.20 0.6535311
630.30 0.6533059
630.40 0.65308
630.50 0.6528543
630.60 0.6526287
630.70 0.6524031
630.80 0.6521777
630.90 0.6519524
631.00 0.6517272
631.10 0.6515021
631.20 0.6512771
631.30 0.6510522
631.40 0.6508275
631.50 0.6506028
631.60 0.6503783
631.70 0.6501539
631.80 0.6499295
631.90 0.6497053
632.00 0.6494812
632.10 0.6492572
632.20 0.6490333
632.30 0.6488096
632.40 0.6485859
632.50 0.6483623
632.60 0.6481389
632.70 0.6479155
632.80 0.6476923
632.90 0.6474692
633.00 0.6472462
633.10 0.6470233
633.20 0.6468005
633.30 0.6465778
633.40 0.6463604
633.50 0.6461472
633.60 0.6459342
633.70 0.6457212
633.80 0.6455083
633.90 0.6452956
634.00 0.6450829
634.10 0.6448704
634.20 0.6446579
634.30 0.6444455
634.40 0.6442333
634.50 0.6440211
634.60 0.6438091
634.70 0.6435971
634.80 0.6433853
634.90 0.6431736
635.00 0.6429619
635.10 0.6427504
635.20 0.6425389
635.30 0.6423276
635.40 0.6421164
635.50 0.6419052
635.60 0.6416942
635.70 0.6414832
635.80 0.6412724
635.90 0.6410617
636.00 0.640851
636.10 0.6406405
636.20 0.6404301
636.30 0.6402198
636.40 0.6400095
636.50 0.6397994
636.60 0.6395812
636.70 0.6393623
636.80 0.6391434
636.90 0.6389247
637.00 0.6387061
637.10 0.6384875
637.20 0.6382691
637.30 0.6380508
637.40 0.6378326
637.50 0.6376144
637.60 0.6373964
637.70 0.6371785
637.80 0.6369608
637.90 0.6367431
638.00 0.6365255
638.10 0.636308
638.20 0.6360906
638.30 0.6358734
638.40 0.6356562
638.50 0.6354391
638.60 0.6352222
638.70 0.6350053
638.80 0.6347886
638.90 0.634572
639.00 0.6343554
639.10 0.634139
639.20 0.6339227
639.30 0.6337064
639.40 0.6334903
639.50 0.6332743
639.60 0.6330584
639.70 0.6328426
639.80 0.6326271
639.90 0.6324117
640.00 0.6321964
640.10 0.6319812
640.20 0.6317661
640.30 0.6315511
640.40 0.6313362
640.50 0.6311214
640.60 0.6309067
640.70 0.6306921
640.80 0.6304776
640.90 0.6302632
641.00 0.6300489
641.10 0.6298347
641.20 0.6296207
641.30 0.6294067
641.40 0.6291928
641.50 0.6289791
641.60 0.6287654
641.70 0.6285518
641.80 0.6283384
641.90 0.628125
642.00 0.6279118
642.10 0.6276986
642.20 0.6274856
642.30 0.6272726
642.40 0.6270598
642.50 0.626847
642.60 0.6266344
642.70 0.6264218
642.80 0.6262094
642.90 0.6259971
643.00 0.6257848
643.10 0.6255727
643.20 0.6253607
643.30 0.6251487
643.40 0.6249369
643.50 0.6247252
643.60 0.6245135
643.70 0.624302
643.80 0.6240906
643.90 0.6238793
644.00 0.623668
644.10 0.6234569
644.20 0.6232459
644.30 0.623035
644.40 0.6228241
644.50 0.6226134
644.60 0.6224028
644.70 0.6221923
644.80 0.6219819
644.90 0.6217715
645.00 0.6215613
645.10 0.6213512
645.20 0.6211412
645.30 0.6209313
645.40 0.6207215
645.50 0.6205118
645.60 0.6203021
645.70 0.6200926
645.80 0.6198832
645.90 0.6196739
646.00 0.6194647
646.10 0.6192556
646.20 0.6190468
646.30 0.618838
646.40 0.6186294
646.50 0.6184208
646.60 0.6182124
646.70 0.618004
646.80 0.6177958
646.90 0.6175877
647.00 0.6173796
647.10 0.6171717
647.20 0.6169638
647.30 0.6167561
647.40 0.6165484
647.50 0.6163409
647.60 0.6161334
647.70 0.615926
647.80 0.6157188
647.90 0.6155116
648.00 0.6153046
648.10 0.6150976
648.20 0.6148907
648.30 0.614684
648.40 0.6144773
648.50 0.6142707
648.60 0.6140643
648.70 0.6138579
648.80 0.6136516
648.90 0.6134455
649.00 0.6132394
649.10 0.6130334
649.20 0.6128275
649.30 0.6126217
649.40 0.612416
649.50 0.6122105
649.60 0.612005
649.70 0.6117996
649.80 0.6115943
649.90 0.6113891
650.00 0.611184
650.10 0.610979
650.20 0.6107741
650.30 0.6105693
650.40 0.6103646
650.50 0.61016
650.60 0.6099555
650.70 0.609751
650.80 0.6095467
650.90 0.6093425
651.00 0.6091384
651.10 0.6089343
651.20 0.6087304
651.30 0.6085266
651.40 0.6083228
651.50 0.6081192
651.60 0.6079156
651.70 0.6077122
651.80 0.6075088
651.90 0.6073056
652.00 0.6071024
652.10 0.6068993
652.20 0.6066964
652.30 0.6064935
652.40 0.6062907
652.50 0.606088
652.60 0.6058852
652.70 0.6056824
652.80 0.6054796
652.90 0.605277
653.00 0.6050744
653.10 0.604872
653.20 0.6046696
653.30 0.6044673
653.40 0.6042652
653.50 0.6040631
653.60 0.6038611
653.70 0.6036592
653.80 0.6034574
653.90 0.6032557
654.00 0.6030541
654.10 0.6028526
654.20 0.6026512
654.30 0.6024499
654.40 0.6022487
654.50 0.6020475
654.60 0.6018465
654.70 0.6016456
654.80 0.6014447
654.90 0.601244
655.00 0.6010433
655.10 0.6008428
655.20 0.6006423
655.30 0.6004419
655.40 0.6002416
655.50 0.6000415
655.60 0.5998414
655.70 0.5996414
655.80 0.5994316
655.90 0.5992218
656.00 0.5990122
656.10 0.5988027
656.20 0.5985933
656.30 0.5983839
656.40 0.5981747
656.50 0.5979656
656.60 0.5977566
656.70 0.5975476
656.80 0.5973388
656.90 0.5971301
657.00 0.5969214
657.10 0.5967129
657.20 0.5965045
657.30 0.5962962
657.40 0.5960879
657.50 0.5958798
657.60 0.5956718
657.70 0.5954638
657.80 0.5952828
657.90 0.5950835
658.00 0.5948812
658.10 0.5946789
658.20 0.5944767
658.30 0.5942746
658.40 0.5940726
658.50 0.5938707
658.60 0.5936689
658.70 0.5934672
658.80 0.5932656
658.90 0.5930641
659.00 0.5928626
659.10 0.5926699
659.20 0.5924901
659.30 0.5922864
659.40 0.5920829
659.50 0.5918794
659.60 0.5916761
659.70 0.5914728
659.80 0.5912696
659.90 0.5910666
660.00 0.5908636
660.10 0.5906607
660.20 0.5904579
660.30 0.5902552
660.40 0.5900729
660.50 0.5898942
660.60 0.5897157
660.70 0.5895372
660.80 0.5893588
660.90 0.5891539
661.00 0.5889491
661.10 0.5887444
661.20 0.5885398
661.30 0.5883353
661.40 0.5881309
661.50 0.5879266
661.60 0.5877224
661.70 0.5875182
661.80 0.5873142
661.90 0.5871368
662.00 0.5869594
662.10 0.5867821
662.20 0.5866049
662.30 0.5864278
662.40 0.5862507
662.50 0.5860077
662.60 0.5857648
662.70 0.585522
662.80 0.5852793
662.90 0.5851028
663.00 0.5849263
663.10 0.5847499
663.20 0.5845735
663.30 0.5843973
663.40 0.5842211
663.50 0.584045
663.60 0.583869
663.70 0.5836931
663.80 0.5835173
663.90 0.5832206
664.00 0.5829027
664.10 0.5827272
664.20 0.5825518
664.30 0.5823764
664.40 0.5822011
664.50 0.5820259
664.60 0.5818507
664.70 0.5816435
664.80 0.5814363
664.90 0.5812292
665.00 0.5810223
665.10 0.5808154
665.20 0.5806086
665.30 0.5804019
665.40 0.5801954
665.50 0.5800162
665.60 0.5798419
665.70 0.5796509
665.80 0.5794426
665.90 0.5792343
666.00 0.5790262
666.10 0.5788181
666.20 0.5786102
666.30 0.5784023
666.40 0.5781945
666.50 0.5780159
666.60 0.5778425
666.70 0.5776692
666.80 0.5774959
666.90 0.5773228
667.00 0.5771497
667.10 0.5769766
667.20 0.5768037
667.30 0.5766308
667.40 0.5764581
667.50 0.5761747
667.60 0.575872
667.70 0.57568
667.80 0.5755076
667.90 0.5753353
668.00 0.5751631
668.10 0.5749909
668.20 0.5748188
668.30 0.5746468
668.40 0.5744749
668.50 0.574303
668.60 0.5741312
668.70 0.5739595
668.80 0.5737376
668.90 0.5735157
669.00 0.5732939
669.10 0.5730723
669.20 0.5728507
669.30 0.57265
669.40 0.5724531
669.50 0.5722562
669.60 0.5720594
669.70 0.5718627
669.80 0.5716661
669.90 0.5714696
670.00 0.5712732
670.10 0.5710769
670.20 0.5708807
670.30 0.5707065
670.40 0.5705362
670.50 0.5703661
670.60 0.570196
670.70 0.570026
670.80 0.5698329
670.90 0.5696399
671.00 0.5694471
671.10 0.5692543
671.20 0.5690616
671.30 0.568869
671.40 0.5686764
671.50 0.568484
671.60 0.5682917
671.70 0.5680994
671.80 0.5679073
671.90 0.5676904
672.00 0.5674692
672.10 0.5672482
672.20 0.5670273
672.30 0.5668065
672.40 0.5666342
672.50 0.5664657
672.60 0.5662973
672.70 0.5661289
672.80 0.5659607
672.90 0.5657925
673.00 0.5656243
673.10 0.5654563
673.20 0.5652883
673.30 0.5651204
673.40 0.5649308
673.50 0.5647375
673.60 0.5645443
673.70 0.5643512
673.80 0.5641581
673.90 0.5639652
674.00 0.5637723
674.10 0.5635795
674.20 0.5633868
674.30 0.5631942
674.40 0.5630017
674.50 0.5628093
674.60 0.562617
674.70 0.5624247
674.80 0.5622326
674.90 0.5620405
675.00 0.5618486
675.10 0.5616567
675.20 0.5614649
675.30 0.5612732
675.40 0.5610772
675.50 0.5608806
675.60 0.5606841
675.70 0.5604877
675.80 0.5602914
675.90 0.5600951
676.00 0.559899
676.10 0.5597029
676.20 0.5595069
676.30 0.5593111
676.40 0.5591153
676.50 0.5589196
676.60 0.558724
676.70 0.5585285
676.80 0.558333
676.90 0.5581377
677.00 0.5579425
677.10 0.5577473
677.20 0.5575523
677.30 0.5573573
677.40 0.5571624
677.50 0.5569677
677.60 0.556773
677.70 0.5565784
677.80 0.5563838
677.90 0.5561975
678.00 0.5560127
678.10 0.5558279
678.20 0.5556433
678.30 0.5554587
678.40 0.5552742
678.50 0.5550898
678.60 0.5549055
678.70 0.5547213
678.80 0.5545372
678.90 0.5543531
679.00 0.5541691
679.10 0.5539842
679.20 0.5537988
679.30 0.5536136
679.40 0.5534284
679.50 0.5532433
679.60 0.5530583
679.70 0.5528734
679.80 0.5526886
679.90 0.5525039
680.00 0.5523192
680.10 0.5521347
680.20 0.5519502
680.30 0.5517658
680.40 0.5515815
680.50 0.5513972
680.60 0.5512131
680.70 0.551029
680.80 0.5508451
680.90 0.5506612
681.00 0.5504774
681.10 0.5502936
681.20 0.55011
681.30 0.5499264
681.40 0.549743
681.50 0.5495596
681.60 0.5493763
681.70 0.5491931
681.80 0.5490099
681.90 0.5488269
682.00 0.5486439
682.10 0.548461
682.20 0.5482782
682.30 0.5480955
682.40 0.5479129
682.50 0.5477303
682.60 0.5475479
682.70 0.5473655
682.80 0.5471832
682.90 0.547001
683.00 0.5468188
683.10 0.5466368
683.20 0.5464548
683.30 0.5462729
683.40 0.5460911
683.50 0.5459094
683.60 0.5457278
683.70 0.5455462
683.80 0.5453648
683.90 0.5451834
684.00 0.5450021
684.10 0.5448208
684.20 0.5446397
684.30 0.5444587
684.40 0.5442777
684.50 0.5440968
684.60 0.543916
684.70 0.5437353
684.80 0.5435546
684.90 0.5433741
685.00 0.5431936
685.10 0.5430132
685.20 0.5428329
685.30 0.5426526
685.40 0.5424725
685.50 0.5422924
685.60 0.5421124
685.70 0.5419325
685.80 0.5417527
685.90 0.5415703
686.00 0.5413872
686.10 0.5412043
686.20 0.5410214
686.30 0.5408386
686.40 0.5406559
686.50 0.5404733
686.60 0.5402908
686.70 0.5401084
686.80 0.539926
686.90 0.5397437
687.00 0.5395615
687.10 0.5393794
687.20 0.5391974
687.30 0.5390154
687.40 0.5388336
687.50 0.5386518
687.60 0.5384701
687.70 0.5382885
687.80 0.5381069
687.90 0.5379255
688.00 0.5377441
688.10 0.5375628
688.20 0.5373816
688.30 0.5372005
688.40 0.5370195
688.50 0.5368385
688.60 0.5366576
688.70 0.5364769
688.80 0.5362962
688.90 0.5361155
689.00 0.535935
689.10 0.5357545
689.20 0.5355741
689.30 0.5353939
689.40 0.5352136
689.50 0.5350335
689.60 0.5348535
689.70 0.5346735
689.80 0.5344936
689.90 0.5343138
690.00 0.5341341
690.10 0.5339544
690.20 0.5337749
690.30 0.5335954
690.40 0.533416
690.50 0.5332367
690.60 0.5330575
690.70 0.5328783
690.80 0.5326992
690.90 0.5325202
691.00 0.5323413
691.10 0.5321625
691.20 0.5319838
691.30 0.5318051
691.40 0.5316265
691.50 0.531448
691.60 0.5312696
691.70 0.5310913
691.80 0.530913
691.90 0.5307348
692.00 0.5305567
692.10 0.5303787
692.20 0.5302008
692.30 0.5300229
692.40 0.5298451
692.50 0.5296675
692.60 0.5294898
692.70 0.5293122
692.80 0.5291342
692.90 0.5289564
693.00 0.5287786
693.10 0.5286008
693.20 0.5284232
693.30 0.5282456
693.40 0.5280682
693.50 0.5278908
693.60 0.5277134
693.70 0.5275362
693.80 0.527359
693.90 0.527182
694.00 0.527005
694.10 0.5268281
694.20 0.5266512
694.30 0.5264745
694.40 0.5262978
694.50 0.5261212
694.60 0.5259447
694.70 0.5257682
694.80 0.5255919
694.90 0.5254156
695.00 0.5252394
695.10 0.5250633
695.20 0.5248872
695.30 0.5247113
695.40 0.5245354
695.50 0.5243596
695.60 0.5241839
695.70 0.5240082
695.80 0.5238327
695.90 0.5236572
696.00 0.5234818
696.10 0.5233065
696.20 0.5231312
696.30 0.522956
696.40 0.522781
696.50 0.522606
696.60 0.522428
696.70 0.5222493
696.80 0.5220708
696.90 0.5218923
697.00 0.5217139
697.10 0.5215356
697.20 0.5213574
697.30 0.5211792
697.40 0.5210012
697.50 0.5208232
697.60 0.5206453
697.70 0.5204674
697.80 0.5202897
697.90 0.520112
698.00 0.5199344
698.10 0.5197569
698.20 0.5195795
698.30 0.5194022
698.40 0.5192249
698.50 0.5190477
698.60 0.5188706
698.70 0.5186936
698.80 0.5185167
698.90 0.5183398
699.00 0.518163
699.10 0.5179766
699.20 0.517788
699.30 0.5175994
699.40 0.517411
699.50 0.5172226
699.60 0.5170343
699.70 0.5168686
699.80 0.5167041
699.90 0.5165397
700.00 0.5163754
700.10 0.5162112
700.20 0.516047
700.30 0.5158829
700.40 0.5157189
700.50 0.515555
700.60 0.5153911
700.70 0.5152273
700.80 0.5150636
700.90 0.5148999
701.00 0.5147363
701.10 0.5145608
701.20 0.5143826
701.30 0.5142045
701.40 0.5140265
701.50 0.5138485
701.60 0.5136706
701.70 0.5134928
701.80 0.5133151
701.90 0.5131375
702.00 0.5129599
702.10 0.5127824
702.20 0.512605
702.30 0.5124277
702.40 0.5122505
702.50 0.5120733
702.60 0.5118978
702.70 0.5117228
702.80 0.5115478
702.90 0.5113729
703.00 0.5111981
703.10 0.5110234
703.20 0.5108487
703.30 0.5106742
703.40 0.5104997
703.50 0.5103253
703.60 0.5101509
703.70 0.5099767
703.80 0.5098025
703.90 0.5096284
704.00 0.5094544
704.10 0.5092804
704.20 0.5091113
704.30 0.5089434
704.40 0.5087755
704.50 0.5086077
704.60 0.50844
704.70 0.5082723
704.80 0.5081048
704.90 0.5079373
705.00 0.5077698
705.10 0.5076025
705.20 0.5074541
705.30 0.5073102
705.40 0.5071664
705.50 0.5070226
705.60 0.5068789
705.70 0.5067353
705.80 0.5065446
705.90 0.5063429
706.00 0.5061413
706.10 0.5059398
706.20 0.5057855
706.30 0.5056422
706.40 0.5054991
706.50 0.505356
706.60 0.505213
706.70 0.5048378
706.80 0.504695
706.90 0.5045522
707.00 0.5044095
707.10 0.5042668
707.20 0.5041242
707.30 0.5039817
707.40 0.5038079
707.50 0.5036269
707.60 0.5034459
707.70 0.5032651
707.80 0.5030843
707.90 0.5029036
708.00 0.5027355
708.10 0.5025704
708.20 0.5024053
708.30 0.5022403
708.40 0.5020754
708.50 0.5019106
708.60 0.5017459
708.70 0.5015812
708.80 0.5014166
708.90 0.5012521
709.00 0.5010829
709.10 0.5009128
709.20 0.5007427
709.30 0.5005727
709.40 0.5004028
709.50 0.5002329
709.60 0.5000632
709.70 0.4998935
709.80 0.4997239
709.90 0.4995543
710.00 0.4993848
710.10 0.4992155
710.20 0.4990461
710.30 0.4988769
710.40 0.4987077
710.50 0.4985386
710.60 0.4983681
710.70 0.4981972
710.80 0.4980264
710.90 0.4978557
711.00 0.4976851
711.10 0.4975146
711.20 0.4973441
711.30 0.4971737
711.40 0.4970034
711.50 0.4968332
711.60 0.496663
711.70 0.4964929
711.80 0.4963229
711.90 0.4961529
712.00 0.4959831
712.10 0.4958155
712.20 0.4956485
712.30 0.4954816
712.40 0.4953148
712.50 0.4951481
712.60 0.4949814
712.70 0.4948148
712.80 0.4946483
712.90 0.4944818
713.00 0.4943154
713.10 0.4941491
713.20 0.4939829
713.30 0.4938167
713.40 0.4936506
713.50 0.4934846
713.60 0.4933187
713.70 0.493162
713.80 0.4930238
713.90 0.4928857
714.00 0.4927476
714.10 0.4925875
714.20 0.4924223
714.30 0.4922572
714.40 0.4920921
714.50 0.4919271
714.60 0.4917622
714.70 0.4915973
714.80 0.4914325
714.90 0.4912678
715.00 0.4911032
715.10 0.4909387
715.20 0.4907742
715.30 0.4906098
715.40 0.4904454
715.50 0.4902811
715.60 0.490117
715.70 0.4899528
715.80 0.4897888
715.90 0.4896248
716.00 0.4894609
716.10 0.4892971
716.20 0.4891333
716.30 0.4889696
716.40 0.488806
716.50 0.4886425
716.60 0.4884783
716.70 0.4883141
716.80 0.4881499
716.90 0.4879858
717.00 0.4878218
717.10 0.4876578
717.20 0.4874939
717.30 0.4873301
717.40 0.4871664
717.50 0.4870027
717.60 0.4868391
717.70 0.4866756
717.80 0.4865121
717.90 0.4863488
718.00 0.4861854
718.10 0.4860222
718.20 0.4858596
718.30 0.4856974
718.40 0.4855352
718.50 0.4853731
718.60 0.4852111
718.70 0.4850491
718.80 0.4848872
718.90 0.4847254
719.00 0.4845637
719.10 0.484402
719.20 0.4842404
719.30 0.4840788
719.40 0.4839174
719.50 0.483756
719.60 0.4835947
719.70 0.4834334
719.80 0.4832723
719.90 0.4831111
720.00 0.4829501
720.10 0.4827892
720.20 0.4826283
720.30 0.4824674
720.40 0.4823067
720.50 0.482146
720.60 0.4819854
720.70 0.4818423
720.80 0.4817086
720.90 0.4815516
721.00 0.4813936
721.10 0.4812357
721.20 0.4810779
721.30 0.4809202
721.40 0.4807626
721.50 0.480605
721.60 0.4804474
721.70 0.48029
721.80 0.4801326
721.90 0.4799753
722.00 0.479818
722.10 0.4796608
722.20 0.4795037
722.30 0.4793467
722.40 0.4791897
722.50 0.4790328
722.60 0.478876
722.70 0.4787157
722.80 0.4785537
722.90 0.4783917
723.00 0.4782298
723.10 0.4780679
723.20 0.4779062
723.30 0.4777445
723.40 0.4775829
723.50 0.4774213
723.60 0.4772598
723.70 0.4770984
723.80 0.4769371
723.90 0.4767758
724.00 0.4766146
724.10 0.4764535
724.20 0.4762936
724.30 0.4761345
724.40 0.4759754
724.50 0.4758164
724.60 0.4756575
724.70 0.4754986
724.80 0.4753398
724.90 0.4751811
725.00 0.4750224
725.10 0.4748639
725.20 0.4747053
725.30 0.4745469
725.40 0.4743885
725.50 0.4742302
725.60 0.474072
725.70 0.4739138
725.80 0.473745
725.90 0.4735704
726.00 0.473396
726.10 0.4732216
726.20 0.4730473
726.30 0.4728731
726.40 0.4726989
726.50 0.4725249
726.60 0.4723509
726.70 0.4721769
726.80 0.4720317
726.90 0.4719018
727.00 0.471772
727.10 0.4716422
727.20 0.4715125
727.30 0.4713829
727.40 0.4712176
727.50 0.4710333
727.60 0.4708491
727.70 0.4706649
727.80 0.4705165
727.90 0.4703872
728.00 0.470258
728.10 0.4701288
728.20 0.4699997
728.30 0.4698433
728.40 0.469523
728.50 0.4693941
728.60 0.4692653
728.70 0.4691365
728.80 0.4690078
728.90 0.4688791
729.00 0.4687268
729.10 0.4685619
729.20 0.4683971
729.30 0.4682323
729.40 0.4680676
729.50 0.4679029
729.60 0.4677478
729.70 0.4675978
729.80 0.4674479
729.90 0.4672981
730.00 0.4671483
730.10 0.4669986
730.20 0.4668489
730.30 0.4666993
730.40 0.4665498
730.50 0.4664003
730.60 0.4662474
730.70 0.4660927
730.80 0.465938
730.90 0.4657833
731.00 0.4656288
731.10 0.4654743
731.20 0.4653199
731.30 0.4651655
731.40 0.4650112
731.50 0.464857
731.60 0.4647028
731.70 0.4645488
731.80 0.4643947
731.90 0.4642408
732.00 0.4640869
732.10 0.4639331
732.20 0.4637781
732.30 0.4636227
732.40 0.4634672
732.50 0.4633119
732.60 0.4631566
732.70 0.4630014
732.80 0.4628462
732.90 0.4626911
733.00 0.4625361
733.10 0.4623812
733.20 0.4622263
733.30 0.4620715
733.40 0.4619167
733.50 0.461762
733.60 0.4616074
733.70 0.4614546
733.80 0.4613029
733.90 0.4611512
734.00 0.4609996
734.10 0.460848
734.20 0.4606965
734.30 0.4605451
734.40 0.4603937
734.50 0.4602424
734.60 0.4600912
734.70 0.45994
734.80 0.4597889
734.90 0.4596379
735.00 0.4594869
735.10 0.459336
735.20 0.4591851
735.30 0.4590314
735.40 0.4588441
735.50 0.4586568
735.60 0.4584696
735.70 0.4583064
735.80 0.4581561
735.90 0.4580059
736.00 0.4578558
736.10 0.4577057
736.20 0.4575557
736.30 0.4574058
736.40 0.4572559
736.50 0.4571061
736.60 0.4569563
736.70 0.4568066
736.80 0.456657
736.90 0.4565074
737.00 0.4563579
737.10 0.4562085
737.20 0.4560591
737.30 0.4559098
737.40 0.4557606
737.50 0.4556114
737.60 0.4554623
737.70 0.4553133
737.80 0.4551643
737.90 0.4550154
738.00 0.4548665
738.10 0.4547177
738.20 0.4545672
738.30 0.4544158
738.40 0.4542644
738.50 0.4541131
738.60 0.4539618
738.70 0.4538107
738.80 0.4536596
738.90 0.4535085
739.00 0.4533575
739.10 0.4532066
739.20 0.4530558
739.30 0.452905
739.40 0.4527543
739.50 0.4526036
739.60 0.452453
739.70 0.4523025
739.80 0.452152
739.90 0.4520016
740.00 0.4518513
740.10 0.451701
740.20 0.4515508
740.30 0.4514007
740.40 0.4512506
740.50 0.4511006
740.60 0.4509507
740.70 0.4508008
740.80 0.450651
740.90 0.4505013
741.00 0.4503516
741.10 0.4502019
741.20 0.4500524
741.30 0.4499029
741.40 0.4497535
741.50 0.4496041
741.60 0.4494548
741.70 0.4493056
741.80 0.4491564
741.90 0.4490073
742.00 0.4488583
742.10 0.4487093
742.20 0.4485604
742.30 0.4484115
742.40 0.4482627
742.50 0.448114
742.60 0.4479653
742.70 0.447821
742.80 0.4476801
742.90 0.4475393
743.00 0.4473985
743.10 0.4472578
743.20 0.4471172
743.30 0.4469766
743.40 0.4468361
743.50 0.4466956
743.60 0.4465552
743.70 0.446413
743.80 0.4462635
743.90 0.446114
744.00 0.4459646
744.10 0.4458152
744.20 0.4456659
744.30 0.4455167
744.40 0.4453676
744.50 0.4452185
744.60 0.4450694
744.70 0.4449205
744.80 0.4447716
744.90 0.4446227
745.00 0.444474
745.10 0.4443252
745.20 0.4441766
745.30 0.444028
745.40 0.4438795
745.50 0.443731
745.60 0.4435827
745.70 0.4434343
745.80 0.4432861
745.90 0.4431379
746.00 0.4429897
746.10 0.4428416
746.20 0.4426936
746.30 0.4425457
746.40 0.4423978
746.50 0.44225
746.60 0.4421022
746.70 0.4419545
746.80 0.4418069
746.90 0.4416593
747.00 0.4415118
747.10 0.4413644
747.20 0.441217
747.30 0.4410697
747.40 0.4409224
747.50 0.4407753
747.60 0.4406281
747.70 0.4404811
747.80 0.4403341
747.90 0.4401871
748.00 0.4400402
748.10 0.4398934
748.20 0.4397467
748.30 0.4396
748.40 0.4394534
748.50 0.4393068
748.60 0.4391603
748.70 0.4390139
748.80 0.4388675
748.90 0.4387212
749.00 0.438575
749.10 0.4384288
749.20 0.4382826
749.30 0.4381366
749.40 0.4379906
749.50 0.4378446
749.60 0.4376988
749.70 0.437553
749.80 0.4374072
749.90 0.4372615
750.00 0.4371159
750.10 0.4369708
750.20 0.4368268
750.30 0.4366829
750.40 0.4365391
750.50 0.4363953
750.60 0.4362516
750.70 0.4361079
750.80 0.4359643
750.90 0.4358208
751.00 0.4356773
751.10 0.4355339
751.20 0.4353905
751.30 0.4352473
751.40 0.435104
751.50 0.4349609
751.60 0.4348177
751.70 0.4346747
751.80 0.4345317
751.90 0.4343888
752.00 0.4342459
752.10 0.4341031
752.20 0.4339604
752.30 0.4338177
752.40 0.4336751
752.50 0.4335325
752.60 0.43339
752.70 0.4332476
752.80 0.4331052
752.90 0.4329629
753.00 0.4328206
753.10 0.4326784
753.20 0.4325363
753.30 0.4323942
753.40 0.4322522
753.50 0.4321102
753.60 0.4319683
753.70 0.4318265
753.80 0.4316847
753.90 0.4315387
754.00 0.4313916
754.10 0.4312446
754.20 0.4310976
754.30 0.4309507
754.40 0.4308038
754.50 0.4306571
754.60 0.4305103
754.70 0.4303637
754.80 0.4302171
754.90 0.4300706
755.00 0.4299241
755.10 0.4297777
755.20 0.4296313
755.30 0.429485
755.40 0.4293388
755.50 0.4291927
755.60 0.4290466
755.70 0.4289005
755.80 0.4287546
755.90 0.4286086
756.00 0.4284628
756.10 0.428317
756.20 0.4281713
756.30 0.4280256
756.40 0.42788
756.50 0.4277345
756.60 0.427589
756.70 0.4274436
756.80 0.4272983
756.90 0.427153
757.00 0.4270077
757.10 0.4268626
757.20 0.4267175
757.30 0.4265724
757.40 0.4264274
757.50 0.4262825
757.60 0.4261393
757.70 0.4260001
757.80 0.425861
757.90 0.425722
758.00 0.425583
758.10 0.4254441
758.20 0.4253053
758.30 0.4251665
758.40 0.4250278
758.50 0.4248891
758.60 0.4247505
758.70 0.4246119
758.80 0.4244734
758.90 0.424335
759.00 0.4241966
759.10 0.4240583
759.20 0.42392
759.30 0.4237818
759.40 0.4236437
759.50 0.4235056
759.60 0.4233676
759.70 0.4232296
759.80 0.4230917
759.90 0.4229538
760.00 0.422816
760.10 0.4226783
760.20 0.4225406
760.30 0.422403
760.40 0.4222654
760.50 0.4221279
760.60 0.4219904
760.70 0.421853
760.80 0.4217157
760.90 0.4215784
761.00 0.4214412
761.10 0.421304
761.20 0.4211669
761.30 0.4210299
761.40 0.4208929
761.50 0.420756
761.60 0.4206191
761.70 0.4204823
761.80 0.4203455
761.90 0.4202088
762.00 0.4200721
762.10 0.4199356
762.20 0.419799
762.30 0.4196625
762.40 0.4195261
762.50 0.4193898
762.60 0.4192535
762.70 0.4191172
762.80 0.418981
762.90 0.4188449
763.00 0.4187088
763.10 0.4185728
763.20 0.4184368
763.30 0.4183009
763.40 0.4181651
763.50 0.4180293
763.60 0.4178935
763.70 0.4177579
763.80 0.4176222
763.90 0.4174867
764.00 0.4173512
764.10 0.4172157
764.20 0.4170803
764.30 0.416945
764.40 0.4168097
764.50 0.4166745
764.60 0.4165393
764.70 0.4164042
764.80 0.4162691
764.90 0.4161341
765.00 0.4159992
765.10 0.4158643
765.20 0.4157283
765.30 0.4155912
765.40 0.4154541
765.50 0.4153171
765.60 0.4151802
765.70 0.4150433
765.80 0.4149065
765.90 0.4147697
766.00 0.414633
766.10 0.4144964
766.20 0.4143598
766.30 0.4142233
766.40 0.4140868
766.50 0.4139504
766.60 0.413814
766.70 0.4136777
766.80 0.4135415
766.90 0.4134053
767.00 0.4132692
767.10 0.4131331
767.20 0.4129971
767.30 0.4128611
767.40 0.4127252
767.50 0.4125894
767.60 0.4124536
767.70 0.4123179
767.80 0.4121822
767.90 0.4120466
768.00 0.411911
768.10 0.4117755
768.20 0.41164
768.30 0.4115047
768.40 0.4113693
768.50 0.411234
768.60 0.4110988
768.70 0.4109636
768.80 0.4108285
768.90 0.4106935
769.00 0.4105585
769.10 0.4104235
769.20 0.4102887
769.30 0.4101538
769.40 0.4100191
769.50 0.4098843
769.60 0.4097497
769.70 0.4096151
769.80 0.4094805
769.90 0.409346
770.00 0.4092116
770.10 0.4090772
770.20 0.4089429
770.30 0.4088086
770.40 0.4086744
770.50 0.4085403
770.60 0.4084062
770.70 0.4082721
770.80 0.4081381
770.90 0.4080042
771.00 0.4078703
771.10 0.4077365
771.20 0.4076027
771.30 0.407469
771.40 0.4073354
771.50 0.4072018
771.60 0.4070682
771.70 0.4069347
771.80 0.4068013
771.90 0.4066679
772.00 0.4065346
772.10 0.4064013
772.20 0.4062681
772.30 0.406135
772.40 0.4060019
772.50 0.4058688
772.60 0.4057359
772.70 0.4056029
772.80 0.40547
772.90 0.4053375
773.00 0.405205
773.10 0.4050726
773.20 0.4049402
773.30 0.4048078
773.40 0.4046756
773.50 0.4045434
773.60 0.4044112
773.70 0.4042791
773.80 0.404147
773.90 0.404015
774.00 0.4038831
774.10 0.4037512
774.20 0.4036194
774.30 0.4034876
774.40 0.4033558
774.50 0.4032242
774.60 0.4030926
774.70 0.402961
774.80 0.4028295
774.90 0.402698
775.00 0.4025666
775.10 0.4024353
775.20 0.402304
775.30 0.4021728
775.40 0.4020416
775.50 0.4019104
775.60 0.4017794
775.70 0.4016484
775.80 0.4015174
775.90 0.4013865
776.00 0.4012556
776.10 0.4011248
776.20 0.4009941
776.30 0.4008634
776.40 0.4007327
776.50 0.4006021
776.60 0.4004716
776.70 0.4003411
776.80 0.4002107
776.90 0.4000803
777.00 0.39995
777.10 0.3998198
777.20 0.3996895
777.30 0.3995594
777.40 0.3994293
777.50 0.3992992
777.60 0.3991692
777.70 0.3990393
777.80 0.3989094
777.90 0.3987796
778.00 0.3986498
778.10 0.3985201
778.20 0.3983904
778.30 0.3982608
778.40 0.3981312
778.50 0.3980017
778.60 0.3978722
778.70 0.3977428
778.80 0.3976135
778.90 0.3974842
779.00 0.3973549
779.10 0.3972258
779.20 0.3970966
779.30 0.3969675
779.40 0.3968385
779.50 0.3967095
779.60 0.3965806
779.70 0.3964517
779.80 0.3963229
779.90 0.3961941
780.00 0.3960654
780.10 0.3959367
780.20 0.3958081
780.30 0.3956796
780.40 0.3955511
780.50 0.3954226
780.60 0.3952934
780.70 0.3951639
780.80 0.3950344
780.90 0.394905
781.00 0.3947757
781.10 0.3946464
781.20 0.3945172
781.30 0.394388
781.40 0.3942588
781.50 0.3941298
781.60 0.3940007
781.70 0.3938718
781.80 0.3937428
781.90 0.393614
782.00 0.3934852
782.10 0.3933564
782.20 0.3932277
782.30 0.393099
782.40 0.3929704
782.50 0.3928419
782.60 0.3927134
782.70 0.392585
782.80 0.3924566
782.90 0.3923282
783.00 0.3921999
783.10 0.3920717
783.20 0.3919435
783.30 0.3918154
783.40 0.3916873
783.50 0.3915593
783.60 0.3914313
783.70 0.3913034
783.80 0.3911756
783.90 0.3910477
784.00 0.39092
784.10 0.3907923
784.20 0.3906646
784.30 0.390537
784.40 0.3904095
784.50 0.390282
784.60 0.3901539
784.70 0.3900244
784.80 0.389895
784.90 0.3897657
785.00 0.3896364
785.10 0.3895071
785.20 0.3893779
785.30 0.3892488
785.40 0.3891197
785.50 0.3889906
785.60 0.3888617
785.70 0.3887327
785.80 0.3886038
785.90 0.388475
786.00 0.3883462
786.10 0.3882175
786.20 0.3880888
786.30 0.3879602
786.40 0.3878317
786.50 0.3877032
786.60 0.3875747
786.70 0.3874463
786.80 0.3873179
786.90 0.3871897
787.00 0.3870614
787.10 0.3869332
787.20 0.3868051
787.30 0.386677
787.40 0.3865489
787.50 0.386421
787.60 0.386293
787.70 0.3861652
787.80 0.3860373
787.90 0.3859096
788.00 0.3857818
788.10 0.3856542
788.20 0.3855266
788.30 0.385399
788.40 0.3852724
788.50 0.3851463
788.60 0.3850202
788.70 0.3848942
788.80 0.3847683
788.90 0.3846424
789.00 0.3845165
789.10 0.3843907
789.20 0.384265
789.30 0.3841393
789.40 0.3840136
789.50 0.383888
789.60 0.3837625
789.70 0.383637
789.80 0.3835115
789.90 0.3833862
790.00 0.3832608
790.10 0.3831355
790.20 0.3830103
790.30 0.3828851
790.40 0.38276
790.50 0.3826349
790.60 0.3825099
790.70 0.3823849
790.80 0.38226
790.90 0.3821351
791.00 0.3820103
791.10 0.3818855
791.20 0.3817608
791.30 0.3816361
791.40 0.3815115
791.50 0.3813869
791.60 0.3812624
791.70 0.3811379
791.80 0.3810135
791.90 0.3808891
792.00 0.3807648
792.10 0.3806405
792.20 0.3805163
792.30 0.3803921
792.40 0.380268
792.50 0.3801439
792.60 0.3800199
792.70 0.3798959
792.80 0.379772
792.90 0.3796481
793.00 0.3795243
793.10 0.3794005
793.20 0.3792768
793.30 0.3791531
793.40 0.3790295
793.50 0.378906
793.60 0.3787824
793.70 0.378659
793.80 0.3785355
793.90 0.3784122
794.00 0.3782889
794.10 0.3781656
794.20 0.3780424
794.30 0.3779192
794.40 0.3777961
794.50 0.377673
794.60 0.37755
794.70 0.377427
794.80 0.3773041
794.90 0.3771812
795.00 0.3770584
795.10 0.3769357
795.20 0.3768129
795.30 0.3766903
795.40 0.3765676
795.50 0.3764451
795.60 0.3763226
795.70 0.3762001
795.80 0.3760777
795.90 0.3759553
796.00 0.375833
796.10 0.3757107
796.20 0.3755885
796.30 0.3754665
796.40 0.3753447
796.50 0.3752229
796.60 0.3751012
796.70 0.3749795
796.80 0.3748578
796.90 0.3747362
797.00 0.3746147
797.10 0.3744932
797.20 0.3743717
797.30 0.3742503
797.40 0.374129
797.50 0.3740077
797.60 0.3738864
797.70 0.3737652
797.80 0.3736441
797.90 0.3735229
798.00 0.3734019
798.10 0.3732809
798.20 0.3731599
798.30 0.373039
798.40 0.3729181
798.50 0.3727973
798.60 0.3726766
798.70 0.3725559
798.80 0.3724352
798.90 0.3723146
799.00 0.372194
799.10 0.3720735
799.20 0.371953
799.30 0.3718326
799.40 0.3717122
799.50 0.3715919
799.60 0.3714716
799.70 0.3713514
799.80 0.3712312
799.90 0.3711111
800.00 0.370991
800.10 0.370871
800.20 0.370751
800.30 0.370631
800.40 0.3705111
800.50 0.3703913
800.60 0.3702715
800.70 0.3701518
800.80 0.3700321
800.90 0.3699124
801.00 0.3697928
801.10 0.3696733
801.20 0.3695538
801.30 0.3694343
801.40 0.3693149
801.50 0.3691955
801.60 0.3690762
801.70 0.368957
801.80 0.3688377
801.90 0.3687186
802.00 0.3685995
802.10 0.3684804
802.20 0.3683614
802.30 0.3682424
802.40 0.3681235
802.50 0.3680046
802.60 0.3678858
802.70 0.367767
802.80 0.3676482
802.90 0.3675295
803.00 0.3674109
803.10 0.3672923
803.20 0.3671738
803.30 0.3670553
803.40 0.3669368
803.50 0.3668184
803.60 0.3667001
803.70 0.3665817
803.80 0.3664635
803.90 0.3663453
804.00 0.3662271
804.10 0.366109
804.20 0.365991
804.30 0.3658732
804.40 0.3657555
804.50 0.3656379
804.60 0.3655202
804.70 0.3654027
804.80 0.3652852
804.90 0.3651677
805.00 0.3650503
805.10 0.3649329
805.20 0.3648156
805.30 0.3646983
805.40 0.364581
805.50 0.3644639
805.60 0.3643467
805.70 0.3642296
805.80 0.3641126
805.90 0.3639956
806.00 0.3638786
806.10 0.3637617
806.20 0.3636448
806.30 0.363528
806.40 0.3634113
806.50 0.3632945
806.60 0.3631779
806.70 0.3630612
806.80 0.3629447
806.90 0.3628281
807.00 0.3627116
807.10 0.3625952
807.20 0.3624788
807.30 0.3623625
807.40 0.3622462
807.50 0.3621299
807.60 0.3620137
807.70 0.3618975
807.80 0.3617814
807.90 0.3616654
808.00 0.3615493
808.10 0.3614334
808.20 0.3613174
808.30 0.3611971
808.40 0.3610768
808.50 0.3609566
808.60 0.3608365
808.70 0.3607164
808.80 0.3605963
808.90 0.3604763
809.00 0.3603564
809.10 0.3602364
809.20 0.3601166
809.30 0.3599968
809.40 0.359877
809.50 0.3597573
809.60 0.3596376
809.70 0.359518
809.80 0.3593984
809.90 0.3592789
810.00 0.3591594
810.10 0.35904
810.20 0.3589206
810.30 0.3588013
810.40 0.358682
810.50 0.3585627
810.60 0.3584436
810.70 0.3583244
810.80 0.3582053
810.90 0.3580863
811.00 0.3579673
811.10 0.3578483
811.20 0.3577294
811.30 0.3576106
811.40 0.3574918
811.50 0.357373
811.60 0.3572543
811.70 0.3571356
811.80 0.357017
811.90 0.3568984
812.00 0.3567799
812.10 0.3566614
812.20 0.356543
812.30 0.3564271
812.40 0.3563118
812.50 0.3561966
812.60 0.3560814
812.70 0.3559663
812.80 0.3558512
812.90 0.3557361
813.00 0.3556211
813.10 0.3555062
813.20 0.3553913
813.30 0.3552764
813.40 0.3551616
813.50 0.3550468
813.60 0.3549321
813.70 0.3548174
813.80 0.3547028
813.90 0.3545882
814.00 0.3544736
814.10 0.3543591
814.20 0.3542447
814.30 0.3541303
814.40 0.3540159
814.50 0.3539016
814.60 0.3537873
814.70 0.3536731
814.80 0.3535589
814.90 0.3534448
815.00 0.3533307
815.10 0.3532167
815.20 0.3531027
815.30 0.3529887
815.40 0.3528748
815.50 0.3527609
815.60 0.3526471
815.70 0.3525333
815.80 0.3524196
815.90 0.3523059
816.00 0.3521923
816.10 0.3520787
816.20 0.3519652
816.30 0.3518517
816.40 0.3517382
816.50 0.3516248
816.60 0.3515114
816.70 0.3513981
816.80 0.3512848
816.90 0.3511716
817.00 0.3510584
817.10 0.3509453
817.20 0.3508322
817.30 0.3507191
817.40 0.3506061
817.50 0.3504932
817.60 0.3503802
817.70 0.3502674
817.80 0.3501545
817.90 0.3500418
818.00 0.349929
818.10 0.3498163
818.20 0.3497037
818.30 0.3495911
818.40 0.3494785
818.50 0.349366
818.60 0.3492535
818.70 0.3491411
818.80 0.3490287
818.90 0.3489164
819.00 0.3488041
819.10 0.3486918
819.20 0.3485796
819.30 0.3484715
819.40 0.3483662
819.50 0.3482609
819.60 0.3481556
819.70 0.3480504
819.80 0.3479452
819.90 0.3478401
820.00 0.347735
820.10 0.3476317
820.20 0.347547
820.30 0.3474622
820.40 0.3473606
820.50 0.3472467
820.60 0.3471329
820.70 0.3470191
820.80 0.3469054
820.90 0.3467917
821.00 0.346678
821.10 0.3465644
821.20 0.3464509
821.30 0.3463374
821.40 0.3462239
821.50 0.3461105
821.60 0.3459971
821.70 0.3458838
821.80 0.3457705
821.90 0.3456572
822.00 0.345544
822.10 0.3454309
822.20 0.3453178
822.30 0.3452047
822.40 0.3450917
822.50 0.3449787
822.60 0.3448658
822.70 0.3447529
822.80 0.3446401
822.90 0.3445273
823.00 0.3444145
823.10 0.3443018
823.20 0.3441891
823.30 0.3440765
823.40 0.343964
823.50 0.3438514
823.60 0.3437389
823.70 0.3436265
823.80 0.3435141
823.90 0.3434018
824.00 0.3432895
824.10 0.3431772
824.20 0.343065
824.30 0.3429528
824.40 0.3428407
824.50 0.3427286
824.60 0.3426166
824.70 0.3425046
824.80 0.3423926
824.90 0.3422807
825.00 0.3421688
825.10 0.342057
825.20 0.3419453
825.30 0.3418335
825.40 0.3417218
825.50 0.3416102
825.60 0.3414986
825.70 0.341387
825.80 0.3412755
825.90 0.3411641
826.00 0.3410526
826.10 0.3409413
826.20 0.3408299
826.30 0.3407227
826.40 0.3406181
826.50 0.3405136
826.60 0.3404091
826.70 0.3403047
826.80 0.3402003
826.90 0.340096
827.00 0.3399917
827.10 0.3398874
827.20 0.3397832
827.30 0.339679
827.40 0.3395749
827.50 0.3394708
827.60 0.3393667
827.70 0.3392627
827.80 0.3391587
827.90 0.3390548
828.00 0.3389509
828.10 0.338847
828.20 0.3387432
828.30 0.3386394
828.40 0.3385357
828.50 0.338432
828.60 0.3383259
828.70 0.3382177
828.80 0.3381096
828.90 0.3380016
829.00 0.3378936
829.10 0.3377856
829.20 0.3376776
829.30 0.3375698
829.40 0.3374619
829.50 0.3373541
829.60 0.3372463
829.70 0.3371386
829.80 0.3370309
829.90 0.3369233
830.00 0.3368157
830.10 0.3367081
830.20 0.3366006
830.30 0.3364931
830.40 0.3363857
830.50 0.3362783
830.60 0.336171
830.70 0.3360637
830.80 0.3359564
830.90 0.3358492
831.00 0.335742
831.10 0.3356349
831.20 0.3355278
831.30 0.3354207
831.40 0.3353137
831.50 0.3352068
831.60 0.3350998
831.70 0.334993
831.80 0.3348861
831.90 0.3347793
832.00 0.3346726
832.10 0.3345658
832.20 0.3344592
832.30 0.3343525
832.40 0.3342459
832.50 0.3341394
832.60 0.3340329
832.70 0.3339264
832.80 0.33382
832.90 0.3337136
833.00 0.3336072
833.10 0.3335009
833.20 0.3333947
833.30 0.3332885
833.40 0.3331823
833.50 0.3330762
833.60 0.3329701
833.70 0.332864
833.80 0.332758
833.90 0.332652
834.00 0.3325461
834.10 0.3324402
834.20 0.3323343
834.30 0.3322285
834.40 0.3321228
834.50 0.3320171
834.60 0.3319114
834.70 0.3318057
834.80 0.3317001
834.90 0.3315946
835.00 0.331489
835.10 0.3313836
835.20 0.3312781
835.30 0.3311727
835.40 0.3310674
835.50 0.3309621
835.60 0.3308568
835.70 0.3307516
835.80 0.3306464
835.90 0.3305412
836.00 0.3304361
836.10 0.330331
836.20 0.330226
836.30 0.330121
836.40 0.3300161
836.50 0.3299112
836.60 0.3298063
836.70 0.3297015
836.80 0.3295967
836.90 0.3294908
837.00 0.3293843
837.10 0.329278
837.20 0.3291716
837.30 0.3290653
837.40 0.3289591
837.50 0.3288529
837.60 0.3287467
837.70 0.3286405
837.80 0.3285345
837.90 0.3284284
838.00 0.3283224
838.10 0.3282164
838.20 0.3281105
838.30 0.3280046
838.40 0.3278988
838.50 0.327793
838.60 0.3276872
838.70 0.3275815
838.80 0.3274758
838.90 0.3273702
839.00 0.3272646
839.10 0.327159
839.20 0.3270535
839.30 0.326948
839.40 0.3268426
839.50 0.3267372
839.60 0.3266318
839.70 0.3265265
839.80 0.3264213
839.90 0.326316
840.00 0.3262108
840.10 0.3261057
840.20 0.3260006
840.30 0.3258955
840.40 0.3257905
840.50 0.3256855
840.60 0.3255806
840.70 0.3254757
840.80 0.3253708
840.90 0.325266
841.00 0.3251612
841.10 0.3250565
841.20 0.3249518
841.30 0.3248471
841.40 0.3247425
841.50 0.3246379
841.60 0.3245334
841.70 0.3244289
841.80 0.3243245
841.90 0.3242201
842.00 0.3241157
842.10 0.3240114
842.20 0.3239071
842.30 0.3238028
842.40 0.3236986
842.50 0.3235945
842.60 0.3234903
842.70 0.3233862
842.80 0.3232822
842.90 0.3231782
843.00 0.3230742
843.10 0.3229703
843.20 0.3228664
843.30 0.3227626
843.40 0.3226588
843.50 0.322555
843.60 0.3224513
843.70 0.3223476
843.80 0.3222439
843.90 0.3221403
844.00 0.3220368
844.10 0.3219333
844.20 0.3218298
844.30 0.3217263
844.40 0.3216229
844.50 0.3215196
844.60 0.3214162
844.70 0.3213129
844.80 0.3212097
844.90 0.3211065
845.00 0.3210033
845.10 0.3209002
845.20 0.3207971
845.30 0.3206963
845.40 0.3205954
845.50 0.3204947
845.60 0.3203939
845.70 0.3202932
845.80 0.3201925
845.90 0.3200919
846.00 0.3199913
846.10 0.3198908
846.20 0.3197903
846.30 0.3196898
846.40 0.3195893
846.50 0.3194889
846.60 0.3193886
846.70 0.3192883
846.80 0.319188
846.90 0.3190877
847.00 0.3189875
847.10 0.3188874
847.20 0.3187872
847.30 0.3186871
847.40 0.3185871
847.50 0.3184871
847.60 0.3183871
847.70 0.3182872
847.80 0.3181873
847.90 0.3180874
848.00 0.3179876
848.10 0.3178878
848.20 0.3177881
848.30 0.3176883
848.40 0.3175887
848.50 0.317489
848.60 0.3173895
848.70 0.3172899
848.80 0.3171904
848.90 0.3170909
849.00 0.3169915
849.10 0.3168921
849.20 0.3167927
849.30 0.3166934
849.40 0.3165941
849.50 0.3164948
849.60 0.3163956
849.70 0.3162964
849.80 0.3161973
849.90 0.3160982
850.00 0.3159991
850.10 0.3159001
850.20 0.3158011
850.30 0.3157022
850.40 0.3156033
850.50 0.3155044
850.60 0.3154056
850.70 0.3153068
850.80 0.315208
850.90 0.3151093
851.00 0.3150106
851.10 0.314912
851.20 0.3148134
851.30 0.3147148
851.40 0.3146163
851.50 0.3145178
851.60 0.3144193
851.70 0.3143209
851.80 0.3142225
851.90 0.3141242
852.00 0.3140259
852.10 0.3139276
852.20 0.3138294
852.30 0.3137312
852.40 0.313633
852.50 0.3135349
852.60 0.3134368
852.70 0.3133388
852.80 0.3132407
852.90 0.3131428
853.00 0.3130448
853.10 0.3129469
853.20 0.3128491
853.30 0.3127513
853.40 0.3126535
853.50 0.3125557
853.60 0.312458
853.70 0.3123596
853.80 0.3122603
853.90 0.3121611
854.00 0.3120619
854.10 0.3119628
854.20 0.3118637
854.30 0.3117646
854.40 0.3116656
854.50 0.3115666
854.60 0.3114676
854.70 0.3113687
854.80 0.3112698
854.90 0.311171
855.00 0.3110722
855.10 0.3109734
855.20 0.3108747
855.30 0.310776
855.40 0.3106773
855.50 0.3105787
855.60 0.3104801
855.70 0.3103816
855.80 0.3102831
855.90 0.3101846
856.00 0.3100862
856.10 0.3099878
856.20 0.3098895
856.30 0.3097911
856.40 0.3096929
856.50 0.3095946
856.60 0.3094964
856.70 0.3093983
856.80 0.3093001
856.90 0.309202
857.00 0.309104
857.10 0.309006
857.20 0.308908
857.30 0.30881
857.40 0.3087121
857.50 0.3086143
857.60 0.3085164
857.70 0.3084187
857.80 0.3083209
857.90 0.3082232
858.00 0.3081255
858.10 0.3080279
858.20 0.3079303
858.30 0.3078327
858.40 0.3077351
858.50 0.3076377
858.60 0.3075402
858.70 0.3074428
858.80 0.3073454
858.90 0.307248
859.00 0.3071507
859.10 0.3070535
859.20 0.3069562
859.30 0.306859
859.40 0.3067619
859.50 0.3066647
859.60 0.3065676
859.70 0.3064706
859.80 0.3063736
859.90 0.3062766
860.00 0.3061797
860.10 0.3060828
860.20 0.3059859
860.30 0.3058891
860.40 0.3057923
860.50 0.3056955
860.60 0.3055988
860.70 0.3055021
860.80 0.3054055
860.90 0.3053088
861.00 0.3052123
861.10 0.3051157
861.20 0.3050192
861.30 0.3049228
861.40 0.3048263
861.50 0.30473
861.60 0.3046336
861.70 0.3045373
861.80 0.304441
861.90 0.3043448
862.00 0.3042485
862.10 0.3041524
862.20 0.3040563
862.30 0.3039604
862.40 0.3038646
862.50 0.3037688
862.60 0.3036731
862.70 0.3035774
862.80 0.3034817
862.90 0.3033861
863.00 0.3032905
863.10 0.303195
863.20 0.3030995
863.30 0.303004
863.40 0.3029085
863.50 0.3028131
863.60 0.3027177
863.70 0.3026224
863.80 0.3025271
863.90 0.3024318
864.00 0.3023366
864.10 0.3022414
864.20 0.3021463
864.30 0.3020511
864.40 0.3019561
864.50 0.301861
864.60 0.301766
864.70 0.301671
864.80 0.3015761
864.90 0.3014812
865.00 0.3013863
865.10 0.3012915
865.20 0.3011967
865.30 0.3011019
865.40 0.3010072
865.50 0.3009125
865.60 0.3008178
865.70 0.3007232
865.80 0.3006286
865.90 0.3005341
866.00 0.3004396
866.10 0.3003451
866.20 0.3002506
866.30 0.3001562
866.40 0.3000619
866.50 0.2999675
866.60 0.2998732
866.70 0.299779
866.80 0.2996847
866.90 0.2995905
867.00 0.2994964
867.10 0.2994023
867.20 0.2993082
867.30 0.2992141
867.40 0.2991201
867.50 0.2990261
867.60 0.2989322
867.70 0.2988383
867.80 0.2987444
867.90 0.2986505
868.00 0.2985567
868.10 0.298463
868.20 0.2983692
868.30 0.2982755
868.40 0.2981819
868.50 0.2980883
868.60 0.2979947
868.70 0.2979011
868.80 0.2978076
868.90 0.2977141
869.00 0.2976206
869.10 0.2975272
869.20 0.2974338
869.30 0.2973405
869.40 0.2972472
869.50 0.2971539
869.60 0.2970607
869.70 0.2969675
869.80 0.2968743
869.90 0.2967812
870.00 0.2966881
870.10 0.296595
870.20 0.296502
870.30 0.296409
870.40 0.296316
870.50 0.2962231
870.60 0.2961302
870.70 0.2960373
870.80 0.2959445
870.90 0.2958519
871.00 0.2957594
871.10 0.295667
871.20 0.2955745
871.30 0.2954821
871.40 0.2953897
871.50 0.2952974
871.60 0.2952051
871.70 0.2951128
871.80 0.2950206
871.90 0.2949284
872.00 0.2948363
872.10 0.2947441
872.20 0.294652
872.30 0.29456
872.40 0.294468
872.50 0.294376
872.60 0.294284
872.70 0.2941921
872.80 0.2941002
872.90 0.2940084
873.00 0.2939165
873.10 0.2938248
873.20 0.293733
873.30 0.2936413
873.40 0.2935496
873.50 0.293458
873.60 0.2933664
873.70 0.2932748
873.80 0.2931832
873.90 0.2930917
874.00 0.2930003
874.10 0.2929088
874.20 0.2928174
874.30 0.292726
874.40 0.2926347
874.50 0.2925434
874.60 0.2924521
874.70 0.2923609
874.80 0.2922697
874.90 0.2921785
875.00 0.2920874
875.10 0.2919963
875.20 0.2919052
875.30 0.2918142
875.40 0.2917232
875.50 0.2916322
875.60 0.2915413
875.70 0.2914504
875.80 0.2913596
875.90 0.2912687
876.00 0.2911779
876.10 0.2910872
876.20 0.2909964
876.30 0.2909058
876.40 0.2908151
876.50 0.2907245
876.60 0.2906339
876.70 0.2905433
876.80 0.2904528
876.90 0.2903623
877.00 0.2902719
877.10 0.2901814
877.20 0.290091
877.30 0.2900007
877.40 0.2899104
877.50 0.2898201
877.60 0.2897298
877.70 0.2896396
877.80 0.2895494
877.90 0.2894593
878.00 0.2893692
878.10 0.2892791
878.20 0.289189
878.30 0.289099
878.40 0.289009
878.50 0.2889191
878.60 0.2888291
878.70 0.2887393
878.80 0.2886494
878.90 0.2885596
879.00 0.2884698
879.10 0.28838
879.20 0.2882903
879.30 0.2882006
879.40 0.288111
879.50 0.2880214
879.60 0.2879292
879.70 0.2878365
879.80 0.2877438
879.90 0.2876511
880.00 0.2875585
880.10 0.287466
880.20 0.2873734
880.30 0.2872809
880.40 0.2871884
880.50 0.287096
880.60 0.2870036
880.70 0.2869112
880.80 0.2868189
880.90 0.2867266
881.00 0.2866343
881.10 0.2865421
881.20 0.2864499
881.30 0.2863577
881.40 0.2862656
881.50 0.2861735
881.60 0.2860814
881.70 0.2859894
881.80 0.2858974
881.90 0.2858055
882.00 0.2857135
882.10 0.2856216
882.20 0.2855298
882.30 0.285438
882.40 0.2853462
882.50 0.2852544
882.60 0.2851627
882.70 0.285071
882.80 0.2849794
882.90 0.2848878
883.00 0.2847962
883.10 0.2847046
883.20 0.2846131
883.30 0.2845216
883.40 0.2844302
883.50 0.2843388
883.60 0.2842474
883.70 0.2841561
883.80 0.2840648
883.90 0.2839735
884.00 0.2838851
884.10 0.2837973
884.20 0.2837094
884.30 0.2836217
884.40 0.2835339
884.50 0.2834462
884.60 0.2833586
884.70 0.2832709
884.80 0.2831833
884.90 0.2830957
885.00 0.2830082
885.10 0.2829207
885.20 0.2828332
885.30 0.2827457
885.40 0.2826583
885.50 0.2825709
885.60 0.2824836
885.70 0.2823963
885.80 0.282309
885.90 0.2822217
886.00 0.2821345
886.10 0.2820473
886.20 0.2819601
886.30 0.281873
886.40 0.2817859
886.50 0.2816989
886.60 0.2816118
886.70 0.2815248
886.80 0.2814379
886.90 0.2813509
887.00 0.281264
887.10 0.2811772
887.20 0.2810903
887.30 0.2810035
887.40 0.2809167
887.50 0.28083
887.60 0.2807433
887.70 0.2806566
887.80 0.28057
887.90 0.2804833
888.00 0.2803968
888.10 0.2803102
888.20 0.2802237
888.30 0.2801372
888.40 0.280051
888.50 0.2799648
888.60 0.2798786
888.70 0.2797925
888.80 0.2797064
888.90 0.2796203
889.00 0.2795343
889.10 0.2794483
889.20 0.2793623
889.30 0.2792764
889.40 0.2791905
889.50 0.2791046
889.60 0.2790188
889.70 0.278933
889.80 0.2788472
889.90 0.2787614
890.00 0.2786757
890.10 0.27859
890.20 0.2785044
890.30 0.2784188
890.40 0.2783332
890.50 0.2782476
890.60 0.2781621
890.70 0.2780766
890.80 0.2779911
890.90 0.2779057
891.00 0.2778203
891.10 0.2777349
891.20 0.2776496
891.30 0.2775643
891.40 0.277479
891.50 0.2773938
891.60 0.2773086
891.70 0.2772234
891.80 0.2771382
891.90 0.2770531
892.00 0.276968
892.10 0.276883
892.20 0.2767979
892.30 0.2767129
892.40 0.276628
892.50 0.276543
892.60 0.2764581
892.70 0.2763733
892.80 0.2762884
892.90 0.2762036
893.00 0.2761188
893.10 0.2760341
893.20 0.2759494
893.30 0.2758647
893.40 0.2757801
893.50 0.2756954
893.60 0.2756108
893.70 0.2755263
893.80 0.2754417
893.90 0.2753573
894.00 0.2752728
894.10 0.2751883
894.20 0.2751039
894.30 0.2750196
894.40 0.2749352
894.50 0.2748509
894.60 0.2747666
894.70 0.2746824
894.80 0.2745982
894.90 0.274514
895.00 0.2744298
895.10 0.2743457
895.20 0.2742616
895.30 0.2741775
895.40 0.2740935
895.50 0.2740095
895.60 0.2739255
895.70 0.2738416
895.80 0.2737576
895.90 0.2736738
896.00 0.2735899
896.10 0.2735061
896.20 0.2734223
896.30 0.2733385
896.40 0.2732548
896.50 0.2731711
896.60 0.2730874
896.70 0.2730038
896.80 0.2729202
896.90 0.2728366
897.00 0.2727531
897.10 0.2726696
897.20 0.272586
897.30 0.2724995
897.40 0.2724131
897.50 0.2723267
897.60 0.2722404
897.70 0.2721541
897.80 0.2720678
897.90 0.2719815
898.00 0.2718953
898.10 0.2718091
898.20 0.271723
898.30 0.2716368
898.40 0.2715508
898.50 0.2714647
898.60 0.2713787
898.70 0.2712927
898.80 0.2712067
898.90 0.2711208
899.00 0.2710349
899.10 0.270949
899.20 0.2708632
899.30 0.2707773
899.40 0.2706916
899.50 0.2706058
899.60 0.2705201
899.70 0.2704344
899.80 0.2703488
899.90 0.2702632
900.00 0.2701776
900.10 0.270092
900.20 0.2700065
900.30 0.269921
900.40 0.2698355
900.50 0.2697501
900.60 0.2696647
900.70 0.2695793
900.80 0.269494
900.90 0.2694087
901.00 0.2693234
901.10 0.2692382
901.20 0.2691529
901.30 0.2690678
901.40 0.2689826
901.50 0.2688975
901.60 0.2688124
901.70 0.2687279
901.80 0.2686461
901.90 0.2685643
902.00 0.2684825
902.10 0.2684007
902.20 0.268319
902.30 0.2682373
902.40 0.2681556
902.50 0.268074
902.60 0.2679924
902.70 0.2679108
902.80 0.2678292
902.90 0.2677477
903.00 0.2676662
903.10 0.2675848
903.20 0.2675033
903.30 0.2674219
903.40 0.2673405
903.50 0.2672592
903.60 0.2671779
903.70 0.2670966
903.80 0.2670153
903.90 0.2669341
904.00 0.2668529
904.10 0.2667717
904.20 0.2666906
904.30 0.2666095
904.40 0.2665284
904.50 0.2664474
904.60 0.2663663
904.70 0.2662854
904.80 0.2662044
904.90 0.2661235
905.00 0.2660426
905.10 0.2659617
905.20 0.2658808
905.30 0.2658
905.40 0.2657192
905.50 0.2656385
905.60 0.2655577
905.70 0.265477
905.80 0.2653964
905.90 0.2653157
906.00 0.2652351
906.10 0.2651545
906.20 0.2650731
906.30 0.2649896
906.40 0.2649062
906.50 0.2648229
906.60 0.2647396
906.70 0.2646563
906.80 0.264573
906.90 0.2644897
907.00 0.2644065
907.10 0.2643234
907.20 0.2642402
907.30 0.2641571
907.40 0.264074
907.50 0.2639909
907.60 0.2639079
907.70 0.2638249
907.80 0.2637419
907.90 0.263659
908.00 0.2635761
908.10 0.2634932
908.20 0.2634104
908.30 0.2633276
908.40 0.2632448
908.50 0.263162
908.60 0.2630793
908.70 0.2629966
908.80 0.2629139
908.90 0.2628313
909.00 0.2627487
909.10 0.2626661
909.20 0.2625835
909.30 0.262501
909.40 0.2624185
909.50 0.2623361
909.60 0.2622537
909.70 0.2621713
909.80 0.2620889
909.90 0.2620066
910.00 0.2619242
910.10 0.261842
910.20 0.2617597
910.30 0.2616775
910.40 0.2615953
910.50 0.2615132
910.60 0.261431
910.70 0.261349
910.80 0.26127
910.90 0.261191
911.00 0.2611121
911.10 0.2610332
911.20 0.2609543
911.30 0.2608755
911.40 0.2607967
911.50 0.2607179
911.60 0.2606391
911.70 0.2605604
911.80 0.2604817
911.90 0.260403
912.00 0.2603244
912.10 0.2602458
912.20 0.2601672
912.30 0.2600886
912.40 0.2600101
912.50 0.2599316
912.60 0.2598531
912.70 0.2597747
912.80 0.2596962
912.90 0.2596178
913.00 0.2595395
913.10 0.2594611
913.20 0.2593828
913.30 0.2593046
913.40 0.2592263
913.50 0.2591481
913.60 0.2590699
913.70 0.2589917
913.80 0.2589136
913.90 0.2588355
914.00 0.2587574
914.10 0.2586793
914.20 0.2586013
914.30 0.2585233
914.40 0.2584453
914.50 0.2583674
914.60 0.2582895
914.70 0.2582116
914.80 0.2581337
914.90 0.2580559
915.00 0.2579781
915.10 0.2579003
915.20 0.2578226
915.30 0.2577429
915.40 0.2576624
915.50 0.2575819
915.60 0.2575015
915.70 0.2574211
915.80 0.2573407
915.90 0.2572603
916.00 0.25718
916.10 0.2570997
916.20 0.2570194
916.30 0.2569391
916.40 0.2568589
916.50 0.2567787
916.60 0.2566986
916.70 0.2566185
916.80 0.2565384
916.90 0.2564583
917.00 0.2563782
917.10 0.2562982
917.20 0.2562182
917.30 0.2561383
917.40 0.2560584
917.50 0.2559785
917.60 0.2558986
917.70 0.2558187
917.80 0.2557389
917.90 0.2556592
918.00 0.2555794
918.10 0.2554997
918.20 0.25542
918.30 0.2553403
918.40 0.2552607
918.50 0.255181
918.60 0.2551015
918.70 0.2550219
918.80 0.2549424
918.90 0.2548629
919.00 0.2547834
919.10 0.254704
919.20 0.2546246
919.30 0.2545452
919.40 0.2544658
919.50 0.2543865
919.60 0.2543072
919.70 0.2542279
919.80 0.2541487
919.90 0.2540723
920.00 0.2539961
920.10 0.2539199
920.20 0.2538438
920.30 0.2537677
920.40 0.2536916
920.50 0.2536156
920.60 0.2535395
920.70 0.2534635
920.80 0.2533876
920.90 0.2533116
921.00 0.2532357
921.10 0.2531598
921.20 0.2530839
921.30 0.2530081
921.40 0.2529323
921.50 0.2528565
921.60 0.2527807
921.70 0.252705
921.80 0.2526293
921.90 0.2525536
922.00 0.252478
922.10 0.2524023
922.20 0.2523268
922.30 0.2522512
922.40 0.2521756
922.50 0.2521001
922.60 0.2520246
922.70 0.2519492
922.80 0.2518737
922.90 0.2517983
923.00 0.2517229
923.10 0.2516476
923.20 0.2515723
923.30 0.251497
923.40 0.2514217
923.50 0.2513464
923.60 0.2512712
923.70 0.251196
923.80 0.2511208
923.90 0.2510457
924.00 0.2509706
924.10 0.2508955
924.20 0.2508204
924.30 0.2507454
924.40 0.2506699
924.50 0.2505922
924.60 0.2505145
924.70 0.2504369
924.80 0.2503592
924.90 0.2502816
925.00 0.2502041
925.10 0.2501265
925.20 0.250049
925.30 0.2499715
925.40 0.249894
925.50 0.2498166
925.60 0.2497392
925.70 0.2496618
925.80 0.2495845
925.90 0.2495071
926.00 0.2494298
926.10 0.2493526
926.20 0.2492753
926.30 0.2491981
926.40 0.2491209
926.50 0.2490438
926.60 0.2489667
926.70 0.2488895
926.80 0.2488125
926.90 0.2487354
927.00 0.2486584
927.10 0.2485814
927.20 0.2485044
927.30 0.2484275
927.40 0.2483506
927.50 0.2482737
927.60 0.2481968
927.70 0.24812
927.80 0.2480432
927.90 0.2479664
928.00 0.2478897
928.10 0.247813
928.20 0.2477363
928.30 0.2476596
928.40 0.247583
928.50 0.2475064
928.60 0.2474298
928.70 0.2473532
928.80 0.2472767
928.90 0.2472002
929.00 0.2471237
929.10 0.2470501
929.20 0.2469766
929.30 0.2469031
929.40 0.2468296
929.50 0.2467562
929.60 0.2466828
929.70 0.2466094
929.80 0.246536
929.90 0.2464627
930.00 0.2463894
930.10 0.2463161
930.20 0.2462428
930.30 0.2461696
930.40 0.2460964
930.50 0.2460232
930.60 0.2459501
930.70 0.2458769
930.80 0.2458038
930.90 0.2457308
931.00 0.2456577
931.10 0.2455847
931.20 0.2455117
931.30 0.2454387
931.40 0.2453658
931.50 0.2452928
931.60 0.2452199
931.70 0.2451471
931.80 0.2450742
931.90 0.2450014
932.00 0.2449286
932.10 0.2448559
932.20 0.2447831
932.30 0.2447104
932.40 0.2446377
932.50 0.244565
932.60 0.2444924
932.70 0.2444198
932.80 0.2443472
932.90 0.2442746
933.00 0.2442021
933.10 0.2441296
933.20 0.2440571
933.30 0.2439846
933.40 0.2439122
933.50 0.2438398
933.60 0.2437674
933.70 0.2436931
933.80 0.2436181
933.90 0.2435431
934.00 0.2434682
934.10 0.2433933
934.20 0.2433184
934.30 0.2432436
934.40 0.2431687
934.50 0.2430939
934.60 0.2430192
934.70 0.2429444
934.80 0.2428697
934.90 0.242795
935.00 0.2427203
935.10 0.2426457
935.20 0.2425711
935.30 0.2424965
935.40 0.2424219
935.50 0.2423474
935.60 0.2422729
935.70 0.2421984
935.80 0.242124
935.90 0.2420495
936.00 0.2419751
936.10 0.2419007
936.20 0.2418264
936.30 0.2417521
936.40 0.2416778
936.50 0.2416035
936.60 0.2415292
936.70 0.241455
936.80 0.2413808
936.90 0.2413067
937.00 0.2412325
937.10 0.2411584
937.20 0.2410843
937.30 0.2410103
937.40 0.2409362
937.50 0.2408622
937.60 0.2407882
937.70 0.2407143
937.80 0.2406403
937.90 0.2405664
938.00 0.2404925
938.10 0.2404187
938.20 0.2403449
938.30 0.2402711
938.40 0.2401973
938.50 0.2401235
938.60 0.2400498
938.70 0.2399761
938.80 0.2399024
938.90 0.2398288
939.00 0.2397552
939.10 0.2396816
939.20 0.239608
939.30 0.2395345
939.40 0.2394609
939.50 0.2393874
939.60 0.239314
939.70 0.2392405
939.80 0.2391671
939.90 0.2390937
940.00 0.2390204
940.10 0.238947
940.20 0.2388737
940.30 0.2388004
940.40 0.2387272
940.50 0.238654
940.60 0.2385807
940.70 0.2385076
940.80 0.2384344
940.90 0.2383613
941.00 0.2382882
941.10 0.2382151
941.20 0.238142
941.30 0.238069
941.40 0.237996
941.50 0.237923
941.60 0.2378501
941.70 0.2377772
941.80 0.2377043
941.90 0.2376314
942.00 0.2375585
942.10 0.2374857
942.20 0.2374129
942.30 0.2373401
942.40 0.2372674
942.50 0.2371947
942.60 0.237122
942.70 0.2370493
942.80 0.2369767
942.90 0.2369041
943.00 0.2368321
943.10 0.2367611
943.20 0.2366902
943.30 0.2366193
943.40 0.2365484
943.50 0.2364775
943.60 0.2364067
943.70 0.2363359
943.80 0.2362651
943.90 0.2361943
944.00 0.2361236
944.10 0.2360528
944.20 0.2359822
944.30 0.2359115
944.40 0.2358408
944.50 0.2357702
944.60 0.2356996
944.70 0.2356291
944.80 0.2355585
944.90 0.235488
945.00 0.2354175
945.10 0.235347
945.20 0.2352766
945.30 0.2352062
945.40 0.2351358
945.50 0.2350654
945.60 0.2349951
945.70 0.2349247
945.80 0.2348544
945.90 0.2347842
946.00 0.2347139
946.10 0.2346437
946.20 0.2345735
946.30 0.2345033
946.40 0.2344332
946.50 0.2343631
946.60 0.2342929
946.70 0.2342229
946.80 0.2341528
946.90 0.2340828
947.00 0.2340128
947.10 0.2339428
947.20 0.2338728
947.30 0.2338029
947.40 0.233733
947.50 0.2336631
947.60 0.2335933
947.70 0.2335234
947.80 0.2334536
947.90 0.2333838
948.00 0.2333141
948.10 0.2332443
948.20 0.2331746
948.30 0.2331049
948.40 0.2330353
948.50 0.2329656
948.60 0.232896
948.70 0.2328264
948.80 0.2327569
948.90 0.2326873
949.00 0.2326178
949.10 0.2325483
949.20 0.2324788
949.30 0.2324094
949.40 0.23234
949.50 0.2322706
949.60 0.2322012
949.70 0.2321318
949.80 0.2320625
949.90 0.2319932
950.00 0.2319239
950.10 0.2318547
950.20 0.2317854
950.30 0.2317162
950.40 0.231647
950.50 0.2315779
950.60 0.2315088
950.70 0.2314396
950.80 0.2313706
950.90 0.2313015
951.00 0.2312325
951.10 0.2311634
951.20 0.2310944
951.30 0.2310255
951.40 0.2309565
951.50 0.2308876
951.60 0.2308187
951.70 0.2307499
951.80 0.230681
951.90 0.2306122
952.00 0.2305434
952.10 0.2304746
952.20 0.2304058
952.30 0.2303371
952.40 0.2302683
952.50 0.2301985
952.60 0.2301287
952.70 0.2300589
952.80 0.2299892
952.90 0.2299195
953.00 0.2298498
953.10 0.2297801
953.20 0.2297104
953.30 0.2296408
953.40 0.2295712
953.50 0.2295016
953.60 0.229432
953.70 0.2293625
953.80 0.229293
953.90 0.2292235
954.00 0.2291541
954.10 0.2290846
954.20 0.2290152
954.30 0.2289458
954.40 0.2288765
954.50 0.2288071
954.60 0.2287378
954.70 0.2286685
954.80 0.2285992
954.90 0.22853
955.00 0.2284608
955.10 0.2283916
955.20 0.2283224
955.30 0.2282533
955.40 0.2281841
955.50 0.228115
955.60 0.228046
955.70 0.2279769
955.80 0.2279079
955.90 0.2278389
956.00 0.2277699
956.10 0.2277009
956.20 0.227632
956.30 0.2275631
956.40 0.2274942
956.50 0.2274254
956.60 0.2273565
956.70 0.2272877
956.80 0.2272189
956.90 0.2271501
957.00 0.2270814
957.10 0.2270127
957.20 0.226944
957.30 0.2268753
957.40 0.2268067
957.50 0.2267381
957.60 0.2266695
957.70 0.2266009
957.80 0.2265323
957.90 0.2264638
958.00 0.2263953
958.10 0.2263268
958.20 0.2262584
958.30 0.2261899
958.40 0.2261215
958.50 0.2260531
958.60 0.2259848
958.70 0.2259164
958.80 0.2258481
958.90 0.2257798
959.00 0.2257115
959.10 0.2256433
959.20 0.2255751
959.30 0.2255069
959.40 0.2254387
959.50 0.2253705
959.60 0.2253024
959.70 0.2252343
959.80 0.2251662
959.90 0.2250982
960.00 0.2250301
960.10 0.2249621
960.20 0.2248941
960.30 0.2248262
960.40 0.2247582
960.50 0.2246903
960.60 0.2246224
960.70 0.2245546
960.80 0.2244867
960.90 0.2244189
961.00 0.2243511
961.10 0.2242833
961.20 0.2242156
961.30 0.2241478
961.40 0.2240801
961.50 0.2240124
961.60 0.2239448
961.70 0.2238771
961.80 0.2238095
961.90 0.2237419
962.00 0.2236756
962.10 0.2236096
962.20 0.2235436
962.30 0.2234776
962.40 0.2234117
962.50 0.2233457
962.60 0.2232798
962.70 0.2232139
962.80 0.223148
962.90 0.2230822
963.00 0.2230163
963.10 0.2229505
963.20 0.2228847
963.30 0.222819
963.40 0.2227532
963.50 0.2226875
963.60 0.2226218
963.70 0.2225562
963.80 0.2224905
963.90 0.2224249
964.00 0.2223593
964.10 0.2222937
964.20 0.2222281
964.30 0.2221626
964.40 0.2220971
964.50 0.2220316
964.60 0.2219661
964.70 0.2219007
964.80 0.2218352
964.90 0.2217698
965.00 0.2217045
965.10 0.2216391
965.20 0.2215738
965.30 0.2215084
965.40 0.2214432
965.50 0.2213779
965.60 0.2213126
965.70 0.2212474
965.80 0.2211822
965.90 0.221117
966.00 0.2210519
966.10 0.2209867
966.20 0.2209216
966.30 0.2208565
966.40 0.2207915
966.50 0.2207264
966.60 0.2206614
966.70 0.2205964
966.80 0.2205314
966.90 0.2204664
967.00 0.2204015
967.10 0.2203366
967.20 0.2202717
967.30 0.2202068
967.40 0.220142
967.50 0.2200772
967.60 0.2200124
967.70 0.2199476
967.80 0.2198828
967.90 0.2198181
968.00 0.2197534
968.10 0.2196887
968.20 0.219624
968.30 0.2195593
968.40 0.2194947
968.50 0.2194301
968.60 0.2193655
968.70 0.219301
968.80 0.2192364
968.90 0.2191719
969.00 0.2191074
969.10 0.2190429
969.20 0.2189785
969.30 0.2189141
969.40 0.2188497
969.50 0.2187853
969.60 0.2187209
969.70 0.2186566
969.80 0.2185922
969.90 0.2185279
970.00 0.2184637
970.10 0.2183994
970.20 0.2183352
970.30 0.218271
970.40 0.2182068
970.50 0.2181426
970.60 0.2180785
970.70 0.2180144
970.80 0.2179502
970.90 0.2178862
971.00 0.2178221
971.10 0.2177581
971.20 0.2176941
971.30 0.2176301
971.40 0.2175661
971.50 0.2175021
971.60 0.2174375
971.70 0.2173725
971.80 0.2173076
971.90 0.2172426
972.00 0.2171777
972.10 0.2171128
972.20 0.217048
972.30 0.2169831
972.40 0.2169183
972.50 0.2168535
972.60 0.2167887
972.70 0.2167239
972.80 0.2166592
972.90 0.2165945
973.00 0.2165298
973.10 0.2164651
973.20 0.2164005
973.30 0.2163359
973.40 0.2162712
973.50 0.2162067
973.60 0.2161421
973.70 0.2160776
973.80 0.216013
973.90 0.2159485
974.00 0.2158841
974.10 0.2158196
974.20 0.2157552
974.30 0.2156908
974.40 0.2156264
974.50 0.215562
974.60 0.2154977
974.70 0.2154334
974.80 0.2153691
974.90 0.2153048
975.00 0.2152405
975.10 0.2151763
975.20 0.2151121
975.30 0.2150479
975.40 0.2149837
975.50 0.2149196
975.60 0.2148555
975.70 0.2147914
975.80 0.2147273
975.90 0.2146632
976.00 0.2145992
976.10 0.2145352
976.20 0.2144712
976.30 0.2144072
976.40 0.2143433
976.50 0.2142793
976.60 0.2142154
976.70 0.2141515
976.80 0.2140877
976.90 0.2140238
977.00 0.21396
977.10 0.2138962
977.20 0.2138324
977.30 0.2137687
977.40 0.2137049
977.50 0.2136412
977.60 0.2135775
977.70 0.2135139
977.80 0.2134502
977.90 0.2133866
978.00 0.213323
978.10 0.2132594
978.20 0.2131958
978.30 0.2131323
978.40 0.2130688
978.50 0.2130053
978.60 0.2129418
978.70 0.2128784
978.80 0.2128149
978.90 0.2127515
979.00 0.2126881
979.10 0.2126248
979.20 0.2125614
979.30 0.2124981
979.40 0.2124348
979.50 0.2123715
979.60 0.2123082
979.70 0.212245
979.80 0.2121818
979.90 0.2121186
980.00 0.2120554
980.10 0.2119923
980.20 0.2119291
980.30 0.211866
980.40 0.2118029
980.50 0.2117399
980.60 0.2116768
980.70 0.2116138
980.80 0.2115508
980.90 0.2114878
981.00 0.2114248
981.10 0.2113619
981.20 0.211299
981.30 0.2112362
981.40 0.2111735
981.50 0.2111108
981.60 0.2110482
981.70 0.2109856
981.80 0.210923
981.90 0.2108604
982.00 0.2107979
982.10 0.2107353
982.20 0.2106728
982.30 0.2106103
982.40 0.2105479
982.50 0.2104854
982.60 0.210423
982.70 0.2103606
982.80 0.2102982
982.90 0.2102359
983.00 0.2101735
983.10 0.2101112
983.20 0.2100489
983.30 0.2099866
983.40 0.2099244
983.50 0.2098621
983.60 0.2097999
983.70 0.2097377
983.80 0.2096755
983.90 0.2096134
984.00 0.2095513
984.10 0.2094891
984.20 0.2094271
984.30 0.209365
984.40 0.2093029
984.50 0.2092409
984.60 0.2091789
984.70 0.2091169
984.80 0.209055
984.90 0.208993
985.00 0.2089311
985.10 0.2088692
985.20 0.2088073
985.30 0.2087454
985.40 0.2086836
985.50 0.2086218
985.60 0.20856
985.70 0.2084982
985.80 0.2084365
985.90 0.2083747
986.00 0.208313
986.10 0.2082513
986.20 0.2081896
986.30 0.208128
986.40 0.2080664
986.50 0.2080047
986.60 0.2079431
986.70 0.2078816
986.80 0.20782
986.90 0.2077585
987.00 0.207697
987.10 0.2076355
987.20 0.207574
987.30 0.2075126
987.40 0.2074512
987.50 0.2073898
987.60 0.2073284
987.70 0.207267
987.80 0.2072057
987.90 0.2071444
988.00 0.2070831
988.10 0.2070218
988.20 0.2069605
988.30 0.2068993
988.40 0.206838
988.50 0.2067769
988.60 0.2067157
988.70 0.2066545
988.80 0.2065934
988.90 0.2065323
989.00 0.2064712
989.10 0.2064101
989.20 0.206349
989.30 0.206288
989.40 0.206227
989.50 0.206166
989.60 0.206105
989.70 0.2060441
989.80 0.2059831
989.90 0.2059222
990.00 0.2058613
990.10 0.2058005
990.20 0.2057396
990.30 0.2056788
990.40 0.205618
990.50 0.2055572
990.60 0.2054964
990.70 0.2054357
990.80 0.2053749
990.90 0.2053142
991.00 0.2052535
991.10 0.2051929
991.20 0.2051325
991.30 0.205072
991.40 0.2050116
991.50 0.2049512
991.60 0.2048908
991.70 0.2048305
991.80 0.2047701
991.90 0.2047098
992.00 0.2046495
992.10 0.2045892
992.20 0.204529
992.30 0.2044688
992.40 0.2044085
992.50 0.2043483
992.60 0.2042882
992.70 0.204228
992.80 0.2041679
992.90 0.2041078
993.00 0.2040477
993.10 0.2039876
993.20 0.2039275
993.30 0.2038675
993.40 0.2038075
993.50 0.2037475
993.60 0.2036875
993.70 0.2036275
993.80 0.2035676
993.90 0.2035077
994.00 0.2034478
994.10 0.2033879
994.20 0.2033281
994.30 0.2032682
994.40 0.2032084
994.50 0.2031486
994.60 0.2030888
994.70 0.2030291
994.80 0.2029693
994.90 0.2029096
995.00 0.2028499
995.10 0.2027902
995.20 0.2027306
995.30 0.202671
995.40 0.2026113
995.50 0.2025517
995.60 0.2024922
995.70 0.2024326
995.80 0.2023731
995.90 0.2023135
996.00 0.202254
996.10 0.2021946
996.20 0.2021351
996.30 0.2020757
996.40 0.2020163
996.50 0.2019569
996.60 0.2018975
996.70 0.2018381
996.80 0.2017788
996.90 0.2017195
997.00 0.2016602
997.10 0.2016009
997.20 0.2015417
997.30 0.2014824
997.40 0.2014232
997.50 0.201364
997.60 0.2013048
997.70 0.2012457
997.80 0.2011865
997.90 0.2011274
998.00 0.2010683
998.10 0.2010092
998.20 0.2009502
998.30 0.2008911
998.40 0.2008321
998.50 0.2007731
998.60 0.2007141
998.70 0.2006552
998.80 0.2005962
998.90 0.2005373
999.00 0.2004784
999.10 0.2004195
999.20 0.2003606
999.30 0.2003018
999.40 0.200243
999.50 0.2001842
999.60 0.2001254
999.70 0.2000666
999.80 0.2000079
999.90 0.1999491
1000.00 0.1998904
1000.10 0.1998317
1000.20 0.1997731
1000.30 0.1997144
1000.40 0.1996558
1000.50 0.1995972
1000.60 0.1995386
1000.70 0.19948
1000.80 0.1994215
1000.90 0.1993629
1001.00 0.1993045
1001.10 0.1992461
1001.20 0.1991879
1001.30 0.1991296
1001.40 0.1990713
1001.50 0.1990131
1001.60 0.1989549
1001.70 0.1988967
1001.80 0.1988385
1001.90 0.1987803
1002.00 0.1987222
1002.10 0.1986641
1002.20 0.198606
1002.30 0.1985479
1002.40 0.1984898
1002.50 0.1984318
1002.60 0.1983738
1002.70 0.1983158
1002.80 0.1982578
1002.90 0.1981998
1003.00 0.1981419
1003.10 0.198084
1003.20 0.198026
1003.30 0.1979682
1003.40 0.1979103
1003.50 0.1978524
1003.60 0.1977946
1003.70 0.1977368
1003.80 0.197679
1003.90 0.1976212
1004.00 0.1975635
1004.10 0.1975057
1004.20 0.197448
1004.30 0.1973903
1004.40 0.1973326
1004.50 0.197275
1004.60 0.1972173
1004.70 0.1971597
1004.80 0.1971021
1004.90 0.1970445
1005.00 0.196987
1005.10 0.1969294
1005.20 0.1968719
1005.30 0.1968144
1005.40 0.1967569
1005.50 0.1966994
1005.60 0.196642
1005.70 0.1965846
1005.80 0.1965271
1005.90 0.1964698
1006.00 0.1964124
1006.10 0.196355
1006.20 0.1962977
1006.30 0.1962404
1006.40 0.1961831
1006.50 0.1961258
1006.60 0.1960685
1006.70 0.1960113
1006.80 0.195954
1006.90 0.1958968
1007.00 0.1958396
1007.10 0.1957825
1007.20 0.1957253
1007.30 0.1956682
1007.40 0.1956111
1007.50 0.195554
1007.60 0.1954969
1007.70 0.1954398
1007.80 0.1953828
1007.90 0.1953258
1008.00 0.1952688
1008.10 0.1952118
1008.20 0.1951548
1008.30 0.1950979
1008.40 0.195041
1008.50 0.1949841
1008.60 0.1949272
1008.70 0.1948703
1008.80 0.1948134
1008.90 0.1947566
1009.00 0.1946998
1009.10 0.194643
1009.20 0.1945862
1009.30 0.1945295
1009.40 0.1944727
1009.50 0.194416
1009.60 0.1943593
1009.70 0.1943026
1009.80 0.194246
1009.90 0.1941893
1010.00 0.1941327
1010.10 0.1940761
1010.20 0.1940195
1010.30 0.1939629
1010.40 0.1939064
1010.50 0.1938498
1010.60 0.1937933
1010.70 0.1937368
1010.80 0.1936803
1010.90 0.1936239
1011.00 0.1935675
1011.10 0.1935112
1011.20 0.193455
1011.30 0.1933988
1011.40 0.1933426
1011.50 0.1932865
1011.60 0.1932303
1011.70 0.1931742
1011.80 0.1931181
1011.90 0.193062
1012.00 0.1930059
1012.10 0.1929498
1012.20 0.1928938
1012.30 0.1928378
1012.40 0.1927818
1012.50 0.1927258
1012.60 0.1926698
1012.70 0.1926139
1012.80 0.192558
1012.90 0.1925021
1013.00 0.1924462
1013.10 0.1923903
1013.20 0.1923344
1013.30 0.1922786
1013.40 0.1922228
1013.50 0.192167
1013.60 0.1921112
1013.70 0.1920554
1013.80 0.1919997
1013.90 0.191944
1014.00 0.1918883
1014.10 0.1918326
1014.20 0.1917769
1014.30 0.1917213
1014.40 0.1916656
1014.50 0.19161
1014.60 0.1915544
1014.70 0.1914988
1014.80 0.1914433
1014.90 0.1913877
1015.00 0.1913322
1015.10 0.1912767
1015.20 0.1912212
1015.30 0.1911657
1015.40 0.1911103
1015.50 0.1910548
1015.60 0.1909994
1015.70 0.190944
1015.80 0.1908886
1015.90 0.1908333
1016.00 0.1907779
1016.10 0.1907226
1016.20 0.1906673
1016.30 0.190612
1016.40 0.1905567
1016.50 0.1905015
1016.60 0.1904463
1016.70 0.190391
1016.80 0.1903358
1016.90 0.1902807
1017.00 0.1902255
1017.10 0.1901703
1017.20 0.1901152
1017.30 0.1900601
1017.40 0.190005
1017.50 0.1899499
1017.60 0.1898949
1017.70 0.1898398
1017.80 0.1897848
1017.90 0.1897298
1018.00 0.1896748
1018.10 0.1896199
1018.20 0.1895649
1018.30 0.18951
1018.40 0.1894551
1018.50 0.1894002
1018.60 0.1893453
1018.70 0.1892905
1018.80 0.1892356
1018.90 0.1891808
1019.00 0.189126
1019.10 0.1890712
1019.20 0.1890164
1019.30 0.1889617
1019.40 0.1889069
1019.50 0.1888522
1019.60 0.1887975
1019.70 0.1887429
1019.80 0.1886882
1019.90 0.1886335
1020.00 0.1885789
1020.10 0.1885243
1020.20 0.1884697
1020.30 0.1884152
1020.40 0.1883606
1020.50 0.1883061
1020.60 0.1882515
1020.70 0.188197
1020.80 0.1881426
1020.90 0.1880881
1021.00 0.1880336
1021.10 0.1879792
1021.20 0.187925
1021.30 0.1878708
1021.40 0.1878166
1021.50 0.1877624
1021.60 0.1877082
1021.70 0.1876541
1021.80 0.1875999
1021.90 0.1875458
1022.00 0.1874917
1022.10 0.1874376
1022.20 0.1873836
1022.30 0.1873295
1022.40 0.1872755
1022.50 0.1872215
1022.60 0.1871675
1022.70 0.1871135
1022.80 0.1870596
1022.90 0.1870056
1023.00 0.1869517
1023.10 0.1868978
1023.20 0.1868439
1023.30 0.1867901
1023.40 0.1867362
1023.50 0.1866824
1023.60 0.1866286
1023.70 0.1865748
1023.80 0.186521
1023.90 0.1864672
1024.00 0.1864135
1024.10 0.1863597
1024.20 0.186306
1024.30 0.1862523
1024.40 0.1861986
1024.50 0.186145
1024.60 0.1860913
1024.70 0.1860377
1024.80 0.1859841
1024.90 0.1859305
1025.00 0.185877
1025.10 0.1858234
1025.20 0.1857699
1025.30 0.1857163
1025.40 0.1856628
1025.50 0.1856094
1025.60 0.1855559
1025.70 0.1855024
1025.80 0.185449
1025.90 0.1853956
1026.00 0.1853422
1026.10 0.1852888
1026.20 0.1852354
1026.30 0.1851821
1026.40 0.1851288
1026.50 0.1850754
1026.60 0.1850221
1026.70 0.1849689
1026.80 0.1849156
1026.90 0.1848623
1027.00 0.1848091
1027.10 0.1847559
1027.20 0.1847027
1027.30 0.1846495
1027.40 0.1845964
1027.50 0.1845432
1027.60 0.1844901
1027.70 0.184437
1027.80 0.1843839
1027.90 0.1843308
1028.00 0.1842778
1028.10 0.1842247
1028.20 0.1841717
1028.30 0.1841187
1028.40 0.1840657
1028.50 0.1840127
1028.60 0.1839598
1028.70 0.1839068
1028.80 0.1838539
1028.90 0.183801
1029.00 0.1837481
1029.10 0.1836953
1029.20 0.1836424
1029.30 0.1835896
1029.40 0.1835367
1029.50 0.1834839
1029.60 0.1834312
1029.70 0.1833784
1029.80 0.1833256
1029.90 0.1832729
1030.00 0.1832202
1030.10 0.1831675
1030.20 0.1831148
1030.30 0.1830621
1030.40 0.1830095
1030.50 0.1829569
1030.60 0.1829043
1030.70 0.1828517
1030.80 0.1827991
1030.90 0.1827465
1031.00 0.182694
1031.10 0.1826414
1031.20 0.1825889
1031.30 0.1825364
1031.40 0.1824841
1031.50 0.1824318
1031.60 0.1823796
1031.70 0.1823273
1031.80 0.1822751
1031.90 0.1822228
1032.00 0.1821706
1032.10 0.1821184
1032.20 0.1820663
1032.30 0.1820141
1032.40 0.181962
1032.50 0.1819099
1032.60 0.1818578
1032.70 0.1818057
1032.80 0.1817536
1032.90 0.1817015
1033.00 0.1816495
1033.10 0.1815975
1033.20 0.1815455
1033.30 0.1814935
1033.40 0.1814415
1033.50 0.1813896
1033.60 0.1813376
1033.70 0.1812857
1033.80 0.1812338
1033.90 0.1811819
1034.00 0.18113
1034.10 0.1810782
1034.20 0.1810264
1034.30 0.1809745
1034.40 0.1809227
1034.50 0.1808709
1034.60 0.1808192
1034.70 0.1807674
1034.80 0.1807157
1034.90 0.180664
1035.00 0.1806123
1035.10 0.1805606
1035.20 0.1805089
1035.30 0.1804572
1035.40 0.1804056
1035.50 0.180354
1035.60 0.1803024
1035.70 0.1802508
1035.80 0.1801992
1035.90 0.1801477
1036.00 0.1800961
1036.10 0.1800446
1036.20 0.1799931
1036.30 0.1799416
1036.40 0.1798901
1036.50 0.1798387
1036.60 0.1797872
1036.70 0.1797358
1036.80 0.1796844
1036.90 0.179633
1037.00 0.1795816
1037.10 0.1795303
1037.20 0.1794789
1037.30 0.1794276
1037.40 0.1793763
1037.50 0.179325
1037.60 0.1792737
1037.70 0.1792225
1037.80 0.1791712
1037.90 0.17912
1038.00 0.1790688
1038.10 0.1790176
1038.20 0.1789664
1038.30 0.1789152
1038.40 0.1788641
1038.50 0.178813
1038.60 0.1787618
1038.70 0.1787108
1038.80 0.1786597
1038.90 0.1786086
1039.00 0.1785576
1039.10 0.1785065
1039.20 0.1784555
1039.30 0.1784045
1039.40 0.1783535
1039.50 0.1783026
1039.60 0.1782516
1039.70 0.1782007
1039.80 0.1781498
1039.90 0.1780989
1040.00 0.178048
1040.10 0.1779971
1040.20 0.1779463
1040.30 0.1778954
1040.40 0.1778446
1040.50 0.1777938
1040.60 0.177743
1040.70 0.1776922
1040.80 0.1776415
1040.90 0.1775907
1041.00 0.17754
1041.10 0.1774893
1041.20 0.1774386
1041.30 0.1773879
1041.40 0.1773373
1041.50 0.1772866
1041.60 0.177236
1041.70 0.1771856
1041.80 0.1771351
1041.90 0.1770847
1042.00 0.1770343
1042.10 0.1769839
1042.20 0.1769336
1042.30 0.1768832
1042.40 0.1768329
1042.50 0.1767826
1042.60 0.1767323
1042.70 0.176682
1042.80 0.1766317
1042.90 0.1765815
1043.00 0.1765312
1043.10 0.176481
1043.20 0.1764308
1043.30 0.1763806
1043.40 0.1763305
1043.50 0.1762803
1043.60 0.1762302
1043.70 0.17618
1043.80 0.1761299
1043.90 0.1760799
1044.00 0.1760298
1044.10 0.1759797
1044.20 0.1759297
1044.30 0.1758796
1044.40 0.1758296
1044.50 0.1757796
1044.60 0.1757297
1044.70 0.1756797
1044.80 0.1756298
1044.90 0.1755798
1045.00 0.1755299
1045.10 0.17548
1045.20 0.1754301
1045.30 0.1753803
1045.40 0.1753304
1045.50 0.1752806
1045.60 0.1752307
1045.70 0.1751809
1045.80 0.1751311
1045.90 0.1750814
1046.00 0.1750316
1046.10 0.1749819
1046.20 0.1749322
1046.30 0.1748824
1046.40 0.1748327
1046.50 0.1747831
1046.60 0.1747334
1046.70 0.1746838
1046.80 0.1746341
1046.90 0.1745845
1047.00 0.1745349
1047.10 0.1744853
1047.20 0.1744358
1047.30 0.1743862
1047.40 0.1743367
1047.50 0.1742872
1047.60 0.1742377
1047.70 0.1741882
1047.80 0.1741387
1047.90 0.1740892
1048.00 0.1740398
1048.10 0.1739904
1048.20 0.173941
1048.30 0.1738916
1048.40 0.1738422
1048.50 0.1737928
1048.60 0.1737435
1048.70 0.1736941
1048.80 0.1736448
1048.90 0.1735955
1049.00 0.1735462
1049.10 0.173497
1049.20 0.1734477
1049.30 0.1733985
1049.40 0.1733493
1049.50 0.1733
1049.60 0.1732509
1049.70 0.1732017
1049.80 0.1731525
1049.90 0.1731034
1050.00 0.1730542
1050.10 0.1730051
1050.20 0.172956
1050.30 0.1729069
1050.40 0.1728579
1050.50 0.1728088
1050.60 0.1727598
1050.70 0.1727108
1050.80 0.1726618
1050.90 0.1726128
1051.00 0.1725638
1051.10 0.1725148
1051.20 0.1724659
1051.30 0.172417
1051.40 0.1723681
1051.50 0.1723192
1051.60 0.1722703
1051.70 0.1722214
1051.80 0.1721726
1051.90 0.1721237
1052.00 0.1720749
1052.10 0.1720262
1052.20 0.1719776
1052.30 0.171929
1052.40 0.1718804
1052.50 0.1718318
1052.60 0.1717832
1052.70 0.1717347
1052.80 0.1716862
1052.90 0.1716376
1053.00 0.1715891
1053.10 0.1715406
1053.20 0.1714922
1053.30 0.1714437
1053.40 0.1713953
1053.50 0.1713468
1053.60 0.1712984
1053.70 0.17125
1053.80 0.1712016
1053.90 0.1711533
1054.00 0.1711049
1054.10 0.1710566
1054.20 0.1710083
1054.30 0.17096
1054.40 0.1709117
1054.50 0.1708634
1054.60 0.1708151
1054.70 0.1707669
1054.80 0.1707187
1054.90 0.1706705
1055.00 0.1706223
1055.10 0.1705741
1055.20 0.1705259
1055.30 0.1704777
1055.40 0.1704296
1055.50 0.1703815
1055.60 0.1703334
1055.70 0.1702853
1055.80 0.1702372
1055.90 0.1701891
1056.00 0.1701411
1056.10 0.1700931
1056.20 0.1700451
1056.30 0.169997
1056.40 0.1699491
1056.50 0.1699011
1056.60 0.1698531
1056.70 0.1698052
1056.80 0.1697573
1056.90 0.1697094
1057.00 0.1696615
1057.10 0.1696136
1057.20 0.1695657
1057.30 0.1695179
1057.40 0.16947
1057.50 0.1694222
1057.60 0.1693744
1057.70 0.1693266
1057.80 0.1692788
1057.90 0.1692311
1058.00 0.1691833
1058.10 0.1691356
1058.20 0.1690879
1058.30 0.1690402
1058.40 0.1689925
1058.50 0.1689448
1058.60 0.1688972
1058.70 0.1688495
1058.80 0.1688019
1058.90 0.1687543
1059.00 0.1687067
1059.10 0.1686591
1059.20 0.1686115
1059.30 0.168564
1059.40 0.1685165
1059.50 0.1684689
1059.60 0.1684214
1059.70 0.1683739
1059.80 0.1683265
1059.90 0.168279
1060.00 0.1682316
1060.10 0.1681841
1060.20 0.1681367
1060.30 0.1680893
1060.40 0.1680419
1060.50 0.1679946
1060.60 0.1679472
1060.70 0.1678999
1060.80 0.1678525
1060.90 0.1678052
1061.00 0.1677579
1061.10 0.1677106
1061.20 0.1676634
1061.30 0.1676161
1061.40 0.1675689
1061.50 0.1675217
1061.60 0.1674744
1061.70 0.1674273
1061.80 0.1673801
1061.90 0.1673329
1062.00 0.1672858
1062.10 0.1672386
1062.20 0.1671915
1062.30 0.1671444
1062.40 0.1670973
1062.50 0.1670502
1062.60 0.1670024
1062.70 0.1669535
1062.80 0.1669047
1062.90 0.1668559
1063.00 0.1668072
1063.10 0.1667584
1063.20 0.1667096
1063.30 0.1666609
1063.40 0.1666122
1063.50 0.1665635
1063.60 0.1665148
1063.70 0.1664661
1063.80 0.1664175
1063.90 0.1663688
1064.00 0.1663202
1064.10 0.1662716
1064.20 0.166223
1064.30 0.1661744
1064.40 0.1661259
1064.50 0.1660773
1064.60 0.1660288
1064.70 0.1659803
1064.80 0.1659318
1064.90 0.1658833
1065.00 0.1658348
1065.10 0.1657864
1065.20 0.1657379
1065.30 0.1656895
1065.40 0.1656411
1065.50 0.1655927
1065.60 0.1655443
1065.70 0.165496
1065.80 0.1654476
1065.90 0.1653993
1066.00 0.165351
1066.10 0.1653026
1066.20 0.1652544
1066.30 0.1652061
1066.40 0.1651578
1066.50 0.1651096
1066.60 0.1650614
1066.70 0.1650131
1066.80 0.164965
1066.90 0.1649168
1067.00 0.1648686
1067.10 0.1648205
1067.20 0.1647723
1067.30 0.1647242
1067.40 0.1646761
1067.50 0.164628
1067.60 0.1645799
1067.70 0.1645319
1067.80 0.1644838
1067.90 0.1644364
1068.00 0.1643903
1068.10 0.1643442
1068.20 0.1642981
1068.30 0.1642521
1068.40 0.164206
1068.50 0.16416
1068.60 0.164114
1068.70 0.164068
1068.80 0.164022
1068.90 0.163976
1069.00 0.1639301
1069.10 0.1638841
1069.20 0.1638382
1069.30 0.1637923
1069.40 0.1637464
1069.50 0.1637005
1069.60 0.1636546
1069.70 0.1636087
1069.80 0.1635629
1069.90 0.163517
1070.00 0.1634712
1070.10 0.1634254
1070.20 0.1633796
1070.30 0.1633339
1070.40 0.1632881
1070.50 0.1632424
1070.60 0.1631966
1070.70 0.1631509
1070.80 0.1631052
1070.90 0.1630595
1071.00 0.1630138
1071.10 0.1629682
1071.20 0.1629225
1071.30 0.1628769
1071.40 0.1628313
1071.50 0.1627857
1071.60 0.1627401
1071.70 0.1626945
1071.80 0.1626489
1071.90 0.1626034
1072.00 0.1625579
1072.10 0.1625123
1072.20 0.1624668
1072.30 0.1624213
1072.40 0.1623759
1072.50 0.1623304
1072.60 0.162285
1072.70 0.1622395
1072.80 0.1621941
1072.90 0.1621487
1073.00 0.1621033
1073.10 0.1620579
1073.20 0.1620126
1073.30 0.1619674
1073.40 0.1619222
1073.50 0.161877
1073.60 0.1618319
1073.70 0.1617867
1073.80 0.1617416
1073.90 0.1616965
1074.00 0.1616514
1074.10 0.1616063
1074.20 0.1615612
1074.30 0.1615162
1074.40 0.1614711
1074.50 0.1614261
1074.60 0.1613811
1074.70 0.1613361
1074.80 0.1612911
1074.90 0.1612461
1075.00 0.1612012
1075.10 0.1611562
1075.20 0.1611113
1075.30 0.1610664
1075.40 0.1610215
1075.50 0.1609766
1075.60 0.1609317
1075.70 0.1608869
1075.80 0.160842
1075.90 0.1607972
1076.00 0.1607523
1076.10 0.1607075
1076.20 0.1606627
1076.30 0.160618
1076.40 0.1605732
1076.50 0.1605285
1076.60 0.1604837
1076.70 0.160439
1076.80 0.1603943
1076.90 0.1603496
1077.00 0.1603049
1077.10 0.1602602
1077.20 0.1602156
1077.30 0.1601709
1077.40 0.1601263
1077.50 0.1600817
1077.60 0.1600371
1077.70 0.1599925
1077.80 0.1599479
1077.90 0.1599034
1078.00 0.1598588
1078.10 0.1598143
1078.20 0.1597698
1078.30 0.1597253
1078.40 0.1596808
1078.50 0.1596363
1078.60 0.1595919
1078.70 0.1595474
1078.80 0.159503
1078.90 0.1594586
1079.00 0.1594142
1079.10 0.1593698
1079.20 0.1593254
1079.30 0.159281
1079.40 0.1592367
1079.50 0.1591923
1079.60 0.159148
1079.70 0.1591037
1079.80 0.1590594
1079.90 0.1590151
1080.00 0.1589708
1080.10 0.1589266
1080.20 0.1588824
1080.30 0.1588381
1080.40 0.1587939
1080.50 0.1587497
1080.60 0.1587055
1080.70 0.1586613
1080.80 0.1586172
1080.90 0.158573
1081.00 0.1585289
1081.10 0.1584848
1081.20 0.1584407
1081.30 0.1583966
1081.40 0.1583525
1081.50 0.1583084
1081.60 0.1582644
1081.70 0.1582204
1081.80 0.1581763
1081.90 0.1581323
1082.00 0.1580883
1082.10 0.1580443
1082.20 0.1580004
1082.30 0.1579564
1082.40 0.1579125
1082.50 0.1578685
1082.60 0.1578246
1082.70 0.1577807
1082.80 0.1577368
1082.90 0.157693
1083.00 0.1576491
1083.10 0.1576052
1083.20 0.1575614
1083.30 0.1575176
1083.40 0.1574738
1083.50 0.15743
1083.60 0.1573862
1083.70 0.1573424
1083.80 0.1572987
1083.90 0.1572549
1084.00 0.1572114
1084.10 0.1571678
1084.20 0.1571242
1084.30 0.1570807
1084.40 0.1570372
1084.50 0.1569936
1084.60 0.1569502
1084.70 0.1569067
1084.80 0.1568632
1084.90 0.1568197
1085.00 0.1567763
1085.10 0.1567329
1085.20 0.1566894
1085.30 0.156646
1085.40 0.1566026
1085.50 0.1565593
1085.60 0.1565159
1085.70 0.1564725
1085.80 0.1564292
1085.90 0.1563859
1086.00 0.1563426
1086.10 0.1562993
1086.20 0.156256
1086.30 0.1562127
1086.40 0.1561694
1086.50 0.1561262
1086.60 0.156083
1086.70 0.1560397
1086.80 0.1559965
1086.90 0.1559533
1087.00 0.1559102
1087.10 0.155867
1087.20 0.1558238
1087.30 0.1557807
1087.40 0.1557376
1087.50 0.1556944
1087.60 0.1556513
1087.70 0.1556083
1087.80 0.1555652
1087.90 0.1555221
1088.00 0.1554791
1088.10 0.155436
1088.20 0.155393
1088.30 0.15535
1088.40 0.155307
1088.50 0.155264
1088.60 0.1552211
1088.70 0.1551781
1088.80 0.1551352
1088.90 0.1550922
1089.00 0.1550493
1089.10 0.1550064
1089.20 0.1549635
1089.30 0.1549206
1089.40 0.1548778
1089.50 0.1548349
1089.60 0.1547921
1089.70 0.1547493
1089.80 0.1547064
1089.90 0.1546636
1090.00 0.1546209
1090.10 0.1545781
1090.20 0.1545353
1090.30 0.1544926
1090.40 0.1544498
1090.50 0.1544071
1090.60 0.1543644
1090.70 0.1543217
1090.80 0.154279
1090.90 0.1542364
1091.00 0.1541937
1091.10 0.1541511
1091.20 0.1541084
1091.30 0.1540658
1091.40 0.1540232
1091.50 0.1539806
1091.60 0.153938
1091.70 0.1538955
1091.80 0.1538529
1091.90 0.1538104
1092.00 0.1537678
1092.10 0.1537253
1092.20 0.1536828
1092.30 0.1536403
1092.40 0.1535979
1092.50 0.1535554
1092.60 0.153513
1092.70 0.1534705
1092.80 0.1534281
1092.90 0.1533857
1093.00 0.1533433
1093.10 0.1533009
1093.20 0.1532585
1093.30 0.1532162
1093.40 0.1531738
1093.50 0.1531315
1093.60 0.1530892
1093.70 0.1530469
1093.80 0.1530046
1093.90 0.1529623
1094.00 0.15292
1094.10 0.1528778
1094.20 0.1528355
1094.30 0.1527933
1094.40 0.1527511
1094.50 0.1527089
1094.60 0.1526667
1094.70 0.1526245
1094.80 0.152582
1094.90 0.1525391
1095.00 0.1524962
1095.10 0.1524533
1095.20 0.1524105
1095.30 0.1523676
1095.40 0.1523248
1095.50 0.152282
1095.60 0.1522392
1095.70 0.1521964
1095.80 0.1521536
1095.90 0.1521109
1096.00 0.1520681
1096.10 0.1520254
1096.20 0.1519827
1096.30 0.15194
1096.40 0.1518973
1096.50 0.1518546
1096.60 0.1518119
1096.70 0.1517693
1096.80 0.1517266
1096.90 0.151684
1097.00 0.1516414
1097.10 0.1515988
1097.20 0.1515562
1097.30 0.1515136
1097.40 0.151471
1097.50 0.1514285
1097.60 0.1513859
1097.70 0.1513434
1097.80 0.1513009
1097.90 0.1512584
1098.00 0.1512159
1098.10 0.1511734
1098.20 0.151131
1098.30 0.1510885
1098.40 0.1510461
1098.50 0.1510037
1098.60 0.1509613
1098.70 0.1509189
1098.80 0.1508765
1098.90 0.1508341
1099.00 0.1507917
1099.10 0.1507494
1099.20 0.1507071
1099.30 0.1506648
1099.40 0.1506224
1099.50 0.1505802
1099.60 0.1505379
1099.70 0.1504956
1099.80 0.1504533
1099.90 0.1504111
1100.00 0.1503689
1100.10 0.1503267
1100.20 0.1502845
1100.30 0.1502423
1100.40 0.1502001
1100.50 0.1501579
1100.60 0.1501158
1100.70 0.1500736
1100.80 0.1500315
1100.90 0.1499894
1101.00 0.1499473
1101.10 0.1499052
1101.20 0.1498631
1101.30 0.1498211
1101.40 0.149779
1101.50 0.149737
1101.60 0.149695
1101.70 0.1496529
1101.80 0.1496109
1101.90 0.149569
1102.00 0.149527
1102.10 0.149485
1102.20 0.1494431
1102.30 0.1494011
1102.40 0.1493592
1102.50 0.1493173
1102.60 0.1492754
1102.70 0.1492335
1102.80 0.1491917
1102.90 0.1491498
1103.00 0.149108
1103.10 0.1490661
1103.20 0.1490243
1103.30 0.1489825
1103.40 0.1489407
1103.50 0.1488989
1103.60 0.1488572
1103.70 0.1488154
1103.80 0.1487737
1103.90 0.1487319
1104.00 0.1486902
1104.10 0.1486485
1104.20 0.1486068
1104.30 0.1485651
1104.40 0.1485235
1104.50 0.1484818
1104.60 0.1484402
1104.70 0.1483985
1104.80 0.1483569
1104.90 0.1483153
1105.00 0.1482737
1105.10 0.1482321
1105.20 0.1481906
1105.30 0.148149
1105.40 0.1481075
1105.50 0.1480659
1105.60 0.1480244
1105.70 0.1479829
1105.80 0.1479425
1105.90 0.147902
1106.00 0.1478615
1106.10 0.1478211
1106.20 0.1477806
1106.30 0.1477402
1106.40 0.1476998
1106.50 0.1476594
1106.60 0.147619
1106.70 0.1475786
1106.80 0.1475383
1106.90 0.1474979
1107.00 0.1474576
1107.10 0.1474172
1107.20 0.1473769
1107.30 0.1473366
1107.40 0.1472963
1107.50 0.147256
1107.60 0.1472158
1107.70 0.1471755
1107.80 0.1471353
1107.90 0.147095
1108.00 0.1470548
1108.10 0.1470146
1108.20 0.1469744
1108.30 0.1469342
1108.40 0.146894
1108.50 0.1468539
1108.60 0.1468137
1108.70 0.1467736
1108.80 0.1467335
1108.90 0.1466934
1109.00 0.1466533
1109.10 0.1466132
1109.20 0.1465731
1109.30 0.146533
1109.40 0.146493
1109.50 0.146453
1109.60 0.1464129
1109.70 0.1463729
1109.80 0.1463329
1109.90 0.1462929
1110.00 0.1462529
1110.10 0.146213
1110.20 0.146173
1110.30 0.1461331
1110.40 0.1460932
1110.50 0.1460532
1110.60 0.1460133
1110.70 0.1459734
1110.80 0.1459335
1110.90 0.1458937
1111.00 0.1458538
1111.10 0.145814
1111.20 0.1457741
1111.30 0.1457343
1111.40 0.1456945
1111.50 0.1456547
1111.60 0.1456149
1111.70 0.1455751
1111.80 0.1455354
1111.90 0.1454956
1112.00 0.1454559
1112.10 0.1454162
1112.20 0.1453765
1112.30 0.1453367
1112.40 0.1452971
1112.50 0.1452574
1112.60 0.1452177
1112.70 0.1451781
1112.80 0.1451384
1112.90 0.1450988
1113.00 0.1450592
1113.10 0.1450196
1113.20 0.14498
1113.30 0.1449404
1113.40 0.1449008
1113.50 0.1448612
1113.60 0.1448217
1113.70 0.1447822
1113.80 0.1447426
1113.90 0.1447031
1114.00 0.1446636
1114.10 0.1446241
1114.20 0.1445847
1114.30 0.1445452
1114.40 0.1445057
1114.50 0.1444663
1114.60 0.1444269
1114.70 0.1443874
1114.80 0.144348
1114.90 0.1443086
1115.00 0.1442693
1115.10 0.1442299
1115.20 0.1441905
1115.30 0.1441512
1115.40 0.1441118
1115.50 0.1440725
1115.60 0.1440332
1115.70 0.1439939
1115.80 0.1439546
1115.90 0.1439153
1116.00 0.1438761
1116.10 0.1438368
1116.20 0.1437976
1116.30 0.1437584
1116.40 0.1437191
1116.50 0.1436799
1116.60 0.1436407
1116.70 0.1436016
1116.80 0.1435624
1116.90 0.1435234
1117.00 0.1434844
1117.10 0.1434454
1117.20 0.1434064
1117.30 0.1433674
1117.40 0.1433285
1117.50 0.1432895
1117.60 0.1432506
1117.70 0.1432116
1117.80 0.1431727
1117.90 0.1431338
1118.00 0.1430949
1118.10 0.143056
1118.20 0.1430172
1118.30 0.1429783
1118.40 0.1429394
1118.50 0.1429006
1118.60 0.1428618
1118.70 0.142823
1118.80 0.1427842
1118.90 0.1427454
1119.00 0.1427066
1119.10 0.1426678
1119.20 0.1426291
1119.30 0.1425903
1119.40 0.1425516
1119.50 0.1425128
1119.60 0.1424741
1119.70 0.1424354
1119.80 0.1423967
1119.90 0.1423581
1120.00 0.1423194
1120.10 0.1422807
1120.20 0.1422421
1120.30 0.1422035
1120.40 0.1421649
1120.50 0.1421262
1120.60 0.1420877
1120.70 0.1420491
1120.80 0.1420105
1120.90 0.1419719
1121.00 0.1419334
1121.10 0.1418948
1121.20 0.1418563
1121.30 0.1418178
1121.40 0.1417793
1121.50 0.1417408
1121.60 0.1417023
1121.70 0.1416639
1121.80 0.1416254
1121.90 0.1415869
1122.00 0.1415485
1122.10 0.1415101
1122.20 0.1414717
1122.30 0.1414333
1122.40 0.1413949
1122.50 0.1413565
1122.60 0.1413181
1122.70 0.1412798
1122.80 0.1412414
1122.90 0.1412031
1123.00 0.1411648
1123.10 0.1411265
1123.20 0.1410882
1123.30 0.1410499
1123.40 0.1410116
1123.50 0.1409733
1123.60 0.1409351
1123.70 0.1408968
1123.80 0.1408586
1123.90 0.1408204
1124.00 0.1407822
1124.10 0.140744
1124.20 0.1407058
1124.30 0.1406676
1124.40 0.1406294
1124.50 0.1405913
1124.60 0.1405531
1124.70 0.140515
1124.80 0.1404769
1124.90 0.1404388
1125.00 0.1404007
1125.10 0.1403626
1125.20 0.1403245
1125.30 0.1402865
1125.40 0.1402484
1125.50 0.1402104
1125.60 0.1401723
1125.70 0.1401343
1125.80 0.1400963
1125.90 0.1400583
1126.00 0.1400203
1126.10 0.1399824
1126.20 0.1399444
1126.30 0.1399065
1126.40 0.1398685
1126.50 0.1398306
1126.60 0.1397927
1126.70 0.1397548
1126.80 0.1397169
1126.90 0.139679
1127.00 0.1396411
1127.10 0.1396033
1127.20 0.1395654
1127.30 0.1395276
1127.40 0.1394898
1127.50 0.1394519
1127.60 0.1394141
1127.70 0.1393764
1127.80 0.1393386
1127.90 0.1393008
1128.00 0.1392625
1128.10 0.1392241
1128.20 0.1391857
1128.30 0.1391473
1128.40 0.1391089
1128.50 0.1390705
1128.60 0.1390322
1128.70 0.1389938
1128.80 0.1389555
1128.90 0.1389171
1129.00 0.1388788
1129.10 0.1388405
1129.20 0.1388022
1129.30 0.1387639
1129.40 0.1387256
1129.50 0.1386874
1129.60 0.1386491
1129.70 0.1386109
1129.80 0.1385727
1129.90 0.1385344
1130.00 0.1384962
1130.10 0.138458
1130.20 0.1384198
1130.30 0.1383817
1130.40 0.1383435
1130.50 0.1383054
1130.60 0.1382672
1130.70 0.1382291
1130.80 0.138191
1130.90 0.1381529
1131.00 0.1381148
1131.10 0.1380767
1131.20 0.1380386
1131.30 0.1380006
1131.40 0.1379625
1131.50 0.1379245
1131.60 0.1378865
1131.70 0.1378485
1131.80 0.1378104
1131.90 0.1377725
1132.00 0.1377345
1132.10 0.1376965
1132.20 0.1376585
1132.30 0.1376206
1132.40 0.1375827
1132.50 0.1375447
1132.60 0.1375068
1132.70 0.1374689
1132.80 0.137431
1132.90 0.1373932
1133.00 0.1373553
1133.10 0.1373174
1133.20 0.1372796
1133.30 0.1372418
1133.40 0.1372039
1133.50 0.1371661
1133.60 0.1371283
1133.70 0.1370905
1133.80 0.1370528
1133.90 0.137015
1134.00 0.1369772
1134.10 0.1369395
1134.20 0.1369018
1134.30 0.136864
1134.40 0.1368263
1134.50 0.1367886
1134.60 0.1367509
1134.70 0.1367133
1134.80 0.1366756
1134.90 0.1366379
1135.00 0.1366003
1135.10 0.1365627
1135.20 0.136525
1135.30 0.1364874
1135.40 0.1364498
1135.50 0.1364122
1135.60 0.1363747
1135.70 0.1363371
1135.80 0.1362995
1135.90 0.136262
1136.00 0.1362245
1136.10 0.1361869
1136.20 0.1361494
1136.30 0.1361119
1136.40 0.1360744
1136.50 0.136037
1136.60 0.1359995
1136.70 0.135962
1136.80 0.1359246
1136.90 0.1358872
1137.00 0.1358497
1137.10 0.1358123
1137.20 0.1357749
1137.30 0.1357375
1137.40 0.1357002
1137.50 0.1356628
1137.60 0.1356254
1137.70 0.1355881
1137.80 0.1355508
1137.90 0.1355134
1138.00 0.1354761
1138.10 0.1354388
1138.20 0.1354015
1138.30 0.1353643
1138.40 0.135327
1138.50 0.1352897
1138.60 0.1352525
1138.70 0.1352153
1138.80 0.135178
1138.90 0.1351408
1139.00 0.1351036
1139.10 0.1350664
1139.20 0.1350293
1139.30 0.134993
1139.40 0.1349567
1139.50 0.1349205
1139.60 0.1348843
1139.70 0.1348481
1139.80 0.1348119
1139.90 0.1347757
1140.00 0.1347395
1140.10 0.1347034
1140.20 0.1346672
1140.30 0.1346311
1140.40 0.1345949
1140.50 0.1345588
1140.60 0.1345227
1140.70 0.1344866
1140.80 0.1344505
1140.90 0.1344144
1141.00 0.1343783
1141.10 0.1343423
1141.20 0.1343062
1141.30 0.1342702
1141.40 0.1342342
1141.50 0.1341981
1141.60 0.1341621
1141.70 0.1341261
1141.80 0.1340901
1141.90 0.1340542
1142.00 0.1340182
1142.10 0.1339822
1142.20 0.1339463
1142.30 0.1339104
1142.40 0.1338744
1142.50 0.1338385
1142.60 0.1338026
1142.70 0.1337667
1142.80 0.1337309
1142.90 0.133695
1143.00 0.1336591
1143.10 0.1336233
1143.20 0.1335874
1143.30 0.1335516
1143.40 0.1335158
1143.50 0.13348
1143.60 0.1334442
1143.70 0.1334084
1143.80 0.1333726
1143.90 0.1333369
1144.00 0.1333011
1144.10 0.1332654
1144.20 0.1332296
1144.30 0.1331939
1144.40 0.1331582
1144.50 0.1331225
1144.60 0.1330868
1144.70 0.1330511
1144.80 0.1330154
1144.90 0.1329798
1145.00 0.1329441
1145.10 0.1329085
1145.20 0.1328728
1145.30 0.1328372
1145.40 0.1328016
1145.50 0.132766
1145.60 0.1327304
1145.70 0.1326948
1145.80 0.1326593
1145.90 0.1326237
1146.00 0.1325882
1146.10 0.1325526
1146.20 0.1325171
1146.30 0.1324816
1146.40 0.1324461
1146.50 0.1324106
1146.60 0.1323751
1146.70 0.1323396
1146.80 0.1323042
1146.90 0.1322687
1147.00 0.1322333
1147.10 0.1321978
1147.20 0.1321624
1147.30 0.132127
1147.40 0.1320916
1147.50 0.1320562
1147.60 0.1320208
1147.70 0.1319855
1147.80 0.1319501
1147.90 0.1319147
1148.00 0.1318794
1148.10 0.1318441
1148.20 0.1318088
1148.30 0.1317735
1148.40 0.1317382
1148.50 0.1317029
1148.60 0.1316676
1148.70 0.1316323
1148.80 0.1315971
1148.90 0.1315618
1149.00 0.1315266
1149.10 0.1314913
1149.20 0.1314561
1149.30 0.1314209
1149.40 0.1313857
1149.50 0.1313505
1149.60 0.1313154
1149.70 0.1312802
1149.80 0.131245
1149.90 0.1312099
1150.00 0.1311748
1150.10 0.1311396
1150.20 0.1311045
1150.30 0.1310694
1150.40 0.1310343
1150.50 0.1309992
1150.60 0.1309642
1150.70 0.1309292
1150.80 0.1308943
1150.90 0.1308594
1151.00 0.1308245
1151.10 0.1307896
1151.20 0.1307547
1151.30 0.1307198
1151.40 0.1306849
1151.50 0.1306501
1151.60 0.1306152
1151.70 0.1305804
1151.80 0.1305455
1151.90 0.1305107
1152.00 0.1304759
1152.10 0.1304411
1152.20 0.1304063
1152.30 0.1303715
1152.40 0.1303368
1152.50 0.130302
1152.60 0.1302672
1152.70 0.1302325
1152.80 0.1301978
1152.90 0.1301631
1153.00 0.1301283
1153.10 0.1300936
1153.20 0.130059
1153.30 0.1300243
1153.40 0.1299896
1153.50 0.1299549
1153.60 0.1299203
1153.70 0.1298857
1153.80 0.129851
1153.90 0.1298164
1154.00 0.1297818
1154.10 0.1297472
1154.20 0.1297126
1154.30 0.129678
1154.40 0.1296435
1154.50 0.1296089
1154.60 0.1295743
1154.70 0.1295398
1154.80 0.1295053
1154.90 0.1294708
1155.00 0.1294362
1155.10 0.1294017
1155.20 0.1293673
1155.30 0.1293328
1155.40 0.1292983
1155.50 0.1292638
1155.60 0.1292294
1155.70 0.129195
1155.80 0.1291605
1155.90 0.1291261
1156.00 0.1290917
1156.10 0.1290573
1156.20 0.1290229
1156.30 0.1289885
1156.40 0.1289542
1156.50 0.1289198
1156.60 0.1288855
1156.70 0.1288511
1156.80 0.1288168
1156.90 0.1287825
1157.00 0.1287482
1157.10 0.1287139
1157.20 0.1286796
1157.30 0.1286453
1157.40 0.1286111
1157.50 0.1285768
1157.60 0.1285426
1157.70 0.1285083
1157.80 0.1284741
1157.90 0.1284399
1158.00 0.1284057
1158.10 0.1283715
1158.20 0.1283373
1158.30 0.1283031
1158.40 0.1282689
1158.50 0.1282348
1158.60 0.1282006
1158.70 0.1281665
1158.80 0.1281324
1158.90 0.1280983
1159.00 0.1280641
1159.10 0.1280301
1159.20 0.127996
1159.30 0.1279619
1159.40 0.1279278
1159.50 0.1278938
1159.60 0.1278597
1159.70 0.1278257
1159.80 0.1277916
1159.90 0.1277576
1160.00 0.1277236
1160.10 0.1276896
1160.20 0.1276556
1160.30 0.1276216
1160.40 0.1275877
1160.50 0.1275537
1160.60 0.1275198
1160.70 0.1274858
1160.80 0.1274519
1160.90 0.127418
1161.00 0.1273841
1161.10 0.1273502
1161.20 0.1273163
1161.30 0.1272824
1161.40 0.1272485
1161.50 0.1272147
1161.60 0.1271808
1161.70 0.127147
1161.80 0.1271131
1161.90 0.1270793
1162.00 0.1270455
1162.10 0.1270117
1162.20 0.126978
1162.30 0.1269443
1162.40 0.1269107
1162.50 0.126877
1162.60 0.1268434
1162.70 0.1268098
1162.80 0.1267761
1162.90 0.1267425
1163.00 0.1267089
1163.10 0.1266753
1163.20 0.1266418
1163.30 0.1266082
1163.40 0.1265746
1163.50 0.1265411
1163.60 0.1265075
1163.70 0.126474
1163.80 0.1264405
1163.90 0.1264069
1164.00 0.1263734
1164.10 0.1263399
1164.20 0.1263065
1164.30 0.126273
1164.40 0.1262395
1164.50 0.1262061
1164.60 0.1261726
1164.70 0.1261392
1164.80 0.1261058
1164.90 0.1260723
1165.00 0.1260389
1165.10 0.1260055
1165.20 0.1259721
1165.30 0.1259388
1165.40 0.1259054
1165.50 0.125872
1165.60 0.1258387
1165.70 0.1258053
1165.80 0.125772
1165.90 0.1257387
1166.00 0.1257054
1166.10 0.1256721
1166.20 0.1256388
1166.30 0.1256055
1166.40 0.1255722
1166.50 0.125539
1166.60 0.1255057
1166.70 0.1254725
1166.80 0.1254392
1166.90 0.125406
1167.00 0.1253728
1167.10 0.1253396
1167.20 0.1253064
1167.30 0.1252732
1167.40 0.12524
1167.50 0.1252068
1167.60 0.1251737
1167.70 0.1251405
1167.80 0.1251074
1167.90 0.1250743
1168.00 0.1250398
1168.10 0.1250052
1168.20 0.1249707
1168.30 0.1249361
1168.40 0.1249016
1168.50 0.1248671
1168.60 0.1248325
1168.70 0.124798
1168.80 0.1247635
1168.90 0.124729
1169.00 0.1246945
1169.10 0.1246601
1169.20 0.1246256
1169.30 0.1245912
1169.40 0.1245567
1169.50 0.1245223
1169.60 0.1244879
1169.70 0.1244534
1169.80 0.124419
1169.90 0.1243847
1170.00 0.1243503
1170.10 0.1243159
1170.20 0.1242815
1170.30 0.1242472
1170.40 0.1242128
1170.50 0.1241785
1170.60 0.1241442
1170.70 0.1241099
1170.80 0.1240756
1170.90 0.1240413
1171.00 0.124007
1171.10 0.1239727
1171.20 0.1239384
1171.30 0.1239042
1171.40 0.1238699
1171.50 0.1238357
1171.60 0.1238015
1171.70 0.1237673
1171.80 0.1237331
1171.90 0.1236989
1172.00 0.1236647
1172.10 0.1236305
1172.20 0.1235964
1172.30 0.1235622
1172.40 0.1235281
1172.50 0.1234939
1172.60 0.1234598
1172.70 0.1234257
1172.80 0.1233916
1172.90 0.1233575
1173.00 0.1233234
1173.10 0.1232893
1173.20 0.1232552
1173.30 0.1232212
1173.40 0.1231871
1173.50 0.1231531
1173.60 0.1231191
1173.70 0.1230851
1173.80 0.1230523
1173.90 0.1230198
1174.00 0.1229874
1174.10 0.122955
1174.20 0.1229226
1174.30 0.1228902
1174.40 0.1228578
1174.50 0.1228254
1174.60 0.122793
1174.70 0.1227607
1174.80 0.1227283
1174.90 0.122696
1175.00 0.1226636
1175.10 0.1226313
1175.20 0.122599
1175.30 0.1225667
1175.40 0.1225344
1175.50 0.1225021
1175.60 0.1224698
1175.70 0.1224376
1175.80 0.1224053
1175.90 0.122373
1176.00 0.1223408
1176.10 0.1223086
1176.20 0.1222763
1176.30 0.1222441
1176.40 0.1222119
1176.50 0.1221797
1176.60 0.1221475
1176.70 0.1221153
1176.80 0.1220832
1176.90 0.122051
1177.00 0.1220189
1177.10 0.1219867
1177.20 0.1219546
1177.30 0.1219225
1177.40 0.1218903
1177.50 0.1218582
1177.60 0.1218261
1177.70 0.1217941
1177.80 0.121762
1177.90 0.1217299
1178.00 0.1216978
1178.10 0.1216658
1178.20 0.1216338
1178.30 0.1216017
1178.40 0.1215697
1178.50 0.1215377
1178.60 0.1215057
1178.70 0.1214737
1178.80 0.1214417
1178.90 0.1214097
1179.00 0.1213777
1179.10 0.1213458
1179.20 0.1213138
1179.30 0.1212819
1179.40 0.12125
1179.50 0.121218
1179.60 0.1211861
1179.70 0.1211542
1179.80 0.1211223
1179.90 0.1210904
1180.00 0.1210586
1180.10 0.1210267
1180.20 0.1209948
1180.30 0.120963
1180.40 0.1209312
1180.50 0.1208993
1180.60 0.1208675
1180.70 0.1208357
1180.80 0.1208039
1180.90 0.1207721
1181.00 0.1207403
1181.10 0.1207085
1181.20 0.1206768
1181.30 0.120645
1181.40 0.1206132
1181.50 0.1205815
1181.60 0.1205498
1181.70 0.1205181
1181.80 0.1204863
1181.90 0.1204546
1182.00 0.1204229
1182.10 0.1203913
1182.20 0.1203596
1182.30 0.1203279
1182.40 0.1202962
1182.50 0.1202646
1182.60 0.120233
1182.70 0.1202013
1182.80 0.1201697
1182.90 0.1201381
1183.00 0.1201065
1183.10 0.1200749
1183.20 0.1200433
1183.30 0.1200117
1183.40 0.1199801
1183.50 0.1199486
1183.60 0.119917
1183.70 0.1198855
1183.80 0.119854
1183.90 0.1198224
1184.00 0.1197909
1184.10 0.1197594
1184.20 0.1197279
1184.30 0.1196964
1184.40 0.1196649
1184.50 0.1196335
1184.60 0.119602
1184.70 0.1195706
1184.80 0.1195391
1184.90 0.1195077
1185.00 0.1194762
1185.10 0.1194448
1185.20 0.1194134
1185.30 0.119382
1185.40 0.1193506
1185.50 0.1193193
1185.60 0.119288
1185.70 0.1192568
1185.80 0.1192255
1185.90 0.1191943
1186.00 0.1191631
1186.10 0.1191318
1186.20 0.1191006
1186.30 0.1190694
1186.40 0.1190382
1186.50 0.1190071
1186.60 0.1189759
1186.70 0.1189447
1186.80 0.1189136
1186.90 0.1188824
1187.00 0.1188513
1187.10 0.1188201
1187.20 0.118789
1187.30 0.1187579
1187.40 0.1187268
1187.50 0.1186957
1187.60 0.1186646
1187.70 0.1186335
1187.80 0.1186025
1187.90 0.1185714
1188.00 0.1185403
1188.10 0.1185093
1188.20 0.1184783
1188.30 0.1184472
1188.40 0.1184162
1188.50 0.1183852
1188.60 0.1183542
1188.70 0.1183232
1188.80 0.1182922
1188.90 0.1182613
1189.00 0.1182303
1189.10 0.1181994
1189.20 0.1181684
1189.30 0.1181375
1189.40 0.1181065
1189.50 0.1180756
1189.60 0.1180447
1189.70 0.1180138
1189.80 0.1179829
1189.90 0.117952
1190.00 0.1179211
1190.10 0.1178903
1190.20 0.1178594
1190.30 0.1178286
1190.40 0.1177977
1190.50 0.1177669
1190.60 0.1177361
1190.70 0.1177052
1190.80 0.1176744
1190.90 0.1176436
1191.00 0.1176129
1191.10 0.1175821
1191.20 0.1175513
1191.30 0.1175205
1191.40 0.1174898
1191.50 0.117459
1191.60 0.1174283
1191.70 0.1173976
1191.80 0.1173668
1191.90 0.1173361
1192.00 0.1173054
1192.10 0.1172747
1192.20 0.117244
1192.30 0.1172134
1192.40 0.1171827
1192.50 0.117152
1192.60 0.1171214
1192.70 0.1170907
1192.80 0.1170601
1192.90 0.1170295
1193.00 0.1169989
1193.10 0.1169683
1193.20 0.1169377
1193.30 0.1169071
1193.40 0.1168765
1193.50 0.1168459
1193.60 0.1168153
1193.70 0.1167848
1193.80 0.1167542
1193.90 0.1167237
1194.00 0.1166932
1194.10 0.1166626
1194.20 0.1166321
1194.30 0.1166016
1194.40 0.1165711
1194.50 0.1165406
1194.60 0.1165102
1194.70 0.1164797
1194.80 0.1164492
1194.90 0.1164188
1195.00 0.1163883
1195.10 0.1163579
1195.20 0.1163275
1195.30 0.116297
1195.40 0.1162666
1195.50 0.1162362
1195.60 0.1162058
1195.70 0.1161755
1195.80 0.1161451
1195.90 0.1161147
1196.00 0.1160843
1196.10 0.116054
1196.20 0.1160237
1196.30 0.1159933
1196.40 0.115963
1196.50 0.1159327
1196.60 0.1159024
1196.70 0.1158721
1196.80 0.1158418
1196.90 0.1158115
1197.00 0.1157812
1197.10 0.115751
1197.20 0.1157207
1197.30 0.1156904
1197.40 0.1156603
1197.50 0.1156302
1197.60 0.1156001
1197.70 0.11557
1197.80 0.1155399
1197.90 0.1155098
1198.00 0.1154797
1198.10 0.1154496
1198.20 0.1154196
1198.30 0.1153895
1198.40 0.1153595
1198.50 0.1153294
1198.60 0.1152994
1198.70 0.1152694
1198.80 0.1152393
1198.90 0.1152093
1199.00 0.1151793
1199.10 0.1151494
1199.20 0.1151194
1199.30 0.1150894
1199.40 0.1150594
1199.50 0.1150295
1199.60 0.1149995
1199.70 0.1149696
1199.80 0.1149397
1199.90 0.1149098
1200.00 0.1148798
