# Version 2.1 - nm, norm@500 to 1, cut digits, bergeron_He_9000_85.dat_9000
# Wavelength(nm)  Flambda(ergs/cm^s/s/nm)
300.00 1.664306
300.10 1.664153
300.20 1.663979
300.30 1.663833
300.40 1.663875
300.50 1.663917
300.60 1.663959
300.70 1.664
300.80 1.66404
300.90 1.664081
301.00 1.66412
301.10 1.66416
301.20 1.664199
301.30 1.664237
301.40 1.664275
301.50 1.664313
301.60 1.66435
301.70 1.664387
301.80 1.664424
301.90 1.66446
302.00 1.664496
302.10 1.664466
302.20 1.664428
302.30 1.664391
302.40 1.664353
302.50 1.664314
302.60 1.664276
302.70 1.664237
302.80 1.664198
302.90 1.664158
303.00 1.664118
303.10 1.664078
303.20 1.664037
303.30 1.664002
303.40 1.664013
303.50 1.664023
303.60 1.664033
303.70 1.664043
303.80 1.664052
303.90 1.664061
304.00 1.66407
304.10 1.664078
304.20 1.664086
304.30 1.664093
304.40 1.6641
304.50 1.664107
304.60 1.664081
304.70 1.664051
304.80 1.664021
304.90 1.66399
305.00 1.663959
305.10 1.663928
305.20 1.663897
305.30 1.663865
305.40 1.663833
305.50 1.6638
305.60 1.663768
305.70 1.663735
305.80 1.663701
305.90 1.663668
306.00 1.663634
306.10 1.663599
306.20 1.663565
306.30 1.66353
306.40 1.663492
306.50 1.663453
306.60 1.663414
306.70 1.663375
306.80 1.663335
306.90 1.663296
307.00 1.663255
307.10 1.663215
307.20 1.663174
307.30 1.663133
307.40 1.663092
307.50 1.66305
307.60 1.663008
307.70 1.662966
307.80 1.662923
307.90 1.66288
308.00 1.662837
308.10 1.662793
308.20 1.66275
308.30 1.662706
308.40 1.662661
308.50 1.662617
308.60 1.662572
308.70 1.662526
308.80 1.662549
308.90 1.662766
309.00 1.662695
309.10 1.662624
309.20 1.662553
309.30 1.662481
309.40 1.66241
309.50 1.662344
309.60 1.662278
309.70 1.662211
309.80 1.662144
309.90 1.662077
310.00 1.66201
310.10 1.661942
310.20 1.661875
310.30 1.661807
310.40 1.661752
310.50 1.661712
310.60 1.661671
310.70 1.66163
310.80 1.661589
310.90 1.661548
311.00 1.661339
311.10 1.66113
311.20 1.660921
311.30 1.660742
311.40 1.660649
311.50 1.660556
311.60 1.660462
311.70 1.660369
311.80 1.660275
311.90 1.66018
312.00 1.660086
312.10 1.659991
312.20 1.660101
312.30 1.660145
312.40 1.659968
312.50 1.659915
312.60 1.659923
312.70 1.65993
312.80 1.659937
312.90 1.659882
313.00 1.659762
313.10 1.659641
313.20 1.659521
313.30 1.659411
313.40 1.659334
313.50 1.659256
313.60 1.659177
313.70 1.659099
313.80 1.659021
313.90 1.658942
314.00 1.658863
314.10 1.658723
314.20 1.658583
314.30 1.658442
314.40 1.658302
314.50 1.658162
314.60 1.658021
314.70 1.65788
314.80 1.657763
314.90 1.657742
315.00 1.657748
315.10 1.657609
315.20 1.657471
315.30 1.657332
315.40 1.657193
315.50 1.657053
315.60 1.656914
315.70 1.656839
315.80 1.656765
315.90 1.65669
316.00 1.656614
316.10 1.656344
316.20 1.656074
316.30 1.656193
316.40 1.655923
316.50 1.656041
316.60 1.65577
316.70 1.655887
316.80 1.656004
316.90 1.655733
317.00 1.655462
317.10 1.655191
317.20 1.65492
317.30 1.655209
317.40 1.655386
317.50 1.655248
317.60 1.655111
317.70 1.654973
317.80 1.654835
317.90 1.6543
318.00 1.654491
318.10 1.654219
318.20 1.653948
318.30 1.653676
318.40 1.653504
318.50 1.653615
318.60 1.653427
318.70 1.65327
318.80 1.652883
318.90 1.653375
319.00 1.653301
319.10 1.653029
319.20 1.652768
319.30 1.652539
319.40 1.652311
319.50 1.652083
319.60 1.652438
319.70 1.65221
319.80 1.651981
319.90 1.651752
320.00 1.651502
320.10 1.651229
320.20 1.65135
320.30 1.651077
320.40 1.650804
320.50 1.65106
320.60 1.650802
320.70 1.650906
320.80 1.650829
320.90 1.650555
321.00 1.650281
321.10 1.650008
321.20 1.649609
321.30 1.649495
321.40 1.64938
321.50 1.649265
321.60 1.649149
321.70 1.649034
321.80 1.648969
321.90 1.648958
322.00 1.648419
322.10 1.648328
322.20 1.648236
322.30 1.648144
322.40 1.648052
322.50 1.64796
322.60 1.647868
322.70 1.647775
322.80 1.647461
322.90 1.647301
323.00 1.647141
323.10 1.646982
323.20 1.646822
323.30 1.646662
323.40 1.646502
323.50 1.646342
323.60 1.646181
323.70 1.646021
323.80 1.645861
323.90 1.6457
324.00 1.645476
324.10 1.645252
324.20 1.645029
324.30 1.644846
324.40 1.644759
324.50 1.64465
324.60 1.644541
324.70 1.644432
324.80 1.644322
324.90 1.644213
325.00 1.644103
325.10 1.643993
325.20 1.64384
325.30 1.643598
325.40 1.643355
325.50 1.6431
325.60 1.64283
325.70 1.642559
325.80 1.642289
325.90 1.642081
326.00 1.641941
326.10 1.6418
326.20 1.641659
326.30 1.641594
326.40 1.641747
326.50 1.641545
326.60 1.641343
326.70 1.641141
326.80 1.640939
326.90 1.640736
327.00 1.640534
327.10 1.640332
327.20 1.640129
327.30 1.639927
327.40 1.639724
327.50 1.639522
327.60 1.639319
327.70 1.639117
327.80 1.638914
327.90 1.638666
328.00 1.638403
328.10 1.638182
328.20 1.637962
328.30 1.637741
328.40 1.637521
328.50 1.637329
328.60 1.637144
328.70 1.636959
328.80 1.636768
328.90 1.636564
329.00 1.63636
329.10 1.636156
329.20 1.635952
329.30 1.635747
329.40 1.635543
329.50 1.635338
329.60 1.635134
329.70 1.634929
329.80 1.634725
329.90 1.63452
330.00 1.634366
330.10 1.634275
330.20 1.634183
330.30 1.634091
330.40 1.63394
330.50 1.633726
330.60 1.633511
330.70 1.633297
330.80 1.633083
330.90 1.632868
331.00 1.632653
331.10 1.632439
331.20 1.632224
331.30 1.63201
331.40 1.631795
331.50 1.631617
331.60 1.631485
331.70 1.631353
331.80 1.631106
331.90 1.630855
332.00 1.630603
332.10 1.630352
332.20 1.6301
332.30 1.629849
332.40 1.629597
332.50 1.629346
332.60 1.629095
332.70 1.628843
332.80 1.628592
332.90 1.62834
333.00 1.628089
333.10 1.627858
333.20 1.627651
333.30 1.627444
333.40 1.627237
333.50 1.62703
333.60 1.626824
333.70 1.626617
333.80 1.62641
333.90 1.626202
334.00 1.625995
334.10 1.625809
334.20 1.625648
334.30 1.625487
334.40 1.625326
334.50 1.625165
334.60 1.625004
334.70 1.624779
334.80 1.624527
334.90 1.624351
335.00 1.624174
335.10 1.623683
335.20 1.623406
335.30 1.62351
335.40 1.622974
335.50 1.622956
335.60 1.622679
335.70 1.622023
335.80 1.621747
335.90 1.621548
336.00 1.621443
336.10 1.621339
336.20 1.621234
336.30 1.621052
336.40 1.620775
336.50 1.620499
336.60 1.620222
336.70 1.619945
336.80 1.619669
336.90 1.619389
337.00 1.619106
337.10 1.618823
337.20 1.61854
337.30 1.618308
337.40 1.618151
337.50 1.617994
337.60 1.617837
337.70 1.617679
337.80 1.617522
337.90 1.617301
338.00 1.617004
338.10 1.616706
338.20 1.616409
338.30 1.616112
338.40 1.615823
338.50 1.615556
338.60 1.615289
338.70 1.615022
338.80 1.614756
338.90 1.614489
339.00 1.614222
339.10 1.613955
339.20 1.613689
339.30 1.613424
339.40 1.613162
339.50 1.612916
339.60 1.61269
339.70 1.612464
339.80 1.612238
339.90 1.612012
340.00 1.611785
340.10 1.611559
340.20 1.611333
340.30 1.611107
340.40 1.610881
340.50 1.610655
340.60 1.610428
340.70 1.610202
340.80 1.609961
340.90 1.609699
341.00 1.609431
341.10 1.609156
341.20 1.608881
341.30 1.608605
341.40 1.60833
341.50 1.608055
341.60 1.60778
341.70 1.607505
341.80 1.607212
341.90 1.606898
342.00 1.606584
342.10 1.60627
342.20 1.606163
342.30 1.605938
342.40 1.605555
342.50 1.605285
342.60 1.605015
342.70 1.604745
342.80 1.604474
342.90 1.604204
343.00 1.603929
343.10 1.603648
343.20 1.603367
343.30 1.603086
343.40 1.602808
343.50 1.602534
343.60 1.60226
343.70 1.601986
343.80 1.601712
343.90 1.601437
344.00 1.601163
344.10 1.600889
344.20 1.600616
344.30 1.600342
344.40 1.600068
344.50 1.599794
344.60 1.599907
344.70 1.599633
344.80 1.599359
344.90 1.599085
345.00 1.598426
345.10 1.598152
345.20 1.597883
345.30 1.597618
345.40 1.597353
345.50 1.597074
345.60 1.596786
345.70 1.596512
345.80 1.596239
345.90 1.595966
346.00 1.595693
346.10 1.59542
346.20 1.595147
346.30 1.594874
346.40 1.594601
346.50 1.594329
346.60 1.594056
346.70 1.593783
346.80 1.593511
346.90 1.593238
347.00 1.592965
347.10 1.592693
347.20 1.592409
347.30 1.592108
347.40 1.591807
347.50 1.591506
347.60 1.591205
347.70 1.590905
347.80 1.590604
347.90 1.590303
348.00 1.590003
348.10 1.589703
348.20 1.589402
348.30 1.589102
348.40 1.588802
348.50 1.588502
348.60 1.588202
348.70 1.588158
348.80 1.58805
348.90 1.587736
349.00 1.587422
349.10 1.587108
349.20 1.586794
349.30 1.586481
349.40 1.586167
349.50 1.585853
349.60 1.58554
349.70 1.585226
349.80 1.584913
349.90 1.5846
350.00 1.584287
350.10 1.583974
350.20 1.583661
350.30 1.583364
350.40 1.583091
350.50 1.582818
350.60 1.582545
350.70 1.582271
350.80 1.581998
350.90 1.581725
351.00 1.581452
351.10 1.581179
351.20 1.580906
351.30 1.580633
351.40 1.580348
351.50 1.580039
351.60 1.57973
351.70 1.579422
351.80 1.579113
351.90 1.578805
352.00 1.578497
352.10 1.578189
352.20 1.57773
352.30 1.577326
352.40 1.577024
352.50 1.576722
352.60 1.57642
352.70 1.576118
352.80 1.575817
352.90 1.575515
353.00 1.575214
353.10 1.574912
353.20 1.574611
353.30 1.57431
353.40 1.574009
353.50 1.573685
353.60 1.573355
353.70 1.573025
353.80 1.572695
353.90 1.572364
354.00 1.572031
354.10 1.571697
354.20 1.571364
354.30 1.57103
354.40 1.570697
354.50 1.570364
354.60 1.570031
354.70 1.569698
354.80 1.569426
354.90 1.569241
355.00 1.569057
355.10 1.568872
355.20 1.568688
355.30 1.568376
355.40 1.568065
355.50 1.567754
355.60 1.567443
355.70 1.567102
355.80 1.566748
355.90 1.566205
356.00 1.565767
356.10 1.56544
356.20 1.565113
356.30 1.564785
356.40 1.564458
356.50 1.564132
356.60 1.563805
356.70 1.563478
356.80 1.563152
356.90 1.562825
357.00 1.562499
357.10 1.562173
357.20 1.561847
357.30 1.561521
357.40 1.561193
357.50 1.560863
357.60 1.560533
357.70 1.560203
357.80 1.559883
357.90 1.559563
358.00 1.559267
358.10 1.558977
358.20 1.558687
358.30 1.558397
358.40 1.558107
358.50 1.557817
358.60 1.557528
358.70 1.557238
358.80 1.556949
358.90 1.556659
359.00 1.556357
359.10 1.556031
359.20 1.555702
359.30 1.555353
359.40 1.555004
359.50 1.554586
359.60 1.554151
359.70 1.553716
359.80 1.553535
359.90 1.553354
360.00 1.553088
360.10 1.552672
360.20 1.552256
360.30 1.551841
360.40 1.551425
360.50 1.55101
360.60 1.550914
360.70 1.550502
360.80 1.550091
360.90 1.549679
361.00 1.549491
361.10 1.549177
361.20 1.548584
361.30 1.548561
361.40 1.548061
361.50 1.547799
361.60 1.547645
361.70 1.547086
361.80 1.546672
361.90 1.546513
362.00 1.546354
362.10 1.545968
362.20 1.545565
362.30 1.545231
362.40 1.544898
362.50 1.544565
362.60 1.544231
362.70 1.543812
362.80 1.543223
362.90 1.54296
363.00 1.542697
363.10 1.542387
363.20 1.542076
363.30 1.541923
363.40 1.541222
363.50 1.540815
363.60 1.54085
363.70 1.540623
363.80 1.540037
363.90 1.53975
364.00 1.539463
364.10 1.539176
364.20 1.538889
364.30 1.538416
364.40 1.537897
364.50 1.537644
364.60 1.537384
364.70 1.537123
364.80 1.536863
364.90 1.536313
365.00 1.535763
365.10 1.535505
365.20 1.535247
365.30 1.534989
365.40 1.534731
365.50 1.534182
365.60 1.533634
365.70 1.533324
365.80 1.533014
365.90 1.532798
366.00 1.532605
366.10 1.532195
366.20 1.531786
366.30 1.531377
366.40 1.530968
366.50 1.530735
366.60 1.530484
366.70 1.530088
366.80 1.529691
366.90 1.529324
367.00 1.52901
367.10 1.528696
367.20 1.528382
367.30 1.528068
367.40 1.527754
367.50 1.527282
367.60 1.526771
367.70 1.526395
367.80 1.526018
367.90 1.525642
368.00 1.525463
368.10 1.524921
368.20 1.524613
368.30 1.524311
368.40 1.524009
368.50 1.523708
368.60 1.523406
368.70 1.523104
368.80 1.522803
368.90 1.522313
369.00 1.521992
369.10 1.521798
369.20 1.52098
369.30 1.520727
369.40 1.520473
369.50 1.52022
369.60 1.51968
369.70 1.519141
369.80 1.518779
369.90 1.518418
370.00 1.518058
370.10 1.518113
370.20 1.517593
370.30 1.517057
370.40 1.516807
370.50 1.516555
370.60 1.516303
370.70 1.51605
370.80 1.515514
370.90 1.514978
371.00 1.514726
371.10 1.514477
371.20 1.513942
371.30 1.513407
371.40 1.51331
371.50 1.512915
371.60 1.51252
371.70 1.512125
371.80 1.511731
371.90 1.511337
372.00 1.511251
372.10 1.510839
372.20 1.510495
372.30 1.510151
372.40 1.509808
372.50 1.509464
372.60 1.50912
372.70 1.508777
372.80 1.508246
372.90 1.507715
373.00 1.507466
373.10 1.507219
373.20 1.50669
373.30 1.506162
373.40 1.505913
373.50 1.505664
373.60 1.505137
373.70 1.50461
373.80 1.504483
373.90 1.504112
374.00 1.503725
374.10 1.503338
374.20 1.502951
374.30 1.502564
374.40 1.502108
374.50 1.502055
374.60 1.501679
374.70 1.501293
374.80 1.500909
374.90 1.500524
375.00 1.500092
375.10 1.499661
375.20 1.49923
375.30 1.498904
375.40 1.498578
375.50 1.498253
375.60 1.497927
375.70 1.497602
375.80 1.497277
375.90 1.496952
376.00 1.496156
376.10 1.495834
376.20 1.495518
376.30 1.495202
376.40 1.494885
376.50 1.494529
376.60 1.494114
376.70 1.493699
376.80 1.493286
376.90 1.492876
377.00 1.492467
377.10 1.492058
377.20 1.491676
377.30 1.491396
377.40 1.491115
377.50 1.490835
377.60 1.490401
377.70 1.489968
377.80 1.489534
377.90 1.489101
378.00 1.489057
378.10 1.488656
378.20 1.488247
378.30 1.487837
378.40 1.487428
378.50 1.487019
378.60 1.48661
378.70 1.486202
378.80 1.485793
378.90 1.485394
379.00 1.485011
379.10 1.48466
379.20 1.48431
379.30 1.483918
379.40 1.483484
379.50 1.483051
379.60 1.482659
379.70 1.482319
379.80 1.481932
379.90 1.481545
380.00 1.481158
380.10 1.480772
380.20 1.480386
380.30 1.48
380.40 1.479614
380.50 1.479228
380.60 1.479138
380.70 1.478726
380.80 1.478315
380.90 1.477905
381.00 1.477494
381.10 1.477053
381.20 1.476717
381.30 1.47634
381.40 1.476096
381.50 1.475596
381.60 1.475166
381.70 1.474886
381.80 1.474508
381.90 1.474003
382.00 1.473498
382.10 1.473259
382.20 1.472701
382.30 1.472462
382.40 1.472156
382.50 1.47175
382.60 1.471343
382.70 1.471023
382.80 1.470714
382.90 1.470316
383.00 1.469919
383.10 1.469522
383.20 1.469109
383.30 1.468635
383.40 1.468196
383.50 1.467808
383.60 1.467602
383.70 1.467185
383.80 1.466768
383.90 1.466352
384.00 1.465935
384.10 1.465519
384.20 1.465103
384.30 1.464688
384.40 1.464283
384.50 1.463889
384.60 1.463495
384.70 1.463102
384.80 1.46276
384.90 1.462475
385.00 1.461941
385.10 1.461421
385.20 1.461292
385.30 1.4608
385.40 1.460357
385.50 1.459966
385.60 1.459574
385.70 1.459183
385.80 1.458779
385.90 1.458328
386.00 1.457911
386.10 1.457528
386.20 1.457176
386.30 1.456824
386.40 1.456398
386.50 1.456252
386.60 1.455805
386.70 1.455442
386.80 1.454949
386.90 1.454587
387.00 1.454354
387.10 1.453616
387.20 1.453371
387.30 1.453138
387.40 1.452523
387.50 1.452387
387.60 1.452006
387.70 1.451645
387.80 1.451284
387.90 1.450924
388.00 1.450482
388.10 1.449813
388.20 1.449667
388.30 1.449248
388.40 1.448829
388.50 1.448454
388.60 1.448065
388.70 1.44732
388.80 1.44709
388.90 1.446828
389.00 1.446383
389.10 1.446098
389.20 1.445657
389.30 1.445098
389.40 1.444882
389.50 1.444455
389.60 1.443839
389.70 1.443607
389.80 1.443214
389.90 1.442822
390.00 1.44243
390.10 1.442038
390.20 1.441646
390.30 1.441236
390.40 1.440806
390.50 1.440376
390.60 1.439946
390.70 1.439516
390.80 1.439077
390.90 1.438628
391.00 1.438545
391.10 1.438056
391.20 1.43766
391.30 1.437448
391.40 1.437052
391.50 1.436656
391.60 1.43626
391.70 1.435865
391.80 1.43547
391.90 1.434916
392.00 1.434359
392.10 1.434066
392.20 1.433732
392.30 1.433173
392.40 1.432803
392.50 1.432551
392.60 1.432162
392.70 1.431596
392.80 1.431371
392.90 1.430736
393.00 1.430276
393.10 1.429862
393.20 1.429511
393.30 1.429287
393.40 1.429017
393.50 1.428291
393.60 1.428067
393.70 1.427706
393.80 1.427164
393.90 1.42694
394.00 1.426671
394.10 1.426067
394.20 1.425597
394.30 1.425219
394.40 1.42482
394.50 1.424556
394.60 1.424113
394.70 1.42366
394.80 1.423167
394.90 1.422684
395.00 1.422446
395.10 1.422076
395.20 1.421764
395.30 1.421369
395.40 1.420974
395.50 1.42049
395.60 1.419974
395.70 1.419488
395.80 1.419083
395.90 1.418678
396.00 1.4183
396.10 1.418092
396.20 1.417624
396.30 1.417089
396.40 1.416869
396.50 1.416568
396.60 1.415935
396.70 1.415715
396.80 1.415202
396.90 1.414782
397.00 1.414562
397.10 1.41385
397.20 1.413631
397.30 1.413003
397.40 1.412602
397.50 1.4122
397.60 1.411803
397.70 1.411442
397.80 1.41108
397.90 1.41072
398.00 1.410362
398.10 1.410004
398.20 1.409576
398.30 1.409069
398.40 1.408568
398.50 1.408237
398.60 1.408016
398.70 1.407575
398.80 1.407069
398.90 1.40662
399.00 1.406276
399.10 1.40608
399.20 1.405599
399.30 1.405119
399.40 1.404639
399.50 1.404159
399.60 1.403744
399.70 1.403352
399.80 1.402961
399.90 1.402569
400.00 1.40218
400.10 1.401853
400.20 1.401253
400.30 1.40086
400.40 1.400544
400.50 1.400124
400.60 1.399779
400.70 1.399564
400.80 1.398997
400.90 1.398782
401.00 1.398085
401.10 1.397871
401.20 1.397553
401.30 1.396961
401.40 1.396526
401.50 1.396187
401.60 1.395849
401.70 1.395525
401.80 1.394931
401.90 1.394488
402.00 1.394041
402.10 1.393811
402.20 1.393118
402.30 1.392906
402.40 1.392542
402.50 1.392002
402.60 1.39179
402.70 1.391099
402.80 1.390888
402.90 1.390389
403.00 1.389938
403.10 1.389775
403.20 1.389097
403.30 1.388776
403.40 1.388561
403.50 1.388199
403.60 1.387765
403.70 1.387078
403.80 1.386876
403.90 1.38646
404.00 1.385971
404.10 1.385761
404.20 1.385314
404.30 1.384866
404.40 1.384182
404.50 1.383972
404.60 1.383526
404.70 1.383079
404.80 1.382871
404.90 1.382188
405.00 1.381877
405.10 1.381432
405.20 1.380919
405.30 1.380407
405.40 1.380042
405.50 1.379676
405.60 1.379311
405.70 1.378946
405.80 1.378581
405.90 1.378216
406.00 1.377822
406.10 1.377428
406.20 1.377035
406.30 1.376641
406.40 1.376239
406.50 1.375681
406.60 1.375356
406.70 1.374826
406.80 1.374334
406.90 1.373807
407.00 1.373413
407.10 1.37302
407.20 1.372627
407.30 1.372234
407.40 1.371842
407.50 1.371449
407.60 1.371057
407.70 1.370665
407.80 1.370274
407.90 1.369881
408.00 1.369465
408.10 1.368998
408.20 1.368571
408.30 1.368204
408.40 1.367838
408.50 1.36725
408.60 1.366903
408.70 1.366556
408.80 1.366233
408.90 1.366014
409.00 1.365525
409.10 1.365035
409.20 1.364546
409.30 1.364058
409.40 1.363574
409.50 1.363236
409.60 1.362898
409.70 1.362537
409.80 1.362085
409.90 1.361641
410.00 1.361426
410.10 1.360762
410.20 1.360388
410.30 1.360085
410.40 1.359733
410.50 1.359222
410.60 1.358712
410.70 1.358246
410.80 1.357958
410.90 1.35767
411.00 1.3573
411.10 1.356901
411.20 1.356501
411.30 1.35605
411.40 1.355401
411.50 1.355067
411.60 1.354732
411.70 1.35438
411.80 1.353951
411.90 1.353477
412.00 1.35282
412.10 1.352621
412.20 1.351965
412.30 1.351845
412.40 1.351568
412.50 1.350978
412.60 1.35065
412.70 1.350202
412.80 1.349726
412.90 1.349226
413.00 1.349055
413.10 1.348582
413.20 1.34811
413.30 1.347639
413.40 1.347167
413.50 1.346755
413.60 1.346518
413.70 1.346094
413.80 1.345671
413.90 1.345247
414.00 1.344824
414.10 1.344402
414.20 1.343925
414.30 1.343321
414.40 1.34308
414.50 1.342467
414.60 1.342291
414.70 1.34187
414.80 1.341449
414.90 1.341028
415.00 1.340608
415.10 1.340188
415.20 1.339781
415.30 1.339417
415.40 1.339052
415.50 1.338685
415.60 1.338202
415.70 1.33772
415.80 1.33727
415.90 1.336922
416.00 1.336575
416.10 1.336212
416.20 1.335786
416.30 1.335359
416.40 1.334933
416.50 1.334507
416.60 1.33409
416.70 1.333667
416.80 1.333027
416.90 1.332628
417.00 1.332196
417.10 1.332011
417.20 1.331596
417.30 1.331179
417.40 1.330699
417.50 1.330219
417.60 1.329784
417.70 1.329524
417.80 1.32911
417.90 1.328696
418.00 1.328283
418.10 1.32787
418.20 1.327457
418.30 1.327038
418.40 1.326462
418.50 1.326069
418.60 1.325676
418.70 1.325284
418.80 1.324892
418.90 1.3245
419.00 1.324108
419.10 1.323716
419.20 1.323325
419.30 1.322932
419.40 1.322457
419.50 1.321983
419.60 1.321507
419.70 1.321027
419.80 1.320546
419.90 1.320082
420.00 1.31967
420.10 1.319257
420.20 1.318845
420.30 1.318433
420.40 1.318021
420.50 1.31761
420.60 1.317198
420.70 1.316787
420.80 1.316377
420.90 1.315969
421.00 1.31566
421.10 1.31535
421.20 1.315009
421.30 1.314572
421.40 1.314136
421.50 1.3137
421.60 1.313264
421.70 1.312828
421.80 1.312392
421.90 1.311964
422.00 1.311556
422.10 1.311133
422.20 1.31065
422.30 1.310167
422.40 1.309686
422.50 1.309264
422.60 1.308842
422.70 1.308421
422.80 1.308
422.90 1.307579
423.00 1.307158
423.10 1.306738
423.20 1.306318
423.30 1.305898
423.40 1.305479
423.50 1.305059
423.60 1.30464
423.70 1.304221
423.80 1.303803
423.90 1.303384
424.00 1.302966
424.10 1.302548
424.20 1.302131
424.30 1.301714
424.40 1.301686
424.50 1.301247
424.60 1.300809
424.70 1.30037
424.80 1.299932
424.90 1.299494
425.00 1.299057
425.10 1.298619
425.20 1.298182
425.30 1.297746
425.40 1.297313
425.50 1.296902
425.60 1.296491
425.70 1.296081
425.80 1.295671
425.90 1.295262
426.00 1.294852
426.10 1.294443
426.20 1.294034
426.30 1.293625
426.40 1.293217
426.50 1.292808
426.60 1.2924
426.70 1.291993
426.80 1.291585
426.90 1.291177
427.00 1.290753
427.10 1.290328
427.20 1.289904
427.30 1.28948
427.40 1.289056
427.50 1.288632
427.60 1.288209
427.70 1.287786
427.80 1.287363
427.90 1.286941
428.00 1.286519
428.10 1.286097
428.20 1.285675
428.30 1.285253
428.40 1.284832
428.50 1.284411
428.60 1.28399
428.70 1.28357
428.80 1.28315
428.90 1.282738
429.00 1.282326
429.10 1.281914
429.20 1.281502
429.30 1.281091
429.40 1.28068
429.50 1.280269
429.60 1.279858
429.70 1.279448
429.80 1.279038
429.90 1.278628
430.00 1.278218
430.10 1.277809
430.20 1.2774
430.30 1.276991
430.40 1.276582
430.50 1.276174
430.60 1.275765
430.70 1.275358
430.80 1.27495
430.90 1.274542
431.00 1.274135
431.10 1.273728
431.20 1.273321
431.30 1.272914
431.40 1.272491
431.50 1.272068
431.60 1.271645
431.70 1.271223
431.80 1.270801
431.90 1.27038
432.00 1.269958
432.10 1.269537
432.20 1.269116
432.30 1.268695
432.40 1.268275
432.50 1.267855
432.60 1.267435
432.70 1.267015
432.80 1.266596
432.90 1.266176
433.00 1.265758
433.10 1.265339
433.20 1.26492
433.30 1.264503
433.40 1.264099
433.50 1.263695
433.60 1.263291
433.70 1.262887
433.80 1.262404
433.90 1.261822
434.00 1.26136
434.10 1.260972
434.20 1.260584
434.30 1.260197
434.40 1.259809
434.50 1.259422
434.60 1.259035
434.70 1.258648
434.80 1.25826
434.90 1.25785
435.00 1.25744
435.10 1.257031
435.20 1.256622
435.30 1.256213
435.40 1.255804
435.50 1.255396
435.60 1.254988
435.70 1.25458
435.80 1.254172
435.90 1.253764
436.00 1.253357
436.10 1.25295
436.20 1.252544
436.30 1.252062
436.40 1.251499
436.50 1.251088
436.60 1.250677
436.70 1.250266
436.80 1.249856
436.90 1.249445
437.00 1.249035
437.10 1.248626
437.20 1.248218
437.30 1.247814
437.40 1.247407
437.50 1.246972
437.60 1.246537
437.70 1.246103
437.80 1.245669
437.90 1.245235
438.00 1.244803
438.10 1.24439
438.20 1.243976
438.30 1.243574
438.40 1.243345
438.50 1.24298
438.60 1.242601
438.70 1.242035
438.80 1.241469
438.90 1.241307
439.00 1.240755
439.10 1.240392
439.20 1.240022
439.30 1.239558
439.40 1.239094
439.50 1.238631
439.60 1.238161
439.70 1.237794
439.80 1.237479
439.90 1.237008
440.00 1.236537
440.10 1.236067
440.20 1.235602
440.30 1.235201
440.40 1.234801
440.50 1.2344
440.60 1.234
440.70 1.2336
440.80 1.233201
440.90 1.232801
441.00 1.232402
441.10 1.232003
441.20 1.231611
441.30 1.231299
441.40 1.230938
441.50 1.230516
441.60 1.230095
441.70 1.229604
441.80 1.229169
441.90 1.228734
442.00 1.228299
442.10 1.227865
442.20 1.227431
442.30 1.226998
442.40 1.226568
442.50 1.226144
442.60 1.22572
442.70 1.225364
442.80 1.225088
442.90 1.224535
443.00 1.224074
443.10 1.223727
443.20 1.223373
443.30 1.223012
443.40 1.222654
443.50 1.222301
443.60 1.221858
443.70 1.221308
443.80 1.220757
443.90 1.220602
444.00 1.220141
444.10 1.219788
444.20 1.219348
444.30 1.218809
444.40 1.218411
444.50 1.218013
444.60 1.217639
444.70 1.217296
444.80 1.216896
444.90 1.216446
445.00 1.215996
445.10 1.215546
445.20 1.215112
445.30 1.214699
445.40 1.214285
445.50 1.213872
445.60 1.21346
445.70 1.213047
445.80 1.212616
445.90 1.212169
446.00 1.211721
446.10 1.211274
446.20 1.211174
446.30 1.210632
446.40 1.21014
446.50 1.209695
446.60 1.209251
446.70 1.208807
446.80 1.208414
446.90 1.208068
447.00 1.207621
447.10 1.207392
447.20 1.20693
447.30 1.20639
447.40 1.205952
447.50 1.205607
447.60 1.205294
447.70 1.205011
447.80 1.204473
447.90 1.203935
448.00 1.203465
448.10 1.203057
448.20 1.202649
448.30 1.202242
448.40 1.201834
448.50 1.201427
448.60 1.201035
448.70 1.200658
448.80 1.200281
448.90 1.199913
449.00 1.199546
449.10 1.199178
449.20 1.198811
449.30 1.198369
449.40 1.197991
449.50 1.197614
449.60 1.197208
449.70 1.196778
449.80 1.196348
449.90 1.195919
450.00 1.195489
450.10 1.19506
450.20 1.194631
450.30 1.194203
450.40 1.1938
450.50 1.193398
450.60 1.192996
450.70 1.192594
450.80 1.192193
450.90 1.191792
451.00 1.191417
451.10 1.191043
451.20 1.190589
451.30 1.190062
451.40 1.189725
451.50 1.189389
451.60 1.188862
451.70 1.188336
451.80 1.188191
451.90 1.187665
452.00 1.18733
452.10 1.186995
452.20 1.186565
452.30 1.186135
452.40 1.185706
452.50 1.185277
452.60 1.184753
452.70 1.184317
452.80 1.183961
452.90 1.183606
453.00 1.183252
453.10 1.182897
453.20 1.18249
453.30 1.182084
453.40 1.181678
453.50 1.181273
453.60 1.180867
453.70 1.180462
453.80 1.180055
453.90 1.179644
454.00 1.179234
454.10 1.178824
454.20 1.178373
454.30 1.177923
454.40 1.177474
454.50 1.177024
454.60 1.176575
454.70 1.176146
454.80 1.175736
454.90 1.175327
455.00 1.174917
455.10 1.174508
455.20 1.174099
455.30 1.17369
455.40 1.173282
455.50 1.172873
455.60 1.172465
455.70 1.172058
455.80 1.171644
455.90 1.17123
456.00 1.170817
456.10 1.170405
456.20 1.169996
456.30 1.169587
456.40 1.169179
456.50 1.168771
456.60 1.168363
456.70 1.167955
456.80 1.167548
456.90 1.167141
457.00 1.166734
457.10 1.166327
457.20 1.166239
457.30 1.165833
457.40 1.165427
457.50 1.165022
457.60 1.164617
457.70 1.164212
457.80 1.163807
457.90 1.163403
458.00 1.162998
458.10 1.162594
458.20 1.162191
458.30 1.161787
458.40 1.161384
458.50 1.160981
458.60 1.160578
458.70 1.160148
458.80 1.159707
458.90 1.159266
459.00 1.158826
459.10 1.158385
459.20 1.157946
459.30 1.157544
459.40 1.157143
459.50 1.156742
459.60 1.156342
459.70 1.155941
459.80 1.155541
459.90 1.155141
460.00 1.154742
460.10 1.154342
460.20 1.153943
460.30 1.153544
460.40 1.153146
460.50 1.152747
460.60 1.152349
460.70 1.151932
460.80 1.151506
460.90 1.15108
461.00 1.150654
461.10 1.150229
461.20 1.149888
461.30 1.14958
461.40 1.149197
461.50 1.148795
461.60 1.148394
461.70 1.147992
461.80 1.147597
461.90 1.147202
462.00 1.146808
462.10 1.146413
462.20 1.146019
462.30 1.145625
462.40 1.145231
462.50 1.144838
462.60 1.144445
462.70 1.144052
462.80 1.143659
462.90 1.143267
463.00 1.142874
463.10 1.142482
463.20 1.142056
463.30 1.141615
463.40 1.141175
463.50 1.140735
463.60 1.140295
463.70 1.139856
463.80 1.139416
463.90 1.139007
464.00 1.138605
464.10 1.138204
464.20 1.137803
464.30 1.137402
464.40 1.137001
464.50 1.136601
464.60 1.136201
464.70 1.135821
464.80 1.13545
464.90 1.13508
465.00 1.134709
465.10 1.134339
465.20 1.133969
465.30 1.133566
465.40 1.13314
465.50 1.132715
465.60 1.132291
465.70 1.131866
465.80 1.131442
465.90 1.131039
466.00 1.130641
466.10 1.130244
466.20 1.129846
466.30 1.129463
466.40 1.129086
466.50 1.128709
466.60 1.128333
466.70 1.127956
466.80 1.12758
466.90 1.127204
467.00 1.126828
467.10 1.126453
467.20 1.126077
467.30 1.125626
467.40 1.125201
467.50 1.124789
467.60 1.124378
467.70 1.123967
467.80 1.123556
467.90 1.12316
468.00 1.122768
468.10 1.122377
468.20 1.121987
468.30 1.121533
468.40 1.121054
468.50 1.12093
468.60 1.120452
468.70 1.119974
468.80 1.119496
468.90 1.119294
469.00 1.118895
469.10 1.11848
469.20 1.118092
469.30 1.117704
469.40 1.117316
469.50 1.116919
469.60 1.11652
469.70 1.116121
469.80 1.115722
469.90 1.115317
470.00 1.114842
470.10 1.114419
470.20 1.114017
470.30 1.113614
470.40 1.113213
470.50 1.112811
470.60 1.112423
470.70 1.112038
470.80 1.111653
470.90 1.111268
471.00 1.110814
471.10 1.110343
471.20 1.110222
471.30 1.10975
471.40 1.10928
471.50 1.108809
471.60 1.108479
471.70 1.108184
471.80 1.107819
471.90 1.107436
472.00 1.107054
472.10 1.106673
472.20 1.106276
472.30 1.105876
472.40 1.105477
472.50 1.105077
472.60 1.104678
472.70 1.10423
472.80 1.103819
472.90 1.103422
473.00 1.103025
473.10 1.102628
473.20 1.102231
473.30 1.101835
473.40 1.101439
473.50 1.101043
473.60 1.100648
473.70 1.100252
473.80 1.099869
473.90 1.09949
474.00 1.099111
474.10 1.098732
474.20 1.098346
474.30 1.097957
474.40 1.097569
474.50 1.097182
474.60 1.096792
474.70 1.096377
474.80 1.095962
474.90 1.095548
475.00 1.095134
475.10 1.09472
475.20 1.094307
475.30 1.093894
475.40 1.093511
475.50 1.093136
475.60 1.092761
475.70 1.092387
475.80 1.092013
475.90 1.091639
476.00 1.091265
476.10 1.090891
476.20 1.090493
476.30 1.090085
476.40 1.089677
476.50 1.089269
476.60 1.088861
476.70 1.088454
476.80 1.088047
476.90 1.087661
477.00 1.087281
477.10 1.086901
477.20 1.086521
477.30 1.086141
477.40 1.085761
477.50 1.085382
477.60 1.085003
477.70 1.084624
477.80 1.084245
477.90 1.083867
478.00 1.083489
478.10 1.083111
478.20 1.082733
478.30 1.082355
478.40 1.081978
478.50 1.081601
478.60 1.081224
478.70 1.080794
478.80 1.080342
478.90 1.079944
479.00 1.079558
479.10 1.079173
479.20 1.078788
479.30 1.078404
479.40 1.078014
479.50 1.077622
479.60 1.077231
479.70 1.076839
479.80 1.076448
479.90 1.076056
480.00 1.075666
480.10 1.075275
480.20 1.074884
480.30 1.074494
480.40 1.074104
480.50 1.073715
480.60 1.073325
480.70 1.072936
480.80 1.072547
480.90 1.072158
481.00 1.071769
481.10 1.071381
481.20 1.070997
481.30 1.070614
481.40 1.07023
481.50 1.069847
481.60 1.069464
481.70 1.069081
481.80 1.068699
481.90 1.068317
482.00 1.067935
482.10 1.067553
482.20 1.06717
482.30 1.066775
482.40 1.066381
482.50 1.065986
482.60 1.065592
482.70 1.065198
482.80 1.064804
482.90 1.064411
483.00 1.064017
483.10 1.063624
483.20 1.063231
483.30 1.062839
483.40 1.062446
483.50 1.062054
483.60 1.061662
483.70 1.061286
483.80 1.06091
483.90 1.060534
484.00 1.060158
484.10 1.059783
484.20 1.059405
484.30 1.059027
484.40 1.058648
484.50 1.05827
484.60 1.057892
484.70 1.057516
484.80 1.057152
484.90 1.056789
485.00 1.056426
485.10 1.056064
485.20 1.055701
485.30 1.055339
485.40 1.054977
485.50 1.054615
485.60 1.054254
485.70 1.05385
485.80 1.053446
485.90 1.053043
486.00 1.052639
486.10 1.052236
486.20 1.051834
486.30 1.051431
486.40 1.051029
486.50 1.050627
486.60 1.050225
486.70 1.049827
486.80 1.049477
486.90 1.049126
487.00 1.048776
487.10 1.048426
487.20 1.048055
487.30 1.047685
487.40 1.047315
487.50 1.046945
487.60 1.046576
487.70 1.046206
487.80 1.045837
487.90 1.045468
488.00 1.0451
488.10 1.044731
488.20 1.044359
488.30 1.043931
488.40 1.043504
488.50 1.043076
488.60 1.04265
488.70 1.042223
488.80 1.041916
488.90 1.04161
489.00 1.041282
489.10 1.040901
489.20 1.04052
489.30 1.040139
489.40 1.039759
489.50 1.039379
489.60 1.038999
489.70 1.038619
489.80 1.038199
489.90 1.03784
490.00 1.03748
490.10 1.03712
490.20 1.036761
490.30 1.036402
490.40 1.035979
490.50 1.035557
490.60 1.035135
490.70 1.034713
490.80 1.034291
490.90 1.03387
491.00 1.03361
491.10 1.03335
491.20 1.03293
491.30 1.032509
491.40 1.032089
491.50 1.031669
491.60 1.031295
491.70 1.031019
491.80 1.030732
491.90 1.030313
492.00 1.029894
492.10 1.029476
492.20 1.029058
492.30 1.02864
492.40 1.028222
492.50 1.027804
492.60 1.027707
492.70 1.02729
492.80 1.026873
492.90 1.026457
493.00 1.026045
493.10 1.025692
493.20 1.025339
493.30 1.024986
493.40 1.024634
493.50 1.024282
493.60 1.023867
493.70 1.023452
493.80 1.023037
493.90 1.022623
494.00 1.022209
494.10 1.021815
494.20 1.021462
494.30 1.021109
494.40 1.020757
494.50 1.020405
494.60 1.020048
494.70 1.019636
494.80 1.019249
494.90 1.018935
495.00 1.01862
495.10 1.018306
495.20 1.017928
495.30 1.01755
495.40 1.017172
495.50 1.016794
495.60 1.016416
495.70 1.016039
495.80 1.015662
495.90 1.015285
496.00 1.014908
496.10 1.014521
496.20 1.014118
496.30 1.013786
496.40 1.013456
496.50 1.013125
496.60 1.012794
496.70 1.012387
496.80 1.011979
496.90 1.011572
497.00 1.011165
497.10 1.010758
497.20 1.010351
497.30 1.009973
497.40 1.009674
497.50 1.009375
497.60 1.009042
497.70 1.008639
497.80 1.008268
497.90 1.007898
498.00 1.007527
498.10 1.007157
498.20 1.006788
498.30 1.006418
498.40 1.006049
498.50 1.00568
498.60 1.005311
498.70 1.004908
498.80 1.004505
498.90 1.004102
499.00 1.0037
499.10 1.003298
499.20 1.002896
499.30 1.002513
499.40 1.002186
499.50 1.001859
499.60 1.001533
499.70 1.001201
499.80 1.0008
499.90 1.0004
500.00 1
500.10 0.9996001
500.20 0.9992171
500.30 0.9988694
500.40 0.998522
500.50 0.9981747
500.60 0.9978277
500.70 0.9974808
500.80 0.9971176
500.90 0.9967195
501.00 0.9963217
501.10 0.9959241
501.20 0.9955762
501.30 0.9953337
501.40 0.9950419
501.50 0.9946451
501.60 0.9942485
501.70 0.9938522
501.80 0.9934561
501.90 0.9930603
502.00 0.9926647
502.10 0.9922693
502.20 0.9918865
502.30 0.9916677
502.40 0.9913926
502.50 0.9909981
502.60 0.9906038
502.70 0.9902097
502.80 0.9898159
502.90 0.9894223
503.00 0.9890289
503.10 0.9886357
503.20 0.9882428
503.30 0.9878502
503.40 0.987477
503.50 0.9871589
503.60 0.9868409
503.70 0.9865231
503.80 0.9861966
503.90 0.9858052
504.00 0.9854141
504.10 0.9850232
504.20 0.9846325
504.30 0.984242
504.40 0.9838518
504.50 0.9834618
504.60 0.9832705
504.70 0.9829877
504.80 0.9825983
504.90 0.9822091
505.00 0.9818201
505.10 0.9814314
505.20 0.9810429
505.30 0.9806547
505.40 0.9802666
505.50 0.9798788
505.60 0.9795073
505.70 0.9791701
505.80 0.9788331
505.90 0.9784963
506.00 0.9781597
506.10 0.9778233
506.20 0.9774828
506.30 0.9771307
506.40 0.9767787
506.50 0.9764269
506.60 0.9760754
506.70 0.975724
506.80 0.9753729
506.90 0.9750219
507.00 0.9746711
507.10 0.9743098
507.20 0.9739305
507.30 0.9735655
507.40 0.9732006
507.50 0.972836
507.60 0.9724716
507.70 0.9721074
507.80 0.9717434
507.90 0.9713796
508.00 0.971016
508.10 0.9706527
508.20 0.9702895
508.30 0.9699266
508.40 0.9695639
508.50 0.9692014
508.60 0.9688391
508.70 0.968477
508.80 0.9681102
508.90 0.9677298
509.00 0.9673496
509.10 0.9669775
509.20 0.9666226
509.30 0.9662679
509.40 0.9659134
509.50 0.9655591
509.60 0.965205
509.70 0.9648512
509.80 0.9644975
509.90 0.964144
510.00 0.9637907
510.10 0.9634376
510.20 0.9630848
510.30 0.9627317
510.40 0.9623775
510.50 0.9620236
510.60 0.9616698
510.70 0.9613163
510.80 0.960963
510.90 0.9606098
511.00 0.9602569
511.10 0.9599042
511.20 0.9595516
511.30 0.9591993
511.40 0.9588472
511.50 0.9584953
511.60 0.9581362
511.70 0.9577618
511.80 0.9573875
511.90 0.9570135
512.00 0.9566397
512.10 0.9562661
512.20 0.9558928
512.30 0.9555243
512.40 0.9551695
512.50 0.9548148
512.60 0.9544603
512.70 0.9541061
512.80 0.953752
512.90 0.9533982
513.00 0.9530445
513.10 0.9526911
513.20 0.9523378
513.30 0.9519848
513.40 0.951632
513.50 0.9512793
513.60 0.9509269
513.70 0.9505747
513.80 0.9502227
513.90 0.9498708
514.00 0.9495136
514.10 0.9491557
514.20 0.948798
514.30 0.9484405
514.40 0.9480832
514.50 0.9477261
514.60 0.9473693
514.70 0.9470126
514.80 0.9466561
514.90 0.9462999
515.00 0.9459438
515.10 0.945588
515.20 0.9452323
515.30 0.9448769
515.40 0.9445216
515.50 0.9441666
515.60 0.9438118
515.70 0.9434572
515.80 0.9431027
515.90 0.9427485
516.00 0.9423945
516.10 0.9420407
516.20 0.9416871
516.30 0.9413337
516.40 0.9409805
516.50 0.9406275
516.60 0.9402747
516.70 0.9399221
516.80 0.9395698
516.90 0.9392176
517.00 0.9388656
517.10 0.9385138
517.20 0.9381623
517.30 0.9378109
517.40 0.9374597
517.50 0.9371087
517.60 0.936758
517.70 0.9364074
517.80 0.936057
517.90 0.9357069
518.00 0.9353569
518.10 0.9350072
518.20 0.9346576
518.30 0.9343082
518.40 0.9339591
518.50 0.9336101
518.60 0.9332613
518.70 0.9329128
518.80 0.9325644
518.90 0.9322162
519.00 0.9318683
519.10 0.9315204
519.20 0.9311728
519.30 0.9308253
519.40 0.930478
519.50 0.9301309
519.60 0.929784
519.70 0.9294373
519.80 0.9290908
519.90 0.9287445
520.00 0.9283984
520.10 0.9280525
520.20 0.9277068
520.30 0.9273613
520.40 0.927016
520.50 0.9266709
520.60 0.926326
520.70 0.9259813
520.80 0.9256367
520.90 0.9252924
521.00 0.9249483
521.10 0.9246043
521.20 0.9242606
521.30 0.9239171
521.40 0.9235737
521.50 0.9232306
521.60 0.9228876
521.70 0.9225448
521.80 0.9222023
521.90 0.9218599
522.00 0.9215177
522.10 0.9211757
522.20 0.920834
522.30 0.9204924
522.40 0.920151
522.50 0.9198098
522.60 0.9194687
522.70 0.9191279
522.80 0.9187873
522.90 0.9184469
523.00 0.9181066
523.10 0.9177666
523.20 0.9174267
523.30 0.9170871
523.40 0.9167476
523.50 0.9164083
523.60 0.9160692
523.70 0.9157303
523.80 0.9153916
523.90 0.9150531
524.00 0.9147148
524.10 0.9143767
524.20 0.9140388
524.30 0.9136979
524.40 0.9133549
524.50 0.913012
524.60 0.9126694
524.70 0.9123269
524.80 0.9119847
524.90 0.9116426
525.00 0.9113007
525.10 0.910959
525.20 0.9106175
525.30 0.9102762
525.40 0.9099351
525.50 0.9095942
525.60 0.9092535
525.70 0.908913
525.80 0.9085727
525.90 0.9082325
526.00 0.9078926
526.10 0.9075528
526.20 0.9072133
526.30 0.9068739
526.40 0.9065347
526.50 0.9061957
526.60 0.905857
526.70 0.9055184
526.80 0.90518
526.90 0.9048417
527.00 0.9045037
527.10 0.9041659
527.20 0.9038283
527.30 0.9034908
527.40 0.9031536
527.50 0.9028165
527.60 0.9024796
527.70 0.9021429
527.80 0.9018064
527.90 0.9014701
528.00 0.901134
528.10 0.9007981
528.20 0.9004624
528.30 0.9001268
528.40 0.8997915
528.50 0.8994563
528.60 0.8991213
528.70 0.8987865
528.80 0.8984519
528.90 0.8981175
529.00 0.8977833
529.10 0.8974493
529.20 0.8971154
529.30 0.8967818
529.40 0.8964483
529.50 0.8961143
529.60 0.8957759
529.70 0.8954377
529.80 0.8950997
529.90 0.8947619
530.00 0.8944243
530.10 0.8940869
530.20 0.8937496
530.30 0.8934126
530.40 0.8930757
530.50 0.8927391
530.60 0.8924026
530.70 0.8920663
530.80 0.8917302
530.90 0.8913943
531.00 0.8910586
531.10 0.8907231
531.20 0.8903878
531.30 0.8900526
531.40 0.8897177
531.50 0.8893829
531.60 0.8890483
531.70 0.888714
531.80 0.8883798
531.90 0.8880457
532.00 0.8877119
532.10 0.8873783
532.20 0.8870449
532.30 0.8867116
532.40 0.8863785
532.50 0.8860456
532.60 0.885713
532.70 0.8853804
532.80 0.8850481
532.90 0.884716
533.00 0.8843841
533.10 0.8840523
533.20 0.8837207
533.30 0.8833893
533.40 0.8830581
533.50 0.8827271
533.60 0.8823963
533.70 0.8820657
533.80 0.8817352
533.90 0.8814049
534.00 0.8810749
534.10 0.880745
534.20 0.8804152
534.30 0.8800857
534.40 0.8797564
534.50 0.8794272
534.60 0.8790982
534.70 0.8787695
534.80 0.8784399
534.90 0.8781064
535.00 0.8777731
535.10 0.8774399
535.20 0.877107
535.30 0.8767743
535.40 0.8764417
535.50 0.8761093
535.60 0.8757771
535.70 0.8754451
535.80 0.8751133
535.90 0.8747817
536.00 0.8744503
536.10 0.874119
536.20 0.8737879
536.30 0.8734571
536.40 0.8731264
536.50 0.8727959
536.60 0.8724655
536.70 0.8721354
536.80 0.8718054
536.90 0.8714757
537.00 0.8711461
537.10 0.8708167
537.20 0.8704875
537.30 0.8701585
537.40 0.8698296
537.50 0.8695009
537.60 0.8691725
537.70 0.8688442
537.80 0.8685161
537.90 0.8681882
538.00 0.8678604
538.10 0.8675329
538.20 0.8672055
538.30 0.8668783
538.40 0.8665513
538.50 0.8662245
538.60 0.8658978
538.70 0.8655714
538.80 0.8652451
538.90 0.864919
539.00 0.8645931
539.10 0.8642674
539.20 0.8639418
539.30 0.8636165
539.40 0.8632913
539.50 0.8629663
539.60 0.8626415
539.70 0.8623169
539.80 0.8619924
539.90 0.8616681
540.00 0.861344
540.10 0.8610201
540.20 0.8606929
540.30 0.8603645
540.40 0.8600363
540.50 0.8597082
540.60 0.8593803
540.70 0.8590526
540.80 0.8587251
540.90 0.8583978
541.00 0.8580706
541.10 0.8577437
541.20 0.8574169
541.30 0.8570903
541.40 0.8567639
541.50 0.8564377
541.60 0.8561116
541.70 0.8557858
541.80 0.8554601
541.90 0.8551346
542.00 0.8548093
542.10 0.8544841
542.20 0.8541592
542.30 0.8538344
542.40 0.8535098
542.50 0.8531854
542.60 0.8528612
542.70 0.8525371
542.80 0.8522132
542.90 0.8518896
543.00 0.8515661
543.10 0.8512427
543.20 0.8509196
543.30 0.8505966
543.40 0.8502738
543.50 0.8499512
543.60 0.8496288
543.70 0.8493066
543.80 0.8489845
543.90 0.8486626
544.00 0.8483409
544.10 0.8480194
544.20 0.847698
544.30 0.8473769
544.40 0.8470559
544.50 0.8467351
544.60 0.8464144
544.70 0.846094
544.80 0.8457737
544.90 0.8454536
545.00 0.8451337
545.10 0.8448139
545.20 0.8444944
545.30 0.844175
545.40 0.8438558
545.50 0.8435367
545.60 0.8432179
545.70 0.8428994
545.80 0.842581
545.90 0.8422627
546.00 0.8419447
546.10 0.8416268
546.20 0.8413091
546.30 0.8409916
546.40 0.8406742
546.50 0.8403571
546.60 0.8400401
546.70 0.8397232
546.80 0.8394066
546.90 0.8390901
547.00 0.8387738
547.10 0.8384577
547.20 0.8381418
547.30 0.837826
547.40 0.8375104
547.50 0.837195
547.60 0.8368798
547.70 0.8365647
547.80 0.8362498
547.90 0.8359351
548.00 0.8356205
548.10 0.8353062
548.20 0.834992
548.30 0.8346779
548.40 0.8343641
548.50 0.8340504
548.60 0.8337369
548.70 0.8334235
548.80 0.8331104
548.90 0.8327974
549.00 0.8324846
549.10 0.8321719
549.20 0.8318595
549.30 0.8315472
549.40 0.831235
549.50 0.8309231
549.60 0.8306113
549.70 0.8302997
549.80 0.8299882
549.90 0.829677
550.00 0.8293659
550.10 0.829055
550.20 0.8287442
550.30 0.8284336
550.40 0.8281232
550.50 0.827813
550.60 0.8275029
550.70 0.827193
550.80 0.8268833
550.90 0.8265737
551.00 0.8262629
551.10 0.8259445
551.20 0.8256263
551.30 0.8253082
551.40 0.8249903
551.50 0.8246726
551.60 0.8243551
551.70 0.8240377
551.80 0.8237206
551.90 0.8234036
552.00 0.8230867
552.10 0.8227701
552.20 0.8224536
552.30 0.8221373
552.40 0.8218212
552.50 0.8215052
552.60 0.8211894
552.70 0.8208738
552.80 0.8205584
552.90 0.8202432
553.00 0.8199281
553.10 0.8196132
553.20 0.8192984
553.30 0.8189839
553.40 0.8186695
553.50 0.8183553
553.60 0.8180413
553.70 0.8177274
553.80 0.8174192
553.90 0.8171149
554.00 0.8168108
554.10 0.8165068
554.20 0.8162029
554.30 0.8158993
554.40 0.8155958
554.50 0.8152925
554.60 0.8149893
554.70 0.8146863
554.80 0.8143835
554.90 0.8140808
555.00 0.8137783
555.10 0.813476
555.20 0.8131738
555.30 0.8128718
555.40 0.81257
555.50 0.8122683
555.60 0.8119668
555.70 0.8116655
555.80 0.8113643
555.90 0.8110633
556.00 0.8107624
556.10 0.8104618
556.20 0.8101612
556.30 0.8098609
556.40 0.8095607
556.50 0.8092602
556.60 0.8089514
556.70 0.8086428
556.80 0.8083343
556.90 0.808026
557.00 0.8077179
557.10 0.80741
557.20 0.8071022
557.30 0.8067946
557.40 0.8064871
557.50 0.8061799
557.60 0.8058727
557.70 0.8055658
557.80 0.805259
557.90 0.8049524
558.00 0.804646
558.10 0.8043397
558.20 0.8040336
558.30 0.8037277
558.40 0.803422
558.50 0.8031164
558.60 0.8028109
558.70 0.8025057
558.80 0.8022006
558.90 0.8018957
559.00 0.8015909
559.10 0.8012863
559.20 0.8009819
559.30 0.8006776
559.40 0.8003735
559.50 0.8000696
559.60 0.7997658
559.70 0.7994622
559.80 0.7991588
559.90 0.7988555
560.00 0.7985524
560.10 0.7982495
560.20 0.7979468
560.30 0.7976441
560.40 0.7973417
560.50 0.7970394
560.60 0.7967373
560.70 0.7964354
560.80 0.7961336
560.90 0.795832
561.00 0.7955306
561.10 0.7952293
561.20 0.7949282
561.30 0.7946272
561.40 0.7943264
561.50 0.7940258
561.60 0.7937253
561.70 0.793425
561.80 0.7931249
561.90 0.7928249
562.00 0.7925251
562.10 0.792222
562.20 0.791914
562.30 0.7916061
562.40 0.7912984
562.50 0.7909908
562.60 0.7906835
562.70 0.7903762
562.80 0.7900692
562.90 0.7897623
563.00 0.7894556
563.10 0.7891491
563.20 0.7888427
563.30 0.7885365
563.40 0.7882305
563.50 0.7879246
563.60 0.7876189
563.70 0.7873134
563.80 0.787008
563.90 0.7867028
564.00 0.7863978
564.10 0.7860929
564.20 0.7857883
564.30 0.7854837
564.40 0.7851794
564.50 0.7848752
564.60 0.7845711
564.70 0.7842673
564.80 0.7839636
564.90 0.7836626
565.00 0.7833678
565.10 0.7830733
565.20 0.7827789
565.30 0.7824847
565.40 0.7821906
565.50 0.7818967
565.60 0.7816029
565.70 0.7813093
565.80 0.7810159
565.90 0.7807226
566.00 0.7804295
566.10 0.7801365
566.20 0.7798437
566.30 0.7795511
566.40 0.7792586
566.50 0.7789663
566.60 0.7786741
566.70 0.7783821
566.80 0.7780902
566.90 0.7777985
567.00 0.777507
567.10 0.7772156
567.20 0.7769244
567.30 0.7766333
567.40 0.7763424
567.50 0.7760516
567.60 0.775761
567.70 0.7754698
567.80 0.7751755
567.90 0.7748812
568.00 0.7745872
568.10 0.7742933
568.20 0.7739996
568.30 0.773706
568.40 0.7734126
568.50 0.7731194
568.60 0.7728263
568.70 0.7725334
568.80 0.7722406
568.90 0.771948
569.00 0.7716555
569.10 0.7713632
569.20 0.7710711
569.30 0.7707791
569.40 0.7704872
569.50 0.7701956
569.60 0.7699041
569.70 0.7696127
569.80 0.7693215
569.90 0.7690305
570.00 0.7687396
570.10 0.7684489
570.20 0.7681583
570.30 0.7678679
570.40 0.7675776
570.50 0.7672875
570.60 0.7669976
570.70 0.7667078
570.80 0.7664181
570.90 0.7661287
571.00 0.7658393
571.10 0.7655502
571.20 0.7652612
571.30 0.7649723
571.40 0.7646836
571.50 0.7643951
571.60 0.7641067
571.70 0.7638184
571.80 0.7635304
571.90 0.7632424
572.00 0.7629547
572.10 0.762667
572.20 0.7623796
572.30 0.7620923
572.40 0.7618051
572.50 0.7615181
572.60 0.7612313
572.70 0.7609446
572.80 0.7606581
572.90 0.7603717
573.00 0.7600854
573.10 0.7597994
573.20 0.7595134
573.30 0.7592277
573.40 0.758939
573.50 0.7586462
573.60 0.7583536
573.70 0.7580612
573.80 0.7577689
573.90 0.7574768
574.00 0.7571848
574.10 0.756893
574.20 0.7566014
574.30 0.7563099
574.40 0.7560185
574.50 0.7557273
574.60 0.7554363
574.70 0.7551455
574.80 0.7548547
574.90 0.7545642
575.00 0.7542738
575.10 0.7539835
575.20 0.7536935
575.30 0.7534035
575.40 0.7531138
575.50 0.7528241
575.60 0.7525347
575.70 0.7522454
575.80 0.7519562
575.90 0.7516672
576.00 0.7513784
576.10 0.7510897
576.20 0.7508012
576.30 0.7505128
576.40 0.7502246
576.50 0.7499365
576.60 0.7496486
576.70 0.7493608
576.80 0.7490732
576.90 0.7487858
577.00 0.7484985
577.10 0.7482114
577.20 0.7479244
577.30 0.7476376
577.40 0.7473509
577.50 0.7470644
577.60 0.7467827
577.70 0.746509
577.80 0.7462354
577.90 0.7459619
578.00 0.7456886
578.10 0.7454154
578.20 0.7451424
578.30 0.7448695
578.40 0.7445968
578.50 0.7443242
578.60 0.7440518
578.70 0.7437794
578.80 0.7435073
578.90 0.7432353
579.00 0.7429634
579.10 0.7426909
579.20 0.7424106
579.30 0.7421304
579.40 0.7418504
579.50 0.7415706
579.60 0.7412909
579.70 0.7410113
579.80 0.7407319
579.90 0.7404527
580.00 0.7401736
580.10 0.7398905
580.20 0.7396008
580.30 0.7393113
580.40 0.739022
580.50 0.7387328
580.60 0.7384437
580.70 0.7381548
580.80 0.7378661
580.90 0.7375775
581.00 0.7372891
581.10 0.7370009
581.20 0.7367127
581.30 0.7364248
581.40 0.736137
581.50 0.7358493
581.60 0.7355618
581.70 0.7352745
581.80 0.7349873
581.90 0.7347003
582.00 0.7344134
582.10 0.734134
582.20 0.7338665
582.30 0.7335992
582.40 0.733332
582.50 0.733065
582.60 0.7327981
582.70 0.7325313
582.80 0.7322647
582.90 0.7319982
583.00 0.7317319
583.10 0.7314657
583.20 0.7311996
583.30 0.7309337
583.40 0.7306679
583.50 0.7304022
583.60 0.7301294
583.70 0.7298447
583.80 0.7295601
583.90 0.7292757
584.00 0.7289914
584.10 0.7287073
584.20 0.7284233
584.30 0.7281395
584.40 0.7278559
584.50 0.7275724
584.60 0.727289
584.70 0.7270058
584.80 0.7267227
584.90 0.726446
585.00 0.7261977
585.10 0.7259495
585.20 0.7256842
585.30 0.7253908
585.40 0.7250977
585.50 0.7248046
585.60 0.7245118
585.70 0.7242191
585.80 0.7239265
585.90 0.7236342
586.00 0.7233419
586.10 0.7230499
586.20 0.7227751
586.30 0.7225286
586.40 0.7222822
586.50 0.7220359
586.60 0.7217898
586.70 0.7215437
586.80 0.7212764
586.90 0.7209742
587.00 0.7206722
587.10 0.7203703
587.20 0.72009
587.30 0.7198448
587.40 0.7195997
587.50 0.7193548
587.60 0.71911
587.70 0.7186402
587.80 0.7183957
587.90 0.7181513
588.00 0.7179071
588.10 0.717663
588.20 0.717419
588.30 0.7171751
588.40 0.7169171
588.50 0.7166361
588.60 0.7163552
588.70 0.7160745
588.80 0.7157939
588.90 0.7155134
589.00 0.7152388
589.10 0.7149736
589.20 0.7147086
589.30 0.7144436
589.40 0.7141789
589.50 0.7139142
589.60 0.7136497
589.70 0.7133853
589.80 0.7131211
589.90 0.712857
590.00 0.7125905
590.10 0.71232
590.20 0.7120496
590.30 0.7117793
590.40 0.7115092
590.50 0.7112393
590.60 0.7109695
590.70 0.7106998
590.80 0.7104133
590.90 0.7101193
591.00 0.7098254
591.10 0.7095317
591.20 0.7092382
591.30 0.7089448
591.40 0.7086516
591.50 0.7083585
591.60 0.7080747
591.70 0.7078057
591.80 0.707537
591.90 0.7072683
592.00 0.7069998
592.10 0.7067315
592.20 0.7064633
592.30 0.7061952
592.40 0.7059272
592.50 0.7056595
592.60 0.7053918
592.70 0.7051243
592.80 0.7048569
592.90 0.7045897
593.00 0.7043226
593.10 0.7040584
593.20 0.703799
593.30 0.7035397
593.40 0.7032805
593.50 0.7030215
593.60 0.7027626
593.70 0.7025038
593.80 0.7022451
593.90 0.7019866
594.00 0.7017283
594.10 0.70147
594.20 0.7012119
594.30 0.700954
594.40 0.7006961
594.50 0.7004384
594.60 0.7001809
594.70 0.6999234
594.80 0.6996661
594.90 0.699409
595.00 0.6991519
595.10 0.6988875
595.20 0.6986109
595.30 0.6983344
595.40 0.6980581
595.50 0.697782
595.60 0.697506
595.70 0.6972301
595.80 0.6969544
595.90 0.6966788
596.00 0.6964034
596.10 0.6961281
596.20 0.695853
596.30 0.695578
596.40 0.6953032
596.50 0.6950285
596.60 0.6947539
596.70 0.6944906
596.80 0.6942343
596.90 0.6939781
597.00 0.693722
597.10 0.6934661
597.20 0.6932103
597.30 0.6929546
597.40 0.6926991
597.50 0.6924436
597.60 0.6921878
597.70 0.6919312
597.80 0.6916747
597.90 0.6914183
598.00 0.691162
598.10 0.6909059
598.20 0.69065
598.30 0.6903941
598.40 0.6901384
598.50 0.6898828
598.60 0.6896274
598.70 0.6893721
598.80 0.6891169
598.90 0.6888618
599.00 0.6886069
599.10 0.6883521
599.20 0.6880975
599.30 0.687843
599.40 0.687581
599.50 0.6873192
599.60 0.6870575
599.70 0.686796
599.80 0.6865346
599.90 0.6862733
600.00 0.6860122
600.10 0.6857512
600.20 0.6854904
600.30 0.6852296
600.40 0.6849691
600.50 0.6847086
600.60 0.6844483
600.70 0.6841881
600.80 0.6839281
600.90 0.6836682
601.00 0.6834084
601.10 0.6831487
601.20 0.6828892
601.30 0.6826299
601.40 0.6823699
601.50 0.6821101
601.60 0.6818505
601.70 0.6815909
601.80 0.6813316
601.90 0.6810723
602.00 0.6808132
602.10 0.6805542
602.20 0.6802953
602.30 0.6800366
602.40 0.679778
602.50 0.6795196
602.60 0.6792612
602.70 0.67893
602.80 0.678595
602.90 0.6783432
603.00 0.6780915
603.10 0.6778399
603.20 0.6775885
603.30 0.6773372
603.40 0.677086
603.50 0.676835
603.60 0.676584
603.70 0.6763332
603.80 0.6760826
603.90 0.6758321
604.00 0.6755817
604.10 0.6753314
604.20 0.6750812
604.30 0.6748312
604.40 0.6745813
604.50 0.6743156
604.60 0.67405
604.70 0.6737846
604.80 0.6735193
604.90 0.6732541
605.00 0.6729891
605.10 0.6727242
605.20 0.6724595
605.30 0.6721949
605.40 0.6719304
605.50 0.6716732
605.60 0.671416
605.70 0.671159
605.80 0.6709022
605.90 0.6706454
606.00 0.6703889
606.10 0.6701677
606.20 0.6699466
606.30 0.6697256
606.40 0.6695047
606.50 0.6691783
606.60 0.6688521
606.70 0.6686316
606.80 0.6684112
606.90 0.668191
607.00 0.6679708
607.10 0.6676453
607.20 0.66732
607.30 0.6671003
607.40 0.6668806
607.50 0.6666611
607.60 0.6664417
607.70 0.6661873
607.80 0.665933
607.90 0.6656789
608.00 0.6654249
608.10 0.665171
608.20 0.6649173
608.30 0.6646499
608.40 0.6643827
608.50 0.6641157
608.60 0.6638487
608.70 0.6635901
608.80 0.6633353
608.90 0.6630806
609.00 0.662826
609.10 0.6625715
609.20 0.6623172
609.30 0.6620737
609.40 0.6618302
609.50 0.6615869
609.60 0.6613437
609.70 0.6611007
609.80 0.6608577
609.90 0.6606149
610.00 0.6603722
610.10 0.6601297
610.20 0.6598872
610.30 0.6596449
610.40 0.6594027
610.50 0.6591606
610.60 0.6589187
610.70 0.6586768
610.80 0.6584351
610.90 0.6581779
611.00 0.6579209
611.10 0.6576639
611.20 0.6574071
611.30 0.6571504
611.40 0.6568939
611.50 0.6566375
611.60 0.6563812
611.70 0.6561251
611.80 0.6558691
611.90 0.6556132
612.00 0.6553574
612.10 0.6551018
612.20 0.6548464
612.30 0.654591
612.40 0.6543461
612.50 0.6541014
612.60 0.6538568
612.70 0.6536123
612.80 0.653368
612.90 0.6531238
613.00 0.6528797
613.10 0.6526357
613.20 0.6523918
613.30 0.6521481
613.40 0.6519045
613.50 0.651661
613.60 0.6514176
613.70 0.6511744
613.80 0.6509313
613.90 0.6506883
614.00 0.6504454
614.10 0.6502027
614.20 0.6499601
614.30 0.6497176
614.40 0.6494567
614.50 0.649196
614.60 0.6489354
614.70 0.648675
614.80 0.648431
614.90 0.6481905
615.00 0.6479501
615.10 0.6477098
615.20 0.6474697
615.30 0.6472297
615.40 0.6469898
615.50 0.64675
615.60 0.6465104
615.70 0.6462709
615.80 0.6460315
615.90 0.6457922
616.00 0.645553
616.10 0.645314
616.20 0.6450751
616.30 0.6448363
616.40 0.6445976
616.50 0.644359
616.60 0.6441206
616.70 0.6438823
616.80 0.6436441
616.90 0.6433952
617.00 0.6431465
617.10 0.6428979
617.20 0.6426494
617.30 0.6424011
617.40 0.6421528
617.50 0.6419047
617.60 0.6416568
617.70 0.6414089
617.80 0.6411612
617.90 0.6409136
618.00 0.6406661
618.10 0.6404188
618.20 0.6401716
618.30 0.6399245
618.40 0.6396775
618.50 0.6394307
618.60 0.639184
618.70 0.6389374
618.80 0.638691
618.90 0.6384446
619.00 0.6381984
619.10 0.6379524
619.20 0.6377064
619.30 0.6374606
619.40 0.6372149
619.50 0.6369693
619.60 0.6367239
619.70 0.6364785
619.80 0.6362333
619.90 0.6359883
620.00 0.6357433
620.10 0.6354985
620.20 0.6352538
620.30 0.6350092
620.40 0.6347648
620.50 0.6345204
620.60 0.6342762
620.70 0.6340321
620.80 0.6337882
620.90 0.6335458
621.00 0.6333061
621.10 0.6330664
621.20 0.632827
621.30 0.6325876
621.40 0.6323483
621.50 0.6321092
621.60 0.6318702
621.70 0.6316313
621.80 0.6313925
621.90 0.6311539
622.00 0.6309154
622.10 0.630677
622.20 0.6304387
622.30 0.6302005
622.40 0.6299625
622.50 0.6297246
622.60 0.6294868
622.70 0.6292491
622.80 0.6290115
622.90 0.6287741
623.00 0.6285368
623.10 0.6282996
623.20 0.6280625
623.30 0.6278255
623.40 0.6275887
623.50 0.627352
623.60 0.6271154
623.70 0.6268789
623.80 0.6266425
623.90 0.6264063
624.00 0.6261701
624.10 0.6259341
624.20 0.6256982
624.30 0.6254625
624.40 0.6252268
624.50 0.6249913
624.60 0.6247559
624.70 0.6245206
624.80 0.6242854
624.90 0.6240504
625.00 0.6238154
625.10 0.6235806
625.20 0.6233459
625.30 0.6231113
625.40 0.6228769
625.50 0.6226425
625.60 0.6224083
625.70 0.6221742
625.80 0.6219402
625.90 0.6217063
626.00 0.6214726
626.10 0.6212389
626.20 0.6210054
626.30 0.620772
626.40 0.6205387
626.50 0.6203056
626.60 0.6200725
626.70 0.6198396
626.80 0.6196068
626.90 0.6193741
627.00 0.6191415
627.10 0.6189082
627.20 0.6186731
627.30 0.618438
627.40 0.6182031
627.50 0.6179683
627.60 0.6177336
627.70 0.6174991
627.80 0.6172646
627.90 0.6170303
628.00 0.6167961
628.10 0.616562
628.20 0.616328
628.30 0.6160941
628.40 0.6158604
628.50 0.6156267
628.60 0.6153932
628.70 0.6151598
628.80 0.6149266
628.90 0.6146934
629.00 0.6144604
629.10 0.6142275
629.20 0.6139946
629.30 0.613762
629.40 0.6135294
629.50 0.6132969
629.60 0.6130646
629.70 0.6128324
629.80 0.6126003
629.90 0.6123683
630.00 0.6121364
630.10 0.6119047
630.20 0.611673
630.30 0.6114415
630.40 0.6112101
630.50 0.6109788
630.60 0.6107477
630.70 0.6105166
630.80 0.6102857
630.90 0.6100549
631.00 0.6098242
631.10 0.6095936
631.20 0.6093631
631.30 0.6091328
631.40 0.6089025
631.50 0.6086724
631.60 0.6084424
631.70 0.6082125
631.80 0.6079827
631.90 0.6077531
632.00 0.6075235
632.10 0.6072941
632.20 0.6070648
632.30 0.6068356
632.40 0.6066065
632.50 0.6063775
632.60 0.6061486
632.70 0.6059199
632.80 0.6056913
632.90 0.6054627
633.00 0.6052343
633.10 0.605006
633.20 0.6047779
633.30 0.6045498
633.40 0.6043221
633.50 0.6040946
633.60 0.6038672
633.70 0.60364
633.80 0.6034128
633.90 0.6031858
634.00 0.6029589
634.10 0.6027321
634.20 0.6025054
634.30 0.6022788
634.40 0.6020523
634.50 0.601826
634.60 0.6015997
634.70 0.6013736
634.80 0.6011476
634.90 0.6009217
635.00 0.6006959
635.10 0.6004702
635.20 0.6002447
635.30 0.6000192
635.40 0.5997939
635.50 0.5995687
635.60 0.5993436
635.70 0.5991186
635.80 0.5988937
635.90 0.5986689
636.00 0.5984442
636.10 0.5982197
636.20 0.5979952
636.30 0.5977709
636.40 0.5975467
636.50 0.5973226
636.60 0.5970986
636.70 0.5968747
636.80 0.5966509
636.90 0.5964273
637.00 0.5962037
637.10 0.5959803
637.20 0.595757
637.30 0.5955338
637.40 0.5953107
637.50 0.5950877
637.60 0.5948648
637.70 0.594642
637.80 0.5944194
637.90 0.5941968
638.00 0.5939744
638.10 0.5937521
638.20 0.5935299
638.30 0.5933078
638.40 0.5930858
638.50 0.5928639
638.60 0.5926421
638.70 0.5924204
638.80 0.5921989
638.90 0.5919774
639.00 0.5917561
639.10 0.5915349
639.20 0.5913138
639.30 0.5910928
639.40 0.5908719
639.50 0.5906511
639.60 0.5904304
639.70 0.5902085
639.80 0.5899825
639.90 0.5897566
640.00 0.5895308
640.10 0.5893051
640.20 0.5890795
640.30 0.588854
640.40 0.5886286
640.50 0.5884034
640.60 0.5881782
640.70 0.5879532
640.80 0.5877283
640.90 0.5875035
641.00 0.5872788
641.10 0.5870542
641.20 0.5868297
641.30 0.5866054
641.40 0.5863811
641.50 0.586157
641.60 0.585933
641.70 0.5857091
641.80 0.5854853
641.90 0.5852616
642.00 0.585038
642.10 0.5848145
642.20 0.5845912
642.30 0.5843679
642.40 0.5841448
642.50 0.5839217
642.60 0.5836988
642.70 0.583476
642.80 0.5832533
642.90 0.5830321
643.00 0.5828155
643.10 0.582599
643.20 0.5823826
643.30 0.5821664
643.40 0.5819502
643.50 0.5817341
643.60 0.5815181
643.70 0.5813023
643.80 0.5810865
643.90 0.5808708
644.00 0.5806553
644.10 0.5804399
644.20 0.5802245
644.30 0.5800093
644.40 0.5797942
644.50 0.5795791
644.60 0.5793642
644.70 0.5791494
644.80 0.5789347
644.90 0.5787201
645.00 0.5785056
645.10 0.5782913
645.20 0.578077
645.30 0.5778628
645.40 0.5776487
645.50 0.5774348
645.60 0.5772209
645.70 0.5770071
645.80 0.5767935
645.90 0.5765799
646.00 0.5763665
646.10 0.5761518
646.20 0.5759331
646.30 0.5757146
646.40 0.5754961
646.50 0.5752778
646.60 0.5750596
646.70 0.5748415
646.80 0.5746235
646.90 0.5744056
647.00 0.5741878
647.10 0.5739701
647.20 0.5737525
647.30 0.573535
647.40 0.5733177
647.50 0.5731004
647.60 0.5728833
647.70 0.5726662
647.80 0.5724493
647.90 0.5722325
648.00 0.5720157
648.10 0.5717991
648.20 0.5715826
648.30 0.5713662
648.40 0.5711499
648.50 0.5709337
648.60 0.5707176
648.70 0.5705017
648.80 0.5702858
648.90 0.57007
649.00 0.5698544
649.10 0.5696388
649.20 0.5694234
649.30 0.569208
649.40 0.5689928
649.50 0.5687777
649.60 0.5685627
649.70 0.5683478
649.80 0.568133
649.90 0.5679183
650.00 0.5677037
650.10 0.5674892
650.20 0.5672748
650.30 0.5670605
650.40 0.5668463
650.50 0.5666323
650.60 0.5664183
650.70 0.5662045
650.80 0.5659907
650.90 0.5657771
651.00 0.5655635
651.10 0.5653501
651.20 0.5651367
651.30 0.5649235
651.40 0.5647104
651.50 0.5644974
651.60 0.5642844
651.70 0.5640716
651.80 0.5638589
651.90 0.5636463
652.00 0.5634338
652.10 0.5632214
652.20 0.5630091
652.30 0.5627969
652.40 0.5625848
652.50 0.5623728
652.60 0.5621642
652.70 0.5619573
652.80 0.5617506
652.90 0.561544
653.00 0.5613374
653.10 0.561131
653.20 0.5609247
653.30 0.5607184
653.40 0.5605123
653.50 0.5603063
653.60 0.5601003
653.70 0.5598945
653.80 0.5596887
653.90 0.5594831
654.00 0.5592776
654.10 0.5590721
654.20 0.5588668
654.30 0.5586616
654.40 0.5584564
654.50 0.5582514
654.60 0.5580464
654.70 0.5578416
654.80 0.5576369
654.90 0.5574322
655.00 0.5572277
655.10 0.5570232
655.20 0.5568189
655.30 0.5566146
655.40 0.5564105
655.50 0.5562064
655.60 0.5560025
655.70 0.5557986
655.80 0.5555839
655.90 0.5553694
656.00 0.5551549
656.10 0.5549405
656.20 0.5547263
656.30 0.5545121
656.40 0.5542981
656.50 0.5540841
656.60 0.5538703
656.70 0.5536566
656.80 0.5534429
656.90 0.5532294
657.00 0.553016
657.10 0.5528027
657.20 0.5525895
657.30 0.5523764
657.40 0.5521634
657.50 0.5519505
657.60 0.5517377
657.70 0.551525
657.80 0.5513573
657.90 0.5511529
658.00 0.5509421
658.10 0.5507315
658.20 0.5505209
658.30 0.5503104
658.40 0.5501001
658.50 0.5498898
658.60 0.5496796
658.70 0.5494696
658.80 0.5492596
658.90 0.5490498
659.00 0.54884
659.10 0.5486476
659.20 0.5484812
659.30 0.5482667
659.40 0.5480523
659.50 0.547838
659.60 0.5476238
659.70 0.5474098
659.80 0.5471958
659.90 0.546982
660.00 0.5467682
660.10 0.5465545
660.20 0.546341
660.30 0.5461276
660.40 0.5459237
660.50 0.5457217
660.60 0.5455198
660.70 0.5453179
660.80 0.5451162
660.90 0.5449157
661.00 0.5447152
661.10 0.5445149
661.20 0.5443146
661.30 0.5441144
661.40 0.5439144
661.50 0.5437144
661.60 0.5435145
661.70 0.5433148
661.80 0.5431151
661.90 0.5429165
662.00 0.5427181
662.10 0.5425197
662.20 0.5423215
662.30 0.5421233
662.40 0.5419545
662.50 0.5417466
662.60 0.5415388
662.70 0.5413311
662.80 0.5411236
662.90 0.5409603
663.00 0.5407971
663.10 0.5404573
663.20 0.5402943
663.30 0.5401314
663.40 0.5399686
663.50 0.5397175
663.60 0.5394666
663.70 0.5393041
663.80 0.5391416
663.90 0.5388981
664.00 0.5386405
664.10 0.5384489
664.20 0.5382575
664.30 0.5380661
664.40 0.5378747
664.50 0.5376835
664.60 0.5374924
664.70 0.5372875
664.80 0.5370827
664.90 0.536878
665.00 0.5366734
665.10 0.5364689
665.20 0.5362645
665.30 0.5360603
665.40 0.5358561
665.50 0.5356886
665.60 0.5355276
665.70 0.5353442
665.80 0.5351375
665.90 0.5349309
666.00 0.5347244
666.10 0.534518
666.20 0.5343117
666.30 0.5341055
666.40 0.5338994
666.50 0.5337075
666.60 0.5335183
666.70 0.5333291
666.80 0.53314
666.90 0.532951
667.00 0.5327621
667.10 0.5325177
667.20 0.5322637
667.30 0.5321042
667.40 0.5319447
667.50 0.5317112
667.60 0.5314647
667.70 0.5312925
667.80 0.5311334
667.90 0.5309743
668.00 0.5306412
668.10 0.5304823
668.20 0.5303236
668.30 0.5301279
668.40 0.5299258
668.50 0.5297238
668.60 0.5295218
668.70 0.5293569
668.80 0.5291649
668.90 0.528973
669.00 0.5287811
669.10 0.5285894
669.20 0.5283977
669.30 0.5281905
669.40 0.5279807
669.50 0.5277709
669.60 0.5275613
669.70 0.5273517
669.80 0.5271423
669.90 0.526933
670.00 0.5267237
670.10 0.5265146
670.20 0.5263056
670.30 0.5261104
670.40 0.5259178
670.50 0.5257253
670.60 0.5255329
670.70 0.5253406
670.80 0.525153
670.90 0.5249654
671.00 0.524778
671.10 0.5245907
671.20 0.5244034
671.30 0.5242163
671.40 0.5240292
671.50 0.5238422
671.60 0.5236553
671.70 0.5234685
671.80 0.5232817
671.90 0.5230916
672.00 0.522901
672.10 0.5227104
672.20 0.5225199
672.30 0.5223295
672.40 0.5221359
672.50 0.5219421
672.60 0.5217485
672.70 0.5215549
672.80 0.5213614
672.90 0.521168
673.00 0.5209747
673.10 0.5207815
673.20 0.5205884
673.30 0.5202846
673.40 0.5200786
673.50 0.5198899
673.60 0.5197013
673.70 0.5195128
673.80 0.5193243
673.90 0.519136
674.00 0.5189477
674.10 0.5187595
674.20 0.5185715
674.30 0.5183835
674.40 0.5181956
674.50 0.5180077
674.60 0.51782
674.70 0.5176324
674.80 0.5174448
674.90 0.5172574
675.00 0.51707
675.10 0.5168827
675.20 0.5166955
675.30 0.5165084
675.40 0.5163156
675.50 0.5161219
675.60 0.5159282
675.70 0.5157346
675.80 0.5155412
675.90 0.5153478
676.00 0.5151545
676.10 0.5149613
676.20 0.5147682
676.30 0.5145752
676.40 0.5143823
676.50 0.5141895
676.60 0.5139967
676.70 0.5138041
676.80 0.5136115
676.90 0.5134191
677.00 0.5132267
677.10 0.5130344
677.20 0.5128422
677.30 0.5126501
677.40 0.5124581
677.50 0.5122662
677.60 0.5120744
677.70 0.5118827
677.80 0.511691
677.90 0.5114985
678.00 0.5113058
678.10 0.5111133
678.20 0.5109209
678.30 0.5107285
678.40 0.5105362
678.50 0.5103441
678.60 0.510152
678.70 0.50996
678.80 0.5097681
678.90 0.5095763
679.00 0.5093846
679.10 0.5091943
679.20 0.5090046
679.30 0.5088151
679.40 0.5086256
679.50 0.5084363
679.60 0.508247
679.70 0.5080578
679.80 0.5078687
679.90 0.5076797
680.00 0.5074908
680.10 0.5073019
680.20 0.5071132
680.30 0.5069245
680.40 0.506736
680.50 0.5065475
680.60 0.5063591
680.70 0.5061708
680.80 0.5059826
680.90 0.5057945
681.00 0.5056065
681.10 0.5054185
681.20 0.5052307
681.30 0.5050429
681.40 0.5048552
681.50 0.5046676
681.60 0.5044801
681.70 0.5042927
681.80 0.5041054
681.90 0.5039181
682.00 0.503731
682.10 0.5035439
682.20 0.503357
682.30 0.5031701
682.40 0.5029833
682.50 0.5027966
682.60 0.50261
682.70 0.5024234
682.80 0.502237
682.90 0.5020506
683.00 0.5018644
683.10 0.5016782
683.20 0.5014921
683.30 0.5013061
683.40 0.5011201
683.50 0.5009343
683.60 0.5007486
683.70 0.5005629
683.80 0.5003773
683.90 0.5001919
684.00 0.5000065
684.10 0.4998211
684.20 0.4996359
684.30 0.4994508
684.40 0.4992657
684.50 0.4990808
684.60 0.4988959
684.70 0.4987111
684.80 0.4985264
684.90 0.4983418
685.00 0.4981573
685.10 0.4979728
685.20 0.4977885
685.30 0.4976042
685.40 0.49742
685.50 0.4972359
685.60 0.4970519
685.70 0.496868
685.80 0.4966841
685.90 0.4965007
686.00 0.4963174
686.10 0.4961342
686.20 0.4959511
686.30 0.4957681
686.40 0.4955852
686.50 0.4954023
686.60 0.4952196
686.70 0.4950369
686.80 0.4948543
686.90 0.4946718
687.00 0.4944894
687.10 0.4943071
687.20 0.4941248
687.30 0.4939426
687.40 0.4937606
687.50 0.4935786
687.60 0.4933967
687.70 0.4932148
687.80 0.4930331
687.90 0.4928514
688.00 0.4926699
688.10 0.4924884
688.20 0.492307
688.30 0.4921257
688.40 0.4919444
688.50 0.4917633
688.60 0.4915822
688.70 0.4914012
688.80 0.4912204
688.90 0.4910395
689.00 0.4908588
689.10 0.4906782
689.20 0.4904976
689.30 0.4903171
689.40 0.4901368
689.50 0.4899565
689.60 0.4897762
689.70 0.4895961
689.80 0.489416
689.90 0.4892361
690.00 0.4890562
690.10 0.4888764
690.20 0.4886967
690.30 0.488517
690.40 0.4883375
690.50 0.488158
690.60 0.4879786
690.70 0.4877993
690.80 0.4876201
690.90 0.487441
691.00 0.4872619
691.10 0.487083
691.20 0.4869041
691.30 0.4867253
691.40 0.4865466
691.50 0.4863679
691.60 0.4861894
691.70 0.4860109
691.80 0.4858325
691.90 0.4856542
692.00 0.485476
692.10 0.4852979
692.20 0.4851198
692.30 0.4849418
692.40 0.484764
692.50 0.4845861
692.60 0.4844084
692.70 0.4842299
692.80 0.4840479
692.90 0.483866
693.00 0.4836842
693.10 0.4835025
693.20 0.4833209
693.30 0.4831394
693.40 0.4829579
693.50 0.4827766
693.60 0.4825953
693.70 0.4824141
693.80 0.482233
693.90 0.482052
694.00 0.481871
694.10 0.4816902
694.20 0.4815094
694.30 0.4813287
694.40 0.4811481
694.50 0.4809676
694.60 0.4807871
694.70 0.4806068
694.80 0.4804265
694.90 0.4802463
695.00 0.4800662
695.10 0.4798862
695.20 0.4797063
695.30 0.4795264
695.40 0.4793467
695.50 0.479167
695.60 0.4789874
695.70 0.4788079
695.80 0.4786284
695.90 0.4784491
696.00 0.4782698
696.10 0.4780906
696.20 0.4779115
696.30 0.4777325
696.40 0.4775536
696.50 0.4773747
696.60 0.4771986
696.70 0.4770232
696.80 0.4768479
696.90 0.4766726
697.00 0.4764975
697.10 0.4763224
697.20 0.4761474
697.30 0.4759724
697.40 0.4757976
697.50 0.4756228
697.60 0.4754481
697.70 0.4752735
697.80 0.475099
697.90 0.4749245
698.00 0.4747502
698.10 0.4745759
698.20 0.4744017
698.30 0.4742276
698.40 0.4740535
698.50 0.4738796
698.60 0.4737057
698.70 0.4735319
698.80 0.4733581
698.90 0.4731845
699.00 0.4730109
699.10 0.4728464
699.20 0.472684
699.30 0.4725217
699.40 0.4723595
699.50 0.4721973
699.60 0.4720352
699.70 0.4718563
699.80 0.4716765
699.90 0.4714969
700.00 0.4713173
700.10 0.4711378
700.20 0.4709584
700.30 0.4707791
700.40 0.4705998
700.50 0.4704206
700.60 0.4702416
700.70 0.4700626
700.80 0.4698836
700.90 0.4697048
701.00 0.4695261
701.10 0.469358
701.20 0.4691925
701.30 0.4690271
701.40 0.4688618
701.50 0.4686965
701.60 0.4685313
701.70 0.4683662
701.80 0.4682012
701.90 0.4680362
702.00 0.4678714
702.10 0.4677065
702.20 0.4675418
702.30 0.4673772
702.40 0.4672126
702.50 0.4670481
702.60 0.4668773
702.70 0.466705
702.80 0.4665329
702.90 0.4663608
703.00 0.4661888
703.10 0.4660169
703.20 0.4658451
703.30 0.4656733
703.40 0.4655016
703.50 0.46533
703.60 0.4651585
703.70 0.4649871
703.80 0.4648157
703.90 0.4646444
704.00 0.4644732
704.10 0.4643021
704.20 0.4641247
704.30 0.4639459
704.40 0.4637672
704.50 0.4635886
704.60 0.46341
704.70 0.4632315
704.80 0.4630531
704.90 0.4628748
705.00 0.4626966
705.10 0.4625185
705.20 0.4623573
705.30 0.4622001
705.40 0.4620431
705.50 0.4618861
705.60 0.4617291
705.70 0.4615723
705.80 0.4614049
705.90 0.4612352
706.00 0.4610656
706.10 0.460896
706.20 0.460695
706.30 0.4604866
706.40 0.4603414
706.50 0.4602111
706.60 0.460077
706.70 0.459795
706.80 0.4596649
706.90 0.4595349
707.00 0.4593734
707.10 0.4592046
707.20 0.4590359
707.30 0.4588673
707.40 0.4586882
707.50 0.4585068
707.60 0.4583255
707.70 0.4581442
707.80 0.457963
707.90 0.457782
708.00 0.4576177
708.10 0.4574575
708.20 0.4572973
708.30 0.4571372
708.40 0.4569771
708.50 0.4568172
708.60 0.4566573
708.70 0.4564975
708.80 0.4563377
708.90 0.4561781
709.00 0.4560122
709.10 0.4558449
709.20 0.4556777
709.30 0.4555106
709.40 0.4553436
709.50 0.4551767
709.60 0.4550098
709.70 0.454843
709.80 0.4546763
709.90 0.4545096
710.00 0.454343
710.10 0.4541765
710.20 0.4540101
710.30 0.4538438
710.40 0.4536775
710.50 0.4535113
710.60 0.4533431
710.70 0.4531745
710.80 0.453006
710.90 0.4528375
711.00 0.4526691
711.10 0.4525008
711.20 0.4523326
711.30 0.4521644
711.40 0.4519964
711.50 0.4518284
711.60 0.4516605
711.70 0.4514926
711.80 0.4513249
711.90 0.4511572
712.00 0.4509896
712.10 0.450825
712.20 0.4506612
712.30 0.4504975
712.40 0.4503338
712.50 0.4501703
712.60 0.4500068
712.70 0.4498434
712.80 0.44968
712.90 0.4495168
713.00 0.4493536
713.10 0.4491904
713.20 0.4490274
713.30 0.4488644
713.40 0.4487015
713.50 0.4485387
713.60 0.4483759
713.70 0.4482112
713.80 0.4480422
713.90 0.4478734
714.00 0.4477046
714.10 0.4475414
714.20 0.4473795
714.30 0.4472177
714.40 0.4470559
714.50 0.4468942
714.60 0.4467326
714.70 0.4465711
714.80 0.4464097
714.90 0.4462483
715.00 0.446087
715.10 0.4459257
715.20 0.4457646
715.30 0.4456035
715.40 0.4454425
715.50 0.4452815
715.60 0.4451206
715.70 0.4449598
715.80 0.4447991
715.90 0.4446384
716.00 0.4444779
716.10 0.4443173
716.20 0.4441569
716.30 0.4439965
716.40 0.4438362
716.50 0.443676
716.60 0.4435149
716.70 0.4433537
716.80 0.4431926
716.90 0.4430315
717.00 0.4428705
717.10 0.4427096
717.20 0.4425487
717.30 0.442388
717.40 0.4422272
717.50 0.4420666
717.60 0.441906
717.70 0.4417456
717.80 0.4415851
717.90 0.4414248
718.00 0.4412645
718.10 0.4411043
718.20 0.440941
718.30 0.440776
718.40 0.4406112
718.50 0.4404464
718.60 0.4402816
718.70 0.440117
718.80 0.4399524
718.90 0.4397879
719.00 0.4396235
719.10 0.4394591
719.20 0.4392948
719.30 0.4391306
719.40 0.4389665
719.50 0.4388024
719.60 0.4386385
719.70 0.4384746
719.80 0.4383107
719.90 0.438147
720.00 0.4379833
720.10 0.4378197
720.20 0.4376561
720.30 0.4374927
720.40 0.4373293
720.50 0.437166
720.60 0.4370027
720.70 0.4368668
720.80 0.4367456
720.90 0.4365852
721.00 0.4364233
721.10 0.4362614
721.20 0.4360996
721.30 0.4359379
721.40 0.4357763
721.50 0.4356147
721.60 0.4354532
721.70 0.4352918
721.80 0.4351304
721.90 0.4349692
722.00 0.434808
722.10 0.4346468
722.20 0.4344858
722.30 0.4343248
722.40 0.4341639
722.50 0.434003
722.60 0.4338423
722.70 0.4336822
722.80 0.4335225
722.90 0.4333629
723.00 0.4332034
723.10 0.4330439
723.20 0.4328845
723.30 0.4327252
723.40 0.432566
723.50 0.4324068
723.60 0.4322477
723.70 0.4320887
723.80 0.4319297
723.90 0.4317709
724.00 0.431612
724.10 0.4314533
724.20 0.4312962
724.30 0.4311401
724.40 0.430984
724.50 0.4308281
724.60 0.4306721
724.70 0.4305163
724.80 0.4303605
724.90 0.4302048
725.00 0.4300491
725.10 0.4298936
725.20 0.4297381
725.30 0.4295826
725.40 0.4294273
725.50 0.429272
725.60 0.4291167
725.70 0.4289616
725.80 0.4288113
725.90 0.4286637
726.00 0.4285161
726.10 0.4283686
726.20 0.4282211
726.30 0.4280737
726.40 0.4279264
726.50 0.4277792
726.60 0.427632
726.70 0.4274849
726.80 0.427325
726.90 0.4271584
727.00 0.4269919
727.10 0.4268254
727.20 0.4266591
727.30 0.4264928
727.40 0.4263345
727.50 0.4261806
727.60 0.4260267
727.70 0.4258729
727.80 0.4257431
727.90 0.4256261
728.00 0.4253625
728.10 0.4252457
728.20 0.4251289
728.30 0.4250122
728.40 0.4248478
728.50 0.424658
728.60 0.424492
728.70 0.4243389
728.80 0.4241859
728.90 0.4240329
729.00 0.4238721
729.10 0.4237071
729.20 0.4235421
729.30 0.4233773
729.40 0.4232125
729.50 0.4230478
729.60 0.4228958
729.70 0.4227507
729.80 0.4226057
729.90 0.4224607
730.00 0.4223158
730.10 0.4221709
730.20 0.4220262
730.30 0.4218814
730.40 0.4217368
730.50 0.4215922
730.60 0.4214429
730.70 0.4212912
730.80 0.4211395
730.90 0.4209879
731.00 0.4208364
731.10 0.4206849
731.20 0.4205335
731.30 0.4203821
731.40 0.4202309
731.50 0.4200797
731.60 0.4199285
731.70 0.4197774
731.80 0.4196264
731.90 0.4194755
732.00 0.4193246
732.10 0.4191738
732.20 0.4190215
732.30 0.4188684
732.40 0.4187154
732.50 0.4185624
732.60 0.4184096
732.70 0.4182567
732.80 0.418104
732.90 0.4179513
733.00 0.4177987
733.10 0.4176462
733.20 0.4174937
733.30 0.4173413
733.40 0.4171889
733.50 0.4170367
733.60 0.4168844
733.70 0.4167347
733.80 0.4165863
733.90 0.4164379
734.00 0.4162896
734.10 0.4161414
734.20 0.4159932
734.30 0.4158451
734.40 0.4156971
734.50 0.4155491
734.60 0.4154012
734.70 0.4152534
734.80 0.4151056
734.90 0.4149579
735.00 0.4148102
735.10 0.4146627
735.20 0.4145152
735.30 0.4143671
735.40 0.4142125
735.50 0.414058
735.60 0.4139036
735.70 0.4137503
735.80 0.4135976
735.90 0.413445
736.00 0.4132925
736.10 0.41314
736.20 0.4129876
736.30 0.4128353
736.40 0.4126831
736.50 0.4125309
736.60 0.4123788
736.70 0.4122267
736.80 0.4120747
736.90 0.4119228
737.00 0.411771
737.10 0.4116192
737.20 0.4114675
737.30 0.4113158
737.40 0.4111642
737.50 0.4110127
737.60 0.4108613
737.70 0.4107099
737.80 0.4105586
737.90 0.4104074
738.00 0.4102562
738.10 0.4101051
738.20 0.4099553
738.30 0.4098063
738.40 0.4096574
738.50 0.4095085
738.60 0.4093597
738.70 0.409211
738.80 0.4090623
738.90 0.4089137
739.00 0.4087652
739.10 0.4086167
739.20 0.4084683
739.30 0.40832
739.40 0.4081717
739.50 0.4080235
739.60 0.4078754
739.70 0.4077273
739.80 0.4075793
739.90 0.4074313
740.00 0.4072835
740.10 0.4071357
740.20 0.4069879
740.30 0.4068402
740.40 0.4066926
740.50 0.406545
740.60 0.4063975
740.70 0.4062501
740.80 0.4061028
740.90 0.4059555
741.00 0.4058082
741.10 0.4056611
741.20 0.405514
741.30 0.4053669
741.40 0.40522
741.50 0.405073
741.60 0.4049262
741.70 0.4047794
741.80 0.4046327
741.90 0.4044861
742.00 0.4043395
742.10 0.4041929
742.20 0.4040465
742.30 0.4039001
742.40 0.4037538
742.50 0.4036075
742.60 0.4034613
742.70 0.4033208
742.80 0.403185
742.90 0.4030492
743.00 0.4029135
743.10 0.4027779
743.20 0.4026423
743.30 0.4025068
743.40 0.4023713
743.50 0.4022359
743.60 0.4021006
743.70 0.4019633
743.80 0.4018178
743.90 0.4016724
744.00 0.4015271
744.10 0.4013819
744.20 0.4012367
744.30 0.4010915
744.40 0.4009465
744.50 0.4008015
744.60 0.4006565
744.70 0.4005117
744.80 0.4003668
744.90 0.4002221
745.00 0.4000774
745.10 0.3999328
745.20 0.3997882
745.30 0.3996437
745.40 0.3994993
745.50 0.3993549
745.60 0.3992106
745.70 0.3990664
745.80 0.3989222
745.90 0.3987781
746.00 0.398634
746.10 0.39849
746.20 0.3983461
746.30 0.3982023
746.40 0.3980585
746.50 0.3979147
746.60 0.397771
746.70 0.3976274
746.80 0.3974839
746.90 0.3973404
747.00 0.397197
747.10 0.3970536
747.20 0.3969103
747.30 0.3967671
747.40 0.3966239
747.50 0.3964808
747.60 0.3963377
747.70 0.3961947
747.80 0.3960518
747.90 0.3959089
748.00 0.3957661
748.10 0.3956234
748.20 0.3954807
748.30 0.3953381
748.40 0.3951955
748.50 0.395053
748.60 0.3949106
748.70 0.3947682
748.80 0.3946259
748.90 0.3944837
749.00 0.3943415
749.10 0.3941994
749.20 0.3940573
749.30 0.3939153
749.40 0.3937734
749.50 0.3936315
749.60 0.3934897
749.70 0.393348
749.80 0.3932063
749.90 0.3930647
750.00 0.3929231
750.10 0.3927816
750.20 0.39264
750.30 0.3924985
750.40 0.3923571
750.50 0.3922158
750.60 0.3920745
750.70 0.3919332
750.80 0.3917921
750.90 0.391651
751.00 0.3915099
751.10 0.3913689
751.20 0.391228
751.30 0.3910871
751.40 0.3909463
751.50 0.3908056
751.60 0.3906649
751.70 0.3905243
751.80 0.3903837
751.90 0.3902432
752.00 0.3901028
752.10 0.3899624
752.20 0.3898221
752.30 0.3896818
752.40 0.3895416
752.50 0.3894015
752.60 0.3892614
752.70 0.3891214
752.80 0.3889815
752.90 0.3888416
753.00 0.3887017
753.10 0.388562
753.20 0.3884223
753.30 0.3882826
753.40 0.388143
753.50 0.3880035
753.60 0.387864
753.70 0.3877246
753.80 0.3875853
753.90 0.387446
754.00 0.3873068
754.10 0.3871676
754.20 0.3870285
754.30 0.3868894
754.40 0.3867505
754.50 0.3866115
754.60 0.3864727
754.70 0.3863339
754.80 0.3861951
754.90 0.3860564
755.00 0.3859178
755.10 0.3857792
755.20 0.3856407
755.30 0.3855023
755.40 0.3853639
755.50 0.3852256
755.60 0.3850873
755.70 0.3849491
755.80 0.3848109
755.90 0.3846729
756.00 0.3845348
756.10 0.3843969
756.20 0.3842589
756.30 0.3841211
756.40 0.3839833
756.50 0.3838456
756.60 0.3837079
756.70 0.3835703
756.80 0.3834327
756.90 0.3832952
757.00 0.3831578
757.10 0.3830204
757.20 0.3828831
757.30 0.3827459
757.40 0.3826087
757.50 0.3824715
757.60 0.3823345
757.70 0.3821979
757.80 0.3820613
757.90 0.3819247
758.00 0.3817883
758.10 0.3816518
758.20 0.3815155
758.30 0.3813792
758.40 0.3812429
758.50 0.3811067
758.60 0.3809706
758.70 0.3808345
758.80 0.3806985
758.90 0.3805626
759.00 0.3804267
759.10 0.3802908
759.20 0.3801551
759.30 0.3800193
759.40 0.3798837
759.50 0.3797481
759.60 0.3796125
759.70 0.379477
759.80 0.3793416
759.90 0.3792062
760.00 0.3790709
760.10 0.3789357
760.20 0.3788005
760.30 0.3786653
760.40 0.3785302
760.50 0.3783952
760.60 0.3782602
760.70 0.3781253
760.80 0.3779905
760.90 0.3778557
761.00 0.377721
761.10 0.3775863
761.20 0.3774517
761.30 0.3773171
761.40 0.3771826
761.50 0.3770482
761.60 0.3769138
761.70 0.3767794
761.80 0.3766452
761.90 0.3765109
762.00 0.3763768
762.10 0.3762427
762.20 0.3761086
762.30 0.3759747
762.40 0.3758407
762.50 0.3757069
762.60 0.375573
762.70 0.3754393
762.80 0.3753056
762.90 0.3751719
763.00 0.3750384
763.10 0.3749048
763.20 0.3747714
763.30 0.3746379
763.40 0.3745046
763.50 0.3743713
763.60 0.374238
763.70 0.3741049
763.80 0.3739717
763.90 0.3738387
764.00 0.3737056
764.10 0.3735727
764.20 0.3734398
764.30 0.3733069
764.40 0.3731742
764.50 0.3730414
764.60 0.3729087
764.70 0.3727761
764.80 0.3726436
764.90 0.3725111
765.00 0.3723786
765.10 0.3722462
765.20 0.3721141
765.30 0.3719821
765.40 0.3718503
765.50 0.3717184
765.60 0.3715867
765.70 0.371455
765.80 0.3713233
765.90 0.3711917
766.00 0.3710602
766.10 0.3709287
766.20 0.3707973
766.30 0.3706659
766.40 0.3705346
766.50 0.3704033
766.60 0.3702721
766.70 0.370141
766.80 0.3700099
766.90 0.3698789
767.00 0.3697479
767.10 0.369617
767.20 0.3694861
767.30 0.3693553
767.40 0.3692245
767.50 0.3690938
767.60 0.3689632
767.70 0.3688326
767.80 0.3687021
767.90 0.3685716
768.00 0.3684412
768.10 0.3683108
768.20 0.3681805
768.30 0.3680502
768.40 0.36792
768.50 0.3677899
768.60 0.3676598
768.70 0.3675297
768.80 0.3673998
768.90 0.3672698
769.00 0.36714
769.10 0.3670101
769.20 0.3668804
769.30 0.3667507
769.40 0.366621
769.50 0.3664914
769.60 0.3663619
769.70 0.3662324
769.80 0.366103
769.90 0.3659736
770.00 0.3658443
770.10 0.365715
770.20 0.3655858
770.30 0.3654567
770.40 0.3653275
770.50 0.3651985
770.60 0.3650695
770.70 0.3649406
770.80 0.3648117
770.90 0.3646829
771.00 0.3645541
771.10 0.3644254
771.20 0.3642967
771.30 0.3641681
771.40 0.3640395
771.50 0.363911
771.60 0.3637826
771.70 0.3636542
771.80 0.3635259
771.90 0.3633976
772.00 0.3632693
772.10 0.3631412
772.20 0.363013
772.30 0.362885
772.40 0.362757
772.50 0.362629
772.60 0.3625011
772.70 0.3623733
772.80 0.3622455
772.90 0.3621164
773.00 0.3619873
773.10 0.3618583
773.20 0.3617294
773.30 0.3616005
773.40 0.3614717
773.50 0.361343
773.60 0.3612143
773.70 0.3610856
773.80 0.360957
773.90 0.3608284
774.00 0.3607
774.10 0.3605715
774.20 0.3604431
774.30 0.3603148
774.40 0.3601865
774.50 0.3600583
774.60 0.3599301
774.70 0.359802
774.80 0.359674
774.90 0.359546
775.00 0.359418
775.10 0.3592901
775.20 0.3591623
775.30 0.3590345
775.40 0.3589068
775.50 0.3587791
775.60 0.3586515
775.70 0.3585239
775.80 0.3583964
775.90 0.3582689
776.00 0.3581415
776.10 0.3580141
776.20 0.3578868
776.30 0.3577596
776.40 0.3576324
776.50 0.3575052
776.60 0.3573781
776.70 0.3572511
776.80 0.3571241
776.90 0.3569972
777.00 0.3568703
777.10 0.3567435
777.20 0.3566167
777.30 0.35649
777.40 0.3563634
777.50 0.3562368
777.60 0.3561102
777.70 0.3559837
777.80 0.3558573
777.90 0.3557309
778.00 0.3556045
778.10 0.3554782
778.20 0.355352
778.30 0.3552258
778.40 0.3550997
778.50 0.3549736
778.60 0.3548476
778.70 0.3547216
778.80 0.3545957
778.90 0.3544698
779.00 0.354344
779.10 0.3542183
779.20 0.3540926
779.30 0.3539669
779.40 0.3538413
779.50 0.3537158
779.60 0.3535903
779.70 0.3534648
779.80 0.3533395
779.90 0.3532141
780.00 0.3530888
780.10 0.3529636
780.20 0.3528384
780.30 0.3527133
780.40 0.3525882
780.50 0.3524632
780.60 0.3523382
780.70 0.3522132
780.80 0.3520883
780.90 0.3519635
781.00 0.3518387
781.10 0.3517139
781.20 0.3515892
781.30 0.3514645
781.40 0.3513399
781.50 0.3512154
781.60 0.3510909
781.70 0.3509665
781.80 0.3508421
781.90 0.3507177
782.00 0.3505934
782.10 0.3504692
782.20 0.350345
782.30 0.3502209
782.40 0.3500968
782.50 0.3499728
782.60 0.3498488
782.70 0.3497249
782.80 0.349601
782.90 0.3494772
783.00 0.3493534
783.10 0.3492297
783.20 0.3491061
783.30 0.3489825
783.40 0.3488589
783.50 0.3487354
783.60 0.3486119
783.70 0.3484885
783.80 0.3483652
783.90 0.3482419
784.00 0.3481186
784.10 0.3479954
784.20 0.3478723
784.30 0.3477492
784.40 0.3476261
784.50 0.3475031
784.60 0.3473804
784.70 0.3472584
784.80 0.3471363
784.90 0.3470144
785.00 0.3468924
785.10 0.3467705
785.20 0.3466487
785.30 0.3465269
785.40 0.3464052
785.50 0.3462835
785.60 0.3461619
785.70 0.3460403
785.80 0.3459188
785.90 0.3457973
786.00 0.3456759
786.10 0.3455546
786.20 0.3454332
786.30 0.345312
786.40 0.3451907
786.50 0.3450696
786.60 0.3449485
786.70 0.3448274
786.80 0.3447064
786.90 0.3445854
787.00 0.3444645
787.10 0.3443436
787.20 0.3442228
787.30 0.344102
787.40 0.3439813
787.50 0.3438606
787.60 0.34374
787.70 0.3436195
787.80 0.343499
787.90 0.3433785
788.00 0.3432581
788.10 0.3431377
788.20 0.3430174
788.30 0.3428971
788.40 0.3427779
788.50 0.3426593
788.60 0.3425407
788.70 0.3424221
788.80 0.3423036
788.90 0.3421851
789.00 0.3420667
789.10 0.3419484
789.20 0.34183
789.30 0.3417118
789.40 0.3415936
789.50 0.3414754
789.60 0.3413573
789.70 0.3412392
789.80 0.3411212
789.90 0.3410032
790.00 0.3408853
790.10 0.3407674
790.20 0.3406496
790.30 0.3405318
790.40 0.3404141
790.50 0.3402964
790.60 0.3401788
790.70 0.3400612
790.80 0.3399437
790.90 0.3398262
791.00 0.3397088
791.10 0.3395914
791.20 0.339474
791.30 0.3393567
791.40 0.3392395
791.50 0.3391223
791.60 0.3390052
791.70 0.3388881
791.80 0.338771
791.90 0.338654
792.00 0.3385371
792.10 0.3384202
792.20 0.3383033
792.30 0.3381857
792.40 0.3380658
792.50 0.337946
792.60 0.3378261
792.70 0.3377064
792.80 0.3375867
792.90 0.337467
793.00 0.3373474
793.10 0.3372278
793.20 0.3371083
793.30 0.3369889
793.40 0.3368695
793.50 0.3367501
793.60 0.3366308
793.70 0.3365115
793.80 0.3363923
793.90 0.3362731
794.00 0.336154
794.10 0.336035
794.20 0.3359159
794.30 0.335797
794.40 0.3356781
794.50 0.3355592
794.60 0.3354404
794.70 0.3353216
794.80 0.3352029
794.90 0.3350842
795.00 0.3349656
795.10 0.334847
795.20 0.3347285
795.30 0.33461
795.40 0.3344916
795.50 0.3343732
795.60 0.3342549
795.70 0.3341366
795.80 0.3340184
795.90 0.3339002
796.00 0.3337821
796.10 0.333664
796.20 0.3335459
796.30 0.3334295
796.40 0.3333135
796.50 0.3331975
796.60 0.3330815
796.70 0.3329656
796.80 0.3328497
796.90 0.3327339
797.00 0.3326181
797.10 0.3325024
797.20 0.3323868
797.30 0.3322711
797.40 0.3321555
797.50 0.33204
797.60 0.3319245
797.70 0.3318091
797.80 0.3316937
797.90 0.3315784
798.00 0.3314631
798.10 0.3313478
798.20 0.3312326
798.30 0.3311175
798.40 0.3310024
798.50 0.3308873
798.60 0.3307723
798.70 0.3306573
798.80 0.3305424
798.90 0.3304276
799.00 0.3303127
799.10 0.330198
799.20 0.3300832
799.30 0.3299685
799.40 0.3298539
799.50 0.3297393
799.60 0.3296248
799.70 0.3295103
799.80 0.3293959
799.90 0.3292815
800.00 0.3291671
800.10 0.3290528
800.20 0.3289385
800.30 0.3288243
800.40 0.3287102
800.50 0.328596
800.60 0.328482
800.70 0.328368
800.80 0.328254
800.90 0.32814
801.00 0.3280262
801.10 0.3279123
801.20 0.3277985
801.30 0.3276848
801.40 0.3275711
801.50 0.3274574
801.60 0.3273438
801.70 0.3272303
801.80 0.3271168
801.90 0.3270033
802.00 0.3268899
802.10 0.3267765
802.20 0.3266632
802.30 0.3265499
802.40 0.3264367
802.50 0.3263235
802.60 0.3262103
802.70 0.3260973
802.80 0.3259842
802.90 0.3258712
803.00 0.3257582
803.10 0.3256453
803.20 0.3255325
803.30 0.3254197
803.40 0.3253069
803.50 0.3251942
803.60 0.3250815
803.70 0.3249689
803.80 0.3248563
803.90 0.3247437
804.00 0.3246312
804.10 0.3245188
804.20 0.3244061
804.30 0.3242926
804.40 0.3241791
804.50 0.3240656
804.60 0.3239522
804.70 0.3238389
804.80 0.3237256
804.90 0.3236123
805.00 0.3234991
805.10 0.323386
805.20 0.3232728
805.30 0.3231598
805.40 0.3230467
805.50 0.3229338
805.60 0.3228208
805.70 0.3227079
805.80 0.3225951
805.90 0.3224823
806.00 0.3223695
806.10 0.3222568
806.20 0.3221442
806.30 0.3220316
806.40 0.321919
806.50 0.3218065
806.60 0.321694
806.70 0.3215816
806.80 0.3214692
806.90 0.3213569
807.00 0.3212446
807.10 0.3211323
807.20 0.3210201
807.30 0.320908
807.40 0.3207959
807.50 0.3206838
807.60 0.3205718
807.70 0.3204598
807.80 0.3203479
807.90 0.320236
808.00 0.3201242
808.10 0.3200124
808.20 0.3199006
808.30 0.3197889
808.40 0.3196773
808.50 0.3195657
808.60 0.3194541
808.70 0.3193426
808.80 0.3192311
808.90 0.3191197
809.00 0.3190083
809.10 0.318897
809.20 0.3187857
809.30 0.3186745
809.40 0.3185633
809.50 0.3184521
809.60 0.318341
809.70 0.3182299
809.80 0.3181189
809.90 0.3180079
810.00 0.317897
810.10 0.3177861
810.20 0.3176753
810.30 0.3175645
810.40 0.3174537
810.50 0.317343
810.60 0.3172324
810.70 0.3171218
810.80 0.3170112
810.90 0.3169007
811.00 0.3167902
811.10 0.3166798
811.20 0.3165694
811.30 0.316459
811.40 0.3163487
811.50 0.3162385
811.60 0.3161283
811.70 0.3160181
811.80 0.315908
811.90 0.3157979
812.00 0.3156879
812.10 0.3155779
812.20 0.315468
812.30 0.3153583
812.40 0.3152488
812.50 0.3151394
812.60 0.3150299
812.70 0.3149206
812.80 0.3148112
812.90 0.3147019
813.00 0.3145927
813.10 0.3144835
813.20 0.3143743
813.30 0.3142652
813.40 0.3141562
813.50 0.3140471
813.60 0.3139381
813.70 0.3138292
813.80 0.3137203
813.90 0.3136115
814.00 0.3135027
814.10 0.3133939
814.20 0.3132852
814.30 0.3131765
814.40 0.3130679
814.50 0.3129593
814.60 0.3128508
814.70 0.3127423
814.80 0.3126338
814.90 0.3125254
815.00 0.3124171
815.10 0.3123087
815.20 0.3122005
815.30 0.3120922
815.40 0.311984
815.50 0.3118759
815.60 0.3117678
815.70 0.3116597
815.80 0.3115517
815.90 0.3114437
816.00 0.3113358
816.10 0.3112279
816.20 0.3111201
816.30 0.3110123
816.40 0.3109045
816.50 0.3107968
816.60 0.3106892
816.70 0.3105815
816.80 0.310474
816.90 0.3103664
817.00 0.3102589
817.10 0.3101515
817.20 0.3100441
817.30 0.3099367
817.40 0.3098294
817.50 0.3097221
817.60 0.3096149
817.70 0.3095077
817.80 0.3094005
817.90 0.3092934
818.00 0.3091864
818.10 0.3090794
818.20 0.3089724
818.30 0.3088655
818.40 0.3087586
818.50 0.3086517
818.60 0.3085449
818.70 0.3084382
818.80 0.3083314
818.90 0.3082248
819.00 0.3081181
819.10 0.3080115
819.20 0.307905
819.30 0.307801
819.40 0.3076986
819.50 0.3075964
819.60 0.3074941
819.70 0.3073919
819.80 0.3072897
819.90 0.3071876
820.00 0.3070855
820.10 0.3069859
820.20 0.3068665
820.30 0.3067417
820.40 0.3066277
820.50 0.3065217
820.60 0.3064157
820.70 0.3063097
820.80 0.3062038
820.90 0.3060979
821.00 0.305992
821.10 0.3058862
821.20 0.3057804
821.30 0.3056747
821.40 0.305569
821.50 0.3054634
821.60 0.3053578
821.70 0.3052523
821.80 0.3051468
821.90 0.3050413
822.00 0.3049359
822.10 0.3048305
822.20 0.3047251
822.30 0.3046198
822.40 0.3045146
822.50 0.3044094
822.60 0.3043042
822.70 0.3041991
822.80 0.304094
822.90 0.3039889
823.00 0.3038839
823.10 0.303779
823.20 0.3036741
823.30 0.3035692
823.40 0.3034643
823.50 0.3033595
823.60 0.3032548
823.70 0.3031501
823.80 0.3030454
823.90 0.3029408
824.00 0.3028362
824.10 0.3027317
824.20 0.3026272
824.30 0.3025227
824.40 0.3024183
824.50 0.3023139
824.60 0.3022096
824.70 0.3021053
824.80 0.302001
824.90 0.3018968
825.00 0.3017927
825.10 0.3016885
825.20 0.3015845
825.30 0.3014804
825.40 0.3013764
825.50 0.3012725
825.60 0.3011685
825.70 0.3010647
825.80 0.3009608
825.90 0.300857
826.00 0.3007533
826.10 0.3006496
826.20 0.3005459
826.30 0.300443
826.40 0.3003407
826.50 0.3002384
826.60 0.3001362
826.70 0.300034
826.80 0.2999318
826.90 0.2998297
827.00 0.2997276
827.10 0.2996256
827.20 0.2995236
827.30 0.2994216
827.40 0.2993197
827.50 0.2992179
827.60 0.299116
827.70 0.2990142
827.80 0.2989125
827.90 0.2988107
828.00 0.2987091
828.10 0.2986074
828.20 0.2985058
828.30 0.2984043
828.40 0.2983028
828.50 0.2982013
828.60 0.2980995
828.70 0.2979976
828.80 0.2978956
828.90 0.2977937
829.00 0.2976918
829.10 0.29759
829.20 0.2974882
829.30 0.2973864
829.40 0.2972847
829.50 0.297183
829.60 0.2970814
829.70 0.2969798
829.80 0.2968782
829.90 0.2967767
830.00 0.2966753
830.10 0.2965738
830.20 0.2964724
830.30 0.2963711
830.40 0.2962698
830.50 0.2961685
830.60 0.2960673
830.70 0.2959661
830.80 0.2958649
830.90 0.2957638
831.00 0.2956628
831.10 0.2955617
831.20 0.2954607
831.30 0.2953598
831.40 0.2952589
831.50 0.295158
831.60 0.2950572
831.70 0.2949564
831.80 0.2948556
831.90 0.2947549
832.00 0.2946543
832.10 0.2945536
832.20 0.294453
832.30 0.2943525
832.40 0.294252
832.50 0.2941515
832.60 0.2940511
832.70 0.2939507
832.80 0.2938503
832.90 0.29375
833.00 0.2936497
833.10 0.2935495
833.20 0.2934493
833.30 0.2933492
833.40 0.2932491
833.50 0.293149
833.60 0.2930489
833.70 0.2929489
833.80 0.292849
833.90 0.2927491
834.00 0.2926492
834.10 0.2925494
834.20 0.2924496
834.30 0.2923498
834.40 0.2922501
834.50 0.2921504
834.60 0.2920508
834.70 0.2919512
834.80 0.2918516
834.90 0.2917521
835.00 0.2916526
835.10 0.2915532
835.20 0.2914538
835.30 0.2913544
835.40 0.2912551
835.50 0.2911558
835.60 0.2910565
835.70 0.2909573
835.80 0.2908582
835.90 0.290759
836.00 0.2906599
836.10 0.2905609
836.20 0.2904619
836.30 0.2903629
836.40 0.290264
836.50 0.2901651
836.60 0.2900662
836.70 0.2899674
836.80 0.2898686
836.90 0.2897701
837.00 0.2896717
837.10 0.2895733
837.20 0.289475
837.30 0.2893767
837.40 0.2892784
837.50 0.2891802
837.60 0.289082
837.70 0.2889839
837.80 0.2888858
837.90 0.2887877
838.00 0.2886897
838.10 0.2885917
838.20 0.2884938
838.30 0.2883959
838.40 0.288298
838.50 0.2882002
838.60 0.2881024
838.70 0.2880046
838.80 0.2879069
838.90 0.2878092
839.00 0.2877116
839.10 0.287614
839.20 0.2875164
839.30 0.2874189
839.40 0.2873214
839.50 0.287224
839.60 0.2871266
839.70 0.2870292
839.80 0.2869319
839.90 0.2868346
840.00 0.2867373
840.10 0.2866401
840.20 0.2865429
840.30 0.2864458
840.40 0.2863487
840.50 0.2862516
840.60 0.2861546
840.70 0.2860576
840.80 0.2859607
840.90 0.2858638
841.00 0.2857669
841.10 0.2856678
841.20 0.2855684
841.30 0.285469
841.40 0.2853697
841.50 0.2852704
841.60 0.2851711
841.70 0.2850719
841.80 0.2849727
841.90 0.2848736
842.00 0.2847745
842.10 0.2846754
842.20 0.2845764
842.30 0.2844774
842.40 0.2843785
842.50 0.2842796
842.60 0.2841807
842.70 0.2840819
842.80 0.2839831
842.90 0.2838843
843.00 0.2837856
843.10 0.283687
843.20 0.2835883
843.30 0.2834897
843.40 0.2833912
843.50 0.2832926
843.60 0.2831942
843.70 0.2830957
843.80 0.2829973
843.90 0.282899
844.00 0.2828006
844.10 0.2827023
844.20 0.2826041
844.30 0.2825059
844.40 0.2824077
844.50 0.2823096
844.60 0.2822115
844.70 0.2821134
844.80 0.2820154
844.90 0.2819174
845.00 0.2818195
845.10 0.2817216
845.20 0.2816237
845.30 0.2815288
845.40 0.2814339
845.50 0.281339
845.60 0.2812442
845.70 0.2811494
845.80 0.2810546
845.90 0.2809599
846.00 0.2808652
846.10 0.2807705
846.20 0.2806759
846.30 0.2805814
846.40 0.2804868
846.50 0.2803923
846.60 0.2802978
846.70 0.2802034
846.80 0.280109
846.90 0.2800147
847.00 0.2799203
847.10 0.2798261
847.20 0.2797318
847.30 0.2796376
847.40 0.2795434
847.50 0.2794493
847.60 0.2793552
847.70 0.2792611
847.80 0.2791671
847.90 0.2790731
848.00 0.2789792
848.10 0.2788852
848.20 0.2787914
848.30 0.2786975
848.40 0.2786037
848.50 0.2785099
848.60 0.2784162
848.70 0.2783225
848.80 0.2782289
848.90 0.2781352
849.00 0.2780416
849.10 0.2779481
849.20 0.2778546
849.30 0.2777611
849.40 0.2776676
849.50 0.2775742
849.60 0.2774809
849.70 0.2773875
849.80 0.2772942
849.90 0.277201
850.00 0.2771077
850.10 0.2770146
850.20 0.2769214
850.30 0.2768283
850.40 0.2767352
850.50 0.2766422
850.60 0.2765492
850.70 0.2764562
850.80 0.2763632
850.90 0.2762703
851.00 0.2761775
851.10 0.2760846
851.20 0.2759919
851.30 0.2758991
851.40 0.2758064
851.50 0.2757137
851.60 0.275621
851.70 0.2755284
851.80 0.2754359
851.90 0.2753433
852.00 0.2752508
852.10 0.2751583
852.20 0.2750659
852.30 0.2749735
852.40 0.2748811
852.50 0.2747888
852.60 0.2746965
852.70 0.2746043
852.80 0.2745121
852.90 0.2744199
853.00 0.2743277
853.10 0.2742356
853.20 0.2741435
853.30 0.2740515
853.40 0.2739595
853.50 0.2738675
853.60 0.2737756
853.70 0.2736826
853.80 0.2735885
853.90 0.2734945
854.00 0.2734005
854.10 0.2733065
854.20 0.2732125
854.30 0.2731186
854.40 0.2730248
854.50 0.2729309
854.60 0.2728371
854.70 0.2727434
854.80 0.2726497
854.90 0.272556
855.00 0.2724623
855.10 0.2723687
855.20 0.2722751
855.30 0.2721816
855.40 0.2720881
855.50 0.2719946
855.60 0.2719012
855.70 0.2718078
855.80 0.2717144
855.90 0.2716211
856.00 0.2715278
856.10 0.2714346
856.20 0.2713413
856.30 0.2712482
856.40 0.271155
856.50 0.2710619
856.60 0.2709688
856.70 0.2708758
856.80 0.2707828
856.90 0.2706898
857.00 0.2705969
857.10 0.270504
857.20 0.2704112
857.30 0.2703184
857.40 0.2702256
857.50 0.2701328
857.60 0.2700401
857.70 0.2699474
857.80 0.2698548
857.90 0.2697622
858.00 0.2696716
858.10 0.2695815
858.20 0.2694915
858.30 0.2694015
858.40 0.2693116
858.50 0.2692217
858.60 0.2691318
858.70 0.2690419
858.80 0.2689521
858.90 0.2688623
859.00 0.2687726
859.10 0.2686829
859.20 0.2685932
859.30 0.2685035
859.40 0.2684139
859.50 0.2683244
859.60 0.2682348
859.70 0.2681453
859.80 0.2680558
859.90 0.2679664
860.00 0.267877
860.10 0.2677876
860.20 0.2676983
860.30 0.267609
860.40 0.2675197
860.50 0.2674305
860.60 0.2673413
860.70 0.2672521
860.80 0.267163
860.90 0.2670739
861.00 0.2669848
861.10 0.2668958
861.20 0.2668068
861.30 0.2667179
861.40 0.2666289
861.50 0.2665401
861.60 0.2664512
861.70 0.2663624
861.80 0.2662736
861.90 0.2661848
862.00 0.2660961
862.10 0.2660074
862.20 0.2659187
862.30 0.2658291
862.40 0.2657396
862.50 0.2656501
862.60 0.2655606
862.70 0.2654712
862.80 0.2653818
862.90 0.2652925
863.00 0.2652031
863.10 0.2651138
863.20 0.2650246
863.30 0.2649354
863.40 0.2648462
863.50 0.264757
863.60 0.2646679
863.70 0.2645788
863.80 0.2644898
863.90 0.2644008
864.00 0.2643118
864.10 0.2642229
864.20 0.2641339
864.30 0.2640451
864.40 0.2639562
864.50 0.2638674
864.60 0.2637786
864.70 0.2636899
864.80 0.2636012
864.90 0.2635125
865.00 0.2634239
865.10 0.2633353
865.20 0.2632467
865.30 0.2631582
865.40 0.2630697
865.50 0.2629812
865.60 0.2628928
865.70 0.2628044
865.80 0.262716
865.90 0.2626277
866.00 0.2625394
866.10 0.2624511
866.20 0.2623629
866.30 0.2622747
866.40 0.2621865
866.50 0.2620984
866.60 0.2620103
866.70 0.2619222
866.80 0.2618342
866.90 0.2617462
867.00 0.2616582
867.10 0.2615703
867.20 0.2614824
867.30 0.2613945
867.40 0.2613067
867.50 0.2612189
867.60 0.2611311
867.70 0.2610434
867.80 0.2609557
867.90 0.2608681
868.00 0.2607804
868.10 0.2606928
868.20 0.2606053
868.30 0.2605177
868.40 0.2604302
868.50 0.2603428
868.60 0.2602554
868.70 0.260168
868.80 0.2600806
868.90 0.2599933
869.00 0.259906
869.10 0.2598187
869.20 0.2597315
869.30 0.2596443
869.40 0.2595571
869.50 0.25947
869.60 0.2593829
869.70 0.2592959
869.80 0.2592088
869.90 0.2591218
870.00 0.2590349
870.10 0.2589479
870.20 0.258861
870.30 0.2587742
870.40 0.2586874
870.50 0.2586006
870.60 0.2585138
870.70 0.2584271
870.80 0.2583404
870.90 0.258255
871.00 0.2581698
871.10 0.2580847
871.20 0.2579995
871.30 0.2579145
871.40 0.2578294
871.50 0.2577444
871.60 0.2576594
871.70 0.2575744
871.80 0.2574895
871.90 0.2574046
872.00 0.2573197
872.10 0.2572349
872.20 0.2571501
872.30 0.2570653
872.40 0.2569806
872.50 0.2568959
872.60 0.2568112
872.70 0.2567266
872.80 0.256642
872.90 0.2565574
873.00 0.2564729
873.10 0.2563884
873.20 0.2563039
873.30 0.2562194
873.40 0.256135
873.50 0.2560507
873.60 0.2559663
873.70 0.255882
873.80 0.2557977
873.90 0.2557134
874.00 0.2556292
874.10 0.255545
874.20 0.2554609
874.30 0.2553767
874.40 0.2552926
874.50 0.2552086
874.60 0.2551246
874.70 0.2550406
874.80 0.2549566
874.90 0.2548726
875.00 0.2547887
875.10 0.2547049
875.20 0.2546202
875.30 0.254534
875.40 0.2544479
875.50 0.2543619
875.60 0.2542758
875.70 0.2541898
875.80 0.2541038
875.90 0.2540179
876.00 0.253932
876.10 0.2538461
876.20 0.2537603
876.30 0.2536744
876.40 0.2535887
876.50 0.2535029
876.60 0.2534172
876.70 0.2533315
876.80 0.2532459
876.90 0.2531603
877.00 0.2530747
877.10 0.2529891
877.20 0.2529036
877.30 0.2528181
877.40 0.2527326
877.50 0.2526472
877.60 0.2525618
877.70 0.2524765
877.80 0.2523911
877.90 0.2523058
878.00 0.2522206
878.10 0.2521354
878.20 0.2520502
878.30 0.251965
878.40 0.2518799
878.50 0.2517948
878.60 0.2517097
878.70 0.2516247
878.80 0.2515397
878.90 0.2514547
879.00 0.2513697
879.10 0.2512848
879.20 0.2512
879.30 0.2511151
879.40 0.2510303
879.50 0.2509455
879.60 0.2508629
879.70 0.2507807
879.80 0.2506986
879.90 0.2506165
880.00 0.2505344
880.10 0.2504524
880.20 0.2503704
880.30 0.2502884
880.40 0.2502065
880.50 0.2501246
880.60 0.2500427
880.70 0.2499609
880.80 0.2498791
880.90 0.2497973
881.00 0.2497155
881.10 0.2496338
881.20 0.2495521
881.30 0.2494704
881.40 0.2493888
881.50 0.2493072
881.60 0.2492256
881.70 0.2491441
881.80 0.2490626
881.90 0.2489811
882.00 0.2488997
882.10 0.2488182
882.20 0.2487368
882.30 0.2486555
882.40 0.2485742
882.50 0.2484929
882.60 0.2484116
882.70 0.2483304
882.80 0.2482492
882.90 0.248168
883.00 0.2480868
883.10 0.2480057
883.20 0.2479246
883.30 0.2478436
883.40 0.2477626
883.50 0.2476816
883.60 0.2476006
883.70 0.2475197
883.80 0.2474388
883.90 0.2473579
884.00 0.2472752
884.10 0.2471921
884.20 0.247109
884.30 0.247026
884.40 0.246943
884.50 0.2468601
884.60 0.2467772
884.70 0.2466943
884.80 0.2466114
884.90 0.2465286
885.00 0.2464458
885.10 0.246363
885.20 0.2462803
885.30 0.2461976
885.40 0.2461149
885.50 0.2460323
885.60 0.2459497
885.70 0.2458671
885.80 0.2457845
885.90 0.245702
886.00 0.2456195
886.10 0.2455371
886.20 0.2454547
886.30 0.2453723
886.40 0.2452899
886.50 0.2452076
886.60 0.2451253
886.70 0.245043
886.80 0.2449608
886.90 0.2448786
887.00 0.2447964
887.10 0.2447142
887.20 0.2446321
887.30 0.24455
887.40 0.244468
887.50 0.244386
887.60 0.244304
887.70 0.244222
887.80 0.2441401
887.90 0.2440582
888.00 0.2439763
888.10 0.2438945
888.20 0.2438127
888.30 0.2437309
888.40 0.2436503
888.50 0.24357
888.60 0.2434897
888.70 0.2434094
888.80 0.2433292
888.90 0.2432489
889.00 0.2431688
889.10 0.2430886
889.20 0.2430085
889.30 0.2429284
889.40 0.2428483
889.50 0.2427683
889.60 0.2426883
889.70 0.2426083
889.80 0.2425283
889.90 0.2424484
890.00 0.2423685
890.10 0.2422887
890.20 0.2422088
890.30 0.242129
890.40 0.2420492
890.50 0.2419695
890.60 0.2418898
890.70 0.2418101
890.80 0.2417305
890.90 0.2416508
891.00 0.2415712
891.10 0.2414917
891.20 0.2414121
891.30 0.2413326
891.40 0.2412532
891.50 0.2411737
891.60 0.2410943
891.70 0.2410149
891.80 0.2409356
891.90 0.2408562
892.00 0.2407769
892.10 0.2406977
892.20 0.2406184
892.30 0.2405392
892.40 0.2404601
892.50 0.2403809
892.60 0.2403018
892.70 0.2402227
892.80 0.2401436
892.90 0.2400646
893.00 0.2399856
893.10 0.2399066
893.20 0.2398277
893.30 0.2397488
893.40 0.2396699
893.50 0.239591
893.60 0.2395122
893.70 0.2394334
893.80 0.2393546
893.90 0.2392759
894.00 0.2391972
894.10 0.2391185
894.20 0.2390398
894.30 0.2389612
894.40 0.2388826
894.50 0.2388041
894.60 0.2387255
894.70 0.238647
894.80 0.2385685
894.90 0.2384901
895.00 0.2384117
895.10 0.2383333
895.20 0.2382549
895.30 0.2381766
895.40 0.2380983
895.50 0.23802
895.60 0.2379418
895.70 0.2378636
895.80 0.2377854
895.90 0.2377072
896.00 0.2376291
896.10 0.237551
896.20 0.2374729
896.30 0.2373949
896.40 0.2373169
896.50 0.2372389
896.60 0.2371609
896.70 0.237083
896.80 0.2370051
896.90 0.2369272
897.00 0.2368494
897.10 0.2367716
897.20 0.2366938
897.30 0.2366152
897.40 0.2365367
897.50 0.2364581
897.60 0.2363796
897.70 0.2363012
897.80 0.2362227
897.90 0.2361443
898.00 0.236066
898.10 0.2359876
898.20 0.2359093
898.30 0.235831
898.40 0.2357527
898.50 0.2356745
898.60 0.2355963
898.70 0.2355181
898.80 0.23544
898.90 0.2353619
899.00 0.2352838
899.10 0.2352057
899.20 0.2351277
899.30 0.2350497
899.40 0.2349717
899.50 0.2348938
899.60 0.2348159
899.70 0.234738
899.80 0.2346601
899.90 0.2345823
900.00 0.2345045
900.10 0.2344267
900.20 0.234349
900.30 0.2342713
900.40 0.2341936
900.50 0.2341159
900.60 0.2340383
900.70 0.2339607
900.80 0.2338831
900.90 0.2338056
901.00 0.2337281
901.10 0.2336506
901.20 0.2335732
901.30 0.2334957
901.40 0.2334183
901.50 0.233341
901.60 0.2332636
901.70 0.2331867
901.80 0.2331115
901.90 0.2330364
902.00 0.2329613
902.10 0.2328863
902.20 0.2328112
902.30 0.2327362
902.40 0.2326612
902.50 0.2325863
902.60 0.2325113
902.70 0.2324364
902.80 0.2323615
902.90 0.2322867
903.00 0.2322119
903.10 0.2321371
903.20 0.2320623
903.30 0.2319876
903.40 0.2319129
903.50 0.2318382
903.60 0.2317635
903.70 0.2316889
903.80 0.2316143
903.90 0.2315397
904.00 0.2314652
904.10 0.2313906
904.20 0.2313161
904.30 0.2312417
904.40 0.2311672
904.50 0.2310928
904.60 0.2310185
904.70 0.2309441
904.80 0.2308698
904.90 0.2307955
905.00 0.2307212
905.10 0.2306469
905.20 0.2305727
905.30 0.2304985
905.40 0.2304244
905.50 0.2303502
905.60 0.2302761
905.70 0.230202
905.80 0.230128
905.90 0.2300539
906.00 0.2299799
906.10 0.229906
906.20 0.2298314
906.30 0.2297556
906.40 0.2296799
906.50 0.2296041
906.60 0.2295285
906.70 0.2294528
906.80 0.2293771
906.90 0.2293015
907.00 0.2292259
907.10 0.2291504
907.20 0.2290749
907.30 0.2289993
907.40 0.2289239
907.50 0.2288484
907.60 0.228773
907.70 0.2286976
907.80 0.2286222
907.90 0.2285469
908.00 0.2284716
908.10 0.2283963
908.20 0.2283211
908.30 0.2282458
908.40 0.2281706
908.50 0.2280955
908.60 0.2280203
908.70 0.2279452
908.80 0.2278701
908.90 0.2277951
909.00 0.22772
909.10 0.227645
909.20 0.22757
909.30 0.2274951
909.40 0.2274202
909.50 0.2273453
909.60 0.2272704
909.70 0.2271956
909.80 0.2271207
909.90 0.227046
910.00 0.2269712
910.10 0.2268965
910.20 0.2268218
910.30 0.2267471
910.40 0.2266724
910.50 0.2265978
910.60 0.2265232
910.70 0.2264487
910.80 0.2263741
910.90 0.2262996
911.00 0.2262251
911.10 0.2261507
911.20 0.2260762
911.30 0.2260018
911.40 0.2259274
911.50 0.2258531
911.60 0.2257788
911.70 0.2257045
911.80 0.2256302
911.90 0.225556
912.00 0.2254818
912.10 0.2254076
912.20 0.2253334
912.30 0.2252593
912.40 0.2251852
912.50 0.2251111
912.60 0.225037
912.70 0.224963
912.80 0.224889
912.90 0.224815
913.00 0.2247411
913.10 0.2246672
913.20 0.2245933
913.30 0.2245194
913.40 0.2244456
913.50 0.2243718
913.60 0.224298
913.70 0.2242243
913.80 0.2241505
913.90 0.2240768
914.00 0.2240032
914.10 0.2239295
914.20 0.2238559
914.30 0.2237823
914.40 0.2237087
914.50 0.2236352
914.60 0.2235617
914.70 0.2234882
914.80 0.2234147
914.90 0.2233413
915.00 0.2232679
915.10 0.2231945
915.20 0.2231212
915.30 0.2230494
915.40 0.2229784
915.50 0.2229074
915.60 0.2228364
915.70 0.2227655
915.80 0.2226945
915.90 0.2226236
916.00 0.2225528
916.10 0.2224819
916.20 0.2224111
916.30 0.2223403
916.40 0.2222695
916.50 0.2221988
916.60 0.222128
916.70 0.2220573
916.80 0.2219867
916.90 0.221916
917.00 0.2218454
917.10 0.2217748
917.20 0.2217042
917.30 0.2216337
917.40 0.2215632
917.50 0.2214927
917.60 0.2214222
917.70 0.2213518
917.80 0.2212814
917.90 0.221211
918.00 0.2211406
918.10 0.2210703
918.20 0.2209999
918.30 0.2209297
918.40 0.2208594
918.50 0.2207892
918.60 0.2207189
918.70 0.2206488
918.80 0.2205786
918.90 0.2205085
919.00 0.2204383
919.10 0.2203683
919.20 0.2202982
919.30 0.2202282
919.40 0.2201581
919.50 0.2200882
919.60 0.2200182
919.70 0.2199483
919.80 0.2198784
919.90 0.2198066
920.00 0.2197347
920.10 0.2196629
920.20 0.2195911
920.30 0.2195193
920.40 0.2194475
920.50 0.2193758
920.60 0.2193041
920.70 0.2192324
920.80 0.2191607
920.90 0.2190891
921.00 0.2190175
921.10 0.2189459
921.20 0.2188743
921.30 0.2188028
921.40 0.2187313
921.50 0.2186598
921.60 0.2185884
921.70 0.218517
921.80 0.2184456
921.90 0.2183742
922.00 0.2183028
922.10 0.2182315
922.20 0.2181602
922.30 0.218089
922.40 0.2180177
922.50 0.2179465
922.60 0.2178753
922.70 0.2178041
922.80 0.217733
922.90 0.2176619
923.00 0.2175908
923.10 0.2175197
923.20 0.2174487
923.30 0.2173777
923.40 0.2173067
923.50 0.2172357
923.60 0.2171648
923.70 0.2170939
923.80 0.217023
923.90 0.2169521
924.00 0.2168813
924.10 0.2168105
924.20 0.2167397
924.30 0.2166689
924.40 0.2165983
924.50 0.2165278
924.60 0.2164573
924.70 0.2163869
924.80 0.2163165
924.90 0.2162462
925.00 0.2161758
925.10 0.2161055
925.20 0.2160352
925.30 0.215965
925.40 0.2158947
925.50 0.2158245
925.60 0.2157543
925.70 0.2156842
925.80 0.215614
925.90 0.2155439
926.00 0.2154738
926.10 0.2154037
926.20 0.2153337
926.30 0.2152637
926.40 0.2151937
926.50 0.2151237
926.60 0.2150538
926.70 0.2149839
926.80 0.214914
926.90 0.2148441
927.00 0.2147743
927.10 0.2147045
927.20 0.2146347
927.30 0.214565
927.40 0.2144952
927.50 0.2144255
927.60 0.2143558
927.70 0.2142862
927.80 0.2142165
927.90 0.2141469
928.00 0.2140773
928.10 0.2140078
928.20 0.2139382
928.30 0.2138687
928.40 0.2137992
928.50 0.2137298
928.60 0.2136603
928.70 0.2135909
928.80 0.2135215
928.90 0.2134522
929.00 0.2133828
929.10 0.2133135
929.20 0.2132442
929.30 0.213175
929.40 0.2131058
929.50 0.2130365
929.60 0.2129674
929.70 0.2128982
929.80 0.2128291
929.90 0.2127599
930.00 0.2126909
930.10 0.2126218
930.20 0.2125528
930.30 0.2124837
930.40 0.2124148
930.50 0.2123458
930.60 0.2122769
930.70 0.2122079
930.80 0.212139
930.90 0.2120702
931.00 0.2120013
931.10 0.2119325
931.20 0.2118637
931.30 0.211795
931.40 0.2117262
931.50 0.2116575
931.60 0.2115888
931.70 0.2115202
931.80 0.2114515
931.90 0.2113829
932.00 0.2113143
932.10 0.2112457
932.20 0.2111772
932.30 0.2111087
932.40 0.2110402
932.50 0.2109717
932.60 0.2109033
932.70 0.2108348
932.80 0.2107664
932.90 0.2106981
933.00 0.2106297
933.10 0.2105614
933.20 0.2104931
933.30 0.2104248
933.40 0.2103566
933.50 0.2102883
933.60 0.2102201
933.70 0.2101528
933.80 0.2100859
933.90 0.2100189
934.00 0.209952
934.10 0.2098851
934.20 0.2098182
934.30 0.2097514
934.40 0.2096845
934.50 0.2096177
934.60 0.209551
934.70 0.2094842
934.80 0.2094175
934.90 0.2093508
935.00 0.2092841
935.10 0.2092174
935.20 0.2091508
935.30 0.2090842
935.40 0.2090176
935.50 0.208951
935.60 0.2088845
935.70 0.2088179
935.80 0.2087514
935.90 0.208685
936.00 0.2086185
936.10 0.2085521
936.20 0.2084857
936.30 0.2084193
936.40 0.208353
936.50 0.2082866
936.60 0.2082203
936.70 0.2081541
936.80 0.2080878
936.90 0.2080216
937.00 0.2079553
937.10 0.2078892
937.20 0.207823
937.30 0.2077569
937.40 0.2076907
937.50 0.2076246
937.60 0.2075586
937.70 0.2074925
937.80 0.2074265
937.90 0.2073605
938.00 0.2072945
938.10 0.2072286
938.20 0.2071626
938.30 0.2070967
938.40 0.2070308
938.50 0.206965
938.60 0.2068991
938.70 0.2068333
938.80 0.2067675
938.90 0.2067018
939.00 0.206636
939.10 0.2065703
939.20 0.2065046
939.30 0.2064389
939.40 0.2063733
939.50 0.2063077
939.60 0.2062421
939.70 0.2061765
939.80 0.2061109
939.90 0.2060454
940.00 0.2059799
940.10 0.2059144
940.20 0.2058489
940.30 0.2057835
940.40 0.2057181
940.50 0.2056527
940.60 0.2055873
940.70 0.2055219
940.80 0.2054566
940.90 0.2053913
941.00 0.205326
941.10 0.2052608
941.20 0.2051956
941.30 0.2051303
941.40 0.2050652
941.50 0.205
941.60 0.2049349
941.70 0.2048697
941.80 0.2048046
941.90 0.2047396
942.00 0.2046745
942.10 0.2046095
942.20 0.2045445
942.30 0.2044795
942.40 0.2044146
942.50 0.2043496
942.60 0.2042847
942.70 0.2042198
942.80 0.204155
942.90 0.2040901
943.00 0.204025
943.10 0.2039595
943.20 0.203894
943.30 0.2038286
943.40 0.2037631
943.50 0.2036977
943.60 0.2036323
943.70 0.203567
943.80 0.2035016
943.90 0.2034363
944.00 0.203371
944.10 0.2033057
944.20 0.2032405
944.30 0.2031752
944.40 0.20311
944.50 0.2030448
944.60 0.2029797
944.70 0.2029145
944.80 0.2028494
944.90 0.2027843
945.00 0.2027193
945.10 0.2026542
945.20 0.2025892
945.30 0.2025242
945.40 0.2024592
945.50 0.2023943
945.60 0.2023293
945.70 0.2022644
945.80 0.2021995
945.90 0.2021347
946.00 0.2020698
946.10 0.202005
946.20 0.2019402
946.30 0.2018754
946.40 0.2018107
946.50 0.201746
946.60 0.2016813
946.70 0.2016166
946.80 0.2015519
946.90 0.2014873
947.00 0.2014227
947.10 0.2013581
947.20 0.2012935
947.30 0.201229
947.40 0.2011645
947.50 0.2011
947.60 0.2010355
947.70 0.200971
947.80 0.2009066
947.90 0.2008422
948.00 0.2007778
948.10 0.2007135
948.20 0.2006491
948.30 0.2005848
948.40 0.2005205
948.50 0.2004562
948.60 0.200392
948.70 0.2003278
948.80 0.2002636
948.90 0.2001994
949.00 0.2001352
949.10 0.2000711
949.20 0.200007
949.30 0.1999429
949.40 0.1998788
949.50 0.1998148
949.60 0.1997508
949.70 0.1996868
949.80 0.1996228
949.90 0.1995588
950.00 0.1994949
950.10 0.199431
950.20 0.1993671
950.30 0.1993032
950.40 0.1992394
950.50 0.1991756
950.60 0.1991118
950.70 0.199048
950.80 0.1989842
950.90 0.1989205
951.00 0.1988568
951.10 0.1987931
951.20 0.1987295
951.30 0.1986658
951.40 0.1986022
951.50 0.1985386
951.60 0.198475
951.70 0.1984115
951.80 0.198348
951.90 0.1982844
952.00 0.198221
952.10 0.1981575
952.20 0.1980941
952.30 0.1980306
952.40 0.1979673
952.50 0.1979041
952.60 0.197841
952.70 0.1977779
952.80 0.1977148
952.90 0.1976517
953.00 0.1975887
953.10 0.1975256
953.20 0.1974626
953.30 0.1973996
953.40 0.1973367
953.50 0.1972738
953.60 0.1972108
953.70 0.1971479
953.80 0.1970851
953.90 0.1970222
954.00 0.1969594
954.10 0.1968966
954.20 0.1968338
954.30 0.1967711
954.40 0.1967083
954.50 0.1966456
954.60 0.1965829
954.70 0.1965202
954.80 0.1964576
954.90 0.196395
955.00 0.1963323
955.10 0.1962698
955.20 0.1962072
955.30 0.1961447
955.40 0.1960821
955.50 0.1960196
955.60 0.1959572
955.70 0.1958947
955.80 0.1958323
955.90 0.1957699
956.00 0.1957075
956.10 0.1956451
956.20 0.1955828
956.30 0.1955205
956.40 0.1954582
956.50 0.1953959
956.60 0.1953336
956.70 0.1952714
956.80 0.1952092
956.90 0.195147
957.00 0.1950848
957.10 0.1950227
957.20 0.1949614
957.30 0.194901
957.40 0.1948407
957.50 0.1947804
957.60 0.1947202
957.70 0.1946599
957.80 0.1945997
957.90 0.1945395
958.00 0.1944793
958.10 0.1944192
958.20 0.1943591
958.30 0.1942989
958.40 0.1942388
958.50 0.1941788
958.60 0.1941187
958.70 0.1940587
958.80 0.1939987
958.90 0.1939387
959.00 0.1938787
959.10 0.1938188
959.20 0.1937588
959.30 0.1936989
959.40 0.1936391
959.50 0.1935792
959.60 0.1935193
959.70 0.1934595
959.80 0.1933997
959.90 0.1933399
960.00 0.1932802
960.10 0.1932204
960.20 0.1931607
960.30 0.193101
960.40 0.1930413
960.50 0.1929817
960.60 0.192922
960.70 0.1928624
960.80 0.1928028
960.90 0.1927433
961.00 0.1926837
961.10 0.1926242
961.20 0.1925647
961.30 0.1925052
961.40 0.1924457
961.50 0.1923862
961.60 0.1923268
961.70 0.1922674
961.80 0.192208
961.90 0.1921486
962.00 0.192088
962.10 0.1920271
962.20 0.1919662
962.30 0.1919054
962.40 0.1918446
962.50 0.1917838
962.60 0.191723
962.70 0.1916622
962.80 0.1916015
962.90 0.1915408
963.00 0.1914801
963.10 0.1914194
963.20 0.1913588
963.30 0.1912982
963.40 0.1912375
963.50 0.191177
963.60 0.1911164
963.70 0.1910558
963.80 0.1909953
963.90 0.1909348
964.00 0.1908743
964.10 0.1908139
964.20 0.1907534
964.30 0.190693
964.40 0.1906326
964.50 0.1905722
964.60 0.1905119
964.70 0.1904515
964.80 0.1903912
964.90 0.1903309
965.00 0.1902707
965.10 0.1902104
965.20 0.1901502
965.30 0.19009
965.40 0.1900298
965.50 0.1899696
965.60 0.1899095
965.70 0.1898493
965.80 0.1897892
965.90 0.1897291
966.00 0.1896691
966.10 0.189609
966.20 0.189549
966.30 0.189489
966.40 0.189429
966.50 0.1893691
966.60 0.1893091
966.70 0.1892492
966.80 0.1891893
966.90 0.1891294
967.00 0.1890696
967.10 0.1890097
967.20 0.1889499
967.30 0.1888901
967.40 0.1888304
967.50 0.1887706
967.60 0.1887109
967.70 0.1886512
967.80 0.1885915
967.90 0.1885318
968.00 0.1884721
968.10 0.1884125
968.20 0.1883529
968.30 0.1882933
968.40 0.1882338
968.50 0.1881742
968.60 0.1881147
968.70 0.1880552
968.80 0.1879957
968.90 0.1879362
969.00 0.1878768
969.10 0.1878174
969.20 0.187758
969.30 0.1876986
969.40 0.1876392
969.50 0.1875799
969.60 0.1875205
969.70 0.1874612
969.80 0.187402
969.90 0.1873427
970.00 0.1872835
970.10 0.1872242
970.20 0.187165
970.30 0.1871059
970.40 0.1870467
970.50 0.1869876
970.60 0.1869285
970.70 0.1868694
970.80 0.1868103
970.90 0.1867512
971.00 0.1866922
971.10 0.1866332
971.20 0.1865742
971.30 0.1865152
971.40 0.1864563
971.50 0.1863973
971.60 0.1863385
971.70 0.1862799
971.80 0.1862212
971.90 0.1861625
972.00 0.1861039
972.10 0.1860453
972.20 0.1859867
972.30 0.1859281
972.40 0.1858696
972.50 0.1858111
972.60 0.1857525
972.70 0.1856941
972.80 0.1856356
972.90 0.1855771
973.00 0.1855187
973.10 0.1854603
973.20 0.1854019
973.30 0.1853436
973.40 0.1852852
973.50 0.1852269
973.60 0.1851686
973.70 0.1851103
973.80 0.185052
973.90 0.1849938
974.00 0.1849355
974.10 0.1848773
974.20 0.1848191
974.30 0.184761
974.40 0.1847028
974.50 0.1846447
974.60 0.1845866
974.70 0.1845285
974.80 0.1844704
974.90 0.1844124
975.00 0.1843544
975.10 0.1842964
975.20 0.1842384
975.30 0.1841804
975.40 0.1841225
975.50 0.1840645
975.60 0.1840066
975.70 0.1839487
975.80 0.1838909
975.90 0.183833
976.00 0.1837752
976.10 0.1837174
976.20 0.1836596
976.30 0.1836018
976.40 0.1835441
976.50 0.1834863
976.60 0.1834286
976.70 0.1833709
976.80 0.1833133
976.90 0.1832556
977.00 0.183198
977.10 0.1831404
977.20 0.1830828
977.30 0.1830252
977.40 0.1829677
977.50 0.1829101
977.60 0.1828526
977.70 0.1827951
977.80 0.1827376
977.90 0.1826802
978.00 0.1826228
978.10 0.1825653
978.20 0.182508
978.30 0.1824506
978.40 0.1823932
978.50 0.1823359
978.60 0.1822786
978.70 0.1822213
978.80 0.182164
978.90 0.1821067
979.00 0.1820495
979.10 0.1819923
979.20 0.1819351
979.30 0.1818779
979.40 0.1818207
979.50 0.1817636
979.60 0.1817065
979.70 0.1816494
979.80 0.1815923
979.90 0.1815352
980.00 0.1814782
980.10 0.1814212
980.20 0.1813642
980.30 0.1813072
980.40 0.1812502
980.50 0.1811933
980.60 0.1811364
980.70 0.1810795
980.80 0.1810226
980.90 0.1809657
981.00 0.1809089
981.10 0.180852
981.20 0.1807952
981.30 0.1807385
981.40 0.180682
981.50 0.1806254
981.60 0.1805689
981.70 0.1805124
981.80 0.1804559
981.90 0.1803994
982.00 0.1803429
982.10 0.1802865
982.20 0.1802301
982.30 0.1801737
982.40 0.1801173
982.50 0.180061
982.60 0.1800046
982.70 0.1799483
982.80 0.179892
982.90 0.1798357
983.00 0.1797794
983.10 0.1797232
983.20 0.179667
983.30 0.1796108
983.40 0.1795546
983.50 0.1794984
983.60 0.1794423
983.70 0.1793861
983.80 0.17933
983.90 0.1792739
984.00 0.1792179
984.10 0.1791618
984.20 0.1791058
984.30 0.1790498
984.40 0.1789938
984.50 0.1789378
984.60 0.1788818
984.70 0.1788259
984.80 0.17877
984.90 0.1787141
985.00 0.1786582
985.10 0.1786023
985.20 0.1785465
985.30 0.1784907
985.40 0.1784349
985.50 0.1783791
985.60 0.1783233
985.70 0.1782676
985.80 0.1782118
985.90 0.1781561
986.00 0.1781004
986.10 0.1780448
986.20 0.1779891
986.30 0.1779335
986.40 0.1778779
986.50 0.1778223
986.60 0.1777667
986.70 0.1777111
986.80 0.1776556
986.90 0.1776001
987.00 0.1775446
987.10 0.1774891
987.20 0.1774336
987.30 0.1773782
987.40 0.1773227
987.50 0.1772673
987.60 0.1772119
987.70 0.1771566
987.80 0.1771012
987.90 0.1770459
988.00 0.1769906
988.10 0.1769353
988.20 0.17688
988.30 0.1768247
988.40 0.1767695
988.50 0.1767143
988.60 0.1766591
988.70 0.1766039
988.80 0.1765487
988.90 0.1764936
989.00 0.1764385
989.10 0.1763834
989.20 0.1763283
989.30 0.1762732
989.40 0.1762181
989.50 0.1761631
989.60 0.1761081
989.70 0.1760531
989.80 0.1759981
989.90 0.1759432
990.00 0.1758882
990.10 0.1758333
990.20 0.1757784
990.30 0.1757235
990.40 0.1756686
990.50 0.1756138
990.60 0.175559
990.70 0.1755042
990.80 0.1754494
990.90 0.1753946
991.00 0.1753398
991.10 0.1752858
991.20 0.1752328
991.30 0.1751799
991.40 0.175127
991.50 0.1750741
991.60 0.1750213
991.70 0.1749684
991.80 0.1749156
991.90 0.1748628
992.00 0.17481
992.10 0.1747572
992.20 0.1747045
992.30 0.1746518
992.40 0.174599
992.50 0.1745463
992.60 0.1744937
992.70 0.174441
992.80 0.1743883
992.90 0.1743357
993.00 0.1742831
993.10 0.1742305
993.20 0.1741779
993.30 0.1741254
993.40 0.1740728
993.50 0.1740203
993.60 0.1739678
993.70 0.1739153
993.80 0.1738628
993.90 0.1738104
994.00 0.1737579
994.10 0.1737055
994.20 0.1736531
994.30 0.1736007
994.40 0.1735484
994.50 0.173496
994.60 0.1734437
994.70 0.1733914
994.80 0.1733391
994.90 0.1732868
995.00 0.1732345
995.10 0.1731823
995.20 0.1731301
995.30 0.1730779
995.40 0.1730257
995.50 0.1729735
995.60 0.1729213
995.70 0.1728692
995.80 0.1728171
995.90 0.172765
996.00 0.1727129
996.10 0.1726595
996.20 0.1726059
996.30 0.1725523
996.40 0.1724987
996.50 0.1724451
996.60 0.1723916
996.70 0.172338
996.80 0.1722845
996.90 0.172231
997.00 0.1721775
997.10 0.1721241
997.20 0.1720706
997.30 0.1720172
997.40 0.1719638
997.50 0.1719104
997.60 0.171857
997.70 0.1718036
997.80 0.1717503
997.90 0.171697
998.00 0.1716437
998.10 0.1715904
998.20 0.1715371
998.30 0.1714839
998.40 0.1714306
998.50 0.1713774
998.60 0.1713242
998.70 0.171271
998.80 0.1712179
998.90 0.1711647
999.00 0.1711116
999.10 0.1710585
999.20 0.1710054
999.30 0.1709523
999.40 0.1708993
999.50 0.1708463
999.60 0.1707932
999.70 0.1707402
999.80 0.1706873
999.90 0.1706343
1000.00 0.1705813
1000.10 0.1705284
1000.20 0.1704755
1000.30 0.1704226
1000.40 0.1703697
1000.50 0.1703169
1000.60 0.170264
1000.70 0.1702112
1000.80 0.1701584
1000.90 0.1701056
1001.00 0.1700529
1001.10 0.1700003
1001.20 0.1699478
1001.30 0.1698952
1001.40 0.1698427
1001.50 0.1697902
1001.60 0.1697377
1001.70 0.1696853
1001.80 0.1696328
1001.90 0.1695804
1002.00 0.169528
1002.10 0.1694756
1002.20 0.1694232
1002.30 0.1693709
1002.40 0.1693185
1002.50 0.1692662
1002.60 0.1692139
1002.70 0.1691616
1002.80 0.1691093
1002.90 0.1690571
1003.00 0.1690049
1003.10 0.1689526
1003.20 0.1689004
1003.30 0.1688483
1003.40 0.1687961
1003.50 0.1687439
1003.60 0.1686918
1003.70 0.1686397
1003.80 0.1685876
1003.90 0.1685355
1004.00 0.1684835
1004.10 0.1684314
1004.20 0.1683794
1004.30 0.1683274
1004.40 0.1682754
1004.50 0.1682234
1004.60 0.1681715
1004.70 0.1681195
1004.80 0.1680676
1004.90 0.1680157
1005.00 0.1679638
1005.10 0.1679119
1005.20 0.1678601
1005.30 0.1678082
1005.40 0.1677564
1005.50 0.1677046
1005.60 0.1676528
1005.70 0.1676011
1005.80 0.1675493
1005.90 0.1674976
1006.00 0.1674459
1006.10 0.1673942
1006.20 0.1673425
1006.30 0.1672908
1006.40 0.1672392
1006.50 0.1671875
1006.60 0.1671359
1006.70 0.1670843
1006.80 0.1670328
1006.90 0.1669812
1007.00 0.1669296
1007.10 0.1668781
1007.20 0.1668266
1007.30 0.1667751
1007.40 0.1667236
1007.50 0.1666722
1007.60 0.1666207
1007.70 0.1665693
1007.80 0.1665179
1007.90 0.1664665
1008.00 0.1664151
1008.10 0.1663638
1008.20 0.1663124
1008.30 0.1662611
1008.40 0.1662098
1008.50 0.1661585
1008.60 0.1661072
1008.70 0.166056
1008.80 0.1660047
1008.90 0.1659535
1009.00 0.1659023
1009.10 0.1658511
1009.20 0.1658
1009.30 0.1657488
1009.40 0.1656977
1009.50 0.1656466
1009.60 0.1655955
1009.70 0.1655444
1009.80 0.1654933
1009.90 0.1654423
1010.00 0.1653912
1010.10 0.1653402
1010.20 0.1652892
1010.30 0.1652382
1010.40 0.1651873
1010.50 0.1651363
1010.60 0.1650854
1010.70 0.1650345
1010.80 0.1649836
1010.90 0.1649327
1011.00 0.1648818
1011.10 0.1648312
1011.20 0.1647805
1011.30 0.1647299
1011.40 0.1646793
1011.50 0.1646287
1011.60 0.1645781
1011.70 0.1645276
1011.80 0.164477
1011.90 0.1644265
1012.00 0.164376
1012.10 0.1643255
1012.20 0.164275
1012.30 0.1642245
1012.40 0.1641741
1012.50 0.1641237
1012.60 0.1640732
1012.70 0.1640229
1012.80 0.1639725
1012.90 0.1639221
1013.00 0.1638718
1013.10 0.1638214
1013.20 0.1637711
1013.30 0.1637208
1013.40 0.1636706
1013.50 0.1636203
1013.60 0.16357
1013.70 0.1635198
1013.80 0.1634696
1013.90 0.1634194
1014.00 0.1633692
1014.10 0.1633191
1014.20 0.1632689
1014.30 0.1632188
1014.40 0.1631687
1014.50 0.1631186
1014.60 0.1630685
1014.70 0.1630184
1014.80 0.1629684
1014.90 0.1629184
1015.00 0.1628684
1015.10 0.1628184
1015.20 0.1627684
1015.30 0.1627184
1015.40 0.1626685
1015.50 0.1626185
1015.60 0.1625686
1015.70 0.1625187
1015.80 0.1624688
1015.90 0.162419
1016.00 0.1623691
1016.10 0.1623193
1016.20 0.1622695
1016.30 0.1622197
1016.40 0.1621699
1016.50 0.1621201
1016.60 0.1620704
1016.70 0.1620207
1016.80 0.1619709
1016.90 0.1619212
1017.00 0.1618716
1017.10 0.1618219
1017.20 0.1617722
1017.30 0.1617226
1017.40 0.161673
1017.50 0.1616234
1017.60 0.1615738
1017.70 0.1615242
1017.80 0.1614747
1017.90 0.1614252
1018.00 0.1613756
1018.10 0.1613261
1018.20 0.1612766
1018.30 0.1612272
1018.40 0.1611777
1018.50 0.1611283
1018.60 0.1610789
1018.70 0.1610295
1018.80 0.1609801
1018.90 0.1609307
1019.00 0.1608813
1019.10 0.160832
1019.20 0.1607827
1019.30 0.1607334
1019.40 0.1606841
1019.50 0.1606348
1019.60 0.1605855
1019.70 0.1605363
1019.80 0.1604871
1019.90 0.1604379
1020.00 0.1603887
1020.10 0.1603395
1020.20 0.1602903
1020.30 0.1602412
1020.40 0.160192
1020.50 0.1601429
1020.60 0.1600938
1020.70 0.1600448
1020.80 0.1599957
1020.90 0.1599466
1021.00 0.1598976
1021.10 0.1598487
1021.20 0.1598013
1021.30 0.159754
1021.40 0.1597067
1021.50 0.1596594
1021.60 0.1596121
1021.70 0.1595648
1021.80 0.1595175
1021.90 0.1594702
1022.00 0.159423
1022.10 0.1593758
1022.20 0.1593286
1022.30 0.1592814
1022.40 0.1592342
1022.50 0.159187
1022.60 0.1591399
1022.70 0.1590928
1022.80 0.1590456
1022.90 0.1589985
1023.00 0.1589515
1023.10 0.1589044
1023.20 0.1588573
1023.30 0.1588103
1023.40 0.1587633
1023.50 0.1587163
1023.60 0.1586693
1023.70 0.1586223
1023.80 0.1585753
1023.90 0.1585284
1024.00 0.1584814
1024.10 0.1584345
1024.20 0.1583876
1024.30 0.1583407
1024.40 0.1582939
1024.50 0.158247
1024.60 0.1582002
1024.70 0.1581533
1024.80 0.1581065
1024.90 0.1580597
1025.00 0.158013
1025.10 0.1579662
1025.20 0.1579194
1025.30 0.1578727
1025.40 0.157826
1025.50 0.1577793
1025.60 0.1577326
1025.70 0.1576859
1025.80 0.1576393
1025.90 0.1575926
1026.00 0.157546
1026.10 0.1574994
1026.20 0.1574528
1026.30 0.1574047
1026.40 0.1573567
1026.50 0.1573087
1026.60 0.1572607
1026.70 0.1572128
1026.80 0.1571648
1026.90 0.1571169
1027.00 0.157069
1027.10 0.1570211
1027.20 0.1569732
1027.30 0.1569253
1027.40 0.1568774
1027.50 0.1568296
1027.60 0.1567818
1027.70 0.156734
1027.80 0.1566862
1027.90 0.1566384
1028.00 0.1565906
1028.10 0.1565429
1028.20 0.1564951
1028.30 0.1564474
1028.40 0.1563997
1028.50 0.156352
1028.60 0.1563044
1028.70 0.1562567
1028.80 0.1562091
1028.90 0.1561615
1029.00 0.1561138
1029.10 0.1560663
1029.20 0.1560187
1029.30 0.1559711
1029.40 0.1559236
1029.50 0.155876
1029.60 0.1558285
1029.70 0.155781
1029.80 0.1557335
1029.90 0.1556861
1030.00 0.1556386
1030.10 0.1555912
1030.20 0.1555438
1030.30 0.1554964
1030.40 0.155449
1030.50 0.1554016
1030.60 0.1553542
1030.70 0.1553069
1030.80 0.1552596
1030.90 0.1552122
1031.00 0.1551649
1031.10 0.1551177
1031.20 0.1550704
1031.30 0.1550231
1031.40 0.1549761
1031.50 0.154929
1031.60 0.154882
1031.70 0.154835
1031.80 0.154788
1031.90 0.154741
1032.00 0.154694
1032.10 0.1546471
1032.20 0.1546001
1032.30 0.1545532
1032.40 0.1545063
1032.50 0.1544594
1032.60 0.1544125
1032.70 0.1543656
1032.80 0.1543188
1032.90 0.154272
1033.00 0.1542251
1033.10 0.1541783
1033.20 0.1541315
1033.30 0.1540848
1033.40 0.154038
1033.50 0.1539913
1033.60 0.1539445
1033.70 0.1538978
1033.80 0.1538511
1033.90 0.1538045
1034.00 0.1537578
1034.10 0.1537111
1034.20 0.1536645
1034.30 0.1536179
1034.40 0.1535713
1034.50 0.1535247
1034.60 0.1534781
1034.70 0.1534315
1034.80 0.153385
1034.90 0.1533385
1035.00 0.153292
1035.10 0.1532455
1035.20 0.153199
1035.30 0.1531525
1035.40 0.153106
1035.50 0.1530596
1035.60 0.1530132
1035.70 0.1529668
1035.80 0.1529204
1035.90 0.152874
1036.00 0.1528276
1036.10 0.1527813
1036.20 0.1527349
1036.30 0.1526886
1036.40 0.1526423
1036.50 0.152596
1036.60 0.1525498
1036.70 0.1525035
1036.80 0.1524572
1036.90 0.152411
1037.00 0.1523648
1037.10 0.1523186
1037.20 0.1522724
1037.30 0.1522262
1037.40 0.1521801
1037.50 0.1521339
1037.60 0.1520878
1037.70 0.1520417
1037.80 0.1519956
1037.90 0.1519495
1038.00 0.1519034
1038.10 0.1518574
1038.20 0.1518114
1038.30 0.1517653
1038.40 0.1517193
1038.50 0.1516733
1038.60 0.1516274
1038.70 0.1515814
1038.80 0.1515354
1038.90 0.1514895
1039.00 0.1514436
1039.10 0.1513977
1039.20 0.1513518
1039.30 0.1513059
1039.40 0.1512601
1039.50 0.1512142
1039.60 0.1511684
1039.70 0.1511226
1039.80 0.1510768
1039.90 0.151031
1040.00 0.1509852
1040.10 0.1509395
1040.20 0.1508937
1040.30 0.150848
1040.40 0.1508023
1040.50 0.1507566
1040.60 0.1507109
1040.70 0.1506652
1040.80 0.1506196
1040.90 0.150574
1041.00 0.1505283
1041.10 0.1504827
1041.20 0.1504371
1041.30 0.1503915
1041.40 0.150346
1041.50 0.1503004
1041.60 0.1502549
1041.70 0.1502095
1041.80 0.1501642
1041.90 0.1501189
1042.00 0.1500736
1042.10 0.1500283
1042.20 0.149983
1042.30 0.1499377
1042.40 0.1498925
1042.50 0.1498472
1042.60 0.149802
1042.70 0.1497568
1042.80 0.1497116
1042.90 0.1496664
1043.00 0.1496213
1043.10 0.1495761
1043.20 0.149531
1043.30 0.1494859
1043.40 0.1494408
1043.50 0.1493957
1043.60 0.1493506
1043.70 0.1493055
1043.80 0.1492605
1043.90 0.1492155
1044.00 0.1491704
1044.10 0.1491254
1044.20 0.1490804
1044.30 0.1490355
1044.40 0.1489905
1044.50 0.1489456
1044.60 0.1489006
1044.70 0.1488557
1044.80 0.1488108
1044.90 0.1487659
1045.00 0.1487211
1045.10 0.1486762
1045.20 0.1486314
1045.30 0.1485865
1045.40 0.1485417
1045.50 0.1484969
1045.60 0.1484521
1045.70 0.1484074
1045.80 0.1483626
1045.90 0.1483178
1046.00 0.1482731
1046.10 0.1482284
1046.20 0.1481837
1046.30 0.148139
1046.40 0.1480944
1046.50 0.1480497
1046.60 0.1480051
1046.70 0.1479604
1046.80 0.1479158
1046.90 0.1478722
1047.00 0.147829
1047.10 0.1477858
1047.20 0.1477426
1047.30 0.1476994
1047.40 0.1476563
1047.50 0.1476131
1047.60 0.14757
1047.70 0.1475268
1047.80 0.1474837
1047.90 0.1474406
1048.00 0.1473975
1048.10 0.1473545
1048.20 0.1473114
1048.30 0.1472684
1048.40 0.1472253
1048.50 0.1471823
1048.60 0.1471393
1048.70 0.1470963
1048.80 0.1470533
1048.90 0.1470104
1049.00 0.1469674
1049.10 0.1469245
1049.20 0.1468816
1049.30 0.1468387
1049.40 0.1467958
1049.50 0.1467529
1049.60 0.14671
1049.70 0.1466672
1049.80 0.1466243
1049.90 0.1465815
1050.00 0.1465387
1050.10 0.1464959
1050.20 0.1464531
1050.30 0.1464104
1050.40 0.1463676
1050.50 0.1463249
1050.60 0.1462821
1050.70 0.1462394
1050.80 0.1461967
1050.90 0.146154
1051.00 0.1461113
1051.10 0.1460687
1051.20 0.146026
1051.30 0.1459834
1051.40 0.1459408
1051.50 0.1458982
1051.60 0.1458556
1051.70 0.145813
1051.80 0.1457704
1051.90 0.1457279
1052.00 0.1456853
1052.10 0.145642
1052.20 0.1455983
1052.30 0.1455546
1052.40 0.145511
1052.50 0.1454673
1052.60 0.1454237
1052.70 0.14538
1052.80 0.1453364
1052.90 0.1452928
1053.00 0.1452492
1053.10 0.1452057
1053.20 0.1451621
1053.30 0.1451185
1053.40 0.145075
1053.50 0.1450315
1053.60 0.144988
1053.70 0.1449445
1053.80 0.144901
1053.90 0.1448576
1054.00 0.1448141
1054.10 0.1447707
1054.20 0.1447273
1054.30 0.1446839
1054.40 0.1446405
1054.50 0.1445971
1054.60 0.1445537
1054.70 0.1445104
1054.80 0.144467
1054.90 0.1444237
1055.00 0.1443804
1055.10 0.1443371
1055.20 0.1442938
1055.30 0.1442506
1055.40 0.1442073
1055.50 0.1441641
1055.60 0.1441208
1055.70 0.1440776
1055.80 0.1440344
1055.90 0.1439912
1056.00 0.1439481
1056.10 0.1439049
1056.20 0.1438618
1056.30 0.1438186
1056.40 0.1437755
1056.50 0.1437324
1056.60 0.1436893
1056.70 0.1436462
1056.80 0.1436032
1056.90 0.1435601
1057.00 0.1435171
1057.10 0.1434741
1057.20 0.1434311
1057.30 0.1433881
1057.40 0.1433451
1057.50 0.1433021
1057.60 0.1432592
1057.70 0.1432162
1057.80 0.1431733
1057.90 0.1431304
1058.00 0.1430875
1058.10 0.1430446
1058.20 0.1430018
1058.30 0.1429589
1058.40 0.1429161
1058.50 0.1428732
1058.60 0.1428304
1058.70 0.1427876
1058.80 0.1427448
1058.90 0.142702
1059.00 0.1426593
1059.10 0.1426165
1059.20 0.1425738
1059.30 0.1425311
1059.40 0.1424884
1059.50 0.1424457
1059.60 0.142403
1059.70 0.1423603
1059.80 0.1423177
1059.90 0.142275
1060.00 0.1422324
1060.10 0.1421898
1060.20 0.1421472
1060.30 0.1421046
1060.40 0.1420621
1060.50 0.1420195
1060.60 0.141977
1060.70 0.1419344
1060.80 0.1418919
1060.90 0.1418494
1061.00 0.1418069
1061.10 0.1417644
1061.20 0.141722
1061.30 0.1416795
1061.40 0.1416371
1061.50 0.1415947
1061.60 0.1415523
1061.70 0.1415099
1061.80 0.1414675
1061.90 0.1414251
1062.00 0.1413828
1062.10 0.1413404
1062.20 0.1412981
1062.30 0.1412558
1062.40 0.1412135
1062.50 0.1411712
1062.60 0.141129
1062.70 0.1410869
1062.80 0.1410448
1062.90 0.1410027
1063.00 0.1409606
1063.10 0.1409186
1063.20 0.1408765
1063.30 0.1408345
1063.40 0.1407925
1063.50 0.1407505
1063.60 0.1407085
1063.70 0.1406665
1063.80 0.1406246
1063.90 0.1405826
1064.00 0.1405407
1064.10 0.1404988
1064.20 0.1404569
1064.30 0.140415
1064.40 0.1403731
1064.50 0.1403312
1064.60 0.1402894
1064.70 0.1402475
1064.80 0.1402057
1064.90 0.1401639
1065.00 0.1401221
1065.10 0.1400803
1065.20 0.1400385
1065.30 0.1399968
1065.40 0.139955
1065.50 0.1399133
1065.60 0.1398716
1065.70 0.1398299
1065.80 0.1397882
1065.90 0.1397465
1066.00 0.1397048
1066.10 0.1396632
1066.20 0.1396215
1066.30 0.1395799
1066.40 0.1395383
1066.50 0.1394967
1066.60 0.1394551
1066.70 0.1394135
1066.80 0.139372
1066.90 0.1393304
1067.00 0.1392889
1067.10 0.1392473
1067.20 0.1392058
1067.30 0.1391643
1067.40 0.1391228
1067.50 0.1390814
1067.60 0.1390399
1067.70 0.1389985
1067.80 0.138957
1067.90 0.138916
1068.00 0.1388759
1068.10 0.1388358
1068.20 0.1387957
1068.30 0.1387556
1068.40 0.1387155
1068.50 0.1386755
1068.60 0.1386354
1068.70 0.1385954
1068.80 0.1385554
1068.90 0.1385154
1069.00 0.1384754
1069.10 0.1384354
1069.20 0.1383954
1069.30 0.1383554
1069.40 0.1383155
1069.50 0.1382755
1069.60 0.1382356
1069.70 0.1381957
1069.80 0.1381558
1069.90 0.1381159
1070.00 0.138076
1070.10 0.1380362
1070.20 0.1379963
1070.30 0.1379565
1070.40 0.1379167
1070.50 0.1378769
1070.60 0.1378371
1070.70 0.1377973
1070.80 0.1377575
1070.90 0.1377177
1071.00 0.137678
1071.10 0.1376382
1071.20 0.1375985
1071.30 0.1375588
1071.40 0.1375191
1071.50 0.1374794
1071.60 0.1374397
1071.70 0.1374001
1071.80 0.1373604
1071.90 0.1373208
1072.00 0.1372812
1072.10 0.1372415
1072.20 0.1372019
1072.30 0.1371624
1072.40 0.1371228
1072.50 0.1370832
1072.60 0.1370437
1072.70 0.1370041
1072.80 0.1369646
1072.90 0.1369251
1073.00 0.1368856
1073.10 0.1368461
1073.20 0.1368064
1073.30 0.1367658
1073.40 0.1367252
1073.50 0.1366847
1073.60 0.1366441
1073.70 0.1366036
1073.80 0.1365631
1073.90 0.1365226
1074.00 0.1364821
1074.10 0.1364416
1074.20 0.1364011
1074.30 0.1363607
1074.40 0.1363202
1074.50 0.1362798
1074.60 0.1362394
1074.70 0.136199
1074.80 0.1361586
1074.90 0.1361182
1075.00 0.1360778
1075.10 0.1360375
1075.20 0.1359971
1075.30 0.1359568
1075.40 0.1359165
1075.50 0.1358762
1075.60 0.1358359
1075.70 0.1357956
1075.80 0.1357554
1075.90 0.1357151
1076.00 0.1356749
1076.10 0.1356346
1076.20 0.1355944
1076.30 0.1355542
1076.40 0.135514
1076.50 0.1354739
1076.60 0.1354337
1076.70 0.1353935
1076.80 0.1353534
1076.90 0.1353133
1077.00 0.1352732
1077.10 0.1352331
1077.20 0.135193
1077.30 0.1351529
1077.40 0.1351128
1077.50 0.1350728
1077.60 0.1350327
1077.70 0.1349927
1077.80 0.1349527
1077.90 0.1349127
1078.00 0.1348727
1078.10 0.1348327
1078.20 0.1347928
1078.30 0.1347528
1078.40 0.1347129
1078.50 0.134673
1078.60 0.134633
1078.70 0.1345931
1078.80 0.1345533
1078.90 0.1345134
1079.00 0.1344735
1079.10 0.1344337
1079.20 0.1343938
1079.30 0.134354
1079.40 0.1343142
1079.50 0.1342744
1079.60 0.1342346
1079.70 0.1341948
1079.80 0.1341551
1079.90 0.1341153
1080.00 0.1340756
1080.10 0.1340358
1080.20 0.1339961
1080.30 0.1339564
1080.40 0.1339167
1080.50 0.1338771
1080.60 0.1338374
1080.70 0.1337977
1080.80 0.1337581
1080.90 0.1337185
1081.00 0.1336789
1081.10 0.1336393
1081.20 0.1335997
1081.30 0.1335601
1081.40 0.1335205
1081.50 0.133481
1081.60 0.1334414
1081.70 0.1334019
1081.80 0.1333624
1081.90 0.1333229
1082.00 0.1332834
1082.10 0.1332439
1082.20 0.1332044
1082.30 0.133165
1082.40 0.1331255
1082.50 0.1330861
1082.60 0.1330467
1082.70 0.1330073
1082.80 0.1329679
1082.90 0.1329285
1083.00 0.1328891
1083.10 0.1328498
1083.20 0.1328104
1083.30 0.1327711
1083.40 0.1327318
1083.50 0.1326925
1083.60 0.1326532
1083.70 0.1326139
1083.80 0.1325746
1083.90 0.1325354
1084.00 0.1324973
1084.10 0.1324595
1084.20 0.1324216
1084.30 0.1323838
1084.40 0.132346
1084.50 0.1323081
1084.60 0.1322703
1084.70 0.1322325
1084.80 0.1321947
1084.90 0.132157
1085.00 0.1321192
1085.10 0.1320815
1085.20 0.1320437
1085.30 0.132006
1085.40 0.1319683
1085.50 0.1319306
1085.60 0.1318929
1085.70 0.1318552
1085.80 0.1318175
1085.90 0.1317799
1086.00 0.1317422
1086.10 0.1317046
1086.20 0.131667
1086.30 0.1316294
1086.40 0.1315918
1086.50 0.1315542
1086.60 0.1315166
1086.70 0.1314791
1086.80 0.1314415
1086.90 0.131404
1087.00 0.1313664
1087.10 0.1313289
1087.20 0.1312914
1087.30 0.1312539
1087.40 0.1312164
1087.50 0.131179
1087.60 0.1311415
1087.70 0.1311041
1087.80 0.1310666
1087.90 0.1310292
1088.00 0.1309918
1088.10 0.1309544
1088.20 0.130917
1088.30 0.1308796
1088.40 0.1308422
1088.50 0.1308049
1088.60 0.1307675
1088.70 0.1307302
1088.80 0.1306929
1088.90 0.1306556
1089.00 0.1306183
1089.10 0.130581
1089.20 0.1305437
1089.30 0.1305065
1089.40 0.1304684
1089.50 0.1304299
1089.60 0.1303915
1089.70 0.1303531
1089.80 0.1303146
1089.90 0.1302762
1090.00 0.1302378
1090.10 0.1301995
1090.20 0.1301611
1090.30 0.1301227
1090.40 0.1300844
1090.50 0.1300461
1090.60 0.1300077
1090.70 0.1299694
1090.80 0.1299311
1090.90 0.1298929
1091.00 0.1298546
1091.10 0.1298163
1091.20 0.1297781
1091.30 0.1297398
1091.40 0.1297016
1091.50 0.1296634
1091.60 0.1296252
1091.70 0.129587
1091.80 0.1295488
1091.90 0.1295107
1092.00 0.1294725
1092.10 0.1294344
1092.20 0.1293962
1092.30 0.1293581
1092.40 0.12932
1092.50 0.1292819
1092.60 0.1292438
1092.70 0.1292058
1092.80 0.1291677
1092.90 0.1291296
1093.00 0.1290916
1093.10 0.1290536
1093.20 0.1290156
1093.30 0.1289776
1093.40 0.1289396
1093.50 0.1289016
1093.60 0.1288636
1093.70 0.1288257
1093.80 0.1287877
1093.90 0.1287498
1094.00 0.1287119
1094.10 0.128674
1094.20 0.1286361
1094.30 0.1285982
1094.40 0.1285603
1094.50 0.1285225
1094.60 0.1284846
1094.70 0.1284468
1094.80 0.1284093
1094.90 0.1283722
1095.00 0.1283352
1095.10 0.1282981
1095.20 0.1282611
1095.30 0.128224
1095.40 0.128187
1095.50 0.12815
1095.60 0.128113
1095.70 0.128076
1095.80 0.1280391
1095.90 0.1280021
1096.00 0.1279651
1096.10 0.1279282
1096.20 0.1278913
1096.30 0.1278543
1096.40 0.1278174
1096.50 0.1277805
1096.60 0.1277437
1096.70 0.1277068
1096.80 0.1276699
1096.90 0.1276331
1097.00 0.1275962
1097.10 0.1275594
1097.20 0.1275226
1097.30 0.1274858
1097.40 0.127449
1097.50 0.1274122
1097.60 0.1273754
1097.70 0.1273387
1097.80 0.1273019
1097.90 0.1272652
1098.00 0.1272285
1098.10 0.1271918
1098.20 0.127155
1098.30 0.1271184
1098.40 0.1270817
1098.50 0.127045
1098.60 0.1270083
1098.70 0.1269717
1098.80 0.1269351
1098.90 0.1268984
1099.00 0.1268618
1099.10 0.1268252
1099.20 0.1267886
1099.30 0.126752
1099.40 0.1267155
1099.50 0.1266789
1099.60 0.1266424
1099.70 0.1266058
1099.80 0.1265693
1099.90 0.1265328
1100.00 0.1264963
1100.10 0.1264598
1100.20 0.1264233
1100.30 0.1263869
1100.40 0.1263504
1100.50 0.126314
1100.60 0.1262775
1100.70 0.1262411
1100.80 0.1262047
1100.90 0.1261683
1101.00 0.1261319
1101.10 0.1260955
1101.20 0.1260592
1101.30 0.1260228
1101.40 0.1259864
1101.50 0.1259501
1101.60 0.1259138
1101.70 0.1258775
1101.80 0.1258412
1101.90 0.1258049
1102.00 0.1257686
1102.10 0.1257323
1102.20 0.1256961
1102.30 0.1256598
1102.40 0.1256236
1102.50 0.1255874
1102.60 0.1255512
1102.70 0.125515
1102.80 0.1254788
1102.90 0.1254426
1103.00 0.1254064
1103.10 0.1253703
1103.20 0.1253341
1103.30 0.125298
1103.40 0.1252619
1103.50 0.1252258
1103.60 0.1251897
1103.70 0.1251536
1103.80 0.1251175
1103.90 0.1250814
1104.00 0.1250454
1104.10 0.1250093
1104.20 0.1249733
1104.30 0.1249372
1104.40 0.1249012
1104.50 0.1248652
1104.60 0.1248292
1104.70 0.1247933
1104.80 0.1247573
1104.90 0.1247213
1105.00 0.1246854
1105.10 0.1246494
1105.20 0.1246135
1105.30 0.1245776
1105.40 0.1245417
1105.50 0.1245058
1105.60 0.1244699
1105.70 0.1244341
1105.80 0.1243983
1105.90 0.1243626
1106.00 0.1243269
1106.10 0.1242912
1106.20 0.1242555
1106.30 0.1242198
1106.40 0.1241842
1106.50 0.1241485
1106.60 0.1241129
1106.70 0.1240773
1106.80 0.1240416
1106.90 0.124006
1107.00 0.1239704
1107.10 0.1239348
1107.20 0.1238993
1107.30 0.1238637
1107.40 0.1238281
1107.50 0.1237926
1107.60 0.1237571
1107.70 0.1237215
1107.80 0.123686
1107.90 0.1236505
1108.00 0.123615
1108.10 0.1235796
1108.20 0.1235441
1108.30 0.1235086
1108.40 0.1234732
1108.50 0.1234378
1108.60 0.1234023
1108.70 0.1233669
1108.80 0.1233315
1108.90 0.1232961
1109.00 0.1232607
1109.10 0.1232254
1109.20 0.12319
1109.30 0.1231547
1109.40 0.1231193
1109.50 0.123084
1109.60 0.1230487
1109.70 0.1230134
1109.80 0.1229781
1109.90 0.1229428
1110.00 0.1229075
1110.10 0.1228722
1110.20 0.122837
1110.30 0.1228017
1110.40 0.1227665
1110.50 0.1227313
1110.60 0.1226961
1110.70 0.1226609
1110.80 0.1226257
1110.90 0.1225905
1111.00 0.1225553
1111.10 0.1225202
1111.20 0.122485
1111.30 0.1224499
1111.40 0.1224148
1111.50 0.1223797
1111.60 0.1223446
1111.70 0.1223095
1111.80 0.1222744
1111.90 0.1222393
1112.00 0.1222042
1112.10 0.1221692
1112.20 0.1221342
1112.30 0.1220991
1112.40 0.1220641
1112.50 0.1220291
1112.60 0.1219941
1112.70 0.1219591
1112.80 0.1219241
1112.90 0.1218892
1113.00 0.1218542
1113.10 0.1218193
1113.20 0.1217843
1113.30 0.1217494
1113.40 0.1217145
1113.50 0.1216796
1113.60 0.1216447
1113.70 0.1216098
1113.80 0.121575
1113.90 0.1215401
1114.00 0.1215052
1114.10 0.1214704
1114.20 0.1214356
1114.30 0.1214008
1114.40 0.121366
1114.50 0.1213312
1114.60 0.1212964
1114.70 0.1212616
1114.80 0.1212268
1114.90 0.1211921
1115.00 0.1211573
1115.10 0.1211226
1115.20 0.1210879
1115.30 0.1210532
1115.40 0.1210185
1115.50 0.1209838
1115.60 0.1209491
1115.70 0.1209144
1115.80 0.1208798
1115.90 0.1208451
1116.00 0.1208105
1116.10 0.1207758
1116.20 0.1207412
1116.30 0.1207066
1116.40 0.120672
1116.50 0.1206374
1116.60 0.1206029
1116.70 0.1205683
1116.80 0.1205335
1116.90 0.1204986
1117.00 0.1204636
1117.10 0.1204286
1117.20 0.1203937
1117.30 0.1203588
1117.40 0.1203239
1117.50 0.1202889
1117.60 0.120254
1117.70 0.1202192
1117.80 0.1201843
1117.90 0.1201494
1118.00 0.1201145
1118.10 0.1200797
1118.20 0.1200449
1118.30 0.12001
1118.40 0.1199752
1118.50 0.1199404
1118.60 0.1199056
1118.70 0.1198708
1118.80 0.1198361
1118.90 0.1198013
1119.00 0.1197665
1119.10 0.1197318
1119.20 0.1196971
1119.30 0.1196624
1119.40 0.1196276
1119.50 0.1195929
1119.60 0.1195583
1119.70 0.1195236
1119.80 0.1194889
1119.90 0.1194542
1120.00 0.1194196
1120.10 0.119385
1120.20 0.1193503
1120.30 0.1193157
1120.40 0.1192811
1120.50 0.1192465
1120.60 0.1192119
1120.70 0.1191774
1120.80 0.1191428
1120.90 0.1191082
1121.00 0.1190737
1121.10 0.1190392
1121.20 0.1190046
1121.30 0.1189701
1121.40 0.1189356
1121.50 0.1189011
1121.60 0.1188667
1121.70 0.1188322
1121.80 0.1187977
1121.90 0.1187633
1122.00 0.1187288
1122.10 0.1186944
1122.20 0.11866
1122.30 0.1186256
1122.40 0.1185919
1122.50 0.1185586
1122.60 0.1185253
1122.70 0.118492
1122.80 0.1184588
1122.90 0.1184255
1123.00 0.1183923
1123.10 0.1183591
1123.20 0.1183259
1123.30 0.1182927
1123.40 0.1182595
1123.50 0.1182263
1123.60 0.1181931
1123.70 0.1181599
1123.80 0.1181268
1123.90 0.1180936
1124.00 0.1180605
1124.10 0.1180274
1124.20 0.1179943
1124.30 0.1179612
1124.40 0.1179281
1124.50 0.117895
1124.60 0.1178619
1124.70 0.1178288
1124.80 0.1177958
1124.90 0.1177627
1125.00 0.1177297
1125.10 0.1176967
1125.20 0.1176636
1125.30 0.1176306
1125.40 0.1175976
1125.50 0.1175647
1125.60 0.1175317
1125.70 0.1174987
1125.80 0.1174658
1125.90 0.1174328
1126.00 0.1173999
1126.10 0.1173669
1126.20 0.117334
1126.30 0.1173011
1126.40 0.1172682
1126.50 0.1172353
1126.60 0.1172025
1126.70 0.1171696
1126.80 0.1171367
1126.90 0.1171039
1127.00 0.117071
1127.10 0.1170382
1127.20 0.1170054
1127.30 0.1169726
1127.40 0.1169398
1127.50 0.116907
1127.60 0.1168742
1127.70 0.1168414
1127.80 0.1168087
1127.90 0.1167759
1128.00 0.1167429
1128.10 0.1167097
1128.20 0.1166766
1128.30 0.1166434
1128.40 0.1166103
1128.50 0.1165772
1128.60 0.1165441
1128.70 0.116511
1128.80 0.1164779
1128.90 0.1164448
1129.00 0.1164118
1129.10 0.1163787
1129.20 0.1163457
1129.30 0.1163127
1129.40 0.1162796
1129.50 0.1162466
1129.60 0.1162136
1129.70 0.1161806
1129.80 0.1161476
1129.90 0.1161147
1130.00 0.1160817
1130.10 0.1160488
1130.20 0.1160158
1130.30 0.1159829
1130.40 0.11595
1130.50 0.115917
1130.60 0.1158841
1130.70 0.1158512
1130.80 0.1158184
1130.90 0.1157855
1131.00 0.1157526
1131.10 0.1157198
1131.20 0.1156869
1131.30 0.1156541
1131.40 0.1156212
1131.50 0.1155884
1131.60 0.1155556
1131.70 0.1155228
1131.80 0.11549
1131.90 0.1154573
1132.00 0.1154245
1132.10 0.1153917
1132.20 0.115359
1132.30 0.1153263
1132.40 0.1152935
1132.50 0.1152608
1132.60 0.1152281
1132.70 0.1151954
1132.80 0.1151627
1132.90 0.11513
1133.00 0.1150974
1133.10 0.1150647
1133.20 0.1150321
1133.30 0.1149994
1133.40 0.1149668
1133.50 0.1149342
1133.60 0.1149015
1133.70 0.1148689
1133.80 0.1148364
1133.90 0.1148038
1134.00 0.1147712
1134.10 0.1147386
1134.20 0.1147061
1134.30 0.1146735
1134.40 0.114641
1134.50 0.1146085
1134.60 0.114576
1134.70 0.1145435
1134.80 0.114511
1134.90 0.1144785
1135.00 0.114446
1135.10 0.1144135
1135.20 0.1143811
1135.30 0.1143486
1135.40 0.1143162
1135.50 0.1142838
1135.60 0.1142514
1135.70 0.1142189
1135.80 0.1141865
1135.90 0.1141542
1136.00 0.1141218
1136.10 0.1140894
1136.20 0.1140571
1136.30 0.1140247
1136.40 0.1139924
1136.50 0.11396
1136.60 0.1139277
1136.70 0.1138954
1136.80 0.1138631
1136.90 0.1138308
1137.00 0.1137985
1137.10 0.1137662
1137.20 0.113734
1137.30 0.1137017
1137.40 0.1136695
1137.50 0.1136372
1137.60 0.113605
1137.70 0.1135728
1137.80 0.1135406
1137.90 0.1135084
1138.00 0.1134762
1138.10 0.113444
1138.20 0.1134119
1138.30 0.1133797
1138.40 0.1133476
1138.50 0.1133154
1138.60 0.1132833
1138.70 0.1132512
1138.80 0.1132191
1138.90 0.113187
1139.00 0.1131549
1139.10 0.1131228
1139.20 0.1130907
1139.30 0.1130588
1139.40 0.1130268
1139.50 0.1129949
1139.60 0.112963
1139.70 0.1129311
1139.80 0.1128992
1139.90 0.1128673
1140.00 0.1128354
1140.10 0.1128036
1140.20 0.1127717
1140.30 0.1127399
1140.40 0.112708
1140.50 0.1126762
1140.60 0.1126444
1140.70 0.1126126
1140.80 0.1125808
1140.90 0.112549
1141.00 0.1125172
1141.10 0.1124854
1141.20 0.1124536
1141.30 0.1124219
1141.40 0.1123901
1141.50 0.1123584
1141.60 0.1123267
1141.70 0.112295
1141.80 0.1122633
1141.90 0.1122316
1142.00 0.1121999
1142.10 0.1121682
1142.20 0.1121365
1142.30 0.1121049
1142.40 0.1120732
1142.50 0.1120416
1142.60 0.1120099
1142.70 0.1119783
1142.80 0.1119467
1142.90 0.1119151
1143.00 0.1118835
1143.10 0.1118519
1143.20 0.1118203
1143.30 0.1117888
1143.40 0.1117572
1143.50 0.1117257
1143.60 0.1116941
1143.70 0.1116626
1143.80 0.1116311
1143.90 0.1115996
1144.00 0.1115681
1144.10 0.1115366
1144.20 0.1115051
1144.30 0.1114736
1144.40 0.1114421
1144.50 0.1114107
1144.60 0.1113792
1144.70 0.1113478
1144.80 0.1113164
1144.90 0.111285
1145.00 0.1112536
1145.10 0.1112222
1145.20 0.1111908
1145.30 0.1111594
1145.40 0.111128
1145.50 0.1110967
1145.60 0.1110653
1145.70 0.111034
1145.80 0.1110026
1145.90 0.1109713
1146.00 0.11094
1146.10 0.1109087
1146.20 0.1108774
1146.30 0.1108461
1146.40 0.1108148
1146.50 0.1107835
1146.60 0.1107523
1146.70 0.110721
1146.80 0.1106898
1146.90 0.1106585
1147.00 0.1106273
1147.10 0.1105961
1147.20 0.1105649
1147.30 0.1105337
1147.40 0.1105025
1147.50 0.1104713
1147.60 0.1104402
1147.70 0.110409
1147.80 0.1103779
1147.90 0.1103467
1148.00 0.1103156
1148.10 0.1102845
1148.20 0.1102534
1148.30 0.1102222
1148.40 0.1101912
1148.50 0.1101601
1148.60 0.110129
1148.70 0.1100979
1148.80 0.1100669
1148.90 0.1100358
1149.00 0.1100048
1149.10 0.1099737
1149.20 0.1099427
1149.30 0.1099117
1149.40 0.1098807
1149.50 0.1098497
1149.60 0.1098187
1149.70 0.1097877
1149.80 0.1097568
1149.90 0.1097258
1150.00 0.1096949
1150.10 0.1096639
1150.20 0.109633
1150.30 0.1096021
1150.40 0.1095712
1150.50 0.1095403
1150.60 0.1095093
1150.70 0.1094781
1150.80 0.1094468
1150.90 0.1094155
1151.00 0.1093843
1151.10 0.109353
1151.20 0.1093218
1151.30 0.1092906
1151.40 0.1092594
1151.50 0.1092281
1151.60 0.1091969
1151.70 0.1091658
1151.80 0.1091346
1151.90 0.1091034
1152.00 0.1090722
1152.10 0.1090411
1152.20 0.10901
1152.30 0.1089788
1152.40 0.1089477
1152.50 0.1089166
1152.60 0.1088855
1152.70 0.1088544
1152.80 0.1088233
1152.90 0.1087922
1153.00 0.1087611
1153.10 0.1087301
1153.20 0.108699
1153.30 0.108668
1153.40 0.108637
1153.50 0.1086059
1153.60 0.1085749
1153.70 0.1085439
1153.80 0.1085129
1153.90 0.1084819
1154.00 0.1084509
1154.10 0.10842
1154.20 0.108389
1154.30 0.1083581
1154.40 0.1083271
1154.50 0.1082962
1154.60 0.1082653
1154.70 0.1082344
1154.80 0.1082035
1154.90 0.1081726
1155.00 0.1081417
1155.10 0.1081108
1155.20 0.1080799
1155.30 0.1080491
1155.40 0.1080182
1155.50 0.1079874
1155.60 0.1079565
1155.70 0.1079257
1155.80 0.1078949
1155.90 0.1078641
1156.00 0.1078333
1156.10 0.1078025
1156.20 0.1077717
1156.30 0.107741
1156.40 0.1077107
1156.50 0.107681
1156.60 0.1076513
1156.70 0.1076216
1156.80 0.1075918
1156.90 0.1075621
1157.00 0.1075325
1157.10 0.1075028
1157.20 0.1074731
1157.30 0.1074434
1157.40 0.1074138
1157.50 0.1073841
1157.60 0.1073545
1157.70 0.1073248
1157.80 0.1072952
1157.90 0.1072656
1158.00 0.107236
1158.10 0.1072064
1158.20 0.1071768
1158.30 0.1071472
1158.40 0.1071176
1158.50 0.1070881
1158.60 0.1070585
1158.70 0.107029
1158.80 0.1069994
1158.90 0.1069699
1159.00 0.1069404
1159.10 0.1069109
1159.20 0.1068814
1159.30 0.1068519
1159.40 0.1068224
1159.50 0.1067929
1159.60 0.1067634
1159.70 0.106734
1159.80 0.1067045
1159.90 0.1066751
1160.00 0.1066456
1160.10 0.1066162
1160.20 0.1065868
1160.30 0.1065574
1160.40 0.106528
1160.50 0.1064986
1160.60 0.1064692
1160.70 0.1064398
1160.80 0.1064105
1160.90 0.1063811
1161.00 0.1063518
1161.10 0.1063224
1161.20 0.1062931
1161.30 0.1062638
1161.40 0.1062344
1161.50 0.1062051
1161.60 0.1061758
1161.70 0.1061465
1161.80 0.1061173
1161.90 0.106088
1162.00 0.1060587
1162.10 0.1060295
1162.20 0.1059993
1162.30 0.1059692
1162.40 0.1059391
1162.50 0.105909
1162.60 0.1058789
1162.70 0.1058488
1162.80 0.1058187
1162.90 0.1057887
1163.00 0.1057586
1163.10 0.1057285
1163.20 0.1056985
1163.30 0.1056685
1163.40 0.1056384
1163.50 0.1056084
1163.60 0.1055784
1163.70 0.1055484
1163.80 0.1055184
1163.90 0.1054884
1164.00 0.1054585
1164.10 0.1054285
1164.20 0.1053985
1164.30 0.1053686
1164.40 0.1053386
1164.50 0.1053087
1164.60 0.1052788
1164.70 0.1052489
1164.80 0.105219
1164.90 0.1051891
1165.00 0.1051592
1165.10 0.1051293
1165.20 0.1050994
1165.30 0.1050696
1165.40 0.1050397
1165.50 0.1050099
1165.60 0.1049801
1165.70 0.1049502
1165.80 0.1049204
1165.90 0.1048906
1166.00 0.1048608
1166.10 0.104831
1166.20 0.1048012
1166.30 0.1047714
1166.40 0.1047417
1166.50 0.1047119
1166.60 0.1046822
1166.70 0.1046524
1166.80 0.1046227
1166.90 0.104593
1167.00 0.1045633
1167.10 0.1045336
1167.20 0.1045039
1167.30 0.1044742
1167.40 0.1044445
1167.50 0.1044148
1167.60 0.1043852
1167.70 0.1043555
1167.80 0.1043259
1167.90 0.1042962
1168.00 0.1042675
1168.10 0.1042389
1168.20 0.1042102
1168.30 0.1041816
1168.40 0.104153
1168.50 0.1041244
1168.60 0.1040958
1168.70 0.1040672
1168.80 0.1040386
1168.90 0.1040101
1169.00 0.1039815
1169.10 0.1039529
1169.20 0.1039244
1169.30 0.1038959
1169.40 0.1038673
1169.50 0.1038388
1169.60 0.1038103
1169.70 0.1037818
1169.80 0.1037533
1169.90 0.1037248
1170.00 0.1036963
1170.10 0.1036679
1170.20 0.1036394
1170.30 0.1036109
1170.40 0.1035825
1170.50 0.1035541
1170.60 0.1035256
1170.70 0.1034972
1170.80 0.1034688
1170.90 0.1034404
1171.00 0.103412
1171.10 0.1033836
1171.20 0.1033552
1171.30 0.1033268
1171.40 0.1032985
1171.50 0.1032701
1171.60 0.1032418
1171.70 0.1032134
1171.80 0.1031851
1171.90 0.1031568
1172.00 0.1031285
1172.10 0.1031002
1172.20 0.1030719
1172.30 0.1030436
1172.40 0.1030153
1172.50 0.102987
1172.60 0.1029587
1172.70 0.1029305
1172.80 0.1029022
1172.90 0.102874
1173.00 0.1028458
1173.10 0.1028175
1173.20 0.1027893
1173.30 0.1027611
1173.40 0.1027329
1173.50 0.1027047
1173.60 0.1026765
1173.70 0.1026483
1173.80 0.1026203
1173.90 0.1025922
1174.00 0.1025642
1174.10 0.1025361
1174.20 0.1025081
1174.30 0.1024801
1174.40 0.102452
1174.50 0.102424
1174.60 0.102396
1174.70 0.102368
1174.80 0.10234
1174.90 0.1023121
1175.00 0.1022841
1175.10 0.1022561
1175.20 0.1022282
1175.30 0.1022002
1175.40 0.1021723
1175.50 0.1021444
1175.60 0.1021165
1175.70 0.1020885
1175.80 0.1020606
1175.90 0.1020327
1176.00 0.1020049
1176.10 0.101977
1176.20 0.1019491
1176.30 0.1019212
1176.40 0.1018934
1176.50 0.1018655
1176.60 0.1018377
1176.70 0.1018099
1176.80 0.101782
1176.90 0.1017542
1177.00 0.1017264
1177.10 0.1016986
1177.20 0.1016708
1177.30 0.101643
1177.40 0.1016153
1177.50 0.1015875
1177.60 0.1015597
1177.70 0.101532
1177.80 0.1015042
1177.90 0.1014765
1178.00 0.1014488
1178.10 0.101421
1178.20 0.1013933
1178.30 0.1013656
1178.40 0.1013379
1178.50 0.1013102
1178.60 0.1012825
1178.70 0.1012549
1178.80 0.1012272
1178.90 0.1011996
1179.00 0.1011719
1179.10 0.1011443
1179.20 0.1011166
1179.30 0.101089
1179.40 0.1010614
1179.50 0.1010338
1179.60 0.1010062
1179.70 0.1009786
1179.80 0.100951
1179.90 0.1009234
1180.00 0.1008959
1180.10 0.1008683
1180.20 0.1008407
1180.30 0.1008132
1180.40 0.1007857
1180.50 0.1007581
1180.60 0.1007306
1180.70 0.1007031
1180.80 0.1006756
1180.90 0.1006481
1181.00 0.1006206
1181.10 0.1005931
1181.20 0.1005656
1181.30 0.1005382
1181.40 0.1005107
1181.50 0.1004833
1181.60 0.1004558
1181.70 0.1004284
1181.80 0.100401
1181.90 0.1003735
1182.00 0.1003461
1182.10 0.1003187
1182.20 0.1002913
1182.30 0.1002639
1182.40 0.1002366
1182.50 0.1002092
1182.60 0.1001818
1182.70 0.1001545
1182.80 0.1001271
1182.90 0.1000998
1183.00 0.1000724
1183.10 0.1000451
1183.20 0.1000178
1183.30 0.09999049
1183.40 0.09996319
1183.50 0.0999359
1183.60 0.09990861
1183.70 0.09988133
1183.80 0.09985406
1183.90 0.0998268
1184.00 0.09979955
1184.10 0.0997723
1184.20 0.09974506
1184.30 0.09971783
1184.40 0.0996906
1184.50 0.09966339
1184.60 0.09963618
1184.70 0.09960898
1184.80 0.09958178
1184.90 0.0995546
1185.00 0.09952742
1185.10 0.09950025
1185.20 0.09947309
1185.30 0.09944594
1185.40 0.09941879
1185.50 0.0993913
1185.60 0.09936334
1185.70 0.09933538
1185.80 0.09930744
1185.90 0.0992795
1186.00 0.09925157
1186.10 0.09922365
1186.20 0.09919573
1186.30 0.09916783
1186.40 0.09913993
1186.50 0.09911204
1186.60 0.09908415
1186.70 0.09905628
1186.80 0.09902841
1186.90 0.09900056
1187.00 0.0989727
1187.10 0.09894486
1187.20 0.09891703
1187.30 0.0988892
1187.40 0.09886138
1187.50 0.09883357
1187.60 0.09880577
1187.70 0.09877797
1187.80 0.09875019
1187.90 0.09872241
1188.00 0.09869464
1188.10 0.09866688
1188.20 0.09863912
1188.30 0.09861137
1188.40 0.09858363
1188.50 0.0985559
1188.60 0.09852818
1188.70 0.09850046
1188.80 0.09847276
1188.90 0.09844506
1189.00 0.09841737
1189.10 0.09838968
1189.20 0.09836201
1189.30 0.09833434
1189.40 0.09830668
1189.50 0.09827903
1189.60 0.09825138
1189.70 0.09822375
1189.80 0.09819612
1189.90 0.0981685
1190.00 0.09814089
1190.10 0.09811328
1190.20 0.09808569
1190.30 0.0980581
1190.40 0.09803052
1190.50 0.09800294
1190.60 0.09797538
1190.70 0.09794782
1190.80 0.09792027
1190.90 0.09789273
1191.00 0.0978652
1191.10 0.09783767
1191.20 0.09781015
1191.30 0.09778264
1191.40 0.09775528
1191.50 0.09772871
1191.60 0.09770215
1191.70 0.09767559
1191.80 0.09764904
1191.90 0.0976225
1192.00 0.09759597
1192.10 0.09756945
1192.20 0.09754293
1192.30 0.09751642
1192.40 0.09748991
1192.50 0.09746342
1192.60 0.09743693
1192.70 0.09741045
1192.80 0.09738398
1192.90 0.09735751
1193.00 0.09733106
1193.10 0.09730461
1193.20 0.09727816
1193.30 0.09725173
1193.40 0.0972253
1193.50 0.09719888
1193.60 0.09717247
1193.70 0.09714606
1193.80 0.09711967
1193.90 0.09709328
1194.00 0.09706689
1194.10 0.09704052
1194.20 0.09701415
1194.30 0.09698779
1194.40 0.09696144
1194.50 0.09693509
1194.60 0.09690875
1194.70 0.09688242
1194.80 0.0968561
1194.90 0.09682979
1195.00 0.09680348
1195.10 0.09677718
1195.20 0.09675088
1195.30 0.0967246
1195.40 0.09669832
1195.50 0.09667205
1195.60 0.09664579
1195.70 0.09661953
1195.80 0.09659328
1195.90 0.09656704
1196.00 0.09654081
1196.10 0.09651458
1196.20 0.09648836
1196.30 0.09646215
1196.40 0.09643595
1196.50 0.09640975
1196.60 0.09638356
1196.70 0.09635738
1196.80 0.0963312
1196.90 0.09630504
1197.00 0.09627888
1197.10 0.09625272
1197.20 0.09622658
1197.30 0.09620044
1197.40 0.0961744
1197.50 0.09614838
1197.60 0.09612237
1197.70 0.09609636
1197.80 0.09607036
1197.90 0.09604437
1198.00 0.09601838
1198.10 0.0959924
1198.20 0.09596643
1198.30 0.09594047
1198.40 0.09591451
1198.50 0.09588857
1198.60 0.09586262
1198.70 0.09583669
1198.80 0.09581076
1198.90 0.09578485
1199.00 0.09575893
1199.10 0.09573303
1199.20 0.09570713
1199.30 0.09568124
1199.40 0.09565536
1199.50 0.09562948
1199.60 0.09560362
1199.70 0.09557776
1199.80 0.0955519
1199.90 0.09552606
1200.00 0.09550022
