# Version 2.1 - nm, norm@500 to 1, cut digits, bergeron_He_8000_70.dat_8000
# Wavelength(nm)  Flambda(ergs/cm^s/s/nm)
300.00 1.260335
300.10 1.260824
300.20 1.261329
300.30 1.261807
300.40 1.262119
300.50 1.262429
300.60 1.262739
300.70 1.263048
300.80 1.263357
300.90 1.263665
301.00 1.263972
301.10 1.264278
301.20 1.264584
301.30 1.264889
301.40 1.265194
301.50 1.265497
301.60 1.2658
301.70 1.266103
301.80 1.266404
301.90 1.266705
302.00 1.267006
302.10 1.267315
302.20 1.267625
302.30 1.267934
302.40 1.268243
302.50 1.268551
302.60 1.268858
302.70 1.269164
302.80 1.26947
302.90 1.269775
303.00 1.270079
303.10 1.270383
303.20 1.270686
303.30 1.270994
303.40 1.271352
303.50 1.271709
303.60 1.272065
303.70 1.272421
303.80 1.272775
303.90 1.273129
304.00 1.273483
304.10 1.273835
304.20 1.274187
304.30 1.274538
304.40 1.274888
304.50 1.275238
304.60 1.275537
304.70 1.27583
304.80 1.276122
304.90 1.276413
305.00 1.276704
305.10 1.276994
305.20 1.277284
305.30 1.277573
305.40 1.277861
305.50 1.278148
305.60 1.278435
305.70 1.278721
305.80 1.279007
305.90 1.279292
306.00 1.279576
306.10 1.27986
306.20 1.280143
306.30 1.280425
306.40 1.280708
306.50 1.28099
306.60 1.281271
306.70 1.281552
306.80 1.281832
306.90 1.282111
307.00 1.28239
307.10 1.282668
307.20 1.282946
307.30 1.283222
307.40 1.283499
307.50 1.283774
307.60 1.284049
307.70 1.284324
307.80 1.284597
307.90 1.28487
308.00 1.285143
308.10 1.285415
308.20 1.285686
308.30 1.285957
308.40 1.286227
308.50 1.286496
308.60 1.286765
308.70 1.287033
308.80 1.287256
308.90 1.287353
309.00 1.287726
309.10 1.288097
309.20 1.288468
309.30 1.288838
309.40 1.289192
309.50 1.289447
309.60 1.289701
309.70 1.289955
309.80 1.290209
309.90 1.290461
310.00 1.290714
310.10 1.290965
310.20 1.291216
310.30 1.291467
310.40 1.291706
310.50 1.291933
310.60 1.292159
310.70 1.292385
310.80 1.29261
310.90 1.292835
311.00 1.29324
311.10 1.293645
311.20 1.29405
311.30 1.294397
311.40 1.294585
311.50 1.294772
311.60 1.294958
311.70 1.295144
311.80 1.29533
311.90 1.295515
312.00 1.295699
312.10 1.295883
312.20 1.295864
312.30 1.296054
312.40 1.296498
312.50 1.296998
312.60 1.297092
312.70 1.297185
312.80 1.297278
312.90 1.297448
313.00 1.297702
313.10 1.297955
313.20 1.298207
313.30 1.298463
313.40 1.298733
313.50 1.299002
313.60 1.299271
313.70 1.299539
313.80 1.299806
313.90 1.300073
314.00 1.300339
314.10 1.300537
314.20 1.300734
314.30 1.30093
314.40 1.301127
314.50 1.301322
314.60 1.301517
314.70 1.301712
314.80 1.302017
314.90 1.302308
315.00 1.302243
315.10 1.302544
315.20 1.302843
315.30 1.303142
315.40 1.303441
315.50 1.303738
315.60 1.304036
315.70 1.304332
315.80 1.304628
315.90 1.304923
316.00 1.305218
316.10 1.305512
316.20 1.305805
316.30 1.305539
316.40 1.305831
316.50 1.305564
316.60 1.305856
316.70 1.306147
316.80 1.306437
316.90 1.306727
317.00 1.307016
317.10 1.307304
317.20 1.307592
317.30 1.307406
317.40 1.307326
317.50 1.307545
317.60 1.307763
317.70 1.30798
317.80 1.308198
317.90 1.308831
318.00 1.309053
318.10 1.309335
318.20 1.309618
318.30 1.309899
318.40 1.310036
318.50 1.309765
318.60 1.310067
318.70 1.310732
318.80 1.311011
318.90 1.310354
319.00 1.310753
319.10 1.31103
319.20 1.311248
319.30 1.311298
319.40 1.311347
319.50 1.311396
319.60 1.312349
319.70 1.312397
319.80 1.312444
319.90 1.312491
320.00 1.312647
320.10 1.312918
320.20 1.313155
320.30 1.312937
320.40 1.313207
320.50 1.313477
320.60 1.314007
320.70 1.313732
320.80 1.313717
320.90 1.313985
321.00 1.314252
321.10 1.314519
321.20 1.314557
321.30 1.314864
321.40 1.31517
321.50 1.315476
321.60 1.315781
321.70 1.316085
321.80 1.3162
321.90 1.316112
322.00 1.315853
322.10 1.316109
322.20 1.316365
322.30 1.31662
322.40 1.316874
322.50 1.317128
322.60 1.317381
322.70 1.317634
322.80 1.317621
322.90 1.317758
323.00 1.317894
323.10 1.31803
323.20 1.318166
323.30 1.318301
323.40 1.318436
323.50 1.31857
323.60 1.318704
323.70 1.318838
323.80 1.318971
323.90 1.319104
324.00 1.31943
324.10 1.319755
324.20 1.320079
324.30 1.320107
324.40 1.319793
324.50 1.320022
324.60 1.320249
324.70 1.320477
324.80 1.320703
324.90 1.32093
325.00 1.321155
325.10 1.32138
325.20 1.321509
325.30 1.321433
325.40 1.321358
325.50 1.321429
325.60 1.321681
325.70 1.321932
325.80 1.322183
325.90 1.322402
326.00 1.322589
326.10 1.322775
326.20 1.322961
326.30 1.323104
326.40 1.323127
326.50 1.323256
326.60 1.323385
326.70 1.323513
326.80 1.323641
326.90 1.323769
327.00 1.323896
327.10 1.324023
327.20 1.324149
327.30 1.324275
327.40 1.324401
327.50 1.324526
327.60 1.324651
327.70 1.324775
327.80 1.324899
327.90 1.325061
328.00 1.325211
328.10 1.3253
328.20 1.325388
328.30 1.325475
328.40 1.325562
328.50 1.325635
328.60 1.325704
328.70 1.325772
328.80 1.325864
328.90 1.326021
329.00 1.326177
329.10 1.326334
329.20 1.326489
329.30 1.326645
329.40 1.3268
329.50 1.326954
329.60 1.327109
329.70 1.327262
329.80 1.327415
329.90 1.327568
330.00 1.327639
330.10 1.327611
330.20 1.327582
330.30 1.327554
330.40 1.327599
330.50 1.327724
330.60 1.327849
330.70 1.327973
330.80 1.328098
330.90 1.328221
331.00 1.328345
331.10 1.328468
331.20 1.32859
331.30 1.328712
331.40 1.328834
331.50 1.328908
331.60 1.328924
331.70 1.328939
331.80 1.329038
331.90 1.329139
332.00 1.32924
332.10 1.329341
332.20 1.329441
332.30 1.329541
332.40 1.32964
332.50 1.329739
332.60 1.329838
332.70 1.329937
332.80 1.330035
332.90 1.330132
333.00 1.33023
333.10 1.330332
333.20 1.330441
333.30 1.330549
333.40 1.330657
333.50 1.330764
333.60 1.330871
333.70 1.330978
333.80 1.331084
333.90 1.33119
334.00 1.331295
334.10 1.331371
334.20 1.331409
334.30 1.331446
334.40 1.331484
334.50 1.331521
334.60 1.331558
334.70 1.331652
334.80 1.331736
334.90 1.331702
335.00 1.331668
335.10 1.331481
335.20 1.331683
335.30 1.332431
335.40 1.332258
335.50 1.331961
335.60 1.332036
335.70 1.332459
335.80 1.332162
335.90 1.332087
336.00 1.332286
336.10 1.332483
336.20 1.33268
336.30 1.332803
336.40 1.332835
336.50 1.332866
336.60 1.332897
336.70 1.332928
336.80 1.332958
336.90 1.333058
337.00 1.333242
337.10 1.333426
337.20 1.333609
337.30 1.333731
337.40 1.333765
337.50 1.333799
337.60 1.333832
337.70 1.333866
337.80 1.333899
337.90 1.333903
338.00 1.333873
338.10 1.333843
338.20 1.333812
338.30 1.333782
338.40 1.333786
338.50 1.333878
338.60 1.333969
338.70 1.33406
338.80 1.334151
338.90 1.334241
339.00 1.334331
339.10 1.334421
339.20 1.33451
339.30 1.334647
339.40 1.334851
339.50 1.334978
339.60 1.335011
339.70 1.335043
339.80 1.335074
339.90 1.335106
340.00 1.335137
340.10 1.335168
340.20 1.335198
340.30 1.335229
340.40 1.335259
340.50 1.335288
340.60 1.335318
340.70 1.335347
340.80 1.335245
340.90 1.334952
341.00 1.334818
341.10 1.334877
341.20 1.334936
341.30 1.334994
341.40 1.335052
341.50 1.335109
341.60 1.335167
341.70 1.335224
341.80 1.335309
341.90 1.335429
342.00 1.335548
342.10 1.335667
342.20 1.335606
342.30 1.335375
342.40 1.335329
342.50 1.335349
342.60 1.335369
342.70 1.335389
342.80 1.335409
342.90 1.335428
343.00 1.335512
343.10 1.335675
343.20 1.335837
343.30 1.335999
343.40 1.336099
343.50 1.336111
343.60 1.336123
343.70 1.336135
343.80 1.336147
343.90 1.336158
344.00 1.336137
344.10 1.336069
344.20 1.336001
344.30 1.335933
344.40 1.335961
344.50 1.336129
344.60 1.335933
344.70 1.336076
344.80 1.336242
344.90 1.336407
345.00 1.336018
345.10 1.336183
345.20 1.336223
345.30 1.336084
345.40 1.335944
345.50 1.335924
345.60 1.336003
345.70 1.33601
345.80 1.336017
345.90 1.336024
346.00 1.33603
346.10 1.336037
346.20 1.336068
346.30 1.336136
346.40 1.336204
346.50 1.336272
346.60 1.336339
346.70 1.336406
346.80 1.336472
346.90 1.336539
347.00 1.336605
347.10 1.33667
347.20 1.336705
347.30 1.336695
347.40 1.336685
347.50 1.336675
347.60 1.336664
347.70 1.336653
347.80 1.336642
347.90 1.336631
348.00 1.33662
348.10 1.336608
348.20 1.336596
348.30 1.336584
348.40 1.336572
348.50 1.33656
348.60 1.336547
348.70 1.336479
348.80 1.336417
348.90 1.336386
349.00 1.336355
349.10 1.336324
349.20 1.336293
349.30 1.336261
349.40 1.33623
349.50 1.336198
349.60 1.336166
349.70 1.336133
349.80 1.336101
349.90 1.336068
350.00 1.336036
350.10 1.336003
350.20 1.33597
350.30 1.335942
350.40 1.335922
350.50 1.335901
350.60 1.33588
350.70 1.33586
350.80 1.335838
350.90 1.335817
351.00 1.335796
351.10 1.335774
351.20 1.335752
351.30 1.33573
351.40 1.335705
351.50 1.335673
351.60 1.335641
351.70 1.335609
351.80 1.335577
351.90 1.335545
352.00 1.335512
352.10 1.33548
352.20 1.335883
352.30 1.336126
352.40 1.336066
352.50 1.336006
352.60 1.335946
352.70 1.335885
352.80 1.335825
352.90 1.335764
353.00 1.335703
353.10 1.335643
353.20 1.335582
353.30 1.33552
353.40 1.335459
353.50 1.335488
353.60 1.335539
353.70 1.335589
353.80 1.335639
353.90 1.335651
354.00 1.335595
354.10 1.335539
354.20 1.335482
354.30 1.335425
354.40 1.335368
354.50 1.335311
354.60 1.335254
354.70 1.335197
354.80 1.335102
354.90 1.334954
355.00 1.334806
355.10 1.334658
355.20 1.33451
355.30 1.334581
355.40 1.334652
355.50 1.334723
355.60 1.334794
355.70 1.334821
355.80 1.33483
355.90 1.334565
356.00 1.334353
356.10 1.334276
356.20 1.334199
356.30 1.334121
356.40 1.334043
356.50 1.333966
356.60 1.333888
356.70 1.33381
356.80 1.333732
356.90 1.333654
357.00 1.333575
357.10 1.333497
357.20 1.333418
357.30 1.333339
357.40 1.333302
357.50 1.333338
357.60 1.333373
357.70 1.333408
357.80 1.333458
357.90 1.333507
358.00 1.333455
358.10 1.333379
358.20 1.333303
358.30 1.333227
358.40 1.33315
358.50 1.333074
358.60 1.332997
358.70 1.33292
358.80 1.332843
358.90 1.332766
359.00 1.33273
359.10 1.332765
359.20 1.332797
359.30 1.332799
359.40 1.332801
359.50 1.332703
359.60 1.33258
359.70 1.332456
359.80 1.33237
359.90 1.332284
360.00 1.332194
360.10 1.332097
360.20 1.332
360.30 1.331903
360.40 1.331805
360.50 1.331708
360.60 1.332068
360.70 1.331975
360.80 1.331881
360.90 1.331787
361.00 1.331461
361.10 1.331201
361.20 1.331702
361.30 1.330965
361.40 1.331043
361.50 1.331205
361.60 1.330777
361.70 1.330896
361.80 1.330948
361.90 1.33088
362.00 1.330812
362.10 1.330684
362.20 1.330531
362.30 1.330357
362.40 1.330183
362.50 1.33001
362.60 1.329836
362.70 1.330159
362.80 1.330182
362.90 1.329871
363.00 1.329561
363.10 1.3296
363.20 1.329643
363.30 1.329913
363.40 1.329393
363.50 1.329297
363.60 1.329412
363.70 1.329151
363.80 1.329641
363.90 1.329514
364.00 1.329387
364.10 1.32926
364.20 1.329132
364.30 1.328898
364.40 1.328636
364.50 1.328755
364.60 1.328586
364.70 1.328416
364.80 1.328246
364.90 1.328359
365.00 1.328471
365.10 1.328163
365.20 1.328274
365.30 1.327966
365.40 1.328077
365.50 1.32777
365.60 1.327462
365.70 1.327496
365.80 1.327531
365.90 1.327329
366.00 1.327067
366.10 1.326958
366.20 1.326848
366.30 1.326738
366.40 1.326628
366.50 1.326771
366.60 1.326889
366.70 1.326796
366.80 1.326702
366.90 1.326597
367.00 1.326472
367.10 1.326347
367.20 1.326221
367.30 1.326096
367.40 1.32597
367.50 1.325736
367.60 1.325475
367.70 1.325407
367.80 1.32534
367.90 1.325272
368.00 1.325073
368.10 1.325169
368.20 1.325102
368.30 1.325031
368.40 1.32496
368.50 1.324889
368.60 1.324818
368.70 1.324746
368.80 1.324675
368.90 1.32437
369.00 1.324379
369.10 1.324569
369.20 1.32386
369.30 1.323964
369.40 1.324067
369.50 1.32417
369.60 1.323861
369.70 1.323552
369.80 1.323497
369.90 1.323444
370.00 1.323392
370.10 1.323147
370.20 1.322836
370.30 1.32253
370.40 1.322635
370.50 1.322736
370.60 1.322837
370.70 1.322124
370.80 1.32222
370.90 1.322317
371.00 1.322016
371.10 1.321712
371.20 1.321808
371.30 1.321903
371.40 1.321417
371.50 1.32131
371.60 1.321202
371.70 1.321095
371.80 1.320987
371.90 1.320879
372.00 1.321214
372.10 1.321082
372.20 1.32091
372.30 1.320739
372.40 1.320567
372.50 1.320396
372.60 1.320224
372.70 1.320053
372.80 1.320146
372.90 1.320239
373.00 1.319939
373.10 1.319635
373.20 1.31933
373.30 1.319024
373.40 1.31912
373.50 1.319216
373.60 1.318911
373.70 1.318605
373.80 1.318876
373.90 1.318796
374.00 1.31869
374.10 1.318585
374.20 1.31848
374.30 1.318374
374.40 1.318169
374.50 1.317764
374.60 1.317654
374.70 1.31755
374.80 1.317446
374.90 1.317341
375.00 1.317169
375.10 1.316997
375.20 1.316825
375.30 1.316691
375.40 1.316556
375.50 1.316422
375.60 1.316288
375.70 1.316153
375.80 1.316018
375.90 1.315884
376.00 1.315968
376.10 1.315787
376.20 1.315605
376.30 1.315422
376.40 1.315239
376.50 1.315068
376.60 1.314914
376.70 1.314759
376.80 1.314609
376.90 1.314462
377.00 1.314315
377.10 1.314168
377.20 1.31406
377.30 1.314098
377.40 1.314136
377.50 1.314174
377.60 1.313989
377.70 1.313805
377.80 1.313621
377.90 1.313437
378.00 1.313048
378.10 1.312892
378.20 1.312741
378.30 1.31259
378.40 1.312439
378.50 1.312287
378.60 1.312136
378.70 1.311985
378.80 1.311834
378.90 1.311695
379.00 1.31158
379.10 1.311511
379.20 1.311442
379.30 1.311312
379.40 1.311123
379.50 1.310933
379.60 1.310804
379.70 1.310748
379.80 1.310624
379.90 1.3105
380.00 1.310375
380.10 1.310251
380.20 1.310127
380.30 1.310003
380.40 1.309878
380.50 1.309754
380.60 1.309282
380.70 1.309121
380.80 1.308959
380.90 1.308798
381.00 1.308636
381.10 1.308431
381.20 1.308375
381.30 1.308261
381.40 1.308338
381.50 1.308046
381.60 1.307856
381.70 1.30768
381.80 1.307763
381.90 1.307078
382.00 1.30716
382.10 1.307243
382.20 1.306712
382.30 1.306411
382.40 1.306166
382.50 1.306005
382.60 1.305844
382.70 1.305808
382.80 1.305787
382.90 1.305638
383.00 1.30549
383.10 1.305342
383.20 1.30517
383.30 1.304909
383.40 1.304699
383.50 1.304562
383.60 1.304687
383.70 1.304508
383.80 1.304328
383.90 1.304149
384.00 1.303969
384.10 1.30379
384.20 1.303611
384.30 1.303431
384.40 1.303267
384.50 1.303119
384.60 1.30297
384.70 1.302821
384.80 1.302746
384.90 1.302754
385.00 1.302401
385.10 1.302042
385.20 1.301726
385.30 1.301815
385.40 1.301785
385.50 1.301637
385.60 1.301488
385.70 1.301339
385.80 1.301172
385.90 1.300937
386.00 1.300749
386.10 1.300611
386.20 1.300517
386.30 1.300423
386.40 1.300039
386.50 1.299675
386.60 1.299443
386.70 1.299519
386.80 1.299034
386.90 1.298923
387.00 1.298999
387.10 1.299075
387.20 1.298404
387.30 1.298479
387.40 1.298002
387.50 1.298215
387.60 1.298037
387.70 1.29774
387.80 1.297443
387.90 1.297146
388.00 1.296952
388.10 1.296959
388.20 1.297155
388.30 1.296958
388.40 1.296761
388.50 1.2964
388.60 1.295943
388.70 1.295807
388.80 1.29588
388.90 1.295907
389.00 1.295287
389.10 1.295361
389.20 1.295016
389.30 1.294901
389.40 1.294614
389.50 1.294424
389.60 1.294429
389.70 1.294453
389.80 1.294165
389.90 1.293876
390.00 1.293588
390.10 1.2933
390.20 1.293012
390.30 1.292826
390.40 1.292755
390.50 1.292683
390.60 1.292611
390.70 1.29254
390.80 1.29238
390.90 1.292132
391.00 1.291679
391.10 1.291374
391.20 1.291201
391.30 1.291294
391.40 1.291121
391.50 1.290948
391.60 1.290775
391.70 1.290602
391.80 1.290429
391.90 1.290028
392.00 1.289622
392.10 1.289595
392.20 1.28951
392.30 1.2891
392.40 1.288962
392.50 1.288992
392.60 1.288825
392.70 1.288405
392.80 1.288474
392.90 1.288088
393.00 1.288203
393.10 1.287956
393.20 1.287366
393.30 1.287435
393.40 1.287438
393.50 1.286784
393.60 1.286852
393.70 1.286722
393.80 1.286332
393.90 1.2864
394.00 1.286403
394.10 1.285922
394.20 1.285635
394.30 1.285479
394.40 1.285293
394.50 1.285301
394.60 1.285051
394.70 1.284786
394.80 1.284464
394.90 1.284156
395.00 1.2842
395.10 1.284053
395.20 1.28399
395.30 1.283807
395.40 1.283624
395.50 1.283313
395.60 1.282955
395.70 1.28264
395.80 1.282441
395.90 1.282242
396.00 1.282081
396.10 1.282165
396.20 1.281874
396.30 1.281487
396.40 1.281553
396.50 1.280906
396.60 1.280972
396.70 1.280575
396.80 1.28068
396.90 1.280456
397.00 1.279811
397.10 1.279758
397.20 1.279941
397.30 1.279417
397.40 1.279219
397.50 1.279021
397.60 1.278827
397.70 1.278686
397.80 1.278545
397.90 1.278404
398.00 1.278266
398.10 1.278128
398.20 1.27789
398.30 1.277537
398.40 1.277192
398.50 1.277093
398.60 1.277151
398.70 1.276892
398.80 1.276539
398.90 1.276268
399.00 1.276149
399.10 1.275553
399.20 1.275397
399.30 1.275241
399.40 1.275085
399.50 1.274929
399.60 1.274748
399.70 1.274557
399.80 1.274366
399.90 1.274175
400.00 1.273987
400.10 1.273888
400.20 1.273397
400.30 1.273202
400.40 1.273118
400.50 1.272885
400.60 1.272504
400.70 1.272217
400.80 1.272373
400.90 1.271851
401.00 1.2718
401.10 1.271861
401.20 1.271227
401.30 1.271113
401.40 1.27103
401.50 1.270911
401.60 1.270793
401.70 1.270693
401.80 1.270205
401.90 1.269935
402.00 1.269659
402.10 1.269694
402.20 1.269153
402.30 1.269123
402.40 1.268964
402.50 1.268553
402.60 1.268613
402.70 1.267983
402.80 1.268043
402.90 1.267689
403.00 1.267405
403.10 1.267533
403.20 1.266921
403.30 1.266821
403.40 1.266876
403.50 1.266717
403.60 1.266455
403.70 1.265828
403.80 1.265899
403.90 1.265662
404.00 1.265319
404.10 1.265378
404.20 1.265095
404.30 1.264811
404.40 1.264559
404.50 1.264244
404.60 1.264303
404.70 1.263678
404.80 1.263757
404.90 1.263795
405.00 1.263171
405.10 1.262937
405.20 1.2628
405.30 1.262664
405.40 1.262381
405.50 1.262099
405.60 1.261817
405.70 1.261535
405.80 1.261253
405.90 1.260971
406.00 1.260759
406.10 1.260548
406.20 1.260337
406.30 1.260125
406.40 1.25997
406.50 1.259959
406.60 1.259678
406.70 1.259608
406.80 1.259253
406.90 1.258847
407.00 1.258634
407.10 1.25842
407.20 1.258207
407.30 1.257994
407.40 1.257781
407.50 1.257568
407.60 1.257355
407.70 1.257142
407.80 1.256929
407.90 1.256715
408.00 1.256467
408.10 1.256145
408.20 1.255879
408.30 1.255701
408.40 1.255523
408.50 1.255697
408.60 1.255314
408.70 1.254932
408.80 1.254609
408.90 1.254672
409.00 1.254444
409.10 1.254216
409.20 1.253987
409.30 1.253759
409.40 1.253527
409.50 1.25315
409.60 1.252774
409.70 1.252474
409.80 1.252477
409.90 1.252461
410.00 1.25185
410.10 1.251794
410.20 1.251502
410.30 1.251152
410.40 1.250844
410.50 1.250672
410.60 1.250499
410.70 1.250293
410.80 1.249953
410.90 1.249613
411.00 1.249351
411.10 1.249118
411.20 1.248886
411.30 1.248691
411.40 1.248646
411.50 1.248507
411.60 1.248367
411.70 1.248199
411.80 1.247923
411.90 1.247581
412.00 1.246975
412.10 1.247029
412.20 1.247083
412.30 1.24659
412.40 1.246531
412.50 1.246021
412.60 1.245886
412.70 1.245581
412.80 1.245233
412.90 1.244851
413.00 1.244973
413.10 1.244761
413.20 1.244548
413.30 1.244336
413.40 1.244124
413.50 1.243834
413.60 1.243311
413.70 1.243037
413.80 1.242763
413.90 1.242489
414.00 1.242293
414.10 1.242346
414.20 1.242241
414.30 1.241642
414.40 1.241564
414.50 1.241145
414.60 1.241225
414.70 1.240952
414.80 1.240679
414.90 1.240406
415.00 1.240133
415.10 1.23986
415.20 1.239607
415.30 1.239414
415.40 1.239221
415.50 1.239023
415.60 1.238659
415.70 1.238295
415.80 1.237978
415.90 1.237809
416.00 1.237639
416.10 1.237446
416.20 1.237161
416.30 1.236877
416.40 1.236592
416.50 1.236308
416.60 1.236037
416.70 1.235805
416.80 1.235807
416.90 1.235561
417.00 1.235266
417.10 1.235326
417.20 1.235055
417.30 1.234782
417.40 1.234417
417.50 1.234053
417.60 1.233753
417.70 1.233703
417.80 1.233433
417.90 1.233163
418.00 1.232893
418.10 1.232624
418.20 1.232354
418.30 1.232075
418.40 1.23157
418.50 1.231328
418.60 1.231086
418.70 1.230845
418.80 1.230603
418.90 1.230362
419.00 1.230121
419.10 1.229879
419.20 1.229638
419.30 1.2294
419.40 1.229264
419.50 1.229127
419.60 1.228943
419.70 1.228572
419.80 1.228202
419.90 1.227869
420.00 1.227657
420.10 1.227445
420.20 1.227234
420.30 1.227022
420.40 1.22681
420.50 1.226598
420.60 1.226387
420.70 1.226175
420.80 1.225964
420.90 1.225748
421.00 1.225393
421.10 1.225038
421.20 1.224717
421.30 1.224495
421.40 1.224273
421.50 1.224052
421.60 1.22383
421.70 1.223609
421.80 1.223388
421.90 1.223154
422.00 1.222883
422.10 1.222629
422.20 1.222446
422.30 1.222263
422.40 1.222077
422.50 1.221815
422.60 1.221554
422.70 1.221292
422.80 1.221031
422.90 1.22077
423.00 1.220508
423.10 1.220247
423.20 1.219986
423.30 1.219725
423.40 1.219465
423.50 1.219204
423.60 1.218944
423.70 1.218683
423.80 1.218423
423.90 1.218163
424.00 1.217903
424.10 1.217643
424.20 1.217383
424.30 1.217123
424.40 1.216797
424.50 1.216538
424.60 1.216278
424.70 1.216019
424.80 1.215759
424.90 1.2155
425.00 1.215241
425.10 1.214982
425.20 1.214723
425.30 1.214464
425.40 1.214202
425.50 1.213918
425.60 1.213634
425.70 1.21335
425.80 1.213066
425.90 1.212783
426.00 1.212499
426.10 1.212216
426.20 1.211932
426.30 1.211649
426.40 1.211366
426.50 1.211083
426.60 1.210801
426.70 1.210518
426.80 1.210236
426.90 1.209954
427.00 1.209711
427.10 1.209468
427.20 1.209226
427.30 1.208983
427.40 1.20874
427.50 1.208498
427.60 1.208255
427.70 1.208013
427.80 1.207771
427.90 1.207528
428.00 1.207286
428.10 1.207044
428.20 1.206802
428.30 1.206561
428.40 1.206319
428.50 1.206077
428.60 1.205836
428.70 1.205594
428.80 1.205351
428.90 1.205081
429.00 1.204811
429.10 1.204541
429.20 1.204271
429.30 1.204002
429.40 1.203732
429.50 1.203463
429.60 1.203194
429.70 1.202925
429.80 1.202656
429.90 1.202387
430.00 1.202118
430.10 1.201849
430.20 1.201581
430.30 1.201312
430.40 1.201044
430.50 1.200776
430.60 1.200508
430.70 1.20024
430.80 1.199972
430.90 1.199704
431.00 1.199437
431.10 1.199169
431.20 1.198902
431.30 1.198634
431.40 1.198349
431.50 1.198064
431.60 1.197779
431.70 1.197494
431.80 1.197209
431.90 1.196925
432.00 1.196641
432.10 1.196356
432.20 1.196072
432.30 1.195789
432.40 1.195505
432.50 1.195221
432.60 1.194938
432.70 1.194654
432.80 1.194371
432.90 1.194088
433.00 1.193805
433.10 1.193522
433.20 1.193239
433.30 1.192965
433.40 1.192801
433.50 1.192638
433.60 1.192474
433.70 1.192311
433.80 1.191973
433.90 1.191424
434.00 1.19109
434.10 1.190889
434.20 1.190687
434.30 1.190486
434.40 1.190284
434.50 1.190083
434.60 1.189882
434.70 1.189681
434.80 1.189473
434.90 1.189168
435.00 1.188864
435.10 1.18856
435.20 1.188257
435.30 1.187953
435.40 1.18765
435.50 1.187346
435.60 1.187043
435.70 1.18674
435.80 1.186437
435.90 1.186135
436.00 1.185832
436.10 1.18553
436.20 1.185228
436.30 1.185009
436.40 1.184878
436.50 1.184568
436.60 1.184259
436.70 1.18395
436.80 1.183641
436.90 1.183332
437.00 1.183023
437.10 1.182715
437.20 1.182409
437.30 1.182108
437.40 1.18181
437.50 1.181562
437.60 1.181314
437.70 1.181066
437.80 1.180818
437.90 1.180571
438.00 1.180319
438.10 1.180002
438.20 1.179686
438.30 1.179852
438.40 1.179335
438.50 1.179088
438.60 1.178821
438.70 1.178283
438.80 1.178327
438.90 1.17779
439.00 1.177855
439.10 1.177608
439.20 1.177352
439.30 1.176961
439.40 1.17657
439.50 1.17618
439.60 1.175853
439.70 1.175823
439.80 1.175407
439.90 1.175137
440.00 1.174867
440.10 1.174597
440.20 1.174328
440.30 1.174084
440.40 1.173839
440.50 1.173594
440.60 1.17335
440.70 1.173105
440.80 1.172861
440.90 1.172617
441.00 1.172373
441.10 1.172129
441.20 1.171865
441.30 1.171334
441.40 1.170979
441.50 1.170841
441.60 1.170702
441.70 1.17036
441.80 1.170093
441.90 1.169826
442.00 1.169559
442.10 1.169292
442.20 1.169025
442.30 1.168758
442.40 1.168458
442.50 1.168118
442.60 1.167777
442.70 1.167533
442.80 1.167405
442.90 1.166878
443.00 1.166484
443.10 1.166253
443.20 1.166012
443.30 1.165761
443.40 1.165514
443.50 1.165273
443.60 1.164904
443.70 1.164379
443.80 1.164422
443.90 1.163898
444.00 1.163941
444.10 1.163417
444.20 1.16346
444.30 1.162951
444.40 1.162644
444.50 1.162337
444.60 1.162065
444.70 1.161836
444.80 1.161599
444.90 1.161354
445.00 1.16111
445.10 1.160866
445.20 1.160583
445.30 1.160252
445.40 1.159921
445.50 1.15959
445.60 1.15926
445.70 1.15893
445.80 1.158645
445.90 1.158402
446.00 1.158159
446.10 1.157916
446.20 1.157549
446.30 1.157102
446.40 1.157146
446.50 1.156768
446.60 1.15639
446.70 1.156013
446.80 1.155708
446.90 1.155471
447.00 1.155257
447.10 1.155132
447.20 1.154615
447.30 1.154658
447.40 1.154287
447.50 1.154051
447.60 1.153669
447.70 1.153154
447.80 1.153197
447.90 1.152682
448.00 1.152313
448.10 1.152077
448.20 1.151841
448.30 1.151606
448.40 1.15137
448.50 1.151135
448.60 1.150873
448.70 1.150587
448.80 1.150302
448.90 1.15003
449.00 1.149758
449.10 1.149486
449.20 1.149215
449.30 1.148835
449.40 1.148547
449.50 1.148259
449.60 1.147971
449.70 1.147681
449.80 1.147391
449.90 1.147102
450.00 1.146812
450.10 1.146523
450.20 1.146234
450.30 1.145945
450.40 1.14562
450.50 1.145295
450.60 1.144971
450.70 1.144646
450.80 1.144322
450.90 1.143998
451.00 1.143712
451.10 1.143427
451.20 1.143294
451.30 1.143069
451.40 1.142838
451.50 1.142606
451.60 1.1421
451.70 1.142143
451.80 1.141637
451.90 1.141132
452.00 1.140901
452.10 1.14067
452.20 1.140439
452.30 1.140208
452.40 1.139977
452.50 1.139747
452.60 1.139243
452.70 1.138865
452.80 1.138604
452.90 1.138343
453.00 1.138081
453.10 1.13782
453.20 1.137567
453.30 1.137315
453.40 1.137063
453.50 1.13681
453.60 1.136558
453.70 1.136306
453.80 1.136013
453.90 1.13567
454.00 1.135327
454.10 1.134984
454.20 1.134683
454.30 1.134381
454.40 1.134079
454.50 1.133778
454.60 1.133477
454.70 1.13318
454.80 1.132888
454.90 1.132595
455.00 1.132303
455.10 1.132011
455.20 1.131719
455.30 1.131427
455.40 1.131135
455.50 1.130843
455.60 1.130552
455.70 1.130261
455.80 1.130054
455.90 1.129846
456.00 1.129639
456.10 1.129409
456.20 1.129114
456.30 1.128819
456.40 1.128524
456.50 1.128229
456.60 1.127935
456.70 1.127641
456.80 1.127346
456.90 1.127052
457.00 1.126759
457.10 1.126465
457.20 1.126068
457.30 1.1258
457.40 1.125532
457.50 1.125265
457.60 1.124997
457.70 1.12473
457.80 1.124463
457.90 1.124196
458.00 1.123929
458.10 1.123662
458.20 1.123395
458.30 1.123129
458.40 1.122862
458.50 1.122596
458.60 1.12233
458.70 1.122037
458.80 1.121735
458.90 1.121432
459.00 1.121129
459.10 1.120827
459.20 1.120525
459.30 1.120222
459.40 1.119919
459.50 1.119616
459.60 1.119314
459.70 1.119012
459.80 1.11871
459.90 1.118408
460.00 1.118106
460.10 1.117805
460.20 1.117503
460.30 1.117202
460.40 1.116901
460.50 1.1166
460.60 1.116299
460.70 1.116018
460.80 1.115746
460.90 1.115474
461.00 1.115202
461.10 1.114931
461.20 1.114704
461.30 1.114497
461.40 1.114179
461.50 1.113835
461.60 1.11349
461.70 1.113146
461.80 1.112848
461.90 1.112549
462.00 1.112251
462.10 1.111953
462.20 1.111655
462.30 1.111357
462.40 1.11106
462.50 1.110762
462.60 1.110465
462.70 1.110168
462.80 1.109871
462.90 1.109574
463.00 1.109278
463.10 1.108981
463.20 1.108716
463.30 1.108464
463.40 1.108212
463.50 1.10796
463.60 1.107708
463.70 1.107456
463.80 1.107204
463.90 1.106875
464.00 1.106526
464.10 1.106178
464.20 1.10583
464.30 1.105482
464.40 1.105134
464.50 1.104786
464.60 1.104439
464.70 1.104181
464.80 1.10396
464.90 1.10374
465.00 1.103519
465.10 1.103299
465.20 1.103078
465.30 1.102812
465.40 1.102517
465.50 1.102221
465.60 1.101926
465.70 1.10163
465.80 1.101335
465.90 1.100999
466.00 1.100652
466.10 1.100306
466.20 1.09996
466.30 1.099634
466.40 1.099317
466.50 1.099
466.60 1.098683
466.70 1.098366
466.80 1.09805
466.90 1.097733
467.00 1.097417
467.10 1.097101
467.20 1.096785
467.30 1.09676
467.40 1.096565
467.50 1.096297
467.60 1.096029
467.70 1.095761
467.80 1.095494
467.90 1.095174
468.00 1.094834
468.10 1.094494
468.20 1.094154
468.30 1.093905
468.40 1.093693
468.50 1.0933
468.60 1.092833
468.70 1.092762
468.80 1.09241
468.90 1.091944
469.00 1.091852
469.10 1.091612
469.20 1.091274
469.30 1.090936
469.40 1.090598
469.50 1.090248
469.60 1.089893
469.70 1.089539
469.80 1.089184
469.90 1.088966
470.00 1.088865
470.10 1.088548
470.20 1.088291
470.30 1.088034
470.40 1.087778
470.50 1.087521
470.60 1.087201
470.70 1.086866
470.80 1.08653
470.90 1.086195
471.00 1.085759
471.10 1.085691
471.20 1.085341
471.30 1.084881
471.40 1.084421
471.50 1.084464
471.60 1.084205
471.70 1.083997
471.80 1.083688
471.90 1.083355
472.00 1.083021
472.10 1.082688
472.20 1.082412
472.30 1.082151
472.40 1.08189
472.50 1.081629
472.60 1.081368
472.70 1.080968
472.80 1.08063
472.90 1.080324
473.00 1.080017
473.10 1.07971
473.20 1.079404
473.30 1.079098
473.40 1.078791
473.50 1.078486
473.60 1.07818
473.70 1.077874
473.80 1.077547
473.90 1.077214
474.00 1.076881
474.10 1.076548
474.20 1.076283
474.30 1.076044
474.40 1.075806
474.50 1.075567
474.60 1.075322
474.70 1.075005
474.80 1.074689
474.90 1.074372
475.00 1.074056
475.10 1.07374
475.20 1.073424
475.30 1.073108
475.40 1.072831
475.50 1.072563
475.60 1.072295
475.70 1.072028
475.80 1.071761
475.90 1.071494
476.00 1.071226
476.10 1.07096
476.20 1.070664
476.30 1.070357
476.40 1.070051
476.50 1.069744
476.60 1.069438
476.70 1.069132
476.80 1.068826
476.90 1.068515
477.00 1.068203
477.10 1.067891
477.20 1.067579
477.30 1.067268
477.40 1.066956
477.50 1.066645
477.60 1.066334
477.70 1.066023
477.80 1.065712
477.90 1.065402
478.00 1.065091
478.10 1.064781
478.20 1.064471
478.30 1.064161
478.40 1.063852
478.50 1.063542
478.60 1.063233
478.70 1.063009
478.80 1.062821
478.90 1.062503
479.00 1.062154
479.10 1.061805
479.20 1.061456
479.30 1.061107
479.40 1.060804
479.50 1.060527
479.60 1.06025
479.70 1.059974
479.80 1.059697
479.90 1.059421
480.00 1.059145
480.10 1.058869
480.20 1.058593
480.30 1.058318
480.40 1.058042
480.50 1.057767
480.60 1.057491
480.70 1.057216
480.80 1.056941
480.90 1.056666
481.00 1.056391
481.10 1.056117
481.20 1.05581
481.30 1.055504
481.40 1.055198
481.50 1.054893
481.60 1.054587
481.70 1.054281
481.80 1.053976
481.90 1.053671
482.00 1.053366
482.10 1.053061
482.20 1.052757
482.30 1.052457
482.40 1.052157
482.50 1.051858
482.60 1.051559
482.70 1.05126
482.80 1.050961
482.90 1.050662
483.00 1.050363
483.10 1.050064
483.20 1.049766
483.30 1.049468
483.40 1.04917
483.50 1.048872
483.60 1.048574
483.70 1.048231
483.80 1.047888
483.90 1.047545
484.00 1.047202
484.10 1.04686
484.20 1.046573
484.30 1.04631
484.40 1.046048
484.50 1.045785
484.60 1.045523
484.70 1.04526
484.80 1.044986
484.90 1.044713
485.00 1.044439
485.10 1.044166
485.20 1.043893
485.30 1.04362
485.40 1.043347
485.50 1.043074
485.60 1.042801
485.70 1.042502
485.80 1.042203
485.90 1.041904
486.00 1.041605
486.10 1.041307
486.20 1.041008
486.30 1.04071
486.40 1.040412
486.50 1.040114
486.60 1.039816
486.70 1.039518
486.80 1.039207
486.90 1.038896
487.00 1.038585
487.10 1.038275
487.20 1.037978
487.30 1.037681
487.40 1.037385
487.50 1.037088
487.60 1.036792
487.70 1.036496
487.80 1.0362
487.90 1.035905
488.00 1.035609
488.10 1.035314
488.20 1.035016
488.30 1.034684
488.40 1.034353
488.50 1.034022
488.60 1.033692
488.70 1.033361
488.80 1.03311
488.90 1.03286
489.00 1.032597
489.10 1.032304
489.20 1.03201
489.30 1.031717
489.40 1.031423
489.50 1.03113
489.60 1.030837
489.70 1.030544
489.80 1.03013
489.90 1.029802
490.00 1.029473
490.10 1.029145
490.20 1.028817
490.30 1.028489
490.40 1.028186
490.50 1.027883
490.60 1.02758
490.70 1.027278
490.80 1.027324
490.90 1.026905
491.00 1.026487
491.10 1.026301
491.20 1.026115
491.30 1.025697
491.40 1.02531
491.50 1.025326
491.60 1.024908
491.70 1.024492
491.80 1.024105
491.90 1.024121
492.00 1.023705
492.10 1.023289
492.20 1.022873
492.30 1.022919
492.40 1.022504
492.50 1.022088
492.60 1.021682
492.70 1.021382
492.80 1.021083
492.90 1.020784
493.00 1.020489
493.10 1.020257
493.20 1.020025
493.30 1.019793
493.40 1.019561
493.50 1.019329
493.60 1.018928
493.70 1.018686
493.80 1.018445
493.90 1.018137
494.00 1.017725
494.10 1.017341
494.20 1.017016
494.30 1.016692
494.40 1.016368
494.50 1.016044
494.60 1.015732
494.70 1.015574
494.80 1.015387
494.90 1.015117
495.00 1.014846
495.10 1.014577
495.20 1.014261
495.30 1.013946
495.40 1.013631
495.50 1.013316
495.60 1.013001
495.70 1.012686
495.80 1.012372
495.90 1.012058
496.00 1.011744
496.10 1.0114
496.20 1.011
496.30 1.010704
496.40 1.010408
496.50 1.010113
496.60 1.009818
496.70 1.009546
496.80 1.009274
496.90 1.009002
497.00 1.00873
497.10 1.008459
497.20 1.008188
497.30 1.007922
497.40 1.00767
497.50 1.007419
497.60 1.007118
497.70 1.006721
497.80 1.006416
497.90 1.006111
498.00 1.005807
498.10 1.005502
498.20 1.005198
498.30 1.004894
498.40 1.00459
498.50 1.004286
498.60 1.003983
498.70 1.003805
498.80 1.003627
498.90 1.003347
499.00 1.003067
499.10 1.002787
499.20 1.002469
499.30 1.002095
499.40 1.001801
499.50 1.001507
499.60 1.001213
499.70 1.000918
499.80 1.000612
499.90 1.000306
500.00 1
500.10 0.9996943
500.20 0.9993825
500.30 0.9990575
500.40 0.9987327
500.50 0.9984081
500.60 0.9980836
500.70 0.9977594
500.80 0.9974545
500.90 0.9971906
501.00 0.9969268
501.10 0.9966631
501.20 0.9963367
501.30 0.9961618
501.40 0.9959158
501.50 0.9955187
501.60 0.9951218
501.70 0.9948585
501.80 0.994773
501.90 0.9943766
502.00 0.9940437
502.10 0.993845
502.20 0.9936326
502.30 0.993237
502.40 0.9928652
502.50 0.992544
502.60 0.9922228
502.70 0.9919019
502.80 0.9915812
502.90 0.9912606
503.00 0.9909514
503.10 0.9906664
503.20 0.9903815
503.30 0.9900968
503.40 0.9898117
503.50 0.9895251
503.60 0.9892387
503.70 0.9889525
503.80 0.988683
503.90 0.9885354
504.00 0.9883096
504.10 0.9879175
504.20 0.9875256
504.30 0.987134
504.40 0.9867998
504.50 0.9866285
504.60 0.9864
504.70 0.9860092
504.80 0.9856185
504.90 0.985667
505.00 0.9852767
505.10 0.9848866
505.20 0.9845257
505.30 0.9842472
505.40 0.9839689
505.50 0.9836908
505.60 0.9834004
505.70 0.9830837
505.80 0.9827671
505.90 0.9824508
506.00 0.9821346
506.10 0.9818186
506.20 0.9815094
506.30 0.9812194
506.40 0.9809295
506.50 0.9806398
506.60 0.9803502
506.70 0.9800607
506.80 0.9797714
506.90 0.9794823
507.00 0.9791933
507.10 0.9790047
507.20 0.9789435
507.30 0.9786391
507.40 0.9783349
507.50 0.9780308
507.60 0.9777269
507.70 0.9774231
507.80 0.9771196
507.90 0.9768162
508.00 0.9765129
508.10 0.9762098
508.20 0.9759069
508.30 0.9756041
508.40 0.9753015
508.50 0.9749991
508.60 0.9746968
508.70 0.9743947
508.80 0.9740717
508.90 0.9736889
509.00 0.9733064
509.10 0.9729584
509.20 0.9726836
509.30 0.972409
509.40 0.9721345
509.50 0.9718601
509.60 0.9715859
509.70 0.9713118
509.80 0.9710379
509.90 0.9707641
510.00 0.9704904
510.10 0.9702169
510.20 0.9699435
510.30 0.9696684
510.40 0.969388
510.50 0.9691078
510.60 0.9688277
510.70 0.9685478
510.80 0.968268
510.90 0.9679884
511.00 0.9677089
511.10 0.9674295
511.20 0.9671503
511.30 0.9668713
511.40 0.9665923
511.50 0.9663136
511.60 0.9660226
511.70 0.9657056
511.80 0.9653887
511.90 0.9650721
512.00 0.9647556
512.10 0.9644393
512.20 0.9641231
512.30 0.9638117
512.40 0.9635135
512.50 0.9632154
512.60 0.9629175
512.70 0.9626198
512.80 0.9623222
512.90 0.9620248
513.00 0.9617276
513.10 0.9614305
513.20 0.9611335
513.30 0.9608367
513.40 0.9605401
513.50 0.9602436
513.60 0.9599473
513.70 0.9596512
513.80 0.9593552
513.90 0.9590594
514.00 0.9587679
514.10 0.9584773
514.20 0.9581869
514.30 0.9578966
514.40 0.9576064
514.50 0.9573164
514.60 0.9570266
514.70 0.9567369
514.80 0.9564474
514.90 0.956158
515.00 0.9558688
515.10 0.9555797
515.20 0.9552908
515.30 0.955002
515.40 0.9547134
515.50 0.954425
515.60 0.9541367
515.70 0.9538485
515.80 0.9535605
515.90 0.9532726
516.00 0.9529849
516.10 0.9526974
516.20 0.95241
516.30 0.9521227
516.40 0.9518356
516.50 0.9515487
516.60 0.9512619
516.70 0.9509753
516.80 0.9506889
516.90 0.9504025
517.00 0.9501164
517.10 0.9498304
517.20 0.9495445
517.30 0.9492588
517.40 0.9489732
517.50 0.9486878
517.60 0.9484025
517.70 0.9481174
517.80 0.9478325
517.90 0.9475477
518.00 0.947263
518.10 0.9469785
518.20 0.9466941
518.30 0.9464099
518.40 0.9461258
518.50 0.9458419
518.60 0.9455581
518.70 0.9452745
518.80 0.944991
518.90 0.9447077
519.00 0.9444245
519.10 0.9441336
519.20 0.9438339
519.30 0.9435344
519.40 0.943235
519.50 0.9429358
519.60 0.9426367
519.70 0.9423378
519.80 0.9420391
519.90 0.9417405
520.00 0.9414421
520.10 0.9411439
520.20 0.9408458
520.30 0.9405478
520.40 0.9402501
520.50 0.9399525
520.60 0.939655
520.70 0.9393577
520.80 0.9390606
520.90 0.9387636
521.00 0.9384668
521.10 0.9381701
521.20 0.9378736
521.30 0.9375773
521.40 0.9372811
521.50 0.9369851
521.60 0.9366892
521.70 0.9363935
521.80 0.9360979
521.90 0.9358026
522.00 0.9355073
522.10 0.9352122
522.20 0.9349173
522.30 0.9346226
522.40 0.9343279
522.50 0.9340335
522.60 0.9337392
522.70 0.9334451
522.80 0.9331511
522.90 0.9328573
523.00 0.9325636
523.10 0.9322701
523.20 0.9319767
523.30 0.9316835
523.40 0.9313905
523.50 0.9310976
523.60 0.9308049
523.70 0.9305123
523.80 0.9302199
523.90 0.9299276
524.00 0.9296355
524.10 0.9293436
524.20 0.9290518
524.30 0.9287641
524.40 0.9284798
524.50 0.9281956
524.60 0.9279116
524.70 0.9276277
524.80 0.9273439
524.90 0.9270603
525.00 0.9267769
525.10 0.9264936
525.20 0.9262105
525.30 0.9259275
525.40 0.9256446
525.50 0.9253619
525.60 0.9250793
525.70 0.9247969
525.80 0.9245147
525.90 0.9242326
526.00 0.9239506
526.10 0.9236688
526.20 0.9233871
526.30 0.9231056
526.40 0.9228242
526.50 0.922543
526.60 0.9222619
526.70 0.921981
526.80 0.9217002
526.90 0.9214196
527.00 0.9211391
527.10 0.9208587
527.20 0.9205785
527.30 0.9202985
527.40 0.9200186
527.50 0.9197388
527.60 0.9194592
527.70 0.9191797
527.80 0.9189004
527.90 0.9186212
528.00 0.9183422
528.10 0.9180633
528.20 0.9177846
528.30 0.917506
528.40 0.9172275
528.50 0.9169492
528.60 0.9166711
528.70 0.9163931
528.80 0.9161152
528.90 0.9158375
529.00 0.9155599
529.10 0.9152824
529.20 0.9150051
529.30 0.914728
529.40 0.914451
529.50 0.914173
529.60 0.913888
529.70 0.9136032
529.80 0.9133186
529.90 0.9130341
530.00 0.9127498
530.10 0.9124656
530.20 0.9121815
530.30 0.9118976
530.40 0.9116139
530.50 0.9113303
530.60 0.9110468
530.70 0.9107635
530.80 0.9104804
530.90 0.9101973
531.00 0.9099145
531.10 0.9096318
531.20 0.9093492
531.30 0.9090668
531.40 0.9087846
531.50 0.9085024
531.60 0.9082205
531.70 0.9079386
531.80 0.907657
531.90 0.9073755
532.00 0.9070941
532.10 0.9068129
532.20 0.9065219
532.30 0.9062261
532.40 0.9059304
532.50 0.9056349
532.60 0.9053396
532.70 0.9050444
532.80 0.9047494
532.90 0.9044545
533.00 0.9041598
533.10 0.9038652
533.20 0.9035708
533.30 0.9032766
533.40 0.9029825
533.50 0.9026885
533.60 0.9023948
533.70 0.9021011
533.80 0.9018077
533.90 0.9015144
534.00 0.9012212
534.10 0.9009282
534.20 0.9006354
534.30 0.9003427
534.40 0.9000502
534.50 0.8997578
534.60 0.8994656
534.70 0.8991735
534.80 0.8988829
534.90 0.8985981
535.00 0.8983133
535.10 0.8980287
535.20 0.8977443
535.30 0.89746
535.40 0.8971759
535.50 0.8968919
535.60 0.8966081
535.70 0.8963244
535.80 0.8960409
535.90 0.8957575
536.00 0.8954742
536.10 0.8951911
536.20 0.8949082
536.30 0.8946254
536.40 0.8943428
536.50 0.8940603
536.60 0.8937779
536.70 0.8934957
536.80 0.8932137
536.90 0.8929318
537.00 0.89265
537.10 0.8923684
537.20 0.892087
537.30 0.8918057
537.40 0.8915245
537.50 0.8912435
537.60 0.8909626
537.70 0.8906819
537.80 0.8904013
537.90 0.8901209
538.00 0.8898406
538.10 0.8895605
538.20 0.8892805
538.30 0.8890007
538.40 0.888721
538.50 0.8884414
538.60 0.888162
538.70 0.8878828
538.80 0.8876037
538.90 0.8873247
539.00 0.8870459
539.10 0.8867672
539.20 0.8864887
539.30 0.8862103
539.40 0.8859321
539.50 0.885654
539.60 0.8853761
539.70 0.8850983
539.80 0.8848206
539.90 0.8845431
540.00 0.8842658
540.10 0.8839885
540.20 0.8837061
540.30 0.8834216
540.40 0.8831372
540.50 0.882853
540.60 0.8825689
540.70 0.882285
540.80 0.8820013
540.90 0.8817176
541.00 0.8814342
541.10 0.8811509
541.20 0.8808677
541.30 0.8805847
541.40 0.8803018
541.50 0.8800191
541.60 0.8797365
541.70 0.8794541
541.80 0.8791718
541.90 0.8788897
542.00 0.8786077
542.10 0.8783259
542.20 0.8780442
542.30 0.8777627
542.40 0.8774813
542.50 0.8772001
542.60 0.876919
542.70 0.876638
542.80 0.8763572
542.90 0.8760766
543.00 0.8757961
543.10 0.8755157
543.20 0.8752355
543.30 0.8749555
543.40 0.8746756
543.50 0.8743958
543.60 0.8741162
543.70 0.8738367
543.80 0.8735574
543.90 0.8732782
544.00 0.8729992
544.10 0.8727203
544.20 0.8724415
544.30 0.8721629
544.40 0.8718845
544.50 0.8716062
544.60 0.871328
544.70 0.87105
544.80 0.8707722
544.90 0.8704944
545.00 0.8702169
545.10 0.8699394
545.20 0.8696621
545.30 0.869385
545.40 0.869108
545.50 0.8688312
545.60 0.8685542
545.70 0.8682772
545.80 0.8680003
545.90 0.8677236
546.00 0.8674471
546.10 0.8671707
546.20 0.8668944
546.30 0.8666183
546.40 0.8663423
546.50 0.8660665
546.60 0.8657908
546.70 0.8655153
546.80 0.8652399
546.90 0.8649646
547.00 0.8646895
547.10 0.8644145
547.20 0.8641397
547.30 0.863865
547.40 0.8635905
547.50 0.8633161
547.60 0.8630419
547.70 0.8627677
547.80 0.8624938
547.90 0.86222
548.00 0.8619463
548.10 0.8616727
548.20 0.8613993
548.30 0.8611261
548.40 0.860853
548.50 0.86058
548.60 0.8603072
548.70 0.8600345
548.80 0.859762
548.90 0.8594896
549.00 0.8592174
549.10 0.8589453
549.20 0.8586733
549.30 0.8584015
549.40 0.8581298
549.50 0.8578583
549.60 0.8575869
549.70 0.8573156
549.80 0.8570445
549.90 0.8567735
550.00 0.8565026
550.10 0.8562319
550.20 0.8559614
550.30 0.855691
550.40 0.8554207
550.50 0.8551506
550.60 0.8548806
550.70 0.8546107
550.80 0.854341
550.90 0.8540714
551.00 0.8538019
551.10 0.8535322
551.20 0.8532626
551.30 0.8529932
551.40 0.8527239
551.50 0.8524547
551.60 0.8521857
551.70 0.8519168
551.80 0.8516481
551.90 0.8513795
552.00 0.851111
552.10 0.8508427
552.20 0.8505745
552.30 0.8503065
552.40 0.8500386
552.50 0.8497708
552.60 0.8495031
552.70 0.8492357
552.80 0.8489683
552.90 0.8487011
553.00 0.848434
553.10 0.8481671
553.20 0.8479003
553.30 0.8476336
553.40 0.8473671
553.50 0.8471007
553.60 0.8468344
553.70 0.8465683
553.80 0.8462944
553.90 0.8460153
554.00 0.8457364
554.10 0.8454576
554.20 0.8451789
554.30 0.8449004
554.40 0.8446221
554.50 0.8443439
554.60 0.8440658
554.70 0.8437879
554.80 0.8435102
554.90 0.8432325
555.00 0.8429551
555.10 0.8426777
555.20 0.8424006
555.30 0.8421235
555.40 0.8418466
555.50 0.8415699
555.60 0.8412933
555.70 0.8410168
555.80 0.8407405
555.90 0.8404643
556.00 0.8401883
556.10 0.8399124
556.20 0.8396367
556.30 0.8393611
556.40 0.8390856
556.50 0.8388103
556.60 0.8385349
556.70 0.8382596
556.80 0.8379845
556.90 0.8377095
557.00 0.8374346
557.10 0.8371599
557.20 0.8368854
557.30 0.836611
557.40 0.8363367
557.50 0.8360626
557.60 0.8357886
557.70 0.8355147
557.80 0.835241
557.90 0.8349675
558.00 0.834694
558.10 0.8344208
558.20 0.8341476
558.30 0.8338746
558.40 0.8336018
558.50 0.8333291
558.60 0.8330565
558.70 0.8327841
558.80 0.8325118
558.90 0.8322397
559.00 0.8319677
559.10 0.8316958
559.20 0.8314241
559.30 0.8311525
559.40 0.8308811
559.50 0.8306098
559.60 0.8303386
559.70 0.8300676
559.80 0.8297967
559.90 0.829526
560.00 0.8292554
560.10 0.828985
560.20 0.8287147
560.30 0.8284445
560.40 0.8281745
560.50 0.8279046
560.60 0.8276348
560.70 0.8273652
560.80 0.8270957
560.90 0.8268264
561.00 0.8265572
561.10 0.8262882
561.20 0.8260192
561.30 0.8257505
561.40 0.8254818
561.50 0.8252133
561.60 0.824945
561.70 0.8246768
561.80 0.8244087
561.90 0.8241407
562.00 0.8238729
562.10 0.8236052
562.20 0.8233374
562.30 0.8230697
562.40 0.8228022
562.50 0.8225349
562.60 0.8222676
562.70 0.8220005
562.80 0.8217336
562.90 0.8214668
563.00 0.8212001
563.10 0.8209336
563.20 0.8206671
563.30 0.8204009
563.40 0.8201347
563.50 0.8198688
563.60 0.8196029
563.70 0.8193372
563.80 0.8190716
563.90 0.8188062
564.00 0.8185408
564.10 0.8182757
564.20 0.8180106
564.30 0.8177457
564.40 0.817481
564.50 0.8172164
564.60 0.8169519
564.70 0.8166875
564.80 0.8164233
564.90 0.8161592
565.00 0.8158953
565.10 0.8156315
565.20 0.8153678
565.30 0.8151043
565.40 0.8148409
565.50 0.8145776
565.60 0.8143145
565.70 0.8140515
565.80 0.8137887
565.90 0.8135259
566.00 0.8132634
566.10 0.8130009
566.20 0.8127386
566.30 0.8124764
566.40 0.8122144
566.50 0.8119525
566.60 0.8116907
566.70 0.811429
566.80 0.8111675
566.90 0.8109062
567.00 0.8106449
567.10 0.8103838
567.20 0.8101228
567.30 0.809862
567.40 0.8096013
567.50 0.8093407
567.60 0.8090803
567.70 0.8088188
567.80 0.8085522
567.90 0.8082858
568.00 0.8080196
568.10 0.8077535
568.20 0.8074875
568.30 0.8072216
568.40 0.8069559
568.50 0.8066903
568.60 0.8064249
568.70 0.8061596
568.80 0.8058944
568.90 0.8056294
569.00 0.8053645
569.10 0.8050998
569.20 0.8048352
569.30 0.8045707
569.40 0.8043063
569.50 0.8040421
569.60 0.8037781
569.70 0.8035141
569.80 0.8032503
569.90 0.8029867
570.00 0.8027231
570.10 0.8024597
570.20 0.8021965
570.30 0.8019334
570.40 0.8016704
570.50 0.8014075
570.60 0.8011448
570.70 0.8008822
570.80 0.8006198
570.90 0.8003575
571.00 0.8000953
571.10 0.7998332
571.20 0.7995713
571.30 0.7993096
571.40 0.7990479
571.50 0.7987864
571.60 0.798525
571.70 0.7982638
571.80 0.7980027
571.90 0.7977417
572.00 0.7974809
572.10 0.7972202
572.20 0.7969596
572.30 0.7966992
572.40 0.7964389
572.50 0.7961787
572.60 0.7959187
572.70 0.7956588
572.80 0.795399
572.90 0.7951394
573.00 0.7948799
573.10 0.7946205
573.20 0.7943612
573.30 0.7941021
573.40 0.7938424
573.50 0.7935818
573.60 0.7933213
573.70 0.7930609
573.80 0.7928007
573.90 0.7925406
574.00 0.7922806
574.10 0.7920208
574.20 0.7917611
574.30 0.7915015
574.40 0.791242
574.50 0.7909827
574.60 0.7907236
574.70 0.7904645
574.80 0.7902056
574.90 0.7899469
575.00 0.7896882
575.10 0.7894297
575.20 0.7891713
575.30 0.7889131
575.40 0.788655
575.50 0.788397
575.60 0.7881391
575.70 0.7878814
575.80 0.7876238
575.90 0.7873664
576.00 0.787109
576.10 0.7868518
576.20 0.7865948
576.30 0.7863378
576.40 0.786081
576.50 0.7858244
576.60 0.7855678
576.70 0.7853114
576.80 0.7850551
576.90 0.784799
577.00 0.784543
577.10 0.7842871
577.20 0.7840313
577.30 0.7837757
577.40 0.7835202
577.50 0.7832648
577.60 0.7830119
577.70 0.7827627
577.80 0.7825137
577.90 0.7822649
578.00 0.7820161
578.10 0.7817675
578.20 0.781519
578.30 0.7812706
578.40 0.7810223
578.50 0.7807742
578.60 0.7805262
578.70 0.7802783
578.80 0.7800306
578.90 0.7797829
579.00 0.7795354
579.10 0.7792861
579.20 0.779017
579.30 0.7787481
579.40 0.7784793
579.50 0.7782107
579.60 0.7779421
579.70 0.7776738
579.80 0.7774055
579.90 0.7771374
580.00 0.7768695
580.10 0.776608
580.20 0.7763569
580.30 0.776106
580.40 0.7758552
580.50 0.7756045
580.60 0.7753539
580.70 0.7751035
580.80 0.7748532
580.90 0.774603
581.00 0.774353
581.10 0.7741031
581.20 0.7738533
581.30 0.7736036
581.40 0.773354
581.50 0.7731046
581.60 0.7728553
581.70 0.7726061
581.80 0.7723571
581.90 0.7721082
582.00 0.7718594
582.10 0.7716045
582.20 0.7713394
582.30 0.7710745
582.40 0.7708097
582.50 0.7705451
582.60 0.7702806
582.70 0.7700162
582.80 0.769752
582.90 0.7694879
583.00 0.769224
583.10 0.7689602
583.20 0.7686965
583.30 0.7684329
583.40 0.7681695
583.50 0.7679063
583.60 0.7676526
583.70 0.7674144
583.80 0.7671764
583.90 0.7669385
584.00 0.7667008
584.10 0.7664631
584.20 0.7662256
584.30 0.7659881
584.40 0.7657508
584.50 0.7655136
584.60 0.7652766
584.70 0.7650396
584.80 0.7648028
584.90 0.7645616
585.00 0.7643002
585.10 0.764039
585.20 0.7637779
585.30 0.7635169
585.40 0.7632561
585.50 0.7629954
585.60 0.7627348
585.70 0.7624744
585.80 0.7622141
585.90 0.7619539
586.00 0.7616939
586.10 0.761434
586.20 0.7611743
586.30 0.7609146
586.40 0.7606551
586.50 0.7603958
586.60 0.7601365
586.70 0.7598774
586.80 0.7596185
586.90 0.7593596
587.00 0.7591009
587.10 0.7588423
587.20 0.7585839
587.30 0.7583256
587.40 0.7580674
587.50 0.7578094
587.60 0.7575515
587.70 0.7572937
587.80 0.757036
587.90 0.7567785
588.00 0.7565211
588.10 0.7562639
588.20 0.7560068
588.30 0.7557498
588.40 0.7555134
588.50 0.7553105
588.60 0.7551077
588.70 0.754905
588.80 0.7547023
588.90 0.7544998
589.00 0.754277
589.10 0.7540209
589.20 0.753765
589.30 0.7535092
589.40 0.7532535
589.50 0.752998
589.60 0.7527426
589.70 0.7524873
589.80 0.7522322
589.90 0.7519771
590.00 0.7517223
590.10 0.7514675
590.20 0.7512129
590.30 0.7509584
590.40 0.750704
590.50 0.7504498
590.60 0.7501957
590.70 0.7499417
590.80 0.7496878
590.90 0.7494341
591.00 0.7491805
591.10 0.748927
591.20 0.7486737
591.30 0.7484205
591.40 0.7481674
591.50 0.7479145
591.60 0.7476616
591.70 0.747409
591.80 0.7471564
591.90 0.7469039
592.00 0.7466516
592.10 0.7463995
592.20 0.7461474
592.30 0.7458955
592.40 0.7456437
592.50 0.745392
592.60 0.7451405
592.70 0.744889
592.80 0.7446377
592.90 0.7443866
593.00 0.7441355
593.10 0.7438846
593.20 0.7436338
593.30 0.7433832
593.40 0.7431327
593.50 0.7428823
593.60 0.742632
593.70 0.7423818
593.80 0.7421318
593.90 0.7418819
594.00 0.7416321
594.10 0.7413825
594.20 0.741133
594.30 0.7408836
594.40 0.7406343
594.50 0.7403852
594.60 0.7401362
594.70 0.7398873
594.80 0.7396385
594.90 0.7393899
595.00 0.7391414
595.10 0.7389006
595.20 0.7386724
595.30 0.7384442
595.40 0.7382162
595.50 0.7379883
595.60 0.7377606
595.70 0.7375329
595.80 0.7373053
595.90 0.7370779
596.00 0.7368505
596.10 0.7366233
596.20 0.7363962
596.30 0.7361692
596.40 0.7359423
596.50 0.7357155
596.60 0.7354889
596.70 0.7352499
596.80 0.7350036
596.90 0.7347573
597.00 0.7345112
597.10 0.7342652
597.20 0.7340193
597.30 0.7337735
597.40 0.7335279
597.50 0.7332824
597.60 0.733037
597.70 0.7327917
597.80 0.7325466
597.90 0.7323016
598.00 0.7320567
598.10 0.7318119
598.20 0.7315672
598.30 0.7313227
598.40 0.7310783
598.50 0.730834
598.60 0.7305899
598.70 0.7303458
598.80 0.7301019
598.90 0.7298581
599.00 0.7296144
599.10 0.7293709
599.20 0.7291275
599.30 0.7288842
599.40 0.728641
599.50 0.7283979
599.60 0.728155
599.70 0.7279122
599.80 0.7276695
599.90 0.7274269
600.00 0.7271844
600.10 0.7269421
600.20 0.7266999
600.30 0.7264578
600.40 0.7262158
600.50 0.725974
600.60 0.7257322
600.70 0.7254906
600.80 0.7252491
600.90 0.7250078
601.00 0.7247665
601.10 0.7245254
601.20 0.7242844
601.30 0.7240435
601.40 0.7238027
601.50 0.7235621
601.60 0.7233216
601.70 0.7230812
601.80 0.7228409
601.90 0.7226007
602.00 0.7223607
602.10 0.7221207
602.20 0.7218809
602.30 0.7216412
602.40 0.7214017
602.50 0.7211622
602.60 0.7209229
602.70 0.7206837
602.80 0.7204446
602.90 0.7202056
603.00 0.7199668
603.10 0.719728
603.20 0.7194894
603.30 0.7192509
603.40 0.7190125
603.50 0.7187743
603.60 0.7185361
603.70 0.7182981
603.80 0.7180602
603.90 0.7178224
604.00 0.7175847
604.10 0.7173472
604.20 0.7171098
604.30 0.7168724
604.40 0.7166352
604.50 0.7163675
604.60 0.7161
604.70 0.7158326
604.80 0.7155653
604.90 0.7152981
605.00 0.7150311
605.10 0.7147643
605.20 0.7144975
605.30 0.7142309
605.40 0.7139645
605.50 0.7137287
605.60 0.713493
605.70 0.7132574
605.80 0.7130219
605.90 0.7127866
606.00 0.7125514
606.10 0.7123163
606.20 0.7120813
606.30 0.7118464
606.40 0.7116116
606.50 0.711377
606.60 0.7111425
606.70 0.7109081
606.80 0.7106738
606.90 0.7104396
607.00 0.7102055
607.10 0.7099716
607.20 0.7097378
607.30 0.709504
607.40 0.7092704
607.50 0.709037
607.60 0.7088036
607.70 0.7085703
607.80 0.7083372
607.90 0.7081042
608.00 0.7078713
608.10 0.7076385
608.20 0.7074058
608.30 0.7071732
608.40 0.7069408
608.50 0.7067084
608.60 0.7064762
608.70 0.7062441
608.80 0.7060121
608.90 0.7057802
609.00 0.7055485
609.10 0.7053168
609.20 0.7050853
609.30 0.7048539
609.40 0.7046225
609.50 0.7043914
609.60 0.7041603
609.70 0.7039293
609.80 0.7036985
609.90 0.7034677
610.00 0.7032371
610.10 0.7030066
610.20 0.7027762
610.30 0.7025459
610.40 0.7023157
610.50 0.7020857
610.60 0.7018557
610.70 0.7016259
610.80 0.7013962
610.90 0.7011466
611.00 0.7008971
611.10 0.7006477
611.20 0.7003985
611.30 0.7001494
611.40 0.6999005
611.50 0.6996516
611.60 0.6994029
611.70 0.6991543
611.80 0.6989059
611.90 0.6986575
612.00 0.6984093
612.10 0.6981612
612.20 0.6979133
612.30 0.6976654
612.40 0.6974376
612.50 0.6972099
612.60 0.6969823
612.70 0.6967548
612.80 0.6965274
612.90 0.6963001
613.00 0.696073
613.10 0.6958459
613.20 0.695619
613.30 0.6953922
613.40 0.6951654
613.50 0.6949388
613.60 0.6947123
613.70 0.694486
613.80 0.6942597
613.90 0.6940335
614.00 0.6938075
614.10 0.6935815
614.20 0.6933557
614.30 0.69313
614.40 0.6929044
614.50 0.6926789
614.60 0.6924535
614.70 0.6922282
614.80 0.6919912
614.90 0.691752
615.00 0.6915128
615.10 0.6912738
615.20 0.6910349
615.30 0.6907961
615.40 0.6905575
615.50 0.6903189
615.60 0.6900805
615.70 0.6898422
615.80 0.689604
615.90 0.6893659
616.00 0.689128
616.10 0.6888901
616.20 0.6886524
616.30 0.6884148
616.40 0.6881773
616.50 0.6879399
616.60 0.6877027
616.70 0.6874656
616.80 0.6872286
616.90 0.6869985
617.00 0.6867686
617.10 0.6865388
617.20 0.6863092
617.30 0.6860796
617.40 0.6858501
617.50 0.6856208
617.60 0.6853916
617.70 0.6851625
617.80 0.6849335
617.90 0.6847046
618.00 0.6844758
618.10 0.6842471
618.20 0.6840186
618.30 0.6837901
618.40 0.6835618
618.50 0.6833336
618.60 0.6831055
618.70 0.6828775
618.80 0.6826496
618.90 0.6824218
619.00 0.6821942
619.10 0.6819666
619.20 0.6817392
619.30 0.6815119
619.40 0.6812847
619.50 0.6810576
619.60 0.6808306
619.70 0.6806037
619.80 0.6803769
619.90 0.6801503
620.00 0.6799237
620.10 0.6796973
620.20 0.679471
620.30 0.6792447
620.40 0.6790186
620.50 0.6787926
620.60 0.6785668
620.70 0.678341
620.80 0.6781153
620.90 0.677889
621.00 0.6776613
621.10 0.6774338
621.20 0.6772064
621.30 0.6769791
621.40 0.6767519
621.50 0.6765248
621.60 0.6762978
621.70 0.6760709
621.80 0.6758442
621.90 0.6756175
622.00 0.675391
622.10 0.6751645
622.20 0.6749382
622.30 0.674712
622.40 0.6744859
622.50 0.6742599
622.60 0.6740341
622.70 0.6738083
622.80 0.6735826
622.90 0.6733571
623.00 0.6731317
623.10 0.6729063
623.20 0.6726811
623.30 0.672456
623.40 0.672231
623.50 0.6720062
623.60 0.6717814
623.70 0.6715567
623.80 0.6713322
623.90 0.6711077
624.00 0.6708834
624.10 0.6706592
624.20 0.670435
624.30 0.670211
624.40 0.6699871
624.50 0.6697633
624.60 0.6695397
624.70 0.6693161
624.80 0.6690926
624.90 0.6688693
625.00 0.668646
625.10 0.6684229
625.20 0.6681998
625.30 0.6679769
625.40 0.6677541
625.50 0.6675314
625.60 0.6673088
625.70 0.6670863
625.80 0.6668639
625.90 0.6666417
626.00 0.6664195
626.10 0.6661975
626.20 0.6659755
626.30 0.6657537
626.40 0.6655319
626.50 0.6653103
626.60 0.6650888
626.70 0.6648674
626.80 0.6646461
626.90 0.6644249
627.00 0.6642038
627.10 0.6639828
627.20 0.6637621
627.30 0.6635414
627.40 0.6633208
627.50 0.6631004
627.60 0.66288
627.70 0.6626597
627.80 0.6624396
627.90 0.6622196
628.00 0.6619996
628.10 0.6617798
628.20 0.6615601
628.30 0.6613405
628.40 0.661121
628.50 0.6609016
628.60 0.6606823
628.70 0.6604631
628.80 0.660244
628.90 0.6600251
629.00 0.6598062
629.10 0.6595874
629.20 0.6593688
629.30 0.6591502
629.40 0.6589318
629.50 0.6587134
629.60 0.6584952
629.70 0.6582771
629.80 0.658059
629.90 0.6578411
630.00 0.6576233
630.10 0.6574056
630.20 0.657188
630.30 0.6569622
630.40 0.6567359
630.50 0.6565096
630.60 0.6562835
630.70 0.6560575
630.80 0.6558315
630.90 0.6556057
631.00 0.65538
631.10 0.6551544
631.20 0.6549289
631.30 0.6547036
631.40 0.6544783
631.50 0.6542532
631.60 0.6540281
631.70 0.6538032
631.80 0.6535784
631.90 0.6533536
632.00 0.653129
632.10 0.6529045
632.20 0.6526802
632.30 0.6524559
632.40 0.6522317
632.50 0.6520077
632.60 0.6517837
632.70 0.6515599
632.80 0.6513361
632.90 0.6511125
633.00 0.650889
633.10 0.6506656
633.20 0.6504423
633.30 0.6502191
633.40 0.6500011
633.50 0.6497871
633.60 0.6495732
633.70 0.6493594
633.80 0.6491457
633.90 0.6489321
634.00 0.6487186
634.10 0.6485052
634.20 0.648292
634.30 0.6480788
634.40 0.6478657
634.50 0.6476527
634.60 0.6474399
634.70 0.6472271
634.80 0.6470144
634.90 0.6468019
635.00 0.6465894
635.10 0.646377
635.20 0.6461648
635.30 0.6459526
635.40 0.6457405
635.50 0.6455286
635.60 0.6453167
635.70 0.645105
635.80 0.6448933
635.90 0.6446818
636.00 0.6444703
636.10 0.644259
636.20 0.6440477
636.30 0.6438366
636.40 0.6436255
636.50 0.6434146
636.60 0.6431959
636.70 0.6429765
636.80 0.6427571
636.90 0.6425379
637.00 0.6423187
637.10 0.6420997
637.20 0.6418808
637.30 0.641662
637.40 0.6414433
637.50 0.6412246
637.60 0.6410061
637.70 0.6407878
637.80 0.6405695
637.90 0.6403513
638.00 0.6401332
638.10 0.6399152
638.20 0.6396974
638.30 0.6394796
638.40 0.6392619
638.50 0.6390444
638.60 0.6388269
638.70 0.6386096
638.80 0.6383924
638.90 0.6381752
639.00 0.6379582
639.10 0.6377413
639.20 0.6375245
639.30 0.6373077
639.40 0.6370911
639.50 0.6368746
639.60 0.6366582
639.70 0.636442
639.80 0.6362259
639.90 0.63601
640.00 0.6357942
640.10 0.6355785
640.20 0.6353629
640.30 0.6351474
640.40 0.634932
640.50 0.6347167
640.60 0.6345015
640.70 0.6342864
640.80 0.6340714
640.90 0.6338565
641.00 0.6336418
641.10 0.6334271
641.20 0.6332125
641.30 0.6329981
641.40 0.6327837
641.50 0.6325694
641.60 0.6323553
641.70 0.6321412
641.80 0.6319272
641.90 0.6317134
642.00 0.6314996
642.10 0.631286
642.20 0.6310725
642.30 0.630859
642.40 0.6306457
642.50 0.6304324
642.60 0.6302193
642.70 0.6300063
642.80 0.6297933
642.90 0.6295805
643.00 0.6293678
643.10 0.6291551
643.20 0.6289426
643.30 0.6287302
643.40 0.6285179
643.50 0.6283056
643.60 0.6280935
643.70 0.6278815
643.80 0.6276696
643.90 0.6274577
644.00 0.627246
644.10 0.6270344
644.20 0.6268229
644.30 0.6266115
644.40 0.6264002
644.50 0.626189
644.60 0.6259778
644.70 0.6257668
644.80 0.6255559
644.90 0.6253451
645.00 0.6251344
645.10 0.6249238
645.20 0.6247133
645.30 0.6245029
645.40 0.6242926
645.50 0.6240824
645.60 0.6238723
645.70 0.6236623
645.80 0.6234524
645.90 0.6232426
646.00 0.6230329
646.10 0.6228233
646.20 0.622614
646.30 0.6224047
646.40 0.6221956
646.50 0.6219865
646.60 0.6217776
646.70 0.6215688
646.80 0.62136
646.90 0.6211514
647.00 0.6209428
647.10 0.6207344
647.20 0.620526
647.30 0.6203178
647.40 0.6201096
647.50 0.6199016
647.60 0.6196936
647.70 0.6194858
647.80 0.619278
647.90 0.6190704
648.00 0.6188628
648.10 0.6186554
648.20 0.618448
648.30 0.6182408
648.40 0.6180336
648.50 0.6178266
648.60 0.6176196
648.70 0.6174127
648.80 0.617206
648.90 0.6169993
649.00 0.6167927
649.10 0.6165862
649.20 0.6163799
649.30 0.6161736
649.40 0.6159674
649.50 0.6157613
649.60 0.6155554
649.70 0.6153495
649.80 0.6151437
649.90 0.614938
650.00 0.6147324
650.10 0.6145269
650.20 0.6143216
650.30 0.6141163
650.40 0.6139111
650.50 0.613706
650.60 0.613501
650.70 0.613296
650.80 0.6130912
650.90 0.6128865
651.00 0.6126819
651.10 0.6124774
651.20 0.612273
651.30 0.6120686
651.40 0.6118644
651.50 0.6116603
651.60 0.6114562
651.70 0.6112523
651.80 0.6110484
651.90 0.6108447
652.00 0.610641
652.10 0.6104375
652.20 0.610234
652.30 0.6100307
652.40 0.6098274
652.50 0.6096242
652.60 0.6094155
652.70 0.6092039
652.80 0.6089924
652.90 0.608781
653.00 0.6085697
653.10 0.6083585
653.20 0.6081474
653.30 0.6079364
653.40 0.6077255
653.50 0.6075146
653.60 0.6073039
653.70 0.6070933
653.80 0.6068828
653.90 0.6066724
654.00 0.6064621
654.10 0.6062519
654.20 0.6060418
654.30 0.6058318
654.40 0.6056219
654.50 0.6054121
654.60 0.6052024
654.70 0.6049928
654.80 0.6047833
654.90 0.6045739
655.00 0.6043646
655.10 0.6041554
655.20 0.6039463
655.30 0.6037372
655.40 0.6035283
655.50 0.6033195
655.60 0.6031108
655.70 0.6029022
655.80 0.6027054
655.90 0.6025086
656.00 0.6023119
656.10 0.6021153
656.20 0.6019188
656.30 0.6017224
656.40 0.6015261
656.50 0.6013299
656.60 0.6011338
656.70 0.6009377
656.80 0.6007418
656.90 0.600546
657.00 0.6003502
657.10 0.6001545
657.20 0.5999589
657.30 0.5997635
657.40 0.5995681
657.50 0.5993728
657.60 0.5991776
657.70 0.5989824
657.80 0.5988003
657.90 0.5986007
658.00 0.598398
658.10 0.5981954
658.20 0.5979929
658.30 0.5977905
658.40 0.5975882
658.50 0.597386
658.60 0.5971839
658.70 0.5969818
658.80 0.5967799
658.90 0.5965781
659.00 0.5963764
659.10 0.596183
659.20 0.5960021
659.30 0.5957983
659.40 0.5955945
659.50 0.5953908
659.60 0.5951872
659.70 0.5949838
659.80 0.5947804
659.90 0.5945771
660.00 0.5943739
660.10 0.5941708
660.20 0.5939678
660.30 0.5937649
660.40 0.5935367
660.50 0.5933041
660.60 0.5930716
660.70 0.5928392
660.80 0.592607
660.90 0.5924277
661.00 0.5922484
661.10 0.5920693
661.20 0.5918902
661.30 0.5917112
661.40 0.5915323
661.50 0.5913535
661.60 0.5911747
661.70 0.590996
661.80 0.5908175
661.90 0.5905894
662.00 0.5903614
662.10 0.5901335
662.20 0.5899058
662.30 0.5896781
662.40 0.5894927
662.50 0.5893147
662.60 0.5891368
662.70 0.5889591
662.80 0.5887813
662.90 0.5886037
663.00 0.5884262
663.10 0.5882487
663.20 0.587817
663.30 0.5876397
663.40 0.5874626
663.50 0.5872855
663.60 0.5871085
663.70 0.5869316
663.80 0.5867548
663.90 0.5865781
664.00 0.5864014
664.10 0.5861825
664.20 0.5859638
664.30 0.5857451
664.40 0.5855266
664.50 0.5853081
664.60 0.5850898
664.70 0.5849138
664.80 0.5847378
664.90 0.5845619
665.00 0.5843861
665.10 0.5842104
665.20 0.5840348
665.30 0.5838592
665.40 0.5836837
665.50 0.5833923
665.60 0.5830805
665.70 0.5829053
665.80 0.5827303
665.90 0.5825552
666.00 0.5823803
666.10 0.5822055
666.20 0.5820307
666.30 0.581856
666.40 0.5816814
666.50 0.5814712
666.60 0.5812548
666.70 0.5810385
666.80 0.5808223
666.90 0.5806062
667.00 0.5803902
667.10 0.5802099
667.20 0.580036
667.30 0.5798622
667.40 0.5796884
667.50 0.5795147
667.60 0.5793411
667.70 0.5791676
667.80 0.5789942
667.90 0.57857
668.00 0.5783968
668.10 0.5782237
668.20 0.5780506
668.30 0.5778776
668.40 0.5777047
668.50 0.5775319
668.60 0.5773592
668.70 0.5771865
668.80 0.5769653
668.90 0.5767443
669.00 0.5765233
669.10 0.5763025
669.20 0.5760818
669.30 0.5758811
669.40 0.5756841
669.50 0.5754872
669.60 0.5752904
669.70 0.5750936
669.80 0.574897
669.90 0.5747004
670.00 0.574504
670.10 0.5743076
670.20 0.5741113
670.30 0.5739363
670.40 0.5737651
670.50 0.573594
670.60 0.5734229
670.70 0.5732519
670.80 0.5730587
670.90 0.5728656
671.00 0.5726726
671.10 0.5724797
671.20 0.5722868
671.30 0.5720941
671.40 0.5719014
671.50 0.5717088
671.60 0.5715163
671.70 0.571324
671.80 0.5711316
671.90 0.5709583
672.00 0.5707884
672.10 0.5706186
672.20 0.5704488
672.30 0.5702791
672.40 0.5700837
672.50 0.5698865
672.60 0.5696894
672.70 0.5694923
672.80 0.5692954
672.90 0.5690985
673.00 0.5689017
673.10 0.5687051
673.20 0.5685085
673.30 0.5683396
673.40 0.5681499
673.50 0.5679565
673.60 0.5677632
673.70 0.56757
673.80 0.5673769
673.90 0.5671839
674.00 0.566991
674.10 0.5667982
674.20 0.5666054
674.30 0.5664128
674.40 0.5662202
674.50 0.5660277
674.60 0.5658354
674.70 0.5656431
674.80 0.5654509
674.90 0.5652588
675.00 0.5650667
675.10 0.5648748
675.20 0.5646829
675.30 0.5644912
675.40 0.5642953
675.50 0.5640989
675.60 0.5639025
675.70 0.5637062
675.80 0.56351
675.90 0.5633138
676.00 0.5631178
676.10 0.5629219
676.20 0.562726
676.30 0.5625303
676.40 0.5623346
676.50 0.5621391
676.60 0.5619436
676.70 0.5617482
676.80 0.5615529
676.90 0.5613577
677.00 0.5611626
677.10 0.5609675
677.20 0.5607726
677.30 0.5605778
677.40 0.560383
677.50 0.5601883
677.60 0.5599938
677.70 0.5597993
677.80 0.5596049
677.90 0.5594184
678.00 0.5592334
678.10 0.5590484
678.20 0.5588635
678.30 0.5586788
678.40 0.5584941
678.50 0.5583094
678.60 0.5581249
678.70 0.5579405
678.80 0.5577561
678.90 0.5575718
679.00 0.5573876
679.10 0.5572
679.20 0.5570109
679.30 0.556822
679.40 0.5566331
679.50 0.5564443
679.60 0.5562555
679.70 0.5560669
679.80 0.5558784
679.90 0.5556899
680.00 0.5555015
680.10 0.5553133
680.20 0.5551251
680.30 0.554937
680.40 0.5547489
680.50 0.554561
680.60 0.5543732
680.70 0.5541854
680.80 0.5539977
680.90 0.5538101
681.00 0.5536226
681.10 0.5534352
681.20 0.5532479
681.30 0.5530606
681.40 0.5528735
681.50 0.5526864
681.60 0.5524994
681.70 0.5523125
681.80 0.5521257
681.90 0.551939
682.00 0.5517523
682.10 0.5515658
682.20 0.5513793
682.30 0.5511929
682.40 0.5510066
682.50 0.5508204
682.60 0.5506343
682.70 0.5504482
682.80 0.5502623
682.90 0.5500764
683.00 0.5498906
683.10 0.5497049
683.20 0.5495193
683.30 0.5493337
683.40 0.5491483
683.50 0.5489629
683.60 0.5487776
683.70 0.5485925
683.80 0.5484073
683.90 0.5482223
684.00 0.5480374
684.10 0.5478525
684.20 0.5476678
684.30 0.5474831
684.40 0.5472985
684.50 0.547114
684.60 0.5469295
684.70 0.5467452
684.80 0.5465609
684.90 0.5463767
685.00 0.5461926
685.10 0.5460086
685.20 0.5458247
685.30 0.5456409
685.40 0.5454571
685.50 0.5452734
685.60 0.5450898
685.70 0.5449063
685.80 0.5447229
685.90 0.5445398
686.00 0.5443568
686.10 0.5441738
686.20 0.543991
686.30 0.5438082
686.40 0.5436256
686.50 0.543443
686.60 0.5432605
686.70 0.543078
686.80 0.5428957
686.90 0.5427134
687.00 0.5425313
687.10 0.5423492
687.20 0.5421672
687.30 0.5419852
687.40 0.5418034
687.50 0.5416216
687.60 0.54144
687.70 0.5412584
687.80 0.5410769
687.90 0.5408954
688.00 0.5407141
688.10 0.5405328
688.20 0.5403516
688.30 0.5401705
688.40 0.5399895
688.50 0.5398086
688.60 0.5396277
688.70 0.539447
688.80 0.5392663
688.90 0.5390857
689.00 0.5389052
689.10 0.5387247
689.20 0.5385444
689.30 0.5383641
689.40 0.5381839
689.50 0.5380038
689.60 0.5378237
689.70 0.5376438
689.80 0.5374639
689.90 0.5372841
690.00 0.5371044
690.10 0.5369248
690.20 0.5367453
690.30 0.5365658
690.40 0.5363864
690.50 0.5362071
690.60 0.5360279
690.70 0.5358488
690.80 0.5356697
690.90 0.5354908
691.00 0.5353119
691.10 0.5351331
691.20 0.5349543
691.30 0.5347757
691.40 0.5345971
691.50 0.5344186
691.60 0.5342402
691.70 0.5340619
691.80 0.5338837
691.90 0.5337055
692.00 0.5335274
692.10 0.5333494
692.20 0.5331715
692.30 0.5329936
692.40 0.5328159
692.50 0.5326382
692.60 0.5324606
692.70 0.532283
692.80 0.5321051
692.90 0.5319272
693.00 0.5317494
693.10 0.5315718
693.20 0.5313941
693.30 0.5312166
693.40 0.5310392
693.50 0.5308618
693.60 0.5306845
693.70 0.5305073
693.80 0.5303302
693.90 0.5301531
694.00 0.5299762
694.10 0.5297993
694.20 0.5296225
694.30 0.5294457
694.40 0.5292691
694.50 0.5290925
694.60 0.528916
694.70 0.5287396
694.80 0.5285633
694.90 0.5283871
695.00 0.5282109
695.10 0.5280348
695.20 0.5278588
695.30 0.5276829
695.40 0.527507
695.50 0.5273312
695.60 0.5271555
695.70 0.5269799
695.80 0.5268044
695.90 0.5266289
696.00 0.5264536
696.10 0.5262783
696.20 0.526103
696.30 0.5259279
696.40 0.5257528
696.50 0.5255779
696.60 0.5254
696.70 0.5252215
696.80 0.5250431
696.90 0.5248648
697.00 0.5246866
697.10 0.5245085
697.20 0.5243304
697.30 0.5241524
697.40 0.5239745
697.50 0.5237967
697.60 0.5236189
697.70 0.5234412
697.80 0.5232637
697.90 0.5230862
698.00 0.5229087
698.10 0.5227314
698.20 0.5225541
698.30 0.5223769
698.40 0.5221998
698.50 0.5220228
698.60 0.5218459
698.70 0.521669
698.80 0.5214922
698.90 0.5213155
699.00 0.5211389
699.10 0.5209529
699.20 0.5207649
699.30 0.5205769
699.40 0.520389
699.50 0.5202012
699.60 0.5200135
699.70 0.5198476
699.80 0.5196829
699.90 0.5195182
700.00 0.5193537
700.10 0.5191892
700.20 0.5190247
700.30 0.5188604
700.40 0.5186961
700.50 0.5185319
700.60 0.5183678
700.70 0.5182037
700.80 0.5180397
700.90 0.5178758
701.00 0.517712
701.10 0.5175367
701.20 0.5173587
701.30 0.5171808
701.40 0.5170031
701.50 0.5168254
701.60 0.5166477
701.70 0.5164702
701.80 0.5162927
701.90 0.5161154
702.00 0.5159381
702.10 0.5157608
702.20 0.5155837
702.30 0.5154066
702.40 0.5152297
702.50 0.5150528
702.60 0.5148775
702.70 0.5147026
702.80 0.5145279
702.90 0.5143532
703.00 0.5141785
703.10 0.514004
703.20 0.5138295
703.30 0.5136552
703.40 0.5134809
703.50 0.5133066
703.60 0.5131325
703.70 0.5129584
703.80 0.5127844
703.90 0.5126105
704.00 0.5124367
704.10 0.5122629
704.20 0.5120938
704.30 0.5119259
704.40 0.511758
704.50 0.5115902
704.60 0.5114224
704.70 0.5112548
704.80 0.5110872
704.90 0.5109196
705.00 0.5107522
705.10 0.5105848
705.20 0.5104054
705.30 0.5102232
705.40 0.5100411
705.50 0.509859
705.60 0.5096771
705.70 0.5094952
705.80 0.5093437
705.90 0.5091994
706.00 0.5090552
706.10 0.508911
706.20 0.5087669
706.30 0.5086228
706.40 0.5082546
706.50 0.5081108
706.60 0.507967
706.70 0.5078232
706.80 0.5076795
706.90 0.5075359
707.00 0.507347
707.10 0.5071476
707.20 0.5069483
707.30 0.506749
707.40 0.5065951
707.50 0.5064519
707.60 0.5063088
707.70 0.5061657
707.80 0.5060227
707.90 0.5058797
708.00 0.5057007
708.10 0.5055133
708.20 0.5053259
708.30 0.5051386
708.40 0.5049514
708.50 0.5047643
708.60 0.5045773
708.70 0.5043904
708.80 0.5042035
708.90 0.5040168
709.00 0.5038549
709.10 0.5036989
709.20 0.5035429
709.30 0.503387
709.40 0.5032312
709.50 0.5030755
709.60 0.5029198
709.70 0.5027642
709.80 0.5026087
709.90 0.5024532
710.00 0.5022978
710.10 0.5021425
710.20 0.5019873
710.30 0.5018321
710.40 0.5016769
710.50 0.5015219
710.60 0.5013542
710.70 0.5011836
710.80 0.501013
710.90 0.5008426
711.00 0.5006722
711.10 0.5005019
711.20 0.5003317
711.30 0.5001615
711.40 0.4999914
711.50 0.4998214
711.60 0.4996515
711.70 0.4994816
711.80 0.4993119
711.90 0.4991422
712.00 0.4989725
712.10 0.4988051
712.20 0.4986383
712.30 0.4984716
712.40 0.4983049
712.50 0.4981383
712.60 0.4979717
712.70 0.4978053
712.80 0.4976389
712.90 0.4974726
713.00 0.4973063
713.10 0.4971402
713.20 0.4969741
713.30 0.496808
713.40 0.4966421
713.50 0.4964762
713.60 0.4963104
713.70 0.4961329
713.80 0.4959315
713.90 0.4957302
714.00 0.495529
714.10 0.4953571
714.20 0.4951921
714.30 0.4950271
714.40 0.4948622
714.50 0.4946974
714.60 0.4945327
714.70 0.494368
714.80 0.4942034
714.90 0.4940389
715.00 0.4938745
715.10 0.4937101
715.20 0.4935458
715.30 0.4933816
715.40 0.4932174
715.50 0.4930534
715.60 0.4928893
715.70 0.4927254
715.80 0.4925616
715.90 0.4923978
716.00 0.492234
716.10 0.4920704
716.20 0.4919068
716.30 0.4917433
716.40 0.4915799
716.50 0.4914165
716.60 0.4912526
716.70 0.4910885
716.80 0.4909246
716.90 0.4907607
717.00 0.4905969
717.10 0.4904331
717.20 0.4902695
717.30 0.4901059
717.40 0.4899423
717.50 0.4897789
717.60 0.4896155
717.70 0.4894522
717.80 0.489289
717.90 0.4891258
718.00 0.4889627
718.10 0.4887997
718.20 0.4886372
718.30 0.4884752
718.40 0.4883132
718.50 0.4881513
718.60 0.4879894
718.70 0.4878276
718.80 0.4876659
718.90 0.4875043
719.00 0.4873427
719.10 0.4871812
719.20 0.4870198
719.30 0.4868585
719.40 0.4866972
719.50 0.486536
719.60 0.4863748
719.70 0.4862138
719.80 0.4860528
719.90 0.4858918
720.00 0.485731
720.10 0.4855702
720.20 0.4854095
720.30 0.4852488
720.40 0.4850882
720.50 0.4849277
720.60 0.4847673
720.70 0.4846237
720.80 0.4844893
720.90 0.484321
721.00 0.4841514
721.10 0.4839819
721.20 0.4838125
721.30 0.4836431
721.40 0.4834738
721.50 0.4833046
721.60 0.4831354
721.70 0.4829663
721.80 0.4827973
721.90 0.4826284
722.00 0.4824596
722.10 0.4822908
722.20 0.4821221
722.30 0.4819535
722.40 0.4817849
722.50 0.4816165
722.60 0.4814481
722.70 0.481284
722.80 0.4811223
722.90 0.4809606
723.00 0.4807991
723.10 0.4806376
723.20 0.4804761
723.30 0.4803148
723.40 0.4801535
723.50 0.4799923
723.60 0.4798311
723.70 0.47967
723.80 0.479509
723.90 0.4793481
724.00 0.4791872
724.10 0.4790264
724.20 0.4788669
724.30 0.478708
724.40 0.4785492
724.50 0.4783905
724.60 0.4782318
724.70 0.4780732
724.80 0.4779147
724.90 0.4777562
725.00 0.4775978
725.10 0.4774395
725.20 0.4772812
725.30 0.4771231
725.40 0.4769649
725.50 0.4768069
725.60 0.4766489
725.70 0.476491
725.80 0.4763366
725.90 0.4761842
726.00 0.4760318
726.10 0.4758794
726.20 0.4757272
726.30 0.475575
726.40 0.4754228
726.50 0.4752708
726.60 0.4751188
726.70 0.4749668
726.80 0.4748058
726.90 0.4746399
727.00 0.474474
727.10 0.4743082
727.20 0.4741425
727.30 0.4739769
727.40 0.4738343
727.50 0.473704
727.60 0.4735738
727.70 0.4734437
727.80 0.4732449
727.90 0.4730093
728.00 0.4728425
728.10 0.4727126
728.20 0.4725828
728.30 0.472453
728.40 0.4723233
728.50 0.4721936
728.60 0.4720298
728.70 0.4718476
728.80 0.4716654
728.90 0.4714834
729.00 0.4713128
729.10 0.4711484
729.20 0.4709842
729.30 0.47082
729.40 0.4706558
729.50 0.4704918
729.60 0.4703369
729.70 0.470187
729.80 0.4700371
729.90 0.4698873
730.00 0.4697376
730.10 0.4695879
730.20 0.4694384
730.30 0.4692888
730.40 0.4691394
730.50 0.46899
730.60 0.4688372
730.70 0.4686827
730.80 0.4685283
730.90 0.4683739
731.00 0.4682196
731.10 0.4680654
731.20 0.4679112
731.30 0.4677571
731.40 0.467603
731.50 0.4674491
731.60 0.4672952
731.70 0.4671413
731.80 0.4669875
731.90 0.4668338
732.00 0.4666802
732.10 0.4665266
732.20 0.466372
732.30 0.4662168
732.40 0.4660617
732.50 0.4659066
732.60 0.4657517
732.70 0.4655968
732.80 0.4654419
732.90 0.4652871
733.00 0.4651324
733.10 0.4649778
733.20 0.4648232
733.30 0.4646687
733.40 0.4645143
733.50 0.4643599
733.60 0.4642056
733.70 0.4640531
733.80 0.4639015
733.90 0.46375
734.00 0.4635986
734.10 0.4634473
734.20 0.463296
734.30 0.4631447
734.40 0.4629936
734.50 0.4628425
734.60 0.4626915
734.70 0.4625405
734.80 0.4623896
734.90 0.4622388
735.00 0.462088
735.10 0.4619373
735.20 0.4617867
735.30 0.4616333
735.40 0.4614474
735.50 0.4612617
735.60 0.461076
735.70 0.4609134
735.80 0.4607634
735.90 0.4606134
736.00 0.4604634
736.10 0.4603135
736.20 0.4601637
736.30 0.460014
736.40 0.4598643
736.50 0.4597147
736.60 0.4595651
736.70 0.4594156
736.80 0.4592662
736.90 0.4591168
737.00 0.4589675
737.10 0.4588183
737.20 0.4586691
737.30 0.45852
737.40 0.458371
737.50 0.458222
737.60 0.4580731
737.70 0.4579243
737.80 0.4577755
737.90 0.4576267
738.00 0.4574781
738.10 0.4573295
738.20 0.4571763
738.30 0.4570206
738.40 0.4568649
738.50 0.4567094
738.60 0.4565539
738.70 0.4563985
738.80 0.4562431
738.90 0.4560878
739.00 0.4559326
739.10 0.4557775
739.20 0.4556224
739.30 0.4554674
739.40 0.4553124
739.50 0.4551575
739.60 0.4550027
739.70 0.4548479
739.80 0.4546933
739.90 0.4545386
740.00 0.4543841
740.10 0.4542296
740.20 0.4540752
740.30 0.4539208
740.40 0.4537666
740.50 0.4536124
740.60 0.4534582
740.70 0.4533041
740.80 0.4531501
740.90 0.4529962
741.00 0.4528423
741.10 0.4526885
741.20 0.4525347
741.30 0.452381
741.40 0.4522274
741.50 0.4520739
741.60 0.4519204
741.70 0.451767
741.80 0.4516136
741.90 0.4514603
742.00 0.4513071
742.10 0.451154
742.20 0.4510009
742.30 0.4508479
742.40 0.4506949
742.50 0.450542
742.60 0.4503892
742.70 0.450243
742.80 0.4501022
742.90 0.4499614
743.00 0.4498207
743.10 0.4496801
743.20 0.4495395
743.30 0.449399
743.40 0.4492585
743.50 0.4491181
743.60 0.4489778
743.70 0.4488357
743.80 0.4486866
743.90 0.4485375
744.00 0.4483885
744.10 0.4482395
744.20 0.4480906
744.30 0.4479418
744.40 0.447793
744.50 0.4476443
744.60 0.4474957
744.70 0.4473471
744.80 0.4471986
744.90 0.4470501
745.00 0.4469018
745.10 0.4467534
745.20 0.4466052
745.30 0.446457
745.40 0.4463088
745.50 0.4461608
745.60 0.4460128
745.70 0.4458648
745.80 0.445717
745.90 0.4455691
746.00 0.4454214
746.10 0.4452737
746.20 0.4451261
746.30 0.4449785
746.40 0.444831
746.50 0.4446836
746.60 0.4445362
746.70 0.4443889
746.80 0.4442416
746.90 0.4440945
747.00 0.4439473
747.10 0.4438003
747.20 0.4436533
747.30 0.4435063
747.40 0.4433595
747.50 0.4432127
747.60 0.4430659
747.70 0.4429192
747.80 0.4427726
747.90 0.4426261
748.00 0.4424796
748.10 0.4423331
748.20 0.4421868
748.30 0.4420405
748.40 0.4418942
748.50 0.441748
748.60 0.4416019
748.70 0.4414559
748.80 0.4413099
748.90 0.4411639
749.00 0.441018
749.10 0.4408722
749.20 0.4407265
749.30 0.4405808
749.40 0.4404352
749.50 0.4402896
749.60 0.4401441
749.70 0.4399987
749.80 0.4398533
749.90 0.439708
750.00 0.4395627
750.10 0.4394165
750.20 0.4392675
750.30 0.4391187
750.40 0.4389699
750.50 0.4388211
750.60 0.4386724
750.70 0.4385238
750.80 0.4383752
750.90 0.4382267
751.00 0.4380783
751.10 0.4379299
751.20 0.4377816
751.30 0.4376334
751.40 0.4374852
751.50 0.4373371
751.60 0.437189
751.70 0.437041
751.80 0.4368931
751.90 0.4367452
752.00 0.4365974
752.10 0.4364497
752.20 0.436302
752.30 0.4361544
752.40 0.4360069
752.50 0.4358594
752.60 0.435712
752.70 0.4355646
752.80 0.4354173
752.90 0.4352701
753.00 0.4351229
753.10 0.4349758
753.20 0.4348287
753.30 0.4346818
753.40 0.4345348
753.50 0.434388
753.60 0.4342412
753.70 0.4340945
753.80 0.4339478
753.90 0.4338053
754.00 0.433664
754.10 0.4335227
754.20 0.4333816
754.30 0.4332404
754.40 0.4330994
754.50 0.4329584
754.60 0.4328174
754.70 0.4326766
754.80 0.4325357
754.90 0.432395
755.00 0.4322543
755.10 0.4321136
755.20 0.431973
755.30 0.4318325
755.40 0.4316921
755.50 0.4315516
755.60 0.4314113
755.70 0.431271
755.80 0.4311308
755.90 0.4309906
756.00 0.4308505
756.10 0.4307105
756.20 0.4305705
756.30 0.4304305
756.40 0.4302907
756.50 0.4301508
756.60 0.4300111
756.70 0.4298714
756.80 0.4297317
756.90 0.4295922
757.00 0.4294526
757.10 0.4293132
757.20 0.4291738
757.30 0.4290344
757.40 0.4288951
757.50 0.4287559
757.60 0.4286154
757.70 0.4284714
757.80 0.4283275
757.90 0.4281836
758.00 0.4280398
758.10 0.427896
758.20 0.4277523
758.30 0.4276087
758.40 0.4274651
758.50 0.4273216
758.60 0.4271782
758.70 0.4270348
758.80 0.4268915
758.90 0.4267482
759.00 0.426605
759.10 0.4264619
759.20 0.4263188
759.30 0.4261758
759.40 0.4260328
759.50 0.4258899
759.60 0.4257471
759.70 0.4256043
759.80 0.4254616
759.90 0.4253189
760.00 0.4251763
760.10 0.4250338
760.20 0.4248913
760.30 0.4247489
760.40 0.4246065
760.50 0.4244642
760.60 0.424322
760.70 0.4241798
760.80 0.4240377
760.90 0.4238956
761.00 0.4237536
761.10 0.4236117
761.20 0.4234698
761.30 0.423328
761.40 0.4231883
761.50 0.4230517
761.60 0.4229151
761.70 0.4227787
761.80 0.4226422
761.90 0.4225058
762.00 0.4223695
762.10 0.4222333
762.20 0.4220971
762.30 0.4219609
762.40 0.4218248
762.50 0.4216888
762.60 0.4215528
762.70 0.4214169
762.80 0.421281
762.90 0.4211452
763.00 0.4210095
763.10 0.4208738
763.20 0.4207381
763.30 0.4206026
763.40 0.420467
763.50 0.4203316
763.60 0.4201962
763.70 0.4200608
763.80 0.4199255
763.90 0.4197903
764.00 0.4196551
764.10 0.4195199
764.20 0.4193849
764.30 0.4192499
764.40 0.4191149
764.50 0.41898
764.60 0.4188452
764.70 0.4187104
764.80 0.4185756
764.90 0.4184409
765.00 0.4183063
765.10 0.4181718
765.20 0.4180348
765.30 0.4178956
765.40 0.4177565
765.50 0.4176174
765.60 0.4174784
765.70 0.4173394
765.80 0.4172005
765.90 0.4170616
766.00 0.4169229
766.10 0.4167841
766.20 0.4166455
766.30 0.4165068
766.40 0.4163683
766.50 0.4162298
766.60 0.4160914
766.70 0.415953
766.80 0.4158147
766.90 0.4156764
767.00 0.4155382
767.10 0.4154
767.20 0.4152619
767.30 0.4151239
767.40 0.4149859
767.50 0.414848
767.60 0.4147102
767.70 0.4145724
767.80 0.4144346
767.90 0.4142969
768.00 0.4141593
768.10 0.4140217
768.20 0.4138842
768.30 0.4137468
768.40 0.4136094
768.50 0.413472
768.60 0.4133348
768.70 0.4131975
768.80 0.4130604
768.90 0.4129232
769.00 0.4127862
769.10 0.4126492
769.20 0.4125123
769.30 0.4123754
769.40 0.4122386
769.50 0.4121018
769.60 0.4119651
769.70 0.4118284
769.80 0.4116918
769.90 0.4115553
770.00 0.4114188
770.10 0.4112824
770.20 0.411146
770.30 0.4110097
770.40 0.4108735
770.50 0.4107373
770.60 0.4106011
770.70 0.410465
770.80 0.410329
770.90 0.410193
771.00 0.4100571
771.10 0.4099213
771.20 0.4097855
771.30 0.4096497
771.40 0.409514
771.50 0.4093784
771.60 0.4092428
771.70 0.4091073
771.80 0.4089719
771.90 0.4088365
772.00 0.4087011
772.10 0.4085658
772.20 0.4084306
772.30 0.4082954
772.40 0.4081603
772.50 0.4080252
772.60 0.4078902
772.70 0.4077553
772.80 0.4076204
772.90 0.4074858
773.00 0.4073513
773.10 0.4072169
773.20 0.4070825
773.30 0.4069482
773.40 0.4068139
773.50 0.4066797
773.60 0.4065455
773.70 0.4064114
773.80 0.4062774
773.90 0.4061434
774.00 0.4060094
774.10 0.4058756
774.20 0.4057417
774.30 0.405608
774.40 0.4054742
774.50 0.4053406
774.60 0.405207
774.70 0.4050734
774.80 0.4049399
774.90 0.4048065
775.00 0.4046731
775.10 0.4045398
775.20 0.4044065
775.30 0.4042733
775.40 0.4041401
775.50 0.404007
775.60 0.403874
775.70 0.403741
775.80 0.403608
775.90 0.4034752
776.00 0.4033423
776.10 0.4032096
776.20 0.4030768
776.30 0.4029442
776.40 0.4028116
776.50 0.402679
776.60 0.4025465
776.70 0.4024141
776.80 0.4022817
776.90 0.4021493
777.00 0.4020171
777.10 0.4018848
777.20 0.4017527
777.30 0.4016205
777.40 0.4014885
777.50 0.4013565
777.60 0.4012245
777.70 0.4010926
777.80 0.4009608
777.90 0.400829
778.00 0.4006973
778.10 0.4005656
778.20 0.4004339
778.30 0.4003024
778.40 0.4001709
778.50 0.4000394
778.60 0.399908
778.70 0.3997766
778.80 0.3996453
778.90 0.3995141
779.00 0.3993829
779.10 0.3992518
779.20 0.3991207
779.30 0.3989897
779.40 0.3988587
779.50 0.3987278
779.60 0.3985969
779.70 0.3984661
779.80 0.3983353
779.90 0.3982046
780.00 0.398074
780.10 0.3979434
780.20 0.3978128
780.30 0.3976823
780.40 0.3975519
780.50 0.3974215
780.60 0.3972921
780.70 0.3971631
780.80 0.3970341
780.90 0.3969052
781.00 0.3967763
781.10 0.3966475
781.20 0.3965188
781.30 0.3963901
781.40 0.3962614
781.50 0.3961328
781.60 0.3960043
781.70 0.3958758
781.80 0.3957474
781.90 0.395619
782.00 0.3954907
782.10 0.3953624
782.20 0.3952341
782.30 0.395106
782.40 0.3949779
782.50 0.3948498
782.60 0.3947218
782.70 0.3945938
782.80 0.3944659
782.90 0.394338
783.00 0.3942102
783.10 0.3940825
783.20 0.3939548
783.30 0.3938271
783.40 0.3936995
783.50 0.393572
783.60 0.3934445
783.70 0.3933171
783.80 0.3931897
783.90 0.3930623
784.00 0.3929351
784.10 0.3928078
784.20 0.3926806
784.30 0.3925535
784.40 0.3924264
784.50 0.3922994
784.60 0.3921719
784.70 0.3920429
784.80 0.3919141
784.90 0.3917853
785.00 0.3916565
785.10 0.3915278
785.20 0.3913991
785.30 0.3912705
785.40 0.391142
785.50 0.3910135
785.60 0.3908851
785.70 0.3907567
785.80 0.3906283
785.90 0.3905
786.00 0.3903718
786.10 0.3902436
786.20 0.3901155
786.30 0.3899874
786.40 0.3898594
786.50 0.3897314
786.60 0.3896035
786.70 0.3894757
786.80 0.3893479
786.90 0.3892201
787.00 0.3890924
787.10 0.3889647
787.20 0.3888371
787.30 0.3887096
787.40 0.3885821
787.50 0.3884546
787.60 0.3883272
787.70 0.3881999
787.80 0.3880726
787.90 0.3879454
788.00 0.3878182
788.10 0.3876911
788.20 0.387564
788.30 0.387437
788.40 0.3873109
788.50 0.3871852
788.60 0.3870597
788.70 0.3869341
788.80 0.3868087
788.90 0.3866833
789.00 0.3865579
789.10 0.3864326
789.20 0.3863073
789.30 0.3861821
789.40 0.3860569
789.50 0.3859318
789.60 0.3858068
789.70 0.3856818
789.80 0.3855568
789.90 0.3854319
790.00 0.385307
790.10 0.3851822
790.20 0.3850575
790.30 0.3849328
790.40 0.3848081
790.50 0.3846835
790.60 0.384559
790.70 0.3844345
790.80 0.38431
790.90 0.3841856
791.00 0.3840613
791.10 0.383937
791.20 0.3838127
791.30 0.3836885
791.40 0.3835644
791.50 0.3834403
791.60 0.3833162
791.70 0.3831923
791.80 0.3830683
791.90 0.3829444
792.00 0.3828206
792.10 0.3826968
792.20 0.382573
792.30 0.3824493
792.40 0.3823257
792.50 0.3822021
792.60 0.3820785
792.70 0.381955
792.80 0.3818316
792.90 0.3817082
793.00 0.3815848
793.10 0.3814616
793.20 0.3813383
793.30 0.3812151
793.40 0.381092
793.50 0.3809689
793.60 0.3808458
793.70 0.3807228
793.80 0.3805999
793.90 0.380477
794.00 0.3803541
794.10 0.3802313
794.20 0.3801086
794.30 0.3799859
794.40 0.3798632
794.50 0.3797406
794.60 0.3796181
794.70 0.3794956
794.80 0.3793731
794.90 0.3792507
795.00 0.3791284
795.10 0.3790061
795.20 0.3788838
795.30 0.3787616
795.40 0.3786394
795.50 0.3785173
795.60 0.3783953
795.70 0.3782733
795.80 0.3781513
795.90 0.3780294
796.00 0.3779076
796.10 0.3777858
796.20 0.377664
796.30 0.3775407
796.40 0.377417
796.50 0.3772935
796.60 0.37717
796.70 0.3770465
796.80 0.3769231
796.90 0.3767998
797.00 0.3766765
797.10 0.3765532
797.20 0.37643
797.30 0.3763068
797.40 0.3761837
797.50 0.3760607
797.60 0.3759377
797.70 0.3758147
797.80 0.3756918
797.90 0.375569
798.00 0.3754462
798.10 0.3753234
798.20 0.3752007
798.30 0.375078
798.40 0.3749554
798.50 0.3748329
798.60 0.3747104
798.70 0.3745879
798.80 0.3744655
798.90 0.3743431
799.00 0.3742208
799.10 0.3740986
799.20 0.3739764
799.30 0.3738542
799.40 0.3737321
799.50 0.37361
799.60 0.373488
799.70 0.373366
799.80 0.3732441
799.90 0.3731223
800.00 0.3730005
800.10 0.3728787
800.20 0.372757
800.30 0.3726353
800.40 0.3725137
800.50 0.3723921
800.60 0.3722706
800.70 0.3721491
800.80 0.3720277
800.90 0.3719063
801.00 0.371785
801.10 0.3716637
801.20 0.3715425
801.30 0.3714213
801.40 0.3713002
801.50 0.3711791
801.60 0.3710581
801.70 0.3709371
801.80 0.3708162
801.90 0.3706953
802.00 0.3705744
802.10 0.3704537
802.20 0.3703329
802.30 0.3702122
802.40 0.3700916
802.50 0.369971
802.60 0.3698504
802.70 0.3697299
802.80 0.3696095
802.90 0.3694891
803.00 0.3693688
803.10 0.3692485
803.20 0.3691282
803.30 0.369008
803.40 0.3688878
803.50 0.3687677
803.60 0.3686477
803.70 0.3685277
803.80 0.3684077
803.90 0.3682878
804.00 0.3681679
804.10 0.3680481
804.20 0.3679279
804.30 0.3678063
804.40 0.3676848
804.50 0.3675633
804.60 0.3674419
804.70 0.3673205
804.80 0.3671991
804.90 0.3670778
805.00 0.3669566
805.10 0.3668354
805.20 0.3667142
805.30 0.3665931
805.40 0.3664721
805.50 0.3663511
805.60 0.3662301
805.70 0.3661092
805.80 0.3659883
805.90 0.3658675
806.00 0.3657468
806.10 0.3656261
806.20 0.3655054
806.30 0.3653848
806.40 0.3652642
806.50 0.3651437
806.60 0.3650232
806.70 0.3649028
806.80 0.3647824
806.90 0.3646621
807.00 0.3645418
807.10 0.3644216
807.20 0.3643014
807.30 0.3641813
807.40 0.3640612
807.50 0.3639412
807.60 0.3638212
807.70 0.3637013
807.80 0.3635814
807.90 0.3634616
808.00 0.3633418
808.10 0.363222
808.20 0.3631024
808.30 0.362987
808.40 0.3628716
808.50 0.3627563
808.60 0.3626411
808.70 0.3625259
808.80 0.3624107
808.90 0.3622956
809.00 0.3621805
809.10 0.3620655
809.20 0.3619505
809.30 0.3618356
809.40 0.3617207
809.50 0.3616059
809.60 0.3614911
809.70 0.3613764
809.80 0.3612616
809.90 0.361147
810.00 0.3610324
810.10 0.3609178
810.20 0.3608033
810.30 0.3606888
810.40 0.3605744
810.50 0.36046
810.60 0.3603457
810.70 0.3602314
810.80 0.3601171
810.90 0.3600029
811.00 0.3598888
811.10 0.3597747
811.20 0.3596606
811.30 0.3595466
811.40 0.3594326
811.50 0.3593187
811.60 0.3592048
811.70 0.359091
811.80 0.3589772
811.90 0.3588634
812.00 0.3587497
812.10 0.3586361
812.20 0.3585225
812.30 0.3584059
812.40 0.3582887
812.50 0.3581716
812.60 0.3580545
812.70 0.3579374
812.80 0.3578204
812.90 0.3577034
813.00 0.3575865
813.10 0.3574696
813.20 0.3573528
813.30 0.357236
813.40 0.3571193
813.50 0.3570026
813.60 0.3568859
813.70 0.3567693
813.80 0.3566528
813.90 0.3565363
814.00 0.3564198
814.10 0.3563034
814.20 0.356187
814.30 0.3560707
814.40 0.3559545
814.50 0.3558382
814.60 0.355722
814.70 0.3556059
814.80 0.3554898
814.90 0.3553738
815.00 0.3552578
815.10 0.3551418
815.20 0.3550259
815.30 0.3549101
815.40 0.3547943
815.50 0.3546785
815.60 0.3545628
815.70 0.3544471
815.80 0.3543315
815.90 0.3542159
816.00 0.3541004
816.10 0.3539849
816.20 0.3538695
816.30 0.3537541
816.40 0.3536387
816.50 0.3535234
816.60 0.3534082
816.70 0.3532929
816.80 0.3531778
816.90 0.3530627
817.00 0.3529476
817.10 0.3528326
817.20 0.3527176
817.30 0.3526026
817.40 0.3524877
817.50 0.3523729
817.60 0.3522581
817.70 0.3521433
817.80 0.3520286
817.90 0.351914
818.00 0.3517994
818.10 0.3516848
818.20 0.3515703
818.30 0.3514558
818.40 0.3513413
818.50 0.3512269
818.60 0.3511126
818.70 0.3509983
818.80 0.3508841
818.90 0.3507698
819.00 0.3506557
819.10 0.3505416
819.20 0.3504275
819.30 0.3503188
819.40 0.3502137
819.50 0.3501087
819.60 0.3500037
819.70 0.3498987
819.80 0.3497938
819.90 0.3496889
820.00 0.3495841
820.10 0.3494811
820.20 0.3493318
820.30 0.3491746
820.40 0.3490429
820.50 0.3489297
820.60 0.3488165
820.70 0.3487033
820.80 0.3485902
820.90 0.3484771
821.00 0.3483641
821.10 0.3482511
821.20 0.3481382
821.30 0.3480253
821.40 0.3479125
821.50 0.3477997
821.60 0.3476869
821.70 0.3475742
821.80 0.3474615
821.90 0.3473489
822.00 0.3472363
822.10 0.3471238
822.20 0.3470113
822.30 0.3468988
822.40 0.3467864
822.50 0.3466741
822.60 0.3465618
822.70 0.3464495
822.80 0.3463373
822.90 0.3462251
823.00 0.3461129
823.10 0.3460008
823.20 0.3458888
823.30 0.3457768
823.40 0.3456648
823.50 0.3455529
823.60 0.345441
823.70 0.3453292
823.80 0.3452174
823.90 0.3451057
824.00 0.344994
824.10 0.3448824
824.20 0.3447707
824.30 0.3446592
824.40 0.3445477
824.50 0.3444362
824.60 0.3443248
824.70 0.3442134
824.80 0.344102
824.90 0.3439907
825.00 0.3438795
825.10 0.3437683
825.20 0.3436571
825.30 0.343546
825.40 0.3434349
825.50 0.3433239
825.60 0.3432129
825.70 0.3431019
825.80 0.342991
825.90 0.3428801
826.00 0.3427693
826.10 0.3426586
826.20 0.3425478
826.30 0.342441
826.40 0.3423368
826.50 0.3422327
826.60 0.3421286
826.70 0.3420245
826.80 0.3419205
826.90 0.3418165
827.00 0.3417126
827.10 0.3416087
827.20 0.3415048
827.30 0.341401
827.40 0.3412972
827.50 0.3411935
827.60 0.3410898
827.70 0.3409861
827.80 0.3408825
827.90 0.3407789
828.00 0.3406754
828.10 0.3405719
828.20 0.3404684
828.30 0.340365
828.40 0.3402617
828.50 0.3401583
828.60 0.3400516
828.70 0.339942
828.80 0.3398325
828.90 0.3397229
829.00 0.3396135
829.10 0.3395041
829.20 0.3393947
829.30 0.3392854
829.40 0.3391761
829.50 0.3390668
829.60 0.3389576
829.70 0.3388484
829.80 0.3387393
829.90 0.3386303
830.00 0.3385212
830.10 0.3384122
830.20 0.3383033
830.30 0.3381944
830.40 0.3380855
830.50 0.3379767
830.60 0.3378679
830.70 0.3377592
830.80 0.3376505
830.90 0.3375418
831.00 0.3374332
831.10 0.3373247
831.20 0.3372161
831.30 0.3371076
831.40 0.3369992
831.50 0.3368908
831.60 0.3367825
831.70 0.3366741
831.80 0.3365659
831.90 0.3364577
832.00 0.3363495
832.10 0.3362413
832.20 0.3361332
832.30 0.3360252
832.40 0.3359172
832.50 0.3358092
832.60 0.3357013
832.70 0.3355934
832.80 0.3354855
832.90 0.3353777
833.00 0.3352699
833.10 0.3351622
833.20 0.3350545
833.30 0.3349469
833.40 0.3348393
833.50 0.3347318
833.60 0.3346243
833.70 0.3345168
833.80 0.3344094
833.90 0.334302
834.00 0.3341946
834.10 0.3340873
834.20 0.3339801
834.30 0.3338729
834.40 0.3337657
834.50 0.3336585
834.60 0.3335515
834.70 0.3334444
834.80 0.3333374
834.90 0.3332304
835.00 0.3331235
835.10 0.3330166
835.20 0.3329098
835.30 0.332803
835.40 0.3326962
835.50 0.3325895
835.60 0.3324828
835.70 0.3323762
835.80 0.3322696
835.90 0.3321631
836.00 0.3320565
836.10 0.3319501
836.20 0.3318437
836.30 0.3317373
836.40 0.3316309
836.50 0.3315246
836.60 0.3314184
836.70 0.3313121
836.80 0.331206
836.90 0.3311
837.00 0.3309942
837.10 0.3308884
837.20 0.3307826
837.30 0.3306769
837.40 0.3305713
837.50 0.3304657
837.60 0.3303601
837.70 0.3302545
837.80 0.330149
837.90 0.3300436
838.00 0.3299382
838.10 0.3298328
838.20 0.3297274
838.30 0.3296222
838.40 0.3295169
838.50 0.3294117
838.60 0.3293065
838.70 0.3292014
838.80 0.3290963
838.90 0.3289912
839.00 0.3288862
839.10 0.3287813
839.20 0.3286763
839.30 0.3285714
839.40 0.3284666
839.50 0.3283618
839.60 0.328257
839.70 0.3281523
839.80 0.3280476
839.90 0.327943
840.00 0.3278384
840.10 0.3277338
840.20 0.3276293
840.30 0.3275248
840.40 0.3274204
840.50 0.327316
840.60 0.3272116
840.70 0.3271073
840.80 0.327003
840.90 0.3268988
841.00 0.3267946
841.10 0.3266904
841.20 0.3265863
841.30 0.3264822
841.40 0.3263782
841.50 0.3262742
841.60 0.3261702
841.70 0.3260663
841.80 0.3259625
841.90 0.3258586
842.00 0.3257548
842.10 0.3256511
842.20 0.3255474
842.30 0.3254437
842.40 0.3253401
842.50 0.3252365
842.60 0.3251329
842.70 0.3250294
842.80 0.324926
842.90 0.3248225
843.00 0.3247191
843.10 0.3246158
843.20 0.3245125
843.30 0.3244092
843.40 0.324306
843.50 0.3242028
843.60 0.3240996
843.70 0.3239965
843.80 0.3238934
843.90 0.3237904
844.00 0.3236874
844.10 0.3235845
844.20 0.3234816
844.30 0.3233787
844.40 0.3232758
844.50 0.3231731
844.60 0.3230703
844.70 0.3229676
844.80 0.3228649
844.90 0.3227623
845.00 0.3226597
845.10 0.3225571
845.20 0.3224546
845.30 0.3223505
845.40 0.3222465
845.50 0.3221425
845.60 0.3220385
845.70 0.3219346
845.80 0.3218308
845.90 0.3217269
846.00 0.3216231
846.10 0.3215194
846.20 0.3214157
846.30 0.321312
846.40 0.3212083
846.50 0.3211047
846.60 0.3210012
846.70 0.3208977
846.80 0.3207942
846.90 0.3206908
847.00 0.3205874
847.10 0.320484
847.20 0.3203807
847.30 0.3202774
847.40 0.3201742
847.50 0.320071
847.60 0.3199678
847.70 0.3198647
847.80 0.3197616
847.90 0.3196586
848.00 0.3195556
848.10 0.3194527
848.20 0.3193497
848.30 0.3192469
848.40 0.319144
848.50 0.3190412
848.60 0.3189385
848.70 0.3188357
848.80 0.3187331
848.90 0.3186304
849.00 0.3185278
849.10 0.3184253
849.20 0.3183227
849.30 0.3182203
849.40 0.3181178
849.50 0.3180154
849.60 0.317913
849.70 0.3178107
849.80 0.3177084
849.90 0.3176062
850.00 0.317504
850.10 0.3174018
850.20 0.3172997
850.30 0.3171976
850.40 0.3170955
850.50 0.3169935
850.60 0.3168916
850.70 0.3167896
850.80 0.3166877
850.90 0.3165859
851.00 0.3164841
851.10 0.3163823
851.20 0.3162806
851.30 0.3161789
851.40 0.3160772
851.50 0.3159756
851.60 0.315874
851.70 0.3157725
851.80 0.315671
851.90 0.3155695
852.00 0.3154681
852.10 0.3153667
852.20 0.3152653
852.30 0.315164
852.40 0.3150628
852.50 0.3149615
852.60 0.3148603
852.70 0.3147592
852.80 0.3146581
852.90 0.314557
853.00 0.314456
853.10 0.314355
853.20 0.314254
853.30 0.3141531
853.40 0.3140522
853.50 0.3139514
853.60 0.3138506
853.70 0.3137508
853.80 0.3136521
853.90 0.3135535
854.00 0.3134549
854.10 0.3133564
854.20 0.3132578
854.30 0.3131594
854.40 0.3130609
854.50 0.3129625
854.60 0.3128642
854.70 0.3127659
854.80 0.3126676
854.90 0.3125693
855.00 0.3124711
855.10 0.3123729
855.20 0.3122748
855.30 0.3121767
855.40 0.3120786
855.50 0.3119806
855.60 0.3118826
855.70 0.3117847
855.80 0.3116868
855.90 0.3115889
856.00 0.3114911
856.10 0.3113932
856.20 0.3112955
856.30 0.3111978
856.40 0.3111001
856.50 0.3110024
856.60 0.3109048
856.70 0.3108072
856.80 0.3107097
856.90 0.3106122
857.00 0.3105147
857.10 0.3104173
857.20 0.3103199
857.30 0.3102225
857.40 0.3101252
857.50 0.3100279
857.60 0.3099307
857.70 0.3098335
857.80 0.3097363
857.90 0.3096392
858.00 0.3095421
858.10 0.309445
858.20 0.309348
858.30 0.309251
858.40 0.3091541
858.50 0.3090571
858.60 0.3089603
858.70 0.3088634
858.80 0.3087666
858.90 0.3086699
859.00 0.3085731
859.10 0.3084764
859.20 0.3083798
859.30 0.3082832
859.40 0.3081866
859.50 0.30809
859.60 0.3079935
859.70 0.307897
859.80 0.3078006
859.90 0.3077042
860.00 0.3076078
860.10 0.3075115
860.20 0.3074152
860.30 0.307319
860.40 0.3072228
860.50 0.3071266
860.60 0.3070304
860.70 0.3069343
860.80 0.3068382
860.90 0.3067422
861.00 0.3066462
861.10 0.3065502
861.20 0.3064543
861.30 0.3063584
861.40 0.3062626
861.50 0.3061668
861.60 0.306071
861.70 0.3059752
861.80 0.3058795
861.90 0.3057838
862.00 0.3056882
862.10 0.3055926
862.20 0.3054969
862.30 0.3053998
862.40 0.3053028
862.50 0.3052059
862.60 0.305109
862.70 0.3050121
862.80 0.3049152
862.90 0.3048184
863.00 0.3047217
863.10 0.3046249
863.20 0.3045282
863.30 0.3044316
863.40 0.3043349
863.50 0.3042384
863.60 0.3041418
863.70 0.3040453
863.80 0.3039488
863.90 0.3038524
864.00 0.303756
864.10 0.3036596
864.20 0.3035633
864.30 0.303467
864.40 0.3033707
864.50 0.3032745
864.60 0.3031783
864.70 0.3030822
864.80 0.302986
864.90 0.30289
865.00 0.3027939
865.10 0.3026979
865.20 0.302602
865.30 0.302506
865.40 0.3024101
865.50 0.3023143
865.60 0.3022184
865.70 0.3021227
865.80 0.3020269
865.90 0.3019312
866.00 0.3018355
866.10 0.3017399
866.20 0.3016443
866.30 0.3015487
866.40 0.3014532
866.50 0.3013577
866.60 0.3012622
866.70 0.3011668
866.80 0.3010714
866.90 0.300976
867.00 0.3008807
867.10 0.3007854
867.20 0.3006902
867.30 0.300595
867.40 0.3004998
867.50 0.3004047
867.60 0.3003096
867.70 0.3002145
867.80 0.3001195
867.90 0.3000245
868.00 0.2999295
868.10 0.2998346
868.20 0.2997397
868.30 0.2996448
868.40 0.29955
868.50 0.2994552
868.60 0.2993605
868.70 0.2992658
868.80 0.2991711
868.90 0.2990765
869.00 0.2989819
869.10 0.2988873
869.20 0.2987928
869.30 0.2986983
869.40 0.2986038
869.50 0.2985094
869.60 0.298415
869.70 0.2983207
869.80 0.2982263
869.90 0.2981321
870.00 0.2980378
870.10 0.2979436
870.20 0.2978494
870.30 0.2977553
870.40 0.2976612
870.50 0.2975671
870.60 0.2974731
870.70 0.2973791
870.80 0.2972851
870.90 0.2971899
871.00 0.2970946
871.10 0.2969993
871.20 0.296904
871.30 0.2968088
871.40 0.2967136
871.50 0.2966184
871.60 0.2965233
871.70 0.2964282
871.80 0.2963332
871.90 0.2962382
872.00 0.2961432
872.10 0.2960483
872.20 0.2959534
872.30 0.2958585
872.40 0.2957637
872.50 0.2956689
872.60 0.2955741
872.70 0.2954794
872.80 0.2953847
872.90 0.2952901
873.00 0.2951954
873.10 0.2951009
873.20 0.2950063
873.30 0.2949118
873.40 0.2948173
873.50 0.2947229
873.60 0.2946285
873.70 0.2945341
873.80 0.2944398
873.90 0.2943455
874.00 0.2942512
874.10 0.294157
874.20 0.2940628
874.30 0.2939686
874.40 0.2938745
874.50 0.2937804
874.60 0.2936864
874.70 0.2935924
874.80 0.2934984
874.90 0.2934045
875.00 0.2933105
875.10 0.2932167
875.20 0.293124
875.30 0.2930336
875.40 0.2929432
875.50 0.2928528
875.60 0.2927624
875.70 0.2926721
875.80 0.2925819
875.90 0.2924916
876.00 0.2924014
876.10 0.2923112
876.20 0.2922211
876.30 0.292131
876.40 0.2920409
876.50 0.2919508
876.60 0.2918608
876.70 0.2917708
876.80 0.2916809
876.90 0.291591
877.00 0.2915011
877.10 0.2914113
877.20 0.2913214
877.30 0.2912317
877.40 0.2911419
877.50 0.2910522
877.60 0.2909625
877.70 0.2908729
877.80 0.2907833
877.90 0.2906937
878.00 0.2906041
878.10 0.2905146
878.20 0.2904252
878.30 0.2903357
878.40 0.2902463
878.50 0.2901569
878.60 0.2900676
878.70 0.2899783
878.80 0.289889
878.90 0.2897997
879.00 0.2897105
879.10 0.2896213
879.20 0.2895322
879.30 0.2894431
879.40 0.289354
879.50 0.2892649
879.60 0.2891734
879.70 0.2890814
879.80 0.2889894
879.90 0.2888974
880.00 0.2888055
880.10 0.2887136
880.20 0.2886217
880.30 0.2885299
880.40 0.2884381
880.50 0.2883463
880.60 0.2882546
880.70 0.2881629
880.80 0.2880713
880.90 0.2879796
881.00 0.287888
881.10 0.2877965
881.20 0.287705
881.30 0.2876135
881.40 0.287522
881.50 0.2874306
881.60 0.2873392
881.70 0.2872479
881.80 0.2871565
881.90 0.2870653
882.00 0.286974
882.10 0.2868828
882.20 0.2867916
882.30 0.2867005
882.40 0.2866093
882.50 0.2865183
882.60 0.2864272
882.70 0.2863362
882.80 0.2862452
882.90 0.2861543
883.00 0.2860634
883.10 0.2859725
883.20 0.2858817
883.30 0.2857908
883.40 0.2857001
883.50 0.2856093
883.60 0.2855186
883.70 0.2854279
883.80 0.2853373
883.90 0.2852467
884.00 0.2851589
884.10 0.2850716
884.20 0.2849843
884.30 0.2848971
884.40 0.2848099
884.50 0.2847227
884.60 0.2846356
884.70 0.2845485
884.80 0.2844614
884.90 0.2843744
885.00 0.2842874
885.10 0.2842004
885.20 0.2841135
885.30 0.2840266
885.40 0.2839397
885.50 0.2838529
885.60 0.2837661
885.70 0.2836793
885.80 0.2835925
885.90 0.2835058
886.00 0.2834191
886.10 0.2833325
886.20 0.2832459
886.30 0.2831593
886.40 0.2830727
886.50 0.2829862
886.60 0.2828997
886.70 0.2828133
886.80 0.2827268
886.90 0.2826404
887.00 0.2825541
887.10 0.2824677
887.20 0.2823814
887.30 0.2822952
887.40 0.2822089
887.50 0.2821227
887.60 0.2820366
887.70 0.2819504
887.80 0.2818643
887.90 0.2817782
888.00 0.2816922
888.10 0.2816062
888.20 0.2815202
888.30 0.2814342
888.40 0.2813457
888.50 0.2812569
888.60 0.2811681
888.70 0.2810793
888.80 0.2809905
888.90 0.2809018
889.00 0.2808131
889.10 0.2807245
889.20 0.2806358
889.30 0.2805472
889.40 0.2804587
889.50 0.2803702
889.60 0.2802817
889.70 0.2801932
889.80 0.2801048
889.90 0.2800164
890.00 0.279928
890.10 0.2798397
890.20 0.2797514
890.30 0.2796631
890.40 0.2795749
890.50 0.2794867
890.60 0.2793985
890.70 0.2793104
890.80 0.2792223
890.90 0.2791342
891.00 0.2790462
891.10 0.2789582
891.20 0.2788702
891.30 0.2787823
891.40 0.2786944
891.50 0.2786065
891.60 0.2785187
891.70 0.2784309
891.80 0.2783431
891.90 0.2782554
892.00 0.2781676
892.10 0.27808
892.20 0.2779923
892.30 0.2779047
892.40 0.2778171
892.50 0.2777296
892.60 0.2776421
892.70 0.2775546
892.80 0.2774671
892.90 0.2773797
893.00 0.2772923
893.10 0.2772049
893.20 0.2771176
893.30 0.2770303
893.40 0.2769431
893.50 0.2768558
893.60 0.2767686
893.70 0.2766815
893.80 0.2765944
893.90 0.2765073
894.00 0.2764202
894.10 0.2763331
894.20 0.2762461
894.30 0.2761592
894.40 0.2760722
894.50 0.2759853
894.60 0.2758985
894.70 0.2758116
894.80 0.2757248
894.90 0.275638
895.00 0.2755513
895.10 0.2754646
895.20 0.2753779
895.30 0.2752912
895.40 0.2752046
895.50 0.275118
895.60 0.2750315
895.70 0.2749449
895.80 0.2748584
895.90 0.274772
896.00 0.2746855
896.10 0.2745991
896.20 0.2745128
896.30 0.2744264
896.40 0.2743401
896.50 0.2742539
896.60 0.2741676
896.70 0.2740814
896.80 0.2739952
896.90 0.2739091
897.00 0.273823
897.10 0.2737369
897.20 0.2736509
897.30 0.2735651
897.40 0.2734794
897.50 0.2733936
897.60 0.273308
897.70 0.2732223
897.80 0.2731367
897.90 0.2730511
898.00 0.2729656
898.10 0.2728801
898.20 0.2727946
898.30 0.2727091
898.40 0.2726237
898.50 0.2725383
898.60 0.2724529
898.70 0.2723676
898.80 0.2722823
898.90 0.272197
899.00 0.2721118
899.10 0.2720266
899.20 0.2719414
899.30 0.2718563
899.40 0.2717712
899.50 0.2716861
899.60 0.271601
899.70 0.271516
899.80 0.271431
899.90 0.2713461
900.00 0.2712611
900.10 0.2711762
900.20 0.2710914
900.30 0.2710065
900.40 0.2709217
900.50 0.270837
900.60 0.2707522
900.70 0.2706675
900.80 0.2705828
900.90 0.2704982
901.00 0.2704136
901.10 0.270329
901.20 0.2702444
901.30 0.2701599
901.40 0.2700754
901.50 0.269991
901.60 0.2699065
901.70 0.2698227
901.80 0.2697414
901.90 0.2696601
902.00 0.2695789
902.10 0.2694976
902.20 0.2694165
902.30 0.2693353
902.40 0.2692542
902.50 0.2691731
902.60 0.269092
902.70 0.269011
902.80 0.26893
902.90 0.268849
903.00 0.268768
903.10 0.2686871
903.20 0.2686062
903.30 0.2685253
903.40 0.2684445
903.50 0.2683637
903.60 0.2682829
903.70 0.2682022
903.80 0.2681215
903.90 0.2680408
904.00 0.2679601
904.10 0.2678795
904.20 0.2677989
904.30 0.2677183
904.40 0.2676378
904.50 0.2675573
904.60 0.2674768
904.70 0.2673963
904.80 0.2673159
904.90 0.2672355
905.00 0.2671551
905.10 0.2670748
905.20 0.2669945
905.30 0.2669142
905.40 0.2668339
905.50 0.2667537
905.60 0.2666735
905.70 0.2665934
905.80 0.2665132
905.90 0.2664331
906.00 0.266353
906.10 0.266273
906.20 0.2661921
906.30 0.2661093
906.40 0.2660265
906.50 0.2659438
906.60 0.2658611
906.70 0.2657784
906.80 0.2656958
906.90 0.2656132
907.00 0.2655306
907.10 0.2654481
907.20 0.2653655
907.30 0.265283
907.40 0.2652006
907.50 0.2651182
907.60 0.2650358
907.70 0.2649534
907.80 0.2648711
907.90 0.2647887
908.00 0.2647065
908.10 0.2646242
908.20 0.264542
908.30 0.2644598
908.40 0.2643777
908.50 0.2642955
908.60 0.2642134
908.70 0.2641314
908.80 0.2640493
908.90 0.2639673
909.00 0.2638853
909.10 0.2638034
909.20 0.2637215
909.30 0.2636396
909.40 0.2635577
909.50 0.2634759
909.60 0.2633941
909.70 0.2633123
909.80 0.2632305
909.90 0.2631488
910.00 0.2630671
910.10 0.2629855
910.20 0.2629039
910.30 0.2628223
910.40 0.2627407
910.50 0.2626592
910.60 0.2625777
910.70 0.2624962
910.80 0.2624147
910.90 0.2623333
911.00 0.2622519
911.10 0.2621706
911.20 0.2620892
911.30 0.2620079
911.40 0.2619267
911.50 0.2618454
911.60 0.2617642
911.70 0.261683
911.80 0.2616019
911.90 0.2615207
912.00 0.2614396
912.10 0.2613586
912.20 0.2612775
912.30 0.2611965
912.40 0.2611155
912.50 0.2610346
912.60 0.2609537
912.70 0.2608728
912.80 0.2607919
912.90 0.2607111
913.00 0.2606303
913.10 0.2605495
913.20 0.2604688
913.30 0.260388
913.40 0.2603074
913.50 0.2602267
913.60 0.2601461
913.70 0.2600655
913.80 0.2599849
913.90 0.2599043
914.00 0.2598238
914.10 0.2597434
914.20 0.2596629
914.30 0.2595825
914.40 0.2595021
914.50 0.2594217
914.60 0.2593414
914.70 0.2592611
914.80 0.2591808
914.90 0.2591005
915.00 0.2590203
915.10 0.2589401
915.20 0.2588599
915.30 0.25878
915.40 0.2587001
915.50 0.2586202
915.60 0.2585404
915.70 0.2584606
915.80 0.2583809
915.90 0.2583011
916.00 0.2582214
916.10 0.2581417
916.20 0.2580621
916.30 0.2579825
916.40 0.2579029
916.50 0.2578233
916.60 0.2577438
916.70 0.2576643
916.80 0.2575848
916.90 0.2575054
917.00 0.2574259
917.10 0.2573466
917.20 0.2572672
917.30 0.2571879
917.40 0.2571086
917.50 0.2570293
917.60 0.25695
917.70 0.2568708
917.80 0.2567916
917.90 0.2567125
918.00 0.2566333
918.10 0.2565542
918.20 0.2564751
918.30 0.2563961
918.40 0.2563171
918.50 0.2562381
918.60 0.2561591
918.70 0.2560802
918.80 0.2560013
918.90 0.2559224
919.00 0.2558435
919.10 0.2557647
919.20 0.2556859
919.30 0.2556072
919.40 0.2555284
919.50 0.2554497
919.60 0.255371
919.70 0.2552924
919.80 0.2552138
919.90 0.2551352
920.00 0.2550566
920.10 0.254978
920.20 0.2548995
920.30 0.254821
920.40 0.2547426
920.50 0.2546642
920.60 0.2545858
920.70 0.2545074
920.80 0.254429
920.90 0.2543507
921.00 0.2542724
921.10 0.2541942
921.20 0.2541159
921.30 0.2540377
921.40 0.2539596
921.50 0.2538814
921.60 0.2538033
921.70 0.2537252
921.80 0.2536471
921.90 0.2535691
922.00 0.2534911
922.10 0.2534131
922.20 0.2533352
922.30 0.2532572
922.40 0.2531793
922.50 0.2531015
922.60 0.2530236
922.70 0.2529458
922.80 0.252868
922.90 0.2527903
923.00 0.2527125
923.10 0.2526348
923.20 0.2525572
923.30 0.2524795
923.40 0.2524019
923.50 0.2523243
923.60 0.2522467
923.70 0.2521692
923.80 0.2520917
923.90 0.2520142
924.00 0.2519368
924.10 0.2518593
924.20 0.2517819
924.30 0.2517046
924.40 0.2516273
924.50 0.2515502
924.60 0.2514731
924.70 0.2513961
924.80 0.2513191
924.90 0.2512421
925.00 0.2511651
925.10 0.2510882
925.20 0.2510113
925.30 0.2509345
925.40 0.2508576
925.50 0.2507808
925.60 0.250704
925.70 0.2506273
925.80 0.2505505
925.90 0.2504738
926.00 0.2503971
926.10 0.2503205
926.20 0.2502439
926.30 0.2501673
926.40 0.2500907
926.50 0.2500142
926.60 0.2499376
926.70 0.2498612
926.80 0.2497847
926.90 0.2497083
927.00 0.2496319
927.10 0.2495555
927.20 0.2494791
927.30 0.2494028
927.40 0.2493265
927.50 0.2492502
927.60 0.249174
927.70 0.2490978
927.80 0.2490216
927.90 0.2489454
928.00 0.2488693
928.10 0.2487932
928.20 0.2487171
928.30 0.2486411
928.40 0.248565
928.50 0.248489
928.60 0.2484131
928.70 0.2483371
928.80 0.2482612
928.90 0.2481853
929.00 0.2481094
929.10 0.2480336
929.20 0.2479578
929.30 0.247882
929.40 0.2478063
929.50 0.2477305
929.60 0.2476548
929.70 0.2475791
929.80 0.2475035
929.90 0.2474279
930.00 0.2473523
930.10 0.2472767
930.20 0.2472012
930.30 0.2471256
930.40 0.2470502
930.50 0.2469747
930.60 0.2468993
930.70 0.2468239
930.80 0.2467485
930.90 0.2466731
931.00 0.2465978
931.10 0.2465225
931.20 0.2464472
931.30 0.246372
931.40 0.2462967
931.50 0.2462215
931.60 0.2461464
931.70 0.2460712
931.80 0.2459961
931.90 0.245921
932.00 0.245846
932.10 0.2457709
932.20 0.2456959
932.30 0.2456209
932.40 0.245546
932.50 0.245471
932.60 0.2453961
932.70 0.2453213
932.80 0.2452464
932.90 0.2451716
933.00 0.2450968
933.10 0.245022
933.20 0.2449473
933.30 0.2448726
933.40 0.2447979
933.50 0.2447232
933.60 0.2446486
933.70 0.2445741
933.80 0.2444997
933.90 0.2444254
934.00 0.2443511
934.10 0.2442768
934.20 0.2442025
934.30 0.2441283
934.40 0.2440541
934.50 0.2439799
934.60 0.2439058
934.70 0.2438316
934.80 0.2437575
934.90 0.2436834
935.00 0.2436094
935.10 0.2435354
935.20 0.2434614
935.30 0.2433874
935.40 0.2433134
935.50 0.2432395
935.60 0.2431656
935.70 0.2430917
935.80 0.2430179
935.90 0.2429441
936.00 0.2428703
936.10 0.2427965
936.20 0.2427228
936.30 0.2426491
936.40 0.2425754
936.50 0.2425017
936.60 0.2424281
936.70 0.2423545
936.80 0.2422809
936.90 0.2422073
937.00 0.2421338
937.10 0.2420603
937.20 0.2419868
937.30 0.2419133
937.40 0.2418399
937.50 0.2417665
937.60 0.2416931
937.70 0.2416198
937.80 0.2415464
937.90 0.2414731
938.00 0.2413999
938.10 0.2413266
938.20 0.2412534
938.30 0.2411802
938.40 0.241107
938.50 0.2410339
938.60 0.2409608
938.70 0.2408877
938.80 0.2408146
938.90 0.2407415
939.00 0.2406685
939.10 0.2405955
939.20 0.2405226
939.30 0.2404496
939.40 0.2403767
939.50 0.2403038
939.60 0.240231
939.70 0.2401581
939.80 0.2400853
939.90 0.2400125
940.00 0.2399397
940.10 0.239867
940.20 0.2397943
940.30 0.2397216
940.40 0.239649
940.50 0.2395763
940.60 0.2395037
940.70 0.2394311
940.80 0.2393586
940.90 0.239286
941.00 0.2392135
941.10 0.239141
941.20 0.2390686
941.30 0.2389962
941.40 0.2389237
941.50 0.2388514
941.60 0.238779
941.70 0.2387067
941.80 0.2386344
941.90 0.2385621
942.00 0.2384898
942.10 0.2384176
942.20 0.2383454
942.30 0.2382732
942.40 0.2382011
942.50 0.238129
942.60 0.2380568
942.70 0.2379848
942.80 0.2379127
942.90 0.2378407
943.00 0.2377688
943.10 0.237697
943.20 0.2376253
943.30 0.2375536
943.40 0.2374819
943.50 0.2374102
943.60 0.2373386
943.70 0.237267
943.80 0.2371954
943.90 0.2371238
944.00 0.2370523
944.10 0.2369808
944.20 0.2369093
944.30 0.2368378
944.40 0.2367664
944.50 0.236695
944.60 0.2366236
944.70 0.2365522
944.80 0.2364809
944.90 0.2364096
945.00 0.2363383
945.10 0.236267
945.20 0.2361958
945.30 0.2361246
945.40 0.2360534
945.50 0.2359822
945.60 0.2359111
945.70 0.23584
945.80 0.2357689
945.90 0.2356978
946.00 0.2356268
946.10 0.2355558
946.20 0.2354848
946.30 0.2354138
946.40 0.2353429
946.50 0.235272
946.60 0.2352011
946.70 0.2351302
946.80 0.2350594
946.90 0.2349886
947.00 0.2349178
947.10 0.234847
947.20 0.2347763
947.30 0.2347055
947.40 0.2346348
947.50 0.2345642
947.60 0.2344935
947.70 0.2344229
947.80 0.2343523
947.90 0.2342818
948.00 0.2342112
948.10 0.2341407
948.20 0.2340702
948.30 0.2339997
948.40 0.2339293
948.50 0.2338588
948.60 0.2337885
948.70 0.2337181
948.80 0.2336477
948.90 0.2335774
949.00 0.2335071
949.10 0.2334368
949.20 0.2333666
949.30 0.2332963
949.40 0.2332261
949.50 0.233156
949.60 0.2330858
949.70 0.2330157
949.80 0.2329456
949.90 0.2328755
950.00 0.2328054
950.10 0.2327354
950.20 0.2326654
950.30 0.2325954
950.40 0.2325255
950.50 0.2324555
950.60 0.2323856
950.70 0.2323157
950.80 0.2322459
950.90 0.232176
951.00 0.2321062
951.10 0.2320364
951.20 0.2319667
951.30 0.2318969
951.40 0.2318272
951.50 0.2317575
951.60 0.2316878
951.70 0.2316182
951.80 0.2315486
951.90 0.231479
952.00 0.2314094
952.10 0.2313399
952.20 0.2312703
952.30 0.2312008
952.40 0.2311312
952.50 0.2310593
952.60 0.2309875
952.70 0.2309157
952.80 0.230844
952.90 0.2307723
953.00 0.2307005
953.10 0.2306289
953.20 0.2305572
953.30 0.2304856
953.40 0.230414
953.50 0.2303424
953.60 0.2302708
953.70 0.2301993
953.80 0.2301278
953.90 0.2300563
954.00 0.2299848
954.10 0.2299134
954.20 0.229842
954.30 0.2297706
954.40 0.2296992
954.50 0.2296279
954.60 0.2295566
954.70 0.2294853
954.80 0.229414
954.90 0.2293428
955.00 0.2292716
955.10 0.2292004
955.20 0.2291293
955.30 0.2290581
955.40 0.228987
955.50 0.2289159
955.60 0.2288449
955.70 0.2287738
955.80 0.2287028
955.90 0.2286318
956.00 0.2285609
956.10 0.2284899
956.20 0.228419
956.30 0.2283481
956.40 0.2282772
956.50 0.2282064
956.60 0.2281356
956.70 0.2280648
956.80 0.227994
956.90 0.2279233
957.00 0.2278526
957.10 0.2277819
957.20 0.2277124
957.30 0.2276443
957.40 0.2275763
957.50 0.2275082
957.60 0.2274402
957.70 0.2273722
957.80 0.2273043
957.90 0.2272363
958.00 0.2271684
958.10 0.2271005
958.20 0.2270327
958.30 0.2269648
958.40 0.226897
958.50 0.2268292
958.60 0.2267614
958.70 0.2266937
958.80 0.2266259
958.90 0.2265582
959.00 0.2264905
959.10 0.2264229
959.20 0.2263552
959.30 0.2262876
959.40 0.22622
959.50 0.2261525
959.60 0.2260849
959.70 0.2260174
959.80 0.2259499
959.90 0.2258824
960.00 0.225815
960.10 0.2257476
960.20 0.2256802
960.30 0.2256128
960.40 0.2255454
960.50 0.2254781
960.60 0.2254108
960.70 0.2253435
960.80 0.2252762
960.90 0.225209
961.00 0.2251418
961.10 0.2250746
961.20 0.2250074
961.30 0.2249403
961.40 0.2248731
961.50 0.224806
961.60 0.2247389
961.70 0.2246719
961.80 0.2246049
961.90 0.2245378
962.00 0.224471
962.10 0.2244043
962.20 0.2243375
962.30 0.2242708
962.40 0.2242041
962.50 0.2241374
962.60 0.2240708
962.70 0.2240042
962.80 0.2239376
962.90 0.223871
963.00 0.2238044
963.10 0.2237379
963.20 0.2236714
963.30 0.2236049
963.40 0.2235384
963.50 0.223472
963.60 0.2234055
963.70 0.2233391
963.80 0.2232728
963.90 0.2232064
964.00 0.2231401
964.10 0.2230738
964.20 0.2230075
964.30 0.2229412
964.40 0.222875
964.50 0.2228088
964.60 0.2227426
964.70 0.2226764
964.80 0.2226103
964.90 0.2225441
965.00 0.222478
965.10 0.2224119
965.20 0.2223459
965.30 0.2222798
965.40 0.2222138
965.50 0.2221478
965.60 0.2220819
965.70 0.2220159
965.80 0.22195
965.90 0.2218841
966.00 0.2218182
966.10 0.2217524
966.20 0.2216865
966.30 0.2216207
966.40 0.2215549
966.50 0.2214892
966.60 0.2214234
966.70 0.2213577
966.80 0.221292
966.90 0.2212263
967.00 0.2211607
967.10 0.221095
967.20 0.2210294
967.30 0.2209639
967.40 0.2208983
967.50 0.2208327
967.60 0.2207672
967.70 0.2207017
967.80 0.2206363
967.90 0.2205708
968.00 0.2205054
968.10 0.22044
968.20 0.2203746
968.30 0.2203092
968.40 0.2202439
968.50 0.2201786
968.60 0.2201133
968.70 0.220048
968.80 0.2199827
968.90 0.2199175
969.00 0.2198523
969.10 0.2197871
969.20 0.219722
969.30 0.2196568
969.40 0.2195917
969.50 0.2195266
969.60 0.2194615
969.70 0.2193965
969.80 0.2193314
969.90 0.2192664
970.00 0.2192015
970.10 0.2191365
970.20 0.2190716
970.30 0.2190066
970.40 0.2189417
970.50 0.2188769
970.60 0.218812
970.70 0.2187472
970.80 0.2186824
970.90 0.2186176
971.00 0.2185528
971.10 0.2184881
971.20 0.2184234
971.30 0.2183587
971.40 0.218294
971.50 0.2182293
971.60 0.218164
971.70 0.2180984
971.80 0.2180328
971.90 0.2179672
972.00 0.2179016
972.10 0.2178361
972.20 0.2177706
972.30 0.2177051
972.40 0.2176396
972.50 0.2175741
972.60 0.2175087
972.70 0.2174433
972.80 0.2173779
972.90 0.2173125
973.00 0.2172472
973.10 0.2171819
973.20 0.2171166
973.30 0.2170513
973.40 0.216986
973.50 0.2169208
973.60 0.2168556
973.70 0.2167904
973.80 0.2167252
973.90 0.2166601
974.00 0.216595
974.10 0.2165299
974.20 0.2164648
974.30 0.2163997
974.40 0.2163347
974.50 0.2162697
974.60 0.2162047
974.70 0.2161397
974.80 0.2160748
974.90 0.2160099
975.00 0.215945
975.10 0.2158801
975.20 0.2158152
975.30 0.2157504
975.40 0.2156856
975.50 0.2156208
975.60 0.215556
975.70 0.2154913
975.80 0.2154265
975.90 0.2153618
976.00 0.2152972
976.10 0.2152325
976.20 0.2151679
976.30 0.2151033
976.40 0.2150387
976.50 0.2149741
976.60 0.2149095
976.70 0.214845
976.80 0.2147805
976.90 0.214716
977.00 0.2146516
977.10 0.2145871
977.20 0.2145227
977.30 0.2144583
977.40 0.2143939
977.50 0.2143296
977.60 0.2142653
977.70 0.2142009
977.80 0.2141367
977.90 0.2140724
978.00 0.2140082
978.10 0.2139439
978.20 0.2138797
978.30 0.2138156
978.40 0.2137514
978.50 0.2136873
978.60 0.2136232
978.70 0.2135591
978.80 0.213495
978.90 0.213431
979.00 0.2133669
979.10 0.2133029
979.20 0.2132389
979.30 0.213175
979.40 0.213111
979.50 0.2130471
979.60 0.2129832
979.70 0.2129194
979.80 0.2128555
979.90 0.2127917
980.00 0.2127279
980.10 0.2126641
980.20 0.2126003
980.30 0.2125366
980.40 0.2124729
980.50 0.2124092
980.60 0.2123455
980.70 0.2122818
980.80 0.2122182
980.90 0.2121546
981.00 0.212091
981.10 0.2120274
981.20 0.2119639
981.30 0.2119004
981.40 0.2118371
981.50 0.2117738
981.60 0.2117106
981.70 0.2116473
981.80 0.2115841
981.90 0.2115209
982.00 0.2114577
982.10 0.2113946
982.20 0.2113315
982.30 0.2112683
982.40 0.2112053
982.50 0.2111422
982.60 0.2110791
982.70 0.2110161
982.80 0.2109531
982.90 0.2108901
983.00 0.2108272
983.10 0.2107642
983.20 0.2107013
983.30 0.2106384
983.40 0.2105755
983.50 0.2105127
983.60 0.2104498
983.70 0.210387
983.80 0.2103242
983.90 0.2102615
984.00 0.2101987
984.10 0.210136
984.20 0.2100733
984.30 0.2100106
984.40 0.2099479
984.50 0.2098853
984.60 0.2098226
984.70 0.20976
984.80 0.2096975
984.90 0.2096349
985.00 0.2095724
985.10 0.2095098
985.20 0.2094473
985.30 0.2093849
985.40 0.2093224
985.50 0.20926
985.60 0.2091976
985.70 0.2091352
985.80 0.2090728
985.90 0.2090105
986.00 0.2089481
986.10 0.2088858
986.20 0.2088235
986.30 0.2087613
986.40 0.208699
986.50 0.2086368
986.60 0.2085746
986.70 0.2085124
986.80 0.2084503
986.90 0.2083881
987.00 0.208326
987.10 0.2082639
987.20 0.2082018
987.30 0.2081398
987.40 0.2080777
987.50 0.2080157
987.60 0.2079537
987.70 0.2078917
987.80 0.2078298
987.90 0.2077679
988.00 0.2077059
988.10 0.2076441
988.20 0.2075822
988.30 0.2075203
988.40 0.2074585
988.50 0.2073967
988.60 0.2073349
988.70 0.2072732
988.80 0.2072114
988.90 0.2071497
989.00 0.207088
989.10 0.2070263
989.20 0.2069646
989.30 0.206903
989.40 0.2068414
989.50 0.2067798
989.60 0.2067182
989.70 0.2066566
989.80 0.2065951
989.90 0.2065336
990.00 0.2064721
990.10 0.2064106
990.20 0.2063492
990.30 0.2062877
990.40 0.2062263
990.50 0.2061649
990.60 0.2061035
990.70 0.2060422
990.80 0.2059809
990.90 0.2059195
991.00 0.2058583
991.10 0.2057975
991.20 0.2057376
991.30 0.2056777
991.40 0.2056178
991.50 0.205558
991.60 0.2054981
991.70 0.2054383
991.80 0.2053785
991.90 0.2053188
992.00 0.205259
992.10 0.2051993
992.20 0.2051396
992.30 0.2050799
992.40 0.2050202
992.50 0.2049606
992.60 0.204901
992.70 0.2048414
992.80 0.2047818
992.90 0.2047222
993.00 0.2046626
993.10 0.2046031
993.20 0.2045436
993.30 0.2044841
993.40 0.2044247
993.50 0.2043652
993.60 0.2043058
993.70 0.2042464
993.80 0.204187
993.90 0.2041276
994.00 0.2040682
994.10 0.2040089
994.20 0.2039496
994.30 0.2038903
994.40 0.203831
994.50 0.2037718
994.60 0.2037126
994.70 0.2036533
994.80 0.2035941
994.90 0.203535
995.00 0.2034758
995.10 0.2034167
995.20 0.2033576
995.30 0.2032985
995.40 0.2032394
995.50 0.2031803
995.60 0.2031213
995.70 0.2030623
995.80 0.2030033
995.90 0.2029443
996.00 0.2028854
996.10 0.2028264
996.20 0.2027675
996.30 0.2027086
996.40 0.2026497
996.50 0.2025909
996.60 0.202532
996.70 0.2024732
996.80 0.2024144
996.90 0.2023557
997.00 0.2022969
997.10 0.2022382
997.20 0.2021794
997.30 0.2021207
997.40 0.2020621
997.50 0.2020034
997.60 0.2019448
997.70 0.2018861
997.80 0.2018275
997.90 0.2017689
998.00 0.2017104
998.10 0.2016518
998.20 0.2015933
998.30 0.2015348
998.40 0.2014763
998.50 0.2014179
998.60 0.2013594
998.70 0.201301
998.80 0.2012426
998.90 0.2011842
999.00 0.2011258
999.10 0.2010675
999.20 0.2010091
999.30 0.2009508
999.40 0.2008925
999.50 0.2008342
999.60 0.200776
999.70 0.2007178
999.80 0.2006595
999.90 0.2006013
1000.00 0.2005432
1000.10 0.200485
1000.20 0.2004269
1000.30 0.2003688
1000.40 0.2003107
1000.50 0.2002526
1000.60 0.2001945
1000.70 0.2001365
1000.80 0.2000784
1000.90 0.2000204
1001.00 0.1999619
1001.10 0.1999019
1001.20 0.1998419
1001.30 0.1997819
1001.40 0.199722
1001.50 0.199662
1001.60 0.1996021
1001.70 0.1995422
1001.80 0.1994823
1001.90 0.1994225
1002.00 0.1993626
1002.10 0.1993028
1002.20 0.199243
1002.30 0.1991832
1002.40 0.1991235
1002.50 0.1990637
1002.60 0.199004
1002.70 0.1989443
1002.80 0.1988846
1002.90 0.198825
1003.00 0.1987653
1003.10 0.1987057
1003.20 0.1986461
1003.30 0.1985865
1003.40 0.198527
1003.50 0.1984674
1003.60 0.1984079
1003.70 0.1983484
1003.80 0.1982889
1003.90 0.1982294
1004.00 0.19817
1004.10 0.1981106
1004.20 0.1980512
1004.30 0.1979918
1004.40 0.1979324
1004.50 0.1978731
1004.60 0.1978138
1004.70 0.1977544
1004.80 0.1976952
1004.90 0.1976359
1005.00 0.1975766
1005.10 0.1975174
1005.20 0.1974582
1005.30 0.197399
1005.40 0.1973399
1005.50 0.1972807
1005.60 0.1972216
1005.70 0.1971625
1005.80 0.1971034
1005.90 0.1970443
1006.00 0.1969857
1006.10 0.1969289
1006.20 0.1968721
1006.30 0.1968153
1006.40 0.1967585
1006.50 0.1967018
1006.60 0.1966451
1006.70 0.1965883
1006.80 0.1965316
1006.90 0.196475
1007.00 0.1964183
1007.10 0.1963617
1007.20 0.1963051
1007.30 0.1962485
1007.40 0.1961919
1007.50 0.1961353
1007.60 0.1960788
1007.70 0.1960222
1007.80 0.1959657
1007.90 0.1959092
1008.00 0.1958528
1008.10 0.1957963
1008.20 0.1957399
1008.30 0.1956835
1008.40 0.1956271
1008.50 0.1955707
1008.60 0.1955143
1008.70 0.195458
1008.80 0.1954017
1008.90 0.1953453
1009.00 0.1952891
1009.10 0.1952328
1009.20 0.1951765
1009.30 0.1951203
1009.40 0.1950641
1009.50 0.1950079
1009.60 0.1949517
1009.70 0.1948956
1009.80 0.1948394
1009.90 0.1947833
1010.00 0.1947272
1010.10 0.1946711
1010.20 0.1946151
1010.30 0.194559
1010.40 0.194503
1010.50 0.194447
1010.60 0.194391
1010.70 0.194335
1010.80 0.1942791
1010.90 0.1942231
1011.00 0.1941669
1011.10 0.194109
1011.20 0.1940511
1011.30 0.1939933
1011.40 0.1939354
1011.50 0.1938776
1011.60 0.1938198
1011.70 0.193762
1011.80 0.1937043
1011.90 0.1936466
1012.00 0.1935888
1012.10 0.1935311
1012.20 0.1934735
1012.30 0.1934158
1012.40 0.1933582
1012.50 0.1933005
1012.60 0.1932429
1012.70 0.1931853
1012.80 0.1931278
1012.90 0.1930702
1013.00 0.1930127
1013.10 0.1929552
1013.20 0.1928977
1013.30 0.1928402
1013.40 0.1927828
1013.50 0.1927254
1013.60 0.1926679
1013.70 0.1926106
1013.80 0.1925532
1013.90 0.1924958
1014.00 0.1924385
1014.10 0.1923812
1014.20 0.1923239
1014.30 0.1922666
1014.40 0.1922093
1014.50 0.1921521
1014.60 0.1920948
1014.70 0.1920376
1014.80 0.1919805
1014.90 0.1919233
1015.00 0.1918661
1015.10 0.191809
1015.20 0.1917519
1015.30 0.1916948
1015.40 0.1916377
1015.50 0.1915807
1015.60 0.1915236
1015.70 0.1914666
1015.80 0.1914096
1015.90 0.1913526
1016.00 0.1912957
1016.10 0.1912401
1016.20 0.1911853
1016.30 0.1911305
1016.40 0.1910758
1016.50 0.191021
1016.60 0.1909663
1016.70 0.1909116
1016.80 0.190857
1016.90 0.1908023
1017.00 0.1907477
1017.10 0.190693
1017.20 0.1906384
1017.30 0.1905839
1017.40 0.1905293
1017.50 0.1904747
1017.60 0.1904202
1017.70 0.1903657
1017.80 0.1903112
1017.90 0.1902567
1018.00 0.1902023
1018.10 0.1901478
1018.20 0.1900934
1018.30 0.190039
1018.40 0.1899846
1018.50 0.1899302
1018.60 0.1898759
1018.70 0.1898215
1018.80 0.1897672
1018.90 0.1897129
1019.00 0.1896586
1019.10 0.1896044
1019.20 0.1895501
1019.30 0.1894959
1019.40 0.1894417
1019.50 0.1893875
1019.60 0.1893333
1019.70 0.1892791
1019.80 0.189225
1019.90 0.1891709
1020.00 0.1891167
1020.10 0.1890627
1020.20 0.1890086
1020.30 0.1889545
1020.40 0.1889005
1020.50 0.1888465
1020.60 0.1887925
1020.70 0.1887385
1020.80 0.1886845
1020.90 0.1886306
1021.00 0.1885766
1021.10 0.1885226
1021.20 0.1884667
1021.30 0.1884109
1021.40 0.1883551
1021.50 0.1882994
1021.60 0.1882436
1021.70 0.1881879
1021.80 0.1881322
1021.90 0.1880765
1022.00 0.1880208
1022.10 0.1879651
1022.20 0.1879095
1022.30 0.1878538
1022.40 0.1877982
1022.50 0.1877426
1022.60 0.1876871
1022.70 0.1876315
1022.80 0.187576
1022.90 0.1875204
1023.00 0.1874649
1023.10 0.1874095
1023.20 0.187354
1023.30 0.1872985
1023.40 0.1872431
1023.50 0.1871877
1023.60 0.1871323
1023.70 0.1870769
1023.80 0.1870216
1023.90 0.1869662
1024.00 0.1869109
1024.10 0.1868556
1024.20 0.1868003
1024.30 0.1867451
1024.40 0.1866898
1024.50 0.1866346
1024.60 0.1865794
1024.70 0.1865242
1024.80 0.186469
1024.90 0.1864138
1025.00 0.1863587
1025.10 0.1863036
1025.20 0.1862485
1025.30 0.1861934
1025.40 0.1861383
1025.50 0.1860833
1025.60 0.1860282
1025.70 0.1859732
1025.80 0.1859182
1025.90 0.1858632
1026.00 0.1858083
1026.10 0.1857533
1026.20 0.1856984
1026.30 0.1856456
1026.40 0.1855928
1026.50 0.18554
1026.60 0.1854872
1026.70 0.1854344
1026.80 0.1853817
1026.90 0.185329
1027.00 0.1852763
1027.10 0.1852236
1027.20 0.1851709
1027.30 0.1851182
1027.40 0.1850656
1027.50 0.185013
1027.60 0.1849603
1027.70 0.1849078
1027.80 0.1848552
1027.90 0.1848026
1028.00 0.1847501
1028.10 0.1846976
1028.20 0.184645
1028.30 0.1845926
1028.40 0.1845401
1028.50 0.1844876
1028.60 0.1844352
1028.70 0.1843828
1028.80 0.1843304
1028.90 0.184278
1029.00 0.1842256
1029.10 0.1841732
1029.20 0.1841209
1029.30 0.1840686
1029.40 0.1840163
1029.50 0.183964
1029.60 0.1839117
1029.70 0.1838595
1029.80 0.1838072
1029.90 0.183755
1030.00 0.1837028
1030.10 0.1836506
1030.20 0.1835984
1030.30 0.1835463
1030.40 0.1834941
1030.50 0.183442
1030.60 0.1833899
1030.70 0.1833378
1030.80 0.1832858
1030.90 0.1832337
1031.00 0.1831817
1031.10 0.1831297
1031.20 0.1830776
1031.30 0.1830257
1031.40 0.1829719
1031.50 0.1829181
1031.60 0.1828643
1031.70 0.1828105
1031.80 0.1827567
1031.90 0.1827029
1032.00 0.1826492
1032.10 0.1825955
1032.20 0.1825418
1032.30 0.1824881
1032.40 0.1824344
1032.50 0.1823808
1032.60 0.1823271
1032.70 0.1822735
1032.80 0.1822199
1032.90 0.1821663
1033.00 0.1821128
1033.10 0.1820592
1033.20 0.1820057
1033.30 0.1819522
1033.40 0.1818987
1033.50 0.1818452
1033.60 0.1817918
1033.70 0.1817383
1033.80 0.1816849
1033.90 0.1816315
1034.00 0.1815781
1034.10 0.1815247
1034.20 0.1814714
1034.30 0.181418
1034.40 0.1813647
1034.50 0.1813114
1034.60 0.1812581
1034.70 0.1812048
1034.80 0.1811516
1034.90 0.1810983
1035.00 0.1810451
1035.10 0.1809919
1035.20 0.1809387
1035.30 0.1808856
1035.40 0.1808324
1035.50 0.1807793
1035.60 0.1807262
1035.70 0.1806731
1035.80 0.18062
1035.90 0.1805669
1036.00 0.1805139
1036.10 0.1804608
1036.20 0.1804078
1036.30 0.1803548
1036.40 0.1803018
1036.50 0.1802497
1036.60 0.1801987
1036.70 0.1801478
1036.80 0.1800969
1036.90 0.1800461
1037.00 0.1799952
1037.10 0.1799443
1037.20 0.1798935
1037.30 0.1798427
1037.40 0.1797919
1037.50 0.1797411
1037.60 0.1796903
1037.70 0.1796396
1037.80 0.1795889
1037.90 0.1795381
1038.00 0.1794874
1038.10 0.1794368
1038.20 0.1793861
1038.30 0.1793354
1038.40 0.1792848
1038.50 0.1792342
1038.60 0.1791836
1038.70 0.179133
1038.80 0.1790824
1038.90 0.1790318
1039.00 0.1789813
1039.10 0.1789308
1039.20 0.1788803
1039.30 0.1788298
1039.40 0.1787793
1039.50 0.1787288
1039.60 0.1786784
1039.70 0.178628
1039.80 0.1785776
1039.90 0.1785272
1040.00 0.1784768
1040.10 0.1784264
1040.20 0.1783761
1040.30 0.1783257
1040.40 0.1782754
1040.50 0.1782251
1040.60 0.1781749
1040.70 0.1781246
1040.80 0.1780743
1040.90 0.1780241
1041.00 0.1779739
1041.10 0.1779237
1041.20 0.1778735
1041.30 0.1778233
1041.40 0.1777732
1041.50 0.177723
1041.60 0.1776729
1041.70 0.1776213
1041.80 0.1775694
1041.90 0.1775175
1042.00 0.1774656
1042.10 0.1774137
1042.20 0.1773619
1042.30 0.1773101
1042.40 0.1772583
1042.50 0.1772065
1042.60 0.1771547
1042.70 0.1771029
1042.80 0.1770512
1042.90 0.1769995
1043.00 0.1769477
1043.10 0.1768961
1043.20 0.1768444
1043.30 0.1767927
1043.40 0.1767411
1043.50 0.1766894
1043.60 0.1766378
1043.70 0.1765862
1043.80 0.1765347
1043.90 0.1764831
1044.00 0.1764316
1044.10 0.17638
1044.20 0.1763285
1044.30 0.176277
1044.40 0.1762255
1044.50 0.1761741
1044.60 0.1761226
1044.70 0.1760712
1044.80 0.1760198
1044.90 0.1759684
1045.00 0.175917
1045.10 0.1758656
1045.20 0.1758143
1045.30 0.175763
1045.40 0.1757116
1045.50 0.1756604
1045.60 0.1756091
1045.70 0.1755578
1045.80 0.1755066
1045.90 0.1754553
1046.00 0.1754041
1046.10 0.1753529
1046.20 0.1753017
1046.30 0.1752506
1046.40 0.1751994
1046.50 0.1751483
1046.60 0.1750972
1046.70 0.175046
1046.80 0.174995
1046.90 0.1749454
1047.00 0.1748963
1047.10 0.1748472
1047.20 0.1747981
1047.30 0.1747491
1047.40 0.1747001
1047.50 0.174651
1047.60 0.174602
1047.70 0.1745531
1047.80 0.1745041
1047.90 0.1744551
1048.00 0.1744062
1048.10 0.1743573
1048.20 0.1743084
1048.30 0.1742595
1048.40 0.1742106
1048.50 0.1741617
1048.60 0.1741129
1048.70 0.1740641
1048.80 0.1740152
1048.90 0.1739664
1049.00 0.1739177
1049.10 0.1738689
1049.20 0.1738201
1049.30 0.1737714
1049.40 0.1737227
1049.50 0.173674
1049.60 0.1736253
1049.70 0.1735766
1049.80 0.1735279
1049.90 0.1734793
1050.00 0.1734307
1050.10 0.1733821
1050.20 0.1733335
1050.30 0.1732849
1050.40 0.1732363
1050.50 0.1731878
1050.60 0.1731392
1050.70 0.1730907
1050.80 0.1730422
1050.90 0.1729937
1051.00 0.1729452
1051.10 0.1728968
1051.20 0.1728483
1051.30 0.1727999
1051.40 0.1727515
1051.50 0.1727031
1051.60 0.1726547
1051.70 0.1726063
1051.80 0.172558
1051.90 0.1725096
1052.00 0.1724613
1052.10 0.1724125
1052.20 0.1723634
1052.30 0.1723143
1052.40 0.1722652
1052.50 0.1722162
1052.60 0.1721671
1052.70 0.1721181
1052.80 0.1720691
1052.90 0.1720201
1053.00 0.1719711
1053.10 0.1719222
1053.20 0.1718732
1053.30 0.1718243
1053.40 0.1717754
1053.50 0.1717265
1053.60 0.1716776
1053.70 0.1716288
1053.80 0.1715799
1053.90 0.1715311
1054.00 0.1714822
1054.10 0.1714334
1054.20 0.1713847
1054.30 0.1713359
1054.40 0.1712871
1054.50 0.1712384
1054.60 0.1711897
1054.70 0.1711409
1054.80 0.1710922
1054.90 0.1710436
1055.00 0.1709949
1055.10 0.1709463
1055.20 0.1708976
1055.30 0.170849
1055.40 0.1708004
1055.50 0.1707518
1055.60 0.1707032
1055.70 0.1706547
1055.80 0.1706061
1055.90 0.1705576
1056.00 0.1705091
1056.10 0.1704606
1056.20 0.1704121
1056.30 0.1703637
1056.40 0.1703152
1056.50 0.1702668
1056.60 0.1702184
1056.70 0.1701699
1056.80 0.1701216
1056.90 0.1700732
1057.00 0.1700248
1057.10 0.1699765
1057.20 0.1699282
1057.30 0.1698798
1057.40 0.1698315
1057.50 0.1697833
1057.60 0.169735
1057.70 0.1696867
1057.80 0.1696385
1057.90 0.1695903
1058.00 0.1695421
1058.10 0.1694939
1058.20 0.1694457
1058.30 0.1693975
1058.40 0.1693494
1058.50 0.1693013
1058.60 0.1692532
1058.70 0.1692051
1058.80 0.169157
1058.90 0.1691089
1059.00 0.1690608
1059.10 0.1690128
1059.20 0.1689648
1059.30 0.1689168
1059.40 0.1688688
1059.50 0.1688208
1059.60 0.1687728
1059.70 0.1687249
1059.80 0.168677
1059.90 0.168629
1060.00 0.1685811
1060.10 0.1685332
1060.20 0.1684854
1060.30 0.1684375
1060.40 0.1683897
1060.50 0.1683418
1060.60 0.168294
1060.70 0.1682462
1060.80 0.1681984
1060.90 0.1681507
1061.00 0.1681029
1061.10 0.1680552
1061.20 0.1680075
1061.30 0.1679598
1061.40 0.1679121
1061.50 0.1678644
1061.60 0.1678167
1061.70 0.1677691
1061.80 0.1677214
1061.90 0.1676738
1062.00 0.1676262
1062.10 0.1675786
1062.20 0.1675311
1062.30 0.1674835
1062.40 0.167436
1062.50 0.1673884
1062.60 0.1673406
1062.70 0.1672923
1062.80 0.167244
1062.90 0.1671958
1063.00 0.1671476
1063.10 0.1670993
1063.20 0.1670511
1063.30 0.167003
1063.40 0.1669548
1063.50 0.1669066
1063.60 0.1668585
1063.70 0.1668104
1063.80 0.1667623
1063.90 0.1667142
1064.00 0.1666661
1064.10 0.1666181
1064.20 0.16657
1064.30 0.166522
1064.40 0.166474
1064.50 0.166426
1064.60 0.166378
1064.70 0.16633
1064.80 0.1662821
1064.90 0.1662341
1065.00 0.1661862
1065.10 0.1661383
1065.20 0.1660904
1065.30 0.1660425
1065.40 0.1659946
1065.50 0.1659468
1065.60 0.165899
1065.70 0.1658511
1065.80 0.1658033
1065.90 0.1657555
1066.00 0.1657078
1066.10 0.16566
1066.20 0.1656123
1066.30 0.1655645
1066.40 0.1655168
1066.50 0.1654691
1066.60 0.1654214
1066.70 0.1653738
1066.80 0.1653261
1066.90 0.1652785
1067.00 0.1652309
1067.10 0.1651832
1067.20 0.1651357
1067.30 0.1650881
1067.40 0.1650405
1067.50 0.164993
1067.60 0.1649454
1067.70 0.1648979
1067.80 0.1648504
1067.90 0.1648035
1068.00 0.1647579
1068.10 0.1647123
1068.20 0.1646667
1068.30 0.1646211
1068.40 0.1645755
1068.50 0.1645299
1068.60 0.1644844
1068.70 0.1644389
1068.80 0.1643933
1068.90 0.1643478
1069.00 0.1643023
1069.10 0.1642569
1069.20 0.1642114
1069.30 0.164166
1069.40 0.1641205
1069.50 0.1640751
1069.60 0.1640297
1069.70 0.1639843
1069.80 0.1639389
1069.90 0.1638936
1070.00 0.1638482
1070.10 0.1638029
1070.20 0.1637576
1070.30 0.1637123
1070.40 0.163667
1070.50 0.1636217
1070.60 0.1635764
1070.70 0.1635312
1070.80 0.1634859
1070.90 0.1634407
1071.00 0.1633955
1071.10 0.1633503
1071.20 0.1633051
1071.30 0.16326
1071.40 0.1632148
1071.50 0.1631697
1071.60 0.1631245
1071.70 0.1630794
1071.80 0.1630343
1071.90 0.1629893
1072.00 0.1629442
1072.10 0.1628991
1072.20 0.1628541
1072.30 0.1628091
1072.40 0.1627641
1072.50 0.1627191
1072.60 0.1626741
1072.70 0.1626291
1072.80 0.1625841
1072.90 0.1625392
1073.00 0.1624943
1073.10 0.1624494
1073.20 0.1624041
1073.30 0.1623576
1073.40 0.162311
1073.50 0.1622645
1073.60 0.162218
1073.70 0.1621715
1073.80 0.162125
1073.90 0.1620786
1074.00 0.1620321
1074.10 0.1619857
1074.20 0.1619393
1074.30 0.1618929
1074.40 0.1618465
1074.50 0.1618001
1074.60 0.1617537
1074.70 0.1617074
1074.80 0.1616611
1074.90 0.1616147
1075.00 0.1615684
1075.10 0.1615221
1075.20 0.1614759
1075.30 0.1614296
1075.40 0.1613834
1075.50 0.1613371
1075.60 0.1612909
1075.70 0.1612447
1075.80 0.1611985
1075.90 0.1611523
1076.00 0.1611062
1076.10 0.16106
1076.20 0.1610139
1076.30 0.1609678
1076.40 0.1609217
1076.50 0.1608756
1076.60 0.1608295
1076.70 0.1607835
1076.80 0.1607374
1076.90 0.1606914
1077.00 0.1606454
1077.10 0.1605994
1077.20 0.1605534
1077.30 0.1605074
1077.40 0.1604615
1077.50 0.1604155
1077.60 0.1603696
1077.70 0.1603237
1077.80 0.1602778
1077.90 0.1602319
1078.00 0.160186
1078.10 0.1601402
1078.20 0.1600943
1078.30 0.1600485
1078.40 0.1600027
1078.50 0.1599569
1078.60 0.1599111
1078.70 0.1598653
1078.80 0.1598195
1078.90 0.1597738
1079.00 0.1597281
1079.10 0.1596823
1079.20 0.1596366
1079.30 0.159591
1079.40 0.1595453
1079.50 0.1594996
1079.60 0.159454
1079.70 0.1594083
1079.80 0.1593627
1079.90 0.1593171
1080.00 0.1592715
1080.10 0.159226
1080.20 0.1591804
1080.30 0.1591349
1080.40 0.1590893
1080.50 0.1590438
1080.60 0.1589983
1080.70 0.1589528
1080.80 0.1589073
1080.90 0.1588619
1081.00 0.1588164
1081.10 0.158771
1081.20 0.1587256
1081.30 0.1586802
1081.40 0.1586348
1081.50 0.1585894
1081.60 0.158544
1081.70 0.1584987
1081.80 0.1584534
1081.90 0.158408
1082.00 0.1583627
1082.10 0.1583174
1082.20 0.1582722
1082.30 0.1582269
1082.40 0.1581816
1082.50 0.1581364
1082.60 0.1580912
1082.70 0.158046
1082.80 0.1580008
1082.90 0.1579556
1083.00 0.1579104
1083.10 0.1578653
1083.20 0.1578201
1083.30 0.157775
1083.40 0.1577299
1083.50 0.1576848
1083.60 0.1576397
1083.70 0.1575947
1083.80 0.1575496
1083.90 0.1575046
1084.00 0.1574612
1084.10 0.1574181
1084.20 0.1573751
1084.30 0.157332
1084.40 0.1572889
1084.50 0.1572459
1084.60 0.1572028
1084.70 0.1571598
1084.80 0.1571168
1084.90 0.1570738
1085.00 0.1570309
1085.10 0.1569879
1085.20 0.1569449
1085.30 0.156902
1085.40 0.1568591
1085.50 0.1568162
1085.60 0.1567733
1085.70 0.1567304
1085.80 0.1566875
1085.90 0.1566446
1086.00 0.1566018
1086.10 0.1565589
1086.20 0.1565161
1086.30 0.1564733
1086.40 0.1564305
1086.50 0.1563877
1086.60 0.156345
1086.70 0.1563022
1086.80 0.1562595
1086.90 0.1562167
1087.00 0.156174
1087.10 0.1561313
1087.20 0.1560886
1087.30 0.156046
1087.40 0.1560033
1087.50 0.1559606
1087.60 0.155918
1087.70 0.1558754
1087.80 0.1558328
1087.90 0.1557902
1088.00 0.1557476
1088.10 0.155705
1088.20 0.1556624
1088.30 0.1556199
1088.40 0.1555774
1088.50 0.1555348
1088.60 0.1554923
1088.70 0.1554498
1088.80 0.1554074
1088.90 0.1553649
1089.00 0.1553224
1089.10 0.15528
1089.20 0.1552376
1089.30 0.1551951
1089.40 0.1551515
1089.50 0.1551074
1089.60 0.1550633
1089.70 0.1550192
1089.80 0.1549751
1089.90 0.154931
1090.00 0.1548869
1090.10 0.1548429
1090.20 0.1547988
1090.30 0.1547548
1090.40 0.1547108
1090.50 0.1546668
1090.60 0.1546228
1090.70 0.1545789
1090.80 0.1545349
1090.90 0.154491
1091.00 0.154447
1091.10 0.1544031
1091.20 0.1543592
1091.30 0.1543153
1091.40 0.1542714
1091.50 0.1542276
1091.60 0.1541837
1091.70 0.1541399
1091.80 0.1540961
1091.90 0.1540523
1092.00 0.1540085
1092.10 0.1539647
1092.20 0.1539209
1092.30 0.1538772
1092.40 0.1538334
1092.50 0.1537897
1092.60 0.153746
1092.70 0.1537023
1092.80 0.1536586
1092.90 0.1536149
1093.00 0.1535713
1093.10 0.1535276
1093.20 0.153484
1093.30 0.1534404
1093.40 0.1533968
1093.50 0.1533532
1093.60 0.1533096
1093.70 0.153266
1093.80 0.1532225
1093.90 0.1531789
1094.00 0.1531354
1094.10 0.1530919
1094.20 0.1530484
1094.30 0.1530049
1094.40 0.1529614
1094.50 0.152918
1094.60 0.1528745
1094.70 0.1528311
1094.80 0.1527882
1094.90 0.1527458
1095.00 0.1527034
1095.10 0.152661
1095.20 0.1526186
1095.30 0.1525763
1095.40 0.152534
1095.50 0.1524916
1095.60 0.1524493
1095.70 0.152407
1095.80 0.1523648
1095.90 0.1523225
1096.00 0.1522802
1096.10 0.152238
1096.20 0.1521958
1096.30 0.1521535
1096.40 0.1521113
1096.50 0.1520691
1096.60 0.152027
1096.70 0.1519848
1096.80 0.1519426
1096.90 0.1519005
1097.00 0.1518584
1097.10 0.1518163
1097.20 0.1517742
1097.30 0.1517321
1097.40 0.15169
1097.50 0.1516479
1097.60 0.1516059
1097.70 0.1515638
1097.80 0.1515218
1097.90 0.1514798
1098.00 0.1514378
1098.10 0.1513958
1098.20 0.1513538
1098.30 0.1513119
1098.40 0.1512699
1098.50 0.151228
1098.60 0.1511861
1098.70 0.1511442
1098.80 0.1511023
1098.90 0.1510604
1099.00 0.1510185
1099.10 0.1509766
1099.20 0.1509348
1099.30 0.150893
1099.40 0.1508511
1099.50 0.1508093
1099.60 0.1507675
1099.70 0.1507258
1099.80 0.150684
1099.90 0.1506422
1100.00 0.1506005
1100.10 0.1505587
1100.20 0.150517
1100.30 0.1504753
1100.40 0.1504336
1100.50 0.1503919
1100.60 0.1503503
1100.70 0.1503086
1100.80 0.150267
1100.90 0.1502253
1101.00 0.1501837
1101.10 0.1501421
1101.20 0.1501005
1101.30 0.1500589
1101.40 0.1500174
1101.50 0.1499758
1101.60 0.1499343
1101.70 0.1498927
1101.80 0.1498512
1101.90 0.1498097
1102.00 0.1497682
1102.10 0.1497268
1102.20 0.1496853
1102.30 0.1496438
1102.40 0.1496024
1102.50 0.149561
1102.60 0.1495195
1102.70 0.1494781
1102.80 0.1494367
1102.90 0.1493954
1103.00 0.149354
1103.10 0.1493127
1103.20 0.1492713
1103.30 0.14923
1103.40 0.1491887
1103.50 0.1491474
1103.60 0.1491061
1103.70 0.1490648
1103.80 0.1490235
1103.90 0.1489823
1104.00 0.148941
1104.10 0.1488998
1104.20 0.1488586
1104.30 0.1488174
1104.40 0.1487762
1104.50 0.148735
1104.60 0.1486938
1104.70 0.1486527
1104.80 0.1486115
1104.90 0.1485704
1105.00 0.1485293
1105.10 0.1484882
1105.20 0.1484471
1105.30 0.148406
1105.40 0.148365
1105.50 0.1483239
1105.60 0.1482829
1105.70 0.1482418
1105.80 0.148201
1105.90 0.1481601
1106.00 0.1481192
1106.10 0.1480784
1106.20 0.1480376
1106.30 0.1479968
1106.40 0.147956
1106.50 0.1479152
1106.60 0.1478744
1106.70 0.1478336
1106.80 0.1477929
1106.90 0.1477521
1107.00 0.1477114
1107.10 0.1476707
1107.20 0.14763
1107.30 0.1475893
1107.40 0.1475486
1107.50 0.1475079
1107.60 0.1474673
1107.70 0.1474266
1107.80 0.147386
1107.90 0.1473454
1108.00 0.1473048
1108.10 0.1472642
1108.20 0.1472236
1108.30 0.147183
1108.40 0.1471425
1108.50 0.1471019
1108.60 0.1470614
1108.70 0.1470209
1108.80 0.1469804
1108.90 0.1469399
1109.00 0.1468994
1109.10 0.1468589
1109.20 0.1468185
1109.30 0.146778
1109.40 0.1467376
1109.50 0.1466972
1109.60 0.1466567
1109.70 0.1466163
1109.80 0.146576
1109.90 0.1465356
1110.00 0.1464952
1110.10 0.1464549
1110.20 0.1464145
1110.30 0.1463742
1110.40 0.1463339
1110.50 0.1462936
1110.60 0.1462533
1110.70 0.146213
1110.80 0.1461728
1110.90 0.1461325
1111.00 0.1460923
1111.10 0.146052
1111.20 0.1460118
1111.30 0.1459716
1111.40 0.1459314
1111.50 0.1458913
1111.60 0.1458511
1111.70 0.1458109
1111.80 0.1457708
1111.90 0.1457307
1112.00 0.1456905
1112.10 0.1456504
1112.20 0.1456103
1112.30 0.1455702
1112.40 0.1455302
1112.50 0.1454901
1112.60 0.1454501
1112.70 0.14541
1112.80 0.14537
1112.90 0.14533
1113.00 0.14529
1113.10 0.14525
1113.20 0.14521
1113.30 0.1451701
1113.40 0.1451301
1113.50 0.1450902
1113.60 0.1450503
1113.70 0.1450103
1113.80 0.1449704
1113.90 0.1449305
1114.00 0.1448907
1114.10 0.1448508
1114.20 0.1448109
1114.30 0.1447711
1114.40 0.1447313
1114.50 0.1446915
1114.60 0.1446516
1114.70 0.1446119
1114.80 0.1445721
1114.90 0.1445323
1115.00 0.1444925
1115.10 0.1444528
1115.20 0.1444131
1115.30 0.1443733
1115.40 0.1443336
1115.50 0.1442939
1115.60 0.1442542
1115.70 0.1442146
1115.80 0.1441749
1115.90 0.1441352
1116.00 0.1440956
1116.10 0.144056
1116.20 0.1440164
1116.30 0.1439768
1116.40 0.1439372
1116.50 0.1438976
1116.60 0.143858
1116.70 0.1438185
1116.80 0.1437786
1116.90 0.1437384
1117.00 0.1436982
1117.10 0.143658
1117.20 0.1436179
1117.30 0.1435777
1117.40 0.1435376
1117.50 0.1434975
1117.60 0.1434574
1117.70 0.1434172
1117.80 0.1433772
1117.90 0.1433371
1118.00 0.143297
1118.10 0.143257
1118.20 0.1432169
1118.30 0.1431769
1118.40 0.1431369
1118.50 0.1430969
1118.60 0.1430569
1118.70 0.1430169
1118.80 0.1429769
1118.90 0.142937
1119.00 0.142897
1119.10 0.1428571
1119.20 0.1428172
1119.30 0.1427772
1119.40 0.1427373
1119.50 0.1426975
1119.60 0.1426576
1119.70 0.1426177
1119.80 0.1425779
1119.90 0.142538
1120.00 0.1424982
1120.10 0.1424584
1120.20 0.1424186
1120.30 0.1423788
1120.40 0.142339
1120.50 0.1422993
1120.60 0.1422595
1120.70 0.1422198
1120.80 0.14218
1120.90 0.1421403
1121.00 0.1421006
1121.10 0.1420609
1121.20 0.1420212
1121.30 0.1419815
1121.40 0.1419419
1121.50 0.1419022
1121.60 0.1418626
1121.70 0.141823
1121.80 0.1417834
1121.90 0.1417438
1122.00 0.1417042
1122.10 0.1416646
1122.20 0.141625
1122.30 0.1415855
1122.40 0.1415469
1122.50 0.141509
1122.60 0.141471
1122.70 0.1414331
1122.80 0.1413952
1122.90 0.1413573
1123.00 0.1413194
1123.10 0.1412816
1123.20 0.1412437
1123.30 0.1412058
1123.40 0.141168
1123.50 0.1411302
1123.60 0.1410924
1123.70 0.1410545
1123.80 0.1410168
1123.90 0.140979
1124.00 0.1409412
1124.10 0.1409034
1124.20 0.1408657
1124.30 0.1408279
1124.40 0.1407902
1124.50 0.1407525
1124.60 0.1407148
1124.70 0.1406771
1124.80 0.1406394
1124.90 0.1406017
1125.00 0.1405641
1125.10 0.1405264
1125.20 0.1404888
1125.30 0.1404512
1125.40 0.1404136
1125.50 0.1403759
1125.60 0.1403384
1125.70 0.1403008
1125.80 0.1402632
1125.90 0.1402256
1126.00 0.1401881
1126.10 0.1401505
1126.20 0.140113
1126.30 0.1400755
1126.40 0.140038
1126.50 0.1400005
1126.60 0.139963
1126.70 0.1399256
1126.80 0.1398881
1126.90 0.1398506
1127.00 0.1398132
1127.10 0.1397758
1127.20 0.1397384
1127.30 0.139701
1127.40 0.1396636
1127.50 0.1396262
1127.60 0.1395888
1127.70 0.1395514
1127.80 0.1395141
1127.90 0.1394768
1128.00 0.1394389
1128.10 0.1394009
1128.20 0.139363
1128.30 0.139325
1128.40 0.1392871
1128.50 0.1392492
1128.60 0.1392113
1128.70 0.1391734
1128.80 0.1391355
1128.90 0.1390976
1129.00 0.1390597
1129.10 0.1390219
1129.20 0.138984
1129.30 0.1389462
1129.40 0.1389084
1129.50 0.1388706
1129.60 0.1388328
1129.70 0.138795
1129.80 0.1387572
1129.90 0.1387194
1130.00 0.1386817
1130.10 0.1386439
1130.20 0.1386062
1130.30 0.1385685
1130.40 0.1385308
1130.50 0.1384931
1130.60 0.1384554
1130.70 0.1384177
1130.80 0.13838
1130.90 0.1383424
1131.00 0.1383047
1131.10 0.1382671
1131.20 0.1382295
1131.30 0.1381919
1131.40 0.1381543
1131.50 0.1381167
1131.60 0.1380791
1131.70 0.1380415
1131.80 0.138004
1131.90 0.1379665
1132.00 0.1379289
1132.10 0.1378914
1132.20 0.1378539
1132.30 0.1378164
1132.40 0.1377789
1132.50 0.1377414
1132.60 0.137704
1132.70 0.1376665
1132.80 0.1376291
1132.90 0.1375916
1133.00 0.1375542
1133.10 0.1375168
1133.20 0.1374794
1133.30 0.137442
1133.40 0.1374046
1133.50 0.1373673
1133.60 0.1373299
1133.70 0.1372926
1133.80 0.1372552
1133.90 0.1372179
1134.00 0.1371806
1134.10 0.1371433
1134.20 0.137106
1134.30 0.1370687
1134.40 0.1370315
1134.50 0.1369942
1134.60 0.136957
1134.70 0.1369197
1134.80 0.1368825
1134.90 0.1368453
1135.00 0.1368081
1135.10 0.1367709
1135.20 0.1367337
1135.30 0.1366966
1135.40 0.1366594
1135.50 0.1366223
1135.60 0.1365851
1135.70 0.136548
1135.80 0.1365109
1135.90 0.1364738
1136.00 0.1364367
1136.10 0.1363996
1136.20 0.1363625
1136.30 0.1363255
1136.40 0.1362884
1136.50 0.1362514
1136.60 0.1362144
1136.70 0.1361774
1136.80 0.1361404
1136.90 0.1361034
1137.00 0.1360664
1137.10 0.1360294
1137.20 0.1359925
1137.30 0.1359555
1137.40 0.1359186
1137.50 0.1358816
1137.60 0.1358447
1137.70 0.1358078
1137.80 0.1357709
1137.90 0.135734
1138.00 0.1356972
1138.10 0.1356603
1138.20 0.1356234
1138.30 0.1355866
1138.40 0.1355498
1138.50 0.135513
1138.60 0.1354762
1138.70 0.1354394
1138.80 0.1354026
1138.90 0.1353658
1139.00 0.135329
1139.10 0.1352923
1139.20 0.1352555
1139.30 0.1352182
1139.40 0.1351808
1139.50 0.1351435
1139.60 0.1351062
1139.70 0.1350689
1139.80 0.1350315
1139.90 0.1349942
1140.00 0.134957
1140.10 0.1349197
1140.20 0.1348824
1140.30 0.1348452
1140.40 0.1348079
1140.50 0.1347707
1140.60 0.1347335
1140.70 0.1346963
1140.80 0.1346591
1140.90 0.1346219
1141.00 0.1345847
1141.10 0.1345476
1141.20 0.1345104
1141.30 0.1344733
1141.40 0.1344361
1141.50 0.134399
1141.60 0.1343619
1141.70 0.1343248
1141.80 0.1342877
1141.90 0.1342507
1142.00 0.1342136
1142.10 0.1341765
1142.20 0.1341395
1142.30 0.1341025
1142.40 0.1340654
1142.50 0.1340284
1142.60 0.1339914
1142.70 0.1339544
1142.80 0.1339175
1142.90 0.1338805
1143.00 0.1338435
1143.10 0.1338066
1143.20 0.1337697
1143.30 0.1337327
1143.40 0.1336958
1143.50 0.1336589
1143.60 0.133622
1143.70 0.1335852
1143.80 0.1335483
1143.90 0.1335114
1144.00 0.1334746
1144.10 0.1334378
1144.20 0.1334009
1144.30 0.1333641
1144.40 0.1333273
1144.50 0.1332905
1144.60 0.1332537
1144.70 0.133217
1144.80 0.1331802
1144.90 0.1331435
1145.00 0.1331067
1145.10 0.13307
1145.20 0.1330333
1145.30 0.1329966
1145.40 0.1329599
1145.50 0.1329232
1145.60 0.1328865
1145.70 0.1328498
1145.80 0.1328132
1145.90 0.1327766
1146.00 0.1327399
1146.10 0.1327033
1146.20 0.1326667
1146.30 0.1326301
1146.40 0.1325935
1146.50 0.1325569
1146.60 0.1325204
1146.70 0.1324838
1146.80 0.1324473
1146.90 0.1324107
1147.00 0.1323742
1147.10 0.1323377
1147.20 0.1323012
1147.30 0.1322647
1147.40 0.1322282
1147.50 0.1321917
1147.60 0.1321553
1147.70 0.1321188
1147.80 0.1320824
1147.90 0.132046
1148.00 0.1320096
1148.10 0.1319732
1148.20 0.1319368
1148.30 0.1319004
1148.40 0.131864
1148.50 0.1318276
1148.60 0.1317913
1148.70 0.1317549
1148.80 0.1317186
1148.90 0.1316823
1149.00 0.131646
1149.10 0.1316097
1149.20 0.1315734
1149.30 0.1315371
1149.40 0.1315009
1149.50 0.1314646
1149.60 0.1314283
1149.70 0.1313921
1149.80 0.1313559
1149.90 0.1313197
1150.00 0.1312835
1150.10 0.1312473
1150.20 0.1312111
1150.30 0.1311749
1150.40 0.1311388
1150.50 0.1311026
1150.60 0.1310666
1150.70 0.131032
1150.80 0.1309975
1150.90 0.130963
1151.00 0.1309285
1151.10 0.130894
1151.20 0.1308595
1151.30 0.1308251
1151.40 0.1307906
1151.50 0.1307562
1151.60 0.1307217
1151.70 0.1306873
1151.80 0.1306529
1151.90 0.1306185
1152.00 0.1305841
1152.10 0.1305497
1152.20 0.1305153
1152.30 0.1304809
1152.40 0.1304466
1152.50 0.1304122
1152.60 0.1303779
1152.70 0.1303435
1152.80 0.1303092
1152.90 0.1302749
1153.00 0.1302406
1153.10 0.1302063
1153.20 0.130172
1153.30 0.1301378
1153.40 0.1301035
1153.50 0.1300692
1153.60 0.130035
1153.70 0.1300008
1153.80 0.1299665
1153.90 0.1299323
1154.00 0.1298981
1154.10 0.1298639
1154.20 0.1298298
1154.30 0.1297956
1154.40 0.1297614
1154.50 0.1297273
1154.60 0.1296931
1154.70 0.129659
1154.80 0.1296249
1154.90 0.1295908
1155.00 0.1295567
1155.10 0.1295226
1155.20 0.1294885
1155.30 0.1294544
1155.40 0.1294204
1155.50 0.1293863
1155.60 0.1293523
1155.70 0.1293182
1155.80 0.1292842
1155.90 0.1292502
1156.00 0.1292162
1156.10 0.1291822
1156.20 0.1291482
1156.30 0.1291142
1156.40 0.1290795
1156.50 0.1290441
1156.60 0.1290087
1156.70 0.1289733
1156.80 0.1289379
1156.90 0.1289026
1157.00 0.1288672
1157.10 0.1288319
1157.20 0.1287965
1157.30 0.1287612
1157.40 0.1287259
1157.50 0.1286906
1157.60 0.1286553
1157.70 0.12862
1157.80 0.1285848
1157.90 0.1285495
1158.00 0.1285142
1158.10 0.128479
1158.20 0.1284438
1158.30 0.1284085
1158.40 0.1283733
1158.50 0.1283381
1158.60 0.128303
1158.70 0.1282678
1158.80 0.1282326
1158.90 0.1281974
1159.00 0.1281623
1159.10 0.1281272
1159.20 0.128092
1159.30 0.1280569
1159.40 0.1280218
1159.50 0.1279867
1159.60 0.1279516
1159.70 0.1279166
1159.80 0.1278815
1159.90 0.1278464
1160.00 0.1278114
1160.10 0.1277763
1160.20 0.1277413
1160.30 0.1277063
1160.40 0.1276713
1160.50 0.1276363
1160.60 0.1276013
1160.70 0.1275663
1160.80 0.1275314
1160.90 0.1274964
1161.00 0.1274615
1161.10 0.1274265
1161.20 0.1273916
1161.30 0.1273567
1161.40 0.1273218
1161.50 0.1272869
1161.60 0.127252
1161.70 0.1272172
1161.80 0.1271823
1161.90 0.1271474
1162.00 0.1271126
1162.10 0.1270778
1162.20 0.1270445
1162.30 0.1270112
1162.40 0.126978
1162.50 0.1269447
1162.60 0.1269115
1162.70 0.1268783
1162.80 0.1268451
1162.90 0.1268119
1163.00 0.1267787
1163.10 0.1267455
1163.20 0.1267123
1163.30 0.1266791
1163.40 0.126646
1163.50 0.1266128
1163.60 0.1265797
1163.70 0.1265466
1163.80 0.1265134
1163.90 0.1264803
1164.00 0.1264472
1164.10 0.1264141
1164.20 0.1263811
1164.30 0.126348
1164.40 0.1263149
1164.50 0.1262819
1164.60 0.1262488
1164.70 0.1262158
1164.80 0.1261828
1164.90 0.1261497
1165.00 0.1261167
1165.10 0.1260837
1165.20 0.1260508
1165.30 0.1260178
1165.40 0.1259848
1165.50 0.1259519
1165.60 0.1259189
1165.70 0.125886
1165.80 0.125853
1165.90 0.1258201
1166.00 0.1257872
1166.10 0.1257543
1166.20 0.1257214
1166.30 0.1256885
1166.40 0.1256557
1166.50 0.1256228
1166.60 0.1255899
1166.70 0.1255571
1166.80 0.1255243
1166.90 0.1254914
1167.00 0.1254586
1167.10 0.1254258
1167.20 0.125393
1167.30 0.1253602
1167.40 0.1253274
1167.50 0.1252947
1167.60 0.1252619
1167.70 0.1252292
1167.80 0.1251964
1167.90 0.1251637
1168.00 0.1251297
1168.10 0.1250956
1168.20 0.1250615
1168.30 0.1250274
1168.40 0.1249933
1168.50 0.1249592
1168.60 0.1249251
1168.70 0.124891
1168.80 0.124857
1168.90 0.1248229
1169.00 0.1247889
1169.10 0.1247549
1169.20 0.1247209
1169.30 0.1246869
1169.40 0.1246529
1169.50 0.1246189
1169.60 0.1245849
1169.70 0.124551
1169.80 0.124517
1169.90 0.1244831
1170.00 0.1244491
1170.10 0.1244152
1170.20 0.1243813
1170.30 0.1243474
1170.40 0.1243135
1170.50 0.1242796
1170.60 0.1242457
1170.70 0.1242118
1170.80 0.124178
1170.90 0.1241441
1171.00 0.1241103
1171.10 0.1240765
1171.20 0.1240426
1171.30 0.1240088
1171.40 0.123975
1171.50 0.1239413
1171.60 0.1239075
1171.70 0.1238737
1171.80 0.1238399
1171.90 0.1238062
1172.00 0.1237724
1172.10 0.1237387
1172.20 0.123705
1172.30 0.1236713
1172.40 0.1236376
1172.50 0.1236039
1172.60 0.1235702
1172.70 0.1235365
1172.80 0.1235029
1172.90 0.1234692
1173.00 0.1234356
1173.10 0.1234019
1173.20 0.1233683
1173.30 0.1233347
1173.40 0.1233011
1173.50 0.1232675
1173.60 0.1232339
1173.70 0.1232003
1173.80 0.123168
1173.90 0.1231359
1174.00 0.1231039
1174.10 0.1230718
1174.20 0.1230398
1174.30 0.1230078
1174.40 0.1229758
1174.50 0.1229438
1174.60 0.1229118
1174.70 0.1228798
1174.80 0.1228479
1174.90 0.1228159
1175.00 0.1227839
1175.10 0.122752
1175.20 0.1227201
1175.30 0.1226881
1175.40 0.1226562
1175.50 0.1226243
1175.60 0.1225924
1175.70 0.1225605
1175.80 0.1225287
1175.90 0.1224968
1176.00 0.1224649
1176.10 0.1224331
1176.20 0.1224012
1176.30 0.1223694
1176.40 0.1223376
1176.50 0.1223058
1176.60 0.122274
1176.70 0.1222422
1176.80 0.1222104
1176.90 0.1221786
1177.00 0.1221468
1177.10 0.1221151
1177.20 0.1220833
1177.30 0.1220516
1177.40 0.1220198
1177.50 0.1219881
1177.60 0.1219564
1177.70 0.1219247
1177.80 0.121893
1177.90 0.1218613
1178.00 0.1218296
1178.10 0.121798
1178.20 0.1217663
1178.30 0.1217346
1178.40 0.121703
1178.50 0.1216714
1178.60 0.1216397
1178.70 0.1216081
1178.80 0.1215765
1178.90 0.1215449
1179.00 0.1215133
1179.10 0.1214817
1179.20 0.1214502
1179.30 0.1214186
1179.40 0.1213871
1179.50 0.1213555
1179.60 0.1213238
1179.70 0.1212909
1179.80 0.121258
1179.90 0.1212252
1180.00 0.1211923
1180.10 0.1211594
1180.20 0.1211266
1180.30 0.1210938
1180.40 0.1210609
1180.50 0.1210281
1180.60 0.1209953
1180.70 0.1209625
1180.80 0.1209297
1180.90 0.1208969
1181.00 0.1208641
1181.10 0.1208314
1181.20 0.1207986
1181.30 0.1207659
1181.40 0.1207331
1181.50 0.1207004
1181.60 0.1206677
1181.70 0.120635
1181.80 0.1206023
1181.90 0.1205696
1182.00 0.1205369
1182.10 0.1205043
1182.20 0.1204716
1182.30 0.1204389
1182.40 0.1204063
1182.50 0.1203737
1182.60 0.120341
1182.70 0.1203084
1182.80 0.1202758
1182.90 0.1202432
1183.00 0.1202106
1183.10 0.1201781
1183.20 0.1201455
1183.30 0.1201129
1183.40 0.1200804
1183.50 0.1200479
1183.60 0.1200153
1183.70 0.1199828
1183.80 0.1199503
1183.90 0.1199178
1184.00 0.1198853
1184.10 0.1198528
1184.20 0.1198203
1184.30 0.1197879
1184.40 0.1197554
1184.50 0.119723
1184.60 0.1196905
1184.70 0.1196581
1184.80 0.1196257
1184.90 0.1195933
1185.00 0.1195609
1185.10 0.1195285
1185.20 0.1194961
1185.30 0.1194637
1185.40 0.1194314
1185.50 0.1193996
1185.60 0.1193687
1185.70 0.1193379
1185.80 0.119307
1185.90 0.1192761
1186.00 0.1192453
1186.10 0.1192144
1186.20 0.1191836
1186.30 0.1191528
1186.40 0.119122
1186.50 0.1190912
1186.60 0.1190604
1186.70 0.1190296
1186.80 0.1189988
1186.90 0.118968
1187.00 0.1189373
1187.10 0.1189065
1187.20 0.1188758
1187.30 0.118845
1187.40 0.1188143
1187.50 0.1187836
1187.60 0.1187529
1187.70 0.1187222
1187.80 0.1186915
1187.90 0.1186608
1188.00 0.1186301
1188.10 0.1185995
1188.20 0.1185688
1188.30 0.1185382
1188.40 0.1185075
1188.50 0.1184769
1188.60 0.1184463
1188.70 0.1184157
1188.80 0.1183851
1188.90 0.1183545
1189.00 0.1183239
1189.10 0.1182933
1189.20 0.1182627
1189.30 0.1182322
1189.40 0.1182016
1189.50 0.1181711
1189.60 0.1181405
1189.70 0.11811
1189.80 0.1180795
1189.90 0.118049
1190.00 0.1180185
1190.10 0.117988
1190.20 0.1179575
1190.30 0.117927
1190.40 0.1178965
1190.50 0.1178661
1190.60 0.1178356
1190.70 0.1178052
1190.80 0.1177747
1190.90 0.1177443
1191.00 0.1177139
1191.10 0.1176835
1191.20 0.1176531
1191.30 0.1176227
1191.40 0.1175921
1191.50 0.1175604
1191.60 0.1175287
1191.70 0.117497
1191.80 0.1174654
1191.90 0.1174337
1192.00 0.117402
1192.10 0.1173704
1192.20 0.1173387
1192.30 0.1173071
1192.40 0.1172755
1192.50 0.1172439
1192.60 0.1172123
1192.70 0.1171807
1192.80 0.1171491
1192.90 0.1171175
1193.00 0.1170859
1193.10 0.1170544
1193.20 0.1170228
1193.30 0.1169913
1193.40 0.1169597
1193.50 0.1169282
1193.60 0.1168967
1193.70 0.1168652
1193.80 0.1168337
1193.90 0.1168022
1194.00 0.1167707
1194.10 0.1167393
1194.20 0.1167078
1194.30 0.1166763
1194.40 0.1166449
1194.50 0.1166135
1194.60 0.116582
1194.70 0.1165506
1194.80 0.1165192
1194.90 0.1164878
1195.00 0.1164564
1195.10 0.116425
1195.20 0.1163937
1195.30 0.1163623
1195.40 0.1163309
1195.50 0.1162996
1195.60 0.1162683
1195.70 0.1162369
1195.80 0.1162056
1195.90 0.1161743
1196.00 0.116143
1196.10 0.1161117
1196.20 0.1160804
1196.30 0.1160491
1196.40 0.1160179
1196.50 0.1159866
1196.60 0.1159554
1196.70 0.1159241
1196.80 0.1158929
1196.90 0.1158617
1197.00 0.1158305
1197.10 0.1157993
1197.20 0.1157681
1197.30 0.1157369
1197.40 0.1157069
1197.50 0.1156772
1197.60 0.1156475
1197.70 0.1156177
1197.80 0.115588
1197.90 0.1155583
1198.00 0.1155286
1198.10 0.1154989
1198.20 0.1154692
1198.30 0.1154395
1198.40 0.1154098
1198.50 0.1153802
1198.60 0.1153505
1198.70 0.1153209
1198.80 0.1152912
1198.90 0.1152616
1199.00 0.115232
1199.10 0.1152023
1199.20 0.1151727
1199.30 0.1151431
1199.40 0.1151135
1199.50 0.115084
1199.60 0.1150544
1199.70 0.1150248
1199.80 0.1149953
1199.90 0.1149657
1200.00 0.1149362
