# Version 2.1 - nm, norm@500 to 1, cut digits, bergeron_He_3500_90.dat_3500
# Wavelength(nm)  Flambda(ergs/cm^s/s/nm)
300.00 0.01947037
300.10 0.01954809
300.20 0.0196262
300.30 0.01970446
300.40 0.0197843
300.50 0.01986403
300.60 0.01994365
300.70 0.02002315
300.80 0.02010255
300.90 0.02018184
301.00 0.02026102
301.10 0.02034009
301.20 0.02041904
301.30 0.02049789
301.40 0.02057663
301.50 0.02065527
301.60 0.02073379
301.70 0.0208122
301.80 0.02089051
301.90 0.02096871
302.00 0.02104679
302.10 0.02112969
302.20 0.02121302
302.30 0.02129623
302.40 0.02137933
302.50 0.02146232
302.60 0.02154519
302.70 0.02162794
302.80 0.02171058
302.90 0.02179311
303.00 0.02187553
303.10 0.02195783
303.20 0.02204002
303.30 0.02212245
303.40 0.02220796
303.50 0.02229336
303.60 0.02237865
303.70 0.02246381
303.80 0.02254886
303.90 0.02263379
304.00 0.02271861
304.10 0.02280331
304.20 0.02288789
304.30 0.02297235
304.40 0.02305671
304.50 0.02314094
304.60 0.02323091
304.70 0.02332141
304.80 0.02341178
304.90 0.02350203
305.00 0.02359215
305.10 0.02368215
305.20 0.02377203
305.30 0.02386179
305.40 0.02395142
305.50 0.02404093
305.60 0.02413032
305.70 0.02421959
305.80 0.02430873
305.90 0.02439776
306.00 0.02448666
306.10 0.02457544
306.20 0.0246641
306.30 0.02475264
306.40 0.02484786
306.50 0.02494498
306.60 0.02504198
306.70 0.02513884
306.80 0.02523557
306.90 0.02533216
307.00 0.02542863
307.10 0.02552497
307.20 0.02562117
307.30 0.02571725
307.40 0.02581319
307.50 0.025909
307.60 0.02600469
307.70 0.02610024
307.80 0.02619567
307.90 0.02629096
308.00 0.02638613
308.10 0.02648116
308.20 0.02657607
308.30 0.02667085
308.40 0.0267655
308.50 0.02686002
308.60 0.02695442
308.70 0.02704868
308.80 0.02714275
308.90 0.02723649
309.00 0.0273371
309.10 0.02743758
309.20 0.02753793
309.30 0.02763813
309.40 0.02773851
309.50 0.02784063
309.60 0.02794261
309.70 0.02804445
309.80 0.02814615
309.90 0.02824772
310.00 0.02834914
310.10 0.02845044
310.20 0.02855159
310.30 0.02865261
310.40 0.02875461
310.50 0.02885768
310.60 0.0289606
310.70 0.02906339
310.80 0.02916604
310.90 0.02926855
311.00 0.02937552
311.10 0.02948234
311.20 0.02958901
311.30 0.0296958
311.40 0.02980316
311.50 0.02991038
311.60 0.03001745
311.70 0.03012438
311.80 0.03023117
311.90 0.03033781
312.00 0.03044431
312.10 0.03055067
312.20 0.03065919
312.30 0.03076457
312.40 0.03086677
312.50 0.03098243
312.60 0.03109146
312.70 0.03120035
312.80 0.03130909
312.90 0.03141969
313.00 0.03153234
313.10 0.03164483
313.20 0.03175717
313.30 0.03186959
313.40 0.0319825
313.50 0.03209526
313.60 0.03220788
313.70 0.03232034
313.80 0.03243265
313.90 0.03254482
314.00 0.03265683
314.10 0.03277098
314.20 0.03288498
314.30 0.03299883
314.40 0.03311253
314.50 0.03322608
314.60 0.03333947
314.70 0.03345272
314.80 0.03356689
314.90 0.03368758
315.00 0.033812
315.10 0.03392982
315.20 0.03404749
315.30 0.034165
315.40 0.03428235
315.50 0.03439954
315.60 0.03451658
315.70 0.03463571
315.80 0.03475467
315.90 0.03487348
316.00 0.03499213
316.10 0.03511062
316.20 0.03522896
316.30 0.03535383
316.40 0.03547185
316.50 0.03558971
316.60 0.0357141
316.70 0.03583831
316.80 0.03596237
316.90 0.03608626
317.00 0.03620999
317.10 0.03633355
317.20 0.03645695
317.30 0.03657912
317.40 0.03670152
317.50 0.03682487
317.60 0.03694806
317.70 0.03707109
317.80 0.03719395
317.90 0.03732737
318.00 0.03745142
318.10 0.03757997
318.20 0.03770835
318.30 0.03783657
318.40 0.03796461
318.50 0.03809248
318.60 0.03821505
318.70 0.03833798
318.80 0.03847523
318.90 0.03860375
319.00 0.03872934
319.10 0.03885621
319.20 0.0389843
319.30 0.03911615
319.40 0.03924783
319.50 0.03937933
319.60 0.03951566
319.70 0.03964681
319.80 0.0397778
319.90 0.03990861
320.00 0.04003985
320.10 0.04017157
320.20 0.04030804
320.30 0.04044413
320.40 0.04058185
320.50 0.04070635
320.60 0.04084371
320.70 0.04098089
320.80 0.04111789
320.90 0.04125471
321.00 0.04139136
321.10 0.04152783
321.20 0.04165541
321.30 0.04179545
321.40 0.04193531
321.50 0.04207498
321.60 0.04221448
321.70 0.04235379
321.80 0.04249314
321.90 0.04263254
322.00 0.04277033
322.10 0.04291063
322.20 0.04305075
322.30 0.04319068
322.40 0.04333043
322.50 0.04347001
322.60 0.0436094
322.70 0.04374861
322.80 0.0438915
322.90 0.04403758
323.00 0.04418347
323.10 0.04432918
323.20 0.04447469
323.30 0.04462002
323.40 0.04476515
323.50 0.0449101
323.60 0.04505487
323.70 0.04519944
323.80 0.04534383
323.90 0.04548803
324.00 0.04563379
324.10 0.04577937
324.20 0.04592476
324.30 0.0460715
324.40 0.04622163
324.50 0.0463707
324.60 0.04651957
324.70 0.04666826
324.80 0.04681675
324.90 0.04696505
325.00 0.04711315
325.10 0.04726107
325.20 0.04741007
325.30 0.04756159
325.40 0.04771292
325.50 0.04786446
325.60 0.0480163
325.70 0.04816795
325.80 0.0483194
325.90 0.04847268
326.00 0.04862795
326.10 0.04878302
326.20 0.0489379
326.30 0.04909383
326.40 0.04925317
326.50 0.04941235
326.60 0.04957132
326.70 0.04973009
326.80 0.04988866
326.90 0.05004702
327.00 0.05020518
327.10 0.05036314
327.20 0.05052089
327.30 0.05067844
327.40 0.05083579
327.50 0.05099294
327.60 0.05114989
327.70 0.05130663
327.80 0.05146318
327.90 0.05162222
328.00 0.05178388
328.10 0.05194522
328.20 0.05210636
328.30 0.05226729
328.40 0.05242802
328.50 0.05259112
328.60 0.05275462
328.70 0.05291792
328.80 0.05308201
328.90 0.05324877
329.00 0.05341531
329.10 0.05358164
329.20 0.05374775
329.30 0.05391366
329.40 0.05407935
329.50 0.05424484
329.60 0.05441011
329.70 0.05457517
329.80 0.05474002
329.90 0.05490467
330.00 0.05507207
330.10 0.05524288
330.20 0.05541347
330.30 0.05558385
330.40 0.05575542
330.50 0.05592828
330.60 0.05610093
330.70 0.05627336
330.80 0.05644557
330.90 0.05661756
331.00 0.05678933
331.10 0.05696088
331.20 0.05713222
331.30 0.05730334
331.40 0.05747424
331.50 0.05764715
331.60 0.05782256
331.70 0.05799775
331.80 0.05817677
331.90 0.05835574
332.00 0.05853447
332.10 0.05871299
332.20 0.05889127
332.30 0.05906933
332.40 0.05924717
332.50 0.05942478
332.60 0.05960217
332.70 0.05977933
332.80 0.05995627
332.90 0.06013299
333.00 0.06030948
333.10 0.06048892
333.20 0.060672
333.30 0.06085484
333.40 0.06103746
333.50 0.06121985
333.60 0.06140201
333.70 0.06158394
333.80 0.06176564
333.90 0.06194711
334.00 0.06212835
334.10 0.06231188
334.20 0.06249826
334.30 0.0626844
334.40 0.06287031
334.50 0.06305599
334.60 0.06324143
334.70 0.06342967
334.80 0.06362066
334.90 0.06381038
335.00 0.06399986
335.10 0.06418283
335.20 0.06437084
335.30 0.06456249
335.40 0.06475151
335.50 0.06493881
335.60 0.06513033
335.70 0.06532191
335.80 0.06551444
335.90 0.06570672
336.00 0.06589877
336.10 0.06609057
336.20 0.06628214
336.30 0.06647524
336.40 0.06667026
336.50 0.06686505
336.60 0.06705959
336.70 0.06725388
336.80 0.06744794
336.90 0.0676429
337.00 0.06783901
337.10 0.06803489
337.20 0.06823052
337.30 0.06842793
337.40 0.06862801
337.50 0.06882784
337.60 0.06902742
337.70 0.06922675
337.80 0.06942584
337.90 0.06962609
338.00 0.0698278
338.10 0.07002926
338.20 0.07023047
338.30 0.07043143
338.40 0.07063362
338.50 0.07083916
338.60 0.07104444
338.70 0.07124947
338.80 0.07145425
338.90 0.07165877
339.00 0.07186304
339.10 0.07206705
339.20 0.07227081
339.30 0.07247555
339.40 0.07268179
339.50 0.07289001
339.60 0.07310071
339.70 0.07331114
339.80 0.07352131
339.90 0.07373122
340.00 0.07394087
340.10 0.07415026
340.20 0.07435939
340.30 0.07456826
340.40 0.07477688
340.50 0.07498524
340.60 0.07519334
340.70 0.07540118
340.80 0.07561157
340.90 0.07582573
341.00 0.07604053
341.10 0.07625619
341.20 0.07647158
341.30 0.0766867
341.40 0.07690156
341.50 0.07711615
341.60 0.07733048
341.70 0.07754454
341.80 0.07775937
341.90 0.07797518
342.00 0.07819072
342.10 0.078406
342.20 0.07862599
342.30 0.07884752
342.40 0.07906566
342.50 0.07928556
342.60 0.07950519
342.70 0.07972455
342.80 0.07994364
342.90 0.08016246
343.00 0.08038327
343.10 0.08060656
343.20 0.08082957
343.30 0.08105231
343.40 0.08127666
343.50 0.08150344
343.60 0.08172994
343.70 0.08195617
343.80 0.08218211
343.90 0.08240778
344.00 0.08263357
344.10 0.08285963
344.20 0.08308541
344.30 0.08331092
344.40 0.0835373
344.50 0.08376508
344.60 0.08399488
344.70 0.08422773
344.80 0.08446001
344.90 0.08468132
345.00 0.08491333
345.10 0.08514505
345.20 0.08537648
345.30 0.08560764
345.40 0.08583851
345.50 0.08607395
345.60 0.08631291
345.70 0.08654853
345.80 0.08678387
345.90 0.08701891
346.00 0.08725367
346.10 0.08748815
346.20 0.08772462
346.30 0.08796411
346.40 0.0882033
346.50 0.0884422
346.60 0.08868081
346.70 0.08891913
346.80 0.08915716
346.90 0.0893949
347.00 0.08963235
347.10 0.08986952
347.20 0.09011015
347.30 0.0903559
347.40 0.09060135
347.50 0.09084651
347.60 0.09109137
347.70 0.09133593
347.80 0.09158019
347.90 0.09182416
348.00 0.09206783
348.10 0.09231121
348.20 0.0925543
348.30 0.09279709
348.40 0.09303958
348.50 0.09328178
348.60 0.09352369
348.70 0.09377017
348.80 0.09402026
348.90 0.09427346
349.00 0.09452635
349.10 0.09477893
349.20 0.09503122
349.30 0.09528319
349.40 0.09553487
349.50 0.09578624
349.60 0.0960373
349.70 0.09628807
349.80 0.09653853
349.90 0.09678869
350.00 0.09703855
350.10 0.0972881
350.20 0.09753736
350.30 0.0977905
350.40 0.09804934
350.50 0.09830788
350.60 0.09856611
350.70 0.09882402
350.80 0.09908163
350.90 0.09933893
351.00 0.09959591
351.10 0.09985259
351.20 0.100109
351.30 0.100365
351.40 0.1006232
351.50 0.1008854
351.60 0.1011473
351.70 0.1014088
351.80 0.10167
351.90 0.101931
352.00 0.1021916
352.10 0.1024519
352.20 0.1027188
352.30 0.1029866
352.40 0.1032549
352.50 0.1035229
352.60 0.1037905
352.70 0.1040578
352.80 0.1043248
352.90 0.1045915
353.00 0.1048579
353.10 0.1051239
353.20 0.1053896
353.30 0.105655
353.40 0.1059201
353.50 0.1061934
353.60 0.1064684
353.70 0.1067431
353.80 0.1070174
353.90 0.1072914
354.00 0.1075649
354.10 0.107838
354.20 0.1081109
354.30 0.1083834
354.40 0.1086556
354.50 0.1089274
354.60 0.1091989
354.70 0.1094702
354.80 0.1097431
354.90 0.1100185
355.00 0.1102937
355.10 0.1105685
355.20 0.1108429
355.30 0.1111249
355.40 0.1114065
355.50 0.1116878
355.60 0.1119688
355.70 0.1122629
355.80 0.1125628
355.90 0.1127996
356.00 0.1130548
356.10 0.1133421
356.20 0.1136291
356.30 0.1139157
356.40 0.114202
356.50 0.114488
356.60 0.1147736
356.70 0.1150589
356.80 0.1153438
356.90 0.1156284
357.00 0.1159127
357.10 0.1161967
357.20 0.1164803
357.30 0.1167635
357.40 0.1170558
357.50 0.1173643
357.60 0.1176724
357.70 0.1179801
357.80 0.1182468
357.90 0.1185132
358.00 0.1188015
358.10 0.119095
358.20 0.1193881
358.30 0.119681
358.40 0.1199734
358.50 0.1202656
358.60 0.1205574
358.70 0.1208488
358.80 0.1211399
358.90 0.1214307
359.00 0.1217263
359.10 0.1220308
359.20 0.1223387
359.30 0.122671
359.40 0.1230029
359.50 0.1232808
359.60 0.1235449
359.70 0.1238086
359.80 0.1241314
359.90 0.1244538
360.00 0.1247665
360.10 0.1250624
360.20 0.1253579
360.30 0.1256531
360.40 0.1259479
360.50 0.1262424
360.60 0.1266144
360.70 0.1269042
360.80 0.1271937
360.90 0.1274828
361.00 0.1277743
361.10 0.1281189
361.20 0.1284241
361.30 0.1287426
361.40 0.128989
361.50 0.129317
361.60 0.129618
361.70 0.1299555
361.80 0.1302748
361.90 0.1305621
362.00 0.130849
362.10 0.1311887
362.20 0.1315252
362.30 0.1318327
362.40 0.1321398
362.50 0.1324466
362.60 0.132753
362.70 0.1330948
362.80 0.1333942
362.90 0.1337251
363.00 0.1340557
363.10 0.134353
363.20 0.1346496
363.30 0.1349537
363.40 0.1352848
363.50 0.1356155
363.60 0.1359458
363.70 0.1362533
363.80 0.1366053
363.90 0.1369152
364.00 0.1372248
364.10 0.137534
364.20 0.1378428
364.30 0.1381577
364.40 0.1384738
364.50 0.1388048
364.60 0.13913
364.70 0.1394548
364.80 0.1397793
364.90 0.1401047
365.00 0.1404298
365.10 0.1408046
365.20 0.1411289
365.30 0.1414528
365.40 0.1418264
365.50 0.1421495
365.60 0.1424722
365.70 0.1428037
365.80 0.1431348
365.90 0.1434493
366.00 0.1437594
366.10 0.1440979
366.20 0.1444361
366.30 0.1447738
366.40 0.1451112
366.50 0.1454554
366.60 0.1457786
366.70 0.1461138
366.80 0.1464486
366.90 0.1467819
367.00 0.1471129
367.10 0.1474436
367.20 0.1477739
367.30 0.1481038
367.40 0.1484333
367.50 0.1487868
367.60 0.149146
367.70 0.1494817
367.80 0.1498169
367.90 0.1501518
368.00 0.1505019
368.10 0.1508115
368.20 0.1511559
368.30 0.1515006
368.40 0.1518448
368.50 0.1521886
368.60 0.1525321
368.70 0.1528751
368.80 0.1532178
368.90 0.1535966
369.00 0.1539662
369.10 0.1543169
369.20 0.1546304
369.30 0.1549719
369.40 0.155313
369.50 0.1556536
369.60 0.1560081
369.70 0.1563621
369.80 0.1567271
369.90 0.1570917
370.00 0.157456
370.10 0.157784
370.20 0.1581371
370.30 0.1584909
370.40 0.1588925
370.50 0.1591967
370.60 0.159598
370.70 0.1599063
370.80 0.1602559
370.90 0.1606051
371.00 0.1609582
371.10 0.161311
371.20 0.1617073
371.30 0.1621031
371.40 0.1624678
371.50 0.1628137
371.60 0.1631592
371.70 0.1635044
371.80 0.1638491
371.90 0.1641934
372.00 0.164593
372.10 0.1649878
372.20 0.16535
372.30 0.1657117
372.40 0.1660731
372.50 0.166434
372.60 0.1667945
372.70 0.1671546
372.80 0.1674961
372.90 0.1678372
373.00 0.1682301
373.10 0.168623
373.20 0.168965
373.30 0.1693067
373.40 0.1696959
373.50 0.1700847
373.60 0.170473
373.70 0.170861
373.80 0.1711826
373.90 0.1715397
374.00 0.1719264
374.10 0.1723126
374.20 0.1726984
374.30 0.1730837
374.40 0.1734686
374.50 0.1738484
374.60 0.1742099
374.70 0.1745708
374.80 0.1749313
374.90 0.1752914
375.00 0.1756737
375.10 0.1760557
375.20 0.1764371
375.30 0.1768182
375.40 0.1771988
375.50 0.177579
375.60 0.1779588
375.70 0.1783381
375.80 0.178717
375.90 0.1790955
376.00 0.1794688
376.10 0.1798678
376.20 0.1802666
376.30 0.180665
376.40 0.1810629
376.50 0.1814582
376.60 0.1818499
376.70 0.1822412
376.80 0.1826299
376.90 0.1830162
377.00 0.1834019
377.10 0.1837873
377.20 0.1841694
377.30 0.1845403
377.40 0.1849109
377.50 0.185281
377.60 0.185693
377.70 0.1861045
377.80 0.1865155
377.90 0.1869261
378.00 0.1873154
378.10 0.1877143
378.20 0.1881132
378.30 0.1885116
378.40 0.1889096
378.50 0.1893071
378.60 0.1897042
378.70 0.1901008
378.80 0.190497
378.90 0.1908882
379.00 0.1912706
379.10 0.1916539
379.20 0.1920368
379.30 0.1924325
379.40 0.1928409
379.50 0.1932488
379.60 0.1936711
379.70 0.1941072
379.80 0.1945129
379.90 0.1949181
380.00 0.1953229
380.10 0.1957272
380.20 0.1961311
380.30 0.1965345
380.40 0.1969375
380.50 0.19734
380.60 0.1977201
380.70 0.1981199
380.80 0.1985192
380.90 0.1989181
381.00 0.1993166
381.10 0.1997303
381.20 0.200141
381.30 0.2005621
381.40 0.2010123
381.50 0.2014256
381.60 0.2018474
381.70 0.2022637
381.80 0.2026134
381.90 0.2030578
382.00 0.2035018
382.10 0.2038994
382.20 0.2043149
382.30 0.2047117
382.40 0.205119
382.50 0.2055425
382.60 0.2059655
382.70 0.2064045
382.80 0.2068452
382.90 0.2072691
383.00 0.2076925
383.10 0.2081155
383.20 0.2085322
383.30 0.2089266
383.40 0.2093276
383.50 0.2097384
383.60 0.2102221
383.70 0.2106395
383.80 0.2110565
383.90 0.2114729
384.00 0.2118889
384.10 0.2123044
384.20 0.2127195
384.30 0.2131341
384.40 0.2135602
384.50 0.2139977
384.60 0.2144348
384.70 0.2148714
384.80 0.2153028
384.90 0.2157222
385.00 0.2161527
385.10 0.2165849
385.20 0.2170568
385.30 0.2174475
385.40 0.2178698
385.50 0.2183235
385.60 0.2187767
385.70 0.2192295
385.80 0.2196733
385.90 0.220085
386.00 0.2205202
386.10 0.2209774
386.20 0.2214172
386.30 0.2218566
386.40 0.2222396
386.50 0.2227153
386.60 0.2231097
386.70 0.223576
386.80 0.2240195
386.90 0.2244401
387.00 0.2249094
387.10 0.2253313
387.20 0.2257994
387.30 0.2262562
387.40 0.2266964
387.50 0.2271075
387.60 0.2275376
387.70 0.2279989
387.80 0.2284597
387.90 0.2289201
388.00 0.2293671
388.10 0.229803
388.20 0.2302064
388.30 0.2306796
388.40 0.2311522
388.50 0.231608
388.60 0.2320445
388.70 0.2324825
388.80 0.2329307
388.90 0.2333916
389.00 0.2338366
389.10 0.2342816
389.20 0.2347419
389.30 0.2351768
389.40 0.2356444
389.50 0.2361134
389.60 0.2365681
389.70 0.2369843
389.80 0.2374469
389.90 0.237909
390.00 0.2383706
390.10 0.2388317
390.20 0.2392922
390.30 0.2397526
390.40 0.2402128
390.50 0.2406725
390.60 0.2411317
390.70 0.2415904
390.80 0.2420547
390.90 0.2425246
391.00 0.2429841
391.10 0.2434544
391.20 0.2439236
391.30 0.2443926
391.40 0.2448647
391.50 0.2453362
391.60 0.2458073
391.70 0.2462778
391.80 0.2467478
391.90 0.2472054
392.00 0.2476624
392.10 0.248139
392.20 0.2486139
392.30 0.2490778
392.40 0.2495429
392.50 0.249964
392.60 0.2504879
392.70 0.2509244
392.80 0.2513886
392.90 0.2518736
393.00 0.2523446
393.10 0.2528285
393.20 0.2533253
393.30 0.2538021
393.40 0.2542671
393.50 0.2547205
393.60 0.2551803
393.70 0.2556648
393.80 0.2561783
393.90 0.256652
394.00 0.2571209
394.10 0.2575729
394.20 0.2580542
394.30 0.2585286
394.40 0.2590154
394.50 0.2595153
394.60 0.2600079
394.70 0.2604932
394.80 0.260952
394.90 0.2614118
395.00 0.2619229
395.10 0.2623973
395.20 0.2628804
395.30 0.2633891
395.40 0.2638971
395.50 0.2643684
395.60 0.2648257
395.70 0.2652971
395.80 0.2658078
395.90 0.266318
396.00 0.2668258
396.10 0.2673079
396.20 0.2677697
396.30 0.2682426
396.40 0.268746
396.50 0.2692489
396.60 0.2697512
396.70 0.2702299
396.80 0.2707152
396.90 0.2711934
397.00 0.2717106
397.10 0.2722103
397.20 0.2726724
397.30 0.2731689
397.40 0.2736709
397.50 0.2741725
397.60 0.2746727
397.70 0.2751647
397.80 0.2756561
397.90 0.2761564
398.00 0.2766814
398.10 0.2772059
398.20 0.2777108
398.30 0.2781937
398.40 0.2786768
398.50 0.2791852
398.60 0.2796829
398.70 0.2801916
398.80 0.2807037
398.90 0.281205
399.00 0.2816867
399.10 0.2821926
399.20 0.2827061
399.30 0.2832191
399.40 0.2837315
399.50 0.2842433
399.60 0.2847462
399.70 0.2852453
399.80 0.2857439
399.90 0.286242
400.00 0.2867416
400.10 0.2873056
400.20 0.2878132
400.30 0.2883222
400.40 0.2888381
400.50 0.2893422
400.60 0.2898515
400.70 0.2903736
400.80 0.2908648
400.90 0.2914275
401.00 0.2918868
401.10 0.2924117
401.20 0.2929473
401.30 0.2934856
401.40 0.2939996
401.50 0.2944988
401.60 0.2949992
401.70 0.2955541
401.80 0.2960519
401.90 0.2965491
402.00 0.2970623
402.10 0.2976386
402.20 0.2980913
402.30 0.298643
402.40 0.2991863
402.50 0.2996907
402.60 0.3002244
402.70 0.3007134
402.80 0.3012652
402.90 0.3017999
403.00 0.3023506
403.10 0.3028348
403.20 0.303364
403.30 0.3039098
403.40 0.3043989
403.50 0.3049485
403.60 0.3055143
403.70 0.306041
403.80 0.3065656
403.90 0.3070663
404.00 0.3075789
404.10 0.3081398
404.20 0.3086836
404.30 0.3092268
404.40 0.3097435
404.50 0.3102707
404.60 0.3107713
404.70 0.3113123
404.80 0.3118332
404.90 0.3123925
405.00 0.3129138
405.10 0.3134588
405.20 0.3140027
405.30 0.3145461
405.40 0.3150831
405.50 0.3156195
405.60 0.3161553
405.70 0.3166906
405.80 0.3172253
405.90 0.3177594
406.00 0.3183053
406.10 0.3188507
406.20 0.3193954
406.30 0.3199396
406.40 0.3204865
406.50 0.3210554
406.60 0.3215636
406.70 0.3221083
406.80 0.3226765
406.90 0.323172
407.00 0.3237242
407.10 0.3242758
407.20 0.3248267
407.30 0.3253771
407.40 0.325927
407.50 0.3264762
407.60 0.3270249
407.70 0.327573
407.80 0.3281205
407.90 0.3286673
408.00 0.3292091
408.10 0.3297705
408.20 0.3303347
408.30 0.3308789
408.40 0.3314225
408.50 0.3320121
408.60 0.3325707
408.70 0.3331288
408.80 0.333688
408.90 0.3342575
409.00 0.3348157
409.10 0.3353734
409.20 0.3359305
409.30 0.336487
409.40 0.3370425
409.50 0.3375829
409.60 0.3381227
409.70 0.3386681
409.80 0.3392373
409.90 0.3398047
410.00 0.3403346
410.10 0.340898
410.20 0.3414742
410.30 0.342053
410.40 0.3426281
410.50 0.3431926
410.60 0.3437566
410.70 0.3443216
410.80 0.3448924
410.90 0.3454626
411.00 0.346018
411.10 0.3465675
411.20 0.3471164
411.30 0.3476701
411.40 0.3482448
411.50 0.3488296
411.60 0.3494137
411.70 0.3499966
411.80 0.3505764
411.90 0.351124
412.00 0.3517025
412.10 0.3522608
412.20 0.3528578
412.30 0.3533858
412.40 0.3539547
412.50 0.3545357
412.60 0.3550938
412.70 0.3556791
412.80 0.3562707
412.90 0.356864
413.00 0.3574026
413.10 0.357992
413.20 0.3585808
413.30 0.359169
413.40 0.3597566
413.50 0.3603381
413.60 0.3608996
413.70 0.361468
413.80 0.3620358
413.90 0.362603
414.00 0.363179
414.10 0.363784
414.20 0.3643884
414.30 0.3649844
414.40 0.3655174
414.50 0.3661128
414.60 0.3667126
414.70 0.367275
414.80 0.3678462
414.90 0.3684463
415.00 0.3690458
415.10 0.3696447
415.20 0.3702365
415.30 0.3708076
415.40 0.371378
415.50 0.3719488
415.60 0.3725474
415.70 0.3731453
415.80 0.3737396
415.90 0.3743234
416.00 0.3749066
416.10 0.3754923
416.20 0.37609
416.30 0.3766871
416.40 0.3772836
416.50 0.3778793
416.60 0.3784689
416.70 0.379058
416.80 0.3796497
416.90 0.3802344
417.00 0.380848
417.10 0.3814852
417.20 0.3820712
417.30 0.3826572
417.40 0.383261
417.50 0.3838641
417.60 0.3844668
417.70 0.3850692
417.80 0.3856644
417.90 0.3862589
418.00 0.3868528
418.10 0.3874461
418.20 0.3880387
418.30 0.3886307
418.40 0.3892245
418.50 0.389835
418.60 0.3904448
418.70 0.3910541
418.80 0.3916626
418.90 0.3922706
419.00 0.3928779
419.10 0.3934846
419.20 0.3940907
419.30 0.3946966
419.40 0.3953149
419.50 0.3959326
419.60 0.3965477
419.70 0.3971544
419.80 0.3977605
419.90 0.3983679
420.00 0.3989807
420.10 0.3995929
420.20 0.4002044
420.30 0.4008154
420.40 0.4014257
420.50 0.4020353
420.60 0.4026444
420.70 0.4032528
420.80 0.4038606
420.90 0.4044683
421.00 0.4050909
421.10 0.405713
421.20 0.4063326
421.30 0.4069464
421.40 0.4075596
421.50 0.4081722
421.60 0.4087841
421.70 0.4093954
421.80 0.410006
421.90 0.4106176
422.00 0.4112335
422.10 0.4118525
422.20 0.4124864
422.30 0.4131195
422.40 0.413752
422.50 0.414382
422.60 0.4150114
422.70 0.4156401
422.80 0.4162682
422.90 0.4168956
423.00 0.4175224
423.10 0.4181486
423.20 0.4187741
423.30 0.419399
423.40 0.4200232
423.50 0.4206468
423.60 0.4212698
423.70 0.4218921
423.80 0.4225138
423.90 0.4231349
424.00 0.4237554
424.10 0.4243752
424.20 0.4249943
424.30 0.4256129
424.40 0.4262082
424.50 0.4268476
424.60 0.4274863
424.70 0.4281244
424.80 0.4287618
424.90 0.4293986
425.00 0.4300348
425.10 0.4306703
425.20 0.4313051
425.30 0.4319393
425.40 0.4325743
425.50 0.4332178
425.60 0.4338607
425.70 0.434503
425.80 0.4351446
425.90 0.4357855
426.00 0.4364258
426.10 0.4370654
426.20 0.4377044
426.30 0.4383428
426.40 0.4389805
426.50 0.4396175
426.60 0.440254
426.70 0.4408897
426.80 0.4415249
426.90 0.4421599
427.00 0.4428122
427.10 0.4434639
427.20 0.4441149
427.30 0.4447652
427.40 0.4454149
427.50 0.446064
427.60 0.4467123
427.70 0.4473601
427.80 0.4480071
427.90 0.4486536
428.00 0.4492993
428.10 0.4499444
428.20 0.4505889
428.30 0.4512327
428.40 0.4518759
428.50 0.4525184
428.60 0.4531602
428.70 0.4538015
428.80 0.4544435
428.90 0.4551046
429.00 0.455765
429.10 0.4564248
429.20 0.4570839
429.30 0.4577423
429.40 0.4584001
429.50 0.4590572
429.60 0.4597137
429.70 0.4603695
429.80 0.4610246
429.90 0.4616791
430.00 0.4623329
430.10 0.4629861
430.20 0.4636386
430.30 0.4642904
430.40 0.4649416
430.50 0.4655921
430.60 0.466242
430.70 0.4668912
430.80 0.4675398
430.90 0.4681877
431.00 0.468835
431.10 0.4694816
431.20 0.4701276
431.30 0.4707749
431.40 0.4714483
431.50 0.4721211
431.60 0.4727932
431.70 0.4734646
431.80 0.4741353
431.90 0.4748054
432.00 0.4754748
432.10 0.4761435
432.20 0.4768115
432.30 0.4774789
432.40 0.4781456
432.50 0.4788117
432.60 0.4794771
432.70 0.4801418
432.80 0.4808058
432.90 0.4814692
433.00 0.4821319
433.10 0.482794
433.20 0.4834554
433.30 0.4841169
433.40 0.4847879
433.50 0.4854583
433.60 0.486128
433.70 0.4867971
433.80 0.4874659
433.90 0.4881346
434.00 0.4888106
434.10 0.4894908
434.20 0.4901703
434.30 0.4908491
434.40 0.4915272
434.50 0.4922047
434.60 0.4928815
434.70 0.4935576
434.80 0.4942336
434.90 0.4949162
435.00 0.4955981
435.10 0.4962793
435.20 0.4969599
435.30 0.4976397
435.40 0.4983189
435.50 0.4989975
435.60 0.4996753
435.70 0.5003525
435.80 0.501029
435.90 0.5017048
436.00 0.5023799
436.10 0.5030544
436.20 0.5037282
436.30 0.5044072
436.40 0.5050923
436.50 0.5057726
436.60 0.5064522
436.70 0.5071311
436.80 0.5078094
436.90 0.508487
437.00 0.5091639
437.10 0.5098402
437.20 0.5105335
437.30 0.5112427
437.40 0.5119496
437.50 0.5126362
437.60 0.5133221
437.70 0.5140073
437.80 0.5146918
437.90 0.5153756
438.00 0.5160597
438.10 0.5167556
438.20 0.5174508
438.30 0.5181427
438.40 0.5188095
438.50 0.5195125
438.60 0.5202099
438.70 0.5208889
438.80 0.5215837
438.90 0.5222431
439.00 0.5229475
439.10 0.5236464
439.20 0.5243445
439.30 0.525042
439.40 0.5257388
439.50 0.5264349
439.60 0.5271265
439.70 0.5278142
439.80 0.5285271
439.90 0.5292184
440.00 0.529909
440.10 0.5305989
440.20 0.5312892
440.30 0.5319937
440.40 0.5326974
440.50 0.5334004
440.60 0.5341027
440.70 0.5348044
440.80 0.5355053
440.90 0.5362056
441.00 0.5369051
441.10 0.537604
441.20 0.5383016
441.30 0.5389909
441.40 0.5396923
441.50 0.5404085
441.60 0.5411241
441.70 0.54182
441.80 0.5425273
441.90 0.5432339
442.00 0.5439398
442.10 0.544645
442.20 0.5453495
442.30 0.5460533
442.40 0.5467527
442.50 0.5474467
442.60 0.5481401
442.70 0.5488469
442.80 0.5495736
442.90 0.5502941
443.00 0.5510074
443.10 0.5517123
443.20 0.5524172
443.30 0.553122
443.40 0.5538259
443.50 0.5545287
443.60 0.5552614
443.70 0.5559628
443.80 0.5566636
443.90 0.5573891
444.00 0.5581003
444.10 0.5587989
444.20 0.5595444
444.30 0.5602408
444.40 0.5609457
444.50 0.5616498
444.60 0.5623651
444.70 0.5630939
444.80 0.563813
444.90 0.5645231
445.00 0.5652325
445.10 0.5659411
445.20 0.5666568
445.30 0.567381
445.40 0.5681046
445.50 0.5688275
445.60 0.5695497
445.70 0.5702711
445.80 0.5709916
445.90 0.5717113
446.00 0.5724302
446.10 0.5731484
446.20 0.5738308
446.30 0.5745827
446.40 0.5753005
446.50 0.5760162
446.60 0.5767312
446.70 0.5774454
446.80 0.5781764
446.90 0.5789228
447.00 0.5796484
447.10 0.5803464
447.20 0.5810907
447.30 0.5818342
447.40 0.5825101
447.50 0.5832522
447.60 0.5839753
447.70 0.5846808
447.80 0.5854049
447.90 0.5861458
448.00 0.5868794
448.10 0.5876061
448.20 0.5883321
448.30 0.5890574
448.40 0.589782
448.50 0.5905059
448.60 0.5912383
448.70 0.5919787
448.80 0.5927175
448.90 0.5934453
449.00 0.5941724
449.10 0.5948988
449.20 0.5956245
449.30 0.5963679
449.40 0.5970912
449.50 0.5978137
449.60 0.5985438
449.70 0.5992808
449.80 0.6000171
449.90 0.6007527
450.00 0.6014876
450.10 0.6022217
450.20 0.6029552
450.30 0.6036879
450.40 0.6044314
450.50 0.6051742
450.60 0.6059162
450.70 0.6066575
450.80 0.6073982
450.90 0.6081381
451.00 0.6088765
451.10 0.6096143
451.20 0.6103387
451.30 0.6110686
451.40 0.6118159
451.50 0.6125624
451.60 0.6132755
451.70 0.6140206
451.80 0.614765
451.90 0.6154759
452.00 0.6162189
452.10 0.6169612
452.20 0.6177028
452.30 0.6184436
452.40 0.6191837
452.50 0.6199231
452.60 0.6206645
452.70 0.6214108
452.80 0.6221617
452.90 0.6229118
453.00 0.6236612
453.10 0.6244098
453.20 0.6251589
453.30 0.6259073
453.40 0.6266549
453.50 0.6274018
453.60 0.628148
453.70 0.6288935
453.80 0.6296361
453.90 0.6303754
454.00 0.631114
454.10 0.6318518
454.20 0.6326035
454.30 0.6333545
454.40 0.6341047
454.50 0.6348542
454.60 0.635603
454.70 0.6363542
454.80 0.6371076
454.90 0.6378603
455.00 0.6386122
455.10 0.6393635
455.20 0.640114
455.30 0.6408638
455.40 0.6416129
455.50 0.6423612
455.60 0.6431088
455.70 0.6438558
455.80 0.6445922
455.90 0.6453279
456.00 0.6460629
456.10 0.6468133
456.20 0.6476064
456.30 0.6483988
456.40 0.6491905
456.50 0.6499814
456.60 0.6507715
456.70 0.6515609
456.80 0.6523495
456.90 0.6531374
457.00 0.6539245
457.10 0.6547109
457.20 0.654939
457.30 0.6557274
457.40 0.656515
457.50 0.6573019
457.60 0.658088
457.70 0.6588733
457.80 0.6596579
457.90 0.6604418
458.00 0.6612249
458.10 0.6620073
458.20 0.6627889
458.30 0.6635698
458.40 0.6643499
458.50 0.6651293
458.60 0.6659079
458.70 0.6666392
458.80 0.6673507
458.90 0.6680615
459.00 0.6687716
459.10 0.6694811
459.20 0.6701898
459.30 0.6709605
459.40 0.6717304
459.50 0.6724996
459.60 0.6732681
459.70 0.6740358
459.80 0.6748028
459.90 0.675569
460.00 0.6763346
460.10 0.6770994
460.20 0.6778634
460.30 0.6786268
460.40 0.6793894
460.50 0.6801513
460.60 0.6809124
460.70 0.6817319
460.80 0.6825796
460.90 0.6834266
461.00 0.6842727
461.10 0.6851181
461.20 0.6858537
461.30 0.6865441
461.40 0.6872381
461.50 0.6879324
461.60 0.6886261
461.70 0.689319
461.80 0.6901184
461.90 0.690917
462.00 0.6917148
462.10 0.6925118
462.20 0.6933081
462.30 0.6941037
462.40 0.6948985
462.50 0.6956926
462.60 0.6964859
462.70 0.6972784
462.80 0.6980702
462.90 0.6988613
463.00 0.6996516
463.10 0.7004411
463.20 0.7012242
463.30 0.7020043
463.40 0.7027836
463.50 0.7035621
463.60 0.70434
463.70 0.7051171
463.80 0.7058934
463.90 0.706666
464.00 0.7074371
464.10 0.7082075
464.20 0.7089772
464.30 0.7097461
464.40 0.7105143
464.50 0.7112818
464.60 0.7120485
464.70 0.7128452
464.80 0.7136537
464.90 0.7144615
465.00 0.7152685
465.10 0.7160747
465.20 0.7168802
465.30 0.7176566
465.40 0.7184135
465.50 0.7191697
465.60 0.7199252
465.70 0.7206799
465.80 0.7214339
465.90 0.722181
466.00 0.7229258
466.10 0.7236699
466.20 0.7244133
466.30 0.7251947
466.40 0.7259911
466.50 0.7267868
466.60 0.7275817
466.70 0.7283759
466.80 0.7291694
466.90 0.729962
467.00 0.730754
467.10 0.7315452
467.20 0.7323356
467.30 0.7332984
467.40 0.7341205
467.50 0.7348891
467.60 0.7356571
467.70 0.7364243
467.80 0.7371907
467.90 0.7379486
468.00 0.7387025
468.10 0.7394558
468.20 0.7402083
468.30 0.7410684
468.40 0.7419719
468.50 0.7424814
468.60 0.7435976
468.70 0.7442846
468.80 0.7448691
468.90 0.7459538
469.00 0.7467963
469.10 0.7475571
469.20 0.7483023
469.30 0.7490468
469.40 0.7497906
469.50 0.7505241
469.60 0.751253
469.70 0.7519813
469.80 0.7527089
469.90 0.7535251
470.00 0.7545265
470.10 0.7553159
470.20 0.7561041
470.30 0.7568917
470.40 0.7576785
470.50 0.7584645
470.60 0.7592097
470.70 0.7599442
470.80 0.760678
470.90 0.7614111
471.00 0.7621844
471.10 0.7631227
471.20 0.7642692
471.30 0.764698
471.40 0.7654275
471.50 0.7663068
471.60 0.7669446
471.70 0.7678224
471.80 0.7686993
471.90 0.7695755
472.00 0.7704508
472.10 0.7713253
472.20 0.7720877
472.30 0.7728216
472.40 0.7735548
472.50 0.7742873
472.60 0.7750191
472.70 0.7759329
472.80 0.7767778
472.90 0.7775863
473.00 0.7783941
473.10 0.779201
473.20 0.7800073
473.30 0.7808128
473.40 0.7816175
473.50 0.7824215
473.60 0.7832247
473.70 0.7840272
473.80 0.7848557
473.90 0.78569
474.00 0.7865236
474.10 0.7873564
474.20 0.7880936
474.30 0.7887915
474.40 0.7894886
474.50 0.7901851
474.60 0.7908911
474.70 0.7916984
474.80 0.792505
474.90 0.7933108
475.00 0.7941159
475.10 0.7949202
475.20 0.7957238
475.30 0.7965266
475.40 0.7973559
475.50 0.7981911
475.60 0.7990256
475.70 0.7998593
475.80 0.8006923
475.90 0.8015244
476.00 0.8023559
476.10 0.8031865
476.20 0.8039759
476.30 0.8047482
476.40 0.8055197
476.50 0.8062905
476.60 0.8070606
476.70 0.8078299
476.80 0.8085986
476.90 0.8094177
477.00 0.8102488
477.10 0.8110792
477.20 0.8119088
477.30 0.8127376
477.40 0.8135657
477.50 0.814393
477.60 0.8152196
477.70 0.8160454
477.80 0.8168704
477.90 0.8176946
478.00 0.8185181
478.10 0.8193409
478.20 0.8201628
478.30 0.820984
478.40 0.8218045
478.50 0.8226242
478.60 0.8234431
478.70 0.8243045
478.80 0.8251828
478.90 0.8259855
479.00 0.8267688
479.10 0.8275514
479.20 0.8283333
479.30 0.8291145
479.40 0.8299136
479.50 0.830723
479.60 0.8315317
479.70 0.8323396
479.80 0.8331467
479.90 0.8339531
480.00 0.8347588
480.10 0.8355637
480.20 0.8363679
480.30 0.8371713
480.40 0.837974
480.50 0.838776
480.60 0.8395772
480.70 0.8403777
480.80 0.8411774
480.90 0.8419764
481.00 0.8427747
481.10 0.8435722
481.20 0.8443849
481.30 0.8451969
481.40 0.8460081
481.50 0.8468186
481.60 0.8476283
481.70 0.8484373
481.80 0.8492455
481.90 0.850053
482.00 0.8508598
482.10 0.8516658
482.20 0.852473
482.30 0.8533053
482.40 0.8541369
482.50 0.8549677
482.60 0.8557977
482.70 0.856627
482.80 0.8574555
482.90 0.8582833
483.00 0.8591103
483.10 0.8599365
483.20 0.860762
483.30 0.8615867
483.40 0.8624107
483.50 0.8632339
483.60 0.8640563
483.70 0.8648862
483.80 0.8657154
483.90 0.8665438
484.00 0.8673714
484.10 0.8681983
484.20 0.8690467
484.30 0.869904
484.40 0.8707605
484.50 0.8716163
484.60 0.8724712
484.70 0.8733239
484.80 0.8741564
484.90 0.8749882
485.00 0.8758192
485.10 0.8766495
485.20 0.8774789
485.30 0.8783077
485.40 0.8791357
485.50 0.8799629
485.60 0.8807893
485.70 0.8815685
485.80 0.882347
485.90 0.8831247
486.00 0.8839018
486.10 0.8846781
486.20 0.8854537
486.30 0.8862286
486.40 0.8870028
486.50 0.8877763
486.60 0.888549
486.70 0.8893289
486.80 0.8902124
486.90 0.891095
487.00 0.8919769
487.10 0.8928579
487.20 0.8936778
487.30 0.894497
487.40 0.8953154
487.50 0.896133
487.60 0.89695
487.70 0.8977661
487.80 0.8985816
487.90 0.8993963
488.00 0.9002102
488.10 0.9010234
488.20 0.9018384
488.30 0.9026868
488.40 0.9035344
488.50 0.9043813
488.60 0.9052274
488.70 0.9060727
488.80 0.9069375
488.90 0.9078016
489.00 0.9086421
489.10 0.9094232
489.20 0.9102036
489.30 0.9109834
489.40 0.9117624
489.50 0.9125406
489.60 0.9133182
489.70 0.9140951
489.80 0.9154724
489.90 0.9161985
490.00 0.9169239
490.10 0.9176487
490.20 0.9183728
490.30 0.9190962
490.40 0.9199735
490.50 0.9208499
490.60 0.9217256
490.70 0.9226004
490.80 0.9234083
490.90 0.9240702
491.00 0.9250816
491.10 0.926092
491.20 0.9268243
491.30 0.9275559
491.40 0.9283956
491.50 0.9295711
491.60 0.9301405
491.70 0.9309922
491.80 0.9318295
491.90 0.9324845
492.00 0.9333079
492.10 0.9343102
492.20 0.9353116
492.30 0.9357599
492.40 0.9367354
492.50 0.9373863
492.60 0.9381956
492.70 0.9390552
492.80 0.939914
492.90 0.940772
493.00 0.9416262
493.10 0.9424384
493.20 0.94325
493.30 0.9440607
493.40 0.9448708
493.50 0.9456801
493.60 0.9464816
493.70 0.9473274
493.80 0.9481725
493.90 0.9490546
494.00 0.949995
494.10 0.9509118
494.20 0.9517794
494.30 0.9526463
494.40 0.9535124
494.50 0.9543777
494.60 0.9552393
494.70 0.9560616
494.80 0.9568743
494.90 0.9576608
495.00 0.9584467
495.10 0.9592319
495.20 0.9600848
495.30 0.9609369
495.40 0.9617883
495.50 0.9626389
495.60 0.9634888
495.70 0.9643379
495.80 0.9651862
495.90 0.9660338
496.00 0.9668806
496.10 0.9677488
496.20 0.968656
496.30 0.9694671
496.40 0.9702775
496.50 0.9710872
496.60 0.9718961
496.70 0.972712
496.80 0.9735272
496.90 0.9743416
497.00 0.9751553
497.10 0.9759683
497.20 0.9767805
497.30 0.9776139
497.40 0.9785087
497.50 0.9794027
497.60 0.9802993
497.70 0.9811946
497.80 0.9819913
497.90 0.9827872
498.00 0.9835824
498.10 0.984377
498.20 0.9851707
498.30 0.9859638
498.40 0.9867562
498.50 0.9875478
498.60 0.9883387
498.70 0.9892876
498.80 0.9902357
498.90 0.9910076
499.00 0.9917788
499.10 0.9925493
499.20 0.9934319
499.30 0.9944581
499.40 0.9952124
499.50 0.9959661
499.60 0.9967191
499.70 0.9974777
499.80 0.9983192
499.90 0.99916
500.00 1
500.10 1.000839
500.20 1.001681
500.30 1.002528
500.40 1.003374
500.50 1.00422
500.60 1.005065
500.70 1.005909
500.80 1.006765
500.90 1.007649
501.00 1.008531
501.10 1.009413
501.20 1.010417
501.30 1.011079
501.40 1.011825
501.50 1.012752
501.60 1.013678
501.70 1.014603
501.80 1.015442
501.90 1.0161
502.00 1.016871
502.10 1.017881
502.20 1.018877
502.30 1.019684
502.40 1.020498
502.50 1.021328
502.60 1.022158
502.70 1.022987
502.80 1.023815
502.90 1.024643
503.00 1.02545
503.10 1.026214
503.20 1.026978
503.30 1.027741
503.40 1.028531
503.50 1.029397
503.60 1.030263
503.70 1.031128
503.80 1.03198
503.90 1.032742
504.00 1.033543
504.10 1.034431
504.20 1.035317
504.30 1.036202
504.40 1.037092
504.50 1.037996
504.60 1.038898
504.70 1.0398
504.80 1.040701
504.90 1.041076
505.00 1.041976
505.10 1.042875
505.20 1.043778
505.30 1.044695
505.40 1.045611
505.50 1.046527
505.60 1.047404
505.70 1.048198
505.80 1.048992
505.90 1.049786
506.00 1.050578
506.10 1.05137
506.20 1.052182
506.30 1.053051
506.40 1.053919
506.50 1.054787
506.60 1.055654
506.70 1.05652
506.80 1.057385
506.90 1.05825
507.00 1.059113
507.10 1.059881
507.20 1.060519
507.30 1.061368
507.40 1.062217
507.50 1.063065
507.60 1.063912
507.70 1.064759
507.80 1.065604
507.90 1.066449
508.00 1.067293
508.10 1.068137
508.20 1.06898
508.30 1.069822
508.40 1.070663
508.50 1.071503
508.60 1.072343
508.70 1.073182
508.80 1.073951
508.90 1.074736
509.00 1.075594
509.10 1.076453
509.20 1.077314
509.30 1.078175
509.40 1.079034
509.50 1.079893
509.60 1.080751
509.70 1.081609
509.80 1.082465
509.90 1.083321
510.00 1.084176
510.10 1.08503
510.20 1.085884
510.30 1.086735
510.40 1.087579
510.50 1.088423
510.60 1.089266
510.70 1.090109
510.80 1.09095
510.90 1.091791
511.00 1.092631
511.10 1.093471
511.20 1.094309
511.30 1.095147
511.40 1.095984
511.50 1.096821
511.60 1.097669
511.70 1.098543
511.80 1.099416
511.90 1.100289
512.00 1.101161
512.10 1.102032
512.20 1.102902
512.30 1.103765
512.40 1.104609
512.50 1.105451
512.60 1.106293
512.70 1.107135
512.80 1.107975
512.90 1.108815
513.00 1.109654
513.10 1.110492
513.20 1.11133
513.30 1.112167
513.40 1.113003
513.50 1.113838
513.60 1.114673
513.70 1.115507
513.80 1.11634
513.90 1.117172
514.00 1.118017
514.10 1.118862
514.20 1.119707
514.30 1.120552
514.40 1.121395
514.50 1.122238
514.60 1.12308
514.70 1.123921
514.80 1.124762
514.90 1.125601
515.00 1.126441
515.10 1.127279
515.20 1.128116
515.30 1.128953
515.40 1.129789
515.50 1.130625
515.60 1.131459
515.70 1.132293
515.80 1.133127
515.90 1.133959
516.00 1.134791
516.10 1.135622
516.20 1.136452
516.30 1.137282
516.40 1.13811
516.50 1.138942
516.60 1.139789
516.70 1.140636
516.80 1.141482
516.90 1.142327
517.00 1.143171
517.10 1.144015
517.20 1.144858
517.30 1.1457
517.40 1.146542
517.50 1.147382
517.60 1.148222
517.70 1.149062
517.80 1.1499
517.90 1.150738
518.00 1.151575
518.10 1.152411
518.20 1.153247
518.30 1.154082
518.40 1.154916
518.50 1.155749
518.60 1.156582
518.70 1.157414
518.80 1.158245
518.90 1.159076
519.00 1.159905
519.10 1.160751
519.20 1.161614
519.30 1.162476
519.40 1.163338
519.50 1.164199
519.60 1.165059
519.70 1.165918
519.80 1.166777
519.90 1.167635
520.00 1.168492
520.10 1.169348
520.20 1.170204
520.30 1.171059
520.40 1.171913
520.50 1.172766
520.60 1.173619
520.70 1.174471
520.80 1.175322
520.90 1.176173
521.00 1.177022
521.10 1.177871
521.20 1.178719
521.30 1.179567
521.40 1.180414
521.50 1.18126
521.60 1.182105
521.70 1.18295
521.80 1.183793
521.90 1.184636
522.00 1.185479
522.10 1.18632
522.20 1.187161
522.30 1.188001
522.40 1.188841
522.50 1.189679
522.60 1.190517
522.70 1.191355
522.80 1.192191
522.90 1.193027
523.00 1.193862
523.10 1.194696
523.20 1.19553
523.30 1.196363
523.40 1.197195
523.50 1.198026
523.60 1.198857
523.70 1.199687
523.80 1.200516
523.90 1.201345
524.00 1.202173
524.10 1.203
524.20 1.203826
524.30 1.204666
524.40 1.205515
524.50 1.206364
524.60 1.207212
524.70 1.20806
524.80 1.208906
524.90 1.209752
525.00 1.210597
525.10 1.211442
525.20 1.212285
525.30 1.213128
525.40 1.213971
525.50 1.214812
525.60 1.215653
525.70 1.216493
525.80 1.217332
525.90 1.218171
526.00 1.219009
526.10 1.219846
526.20 1.220683
526.30 1.221518
526.40 1.222353
526.50 1.223188
526.60 1.224021
526.70 1.224854
526.80 1.225686
526.90 1.226517
527.00 1.227348
527.10 1.228178
527.20 1.229007
527.30 1.229836
527.40 1.230664
527.50 1.231491
527.60 1.232317
527.70 1.233143
527.80 1.233968
527.90 1.234792
528.00 1.235615
528.10 1.236438
528.20 1.23726
528.30 1.238082
528.40 1.238902
528.50 1.239722
528.60 1.240542
528.70 1.24136
528.80 1.242178
528.90 1.242995
529.00 1.243812
529.10 1.244627
529.20 1.245442
529.30 1.246257
529.40 1.24707
529.50 1.247888
529.60 1.248732
529.70 1.249575
529.80 1.250418
529.90 1.25126
530.00 1.252101
530.10 1.252942
530.20 1.253781
530.30 1.25462
530.40 1.255459
530.50 1.256296
530.60 1.257133
530.70 1.25797
530.80 1.258805
530.90 1.25964
531.00 1.260474
531.10 1.261307
531.20 1.26214
531.30 1.262972
531.40 1.263803
531.50 1.264633
531.60 1.265463
531.70 1.266292
531.80 1.26712
531.90 1.267948
532.00 1.268775
532.10 1.269601
532.20 1.270439
532.30 1.271282
532.40 1.272124
532.50 1.272966
532.60 1.273807
532.70 1.274647
532.80 1.275486
532.90 1.276325
533.00 1.277163
533.10 1.278001
533.20 1.278837
533.30 1.279673
533.40 1.280508
533.50 1.281343
533.60 1.282177
533.70 1.28301
533.80 1.283842
533.90 1.284673
534.00 1.285504
534.10 1.286335
534.20 1.287164
534.30 1.287993
534.40 1.288821
534.50 1.289648
534.60 1.290475
534.70 1.291301
534.80 1.29213
534.90 1.292976
535.00 1.293822
535.10 1.294667
535.20 1.295511
535.30 1.296354
535.40 1.297197
535.50 1.298039
535.60 1.29888
535.70 1.299721
535.80 1.30056
535.90 1.3014
536.00 1.302238
536.10 1.303076
536.20 1.303912
536.30 1.304749
536.40 1.305584
536.50 1.306419
536.60 1.307253
536.70 1.308086
536.80 1.308919
536.90 1.309751
537.00 1.310582
537.10 1.311413
537.20 1.312243
537.30 1.313072
537.40 1.3139
537.50 1.314728
537.60 1.315555
537.70 1.316381
537.80 1.317207
537.90 1.318031
538.00 1.318856
538.10 1.319679
538.20 1.320502
538.30 1.321324
538.40 1.322145
538.50 1.322966
538.60 1.323786
538.70 1.324605
538.80 1.325424
538.90 1.326241
539.00 1.327059
539.10 1.327875
539.20 1.328691
539.30 1.329506
539.40 1.33032
539.50 1.331134
539.60 1.331947
539.70 1.332759
539.80 1.333571
539.90 1.334382
540.00 1.335192
540.10 1.336001
540.20 1.336831
540.30 1.337669
540.40 1.338506
540.50 1.339342
540.60 1.340178
540.70 1.341013
540.80 1.341847
540.90 1.342681
541.00 1.343514
541.10 1.344346
541.20 1.345177
541.30 1.346008
541.40 1.346838
541.50 1.347667
541.60 1.348496
541.70 1.349324
541.80 1.350151
541.90 1.350977
542.00 1.351803
542.10 1.352628
542.20 1.353452
542.30 1.354276
542.40 1.355099
542.50 1.355921
542.60 1.356743
542.70 1.357564
542.80 1.358384
542.90 1.359203
543.00 1.360022
543.10 1.36084
543.20 1.361658
543.30 1.362474
543.40 1.36329
543.50 1.364106
543.60 1.36492
543.70 1.365734
543.80 1.366547
543.90 1.36736
544.00 1.368172
544.10 1.368983
544.20 1.369793
544.30 1.370603
544.40 1.371412
544.50 1.372221
544.60 1.373028
544.70 1.373835
544.80 1.374642
544.90 1.375448
545.00 1.376252
545.10 1.377057
545.20 1.37786
545.30 1.378663
545.40 1.379466
545.50 1.380267
545.60 1.381088
545.70 1.381916
545.80 1.382743
545.90 1.38357
546.00 1.384396
546.10 1.385222
546.20 1.386047
546.30 1.386871
546.40 1.387694
546.50 1.388517
546.60 1.389339
546.70 1.39016
546.80 1.39098
546.90 1.3918
547.00 1.392619
547.10 1.393438
547.20 1.394256
547.30 1.395073
547.40 1.395889
547.50 1.396705
547.60 1.39752
547.70 1.398334
547.80 1.399148
547.90 1.399961
548.00 1.400773
548.10 1.401585
548.20 1.402396
548.30 1.403206
548.40 1.404016
548.50 1.404826
548.60 1.405634
548.70 1.406442
548.80 1.40725
548.90 1.408056
549.00 1.408862
549.10 1.409667
549.20 1.410472
549.30 1.411276
549.40 1.412079
549.50 1.412882
549.60 1.413683
549.70 1.414485
549.80 1.415285
549.90 1.416085
550.00 1.416884
550.10 1.417683
550.20 1.41848
550.30 1.419278
550.40 1.420074
550.50 1.42087
550.60 1.421665
550.70 1.422459
550.80 1.423253
550.90 1.424046
551.00 1.424844
551.10 1.42567
551.20 1.426496
551.30 1.427321
551.40 1.428146
551.50 1.428969
551.60 1.429792
551.70 1.430614
551.80 1.431436
551.90 1.432257
552.00 1.433077
552.10 1.433897
552.20 1.434716
552.30 1.435534
552.40 1.436351
552.50 1.437168
552.60 1.437984
552.70 1.4388
552.80 1.439614
552.90 1.440428
553.00 1.441242
553.10 1.442054
553.20 1.442866
553.30 1.443678
553.40 1.444488
553.50 1.445298
553.60 1.446108
553.70 1.446916
553.80 1.447724
553.90 1.448531
554.00 1.449338
554.10 1.450144
554.20 1.450949
554.30 1.451754
554.40 1.452558
554.50 1.453361
554.60 1.454163
554.70 1.454965
554.80 1.455766
554.90 1.456567
555.00 1.457367
555.10 1.458166
555.20 1.458964
555.30 1.459762
555.40 1.460559
555.50 1.461356
555.60 1.462152
555.70 1.462947
555.80 1.463741
555.90 1.464535
556.00 1.465328
556.10 1.466121
556.20 1.466912
556.30 1.467704
556.40 1.468494
556.50 1.469285
556.60 1.470092
556.70 1.470899
556.80 1.471704
556.90 1.47251
557.00 1.473314
557.10 1.474118
557.20 1.474921
557.30 1.475724
557.40 1.476525
557.50 1.477327
557.60 1.478127
557.70 1.478927
557.80 1.479726
557.90 1.480524
558.00 1.481322
558.10 1.482119
558.20 1.482916
558.30 1.483712
558.40 1.484507
558.50 1.485301
558.60 1.486095
558.70 1.486888
558.80 1.487681
558.90 1.488473
559.00 1.489264
559.10 1.490054
559.20 1.490844
559.30 1.491633
559.40 1.492422
559.50 1.49321
559.60 1.493997
559.70 1.494783
559.80 1.495569
559.90 1.496355
560.00 1.497139
560.10 1.497923
560.20 1.498706
560.30 1.499489
560.40 1.500271
560.50 1.501052
560.60 1.501833
560.70 1.502613
560.80 1.503392
560.90 1.504171
561.00 1.504949
561.10 1.505726
561.20 1.506503
561.30 1.507279
561.40 1.508055
561.50 1.508829
561.60 1.509603
561.70 1.510377
561.80 1.51115
561.90 1.511922
562.00 1.512694
562.10 1.513471
562.20 1.514258
562.30 1.515045
562.40 1.515831
562.50 1.516616
562.60 1.5174
562.70 1.518184
562.80 1.518967
562.90 1.51975
563.00 1.520532
563.10 1.521313
563.20 1.522094
563.30 1.522874
563.40 1.523653
563.50 1.524432
563.60 1.52521
563.70 1.525987
563.80 1.526764
563.90 1.52754
564.00 1.528315
564.10 1.52909
564.20 1.529864
564.30 1.530638
564.40 1.53141
564.50 1.532183
564.60 1.532954
564.70 1.533725
564.80 1.534495
564.90 1.535269
565.00 1.536054
565.10 1.536837
565.20 1.537621
565.30 1.538403
565.40 1.539185
565.50 1.539966
565.60 1.540746
565.70 1.541526
565.80 1.542305
565.90 1.543084
566.00 1.543862
566.10 1.544639
566.20 1.545416
566.30 1.546191
566.40 1.546967
566.50 1.547741
566.60 1.548515
566.70 1.549289
566.80 1.550061
566.90 1.550834
567.00 1.551605
567.10 1.552376
567.20 1.553146
567.30 1.553916
567.40 1.554684
567.50 1.555453
567.60 1.55622
567.70 1.556992
567.80 1.557781
567.90 1.55857
568.00 1.559359
568.10 1.560146
568.20 1.560934
568.30 1.56172
568.40 1.562506
568.50 1.563291
568.60 1.564075
568.70 1.564859
568.80 1.565642
568.90 1.566425
569.00 1.567207
569.10 1.567988
569.20 1.568769
569.30 1.569549
569.40 1.570328
569.50 1.571107
569.60 1.571885
569.70 1.572662
569.80 1.573439
569.90 1.574215
570.00 1.57499
570.10 1.575765
570.20 1.576539
570.30 1.577313
570.40 1.578086
570.50 1.578858
570.60 1.57963
570.70 1.580401
570.80 1.581171
570.90 1.581941
571.00 1.58271
571.10 1.583478
571.20 1.584246
571.30 1.585013
571.40 1.58578
571.50 1.586546
571.60 1.587311
571.70 1.588075
571.80 1.588839
571.90 1.589603
572.00 1.590366
572.10 1.591128
572.20 1.591889
572.30 1.59265
572.40 1.59341
572.50 1.59417
572.60 1.594929
572.70 1.595687
572.80 1.596445
572.90 1.597202
573.00 1.597958
573.10 1.598714
573.20 1.599469
573.30 1.600224
573.40 1.600984
573.50 1.601752
573.60 1.602519
573.70 1.603285
573.80 1.604051
573.90 1.604816
574.00 1.605581
574.10 1.606344
574.20 1.607108
574.30 1.60787
574.40 1.608632
574.50 1.609394
574.60 1.610154
574.70 1.610915
574.80 1.611674
574.90 1.612433
575.00 1.613191
575.10 1.613949
575.20 1.614706
575.30 1.615462
575.40 1.616218
575.50 1.616973
575.60 1.617728
575.70 1.618481
575.80 1.619235
575.90 1.619987
576.00 1.620739
576.10 1.621491
576.20 1.622242
576.30 1.622992
576.40 1.623741
576.50 1.62449
576.60 1.625239
576.70 1.625986
576.80 1.626733
576.90 1.62748
577.00 1.628226
577.10 1.628971
577.20 1.629715
577.30 1.630459
577.40 1.631203
577.50 1.631946
577.60 1.63269
577.70 1.633436
577.80 1.634181
577.90 1.634926
578.00 1.63567
578.10 1.636414
578.20 1.637157
578.30 1.637899
578.40 1.638641
578.50 1.639382
578.60 1.640123
578.70 1.640863
578.80 1.641602
578.90 1.642341
579.00 1.643079
579.10 1.643818
579.20 1.644565
579.30 1.645311
579.40 1.646057
579.50 1.646802
579.60 1.647547
579.70 1.648291
579.80 1.649034
579.90 1.649777
580.00 1.650519
580.10 1.651262
580.20 1.652004
580.30 1.652746
580.40 1.653488
580.50 1.654229
580.60 1.654969
580.70 1.655709
580.80 1.656448
580.90 1.657186
581.00 1.657924
581.10 1.658661
581.20 1.659398
581.30 1.660134
581.40 1.66087
581.50 1.661604
581.60 1.662339
581.70 1.663072
581.80 1.663805
581.90 1.664538
582.00 1.66527
582.10 1.666006
582.20 1.66675
582.30 1.667493
582.40 1.668235
582.50 1.668977
582.60 1.669719
582.70 1.670459
582.80 1.6712
582.90 1.671939
583.00 1.672678
583.10 1.673416
583.20 1.674154
583.30 1.674891
583.40 1.675628
583.50 1.676364
583.60 1.677099
583.70 1.677834
583.80 1.678568
583.90 1.679301
584.00 1.680034
584.10 1.680766
584.20 1.681498
584.30 1.682229
584.40 1.68296
584.50 1.68369
584.60 1.684419
584.70 1.685148
584.80 1.685876
584.90 1.68662
585.00 1.68744
585.10 1.688259
585.20 1.689038
585.30 1.68975
585.40 1.690461
585.50 1.691172
585.60 1.691882
585.70 1.692592
585.80 1.693301
585.90 1.69401
586.00 1.694717
586.10 1.695425
586.20 1.696137
586.30 1.696856
586.40 1.697574
586.50 1.698292
586.60 1.69901
586.70 1.699726
586.80 1.700467
586.90 1.701248
587.00 1.702027
587.10 1.702807
587.20 1.703585
587.30 1.704363
587.40 1.704993
587.50 1.705769
587.60 1.706536
587.70 1.707108
587.80 1.707856
587.90 1.70863
588.00 1.709367
588.10 1.710043
588.20 1.710719
588.30 1.711394
588.40 1.712081
588.50 1.712787
588.60 1.713492
588.70 1.714197
588.80 1.714902
588.90 1.715606
589.00 1.716319
589.10 1.717047
589.20 1.717775
589.30 1.718503
589.40 1.719229
589.50 1.719955
589.60 1.720681
589.70 1.721406
589.80 1.72213
589.90 1.722854
590.00 1.723574
590.10 1.724289
590.20 1.725004
590.30 1.725718
590.40 1.726432
590.50 1.727145
590.60 1.727857
590.70 1.728569
590.80 1.729277
590.90 1.729983
591.00 1.730689
591.10 1.731394
591.20 1.732098
591.30 1.732802
591.40 1.733505
591.50 1.734208
591.60 1.734915
591.70 1.735628
591.80 1.73634
591.90 1.737053
592.00 1.737764
592.10 1.738475
592.20 1.739185
592.30 1.739895
592.40 1.740604
592.50 1.741313
592.60 1.742021
592.70 1.742728
592.80 1.743435
592.90 1.744142
593.00 1.744847
593.10 1.74556
593.20 1.746283
593.30 1.747006
593.40 1.747729
593.50 1.74845
593.60 1.749172
593.70 1.749892
593.80 1.750612
593.90 1.751332
594.00 1.752051
594.10 1.752769
594.20 1.753487
594.30 1.754204
594.40 1.754921
594.50 1.755637
594.60 1.756352
594.70 1.757067
594.80 1.757781
594.90 1.758495
595.00 1.759208
595.10 1.759917
595.20 1.76062
595.30 1.761322
595.40 1.762024
595.50 1.762726
595.60 1.763426
595.70 1.764127
595.80 1.764826
595.90 1.765525
596.00 1.766224
596.10 1.766922
596.20 1.767619
596.30 1.768316
596.40 1.769012
596.50 1.769707
596.60 1.770403
596.70 1.771106
596.80 1.771813
596.90 1.772521
597.00 1.773227
597.10 1.773933
597.20 1.774639
597.30 1.775344
597.40 1.776048
597.50 1.776752
597.60 1.777453
597.70 1.778152
597.80 1.77885
597.90 1.779547
598.00 1.780244
598.10 1.78094
598.20 1.781636
598.30 1.782331
598.40 1.783025
598.50 1.783719
598.60 1.784413
598.70 1.785106
598.80 1.785798
598.90 1.78649
599.00 1.787181
599.10 1.787872
599.20 1.788562
599.30 1.789251
599.40 1.789939
599.50 1.790627
599.60 1.791314
599.70 1.792
599.80 1.792686
599.90 1.793371
600.00 1.794056
600.10 1.79474
600.20 1.795424
600.30 1.796107
600.40 1.796789
600.50 1.797471
600.60 1.798153
600.70 1.798834
600.80 1.799514
600.90 1.800194
601.00 1.800873
601.10 1.801552
601.20 1.80223
601.30 1.802907
601.40 1.803584
601.50 1.80426
601.60 1.804935
601.70 1.80561
601.80 1.806284
601.90 1.806957
602.00 1.80763
602.10 1.808303
602.20 1.808975
602.30 1.809646
602.40 1.810317
602.50 1.810988
602.60 1.811657
602.70 1.812376
602.80 1.813097
602.90 1.813761
603.00 1.814425
603.10 1.815088
603.20 1.81575
603.30 1.816412
603.40 1.817074
603.50 1.817735
603.60 1.818395
603.70 1.819055
603.80 1.819714
603.90 1.820373
604.00 1.821031
604.10 1.821689
604.20 1.822346
604.30 1.823003
604.40 1.823659
604.50 1.824338
604.60 1.825016
604.70 1.825693
604.80 1.82637
604.90 1.827046
605.00 1.827722
605.10 1.828397
605.20 1.829072
605.30 1.829746
605.40 1.830419
605.50 1.831092
605.60 1.831765
605.70 1.832437
605.80 1.833108
605.90 1.833779
606.00 1.834449
606.10 1.835119
606.20 1.835788
606.30 1.836457
606.40 1.837125
606.50 1.837792
606.60 1.838459
606.70 1.839308
606.80 1.839974
606.90 1.840639
607.00 1.841122
607.10 1.841786
607.20 1.84245
607.30 1.843114
607.40 1.843776
607.50 1.844438
607.60 1.8451
607.70 1.845761
607.80 1.846422
607.90 1.847082
608.00 1.847741
608.10 1.8484
608.20 1.849059
608.30 1.849794
608.40 1.850528
608.50 1.851261
608.60 1.851994
608.70 1.852677
608.80 1.853338
608.90 1.853998
609.00 1.854657
609.10 1.855316
609.20 1.855975
609.30 1.856627
609.40 1.857279
609.50 1.857931
609.60 1.858582
609.70 1.859232
609.80 1.859882
609.90 1.860531
610.00 1.86118
610.10 1.861828
610.20 1.862476
610.30 1.863123
610.40 1.86377
610.50 1.864416
610.60 1.865062
610.70 1.865707
610.80 1.866352
610.90 1.867008
611.00 1.867663
611.10 1.868318
611.20 1.868973
611.30 1.869627
611.40 1.87028
611.50 1.870933
611.60 1.871585
611.70 1.872237
611.80 1.872888
611.90 1.873539
612.00 1.874189
612.10 1.874839
612.20 1.875488
612.30 1.876137
612.40 1.876791
612.50 1.877445
612.60 1.878098
612.70 1.87875
612.80 1.879402
612.90 1.880054
613.00 1.880705
613.10 1.881355
613.20 1.882005
613.30 1.882654
613.40 1.883303
613.50 1.883951
613.60 1.884599
613.70 1.885246
613.80 1.885893
613.90 1.886539
614.00 1.887185
614.10 1.88783
614.20 1.888475
614.30 1.889119
614.40 1.889694
614.50 1.890269
614.60 1.890844
614.70 1.891418
614.80 1.892048
614.90 1.89269
615.00 1.893332
615.10 1.893973
615.20 1.894613
615.30 1.895253
615.40 1.895893
615.50 1.896532
615.60 1.89717
615.70 1.897808
615.80 1.898446
615.90 1.899082
616.00 1.899719
616.10 1.900355
616.20 1.90099
616.30 1.901625
616.40 1.902259
616.50 1.902893
616.60 1.903526
616.70 1.904159
616.80 1.904791
616.90 1.905437
617.00 1.906082
617.10 1.906727
617.20 1.907372
617.30 1.908015
617.40 1.908659
617.50 1.909301
617.60 1.909943
617.70 1.910585
617.80 1.911226
617.90 1.911867
618.00 1.912507
618.10 1.913147
618.20 1.913786
618.30 1.914424
618.40 1.915062
618.50 1.9157
618.60 1.916337
618.70 1.916974
618.80 1.91761
618.90 1.918245
619.00 1.91888
619.10 1.919515
619.20 1.920149
619.30 1.920782
619.40 1.921415
619.50 1.922048
619.60 1.922679
619.70 1.923311
619.80 1.923942
619.90 1.924572
620.00 1.925202
620.10 1.925832
620.20 1.926461
620.30 1.927089
620.40 1.927717
620.50 1.928344
620.60 1.928971
620.70 1.929597
620.80 1.930223
620.90 1.930849
621.00 1.931473
621.10 1.932097
621.20 1.932721
621.30 1.933344
621.40 1.933966
621.50 1.934588
621.60 1.93521
621.70 1.935831
621.80 1.936451
621.90 1.937071
622.00 1.937691
622.10 1.93831
622.20 1.938929
622.30 1.939547
622.40 1.940164
622.50 1.940781
622.60 1.941398
622.70 1.942014
622.80 1.942629
622.90 1.943244
623.00 1.943859
623.10 1.944473
623.20 1.945087
623.30 1.9457
623.40 1.946312
623.50 1.946924
623.60 1.947536
623.70 1.948147
623.80 1.948758
623.90 1.949368
624.00 1.949978
624.10 1.950587
624.20 1.951195
624.30 1.951804
624.40 1.952411
624.50 1.953018
624.60 1.953625
624.70 1.954231
624.80 1.954837
624.90 1.955442
625.00 1.956047
625.10 1.956651
625.20 1.957255
625.30 1.957858
625.40 1.958461
625.50 1.959064
625.60 1.959665
625.70 1.960267
625.80 1.960868
625.90 1.961468
626.00 1.962068
626.10 1.962667
626.20 1.963266
626.30 1.963865
626.40 1.964463
626.50 1.96506
626.60 1.965657
626.70 1.966254
626.80 1.96685
626.90 1.967445
627.00 1.96804
627.10 1.968636
627.20 1.969235
627.30 1.969833
627.40 1.97043
627.50 1.971027
627.60 1.971624
627.70 1.97222
627.80 1.972816
627.90 1.973411
628.00 1.974005
628.10 1.9746
628.20 1.975193
628.30 1.975786
628.40 1.976379
628.50 1.976972
628.60 1.977563
628.70 1.978155
628.80 1.978745
628.90 1.979336
629.00 1.979926
629.10 1.980515
629.20 1.981104
629.30 1.981693
629.40 1.982281
629.50 1.982868
629.60 1.983455
629.70 1.984042
629.80 1.984628
629.90 1.985213
630.00 1.985799
630.10 1.986383
630.20 1.986968
630.30 1.987561
630.40 1.988154
630.50 1.988748
630.60 1.98934
630.70 1.989932
630.80 1.990524
630.90 1.991115
631.00 1.991706
631.10 1.992297
631.20 1.992886
631.30 1.993476
631.40 1.994065
631.50 1.994653
631.60 1.995241
631.70 1.995828
631.80 1.996415
631.90 1.997002
632.00 1.997588
632.10 1.998174
632.20 1.998759
632.30 1.999343
632.40 1.999927
632.50 2.000511
632.60 2.001094
632.70 2.001677
632.80 2.002259
632.90 2.002841
633.00 2.003423
633.10 2.004003
633.20 2.004584
633.30 2.005164
633.40 2.005743
633.50 2.006321
633.60 2.006898
633.70 2.007476
633.80 2.008052
633.90 2.008628
634.00 2.009204
634.10 2.009779
634.20 2.010354
634.30 2.010929
634.40 2.011503
634.50 2.012076
634.60 2.012649
634.70 2.013221
634.80 2.013794
634.90 2.014365
635.00 2.014936
635.10 2.015507
635.20 2.016077
635.30 2.016647
635.40 2.017216
635.50 2.017785
635.60 2.018353
635.70 2.018921
635.80 2.019489
635.90 2.020056
636.00 2.020622
636.10 2.021188
636.20 2.021754
636.30 2.022319
636.40 2.022884
636.50 2.023448
636.60 2.024021
636.70 2.024595
636.80 2.025168
636.90 2.02574
637.00 2.026312
637.10 2.026884
637.20 2.027455
637.30 2.028025
637.40 2.028596
637.50 2.029165
637.60 2.029735
637.70 2.030303
637.80 2.030872
637.90 2.03144
638.00 2.032007
638.10 2.032574
638.20 2.033141
638.30 2.033707
638.40 2.034272
638.50 2.034838
638.60 2.035402
638.70 2.035967
638.80 2.03653
638.90 2.037094
639.00 2.037657
639.10 2.038219
639.20 2.038781
639.30 2.039343
639.40 2.039904
639.50 2.040465
639.60 2.041025
639.70 2.041584
639.80 2.042142
639.90 2.042699
640.00 2.043255
640.10 2.043812
640.20 2.044367
640.30 2.044923
640.40 2.045478
640.50 2.046032
640.60 2.046586
640.70 2.047139
640.80 2.047693
640.90 2.048245
641.00 2.048797
641.10 2.049349
641.20 2.0499
641.30 2.050451
641.40 2.051002
641.50 2.051552
641.60 2.052101
641.70 2.05265
641.80 2.053199
641.90 2.053747
642.00 2.054295
642.10 2.054842
642.20 2.055389
642.30 2.055936
642.40 2.056482
642.50 2.057027
642.60 2.057572
642.70 2.058117
642.80 2.058661
642.90 2.059205
643.00 2.059749
643.10 2.060292
643.20 2.060835
643.30 2.061378
643.40 2.06192
643.50 2.062461
643.60 2.063002
643.70 2.063543
643.80 2.064083
643.90 2.064623
644.00 2.065162
644.10 2.065701
644.20 2.06624
644.30 2.066778
644.40 2.067316
644.50 2.067853
644.60 2.06839
644.70 2.068926
644.80 2.069462
644.90 2.069997
645.00 2.070532
645.10 2.071067
645.20 2.071601
645.30 2.072135
645.40 2.072668
645.50 2.073201
645.60 2.073734
645.70 2.074266
645.80 2.074797
645.90 2.075328
646.00 2.075859
646.10 2.076392
646.20 2.07693
646.30 2.077467
646.40 2.078005
646.50 2.078542
646.60 2.079078
646.70 2.079614
646.80 2.080149
646.90 2.080685
647.00 2.081219
647.10 2.081754
647.20 2.082287
647.30 2.082821
647.40 2.083354
647.50 2.083886
647.60 2.084418
647.70 2.08495
647.80 2.085481
647.90 2.086012
648.00 2.086542
648.10 2.087072
648.20 2.087602
648.30 2.088131
648.40 2.08866
648.50 2.089188
648.60 2.089716
648.70 2.090243
648.80 2.09077
648.90 2.091297
649.00 2.091823
649.10 2.092349
649.20 2.092874
649.30 2.093399
649.40 2.093923
649.50 2.094447
649.60 2.09497
649.70 2.095493
649.80 2.096015
649.90 2.096537
650.00 2.097059
650.10 2.09758
650.20 2.0981
650.30 2.098621
650.40 2.099141
650.50 2.09966
650.60 2.100179
650.70 2.100698
650.80 2.101216
650.90 2.101734
651.00 2.102251
651.10 2.102768
651.20 2.103285
651.30 2.103801
651.40 2.104316
651.50 2.104832
651.60 2.105347
651.70 2.105861
651.80 2.106375
651.90 2.106889
652.00 2.107402
652.10 2.107915
652.20 2.108427
652.30 2.108939
652.40 2.109451
652.50 2.109962
652.60 2.110475
652.70 2.11099
652.80 2.111504
652.90 2.112018
653.00 2.112531
653.10 2.113044
653.20 2.113557
653.30 2.114069
653.40 2.114581
653.50 2.115092
653.60 2.115603
653.70 2.116113
653.80 2.116623
653.90 2.117133
654.00 2.117642
654.10 2.118151
654.20 2.118659
654.30 2.119167
654.40 2.119675
654.50 2.120182
654.60 2.120689
654.70 2.121195
654.80 2.121701
654.90 2.122207
655.00 2.122712
655.10 2.123217
655.20 2.123721
655.30 2.124225
655.40 2.124729
655.50 2.125232
655.60 2.125734
655.70 2.126237
655.80 2.126724
655.90 2.127211
656.00 2.127698
656.10 2.128184
656.20 2.12867
656.30 2.129155
656.40 2.12964
656.50 2.130125
656.60 2.130609
656.70 2.131093
656.80 2.131576
656.90 2.132059
657.00 2.132542
657.10 2.133024
657.20 2.133506
657.30 2.133987
657.40 2.134468
657.50 2.134949
657.60 2.135429
657.70 2.135909
657.80 2.136605
657.90 2.137128
658.00 2.13762
658.10 2.138112
658.20 2.138604
658.30 2.139095
658.40 2.139586
658.50 2.140077
658.60 2.140567
658.70 2.141056
658.80 2.141546
658.90 2.142035
659.00 2.142523
659.10 2.142996
659.20 2.143446
659.30 2.143928
659.40 2.144409
659.50 2.14489
659.60 2.145371
659.70 2.145852
659.80 2.146332
659.90 2.146811
660.00 2.14729
660.10 2.147769
660.20 2.148248
660.30 2.148726
660.40 2.149212
660.50 2.1497
660.60 2.150187
660.70 2.150674
660.80 2.151161
660.90 2.151643
661.00 2.152126
661.10 2.152608
661.20 2.153089
661.30 2.15357
661.40 2.154051
661.50 2.154531
661.60 2.155011
661.70 2.155491
661.80 2.15597
661.90 2.156446
662.00 2.156921
662.10 2.157396
662.20 2.15787
662.30 2.158344
662.40 2.158776
662.50 2.159268
662.60 2.159759
662.70 2.16025
662.80 2.160741
662.90 2.161307
663.00 2.161873
663.10 2.162286
663.20 2.162851
663.30 2.163264
663.40 2.163524
663.50 2.164088
663.60 2.164651
663.70 2.165129
663.80 2.165607
663.90 2.166101
664.00 2.166597
664.10 2.167057
664.20 2.167517
664.30 2.167976
664.40 2.168435
664.50 2.168894
664.60 2.169352
664.70 2.169814
664.80 2.170276
664.90 2.170738
665.00 2.171199
665.10 2.17166
665.20 2.17212
665.30 2.17258
665.40 2.17304
665.50 2.173525
665.60 2.174015
665.70 2.174508
665.80 2.174962
665.90 2.175414
666.00 2.175867
666.10 2.176319
666.20 2.176771
666.30 2.177222
666.40 2.177673
666.50 2.178124
666.60 2.178575
666.70 2.179026
666.80 2.179476
666.90 2.179926
667.00 2.180375
667.10 2.180854
667.20 2.181338
667.30 2.181802
667.40 2.182266
667.50 2.182801
667.60 2.183349
667.70 2.183813
667.80 2.184303
667.90 2.184643
668.00 2.185188
668.10 2.185651
668.20 2.186046
668.30 2.186504
668.40 2.186973
668.50 2.187442
668.60 2.18791
668.70 2.188322
668.80 2.188771
668.90 2.189221
669.00 2.189669
669.10 2.190118
669.20 2.190566
669.30 2.191016
669.40 2.191466
669.50 2.191916
669.60 2.192366
669.70 2.192815
669.80 2.193264
669.90 2.193713
670.00 2.194161
670.10 2.194609
670.20 2.195057
670.30 2.195507
670.40 2.195957
670.50 2.196407
670.60 2.196856
670.70 2.197305
670.80 2.19777
670.90 2.198235
671.00 2.1987
671.10 2.199164
671.20 2.199627
671.30 2.200091
671.40 2.200554
671.50 2.201016
671.60 2.201478
671.70 2.20194
671.80 2.202402
671.90 2.202836
672.00 2.203264
672.10 2.203692
672.20 2.20412
672.30 2.204548
672.40 2.204985
672.50 2.205423
672.60 2.205861
672.70 2.206298
672.80 2.206734
672.90 2.207171
673.00 2.207607
673.10 2.208042
673.20 2.208478
673.30 2.208848
673.40 2.209287
673.50 2.209737
673.60 2.210187
673.70 2.210637
673.80 2.211086
673.90 2.211535
674.00 2.211984
674.10 2.212432
674.20 2.21288
674.30 2.213327
674.40 2.213774
674.50 2.214221
674.60 2.214667
674.70 2.215113
674.80 2.215559
674.90 2.216004
675.00 2.216449
675.10 2.216893
675.20 2.217338
675.30 2.217781
675.40 2.218207
675.50 2.21863
675.60 2.219052
675.70 2.219474
675.80 2.219896
675.90 2.220317
676.00 2.220738
676.10 2.221158
676.20 2.221578
676.30 2.221998
676.40 2.222418
676.50 2.222837
676.60 2.223255
676.70 2.223674
676.80 2.224092
676.90 2.22451
677.00 2.224927
677.10 2.225344
677.20 2.225761
677.30 2.226177
677.40 2.226593
677.50 2.227009
677.60 2.227424
677.70 2.227839
677.80 2.228254
677.90 2.228694
678.00 2.229139
678.10 2.229584
678.20 2.230028
678.30 2.230471
678.40 2.230915
678.50 2.231358
678.60 2.231801
678.70 2.232243
678.80 2.232685
678.90 2.233126
679.00 2.233568
679.10 2.233993
679.20 2.234412
679.30 2.234831
679.40 2.235249
679.50 2.235667
679.60 2.236084
679.70 2.236501
679.80 2.236918
679.90 2.237335
680.00 2.237751
680.10 2.238167
680.20 2.238582
680.30 2.238997
680.40 2.239412
680.50 2.239826
680.60 2.24024
680.70 2.240654
680.80 2.241067
680.90 2.24148
681.00 2.241893
681.10 2.242306
681.20 2.242718
681.30 2.243129
681.40 2.243541
681.50 2.243952
681.60 2.244362
681.70 2.244773
681.80 2.245183
681.90 2.245592
682.00 2.246002
682.10 2.246411
682.20 2.246819
682.30 2.247228
682.40 2.247636
682.50 2.248043
682.60 2.248451
682.70 2.248858
682.80 2.249264
682.90 2.249671
683.00 2.250077
683.10 2.250482
683.20 2.250888
683.30 2.251293
683.40 2.251697
683.50 2.252102
683.60 2.252506
683.70 2.252909
683.80 2.253313
683.90 2.253716
684.00 2.254118
684.10 2.254521
684.20 2.254923
684.30 2.255324
684.40 2.255726
684.50 2.256127
684.60 2.256527
684.70 2.256928
684.80 2.257328
684.90 2.257727
685.00 2.258127
685.10 2.258526
685.20 2.258924
685.30 2.259323
685.40 2.259721
685.50 2.260118
685.60 2.260516
685.70 2.260913
685.80 2.26131
685.90 2.261704
686.00 2.262098
686.10 2.262491
686.20 2.262884
686.30 2.263277
686.40 2.26367
686.50 2.264062
686.60 2.264453
686.70 2.264845
686.80 2.265236
686.90 2.265627
687.00 2.266017
687.10 2.266408
687.20 2.266797
687.30 2.267187
687.40 2.267576
687.50 2.267965
687.60 2.268354
687.70 2.268742
687.80 2.26913
687.90 2.269517
688.00 2.269905
688.10 2.270292
688.20 2.270678
688.30 2.271065
688.40 2.27145
688.50 2.271836
688.60 2.272222
688.70 2.272607
688.80 2.272991
688.90 2.273376
689.00 2.27376
689.10 2.274143
689.20 2.274527
689.30 2.27491
689.40 2.275293
689.50 2.275675
689.60 2.276057
689.70 2.276439
689.80 2.276821
689.90 2.277202
690.00 2.277583
690.10 2.277964
690.20 2.278344
690.30 2.278724
690.40 2.279103
690.50 2.279483
690.60 2.279862
690.70 2.28024
690.80 2.280619
690.90 2.280997
691.00 2.281375
691.10 2.281752
691.20 2.282129
691.30 2.282506
691.40 2.282882
691.50 2.283259
691.60 2.283634
691.70 2.28401
691.80 2.284385
691.90 2.28476
692.00 2.285135
692.10 2.285509
692.20 2.285883
692.30 2.286257
692.40 2.28663
692.50 2.287003
692.60 2.287376
692.70 2.287748
692.80 2.288119
692.90 2.288489
693.00 2.288859
693.10 2.289229
693.20 2.289598
693.30 2.289967
693.40 2.290336
693.50 2.290705
693.60 2.291073
693.70 2.291441
693.80 2.291808
693.90 2.292176
694.00 2.292543
694.10 2.292909
694.20 2.293276
694.30 2.293642
694.40 2.294007
694.50 2.294373
694.60 2.294738
694.70 2.295103
694.80 2.295467
694.90 2.295831
695.00 2.296195
695.10 2.296559
695.20 2.296922
695.30 2.297285
695.40 2.297648
695.50 2.29801
695.60 2.298372
695.70 2.298734
695.80 2.299096
695.90 2.299457
696.00 2.299818
696.10 2.300178
696.20 2.300539
696.30 2.300899
696.40 2.301258
696.50 2.301618
696.60 2.301982
696.70 2.302346
696.80 2.302711
696.90 2.303075
697.00 2.303439
697.10 2.303803
697.20 2.304166
697.30 2.304529
697.40 2.304892
697.50 2.305254
697.60 2.305616
697.70 2.305978
697.80 2.30634
697.90 2.306701
698.00 2.307062
698.10 2.307422
698.20 2.307783
698.30 2.308143
698.40 2.308502
698.50 2.308862
698.60 2.309221
698.70 2.30958
698.80 2.309938
698.90 2.310297
699.00 2.310654
699.10 2.310982
699.20 2.311302
699.30 2.311621
699.40 2.311941
699.50 2.31226
699.60 2.312579
699.70 2.31294
699.80 2.313304
699.90 2.313667
700.00 2.314029
700.10 2.314392
700.20 2.314754
700.30 2.315116
700.40 2.315477
700.50 2.315838
700.60 2.316199
700.70 2.31656
700.80 2.31692
700.90 2.31728
701.00 2.31764
701.10 2.317981
701.20 2.318318
701.30 2.318654
701.40 2.318991
701.50 2.319327
701.60 2.319663
701.70 2.319998
701.80 2.320333
701.90 2.320668
702.00 2.321003
702.10 2.321337
702.20 2.321671
702.30 2.322005
702.40 2.322338
702.50 2.322671
702.60 2.323009
702.70 2.323347
702.80 2.323685
702.90 2.324023
703.00 2.32436
703.10 2.324697
703.20 2.325034
703.30 2.325371
703.40 2.325707
703.50 2.326043
703.60 2.326379
703.70 2.326714
703.80 2.327049
703.90 2.327384
704.00 2.327719
704.10 2.328053
704.20 2.328389
704.30 2.328727
704.40 2.329063
704.50 2.3294
704.60 2.329736
704.70 2.330072
704.80 2.330408
704.90 2.330743
705.00 2.331078
705.10 2.331413
705.20 2.33174
705.30 2.332065
705.40 2.33239
705.50 2.332715
705.60 2.333039
705.70 2.333364
705.80 2.333706
705.90 2.334052
706.00 2.334397
706.10 2.334743
706.20 2.335033
706.30 2.335311
706.40 2.335646
706.50 2.335987
706.60 2.336462
706.70 2.336739
706.80 2.336964
706.90 2.33724
707.00 2.33757
707.10 2.337913
707.20 2.338255
707.30 2.338597
707.40 2.338921
707.50 2.33924
707.60 2.339559
707.70 2.339878
707.80 2.340196
707.90 2.340514
708.00 2.340839
708.10 2.341166
708.20 2.341492
708.30 2.341818
708.40 2.342143
708.50 2.342468
708.60 2.342793
708.70 2.343118
708.80 2.343443
708.90 2.343767
709.00 2.344088
709.10 2.344408
709.20 2.344728
709.30 2.345048
709.40 2.345368
709.50 2.345687
709.60 2.346006
709.70 2.346325
709.80 2.346643
709.90 2.346961
710.00 2.347279
710.10 2.347597
710.20 2.347914
710.30 2.348231
710.40 2.348548
710.50 2.348864
710.60 2.349176
710.70 2.349486
710.80 2.349797
710.90 2.350107
711.00 2.350416
711.10 2.350726
711.20 2.351035
711.30 2.351344
711.40 2.351652
711.50 2.35196
711.60 2.352268
711.70 2.352576
711.80 2.352884
711.90 2.353191
712.00 2.353498
712.10 2.353812
712.20 2.354128
712.30 2.354443
712.40 2.354758
712.50 2.355073
712.60 2.355388
712.70 2.355702
712.80 2.356016
712.90 2.35633
713.00 2.356643
713.10 2.356956
713.20 2.357269
713.30 2.357582
713.40 2.357894
713.50 2.358206
713.60 2.358518
713.70 2.358829
713.80 2.359138
713.90 2.359447
714.00 2.359756
714.10 2.360053
714.20 2.360347
714.30 2.360641
714.40 2.360934
714.50 2.361228
714.60 2.361521
714.70 2.361814
714.80 2.362106
714.90 2.362399
715.00 2.362691
715.10 2.362983
715.20 2.363274
715.30 2.363566
715.40 2.363857
715.50 2.364147
715.60 2.364438
715.70 2.364728
715.80 2.365018
715.90 2.365308
716.00 2.365598
716.10 2.365887
716.20 2.366176
716.30 2.366465
716.40 2.366753
716.50 2.367042
716.60 2.367332
716.70 2.367623
716.80 2.367913
716.90 2.368203
717.00 2.368493
717.10 2.368783
717.20 2.369072
717.30 2.369361
717.40 2.36965
717.50 2.369938
717.60 2.370227
717.70 2.370515
717.80 2.370803
717.90 2.37109
718.00 2.371378
718.10 2.371665
718.20 2.371957
718.30 2.372251
718.40 2.372544
718.50 2.372838
718.60 2.373131
718.70 2.373424
718.80 2.373717
718.90 2.37401
719.00 2.374302
719.10 2.374594
719.20 2.374886
719.30 2.375178
719.40 2.375469
719.50 2.37576
719.60 2.376051
719.70 2.376341
719.80 2.376632
719.90 2.376922
720.00 2.377211
720.10 2.377501
720.20 2.37779
720.30 2.378079
720.40 2.378368
720.50 2.378657
720.60 2.378945
720.70 2.379211
720.80 2.379465
720.90 2.379747
721.00 2.380028
721.10 2.38031
721.20 2.380592
721.30 2.380873
721.40 2.381154
721.50 2.381434
721.60 2.381715
721.70 2.381995
721.80 2.382275
721.90 2.382555
722.00 2.382834
722.10 2.383113
722.20 2.383392
722.30 2.383671
722.40 2.38395
722.50 2.384228
722.60 2.384506
722.70 2.384785
722.80 2.385064
722.90 2.385343
723.00 2.385622
723.10 2.385901
723.20 2.386179
723.30 2.386457
723.40 2.386735
723.50 2.387013
723.60 2.38729
723.70 2.387568
723.80 2.387845
723.90 2.388121
724.00 2.388398
724.10 2.388674
724.20 2.388943
724.30 2.389208
724.40 2.389473
724.50 2.389738
724.60 2.390002
724.70 2.390266
724.80 2.39053
724.90 2.390794
725.00 2.391057
725.10 2.391321
725.20 2.391584
725.30 2.391846
725.40 2.392109
725.50 2.392371
725.60 2.392633
725.70 2.392895
725.80 2.393152
725.90 2.393407
726.00 2.393662
726.10 2.393917
726.20 2.394171
726.30 2.394425
726.40 2.394679
726.50 2.394932
726.60 2.395186
726.70 2.395439
726.80 2.395703
726.90 2.395972
727.00 2.396242
727.10 2.396511
727.20 2.396779
727.30 2.397048
727.40 2.39733
727.50 2.397619
727.60 2.397908
727.70 2.398197
727.80 2.398444
727.90 2.398669
728.00 2.398914
728.10 2.399207
728.20 2.399337
728.30 2.399656
728.40 2.399873
728.50 2.400223
728.60 2.400491
728.70 2.400714
728.80 2.400937
728.90 2.40116
729.00 2.40141
729.10 2.401674
729.20 2.401939
729.30 2.402203
729.40 2.402466
729.50 2.40273
729.60 2.402982
729.70 2.403228
729.80 2.403474
729.90 2.40372
730.00 2.403965
730.10 2.404211
730.20 2.404456
730.30 2.404701
730.40 2.404945
730.50 2.40519
730.60 2.405438
730.70 2.405688
730.80 2.405938
730.90 2.406188
731.00 2.406438
731.10 2.406687
731.20 2.406936
731.30 2.407185
731.40 2.407434
731.50 2.407682
731.60 2.40793
731.70 2.408178
731.80 2.408426
731.90 2.408674
732.00 2.408921
732.10 2.409168
732.20 2.409411
732.30 2.409651
732.40 2.409891
732.50 2.410131
732.60 2.410371
732.70 2.410611
732.80 2.41085
732.90 2.411089
733.00 2.411328
733.10 2.411566
733.20 2.411805
733.30 2.412043
733.40 2.412281
733.50 2.412519
733.60 2.412756
733.70 2.412997
733.80 2.413239
733.90 2.413481
734.00 2.413723
734.10 2.413965
734.20 2.414206
734.30 2.414447
734.40 2.414688
734.50 2.414929
734.60 2.41517
734.70 2.41541
734.80 2.41565
734.90 2.41589
735.00 2.41613
735.10 2.416369
735.20 2.416608
735.30 2.416845
735.40 2.417053
735.50 2.417262
735.60 2.41747
735.70 2.417694
735.80 2.417927
735.90 2.418159
736.00 2.418391
736.10 2.418624
736.20 2.418855
736.30 2.419087
736.40 2.419319
736.50 2.41955
736.60 2.419781
736.70 2.420012
736.80 2.420242
736.90 2.420473
737.00 2.420703
737.10 2.420933
737.20 2.421162
737.30 2.421392
737.40 2.421621
737.50 2.42185
737.60 2.422079
737.70 2.422308
737.80 2.422536
737.90 2.422765
738.00 2.422993
738.10 2.42322
738.20 2.423454
738.30 2.42369
738.40 2.423926
738.50 2.424162
738.60 2.424398
738.70 2.424633
738.80 2.424868
738.90 2.425103
739.00 2.425338
739.10 2.425573
739.20 2.425807
739.30 2.426041
739.40 2.426275
739.50 2.426509
739.60 2.426743
739.70 2.426976
739.80 2.427209
739.90 2.427442
740.00 2.427674
740.10 2.427907
740.20 2.428139
740.30 2.428371
740.40 2.428603
740.50 2.428835
740.60 2.429066
740.70 2.429297
740.80 2.429528
740.90 2.429759
741.00 2.429989
741.10 2.43022
741.20 2.43045
741.30 2.430679
741.40 2.430909
741.50 2.431139
741.60 2.431368
741.70 2.431597
741.80 2.431826
741.90 2.432054
742.00 2.432283
742.10 2.432511
742.20 2.432739
742.30 2.432967
742.40 2.433194
742.50 2.433421
742.60 2.433649
742.70 2.433906
742.80 2.434188
742.90 2.43447
743.00 2.434752
743.10 2.435033
743.20 2.435314
743.30 2.435595
743.40 2.435876
743.50 2.436156
743.60 2.436436
743.70 2.436696
743.80 2.436873
743.90 2.43705
744.00 2.437227
744.10 2.437404
744.20 2.437581
744.30 2.437757
744.40 2.437934
744.50 2.43811
744.60 2.438286
744.70 2.438461
744.80 2.438637
744.90 2.438812
745.00 2.438987
745.10 2.439162
745.20 2.439337
745.30 2.439512
745.40 2.439686
745.50 2.439861
745.60 2.440035
745.70 2.440209
745.80 2.440383
745.90 2.440556
746.00 2.440729
746.10 2.440903
746.20 2.441076
746.30 2.441249
746.40 2.441421
746.50 2.441594
746.60 2.441766
746.70 2.441938
746.80 2.44211
746.90 2.442282
747.00 2.442453
747.10 2.442625
747.20 2.442796
747.30 2.442967
747.40 2.443138
747.50 2.443309
747.60 2.443479
747.70 2.44365
747.80 2.44382
747.90 2.44399
748.00 2.444159
748.10 2.444329
748.20 2.444499
748.30 2.444668
748.40 2.444837
748.50 2.445006
748.60 2.445175
748.70 2.445343
748.80 2.445511
748.90 2.44568
749.00 2.445848
749.10 2.446016
749.20 2.446183
749.30 2.446351
749.40 2.446518
749.50 2.446685
749.60 2.446852
749.70 2.447019
749.80 2.447186
749.90 2.447352
750.00 2.447518
750.10 2.447704
750.20 2.447939
750.30 2.448174
750.40 2.448409
750.50 2.448643
750.60 2.448878
750.70 2.449112
750.80 2.449346
750.90 2.44958
751.00 2.449813
751.10 2.450046
751.20 2.45028
751.30 2.450512
751.40 2.450745
751.50 2.450978
751.60 2.45121
751.70 2.451442
751.80 2.451674
751.90 2.451905
752.00 2.452137
752.10 2.452368
752.20 2.452599
752.30 2.45283
752.40 2.45306
752.50 2.453291
752.60 2.453521
752.70 2.453751
752.80 2.453981
752.90 2.45421
753.00 2.45444
753.10 2.454669
753.20 2.454898
753.30 2.455126
753.40 2.455355
753.50 2.455583
753.60 2.455811
753.70 2.456039
753.80 2.456267
753.90 2.456445
754.00 2.45661
754.10 2.456774
754.20 2.456938
754.30 2.457102
754.40 2.457266
754.50 2.45743
754.60 2.457593
754.70 2.457756
754.80 2.457919
754.90 2.458082
755.00 2.458245
755.10 2.458408
755.20 2.45857
755.30 2.458732
755.40 2.458895
755.50 2.459056
755.60 2.459218
755.70 2.45938
755.80 2.459541
755.90 2.459702
756.00 2.459863
756.10 2.460024
756.20 2.460185
756.30 2.460345
756.40 2.460506
756.50 2.460666
756.60 2.460826
756.70 2.460986
756.80 2.461146
756.90 2.461305
757.00 2.461464
757.10 2.461624
757.20 2.461783
757.30 2.461941
757.40 2.4621
757.50 2.462259
757.60 2.462415
757.70 2.462565
757.80 2.462715
757.90 2.462864
758.00 2.463014
758.10 2.463163
758.20 2.463312
758.30 2.463462
758.40 2.46361
758.50 2.463759
758.60 2.463908
758.70 2.464056
758.80 2.464204
758.90 2.464352
759.00 2.4645
759.10 2.464648
759.20 2.464796
759.30 2.464943
759.40 2.46509
759.50 2.465237
759.60 2.465384
759.70 2.465531
759.80 2.465678
759.90 2.465824
760.00 2.465971
760.10 2.466117
760.20 2.466263
760.30 2.466408
760.40 2.466554
760.50 2.466699
760.60 2.466845
760.70 2.46699
760.80 2.467135
760.90 2.46728
761.00 2.467424
761.10 2.467569
761.20 2.467713
761.30 2.467857
761.40 2.468001
761.50 2.468145
761.60 2.468289
761.70 2.468433
761.80 2.468576
761.90 2.468719
762.00 2.468862
762.10 2.469005
762.20 2.469148
762.30 2.46929
762.40 2.469433
762.50 2.469575
762.60 2.469717
762.70 2.469859
762.80 2.470001
762.90 2.470143
763.00 2.470284
763.10 2.470425
763.20 2.470566
763.30 2.470707
763.40 2.470848
763.50 2.470989
763.60 2.471129
763.70 2.47127
763.80 2.47141
763.90 2.47155
764.00 2.47169
764.10 2.47183
764.20 2.471969
764.30 2.472109
764.40 2.472248
764.50 2.472387
764.60 2.472526
764.70 2.472665
764.80 2.472803
764.90 2.472942
765.00 2.47308
765.10 2.473218
765.20 2.473368
765.30 2.473527
765.40 2.473687
765.50 2.473847
765.60 2.474006
765.70 2.474165
765.80 2.474324
765.90 2.474483
766.00 2.474642
766.10 2.474801
766.20 2.474959
766.30 2.475117
766.40 2.475275
766.50 2.475433
766.60 2.475591
766.70 2.475749
766.80 2.475906
766.90 2.476063
767.00 2.47622
767.10 2.476377
767.20 2.476534
767.30 2.47669
767.40 2.476847
767.50 2.477003
767.60 2.477159
767.70 2.477315
767.80 2.477471
767.90 2.477626
768.00 2.477782
768.10 2.477937
768.20 2.478092
768.30 2.478247
768.40 2.478402
768.50 2.478556
768.60 2.478711
768.70 2.478865
768.80 2.479019
768.90 2.479173
769.00 2.479327
769.10 2.47948
769.20 2.479634
769.30 2.479787
769.40 2.47994
769.50 2.480093
769.60 2.480246
769.70 2.480398
769.80 2.480551
769.90 2.480703
770.00 2.480855
770.10 2.481007
770.20 2.481159
770.30 2.481311
770.40 2.481462
770.50 2.481614
770.60 2.481765
770.70 2.481916
770.80 2.482066
770.90 2.482217
771.00 2.482368
771.10 2.482518
771.20 2.482668
771.30 2.482818
771.40 2.482968
771.50 2.483118
771.60 2.483267
771.70 2.483417
771.80 2.483566
771.90 2.483715
772.00 2.483864
772.10 2.484013
772.20 2.484161
772.30 2.48431
772.40 2.484458
772.50 2.484606
772.60 2.484754
772.70 2.484902
772.80 2.485049
772.90 2.48516
773.00 2.485271
773.10 2.485381
773.20 2.485491
773.30 2.485601
773.40 2.485711
773.50 2.485821
773.60 2.485931
773.70 2.48604
773.80 2.48615
773.90 2.486259
774.00 2.486368
774.10 2.486477
774.20 2.486586
774.30 2.486695
774.40 2.486804
774.50 2.486912
774.60 2.48702
774.70 2.487129
774.80 2.487237
774.90 2.487344
775.00 2.487452
775.10 2.48756
775.20 2.487667
775.30 2.487775
775.40 2.487882
775.50 2.487989
775.60 2.488096
775.70 2.488203
775.80 2.488309
775.90 2.488416
776.00 2.488522
776.10 2.488629
776.20 2.488735
776.30 2.488841
776.40 2.488946
776.50 2.489052
776.60 2.489158
776.70 2.489263
776.80 2.489368
776.90 2.489474
777.00 2.489579
777.10 2.489683
777.20 2.489788
777.30 2.489893
777.40 2.489997
777.50 2.490102
777.60 2.490206
777.70 2.49031
777.80 2.490414
777.90 2.490518
778.00 2.490621
778.10 2.490725
778.20 2.490828
778.30 2.490931
778.40 2.491035
778.50 2.491138
778.60 2.49124
778.70 2.491343
778.80 2.491446
778.90 2.491548
779.00 2.49165
779.10 2.491753
779.20 2.491855
779.30 2.491956
779.40 2.492058
779.50 2.49216
779.60 2.492261
779.70 2.492363
779.80 2.492464
779.90 2.492565
780.00 2.492666
780.10 2.492767
780.20 2.492868
780.30 2.492968
780.40 2.493069
780.50 2.493169
780.60 2.493285
780.70 2.493406
780.80 2.493528
780.90 2.49365
781.00 2.493771
781.10 2.493892
781.20 2.494013
781.30 2.494134
781.40 2.494255
781.50 2.494376
781.60 2.494496
781.70 2.494617
781.80 2.494737
781.90 2.494857
782.00 2.494977
782.10 2.495097
782.20 2.495216
782.30 2.495336
782.40 2.495455
782.50 2.495575
782.60 2.495694
782.70 2.495813
782.80 2.495931
782.90 2.49605
783.00 2.496169
783.10 2.496287
783.20 2.496405
783.30 2.496523
783.40 2.496641
783.50 2.496759
783.60 2.496877
783.70 2.496994
783.80 2.497112
783.90 2.497229
784.00 2.497346
784.10 2.497463
784.20 2.49758
784.30 2.497696
784.40 2.497813
784.50 2.497929
784.60 2.498045
784.70 2.498159
784.80 2.498273
784.90 2.498387
785.00 2.498501
785.10 2.498615
785.20 2.498728
785.30 2.498841
785.40 2.498955
785.50 2.499068
785.60 2.499181
785.70 2.499293
785.80 2.499406
785.90 2.499519
786.00 2.499631
786.10 2.499743
786.20 2.499855
786.30 2.499967
786.40 2.500079
786.50 2.500191
786.60 2.500302
786.70 2.500414
786.80 2.500525
786.90 2.500636
787.00 2.500747
787.10 2.500858
787.20 2.500969
787.30 2.501079
787.40 2.50119
787.50 2.5013
787.60 2.50141
787.70 2.50152
787.80 2.50163
787.90 2.50174
788.00 2.50185
788.10 2.501959
788.20 2.502068
788.30 2.502178
788.40 2.502264
788.50 2.502339
788.60 2.502414
788.70 2.502489
788.80 2.502564
788.90 2.502639
789.00 2.502714
789.10 2.502788
789.20 2.502862
789.30 2.502937
789.40 2.503011
789.50 2.503085
789.60 2.503159
789.70 2.503232
789.80 2.503306
789.90 2.50338
790.00 2.503453
790.10 2.503526
790.20 2.5036
790.30 2.503673
790.40 2.503746
790.50 2.503818
790.60 2.503891
790.70 2.503964
790.80 2.504036
790.90 2.504109
791.00 2.504181
791.10 2.504253
791.20 2.504325
791.30 2.504397
791.40 2.504469
791.50 2.50454
791.60 2.504612
791.70 2.504683
791.80 2.504755
791.90 2.504826
792.00 2.504897
792.10 2.504968
792.20 2.505039
792.30 2.50511
792.40 2.50518
792.50 2.505251
792.60 2.505322
792.70 2.505392
792.80 2.505462
792.90 2.505533
793.00 2.505603
793.10 2.505673
793.20 2.505743
793.30 2.505812
793.40 2.505882
793.50 2.505952
793.60 2.506021
793.70 2.50609
793.80 2.50616
793.90 2.506229
794.00 2.506298
794.10 2.506366
794.20 2.506435
794.30 2.506504
794.40 2.506572
794.50 2.506641
794.60 2.506709
794.70 2.506777
794.80 2.506845
794.90 2.506913
795.00 2.506981
795.10 2.507049
795.20 2.507116
795.30 2.507184
795.40 2.507251
795.50 2.507318
795.60 2.507386
795.70 2.507453
795.80 2.50752
795.90 2.507586
796.00 2.507653
796.10 2.50772
796.20 2.507786
796.30 2.507847
796.40 2.507906
796.50 2.507965
796.60 2.508024
796.70 2.508083
796.80 2.508142
796.90 2.5082
797.00 2.508259
797.10 2.508318
797.20 2.508376
797.30 2.508434
797.40 2.508492
797.50 2.50855
797.60 2.508608
797.70 2.508666
797.80 2.508724
797.90 2.508782
798.00 2.508839
798.10 2.508897
798.20 2.508954
798.30 2.509011
798.40 2.509068
798.50 2.509125
798.60 2.509182
798.70 2.509239
798.80 2.509295
798.90 2.509352
799.00 2.509408
799.10 2.509465
799.20 2.509521
799.30 2.509577
799.40 2.509633
799.50 2.509689
799.60 2.509745
799.70 2.509801
799.80 2.509856
799.90 2.509912
800.00 2.509967
800.10 2.510022
800.20 2.510078
800.30 2.510133
800.40 2.510188
800.50 2.510242
800.60 2.510297
800.70 2.510352
800.80 2.510406
800.90 2.510461
801.00 2.510515
801.10 2.510569
801.20 2.510623
801.30 2.510677
801.40 2.510731
801.50 2.510785
801.60 2.510839
801.70 2.510892
801.80 2.510946
801.90 2.510999
802.00 2.511053
802.10 2.511106
802.20 2.511159
802.30 2.511212
802.40 2.511265
802.50 2.511317
802.60 2.51137
802.70 2.511423
802.80 2.511475
802.90 2.511527
803.00 2.51158
803.10 2.511632
803.20 2.511684
803.30 2.511736
803.40 2.511788
803.50 2.511839
803.60 2.511891
803.70 2.511942
803.80 2.511994
803.90 2.512045
804.00 2.512096
804.10 2.512147
804.20 2.512197
804.30 2.512241
804.40 2.512285
804.50 2.512329
804.60 2.512373
804.70 2.512417
804.80 2.51246
804.90 2.512504
805.00 2.512547
805.10 2.512591
805.20 2.512634
805.30 2.512677
805.40 2.51272
805.50 2.512763
805.60 2.512806
805.70 2.512849
805.80 2.512892
805.90 2.512934
806.00 2.512977
806.10 2.513019
806.20 2.513061
806.30 2.513104
806.40 2.513146
806.50 2.513188
806.60 2.51323
806.70 2.513271
806.80 2.513313
806.90 2.513355
807.00 2.513396
807.10 2.513438
807.20 2.513479
807.30 2.51352
807.40 2.513561
807.50 2.513602
807.60 2.513643
807.70 2.513684
807.80 2.513725
807.90 2.513765
808.00 2.513806
808.10 2.513846
808.20 2.513887
808.30 2.513927
808.40 2.513967
808.50 2.514007
808.60 2.514047
808.70 2.514087
808.80 2.514127
808.90 2.514166
809.00 2.514206
809.10 2.514245
809.20 2.514285
809.30 2.514324
809.40 2.514363
809.50 2.514402
809.60 2.514441
809.70 2.51448
809.80 2.514519
809.90 2.514558
810.00 2.514596
810.10 2.514635
810.20 2.514673
810.30 2.514711
810.40 2.51475
810.50 2.514788
810.60 2.514826
810.70 2.514864
810.80 2.514902
810.90 2.514939
811.00 2.514977
811.10 2.515015
811.20 2.515052
811.30 2.515089
811.40 2.515127
811.50 2.515164
811.60 2.515201
811.70 2.515238
811.80 2.515275
811.90 2.515312
812.00 2.515348
812.10 2.515385
812.20 2.515421
812.30 2.515465
812.40 2.51551
812.50 2.515555
812.60 2.5156
812.70 2.515645
812.80 2.515689
812.90 2.515734
813.00 2.515779
813.10 2.515823
813.20 2.515867
813.30 2.515912
813.40 2.515956
813.50 2.516
813.60 2.516044
813.70 2.516087
813.80 2.516131
813.90 2.516175
814.00 2.516218
814.10 2.516262
814.20 2.516305
814.30 2.516348
814.40 2.516392
814.50 2.516435
814.60 2.516478
814.70 2.51652
814.80 2.516563
814.90 2.516606
815.00 2.516648
815.10 2.516691
815.20 2.516733
815.30 2.516776
815.40 2.516818
815.50 2.51686
815.60 2.516902
815.70 2.516944
815.80 2.516986
815.90 2.517027
816.00 2.517069
816.10 2.51711
816.20 2.517152
816.30 2.517193
816.40 2.517234
816.50 2.517275
816.60 2.517316
816.70 2.517357
816.80 2.517398
816.90 2.517439
817.00 2.51748
817.10 2.51752
817.20 2.517561
817.30 2.517601
817.40 2.517641
817.50 2.517681
817.60 2.517722
817.70 2.517762
817.80 2.517801
817.90 2.517841
818.00 2.517881
818.10 2.517921
818.20 2.51796
818.30 2.517999
818.40 2.518039
818.50 2.518078
818.60 2.518117
818.70 2.518156
818.80 2.518195
818.90 2.518234
819.00 2.518273
819.10 2.518311
819.20 2.51835
819.30 2.518278
819.40 2.518131
819.50 2.517985
819.60 2.517839
819.70 2.517693
819.80 2.517547
819.90 2.5174
820.00 2.517254
820.10 2.517066
820.20 2.517219
820.30 2.517466
820.40 2.517585
820.50 2.517612
820.60 2.517639
820.70 2.517665
820.80 2.517692
820.90 2.517718
821.00 2.517744
821.10 2.517771
821.20 2.517797
821.30 2.517823
821.40 2.517849
821.50 2.517874
821.60 2.5179
821.70 2.517926
821.80 2.517952
821.90 2.517977
822.00 2.518002
822.10 2.518028
822.20 2.518053
822.30 2.518078
822.40 2.518103
822.50 2.518128
822.60 2.518153
822.70 2.518178
822.80 2.518203
822.90 2.518227
823.00 2.518252
823.10 2.518276
823.20 2.518301
823.30 2.518325
823.40 2.518349
823.50 2.518373
823.60 2.518397
823.70 2.518421
823.80 2.518445
823.90 2.518469
824.00 2.518493
824.10 2.518516
824.20 2.51854
824.30 2.518563
824.40 2.518587
824.50 2.51861
824.60 2.518633
824.70 2.518656
824.80 2.518679
824.90 2.518702
825.00 2.518725
825.10 2.518748
825.20 2.51877
825.30 2.518793
825.40 2.518816
825.50 2.518838
825.60 2.51886
825.70 2.518883
825.80 2.518905
825.90 2.518927
826.00 2.518949
826.10 2.518971
826.20 2.518993
826.30 2.518992
826.40 2.518978
826.50 2.518963
826.60 2.518948
826.70 2.518933
826.80 2.518918
826.90 2.518903
827.00 2.518888
827.10 2.518872
827.20 2.518857
827.30 2.518842
827.40 2.518826
827.50 2.518811
827.60 2.518795
827.70 2.51878
827.80 2.518764
827.90 2.518748
828.00 2.518732
828.10 2.518717
828.20 2.518701
828.30 2.518685
828.40 2.518669
828.50 2.518652
828.60 2.518634
828.70 2.518614
828.80 2.518595
828.90 2.518575
829.00 2.518555
829.10 2.518535
829.20 2.518515
829.30 2.518494
829.40 2.518474
829.50 2.518454
829.60 2.518433
829.70 2.518413
829.80 2.518393
829.90 2.518372
830.00 2.518351
830.10 2.518331
830.20 2.51831
830.30 2.518289
830.40 2.518268
830.50 2.518247
830.60 2.518226
830.70 2.518205
830.80 2.518184
830.90 2.518163
831.00 2.518142
831.10 2.51812
831.20 2.518099
831.30 2.518078
831.40 2.518056
831.50 2.518034
831.60 2.518013
831.70 2.517991
831.80 2.517969
831.90 2.517948
832.00 2.517926
832.10 2.517904
832.20 2.517882
832.30 2.51786
832.40 2.517838
832.50 2.517815
832.60 2.517793
832.70 2.517771
832.80 2.517748
832.90 2.517726
833.00 2.517703
833.10 2.517681
833.20 2.517658
833.30 2.517636
833.40 2.517613
833.50 2.51759
833.60 2.517567
833.70 2.517544
833.80 2.517521
833.90 2.517498
834.00 2.517475
834.10 2.517452
834.20 2.517429
834.30 2.517405
834.40 2.517382
834.50 2.517359
834.60 2.517335
834.70 2.517312
834.80 2.517288
834.90 2.517264
835.00 2.517241
835.10 2.517217
835.20 2.517193
835.30 2.517169
835.40 2.517145
835.50 2.517121
835.60 2.517097
835.70 2.517073
835.80 2.517049
835.90 2.517024
836.00 2.517
836.10 2.516976
836.20 2.516951
836.30 2.516927
836.40 2.516902
836.50 2.516878
836.60 2.516853
836.70 2.516828
836.80 2.516803
836.90 2.51679
837.00 2.516782
837.10 2.516774
837.20 2.516767
837.30 2.516759
837.40 2.51675
837.50 2.516742
837.60 2.516734
837.70 2.516726
837.80 2.516717
837.90 2.516709
838.00 2.5167
838.10 2.516692
838.20 2.516683
838.30 2.516675
838.40 2.516666
838.50 2.516657
838.60 2.516648
838.70 2.516639
838.80 2.51663
838.90 2.516621
839.00 2.516612
839.10 2.516602
839.20 2.516593
839.30 2.516584
839.40 2.516574
839.50 2.516565
839.60 2.516555
839.70 2.516546
839.80 2.516536
839.90 2.516526
840.00 2.516516
840.10 2.516506
840.20 2.516496
840.30 2.516486
840.40 2.516476
840.50 2.516466
840.60 2.516456
840.70 2.516445
840.80 2.516435
840.90 2.516425
841.00 2.516414
841.10 2.516403
841.20 2.516393
841.30 2.516382
841.40 2.516371
841.50 2.51636
841.60 2.516349
841.70 2.516338
841.80 2.516327
841.90 2.516315
842.00 2.516304
842.10 2.516293
842.20 2.516281
842.30 2.51627
842.40 2.516258
842.50 2.516247
842.60 2.516235
842.70 2.516223
842.80 2.516211
842.90 2.516199
843.00 2.516187
843.10 2.516175
843.20 2.516163
843.30 2.516151
843.40 2.516139
843.50 2.516127
843.60 2.516114
843.70 2.516102
843.80 2.516089
843.90 2.516077
844.00 2.516064
844.10 2.516051
844.20 2.516039
844.30 2.516026
844.40 2.516013
844.50 2.516
844.60 2.515987
844.70 2.515974
844.80 2.515961
844.90 2.515948
845.00 2.515935
845.10 2.515921
845.20 2.515908
845.30 2.515867
845.40 2.515825
845.50 2.515784
845.60 2.515742
845.70 2.515701
845.80 2.51566
845.90 2.515618
846.00 2.515576
846.10 2.515535
846.20 2.515493
846.30 2.515451
846.40 2.515409
846.50 2.515368
846.60 2.515326
846.70 2.515284
846.80 2.515242
846.90 2.5152
847.00 2.515158
847.10 2.515115
847.20 2.515073
847.30 2.515031
847.40 2.514989
847.50 2.514946
847.60 2.514904
847.70 2.514861
847.80 2.514819
847.90 2.514776
848.00 2.514734
848.10 2.514691
848.20 2.514648
848.30 2.514606
848.40 2.514563
848.50 2.51452
848.60 2.514477
848.70 2.514434
848.80 2.514391
848.90 2.514348
849.00 2.514305
849.10 2.514262
849.20 2.514218
849.30 2.514175
849.40 2.514132
849.50 2.514089
849.60 2.514045
849.70 2.514002
849.80 2.513958
849.90 2.513915
850.00 2.513871
850.10 2.513827
850.20 2.513784
850.30 2.51374
850.40 2.513696
850.50 2.513652
850.60 2.513608
850.70 2.513564
850.80 2.51352
850.90 2.513476
851.00 2.513432
851.10 2.513388
851.20 2.513344
851.30 2.5133
851.40 2.513255
851.50 2.513211
851.60 2.513167
851.70 2.513122
851.80 2.513078
851.90 2.513033
852.00 2.512989
852.10 2.512944
852.20 2.512899
852.30 2.512855
852.40 2.51281
852.50 2.512765
852.60 2.51272
852.70 2.512675
852.80 2.51263
852.90 2.512585
853.00 2.51254
853.10 2.512495
853.20 2.51245
853.30 2.512405
853.40 2.51236
853.50 2.512314
853.60 2.512269
853.70 2.512211
853.80 2.512138
853.90 2.512066
854.00 2.511994
854.10 2.511921
854.20 2.511849
854.30 2.511776
854.40 2.511704
854.50 2.511631
854.60 2.511559
854.70 2.511486
854.80 2.511414
854.90 2.511341
855.00 2.511268
855.10 2.511196
855.20 2.511123
855.30 2.51105
855.40 2.510977
855.50 2.510904
855.60 2.510831
855.70 2.510758
855.80 2.510685
855.90 2.510612
856.00 2.510539
856.10 2.510466
856.20 2.510393
856.30 2.51032
856.40 2.510247
856.50 2.510174
856.60 2.5101
856.70 2.510027
856.80 2.509954
856.90 2.50988
857.00 2.509807
857.10 2.509734
857.20 2.50966
857.30 2.509587
857.40 2.509513
857.50 2.509439
857.60 2.509366
857.70 2.509292
857.80 2.509219
857.90 2.509145
858.00 2.509105
858.10 2.509074
858.20 2.509043
858.30 2.509011
858.40 2.50898
858.50 2.508949
858.60 2.508917
858.70 2.508886
858.80 2.508854
858.90 2.508823
859.00 2.508791
859.10 2.508759
859.20 2.508727
859.30 2.508696
859.40 2.508664
859.50 2.508632
859.60 2.5086
859.70 2.508568
859.80 2.508536
859.90 2.508503
860.00 2.508471
860.10 2.508439
860.20 2.508407
860.30 2.508374
860.40 2.508342
860.50 2.508309
860.60 2.508277
860.70 2.508244
860.80 2.508212
860.90 2.508179
861.00 2.508146
861.10 2.508114
861.20 2.508081
861.30 2.508048
861.40 2.508015
861.50 2.507982
861.60 2.507949
861.70 2.507916
861.80 2.507883
861.90 2.507849
862.00 2.507816
862.10 2.507783
862.20 2.507744
862.30 2.507663
862.40 2.507583
862.50 2.507502
862.60 2.507421
862.70 2.50734
862.80 2.50726
862.90 2.507179
863.00 2.507098
863.10 2.507017
863.20 2.506936
863.30 2.506855
863.40 2.506774
863.50 2.506693
863.60 2.506612
863.70 2.506531
863.80 2.50645
863.90 2.506369
864.00 2.506288
864.10 2.506207
864.20 2.506126
864.30 2.506045
864.40 2.505963
864.50 2.505882
864.60 2.505801
864.70 2.505719
864.80 2.505638
864.90 2.505557
865.00 2.505475
865.10 2.505394
865.20 2.505312
865.30 2.505231
865.40 2.505149
865.50 2.505068
865.60 2.504986
865.70 2.504904
865.80 2.504823
865.90 2.504741
866.00 2.504659
866.10 2.504578
866.20 2.504496
866.30 2.504414
866.40 2.504332
866.50 2.50425
866.60 2.504168
866.70 2.504087
866.80 2.504005
866.90 2.503923
867.00 2.503841
867.10 2.503759
867.20 2.503676
867.30 2.503594
867.40 2.503512
867.50 2.50343
867.60 2.503348
867.70 2.503266
867.80 2.503183
867.90 2.503101
868.00 2.503019
868.10 2.502937
868.20 2.502854
868.30 2.502772
868.40 2.502689
868.50 2.502607
868.60 2.502525
868.70 2.502442
868.80 2.50236
868.90 2.502277
869.00 2.502194
869.10 2.502112
869.20 2.502029
869.30 2.501947
869.40 2.501864
869.50 2.501781
869.60 2.501698
869.70 2.501616
869.80 2.501533
869.90 2.50145
870.00 2.501367
870.10 2.501284
870.20 2.501201
870.30 2.501118
870.40 2.501035
870.50 2.500952
870.60 2.500869
870.70 2.500786
870.80 2.500703
870.90 2.500616
871.00 2.500528
871.10 2.50044
871.20 2.500352
871.30 2.500264
871.40 2.500176
871.50 2.500088
871.60 2.499999
871.70 2.499911
871.80 2.499823
871.90 2.499735
872.00 2.499647
872.10 2.499558
872.20 2.49947
872.30 2.499382
872.40 2.499293
872.50 2.499205
872.60 2.499117
872.70 2.499028
872.80 2.49894
872.90 2.498851
873.00 2.498763
873.10 2.498674
873.20 2.498586
873.30 2.498497
873.40 2.498409
873.50 2.49832
873.60 2.498231
873.70 2.498143
873.80 2.498054
873.90 2.497965
874.00 2.497877
874.10 2.497788
874.20 2.497699
874.30 2.49761
874.40 2.497521
874.50 2.497432
874.60 2.497344
874.70 2.497255
874.80 2.497166
874.90 2.497077
875.00 2.496988
875.10 2.496899
875.20 2.496824
875.30 2.496775
875.40 2.496726
875.50 2.496677
875.60 2.496628
875.70 2.496579
875.80 2.49653
875.90 2.496481
876.00 2.496431
876.10 2.496382
876.20 2.496333
876.30 2.496283
876.40 2.496234
876.50 2.496185
876.60 2.496135
876.70 2.496086
876.80 2.496036
876.90 2.495986
877.00 2.495937
877.10 2.495887
877.20 2.495837
877.30 2.495787
877.40 2.495738
877.50 2.495688
877.60 2.495638
877.70 2.495588
877.80 2.495538
877.90 2.495488
878.00 2.495438
878.10 2.495388
878.20 2.495337
878.30 2.495287
878.40 2.495237
878.50 2.495187
878.60 2.495136
878.70 2.495086
878.80 2.495035
878.90 2.494985
879.00 2.494934
879.10 2.494884
879.20 2.494833
879.30 2.494783
879.40 2.494732
879.50 2.494681
879.60 2.494594
879.70 2.494499
879.80 2.494403
879.90 2.494308
880.00 2.494213
880.10 2.494117
880.20 2.494022
880.30 2.493927
880.40 2.493831
880.50 2.493736
880.60 2.49364
880.70 2.493545
880.80 2.493449
880.90 2.493354
881.00 2.493258
881.10 2.493163
881.20 2.493067
881.30 2.492972
881.40 2.492876
881.50 2.49278
881.60 2.492685
881.70 2.492589
881.80 2.492493
881.90 2.492397
882.00 2.492302
882.10 2.492206
882.20 2.49211
882.30 2.492014
882.40 2.491918
882.50 2.491823
882.60 2.491727
882.70 2.491631
882.80 2.491535
882.90 2.491439
883.00 2.491343
883.10 2.491247
883.20 2.491151
883.30 2.491055
883.40 2.490959
883.50 2.490863
883.60 2.490767
883.70 2.490671
883.80 2.490575
883.90 2.490478
884.00 2.490382
884.10 2.490286
884.20 2.49019
884.30 2.490094
884.40 2.489998
884.50 2.489902
884.60 2.489806
884.70 2.489709
884.80 2.489613
884.90 2.489517
885.00 2.489421
885.10 2.489324
885.20 2.489228
885.30 2.489132
885.40 2.489035
885.50 2.488939
885.60 2.488843
885.70 2.488746
885.80 2.48865
885.90 2.488553
886.00 2.488457
886.10 2.48836
886.20 2.488264
886.30 2.488167
886.40 2.488071
886.50 2.487974
886.60 2.487878
886.70 2.487781
886.80 2.487685
886.90 2.487588
887.00 2.487491
887.10 2.487395
887.20 2.487298
887.30 2.487201
887.40 2.487104
887.50 2.487008
887.60 2.486911
887.70 2.486814
887.80 2.486717
887.90 2.48662
888.00 2.486524
888.10 2.486427
888.20 2.48633
888.30 2.486233
888.40 2.486115
888.50 2.485995
888.60 2.485874
888.70 2.485753
888.80 2.485633
888.90 2.485512
889.00 2.485391
889.10 2.485271
889.20 2.48515
889.30 2.485029
889.40 2.484908
889.50 2.484788
889.60 2.484667
889.70 2.484546
889.80 2.484425
889.90 2.484305
890.00 2.484184
890.10 2.484063
890.20 2.483942
890.30 2.483821
890.40 2.4837
890.50 2.48358
890.60 2.483459
890.70 2.483338
890.80 2.483217
890.90 2.483096
891.00 2.482975
891.10 2.482854
891.20 2.482734
891.30 2.482613
891.40 2.482492
891.50 2.482371
891.60 2.48225
891.70 2.482129
891.80 2.482008
891.90 2.481887
892.00 2.481766
892.10 2.481645
892.20 2.481524
892.30 2.481403
892.40 2.481282
892.50 2.481161
892.60 2.48104
892.70 2.480919
892.80 2.480798
892.90 2.480677
893.00 2.480556
893.10 2.480435
893.20 2.480314
893.30 2.480193
893.40 2.480072
893.50 2.479951
893.60 2.47983
893.70 2.479709
893.80 2.479588
893.90 2.479466
894.00 2.479345
894.10 2.479224
894.20 2.479103
894.30 2.478982
894.40 2.478861
894.50 2.47874
894.60 2.478618
894.70 2.478497
894.80 2.478376
894.90 2.478255
895.00 2.478134
895.10 2.478013
895.20 2.477891
895.30 2.47777
895.40 2.477649
895.50 2.477528
895.60 2.477406
895.70 2.477285
895.80 2.477164
895.90 2.477043
896.00 2.476921
896.10 2.4768
896.20 2.476679
896.30 2.476557
896.40 2.476436
896.50 2.476315
896.60 2.476194
896.70 2.476072
896.80 2.475951
896.90 2.47583
897.00 2.475708
897.10 2.475587
897.20 2.475466
897.30 2.475359
897.40 2.475252
897.50 2.475145
897.60 2.475038
897.70 2.47493
897.80 2.474823
897.90 2.474716
898.00 2.474609
898.10 2.474502
898.20 2.474394
898.30 2.474287
898.40 2.47418
898.50 2.474073
898.60 2.473965
898.70 2.473858
898.80 2.473751
898.90 2.473643
899.00 2.473536
899.10 2.473429
899.20 2.473321
899.30 2.473214
899.40 2.473106
899.50 2.472999
899.60 2.472892
899.70 2.472784
899.80 2.472677
899.90 2.472569
900.00 2.472462
900.10 2.472354
900.20 2.472247
900.30 2.472139
900.40 2.472032
900.50 2.471924
900.60 2.471817
900.70 2.471709
900.80 2.471601
900.90 2.471494
901.00 2.471386
901.10 2.471279
901.20 2.471171
901.30 2.471063
901.40 2.470956
901.50 2.470848
901.60 2.47074
901.70 2.470626
901.80 2.470482
901.90 2.470337
902.00 2.470193
902.10 2.470048
902.20 2.469904
902.30 2.46976
902.40 2.469615
902.50 2.469471
902.60 2.469327
902.70 2.469182
902.80 2.469038
902.90 2.468893
903.00 2.468749
903.10 2.468605
903.20 2.46846
903.30 2.468316
903.40 2.468172
903.50 2.468027
903.60 2.467883
903.70 2.467739
903.80 2.467594
903.90 2.46745
904.00 2.467306
904.10 2.467161
904.20 2.467017
904.30 2.466873
904.40 2.466729
904.50 2.466584
904.60 2.46644
904.70 2.466296
904.80 2.466151
904.90 2.466007
905.00 2.465863
905.10 2.465718
905.20 2.465574
905.30 2.46543
905.40 2.465286
905.50 2.465141
905.60 2.464997
905.70 2.464853
905.80 2.464709
905.90 2.464564
906.00 2.46442
906.10 2.464276
906.20 2.464142
906.30 2.46403
906.40 2.463917
906.50 2.463805
906.60 2.463693
906.70 2.46358
906.80 2.463468
906.90 2.463356
907.00 2.463244
907.10 2.463131
907.20 2.463019
907.30 2.462907
907.40 2.462794
907.50 2.462682
907.60 2.462569
907.70 2.462457
907.80 2.462345
907.90 2.462232
908.00 2.46212
908.10 2.462007
908.20 2.461895
908.30 2.461782
908.40 2.46167
908.50 2.461557
908.60 2.461445
908.70 2.461332
908.80 2.46122
908.90 2.461107
909.00 2.460995
909.10 2.460882
909.20 2.46077
909.30 2.460657
909.40 2.460545
909.50 2.460432
909.60 2.46032
909.70 2.460207
909.80 2.460094
909.90 2.459982
910.00 2.459869
910.10 2.459756
910.20 2.459644
910.30 2.459531
910.40 2.459418
910.50 2.459306
910.60 2.459193
910.70 2.45908
910.80 2.458932
910.90 2.458783
911.00 2.458635
911.10 2.458487
911.20 2.458339
911.30 2.45819
911.40 2.458042
911.50 2.457894
911.60 2.457746
911.70 2.457597
911.80 2.457449
911.90 2.457301
912.00 2.457153
912.10 2.457004
912.20 2.456856
912.30 2.456708
912.40 2.45656
912.50 2.456411
912.60 2.456263
912.70 2.456115
912.80 2.455967
912.90 2.455819
913.00 2.45567
913.10 2.455522
913.20 2.455374
913.30 2.455226
913.40 2.455078
913.50 2.45493
913.60 2.454781
913.70 2.454633
913.80 2.454485
913.90 2.454337
914.00 2.454189
914.10 2.454041
914.20 2.453893
914.30 2.453745
914.40 2.453597
914.50 2.453448
914.60 2.4533
914.70 2.453152
914.80 2.453004
914.90 2.452856
915.00 2.452708
915.10 2.45256
915.20 2.452412
915.30 2.452286
915.40 2.452169
915.50 2.452052
915.60 2.451935
915.70 2.451818
915.80 2.451701
915.90 2.451584
916.00 2.451467
916.10 2.45135
916.20 2.451233
916.30 2.451116
916.40 2.450999
916.50 2.450882
916.60 2.450765
916.70 2.450648
916.80 2.450531
916.90 2.450414
917.00 2.450297
917.10 2.45018
917.20 2.450062
917.30 2.449945
917.40 2.449828
917.50 2.449711
917.60 2.449594
917.70 2.449477
917.80 2.44936
917.90 2.449243
918.00 2.449126
918.10 2.449008
918.20 2.448891
918.30 2.448774
918.40 2.448657
918.50 2.44854
918.60 2.448423
918.70 2.448305
918.80 2.448188
918.90 2.448071
919.00 2.447954
919.10 2.447837
919.20 2.447719
919.30 2.447602
919.40 2.447485
919.50 2.447368
919.60 2.44725
919.70 2.447133
919.80 2.447016
919.90 2.446866
920.00 2.446714
920.10 2.446562
920.20 2.446411
920.30 2.446259
920.40 2.446107
920.50 2.445955
920.60 2.445803
920.70 2.445652
920.80 2.4455
920.90 2.445348
921.00 2.445196
921.10 2.445045
921.20 2.444893
921.30 2.444741
921.40 2.44459
921.50 2.444438
921.60 2.444286
921.70 2.444134
921.80 2.443983
921.90 2.443831
922.00 2.443679
922.10 2.443528
922.20 2.443376
922.30 2.443225
922.40 2.443073
922.50 2.442921
922.60 2.44277
922.70 2.442618
922.80 2.442466
922.90 2.442315
923.00 2.442163
923.10 2.442012
923.20 2.44186
923.30 2.441709
923.40 2.441557
923.50 2.441406
923.60 2.441254
923.70 2.441103
923.80 2.440951
923.90 2.4408
924.00 2.440648
924.10 2.440497
924.20 2.440345
924.30 2.440194
924.40 2.440041
924.50 2.439886
924.60 2.439731
924.70 2.439576
924.80 2.439421
924.90 2.439266
925.00 2.43911
925.10 2.438955
925.20 2.4388
925.30 2.438645
925.40 2.43849
925.50 2.438335
925.60 2.43818
925.70 2.438025
925.80 2.43787
925.90 2.437715
926.00 2.43756
926.10 2.437405
926.20 2.437249
926.30 2.437094
926.40 2.436939
926.50 2.436784
926.60 2.436629
926.70 2.436475
926.80 2.43632
926.90 2.436165
927.00 2.43601
927.10 2.435855
927.20 2.4357
927.30 2.435545
927.40 2.43539
927.50 2.435235
927.60 2.43508
927.70 2.434925
927.80 2.43477
927.90 2.434616
928.00 2.434461
928.10 2.434306
928.20 2.434151
928.30 2.433996
928.40 2.433842
928.50 2.433687
928.60 2.433532
928.70 2.433377
928.80 2.433222
928.90 2.433068
929.00 2.432913
929.10 2.432758
929.20 2.432603
929.30 2.432449
929.40 2.432294
929.50 2.432139
929.60 2.431985
929.70 2.43183
929.80 2.431675
929.90 2.431521
930.00 2.431366
930.10 2.431211
930.20 2.431057
930.30 2.430902
930.40 2.430748
930.50 2.430593
930.60 2.430438
930.70 2.430284
930.80 2.430129
930.90 2.429975
931.00 2.42982
931.10 2.429666
931.20 2.429511
931.30 2.429357
931.40 2.429202
931.50 2.429048
931.60 2.428893
931.70 2.428739
931.80 2.428584
931.90 2.42843
932.00 2.428276
932.10 2.428121
932.20 2.427967
932.30 2.427812
932.40 2.427658
932.50 2.427504
932.60 2.427349
932.70 2.427195
932.80 2.42704
932.90 2.426886
933.00 2.426732
933.10 2.426577
933.20 2.426423
933.30 2.426269
933.40 2.426115
933.50 2.42596
933.60 2.425806
933.70 2.425649
933.80 2.425491
933.90 2.425333
934.00 2.425176
934.10 2.425018
934.20 2.42486
934.30 2.424702
934.40 2.424545
934.50 2.424387
934.60 2.424229
934.70 2.424071
934.80 2.423914
934.90 2.423756
935.00 2.423598
935.10 2.42344
935.20 2.423283
935.30 2.423125
935.40 2.422967
935.50 2.42281
935.60 2.422652
935.70 2.422495
935.80 2.422337
935.90 2.422179
936.00 2.422022
936.10 2.421864
936.20 2.421707
936.30 2.421549
936.40 2.421392
936.50 2.421234
936.60 2.421077
936.70 2.420919
936.80 2.420762
936.90 2.420604
937.00 2.420447
937.10 2.420289
937.20 2.420132
937.30 2.419974
937.40 2.419817
937.50 2.41966
937.60 2.419502
937.70 2.419345
937.80 2.419187
937.90 2.41903
938.00 2.418873
938.10 2.418715
938.20 2.418558
938.30 2.418401
938.40 2.418244
938.50 2.418086
938.60 2.417929
938.70 2.417772
938.80 2.417615
938.90 2.417457
939.00 2.4173
939.10 2.417143
939.20 2.416986
939.30 2.416829
939.40 2.416671
939.50 2.416514
939.60 2.416357
939.70 2.4162
939.80 2.416043
939.90 2.415886
940.00 2.415729
940.10 2.415572
940.20 2.415414
940.30 2.415257
940.40 2.4151
940.50 2.414943
940.60 2.414786
940.70 2.414629
940.80 2.414472
940.90 2.414315
941.00 2.414158
941.10 2.414001
941.20 2.413844
941.30 2.413688
941.40 2.413531
941.50 2.413374
941.60 2.413217
941.70 2.41306
941.80 2.412903
941.90 2.412746
942.00 2.412589
942.10 2.412433
942.20 2.412276
942.30 2.412119
942.40 2.411962
942.50 2.411805
942.60 2.411649
942.70 2.411492
942.80 2.411335
942.90 2.411178
943.00 2.411014
943.10 2.410838
943.20 2.410662
943.30 2.410486
943.40 2.410309
943.50 2.410133
943.60 2.409957
943.70 2.409781
943.80 2.409605
943.90 2.409429
944.00 2.409253
944.10 2.409077
944.20 2.408901
944.30 2.408725
944.40 2.408549
944.50 2.408373
944.60 2.408197
944.70 2.408021
944.80 2.407846
944.90 2.40767
945.00 2.407494
945.10 2.407318
945.20 2.407142
945.30 2.406967
945.40 2.406791
945.50 2.406615
945.60 2.40644
945.70 2.406264
945.80 2.406088
945.90 2.405913
946.00 2.405737
946.10 2.405561
946.20 2.405386
946.30 2.40521
946.40 2.405035
946.50 2.404859
946.60 2.404684
946.70 2.404508
946.80 2.404333
946.90 2.404157
947.00 2.403982
947.10 2.403807
947.20 2.403631
947.30 2.403456
947.40 2.403281
947.50 2.403105
947.60 2.40293
947.70 2.402755
947.80 2.402579
947.90 2.402404
948.00 2.402229
948.10 2.402054
948.20 2.401879
948.30 2.401704
948.40 2.401528
948.50 2.401353
948.60 2.401178
948.70 2.401003
948.80 2.400828
948.90 2.400653
949.00 2.400478
949.10 2.400303
949.20 2.400128
949.30 2.399953
949.40 2.399778
949.50 2.399604
949.60 2.399429
949.70 2.399254
949.80 2.399079
949.90 2.398904
950.00 2.398729
950.10 2.398555
950.20 2.39838
950.30 2.398205
950.40 2.39803
950.50 2.397856
950.60 2.397681
950.70 2.397506
950.80 2.397332
950.90 2.397157
951.00 2.396983
951.10 2.396808
951.20 2.396634
951.30 2.396459
951.40 2.396284
951.50 2.39611
951.60 2.395936
951.70 2.395761
951.80 2.395587
951.90 2.395412
952.00 2.395238
952.10 2.395064
952.20 2.394889
952.30 2.394715
952.40 2.394542
952.50 2.39438
952.60 2.394217
952.70 2.394055
952.80 2.393894
952.90 2.393732
953.00 2.39357
953.10 2.393408
953.20 2.393246
953.30 2.393084
953.40 2.392922
953.50 2.39276
953.60 2.392598
953.70 2.392436
953.80 2.392274
953.90 2.392113
954.00 2.391951
954.10 2.391789
954.20 2.391627
954.30 2.391466
954.40 2.391304
954.50 2.391142
954.60 2.39098
954.70 2.390819
954.80 2.390657
954.90 2.390495
955.00 2.390334
955.10 2.390172
955.20 2.39001
955.30 2.389849
955.40 2.389687
955.50 2.389526
955.60 2.389364
955.70 2.389202
955.80 2.389041
955.90 2.388879
956.00 2.388718
956.10 2.388556
956.20 2.388395
956.30 2.388234
956.40 2.388072
956.50 2.387911
956.60 2.387749
956.70 2.387588
956.80 2.387427
956.90 2.387265
957.00 2.387104
957.10 2.386942
957.20 2.386767
957.30 2.386575
957.40 2.386383
957.50 2.386191
957.60 2.385999
957.70 2.385808
957.80 2.385616
957.90 2.385424
958.00 2.385232
958.10 2.38504
958.20 2.384849
958.30 2.384657
958.40 2.384465
958.50 2.384274
958.60 2.384082
958.70 2.383891
958.80 2.383699
958.90 2.383507
959.00 2.383316
959.10 2.383125
959.20 2.382933
959.30 2.382742
959.40 2.38255
959.50 2.382359
959.60 2.382168
959.70 2.381976
959.80 2.381785
959.90 2.381594
960.00 2.381403
960.10 2.381212
960.20 2.38102
960.30 2.380829
960.40 2.380638
960.50 2.380447
960.60 2.380256
960.70 2.380065
960.80 2.379874
960.90 2.379683
961.00 2.379492
961.10 2.379301
961.20 2.37911
961.30 2.37892
961.40 2.378729
961.50 2.378538
961.60 2.378347
961.70 2.378156
961.80 2.377966
961.90 2.377775
962.00 2.377582
962.10 2.377388
962.20 2.377195
962.30 2.377001
962.40 2.376808
962.50 2.376614
962.60 2.376421
962.70 2.376227
962.80 2.376034
962.90 2.37584
963.00 2.375647
963.10 2.375454
963.20 2.37526
963.30 2.375067
963.40 2.374874
963.50 2.374681
963.60 2.374488
963.70 2.374294
963.80 2.374101
963.90 2.373908
964.00 2.373715
964.10 2.373522
964.20 2.373329
964.30 2.373136
964.40 2.372943
964.50 2.37275
964.60 2.372557
964.70 2.372364
964.80 2.372172
964.90 2.371979
965.00 2.371786
965.10 2.371593
965.20 2.371401
965.30 2.371208
965.40 2.371015
965.50 2.370823
965.60 2.37063
965.70 2.370437
965.80 2.370245
965.90 2.370052
966.00 2.36986
966.10 2.369667
966.20 2.369475
966.30 2.369283
966.40 2.36909
966.50 2.368898
966.60 2.368706
966.70 2.368513
966.80 2.368321
966.90 2.368129
967.00 2.367937
967.10 2.367744
967.20 2.367552
967.30 2.36736
967.40 2.367168
967.50 2.366976
967.60 2.366784
967.70 2.366592
967.80 2.3664
967.90 2.366208
968.00 2.366016
968.10 2.365824
968.20 2.365633
968.30 2.365441
968.40 2.365249
968.50 2.365057
968.60 2.364865
968.70 2.364674
968.80 2.364482
968.90 2.36429
969.00 2.364099
969.10 2.363907
969.20 2.363716
969.30 2.363524
969.40 2.363333
969.50 2.363141
969.60 2.36295
969.70 2.362758
969.80 2.362567
969.90 2.362375
970.00 2.362184
970.10 2.361993
970.20 2.361802
970.30 2.36161
970.40 2.361419
970.50 2.361228
970.60 2.361037
970.70 2.360846
970.80 2.360655
970.90 2.360463
971.00 2.360272
971.10 2.360081
971.20 2.35989
971.30 2.359699
971.40 2.359508
971.50 2.359318
971.60 2.359125
971.70 2.358931
971.80 2.358737
971.90 2.358544
972.00 2.35835
972.10 2.358156
972.20 2.357963
972.30 2.357769
972.40 2.357576
972.50 2.357382
972.60 2.357189
972.70 2.356995
972.80 2.356802
972.90 2.356608
973.00 2.356415
973.10 2.356222
973.20 2.356028
973.30 2.355835
973.40 2.355642
973.50 2.355448
973.60 2.355255
973.70 2.355062
973.80 2.354869
973.90 2.354676
974.00 2.354483
974.10 2.35429
974.20 2.354097
974.30 2.353904
974.40 2.353711
974.50 2.353518
974.60 2.353325
974.70 2.353132
974.80 2.352939
974.90 2.352746
975.00 2.352554
975.10 2.352361
975.20 2.352168
975.30 2.351976
975.40 2.351783
975.50 2.35159
975.60 2.351398
975.70 2.351205
975.80 2.351013
975.90 2.35082
976.00 2.350628
976.10 2.350435
976.20 2.350243
976.30 2.35005
976.40 2.349858
976.50 2.349666
976.60 2.349473
976.70 2.349281
976.80 2.349089
976.90 2.348897
977.00 2.348704
977.10 2.348512
977.20 2.34832
977.30 2.348128
977.40 2.347936
977.50 2.347744
977.60 2.347552
977.70 2.34736
977.80 2.347168
977.90 2.346976
978.00 2.346784
978.10 2.346592
978.20 2.3464
978.30 2.346209
978.40 2.346017
978.50 2.345825
978.60 2.345633
978.70 2.345442
978.80 2.34525
978.90 2.345058
979.00 2.344867
979.10 2.344675
979.20 2.344484
979.30 2.344292
979.40 2.344101
979.50 2.343909
979.60 2.343718
979.70 2.343526
979.80 2.343335
979.90 2.343144
980.00 2.342952
980.10 2.342761
980.20 2.34257
980.30 2.342379
980.40 2.342187
980.50 2.341996
980.60 2.341805
980.70 2.341614
980.80 2.341423
980.90 2.341232
981.00 2.341041
981.10 2.34085
981.20 2.340659
981.30 2.340467
981.40 2.340273
981.50 2.340079
981.60 2.339885
981.70 2.339692
981.80 2.339498
981.90 2.339305
982.00 2.339111
982.10 2.338917
982.20 2.338724
982.30 2.33853
982.40 2.338337
982.50 2.338144
982.60 2.33795
982.70 2.337757
982.80 2.337564
982.90 2.33737
983.00 2.337177
983.10 2.336984
983.20 2.336791
983.30 2.336597
983.40 2.336404
983.50 2.336211
983.60 2.336018
983.70 2.335825
983.80 2.335632
983.90 2.335439
984.00 2.335246
984.10 2.335053
984.20 2.33486
984.30 2.334667
984.40 2.334474
984.50 2.334282
984.60 2.334089
984.70 2.333896
984.80 2.333703
984.90 2.333511
985.00 2.333318
985.10 2.333125
985.20 2.332933
985.30 2.33274
985.40 2.332548
985.50 2.332355
985.60 2.332163
985.70 2.33197
985.80 2.331778
985.90 2.331585
986.00 2.331393
986.10 2.331201
986.20 2.331008
986.30 2.330816
986.40 2.330624
986.50 2.330432
986.60 2.330239
986.70 2.330047
986.80 2.329855
986.90 2.329663
987.00 2.329471
987.10 2.329279
987.20 2.329087
987.30 2.328895
987.40 2.328703
987.50 2.328511
987.60 2.328319
987.70 2.328127
987.80 2.327936
987.90 2.327744
988.00 2.327552
988.10 2.32736
988.20 2.327169
988.30 2.326977
988.40 2.326785
988.50 2.326594
988.60 2.326402
988.70 2.326211
988.80 2.326019
988.90 2.325827
989.00 2.325636
989.10 2.325445
989.20 2.325253
989.30 2.325062
989.40 2.32487
989.50 2.324679
989.60 2.324488
989.70 2.324297
989.80 2.324105
989.90 2.323914
990.00 2.323723
990.10 2.323532
990.20 2.323341
990.30 2.32315
990.40 2.322959
990.50 2.322768
990.60 2.322577
990.70 2.322386
990.80 2.322195
990.90 2.322004
991.00 2.321813
991.10 2.321611
991.20 2.32139
991.30 2.321169
991.40 2.320948
991.50 2.320727
991.60 2.320506
991.70 2.320286
991.80 2.320065
991.90 2.319844
992.00 2.319623
992.10 2.319403
992.20 2.319182
992.30 2.318962
992.40 2.318741
992.50 2.318521
992.60 2.3183
992.70 2.31808
992.80 2.317859
992.90 2.317639
993.00 2.317419
993.10 2.317199
993.20 2.316979
993.30 2.316758
993.40 2.316538
993.50 2.316318
993.60 2.316098
993.70 2.315878
993.80 2.315658
993.90 2.315438
994.00 2.315219
994.10 2.314999
994.20 2.314779
994.30 2.314559
994.40 2.31434
994.50 2.31412
994.60 2.3139
994.70 2.313681
994.80 2.313461
994.90 2.313242
995.00 2.313022
995.10 2.312803
995.20 2.312584
995.30 2.312364
995.40 2.312145
995.50 2.311926
995.60 2.311707
995.70 2.311488
995.80 2.311269
995.90 2.311049
996.00 2.31083
996.10 2.310634
996.20 2.310442
996.30 2.31025
996.40 2.310059
996.50 2.309867
996.60 2.309675
996.70 2.309484
996.80 2.309292
996.90 2.3091
997.00 2.308909
997.10 2.308717
997.20 2.308526
997.30 2.308334
997.40 2.308143
997.50 2.307952
997.60 2.30776
997.70 2.307569
997.80 2.307378
997.90 2.307186
998.00 2.306995
998.10 2.306804
998.20 2.306613
998.30 2.306422
998.40 2.306231
998.50 2.30604
998.60 2.305848
998.70 2.305657
998.80 2.305466
998.90 2.305276
999.00 2.305085
999.10 2.304894
999.20 2.304703
999.30 2.304512
999.40 2.304321
999.50 2.30413
999.60 2.30394
999.70 2.303749
999.80 2.303558
999.90 2.303368
1000.00 2.303177
1000.10 2.302986
1000.20 2.302796
1000.30 2.302605
1000.40 2.302415
1000.50 2.302224
1000.60 2.302034
1000.70 2.301843
1000.80 2.301653
1000.90 2.301463
1001.00 2.301265
1001.10 2.301045
1001.20 2.300826
1001.30 2.300606
1001.40 2.300387
1001.50 2.300167
1001.60 2.299948
1001.70 2.299728
1001.80 2.299509
1001.90 2.29929
1002.00 2.299071
1002.10 2.298851
1002.20 2.298632
1002.30 2.298413
1002.40 2.298194
1002.50 2.297975
1002.60 2.297756
1002.70 2.297537
1002.80 2.297318
1002.90 2.297099
1003.00 2.296881
1003.10 2.296662
1003.20 2.296443
1003.30 2.296224
1003.40 2.296006
1003.50 2.295787
1003.60 2.295569
1003.70 2.29535
1003.80 2.295132
1003.90 2.294913
1004.00 2.294695
1004.10 2.294476
1004.20 2.294258
1004.30 2.29404
1004.40 2.293821
1004.50 2.293603
1004.60 2.293385
1004.70 2.293167
1004.80 2.292949
1004.90 2.292731
1005.00 2.292513
1005.10 2.292295
1005.20 2.292077
1005.30 2.291859
1005.40 2.291641
1005.50 2.291424
1005.60 2.291206
1005.70 2.290988
1005.80 2.290771
1005.90 2.290553
1006.00 2.290335
1006.10 2.290118
1006.20 2.2899
1006.30 2.289683
1006.40 2.289466
1006.50 2.289248
1006.60 2.289031
1006.70 2.288814
1006.80 2.288597
1006.90 2.28838
1007.00 2.288162
1007.10 2.287945
1007.20 2.287728
1007.30 2.287511
1007.40 2.287294
1007.50 2.287077
1007.60 2.286861
1007.70 2.286644
1007.80 2.286427
1007.90 2.28621
1008.00 2.285994
1008.10 2.285777
1008.20 2.28556
1008.30 2.285344
1008.40 2.285127
1008.50 2.284911
1008.60 2.284694
1008.70 2.284478
1008.80 2.284261
1008.90 2.284045
1009.00 2.283829
1009.10 2.283612
1009.20 2.283396
1009.30 2.28318
1009.40 2.282964
1009.50 2.282748
1009.60 2.282532
1009.70 2.282316
1009.80 2.2821
1009.90 2.281884
1010.00 2.281668
1010.10 2.281452
1010.20 2.281236
1010.30 2.281021
1010.40 2.280805
1010.50 2.280589
1010.60 2.280374
1010.70 2.280158
1010.80 2.279942
1010.90 2.279727
1011.00 2.279511
1011.10 2.279293
1011.20 2.279075
1011.30 2.278858
1011.40 2.27864
1011.50 2.278422
1011.60 2.278205
1011.70 2.277987
1011.80 2.27777
1011.90 2.277552
1012.00 2.277335
1012.10 2.277117
1012.20 2.2769
1012.30 2.276683
1012.40 2.276465
1012.50 2.276248
1012.60 2.276031
1012.70 2.275814
1012.80 2.275597
1012.90 2.27538
1013.00 2.275163
1013.10 2.274946
1013.20 2.274729
1013.30 2.274512
1013.40 2.274295
1013.50 2.274078
1013.60 2.273861
1013.70 2.273645
1013.80 2.273428
1013.90 2.273211
1014.00 2.272995
1014.10 2.272778
1014.20 2.272562
1014.30 2.272345
1014.40 2.272129
1014.50 2.271912
1014.60 2.271696
1014.70 2.27148
1014.80 2.271263
1014.90 2.271047
1015.00 2.270831
1015.10 2.270615
1015.20 2.270399
1015.30 2.270182
1015.40 2.269966
1015.50 2.26975
1015.60 2.269534
1015.70 2.269319
1015.80 2.269103
1015.90 2.268887
1016.00 2.268671
1016.10 2.268455
1016.20 2.26824
1016.30 2.268024
1016.40 2.267808
1016.50 2.267593
1016.60 2.267377
1016.70 2.267162
1016.80 2.266946
1016.90 2.266731
1017.00 2.266515
1017.10 2.2663
1017.20 2.266085
1017.30 2.265869
1017.40 2.265654
1017.50 2.265439
1017.60 2.265224
1017.70 2.265009
1017.80 2.264794
1017.90 2.264579
1018.00 2.264364
1018.10 2.264149
1018.20 2.263934
1018.30 2.263719
1018.40 2.263504
1018.50 2.26329
1018.60 2.263075
1018.70 2.26286
1018.80 2.262646
1018.90 2.262431
1019.00 2.262216
1019.10 2.262002
1019.20 2.261787
1019.30 2.261573
1019.40 2.261358
1019.50 2.261144
1019.60 2.26093
1019.70 2.260716
1019.80 2.260501
1019.90 2.260287
1020.00 2.260073
1020.10 2.259859
1020.20 2.259645
1020.30 2.259431
1020.40 2.259217
1020.50 2.259003
1020.60 2.258789
1020.70 2.258575
1020.80 2.258361
1020.90 2.258147
1021.00 2.257934
1021.10 2.25772
1021.20 2.257504
1021.30 2.257288
1021.40 2.257072
1021.50 2.256856
1021.60 2.25664
1021.70 2.256425
1021.80 2.256209
1021.90 2.255993
1022.00 2.255778
1022.10 2.255562
1022.20 2.255346
1022.30 2.255131
1022.40 2.254915
1022.50 2.2547
1022.60 2.254485
1022.70 2.254269
1022.80 2.254054
1022.90 2.253839
1023.00 2.253624
1023.10 2.253408
1023.20 2.253193
1023.30 2.252978
1023.40 2.252763
1023.50 2.252548
1023.60 2.252333
1023.70 2.252118
1023.80 2.251903
1023.90 2.251688
1024.00 2.251474
1024.10 2.251259
1024.20 2.251044
1024.30 2.25083
1024.40 2.250615
1024.50 2.2504
1024.60 2.250186
1024.70 2.249971
1024.80 2.249757
1024.90 2.249542
1025.00 2.249328
1025.10 2.249114
1025.20 2.248899
1025.30 2.248685
1025.40 2.248471
1025.50 2.248257
1025.60 2.248042
1025.70 2.247828
1025.80 2.247614
1025.90 2.2474
1026.00 2.247186
1026.10 2.246972
1026.20 2.246758
1026.30 2.246544
1026.40 2.246331
1026.50 2.246117
1026.60 2.245903
1026.70 2.24569
1026.80 2.245476
1026.90 2.245262
1027.00 2.245049
1027.10 2.244835
1027.20 2.244622
1027.30 2.244409
1027.40 2.244195
1027.50 2.243982
1027.60 2.243769
1027.70 2.243555
1027.80 2.243342
1027.90 2.243129
1028.00 2.242916
1028.10 2.242703
1028.20 2.24249
1028.30 2.242277
1028.40 2.242064
1028.50 2.241851
1028.60 2.241638
1028.70 2.241425
1028.80 2.241212
1028.90 2.240999
1029.00 2.240787
1029.10 2.240574
1029.20 2.240361
1029.30 2.240149
1029.40 2.239936
1029.50 2.239724
1029.60 2.239511
1029.70 2.239299
1029.80 2.239086
1029.90 2.238874
1030.00 2.238662
1030.10 2.238449
1030.20 2.238237
1030.30 2.238025
1030.40 2.237813
1030.50 2.237601
1030.60 2.237388
1030.70 2.237176
1030.80 2.236964
1030.90 2.236752
1031.00 2.236541
1031.10 2.236329
1031.20 2.236117
1031.30 2.235905
1031.40 2.235668
1031.50 2.235429
1031.60 2.235191
1031.70 2.234953
1031.80 2.234715
1031.90 2.234477
1032.00 2.234238
1032.10 2.234
1032.20 2.233762
1032.30 2.233524
1032.40 2.233287
1032.50 2.233049
1032.60 2.232811
1032.70 2.232573
1032.80 2.232335
1032.90 2.232098
1033.00 2.23186
1033.10 2.231623
1033.20 2.231385
1033.30 2.231148
1033.40 2.23091
1033.50 2.230673
1033.60 2.230436
1033.70 2.230199
1033.80 2.229961
1033.90 2.229724
1034.00 2.229487
1034.10 2.22925
1034.20 2.229013
1034.30 2.228776
1034.40 2.228539
1034.50 2.228302
1034.60 2.228066
1034.70 2.227829
1034.80 2.227592
1034.90 2.227356
1035.00 2.227119
1035.10 2.226882
1035.20 2.226646
1035.30 2.22641
1035.40 2.226173
1035.50 2.225937
1035.60 2.225701
1035.70 2.225464
1035.80 2.225228
1035.90 2.224992
1036.00 2.224756
1036.10 2.22452
1036.20 2.224284
1036.30 2.224048
1036.40 2.223812
1036.50 2.223586
1036.60 2.223374
1036.70 2.223162
1036.80 2.222951
1036.90 2.222739
1037.00 2.222528
1037.10 2.222317
1037.20 2.222105
1037.30 2.221894
1037.40 2.221683
1037.50 2.221471
1037.60 2.22126
1037.70 2.221049
1037.80 2.220838
1037.90 2.220627
1038.00 2.220416
1038.10 2.220205
1038.20 2.219994
1038.30 2.219783
1038.40 2.219572
1038.50 2.219361
1038.60 2.21915
1038.70 2.21894
1038.80 2.218729
1038.90 2.218518
1039.00 2.218308
1039.10 2.218097
1039.20 2.217886
1039.30 2.217676
1039.40 2.217465
1039.50 2.217255
1039.60 2.217045
1039.70 2.216834
1039.80 2.216624
1039.90 2.216414
1040.00 2.216203
1040.10 2.215993
1040.20 2.215783
1040.30 2.215573
1040.40 2.215363
1040.50 2.215153
1040.60 2.214943
1040.70 2.214733
1040.80 2.214523
1040.90 2.214313
1041.00 2.214103
1041.10 2.213893
1041.20 2.213684
1041.30 2.213474
1041.40 2.213264
1041.50 2.213055
1041.60 2.212845
1041.70 2.212614
1041.80 2.212379
1041.90 2.212143
1042.00 2.211908
1042.10 2.211673
1042.20 2.211438
1042.30 2.211203
1042.40 2.210968
1042.50 2.210733
1042.60 2.210498
1042.70 2.210263
1042.80 2.210028
1042.90 2.209793
1043.00 2.209558
1043.10 2.209324
1043.20 2.209089
1043.30 2.208854
1043.40 2.20862
1043.50 2.208385
1043.60 2.208151
1043.70 2.207917
1043.80 2.207682
1043.90 2.207448
1044.00 2.207214
1044.10 2.206979
1044.20 2.206745
1044.30 2.206511
1044.40 2.206277
1044.50 2.206043
1044.60 2.205809
1044.70 2.205575
1044.80 2.205341
1044.90 2.205108
1045.00 2.204874
1045.10 2.20464
1045.20 2.204406
1045.30 2.204173
1045.40 2.203939
1045.50 2.203706
1045.60 2.203472
1045.70 2.203239
1045.80 2.203005
1045.90 2.202772
1046.00 2.202539
1046.10 2.202306
1046.20 2.202072
1046.30 2.201839
1046.40 2.201606
1046.50 2.201373
1046.60 2.20114
1046.70 2.200907
1046.80 2.200674
1046.90 2.200442
1047.00 2.200209
1047.10 2.199976
1047.20 2.199743
1047.30 2.199511
1047.40 2.199278
1047.50 2.199046
1047.60 2.198813
1047.70 2.198581
1047.80 2.198348
1047.90 2.198116
1048.00 2.197884
1048.10 2.197651
1048.20 2.197419
1048.30 2.197187
1048.40 2.196955
1048.50 2.196723
1048.60 2.196491
1048.70 2.196259
1048.80 2.196027
1048.90 2.195795
1049.00 2.195563
1049.10 2.195332
1049.20 2.1951
1049.30 2.194868
1049.40 2.194637
1049.50 2.194405
1049.60 2.194173
1049.70 2.193942
1049.80 2.193711
1049.90 2.193479
1050.00 2.193248
1050.10 2.193017
1050.20 2.192785
1050.30 2.192554
1050.40 2.192323
1050.50 2.192092
1050.60 2.191861
1050.70 2.19163
1050.80 2.191399
1050.90 2.191168
1051.00 2.190937
1051.10 2.190706
1051.20 2.190476
1051.30 2.190245
1051.40 2.190014
1051.50 2.189784
1051.60 2.189553
1051.70 2.189323
1051.80 2.189092
1051.90 2.188862
1052.00 2.188631
1052.10 2.1884
1052.20 2.188168
1052.30 2.187936
1052.40 2.187704
1052.50 2.187472
1052.60 2.18724
1052.70 2.187008
1052.80 2.186776
1052.90 2.186544
1053.00 2.186312
1053.10 2.186081
1053.20 2.185849
1053.30 2.185618
1053.40 2.185386
1053.50 2.185155
1053.60 2.184923
1053.70 2.184692
1053.80 2.18446
1053.90 2.184229
1054.00 2.183998
1054.10 2.183767
1054.20 2.183535
1054.30 2.183304
1054.40 2.183073
1054.50 2.182842
1054.60 2.182611
1054.70 2.18238
1054.80 2.18215
1054.90 2.181919
1055.00 2.181688
1055.10 2.181457
1055.20 2.181227
1055.30 2.180996
1055.40 2.180765
1055.50 2.180535
1055.60 2.180304
1055.70 2.180074
1055.80 2.179844
1055.90 2.179613
1056.00 2.179383
1056.10 2.179153
1056.20 2.178923
1056.30 2.178692
1056.40 2.178462
1056.50 2.178232
1056.60 2.178002
1056.70 2.177772
1056.80 2.177542
1056.90 2.177313
1057.00 2.177083
1057.10 2.176853
1057.20 2.176623
1057.30 2.176394
1057.40 2.176164
1057.50 2.175935
1057.60 2.175705
1057.70 2.175476
1057.80 2.175246
1057.90 2.175017
1058.00 2.174787
1058.10 2.174558
1058.20 2.174329
1058.30 2.1741
1058.40 2.173871
1058.50 2.173642
1058.60 2.173413
1058.70 2.173184
1058.80 2.172955
1058.90 2.172726
1059.00 2.172497
1059.10 2.172268
1059.20 2.172039
1059.30 2.171811
1059.40 2.171582
1059.50 2.171353
1059.60 2.171125
1059.70 2.170896
1059.80 2.170668
1059.90 2.170439
1060.00 2.170211
1060.10 2.169983
1060.20 2.169754
1060.30 2.169526
1060.40 2.169298
1060.50 2.16907
1060.60 2.168842
1060.70 2.168614
1060.80 2.168386
1060.90 2.168158
1061.00 2.16793
1061.10 2.167702
1061.20 2.167474
1061.30 2.167247
1061.40 2.167019
1061.50 2.166791
1061.60 2.166564
1061.70 2.166336
1061.80 2.166109
1061.90 2.165881
1062.00 2.165654
1062.10 2.165426
1062.20 2.165199
1062.30 2.164972
1062.40 2.164744
1062.50 2.164517
1062.60 2.164289
1062.70 2.16406
1062.80 2.163832
1062.90 2.163603
1063.00 2.163374
1063.10 2.163145
1063.20 2.162917
1063.30 2.162688
1063.40 2.16246
1063.50 2.162231
1063.60 2.162003
1063.70 2.161774
1063.80 2.161546
1063.90 2.161318
1064.00 2.161089
1064.10 2.160861
1064.20 2.160633
1064.30 2.160405
1064.40 2.160177
1064.50 2.159949
1064.60 2.159721
1064.70 2.159493
1064.80 2.159265
1064.90 2.159037
1065.00 2.15881
1065.10 2.158582
1065.20 2.158354
1065.30 2.158127
1065.40 2.157899
1065.50 2.157671
1065.60 2.157444
1065.70 2.157216
1065.80 2.156989
1065.90 2.156762
1066.00 2.156534
1066.10 2.156307
1066.20 2.15608
1066.30 2.155853
1066.40 2.155626
1066.50 2.155399
1066.60 2.155172
1066.70 2.154945
1066.80 2.154718
1066.90 2.154491
1067.00 2.154264
1067.10 2.154037
1067.20 2.153811
1067.30 2.153584
1067.40 2.153357
1067.50 2.153131
1067.60 2.152904
1067.70 2.152678
1067.80 2.152451
1067.90 2.152217
1068.00 2.151969
1068.10 2.151721
1068.20 2.151472
1068.30 2.151224
1068.40 2.150976
1068.50 2.150728
1068.60 2.15048
1068.70 2.150232
1068.80 2.149984
1068.90 2.149736
1069.00 2.149488
1069.10 2.14924
1069.20 2.148992
1069.30 2.148745
1069.40 2.148497
1069.50 2.148249
1069.60 2.148002
1069.70 2.147755
1069.80 2.147507
1069.90 2.14726
1070.00 2.147012
1070.10 2.146765
1070.20 2.146518
1070.30 2.146271
1070.40 2.146024
1070.50 2.145777
1070.60 2.14553
1070.70 2.145283
1070.80 2.145036
1070.90 2.144789
1071.00 2.144542
1071.10 2.144296
1071.20 2.144049
1071.30 2.143802
1071.40 2.143556
1071.50 2.143309
1071.60 2.143063
1071.70 2.142817
1071.80 2.14257
1071.90 2.142324
1072.00 2.142078
1072.10 2.141832
1072.20 2.141586
1072.30 2.141339
1072.40 2.141094
1072.50 2.140848
1072.60 2.140602
1072.70 2.140356
1072.80 2.14011
1072.90 2.139864
1073.00 2.139619
1073.10 2.139373
1073.20 2.139132
1073.30 2.138906
1073.40 2.138681
1073.50 2.138456
1073.60 2.13823
1073.70 2.138005
1073.80 2.13778
1073.90 2.137555
1074.00 2.13733
1074.10 2.137105
1074.20 2.13688
1074.30 2.136655
1074.40 2.13643
1074.50 2.136205
1074.60 2.13598
1074.70 2.135756
1074.80 2.135531
1074.90 2.135306
1075.00 2.135082
1075.10 2.134857
1075.20 2.134633
1075.30 2.134408
1075.40 2.134184
1075.50 2.133959
1075.60 2.133735
1075.70 2.133511
1075.80 2.133287
1075.90 2.133062
1076.00 2.132838
1076.10 2.132614
1076.20 2.13239
1076.30 2.132166
1076.40 2.131942
1076.50 2.131718
1076.60 2.131495
1076.70 2.131271
1076.80 2.131047
1076.90 2.130823
1077.00 2.1306
1077.10 2.130376
1077.20 2.130152
1077.30 2.129929
1077.40 2.129705
1077.50 2.129482
1077.60 2.129258
1077.70 2.129035
1077.80 2.128812
1077.90 2.128589
1078.00 2.128365
1078.10 2.128142
1078.20 2.127919
1078.30 2.127696
1078.40 2.127473
1078.50 2.12725
1078.60 2.127015
1078.70 2.126771
1078.80 2.126527
1078.90 2.126283
1079.00 2.126038
1079.10 2.125794
1079.20 2.12555
1079.30 2.125306
1079.40 2.125062
1079.50 2.124818
1079.60 2.124575
1079.70 2.124331
1079.80 2.124087
1079.90 2.123843
1080.00 2.1236
1080.10 2.123356
1080.20 2.123113
1080.30 2.122869
1080.40 2.122626
1080.50 2.122383
1080.60 2.122139
1080.70 2.121896
1080.80 2.121653
1080.90 2.12141
1081.00 2.121167
1081.10 2.120924
1081.20 2.120681
1081.30 2.120438
1081.40 2.120195
1081.50 2.119952
1081.60 2.119709
1081.70 2.119467
1081.80 2.119224
1081.90 2.118981
1082.00 2.118739
1082.10 2.118496
1082.20 2.118254
1082.30 2.118011
1082.40 2.117769
1082.50 2.117527
1082.60 2.117285
1082.70 2.117042
1082.80 2.1168
1082.90 2.116558
1083.00 2.116316
1083.10 2.116074
1083.20 2.115832
1083.30 2.115591
1083.40 2.115349
1083.50 2.115107
1083.60 2.114865
1083.70 2.114624
1083.80 2.114382
1083.90 2.114141
1084.00 2.113898
1084.10 2.113655
1084.20 2.113412
1084.30 2.113169
1084.40 2.112927
1084.50 2.112684
1084.60 2.112441
1084.70 2.112199
1084.80 2.111956
1084.90 2.111714
1085.00 2.111471
1085.10 2.111229
1085.20 2.110987
1085.30 2.110744
1085.40 2.110502
1085.50 2.11026
1085.60 2.110018
1085.70 2.109776
1085.80 2.109534
1085.90 2.109292
1086.00 2.10905
1086.10 2.108808
1086.20 2.108566
1086.30 2.108325
1086.40 2.108083
1086.50 2.107841
1086.60 2.1076
1086.70 2.107358
1086.80 2.107117
1086.90 2.106875
1087.00 2.106634
1087.10 2.106393
1087.20 2.106151
1087.30 2.10591
1087.40 2.105669
1087.50 2.105428
1087.60 2.105187
1087.70 2.104946
1087.80 2.104705
1087.90 2.104464
1088.00 2.104223
1088.10 2.103983
1088.20 2.103742
1088.30 2.103501
1088.40 2.103261
1088.50 2.10302
1088.60 2.10278
1088.70 2.102539
1088.80 2.102299
1088.90 2.102058
1089.00 2.101818
1089.10 2.101578
1089.20 2.101338
1089.30 2.101097
1089.40 2.100857
1089.50 2.100617
1089.60 2.100377
1089.70 2.100138
1089.80 2.099898
1089.90 2.099658
1090.00 2.099418
1090.10 2.099178
1090.20 2.098939
1090.30 2.098699
1090.40 2.09846
1090.50 2.09822
1090.60 2.097981
1090.70 2.097741
1090.80 2.097502
1090.90 2.097263
1091.00 2.097024
1091.10 2.096784
1091.20 2.096545
1091.30 2.096306
1091.40 2.096067
1091.50 2.095828
1091.60 2.095589
1091.70 2.095351
1091.80 2.095112
1091.90 2.094873
1092.00 2.094634
1092.10 2.094396
1092.20 2.094157
1092.30 2.093919
1092.40 2.09368
1092.50 2.093442
1092.60 2.093203
1092.70 2.092965
1092.80 2.092727
1092.90 2.092489
1093.00 2.09225
1093.10 2.092012
1093.20 2.091774
1093.30 2.091536
1093.40 2.091298
1093.50 2.09106
1093.60 2.090822
1093.70 2.090585
1093.80 2.090347
1093.90 2.090109
1094.00 2.089872
1094.10 2.089634
1094.20 2.089396
1094.30 2.089159
1094.40 2.088921
1094.50 2.088684
1094.60 2.088447
1094.70 2.088209
1094.80 2.087971
1094.90 2.087733
1095.00 2.087494
1095.10 2.087256
1095.20 2.087017
1095.30 2.086779
1095.40 2.08654
1095.50 2.086302
1095.60 2.086064
1095.70 2.085826
1095.80 2.085588
1095.90 2.085349
1096.00 2.085111
1096.10 2.084873
1096.20 2.084635
1096.30 2.084398
1096.40 2.08416
1096.50 2.083922
1096.60 2.083684
1096.70 2.083446
1096.80 2.083209
1096.90 2.082971
1097.00 2.082734
1097.10 2.082496
1097.20 2.082259
1097.30 2.082021
1097.40 2.081784
1097.50 2.081547
1097.60 2.08131
1097.70 2.081072
1097.80 2.080835
1097.90 2.080598
1098.00 2.080361
1098.10 2.080124
1098.20 2.079887
1098.30 2.07965
1098.40 2.079414
1098.50 2.079177
1098.60 2.07894
1098.70 2.078704
1098.80 2.078467
1098.90 2.07823
1099.00 2.077994
1099.10 2.077757
1099.20 2.077521
1099.30 2.077285
1099.40 2.077048
1099.50 2.076812
1099.60 2.076576
1099.70 2.07634
1099.80 2.076104
1099.90 2.075868
1100.00 2.075632
1100.10 2.075396
1100.20 2.07516
1100.30 2.074924
1100.40 2.074688
1100.50 2.074453
1100.60 2.074217
1100.70 2.073981
1100.80 2.073746
1100.90 2.07351
1101.00 2.073275
1101.10 2.073039
1101.20 2.072804
1101.30 2.072569
1101.40 2.072333
1101.50 2.072098
1101.60 2.071863
1101.70 2.071628
1101.80 2.071393
1101.90 2.071158
1102.00 2.070923
1102.10 2.070688
1102.20 2.070453
1102.30 2.070218
1102.40 2.069984
1102.50 2.069749
1102.60 2.069514
1102.70 2.06928
1102.80 2.069045
1102.90 2.068811
1103.00 2.068576
1103.10 2.068342
1103.20 2.068107
1103.30 2.067873
1103.40 2.067639
1103.50 2.067405
1103.60 2.067171
1103.70 2.066936
1103.80 2.066702
1103.90 2.066468
1104.00 2.066235
1104.10 2.066001
1104.20 2.065767
1104.30 2.065533
1104.40 2.065299
1104.50 2.065066
1104.60 2.064832
1104.70 2.064598
1104.80 2.064365
1104.90 2.064131
1105.00 2.063898
1105.10 2.063665
1105.20 2.063431
1105.30 2.063198
1105.40 2.062965
1105.50 2.062732
1105.60 2.062498
1105.70 2.062265
1105.80 2.062021
1105.90 2.061777
1106.00 2.061532
1106.10 2.061288
1106.20 2.061044
1106.30 2.0608
1106.40 2.060556
1106.50 2.060312
1106.60 2.060068
1106.70 2.059825
1106.80 2.059581
1106.90 2.059337
1107.00 2.059094
1107.10 2.05885
1107.20 2.058606
1107.30 2.058363
1107.40 2.058119
1107.50 2.057876
1107.60 2.057633
1107.70 2.05739
1107.80 2.057146
1107.90 2.056903
1108.00 2.05666
1108.10 2.056417
1108.20 2.056174
1108.30 2.055931
1108.40 2.055688
1108.50 2.055445
1108.60 2.055203
1108.70 2.05496
1108.80 2.054717
1108.90 2.054475
1109.00 2.054232
1109.10 2.05399
1109.20 2.053747
1109.30 2.053505
1109.40 2.053262
1109.50 2.05302
1109.60 2.052778
1109.70 2.052536
1109.80 2.052293
1109.90 2.052051
1110.00 2.051809
1110.10 2.051567
1110.20 2.051326
1110.30 2.051084
1110.40 2.050842
1110.50 2.0506
1110.60 2.050358
1110.70 2.050117
1110.80 2.049875
1110.90 2.049634
1111.00 2.049392
1111.10 2.049151
1111.20 2.048909
1111.30 2.048668
1111.40 2.048427
1111.50 2.048186
1111.60 2.047944
1111.70 2.047703
1111.80 2.047462
1111.90 2.047221
1112.00 2.04698
1112.10 2.046739
1112.20 2.046499
1112.30 2.046258
1112.40 2.046017
1112.50 2.045776
1112.60 2.045536
1112.70 2.045295
1112.80 2.045055
1112.90 2.044814
1113.00 2.044574
1113.10 2.044333
1113.20 2.044093
1113.30 2.043853
1113.40 2.043613
1113.50 2.043373
1113.60 2.043132
1113.70 2.042892
1113.80 2.042652
1113.90 2.042412
1114.00 2.042173
1114.10 2.041933
1114.20 2.041693
1114.30 2.041453
1114.40 2.041214
1114.50 2.040974
1114.60 2.040734
1114.70 2.040495
1114.80 2.040255
1114.90 2.040016
1115.00 2.039777
1115.10 2.039537
1115.20 2.039298
1115.30 2.039059
1115.40 2.03882
1115.50 2.038581
1115.60 2.038342
1115.70 2.038103
1115.80 2.037864
1115.90 2.037625
1116.00 2.037386
1116.10 2.037147
1116.20 2.036909
1116.30 2.03667
1116.40 2.036431
1116.50 2.036193
1116.60 2.035954
1116.70 2.035716
1116.80 2.035473
1116.90 2.035223
1117.00 2.034974
1117.10 2.034725
1117.20 2.034476
1117.30 2.034227
1117.40 2.033978
1117.50 2.033729
1117.60 2.033481
1117.70 2.033232
1117.80 2.032983
1117.90 2.032735
1118.00 2.032486
1118.10 2.032237
1118.20 2.031989
1118.30 2.031741
1118.40 2.031492
1118.50 2.031244
1118.60 2.030996
1118.70 2.030748
1118.80 2.030499
1118.90 2.030251
1119.00 2.030003
1119.10 2.029755
1119.20 2.029507
1119.30 2.02926
1119.40 2.029012
1119.50 2.028764
1119.60 2.028516
1119.70 2.028269
1119.80 2.028021
1119.90 2.027774
1120.00 2.027526
1120.10 2.027279
1120.20 2.027032
1120.30 2.026784
1120.40 2.026537
1120.50 2.02629
1120.60 2.026043
1120.70 2.025796
1120.80 2.025549
1120.90 2.025302
1121.00 2.025055
1121.10 2.024808
1121.20 2.024561
1121.30 2.024314
1121.40 2.024068
1121.50 2.023821
1121.60 2.023575
1121.70 2.023328
1121.80 2.023082
1121.90 2.022835
1122.00 2.022589
1122.10 2.022343
1122.20 2.022096
1122.30 2.02185
1122.40 2.021604
1122.50 2.021358
1122.60 2.021112
1122.70 2.020866
1122.80 2.02062
1122.90 2.020375
1123.00 2.020129
1123.10 2.019883
1123.20 2.019637
1123.30 2.019392
1123.40 2.019146
1123.50 2.018901
1123.60 2.018655
1123.70 2.01841
1123.80 2.018165
1123.90 2.017919
1124.00 2.017674
1124.10 2.017429
1124.20 2.017184
1124.30 2.016939
1124.40 2.016694
1124.50 2.016449
1124.60 2.016204
1124.70 2.015959
1124.80 2.015715
1124.90 2.01547
1125.00 2.015225
1125.10 2.014981
1125.20 2.014736
1125.30 2.014492
1125.40 2.014247
1125.50 2.014003
1125.60 2.013758
1125.70 2.013514
1125.80 2.01327
1125.90 2.013026
1126.00 2.012782
1126.10 2.012538
1126.20 2.012294
1126.30 2.01205
1126.40 2.011806
1126.50 2.011562
1126.60 2.011318
1126.70 2.011074
1126.80 2.010831
1126.90 2.010587
1127.00 2.010344
1127.10 2.0101
1127.20 2.009857
1127.30 2.009613
1127.40 2.00937
1127.50 2.009127
1127.60 2.008883
1127.70 2.00864
1127.80 2.008397
1127.90 2.008154
1128.00 2.00791
1128.10 2.007666
1128.20 2.007422
1128.30 2.007178
1128.40 2.006934
1128.50 2.00669
1128.60 2.006446
1128.70 2.006203
1128.80 2.005959
1128.90 2.005715
1129.00 2.005472
1129.10 2.005228
1129.20 2.004985
1129.30 2.004741
1129.40 2.004498
1129.50 2.004255
1129.60 2.004011
1129.70 2.003768
1129.80 2.003525
1129.90 2.003282
1130.00 2.003039
1130.10 2.002796
1130.20 2.002553
1130.30 2.00231
1130.40 2.002067
1130.50 2.001824
1130.60 2.001582
1130.70 2.001339
1130.80 2.001096
1130.90 2.000854
1131.00 2.000611
1131.10 2.000369
1131.20 2.000126
1131.30 1.999884
1131.40 1.999642
1131.50 1.9994
1131.60 1.999157
1131.70 1.998915
1131.80 1.998673
1131.90 1.998431
1132.00 1.998189
1132.10 1.997947
1132.20 1.997705
1132.30 1.997464
1132.40 1.997222
1132.50 1.99698
1132.60 1.996739
1132.70 1.996497
1132.80 1.996255
1132.90 1.996014
1133.00 1.995773
1133.10 1.995531
1133.20 1.99529
1133.30 1.995049
1133.40 1.994807
1133.50 1.994566
1133.60 1.994325
1133.70 1.994084
1133.80 1.993843
1133.90 1.993602
1134.00 1.993361
1134.10 1.99312
1134.20 1.99288
1134.30 1.992639
1134.40 1.992398
1134.50 1.992158
1134.60 1.991917
1134.70 1.991677
1134.80 1.991436
1134.90 1.991196
1135.00 1.990955
1135.10 1.990715
1135.20 1.990475
1135.30 1.990235
1135.40 1.989995
1135.50 1.989755
1135.60 1.989515
1135.70 1.989275
1135.80 1.989035
1135.90 1.988795
1136.00 1.988555
1136.10 1.988315
1136.20 1.988076
1136.30 1.987836
1136.40 1.987596
1136.50 1.987357
1136.60 1.987117
1136.70 1.986878
1136.80 1.986638
1136.90 1.986399
1137.00 1.98616
1137.10 1.985921
1137.20 1.985681
1137.30 1.985442
1137.40 1.985203
1137.50 1.984964
1137.60 1.984725
1137.70 1.984486
1137.80 1.984248
1137.90 1.984009
1138.00 1.98377
1138.10 1.983531
1138.20 1.983293
1138.30 1.983054
1138.40 1.982816
1138.50 1.982577
1138.60 1.982339
1138.70 1.9821
1138.80 1.981862
1138.90 1.981624
1139.00 1.981386
1139.10 1.981148
1139.20 1.980909
1139.30 1.98067
1139.40 1.980431
1139.50 1.980192
1139.60 1.979953
1139.70 1.979714
1139.80 1.979476
1139.90 1.979237
1140.00 1.978998
1140.10 1.978759
1140.20 1.978521
1140.30 1.978282
1140.40 1.978043
1140.50 1.977805
1140.60 1.977567
1140.70 1.977328
1140.80 1.97709
1140.90 1.976852
1141.00 1.976613
1141.10 1.976375
1141.20 1.976137
1141.30 1.975899
1141.40 1.975661
1141.50 1.975423
1141.60 1.975185
1141.70 1.974947
1141.80 1.97471
1141.90 1.974472
1142.00 1.974234
1142.10 1.973997
1142.20 1.973759
1142.30 1.973521
1142.40 1.973284
1142.50 1.973046
1142.60 1.972809
1142.70 1.972572
1142.80 1.972335
1142.90 1.972097
1143.00 1.97186
1143.10 1.971623
1143.20 1.971386
1143.30 1.971149
1143.40 1.970912
1143.50 1.970675
1143.60 1.970438
1143.70 1.970202
1143.80 1.969965
1143.90 1.969728
1144.00 1.969492
1144.10 1.969255
1144.20 1.969018
1144.30 1.968782
1144.40 1.968546
1144.50 1.968309
1144.60 1.968073
1144.70 1.967837
1144.80 1.9676
1144.90 1.967364
1145.00 1.967128
1145.10 1.966892
1145.20 1.966656
1145.30 1.96642
1145.40 1.966184
1145.50 1.965948
1145.60 1.965713
1145.70 1.965477
1145.80 1.965241
1145.90 1.965006
1146.00 1.96477
1146.10 1.964534
1146.20 1.964299
1146.30 1.964064
1146.40 1.963828
1146.50 1.963593
1146.60 1.963358
1146.70 1.963122
1146.80 1.962887
1146.90 1.962652
1147.00 1.962417
1147.10 1.962182
1147.20 1.961947
1147.30 1.961712
1147.40 1.961477
1147.50 1.961242
1147.60 1.961008
1147.70 1.960773
1147.80 1.960538
1147.90 1.960304
1148.00 1.960069
1148.10 1.959835
1148.20 1.9596
1148.30 1.959366
1148.40 1.959132
1148.50 1.958897
1148.60 1.958663
1148.70 1.958429
1148.80 1.958195
1148.90 1.957961
1149.00 1.957727
1149.10 1.957493
1149.20 1.957259
1149.30 1.957025
1149.40 1.956791
1149.50 1.956557
1149.60 1.956324
1149.70 1.95609
1149.80 1.955856
1149.90 1.955623
1150.00 1.955389
1150.10 1.955156
1150.20 1.954923
1150.30 1.954689
1150.40 1.954456
1150.50 1.954223
1150.60 1.953988
1150.70 1.953737
1150.80 1.953485
1150.90 1.953233
1151.00 1.952982
1151.10 1.95273
1151.20 1.952479
1151.30 1.952227
1151.40 1.951976
1151.50 1.951725
1151.60 1.951473
1151.70 1.951222
1151.80 1.950971
1151.90 1.95072
1152.00 1.950469
1152.10 1.950218
1152.20 1.949967
1152.30 1.949717
1152.40 1.949466
1152.50 1.949215
1152.60 1.948964
1152.70 1.948714
1152.80 1.948463
1152.90 1.948213
1153.00 1.947962
1153.10 1.947712
1153.20 1.947462
1153.30 1.947211
1153.40 1.946961
1153.50 1.946711
1153.60 1.946461
1153.70 1.946211
1153.80 1.945961
1153.90 1.945711
1154.00 1.945461
1154.10 1.945212
1154.20 1.944962
1154.30 1.944712
1154.40 1.944463
1154.50 1.944213
1154.60 1.943963
1154.70 1.943714
1154.80 1.943465
1154.90 1.943215
1155.00 1.942966
1155.10 1.942717
1155.20 1.942468
1155.30 1.942219
1155.40 1.94197
1155.50 1.941721
1155.60 1.941472
1155.70 1.941223
1155.80 1.940974
1155.90 1.940725
1156.00 1.940476
1156.10 1.940228
1156.20 1.939979
1156.30 1.939731
1156.40 1.939482
1156.50 1.939234
1156.60 1.938985
1156.70 1.938737
1156.80 1.938489
1156.90 1.938241
1157.00 1.937992
1157.10 1.937744
1157.20 1.937496
1157.30 1.937248
1157.40 1.937
1157.50 1.936752
1157.60 1.936505
1157.70 1.936257
1157.80 1.936009
1157.90 1.935762
1158.00 1.935514
1158.10 1.935266
1158.20 1.935019
1158.30 1.934771
1158.40 1.934524
1158.50 1.934277
1158.60 1.93403
1158.70 1.933782
1158.80 1.933535
1158.90 1.933288
1159.00 1.933041
1159.10 1.932794
1159.20 1.932547
1159.30 1.9323
1159.40 1.932054
1159.50 1.931807
1159.60 1.93156
1159.70 1.931313
1159.80 1.931067
1159.90 1.93082
1160.00 1.930574
1160.10 1.930328
1160.20 1.930081
1160.30 1.929835
1160.40 1.929589
1160.50 1.929342
1160.60 1.929096
1160.70 1.92885
1160.80 1.928604
1160.90 1.928358
1161.00 1.928112
1161.10 1.927867
1161.20 1.927621
1161.30 1.927375
1161.40 1.927129
1161.50 1.926884
1161.60 1.926638
1161.70 1.926393
1161.80 1.926147
1161.90 1.925902
1162.00 1.925656
1162.10 1.925411
1162.20 1.925165
1162.30 1.924919
1162.40 1.924673
1162.50 1.924427
1162.60 1.924181
1162.70 1.923936
1162.80 1.92369
1162.90 1.923444
1163.00 1.923199
1163.10 1.922953
1163.20 1.922708
1163.30 1.922462
1163.40 1.922217
1163.50 1.921971
1163.60 1.921726
1163.70 1.921481
1163.80 1.921236
1163.90 1.920991
1164.00 1.920746
1164.10 1.920501
1164.20 1.920256
1164.30 1.920011
1164.40 1.919766
1164.50 1.919521
1164.60 1.919276
1164.70 1.919032
1164.80 1.918787
1164.90 1.918543
1165.00 1.918298
1165.10 1.918054
1165.20 1.917809
1165.30 1.917565
1165.40 1.917321
1165.50 1.917077
1165.60 1.916832
1165.70 1.916588
1165.80 1.916344
1165.90 1.9161
1166.00 1.915856
1166.10 1.915612
1166.20 1.915369
1166.30 1.915125
1166.40 1.914881
1166.50 1.914637
1166.60 1.914394
1166.70 1.91415
1166.80 1.913907
1166.90 1.913663
1167.00 1.91342
1167.10 1.913177
1167.20 1.912933
1167.30 1.91269
1167.40 1.912447
1167.50 1.912204
1167.60 1.911961
1167.70 1.911718
1167.80 1.911475
1167.90 1.911232
1168.00 1.910989
1168.10 1.910746
1168.20 1.910504
1168.30 1.910261
1168.40 1.910018
1168.50 1.909776
1168.60 1.909533
1168.70 1.909291
1168.80 1.909048
1168.90 1.908806
1169.00 1.908564
1169.10 1.908321
1169.20 1.908079
1169.30 1.907837
1169.40 1.907595
1169.50 1.907353
1169.60 1.907111
1169.70 1.906869
1169.80 1.906627
1169.90 1.906386
1170.00 1.906144
1170.10 1.905902
1170.20 1.90566
1170.30 1.905419
1170.40 1.905177
1170.50 1.904936
1170.60 1.904694
1170.70 1.904453
1170.80 1.904212
1170.90 1.903971
1171.00 1.903729
1171.10 1.903488
1171.20 1.903247
1171.30 1.903006
1171.40 1.902765
1171.50 1.902524
1171.60 1.902283
1171.70 1.902042
1171.80 1.901802
1171.90 1.901561
1172.00 1.90132
1172.10 1.90108
1172.20 1.900839
1172.30 1.900599
1172.40 1.900358
1172.50 1.900118
1172.60 1.899878
1172.70 1.899637
1172.80 1.899397
1172.90 1.899157
1173.00 1.898917
1173.10 1.898677
1173.20 1.898437
1173.30 1.898197
1173.40 1.897957
1173.50 1.897717
1173.60 1.897477
1173.70 1.897238
1173.80 1.896997
1173.90 1.896757
1174.00 1.896516
1174.10 1.896276
1174.20 1.896036
1174.30 1.895796
1174.40 1.895555
1174.50 1.895315
1174.60 1.895075
1174.70 1.894835
1174.80 1.894595
1174.90 1.894355
1175.00 1.894116
1175.10 1.893876
1175.20 1.893636
1175.30 1.893396
1175.40 1.893157
1175.50 1.892917
1175.60 1.892678
1175.70 1.892438
1175.80 1.892199
1175.90 1.891959
1176.00 1.89172
1176.10 1.891481
1176.20 1.891242
1176.30 1.891003
1176.40 1.890764
1176.50 1.890525
1176.60 1.890286
1176.70 1.890047
1176.80 1.889808
1176.90 1.889569
1177.00 1.88933
1177.10 1.889091
1177.20 1.888853
1177.30 1.888614
1177.40 1.888376
1177.50 1.888137
1177.60 1.887899
1177.70 1.88766
1177.80 1.887422
1177.90 1.887184
1178.00 1.886946
1178.10 1.886707
1178.20 1.886469
1178.30 1.886231
1178.40 1.885993
1178.50 1.885755
1178.60 1.885517
1178.70 1.88528
1178.80 1.885042
1178.90 1.884804
1179.00 1.884566
1179.10 1.884329
1179.20 1.884091
1179.30 1.883854
1179.40 1.883616
1179.50 1.883379
1179.60 1.883141
1179.70 1.882904
1179.80 1.882667
1179.90 1.88243
1180.00 1.882192
1180.10 1.881955
1180.20 1.881718
1180.30 1.881481
1180.40 1.881244
1180.50 1.881007
1180.60 1.880771
1180.70 1.880534
1180.80 1.880297
1180.90 1.88006
1181.00 1.879824
1181.10 1.879587
1181.20 1.879351
1181.30 1.879114
1181.40 1.878878
1181.50 1.878641
1181.60 1.878405
1181.70 1.878169
1181.80 1.877933
1181.90 1.877696
1182.00 1.87746
1182.10 1.877224
1182.20 1.876988
1182.30 1.876752
1182.40 1.876516
1182.50 1.876281
1182.60 1.876045
1182.70 1.875809
1182.80 1.875573
1182.90 1.875338
1183.00 1.875102
1183.10 1.874867
1183.20 1.874631
1183.30 1.874396
1183.40 1.874161
1183.50 1.873925
1183.60 1.87369
1183.70 1.873455
1183.80 1.87322
1183.90 1.872985
1184.00 1.872749
1184.10 1.872514
1184.20 1.87228
1184.30 1.872045
1184.40 1.87181
1184.50 1.871575
1184.60 1.87134
1184.70 1.871106
1184.80 1.870871
1184.90 1.870636
1185.00 1.870402
1185.10 1.870168
1185.20 1.869933
1185.30 1.869699
1185.40 1.869464
1185.50 1.86923
1185.60 1.868995
1185.70 1.86876
1185.80 1.868525
1185.90 1.86829
1186.00 1.868055
1186.10 1.867821
1186.20 1.867586
1186.30 1.867351
1186.40 1.867117
1186.50 1.866882
1186.60 1.866648
1186.70 1.866413
1186.80 1.866179
1186.90 1.865945
1187.00 1.86571
1187.10 1.865476
1187.20 1.865242
1187.30 1.865008
1187.40 1.864774
1187.50 1.86454
1187.60 1.864306
1187.70 1.864072
1187.80 1.863838
1187.90 1.863605
1188.00 1.863371
1188.10 1.863137
1188.20 1.862903
1188.30 1.86267
1188.40 1.862436
1188.50 1.862203
1188.60 1.861969
1188.70 1.861736
1188.80 1.861503
1188.90 1.86127
1189.00 1.861036
1189.10 1.860803
1189.20 1.86057
1189.30 1.860337
1189.40 1.860104
1189.50 1.859871
1189.60 1.859638
1189.70 1.859405
1189.80 1.859172
1189.90 1.85894
1190.00 1.858707
1190.10 1.858474
1190.20 1.858242
1190.30 1.858009
1190.40 1.857777
1190.50 1.857544
1190.60 1.857312
1190.70 1.85708
1190.80 1.856847
1190.90 1.856615
1191.00 1.856383
1191.10 1.856151
1191.20 1.855919
1191.30 1.855687
1191.40 1.855452
1191.50 1.855205
1191.60 1.854957
1191.70 1.854709
1191.80 1.854461
1191.90 1.854214
1192.00 1.853966
1192.10 1.853719
1192.20 1.853471
1192.30 1.853224
1192.40 1.852977
1192.50 1.85273
1192.60 1.852482
1192.70 1.852235
1192.80 1.851988
1192.90 1.851741
1193.00 1.851494
1193.10 1.851247
1193.20 1.851
1193.30 1.850754
1193.40 1.850507
1193.50 1.85026
1193.60 1.850014
1193.70 1.849767
1193.80 1.849521
1193.90 1.849274
1194.00 1.849028
1194.10 1.848781
1194.20 1.848535
1194.30 1.848289
1194.40 1.848043
1194.50 1.847797
1194.60 1.84755
1194.70 1.847304
1194.80 1.847059
1194.90 1.846813
1195.00 1.846567
1195.10 1.846321
1195.20 1.846075
1195.30 1.84583
1195.40 1.845584
1195.50 1.845338
1195.60 1.845093
1195.70 1.844848
1195.80 1.844602
1195.90 1.844357
1196.00 1.844112
1196.10 1.843866
1196.20 1.843621
1196.30 1.843376
1196.40 1.843131
1196.50 1.842886
1196.60 1.842641
1196.70 1.842396
1196.80 1.842151
1196.90 1.841907
1197.00 1.841662
1197.10 1.841417
1197.20 1.841173
1197.30 1.840928
1197.40 1.840683
1197.50 1.840438
1197.60 1.840193
1197.70 1.839948
1197.80 1.839703
1197.90 1.839458
1198.00 1.839214
1198.10 1.838969
1198.20 1.838724
1198.30 1.83848
1198.40 1.838235
1198.50 1.837991
1198.60 1.837746
1198.70 1.837502
1198.80 1.837257
1198.90 1.837013
1199.00 1.836769
1199.10 1.836525
1199.20 1.836281
1199.30 1.836037
1199.40 1.835793
1199.50 1.835549
1199.60 1.835305
1199.70 1.835061
1199.80 1.834817
1199.90 1.834574
1200.00 1.83433
