# Version 2.1 - nm, norm@500 to 1, cut digits, bergeron_He_9000_80.dat_9000
# Wavelength(nm)  Flambda(ergs/cm^s/s/nm)
300.00 1.648548
300.10 1.648677
300.20 1.648816
300.30 1.648935
300.40 1.648929
300.50 1.648923
300.60 1.648916
300.70 1.648909
300.80 1.648902
300.90 1.648894
301.00 1.648886
301.10 1.648878
301.20 1.648869
301.30 1.64886
301.40 1.648851
301.50 1.648841
301.60 1.648831
301.70 1.64882
301.80 1.648809
301.90 1.648798
302.00 1.648787
302.10 1.648814
302.20 1.648845
302.30 1.648876
302.40 1.648906
302.50 1.648936
302.60 1.648965
302.70 1.648995
302.80 1.649023
302.90 1.649052
303.00 1.64908
303.10 1.649107
303.20 1.649134
303.30 1.64916
303.40 1.649172
303.50 1.649184
303.60 1.649196
303.70 1.649207
303.80 1.649218
303.90 1.649228
304.00 1.649238
304.10 1.649248
304.20 1.649258
304.30 1.649267
304.40 1.649275
304.50 1.649284
304.60 1.649301
304.70 1.649318
304.80 1.649336
304.90 1.649353
305.00 1.64937
305.10 1.649386
305.20 1.649402
305.30 1.649417
305.40 1.649432
305.50 1.649447
305.60 1.649462
305.70 1.649476
305.80 1.649489
305.90 1.649503
306.00 1.649515
306.10 1.649528
306.20 1.64954
306.30 1.649552
306.40 1.649526
306.50 1.649489
306.60 1.649451
306.70 1.649413
306.80 1.649375
306.90 1.649336
307.00 1.649298
307.10 1.649258
307.20 1.649219
307.30 1.649179
307.40 1.649139
307.50 1.649099
307.60 1.649058
307.70 1.649017
307.80 1.648976
307.90 1.648935
308.00 1.648893
308.10 1.648851
308.20 1.648808
308.30 1.648766
308.40 1.648723
308.50 1.648679
308.60 1.648636
308.70 1.648592
308.80 1.648616
308.90 1.648832
309.00 1.648763
309.10 1.648693
309.20 1.648623
309.30 1.648553
309.40 1.648484
309.50 1.648419
309.60 1.648354
309.70 1.648289
309.80 1.648224
309.90 1.648159
310.00 1.648093
310.10 1.648027
310.20 1.647961
310.30 1.647894
310.40 1.647841
310.50 1.647802
310.60 1.647763
310.70 1.647723
310.80 1.647684
310.90 1.647643
311.00 1.647651
311.10 1.647657
311.20 1.647664
311.30 1.647644
311.40 1.647553
311.50 1.64746
311.60 1.647368
311.70 1.647275
311.80 1.647183
311.90 1.647089
312.00 1.646996
312.10 1.646903
312.20 1.646617
312.30 1.646617
312.40 1.646881
312.50 1.646787
312.60 1.646583
312.70 1.646378
312.80 1.646174
312.90 1.6461
313.00 1.646168
313.10 1.646236
313.20 1.646304
313.30 1.646333
313.40 1.646257
313.50 1.64618
313.60 1.646103
313.70 1.646025
313.80 1.645948
313.90 1.64587
314.00 1.645792
314.10 1.645654
314.20 1.645515
314.30 1.645377
314.40 1.645238
314.50 1.645099
314.60 1.64496
314.70 1.64482
314.80 1.644705
314.90 1.644684
315.00 1.644691
315.10 1.644554
315.20 1.644416
315.30 1.644279
315.40 1.644141
315.50 1.644004
315.60 1.643866
315.70 1.643792
315.80 1.643719
315.90 1.643645
316.00 1.64357
316.10 1.643689
316.20 1.643807
316.30 1.643539
316.40 1.643657
316.50 1.643388
316.60 1.643505
316.70 1.643237
316.80 1.642968
316.90 1.642892
317.00 1.642815
317.10 1.642739
317.20 1.642662
317.30 1.642507
317.40 1.642358
317.50 1.642222
317.60 1.642086
317.70 1.641949
317.80 1.641813
317.90 1.641785
318.00 1.641522
318.10 1.641444
318.20 1.641365
318.30 1.641285
318.40 1.641255
318.50 1.641366
318.60 1.64118
318.70 1.640909
318.80 1.640639
318.90 1.640483
319.00 1.640395
319.10 1.640504
319.20 1.640525
319.30 1.640298
319.40 1.640072
319.50 1.639845
319.60 1.640198
319.70 1.639971
319.80 1.639744
319.90 1.639517
320.00 1.639269
320.10 1.638998
320.20 1.639118
320.30 1.638847
320.40 1.638576
320.50 1.63883
320.60 1.638574
320.70 1.638677
320.80 1.638601
320.90 1.638329
321.00 1.638057
321.10 1.637785
321.20 1.638138
321.30 1.638024
321.40 1.637909
321.50 1.637794
321.60 1.63768
321.70 1.637565
321.80 1.637258
321.90 1.636744
322.00 1.636905
322.10 1.636721
322.20 1.636537
322.30 1.636353
322.40 1.636169
322.50 1.635985
322.60 1.635801
322.70 1.635617
322.80 1.635998
322.90 1.635839
323.00 1.63568
323.10 1.635521
323.20 1.635362
323.30 1.635203
323.40 1.635043
323.50 1.634884
323.60 1.634724
323.70 1.634565
323.80 1.634405
323.90 1.634245
324.00 1.634022
324.10 1.6338
324.20 1.633577
324.30 1.633395
324.40 1.633309
324.50 1.6332
324.60 1.633091
324.70 1.632982
324.80 1.632873
324.90 1.632764
325.00 1.632655
325.10 1.632545
325.20 1.632393
325.30 1.632152
325.40 1.631911
325.50 1.63174
325.60 1.631654
325.70 1.631569
325.80 1.631483
325.90 1.631288
326.00 1.630976
326.10 1.630663
326.20 1.630351
326.30 1.630159
326.40 1.63031
326.50 1.630109
326.60 1.629908
326.70 1.629707
326.80 1.629506
326.90 1.629305
327.00 1.629104
327.10 1.628902
327.20 1.628701
327.30 1.6285
327.40 1.628298
327.50 1.628097
327.60 1.627895
327.70 1.627694
327.80 1.627492
327.90 1.627579
328.00 1.627701
328.10 1.627481
328.20 1.627262
328.30 1.627042
328.40 1.626822
328.50 1.626631
328.60 1.626446
328.70 1.626261
328.80 1.626072
328.90 1.625868
329.00 1.625665
329.10 1.625461
329.20 1.625257
329.30 1.625054
329.40 1.62485
329.50 1.624646
329.60 1.624442
329.70 1.624238
329.80 1.624034
329.90 1.62383
330.00 1.623677
330.10 1.623585
330.20 1.623493
330.30 1.623401
330.40 1.623251
330.50 1.623037
330.60 1.622823
330.70 1.62261
330.80 1.622396
330.90 1.622182
331.00 1.621968
331.10 1.621754
331.20 1.621541
331.30 1.621327
331.40 1.621113
331.50 1.620936
331.60 1.620803
331.70 1.620671
331.80 1.620475
331.90 1.620277
332.00 1.620078
332.10 1.619879
332.20 1.619681
332.30 1.619482
332.40 1.619283
332.50 1.619084
332.60 1.618885
332.70 1.618686
332.80 1.618487
332.90 1.618287
333.00 1.618088
333.10 1.617886
333.20 1.617679
333.30 1.617473
333.40 1.617266
333.50 1.61706
333.60 1.616853
333.70 1.616646
333.80 1.61644
333.90 1.616233
334.00 1.616026
334.10 1.615788
334.20 1.615512
334.30 1.615236
334.40 1.61496
334.50 1.614684
334.60 1.614409
334.70 1.614419
334.80 1.614451
334.90 1.614012
335.00 1.613574
335.10 1.613717
335.20 1.613441
335.30 1.612942
335.40 1.61301
335.50 1.612991
335.60 1.612715
335.70 1.612216
335.80 1.612283
335.90 1.612195
336.00 1.611919
336.10 1.611643
336.20 1.611367
336.30 1.611091
336.40 1.610815
336.50 1.610539
336.60 1.610263
336.70 1.609988
336.80 1.609712
336.90 1.609509
337.00 1.609395
337.10 1.60928
337.20 1.609166
337.30 1.608987
337.40 1.608716
337.50 1.608445
337.60 1.608173
337.70 1.607902
337.80 1.607631
337.90 1.607408
338.00 1.607242
338.10 1.607076
338.20 1.60691
338.30 1.606745
338.40 1.606549
338.50 1.606283
338.60 1.606016
338.70 1.60575
338.80 1.605483
338.90 1.605217
339.00 1.60495
339.10 1.604684
339.20 1.604418
339.30 1.604153
339.40 1.603892
339.50 1.603646
339.60 1.60342
339.70 1.603194
339.80 1.602968
339.90 1.602742
340.00 1.602516
340.10 1.60229
340.20 1.602064
340.30 1.601838
340.40 1.601612
340.50 1.601386
340.60 1.60116
340.70 1.600934
340.80 1.600693
340.90 1.600432
341.00 1.600164
341.10 1.599889
341.20 1.599614
341.30 1.599339
341.40 1.599065
341.50 1.59879
341.60 1.598515
341.70 1.598241
341.80 1.598018
341.90 1.59786
342.00 1.597702
342.10 1.597544
342.20 1.597231
342.30 1.596676
342.40 1.59634
342.50 1.596181
342.60 1.596021
342.70 1.595862
342.80 1.595702
342.90 1.595542
343.00 1.595328
343.10 1.595047
343.20 1.594766
343.30 1.594485
343.40 1.594207
343.50 1.593933
343.60 1.593659
343.70 1.593385
343.80 1.593111
343.90 1.592837
344.00 1.592563
344.10 1.592289
344.20 1.592016
344.30 1.591742
344.40 1.591468
344.50 1.591195
344.60 1.590671
344.70 1.590722
344.80 1.590124
344.90 1.590175
345.00 1.589827
345.10 1.589554
345.20 1.589284
345.30 1.58902
345.40 1.588755
345.50 1.588476
345.60 1.588188
345.70 1.587915
345.80 1.587642
345.90 1.587369
346.00 1.587096
346.10 1.586823
346.20 1.58655
346.30 1.586278
346.40 1.586005
346.50 1.585732
346.60 1.58546
346.70 1.585187
346.80 1.584915
346.90 1.584642
347.00 1.58437
347.10 1.584097
347.20 1.583831
347.30 1.583574
347.40 1.583318
347.50 1.583061
347.60 1.582804
347.70 1.582547
347.80 1.58229
347.90 1.582033
348.00 1.581777
348.10 1.58152
348.20 1.581263
348.30 1.581007
348.40 1.58075
348.50 1.580494
348.60 1.580237
348.70 1.579844
348.80 1.579476
348.90 1.579204
349.00 1.578933
349.10 1.578661
349.20 1.57839
349.30 1.578119
349.40 1.577848
349.50 1.577577
349.60 1.577306
349.70 1.577035
349.80 1.576764
349.90 1.576493
350.00 1.576222
350.10 1.575951
350.20 1.57568
350.30 1.575409
350.40 1.575135
350.50 1.574862
350.60 1.574588
350.70 1.574315
350.80 1.574042
350.90 1.573769
351.00 1.573495
351.10 1.573222
351.20 1.572949
351.30 1.572676
351.40 1.572391
351.50 1.572082
351.60 1.571774
351.70 1.571465
351.80 1.571157
351.90 1.570849
352.00 1.570541
352.10 1.570233
352.20 1.569775
352.30 1.569372
352.40 1.56907
352.50 1.568768
352.60 1.568467
352.70 1.568165
352.80 1.567864
352.90 1.567562
353.00 1.567261
353.10 1.56696
353.20 1.566658
353.30 1.566357
353.40 1.566056
353.50 1.565844
353.60 1.565653
353.70 1.565463
353.80 1.565272
353.90 1.56503
354.00 1.564696
354.10 1.564363
354.20 1.564029
354.30 1.563696
354.40 1.563363
354.50 1.563029
354.60 1.562697
354.70 1.562364
354.80 1.562034
354.90 1.56171
355.00 1.561385
355.10 1.561061
355.20 1.560737
355.30 1.560426
355.40 1.560115
355.50 1.559804
355.60 1.559493
355.70 1.559153
355.80 1.5588
355.90 1.55865
356.00 1.558431
356.10 1.558103
356.20 1.557776
356.30 1.557449
356.40 1.557122
356.50 1.556795
356.60 1.556468
356.70 1.556142
356.80 1.555815
356.90 1.555489
357.00 1.555163
357.10 1.554837
357.20 1.554511
357.30 1.554185
357.40 1.553857
357.50 1.553527
357.60 1.553197
357.70 1.552867
357.80 1.552547
357.90 1.552228
358.00 1.551931
358.10 1.551641
358.20 1.551351
358.30 1.551061
358.40 1.550771
358.50 1.550481
358.60 1.550191
358.70 1.549901
358.80 1.549611
358.90 1.549322
359.00 1.549019
359.10 1.548693
359.20 1.548364
359.30 1.548015
359.40 1.547667
359.50 1.54742
359.60 1.547199
359.70 1.546978
359.80 1.54657
359.90 1.546162
360.00 1.545791
360.10 1.545487
360.20 1.545182
360.30 1.544878
360.40 1.544574
360.50 1.54427
360.60 1.544173
360.70 1.543762
360.80 1.54335
360.90 1.54294
361.00 1.54275
361.10 1.542435
361.20 1.541844
361.30 1.541582
361.40 1.54129
361.50 1.541058
361.60 1.540418
361.70 1.540156
361.80 1.539931
361.90 1.53977
362.00 1.53961
362.10 1.539224
362.20 1.538822
362.30 1.538488
362.40 1.538154
362.50 1.537821
362.60 1.537488
362.70 1.537069
362.80 1.536482
362.90 1.536218
363.00 1.535955
363.10 1.535644
363.20 1.535332
363.30 1.535179
363.40 1.534918
363.50 1.534658
363.60 1.534106
363.70 1.533878
363.80 1.533294
363.90 1.533006
364.00 1.532719
364.10 1.532431
364.20 1.532144
364.30 1.531672
364.40 1.531154
364.50 1.530901
364.60 1.530639
364.70 1.530378
364.80 1.530117
364.90 1.529858
365.00 1.529599
365.10 1.529051
365.20 1.528792
365.30 1.528244
365.40 1.527986
365.50 1.527728
365.60 1.527469
365.70 1.527158
365.80 1.526848
365.90 1.526374
366.00 1.52586
366.10 1.525593
366.20 1.525325
366.30 1.525058
366.40 1.52479
366.50 1.524566
366.60 1.52374
366.70 1.523562
366.80 1.523383
366.90 1.523118
367.00 1.5227
367.10 1.522282
367.20 1.521865
367.30 1.521448
367.40 1.521031
367.50 1.520793
367.60 1.520601
367.70 1.520224
367.80 1.519848
367.90 1.519472
368.00 1.519291
368.10 1.51875
368.20 1.518442
368.30 1.51814
368.40 1.517837
368.50 1.517535
368.60 1.517233
368.70 1.516931
368.80 1.516628
368.90 1.516139
369.00 1.515819
369.10 1.515623
369.20 1.514808
369.30 1.514554
369.40 1.5143
369.50 1.514045
369.60 1.513788
369.70 1.513531
369.80 1.513171
369.90 1.51281
370.00 1.51245
370.10 1.511957
370.20 1.511697
370.30 1.511444
370.40 1.5109
370.50 1.510654
370.60 1.510127
370.70 1.509874
370.80 1.509618
370.90 1.509362
371.00 1.508833
371.10 1.508301
371.20 1.508046
371.30 1.507791
371.40 1.507172
371.50 1.506881
371.60 1.506591
371.70 1.5063
371.80 1.50601
371.90 1.505719
372.00 1.505074
372.10 1.504664
372.20 1.504319
372.30 1.503975
372.40 1.503631
372.50 1.503287
372.60 1.502944
372.70 1.5026
372.80 1.502347
372.90 1.502093
373.00 1.501569
373.10 1.501043
373.20 1.500793
373.30 1.500543
373.40 1.500292
373.50 1.499766
373.60 1.499516
373.70 1.49899
373.80 1.498861
373.90 1.49849
374.00 1.498103
374.10 1.497715
374.20 1.497328
374.30 1.496941
374.40 1.496486
374.50 1.49643
374.60 1.496054
374.70 1.495669
374.80 1.495283
374.90 1.494899
375.00 1.494467
375.10 1.494036
375.20 1.493605
375.30 1.493279
375.40 1.492953
375.50 1.492627
375.60 1.492301
375.70 1.491975
375.80 1.49165
375.90 1.491324
376.00 1.491071
376.10 1.490637
376.20 1.490201
376.30 1.489765
376.40 1.48933
376.50 1.488902
376.60 1.488487
376.70 1.488072
376.80 1.487723
376.90 1.48744
377.00 1.487157
377.10 1.486874
377.20 1.486556
377.30 1.486106
377.40 1.485656
377.50 1.485207
377.60 1.484891
377.70 1.484575
377.80 1.484259
377.90 1.483944
378.00 1.48344
378.10 1.483089
378.20 1.482741
378.30 1.482394
378.40 1.482048
378.50 1.481701
378.60 1.481355
378.70 1.481008
378.80 1.480662
378.90 1.480303
379.00 1.47992
379.10 1.479569
379.20 1.479218
379.30 1.478825
379.40 1.478392
379.50 1.477958
379.60 1.477567
379.70 1.477226
379.80 1.476839
379.90 1.476452
380.00 1.476065
380.10 1.475678
380.20 1.475292
380.30 1.474905
380.40 1.474519
380.50 1.474133
380.60 1.47404
380.70 1.473629
380.80 1.473218
380.90 1.472807
381.00 1.472397
381.10 1.471956
381.20 1.471619
381.30 1.471242
381.40 1.470996
381.50 1.470497
381.60 1.470068
381.70 1.469786
381.80 1.469409
381.90 1.469168
382.00 1.468399
382.10 1.468159
382.20 1.468025
382.30 1.467521
382.40 1.467056
382.50 1.466649
382.60 1.466242
382.70 1.465922
382.80 1.465612
382.90 1.465214
383.00 1.464817
383.10 1.46442
383.20 1.464007
383.30 1.463534
383.40 1.463244
383.50 1.463231
383.60 1.462505
383.70 1.462157
383.80 1.461809
383.90 1.461462
384.00 1.461114
384.10 1.460767
384.20 1.46042
384.30 1.460073
384.40 1.459703
384.50 1.459308
384.60 1.458914
384.70 1.458521
384.80 1.458051
384.90 1.457449
385.00 1.457139
385.10 1.456839
385.20 1.456708
385.30 1.456216
385.40 1.455774
385.50 1.455382
385.60 1.45499
385.70 1.454598
385.80 1.454194
385.90 1.453744
386.00 1.453326
386.10 1.452943
386.20 1.45259
386.30 1.452237
386.40 1.451812
386.50 1.451663
386.60 1.451216
386.70 1.450853
386.80 1.450361
386.90 1.449998
387.00 1.449763
387.10 1.449027
387.20 1.448781
387.30 1.448547
387.40 1.447933
387.50 1.447795
387.60 1.447414
387.70 1.447052
387.80 1.446691
387.90 1.44633
388.00 1.445888
388.10 1.445221
388.20 1.445073
388.30 1.444654
388.40 1.444235
388.50 1.443859
388.60 1.44347
388.70 1.443189
388.80 1.442688
388.90 1.442265
389.00 1.442033
389.10 1.441502
389.20 1.441282
389.30 1.440921
389.40 1.440442
389.50 1.44003
389.60 1.439628
389.70 1.43901
389.80 1.438618
389.90 1.438225
390.00 1.437833
390.10 1.437441
390.20 1.437049
390.30 1.436687
390.40 1.436358
390.50 1.43603
390.60 1.435702
390.70 1.435374
390.80 1.434985
390.90 1.434536
391.00 1.434012
391.10 1.433769
391.20 1.433422
391.30 1.432848
391.40 1.432451
391.50 1.432055
391.60 1.431659
391.70 1.431264
391.80 1.430868
391.90 1.430536
392.00 1.430262
392.10 1.429967
392.20 1.429633
392.30 1.429075
392.40 1.428678
392.50 1.428451
392.60 1.427723
392.70 1.427496
392.80 1.427107
392.90 1.426636
393.00 1.426176
393.10 1.425761
393.20 1.42541
393.30 1.425184
393.40 1.424914
393.50 1.424189
393.60 1.423964
393.70 1.423602
393.80 1.42306
393.90 1.422835
394.00 1.422565
394.10 1.421962
394.20 1.421493
394.30 1.421113
394.40 1.420714
394.50 1.420449
394.60 1.420006
394.70 1.4196
394.80 1.419336
394.90 1.419057
395.00 1.41841
395.10 1.418115
395.20 1.417655
395.30 1.41726
395.40 1.416864
395.50 1.416527
395.60 1.416212
395.70 1.415873
395.80 1.415467
395.90 1.415062
396.00 1.414629
396.10 1.413981
396.20 1.413513
396.30 1.413311
396.40 1.412757
396.50 1.412456
396.60 1.412314
396.70 1.411774
396.80 1.411381
396.90 1.410719
397.00 1.410449
397.10 1.410146
397.20 1.409627
397.30 1.40938
397.40 1.408978
397.50 1.408576
397.60 1.408178
397.70 1.407816
397.80 1.407454
397.90 1.407046
398.00 1.406513
398.10 1.405981
398.20 1.405554
398.30 1.405247
398.40 1.40494
398.50 1.404608
398.60 1.404005
398.70 1.403617
398.80 1.40331
398.90 1.402989
399.00 1.402645
399.10 1.401972
399.20 1.401603
399.30 1.401234
399.40 1.400865
399.50 1.400497
399.60 1.400111
399.70 1.399719
399.80 1.399327
399.90 1.398935
400.00 1.398545
400.10 1.398217
400.20 1.397618
400.30 1.397225
400.40 1.396907
400.50 1.396487
400.60 1.396141
400.70 1.395925
400.80 1.395358
400.90 1.395142
401.00 1.394447
401.10 1.394231
401.20 1.393912
401.30 1.393321
401.40 1.392885
401.50 1.392546
401.60 1.392208
401.70 1.391882
401.80 1.391289
401.90 1.390846
402.00 1.3904
402.10 1.390168
402.20 1.389954
402.30 1.389263
402.40 1.389049
402.50 1.388359
402.60 1.388145
402.70 1.387932
402.80 1.387243
402.90 1.386935
403.00 1.386721
403.10 1.386129
403.20 1.385916
403.30 1.385228
403.40 1.384914
403.50 1.384551
403.60 1.384156
403.70 1.383905
403.80 1.383228
403.90 1.382812
404.00 1.382323
404.10 1.382112
404.20 1.381664
404.30 1.381217
404.40 1.381006
404.50 1.380559
404.60 1.380112
404.70 1.379901
404.80 1.379233
404.90 1.379009
405.00 1.378328
405.10 1.377916
405.20 1.377572
405.30 1.377228
405.40 1.376861
405.50 1.376495
405.60 1.376129
405.70 1.375763
405.80 1.375398
405.90 1.375032
406.00 1.374544
406.10 1.374055
406.20 1.373567
406.30 1.373079
406.40 1.372632
406.50 1.372495
406.60 1.372169
406.70 1.37164
406.80 1.371148
406.90 1.370621
407.00 1.370227
407.10 1.369833
407.20 1.36944
407.30 1.369046
407.40 1.368653
407.50 1.36826
407.60 1.367868
407.70 1.367475
407.80 1.367083
407.90 1.36669
408.00 1.366274
408.10 1.365807
408.20 1.365379
408.30 1.365012
408.40 1.364645
408.50 1.364521
408.60 1.364013
408.70 1.363505
408.80 1.363039
408.90 1.362839
409.00 1.362438
409.10 1.362038
409.20 1.361637
409.30 1.361237
409.40 1.360834
409.50 1.360333
409.60 1.359831
409.70 1.359339
409.80 1.358888
409.90 1.358444
410.00 1.358227
410.10 1.357947
410.20 1.357504
410.30 1.357022
410.40 1.356569
410.50 1.356209
410.60 1.35585
410.70 1.355468
410.80 1.354993
410.90 1.354518
411.00 1.354098
411.10 1.353698
411.20 1.353298
411.30 1.352925
411.40 1.35265
411.50 1.352154
411.60 1.351658
411.70 1.351176
411.80 1.350747
411.90 1.3505
412.00 1.350072
412.10 1.349758
412.20 1.349217
412.30 1.34864
412.40 1.348378
412.50 1.348162
412.60 1.347508
412.70 1.347137
412.80 1.346837
412.90 1.346456
413.00 1.345869
413.10 1.345486
413.20 1.345104
413.30 1.344722
413.40 1.344341
413.50 1.343905
413.60 1.343337
413.70 1.343025
413.80 1.342714
413.90 1.342403
414.00 1.342066
414.10 1.341643
414.20 1.341166
414.30 1.340518
414.40 1.340231
414.50 1.339709
414.60 1.339531
414.70 1.339109
414.80 1.338688
414.90 1.338267
415.00 1.337846
415.10 1.337425
415.20 1.337018
415.30 1.336653
415.40 1.336288
415.50 1.33592
415.60 1.335437
415.70 1.334955
415.80 1.334505
415.90 1.334157
416.00 1.333809
416.10 1.333445
416.20 1.333018
416.30 1.332591
416.40 1.332165
416.50 1.331739
416.60 1.331322
416.70 1.330898
416.80 1.33026
416.90 1.330065
417.00 1.329428
417.10 1.32924
417.20 1.328825
417.30 1.328408
417.40 1.327928
417.50 1.327448
417.60 1.327013
417.70 1.326751
417.80 1.326337
417.90 1.325923
418.00 1.32551
418.10 1.325097
418.20 1.324684
418.30 1.324264
418.40 1.323689
418.50 1.323295
418.60 1.322902
418.70 1.322509
418.80 1.322117
418.90 1.321724
419.00 1.321332
419.10 1.32094
419.20 1.320548
419.30 1.320154
419.40 1.31968
419.50 1.319206
419.60 1.31876
419.70 1.318428
419.80 1.318095
419.90 1.317744
420.00 1.317331
420.10 1.316918
420.20 1.316505
420.30 1.316092
420.40 1.31568
420.50 1.315268
420.60 1.314856
420.70 1.314445
420.80 1.314034
420.90 1.313621
421.00 1.313153
421.10 1.312686
421.20 1.312243
421.30 1.311868
421.40 1.311493
421.50 1.311119
421.60 1.310745
421.70 1.310371
421.80 1.309997
421.90 1.309615
422.00 1.309207
422.10 1.308784
422.20 1.3083
422.30 1.307817
422.40 1.307337
422.50 1.306936
422.60 1.306536
422.70 1.306136
422.80 1.305737
422.90 1.305337
423.00 1.304938
423.10 1.304539
423.20 1.30414
423.30 1.303742
423.40 1.303344
423.50 1.302946
423.60 1.302548
423.70 1.30215
423.80 1.301753
423.90 1.301356
424.00 1.300959
424.10 1.300562
424.20 1.300166
424.30 1.29977
424.40 1.299327
424.50 1.298888
424.60 1.298449
424.70 1.29801
424.80 1.297572
424.90 1.297134
425.00 1.296696
425.10 1.296259
425.20 1.295822
425.30 1.295385
425.40 1.294951
425.50 1.29454
425.60 1.294129
425.70 1.293719
425.80 1.293309
425.90 1.292899
426.00 1.292489
426.10 1.292079
426.20 1.29167
426.30 1.291261
426.40 1.290852
426.50 1.290443
426.60 1.290035
426.70 1.289627
426.80 1.289219
426.90 1.288811
427.00 1.288409
427.10 1.288006
427.20 1.287604
427.30 1.287202
427.40 1.2868
427.50 1.286399
427.60 1.285997
427.70 1.285596
427.80 1.285196
427.90 1.284795
428.00 1.284395
428.10 1.283994
428.20 1.283595
428.30 1.283195
428.40 1.282795
428.50 1.282396
428.60 1.281997
428.70 1.281599
428.80 1.281199
428.90 1.280786
429.00 1.280374
429.10 1.279961
429.20 1.279549
429.30 1.279138
429.40 1.278726
429.50 1.278315
429.60 1.277904
429.70 1.277493
429.80 1.277082
429.90 1.276672
430.00 1.276262
430.10 1.275852
430.20 1.275442
430.30 1.275033
430.40 1.274624
430.50 1.274215
430.60 1.273806
430.70 1.273398
430.80 1.272989
430.90 1.272581
431.00 1.272174
431.10 1.271766
431.20 1.271359
431.30 1.270951
431.40 1.270528
431.50 1.270105
431.60 1.269682
431.70 1.269259
431.80 1.268837
431.90 1.268415
432.00 1.267993
432.10 1.267572
432.20 1.26715
432.30 1.266729
432.40 1.266309
432.50 1.265888
432.60 1.265468
432.70 1.265048
432.80 1.264628
432.90 1.264209
433.00 1.263789
433.10 1.26337
433.20 1.262952
433.30 1.262534
433.40 1.262129
433.50 1.261725
433.60 1.261321
433.70 1.260917
433.80 1.260534
433.90 1.260177
434.00 1.25977
434.10 1.259334
434.20 1.258897
434.30 1.258461
434.40 1.258025
434.50 1.25759
434.60 1.257154
434.70 1.256719
434.80 1.256286
434.90 1.255876
435.00 1.255466
435.10 1.255056
435.20 1.254647
435.30 1.254237
435.40 1.253828
435.50 1.25342
435.60 1.253011
435.70 1.252603
435.80 1.252195
435.90 1.251787
436.00 1.251379
436.10 1.250972
436.20 1.250565
436.30 1.250215
436.40 1.249927
436.50 1.249515
436.60 1.249104
436.70 1.248692
436.80 1.248281
436.90 1.247871
437.00 1.24746
437.10 1.24705
437.20 1.246642
437.30 1.246237
437.40 1.24583
437.50 1.245394
437.60 1.24496
437.70 1.244525
437.80 1.244091
437.90 1.243657
438.00 1.243224
438.10 1.24281
438.20 1.242397
438.30 1.241914
438.40 1.241362
438.50 1.240996
438.60 1.240617
438.70 1.240452
438.80 1.239887
438.90 1.239322
439.00 1.239172
439.10 1.238808
439.20 1.238436
439.30 1.237973
439.40 1.237509
439.50 1.237046
439.60 1.236576
439.70 1.236208
439.80 1.235892
439.90 1.235421
440.00 1.23495
440.10 1.23448
440.20 1.234015
440.30 1.233614
440.40 1.233213
440.50 1.232812
440.60 1.232411
440.70 1.232011
440.80 1.231611
440.90 1.231211
441.00 1.230811
441.10 1.230412
441.20 1.230019
441.30 1.229706
441.40 1.229344
441.50 1.228923
441.60 1.228501
441.70 1.22801
441.80 1.227575
441.90 1.22714
442.00 1.226705
442.10 1.226271
442.20 1.225837
442.30 1.225403
442.40 1.225032
442.50 1.224736
442.60 1.224441
442.70 1.224043
442.80 1.223507
442.90 1.223198
443.00 1.222779
443.10 1.222227
443.20 1.221774
443.30 1.221413
443.40 1.221054
443.50 1.2207
443.60 1.220258
443.70 1.219708
443.80 1.21955
443.90 1.219
444.00 1.218539
444.10 1.218186
444.20 1.217745
444.30 1.217208
444.40 1.216809
444.50 1.216411
444.60 1.216037
444.70 1.215692
444.80 1.215292
444.90 1.214842
445.00 1.214391
445.10 1.213942
445.20 1.213538
445.30 1.213189
445.40 1.212841
445.50 1.212494
445.60 1.212146
445.70 1.211799
445.80 1.211399
445.90 1.210951
446.00 1.210504
446.10 1.210056
446.20 1.209566
446.30 1.209074
446.40 1.20892
446.50 1.208475
446.60 1.208031
446.70 1.207587
446.80 1.207193
446.90 1.206846
447.00 1.206399
447.10 1.205859
447.20 1.205436
447.30 1.205167
447.40 1.204729
447.50 1.204383
447.60 1.203937
447.70 1.203399
447.80 1.202952
447.90 1.202614
448.00 1.202239
448.10 1.201831
448.20 1.201423
448.30 1.201015
448.40 1.200607
448.50 1.2002
448.60 1.199807
448.70 1.199429
448.80 1.199046
448.90 1.198594
449.00 1.198143
449.10 1.197693
449.20 1.197242
449.30 1.197137
449.40 1.196604
449.50 1.196072
449.60 1.195619
449.70 1.19524
449.80 1.194861
449.90 1.194482
450.00 1.194103
450.10 1.193724
450.20 1.193346
450.30 1.192968
450.40 1.192565
450.50 1.192162
450.60 1.19176
450.70 1.191357
450.80 1.190956
450.90 1.190554
451.00 1.190179
451.10 1.189804
451.20 1.18935
451.30 1.188823
451.40 1.188486
451.50 1.188149
451.60 1.187623
451.70 1.187097
451.80 1.186949
451.90 1.186424
452.00 1.186088
452.10 1.185752
452.20 1.185322
452.30 1.184892
452.40 1.184463
452.50 1.184034
452.60 1.18351
452.70 1.183074
452.80 1.182718
452.90 1.182362
453.00 1.182007
453.10 1.181652
453.20 1.181245
453.30 1.180838
453.40 1.180432
453.50 1.180026
453.60 1.17962
453.70 1.179215
453.80 1.178807
453.90 1.178396
454.00 1.177986
454.10 1.177575
454.20 1.177193
454.30 1.176812
454.40 1.17643
454.50 1.176049
454.60 1.175668
454.70 1.175271
454.80 1.174861
454.90 1.174451
455.00 1.174041
455.10 1.173631
455.20 1.173222
455.30 1.172813
455.40 1.172404
455.50 1.171995
455.60 1.171587
455.70 1.171179
455.80 1.170764
455.90 1.17035
456.00 1.169937
456.10 1.169524
456.20 1.169115
456.30 1.168706
456.40 1.168297
456.50 1.167889
456.60 1.167481
456.70 1.167073
456.80 1.166665
456.90 1.166257
457.00 1.16585
457.10 1.165443
457.20 1.164983
457.30 1.164577
457.40 1.164171
457.50 1.163765
457.60 1.16336
457.70 1.162954
457.80 1.16255
457.90 1.162145
458.00 1.16174
458.10 1.161336
458.20 1.160932
458.30 1.160528
458.40 1.160125
458.50 1.159722
458.60 1.159319
458.70 1.158934
458.80 1.158557
458.90 1.158181
459.00 1.157805
459.10 1.157428
459.20 1.157053
459.30 1.156651
459.40 1.156249
459.50 1.155848
459.60 1.155447
459.70 1.155047
459.80 1.154646
459.90 1.154246
460.00 1.153846
460.10 1.153446
460.20 1.153047
460.30 1.152647
460.40 1.152248
460.50 1.151849
460.60 1.151451
460.70 1.151034
460.80 1.150607
460.90 1.150181
461.00 1.149756
461.10 1.14933
461.20 1.148988
461.30 1.14868
461.40 1.148296
461.50 1.147894
461.60 1.147492
461.70 1.14709
461.80 1.146695
461.90 1.146299
462.00 1.145904
462.10 1.14551
462.20 1.145115
462.30 1.144721
462.40 1.144327
462.50 1.143933
462.60 1.143539
462.70 1.143146
462.80 1.142753
462.90 1.14236
463.00 1.141967
463.10 1.141575
463.20 1.141185
463.30 1.140797
463.40 1.140408
463.50 1.14002
463.60 1.139632
463.70 1.139245
463.80 1.138857
463.90 1.138458
464.00 1.138056
464.10 1.137654
464.20 1.137253
464.30 1.136851
464.40 1.13645
464.50 1.136049
464.60 1.135649
464.70 1.135227
464.80 1.134797
464.90 1.134367
465.00 1.133938
465.10 1.133509
465.20 1.13308
465.30 1.13269
465.40 1.132326
465.50 1.131962
465.60 1.131599
465.70 1.131236
465.80 1.130873
465.90 1.130481
466.00 1.130083
466.10 1.129685
466.20 1.129287
466.30 1.128879
466.40 1.128465
466.50 1.128053
466.60 1.12764
466.70 1.127228
466.80 1.126816
466.90 1.126404
467.00 1.125992
467.10 1.125581
467.20 1.12517
467.30 1.124709
467.40 1.124339
467.50 1.123996
467.60 1.123654
467.70 1.123312
467.80 1.122971
467.90 1.122594
468.00 1.122202
468.10 1.121811
468.20 1.121419
468.30 1.120966
468.40 1.120487
468.50 1.120009
468.60 1.119576
468.70 1.119405
468.80 1.118927
468.90 1.11845
469.00 1.117973
469.10 1.117559
469.20 1.11717
469.30 1.116782
469.40 1.116393
469.50 1.115997
469.60 1.115597
469.70 1.115198
469.80 1.114799
469.90 1.114493
470.00 1.114269
470.10 1.113845
470.20 1.113443
470.30 1.11304
470.40 1.112638
470.50 1.112236
470.60 1.111847
470.70 1.111462
470.80 1.111077
470.90 1.110692
471.00 1.110238
471.10 1.109767
471.20 1.109296
471.30 1.109172
471.40 1.108702
471.50 1.108232
471.60 1.1079
471.70 1.107604
471.80 1.107239
471.90 1.106856
472.00 1.106474
472.10 1.106092
472.20 1.105695
472.30 1.105295
472.40 1.104895
472.50 1.104495
472.60 1.104095
472.70 1.103648
472.80 1.103236
472.90 1.102839
473.00 1.102442
473.10 1.102045
473.20 1.101648
473.30 1.101251
473.40 1.100855
473.50 1.100459
473.60 1.100063
473.70 1.099667
473.80 1.099284
473.90 1.098904
474.00 1.098524
474.10 1.098145
474.20 1.097759
474.30 1.09737
474.40 1.096982
474.50 1.096594
474.60 1.096204
474.70 1.095789
474.80 1.095374
474.90 1.09496
475.00 1.094546
475.10 1.094132
475.20 1.093718
475.30 1.093305
475.40 1.092922
475.50 1.092547
475.60 1.092172
475.70 1.091797
475.80 1.091422
475.90 1.091048
476.00 1.090674
476.10 1.0903
476.20 1.089901
476.30 1.089493
476.40 1.089085
476.50 1.088677
476.60 1.088269
476.70 1.087862
476.80 1.087454
476.90 1.087068
477.00 1.086688
477.10 1.086307
477.20 1.085927
477.30 1.085547
477.40 1.085167
477.50 1.084787
477.60 1.084408
477.70 1.084028
477.80 1.08365
477.90 1.083271
478.00 1.082892
478.10 1.082514
478.20 1.082136
478.30 1.081758
478.40 1.08138
478.50 1.081003
478.60 1.080626
478.70 1.080196
478.80 1.079745
478.90 1.079346
479.00 1.07896
479.10 1.078575
479.20 1.07819
479.30 1.077805
479.40 1.077427
479.50 1.077054
479.60 1.076681
479.70 1.076308
479.80 1.075936
479.90 1.075563
480.00 1.075191
480.10 1.074819
480.20 1.074448
480.30 1.074076
480.40 1.073705
480.50 1.073334
480.60 1.072963
480.70 1.072593
480.80 1.072222
480.90 1.071852
481.00 1.071482
481.10 1.071112
481.20 1.070728
481.30 1.070344
481.40 1.069961
481.50 1.069577
481.60 1.069194
481.70 1.068811
481.80 1.068428
481.90 1.068045
482.00 1.067663
482.10 1.067281
482.20 1.066898
482.30 1.066503
482.40 1.066108
482.50 1.065713
482.60 1.065319
482.70 1.064924
482.80 1.06453
482.90 1.064136
483.00 1.063743
483.10 1.063349
483.20 1.062956
483.30 1.062564
483.40 1.062171
483.50 1.061778
483.60 1.061386
483.70 1.06101
483.80 1.060633
483.90 1.060257
484.00 1.059881
484.10 1.059506
484.20 1.059128
484.30 1.058749
484.40 1.05837
484.50 1.057991
484.60 1.057613
484.70 1.057236
484.80 1.056872
484.90 1.056509
485.00 1.056146
485.10 1.055783
485.20 1.05542
485.30 1.055057
485.40 1.054695
485.50 1.054332
485.60 1.05397
485.70 1.053566
485.80 1.053162
485.90 1.052759
486.00 1.052356
486.10 1.051953
486.20 1.05155
486.30 1.051147
486.40 1.050745
486.50 1.050343
486.60 1.049941
486.70 1.049543
486.80 1.049192
486.90 1.048841
487.00 1.04849
487.10 1.048139
487.20 1.047769
487.30 1.047398
487.40 1.047028
487.50 1.046658
487.60 1.046288
487.70 1.045918
487.80 1.045549
487.90 1.045179
488.00 1.04481
488.10 1.044442
488.20 1.044069
488.30 1.043641
488.40 1.043214
488.50 1.042787
488.60 1.04236
488.70 1.041934
488.80 1.041626
488.90 1.041319
489.00 1.040991
489.10 1.040609
489.20 1.040228
489.30 1.039847
489.40 1.039467
489.50 1.039086
489.60 1.038706
489.70 1.038326
489.80 1.037907
489.90 1.037546
490.00 1.037186
490.10 1.036826
490.20 1.036467
490.30 1.036107
490.40 1.035685
490.50 1.035263
490.60 1.034841
490.70 1.034419
490.80 1.034018
490.90 1.033896
491.00 1.033475
491.10 1.033054
491.20 1.032634
491.30 1.032213
491.40 1.031793
491.50 1.031374
491.60 1.031273
491.70 1.030854
491.80 1.030435
491.90 1.030016
492.00 1.029597
492.10 1.029179
492.20 1.028948
492.30 1.028661
492.40 1.028243
492.50 1.027826
492.60 1.027414
492.70 1.027076
492.80 1.026739
492.90 1.026402
493.00 1.026059
493.10 1.025643
493.20 1.025227
493.30 1.024812
493.40 1.024396
493.50 1.023981
493.60 1.023575
493.70 1.023278
493.80 1.022982
493.90 1.02264
494.00 1.022226
494.10 1.021831
494.20 1.021478
494.30 1.021125
494.40 1.020772
494.50 1.020419
494.60 1.020063
494.70 1.01965
494.80 1.019238
494.90 1.018826
495.00 1.018415
495.10 1.018003
495.20 1.017657
495.30 1.017311
495.40 1.016966
495.50 1.01662
495.60 1.016275
495.70 1.01593
495.80 1.015585
495.90 1.01524
496.00 1.014895
496.10 1.01453
496.20 1.014122
496.30 1.013713
496.40 1.013304
496.50 1.012896
496.60 1.012488
496.70 1.012127
496.80 1.011766
496.90 1.011405
497.00 1.011045
497.10 1.010684
497.20 1.010324
497.30 1.009952
497.40 1.009546
497.50 1.00914
497.60 1.008735
497.70 1.008332
497.80 1.007961
497.90 1.007591
498.00 1.00722
498.10 1.00685
498.20 1.00648
498.30 1.006111
498.40 1.005741
498.50 1.005372
498.60 1.005003
498.70 1.004755
498.80 1.004507
498.90 1.004105
499.00 1.003702
499.10 1.0033
499.20 1.002898
499.30 1.002516
499.40 1.002188
499.50 1.001861
499.60 1.001533
499.70 1.001201
499.80 1.0008
499.90 1.0004
500.00 1
500.10 0.9996001
500.20 0.9992169
500.30 0.9988689
500.40 0.9985211
500.50 0.9981734
500.60 0.997826
500.70 0.9974788
500.80 0.9971153
500.90 0.9967172
501.00 0.9963194
501.10 0.9959218
501.20 0.9955244
501.30 0.9951273
501.40 0.9949759
501.50 0.9946405
501.60 0.9942439
501.70 0.9938476
501.80 0.9934516
501.90 0.9930557
502.00 0.9926601
502.10 0.9922648
502.20 0.9918819
502.30 0.9916617
502.40 0.9913858
502.50 0.9909912
502.60 0.9905969
502.70 0.9902029
502.80 0.989809
502.90 0.9894154
503.00 0.9890221
503.10 0.9886289
503.20 0.988236
503.30 0.9878434
503.40 0.9874701
503.50 0.9871514
503.60 0.9868329
503.70 0.9865145
503.80 0.9861876
503.90 0.9857962
504.00 0.985405
504.10 0.9850141
504.20 0.9846234
504.30 0.984233
504.40 0.9838822
504.50 0.9836437
504.60 0.983366
504.70 0.9829764
504.80 0.982587
504.90 0.9821978
505.00 0.9818089
505.10 0.9814201
505.20 0.9810316
505.30 0.9806434
505.40 0.9802554
505.50 0.9798676
505.60 0.9794959
505.70 0.9791584
505.80 0.978821
505.90 0.9784838
506.00 0.9781469
506.10 0.9778101
506.20 0.9774693
506.30 0.9771169
506.40 0.9767647
506.50 0.9764127
506.60 0.9760608
506.70 0.9757092
506.80 0.9753578
506.90 0.9750066
507.00 0.9746556
507.10 0.9742941
507.20 0.9739148
507.30 0.9735496
507.40 0.9731847
507.50 0.9728199
507.60 0.9724554
507.70 0.972091
507.80 0.9717269
507.90 0.971363
508.00 0.9709993
508.10 0.9706358
508.20 0.9702725
508.30 0.9699094
508.40 0.9695466
508.50 0.9691839
508.60 0.9688215
508.70 0.9684593
508.80 0.9680924
508.90 0.967712
509.00 0.9673318
509.10 0.9669597
509.20 0.9666046
509.30 0.9662497
509.40 0.9658951
509.50 0.9655406
509.60 0.9651863
509.70 0.9648323
509.80 0.9644784
509.90 0.9641247
510.00 0.9637713
510.10 0.963418
510.20 0.963065
510.30 0.9627117
510.40 0.9623574
510.50 0.9620033
510.60 0.9616494
510.70 0.9612957
510.80 0.9609422
510.90 0.9605889
511.00 0.9602358
511.10 0.9598829
511.20 0.9595302
511.30 0.9591778
511.40 0.9588255
511.50 0.9584734
511.60 0.9581276
511.70 0.9577949
511.80 0.9574624
511.90 0.95713
512.00 0.9567979
512.10 0.9564659
512.20 0.9561341
512.30 0.9557964
512.40 0.9554413
512.50 0.9550863
512.60 0.9547316
512.70 0.9543771
512.80 0.9540229
512.90 0.9536688
513.00 0.9533149
513.10 0.9529612
513.20 0.9526077
513.30 0.9522544
513.40 0.9519014
513.50 0.9515485
513.60 0.9511958
513.70 0.9508434
513.80 0.9504911
513.90 0.950139
514.00 0.9497816
514.10 0.9494235
514.20 0.9490656
514.30 0.948708
514.40 0.9483505
514.50 0.9479932
514.60 0.9476361
514.70 0.9472793
514.80 0.9469226
514.90 0.9465662
515.00 0.9462099
515.10 0.9458539
515.20 0.9454981
515.30 0.9451424
515.40 0.944787
515.50 0.9444318
515.60 0.9440768
515.70 0.943722
515.80 0.9433674
515.90 0.943013
516.00 0.9426588
516.10 0.9423048
516.20 0.941951
516.30 0.9415974
516.40 0.941244
516.50 0.9408908
516.60 0.9405379
516.70 0.9401851
516.80 0.9398325
516.90 0.9394802
517.00 0.939128
517.10 0.938776
517.20 0.9384243
517.30 0.9380727
517.40 0.9377214
517.50 0.9373702
517.60 0.9370193
517.70 0.9366685
517.80 0.936318
517.90 0.9359676
518.00 0.9356175
518.10 0.9352675
518.20 0.9349178
518.30 0.9345682
518.40 0.9342189
518.50 0.9338697
518.60 0.9335208
518.70 0.933172
518.80 0.9328235
518.90 0.9324751
519.00 0.932127
519.10 0.931779
519.20 0.9314311
519.30 0.9310834
519.40 0.930736
519.50 0.9303887
519.60 0.9300416
519.70 0.9296948
519.80 0.9293481
519.90 0.9290016
520.00 0.9286553
520.10 0.9283092
520.20 0.9279634
520.30 0.9276177
520.40 0.9272722
520.50 0.9269269
520.60 0.9265818
520.70 0.9262369
520.80 0.9258922
520.90 0.9255477
521.00 0.9252034
521.10 0.9248593
521.20 0.9245153
521.30 0.9241716
521.40 0.9238281
521.50 0.9234848
521.60 0.9231416
521.70 0.9227987
521.80 0.9224559
521.90 0.9221134
522.00 0.921771
522.10 0.9214289
522.20 0.9210869
522.30 0.9207451
522.40 0.9204035
522.50 0.9200622
522.60 0.919721
522.70 0.91938
522.80 0.9190392
522.90 0.9186986
523.00 0.9183581
523.10 0.9180179
523.20 0.9176779
523.30 0.9173381
523.40 0.9169984
523.50 0.916659
523.60 0.9163197
523.70 0.9159806
523.80 0.9156418
523.90 0.9153031
524.00 0.9149646
524.10 0.9146263
524.20 0.9142882
524.30 0.9139472
524.40 0.913604
524.50 0.913261
524.60 0.9129182
524.70 0.9125756
524.80 0.9122332
524.90 0.911891
525.00 0.911549
525.10 0.9112072
525.20 0.9108656
525.30 0.9105241
525.40 0.9101829
525.50 0.9098419
525.60 0.909501
525.70 0.9091603
525.80 0.9088199
525.90 0.9084796
526.00 0.9081395
526.10 0.9077997
526.20 0.90746
526.30 0.9071205
526.40 0.9067812
526.50 0.906442
526.60 0.9061031
526.70 0.9057644
526.80 0.9054259
526.90 0.9050875
527.00 0.9047494
527.10 0.9044114
527.20 0.9040736
527.30 0.903736
527.40 0.9033987
527.50 0.9030615
527.60 0.9027245
527.70 0.9023876
527.80 0.902051
527.90 0.9017146
528.00 0.9013783
528.10 0.9010423
528.20 0.9007064
528.30 0.9003707
528.40 0.9000352
528.50 0.8996999
528.60 0.8993648
528.70 0.8990299
528.80 0.8986952
528.90 0.8983606
529.00 0.8980263
529.10 0.8976921
529.20 0.8973581
529.30 0.8970244
529.40 0.8966908
529.50 0.8963566
529.60 0.8960181
529.70 0.8956799
529.80 0.8953418
529.90 0.8950039
530.00 0.8946662
530.10 0.8943287
530.20 0.8939913
530.30 0.8936542
530.40 0.8933173
530.50 0.8929805
530.60 0.8926439
530.70 0.8923076
530.80 0.8919714
530.90 0.8916354
531.00 0.8912996
531.10 0.890964
531.20 0.8906286
531.30 0.8902933
531.40 0.8899583
531.50 0.8896234
531.60 0.8892888
531.70 0.8889543
531.80 0.88862
531.90 0.8882859
532.00 0.887952
532.10 0.8876183
532.20 0.8872847
532.30 0.8869514
532.40 0.8866182
532.50 0.8862853
532.60 0.8859525
532.70 0.8856199
532.80 0.8852875
532.90 0.8849553
533.00 0.8846232
533.10 0.8842914
533.20 0.8839597
533.30 0.8836282
533.40 0.883297
533.50 0.8829659
533.60 0.8826349
533.70 0.8823042
533.80 0.8819737
533.90 0.8816433
534.00 0.8813131
534.10 0.8809831
534.20 0.8806533
534.30 0.8803237
534.40 0.8799943
534.50 0.8796651
534.60 0.879336
534.70 0.8790071
534.80 0.8786775
534.90 0.8783439
535.00 0.8780105
535.10 0.8776774
535.20 0.8773444
535.30 0.8770116
535.40 0.876679
535.50 0.8763465
535.60 0.8760143
535.70 0.8756823
535.80 0.8753504
535.90 0.8750187
536.00 0.8746872
536.10 0.8743559
536.20 0.8740248
536.30 0.8736939
536.40 0.8733631
536.50 0.8730326
536.60 0.8727022
536.70 0.872372
536.80 0.872042
536.90 0.8717122
537.00 0.8713825
537.10 0.8710531
537.20 0.8707238
537.30 0.8703948
537.40 0.8700659
537.50 0.8697372
537.60 0.8694086
537.70 0.8690803
537.80 0.8687521
537.90 0.8684242
538.00 0.8680964
538.10 0.8677688
538.20 0.8674413
538.30 0.8671141
538.40 0.866787
538.50 0.8664602
538.60 0.8661335
538.70 0.865807
538.80 0.8654807
538.90 0.8651545
539.00 0.8648286
539.10 0.8645028
539.20 0.8641772
539.30 0.8638518
539.40 0.8635265
539.50 0.8632015
539.60 0.8628766
539.70 0.8625519
539.80 0.8622274
539.90 0.8619031
540.00 0.861579
540.10 0.861255
540.20 0.8609313
540.30 0.8606077
540.40 0.8602843
540.50 0.8599612
540.60 0.8596381
540.70 0.8593153
540.80 0.8589927
540.90 0.8586702
541.00 0.8583479
541.10 0.8580258
541.20 0.8577039
541.30 0.8573821
541.40 0.8570605
541.50 0.8567392
541.60 0.8564179
541.70 0.8560969
541.80 0.855776
541.90 0.8554554
542.00 0.8551349
542.10 0.8548145
542.20 0.8544944
542.30 0.8541744
542.40 0.8538546
542.50 0.853535
542.60 0.8532156
542.70 0.8528963
542.80 0.8525773
542.90 0.8522584
543.00 0.8519396
543.10 0.8516211
543.20 0.8513027
543.30 0.8509845
543.40 0.8506665
543.50 0.8503487
543.60 0.850031
543.70 0.8497135
543.80 0.8493962
543.90 0.8490791
544.00 0.8487621
544.10 0.8484453
544.20 0.8481287
544.30 0.8478123
544.40 0.847496
544.50 0.8471799
544.60 0.846864
544.70 0.8465483
544.80 0.8462327
544.90 0.8459174
545.00 0.8456022
545.10 0.8452871
545.20 0.8449723
545.30 0.8446576
545.40 0.8443431
545.50 0.8440287
545.60 0.8437113
545.70 0.8433926
545.80 0.8430741
545.90 0.8427557
546.00 0.8424376
546.10 0.8421196
546.20 0.8418018
546.30 0.8414841
546.40 0.8411667
546.50 0.8408494
546.60 0.8405323
546.70 0.8402154
546.80 0.8398986
546.90 0.839582
547.00 0.8392656
547.10 0.8389494
547.20 0.8386333
547.30 0.8383175
547.40 0.8380018
547.50 0.8376862
547.60 0.8373709
547.70 0.8370557
547.80 0.8367407
547.90 0.8364259
548.00 0.8361112
548.10 0.8357967
548.20 0.8354824
548.30 0.8351683
548.40 0.8348543
548.50 0.8345405
548.60 0.8342269
548.70 0.8339135
548.80 0.8336002
548.90 0.8332871
549.00 0.8329742
549.10 0.8326614
549.20 0.8323489
549.30 0.8320364
549.40 0.8317242
549.50 0.8314121
549.60 0.8311003
549.70 0.8307885
549.80 0.830477
549.90 0.8301656
550.00 0.8298544
550.10 0.8295434
550.20 0.8292325
550.30 0.8289218
550.40 0.8286113
550.50 0.8283009
550.60 0.8279908
550.70 0.8276808
550.80 0.8273709
550.90 0.8270613
551.00 0.8267504
551.10 0.8264319
551.20 0.8261137
551.30 0.8257956
551.40 0.8254776
551.50 0.8251599
551.60 0.8248423
551.70 0.8245249
551.80 0.8242077
551.90 0.8238907
552.00 0.8235738
552.10 0.8232571
552.20 0.8229406
552.30 0.8226243
552.40 0.8223081
552.50 0.8219921
552.60 0.8216763
552.70 0.8213606
552.80 0.8210452
552.90 0.8207299
553.00 0.8204148
553.10 0.8200998
553.20 0.819785
553.30 0.8194704
553.40 0.819156
553.50 0.8188418
553.60 0.8185277
553.70 0.8182138
553.80 0.8179056
553.90 0.8176011
554.00 0.8172969
554.10 0.8169928
554.20 0.8166888
554.30 0.8163851
554.40 0.8160815
554.50 0.815778
554.60 0.8154748
554.70 0.8151717
554.80 0.8148687
554.90 0.814566
555.00 0.8142634
555.10 0.8139609
555.20 0.8136587
555.30 0.8133566
555.40 0.8130546
555.50 0.8127528
555.60 0.8124512
555.70 0.8121498
555.80 0.8118485
555.90 0.8115474
556.00 0.8112464
556.10 0.8109456
556.20 0.810645
556.30 0.8103445
556.40 0.8100442
556.50 0.8097436
556.60 0.8094348
556.70 0.8091261
556.80 0.8088176
556.90 0.8085093
557.00 0.8082011
557.10 0.8078932
557.20 0.8075853
557.30 0.8072777
557.40 0.8069702
557.50 0.8066629
557.60 0.8063557
557.70 0.8060488
557.80 0.805742
557.90 0.8054353
558.00 0.8051288
558.10 0.8048225
558.20 0.8045164
558.30 0.8042104
558.40 0.8039046
558.50 0.803599
558.60 0.8032935
558.70 0.8029882
558.80 0.8026831
558.90 0.8023781
559.00 0.8020733
559.10 0.8017687
559.20 0.8014642
559.30 0.8011599
559.40 0.8008558
559.50 0.8005518
559.60 0.800248
559.70 0.7999444
559.80 0.7996409
559.90 0.7993376
560.00 0.7990345
560.10 0.7987315
560.20 0.7984287
560.30 0.7981261
560.40 0.7978236
560.50 0.7975213
560.60 0.7972191
560.70 0.7969171
560.80 0.7966153
560.90 0.7963137
561.00 0.7960122
561.10 0.7957109
561.20 0.7954097
561.30 0.7951087
561.40 0.7948079
561.50 0.7945072
561.60 0.7942067
561.70 0.7939064
561.80 0.7936062
561.90 0.7933062
562.00 0.7930063
562.10 0.7927067
562.20 0.7924074
562.30 0.7921082
562.40 0.7918092
562.50 0.7915103
562.60 0.7912116
562.70 0.7909131
562.80 0.7906147
562.90 0.7903165
563.00 0.7900184
563.10 0.7897206
563.20 0.7894228
563.30 0.7891253
563.40 0.7888279
563.50 0.7885306
563.60 0.7882336
563.70 0.7879366
563.80 0.7876399
563.90 0.7873433
564.00 0.7870469
564.10 0.7867506
564.20 0.7864545
564.30 0.7861585
564.40 0.7858627
564.50 0.7855671
564.60 0.7852716
564.70 0.7849763
564.80 0.7846812
564.90 0.7843837
565.00 0.7840802
565.10 0.783777
565.20 0.7834739
565.30 0.7831709
565.40 0.7828681
565.50 0.7825655
565.60 0.7822631
565.70 0.7819608
565.80 0.7816587
565.90 0.7813567
566.00 0.7810549
566.10 0.7807533
566.20 0.7804519
566.30 0.7801506
566.40 0.7798494
566.50 0.7795485
566.60 0.7792477
566.70 0.778947
566.80 0.7786466
566.90 0.7783462
567.00 0.7780461
567.10 0.7777461
567.20 0.7774463
567.30 0.7771466
567.40 0.7768471
567.50 0.7765478
567.60 0.7762486
567.70 0.7759505
567.80 0.7756561
567.90 0.7753619
568.00 0.7750678
568.10 0.7747739
568.20 0.7744802
568.30 0.7741866
568.40 0.7738932
568.50 0.7735999
568.60 0.7733068
568.70 0.7730139
568.80 0.7727211
568.90 0.7724285
569.00 0.772136
569.10 0.7718437
569.20 0.7715515
569.30 0.7712595
569.40 0.7709677
569.50 0.770676
569.60 0.7703845
569.70 0.7700931
569.80 0.7698019
569.90 0.7695109
570.00 0.76922
570.10 0.7689292
570.20 0.7686386
570.30 0.7683482
570.40 0.7680579
570.50 0.7677678
570.60 0.7674779
570.70 0.7671881
570.80 0.7668984
570.90 0.7666089
571.00 0.7663196
571.10 0.7660304
571.20 0.7657414
571.30 0.7654525
571.40 0.7651638
571.50 0.7648752
571.60 0.7645868
571.70 0.7642986
571.80 0.7640105
571.90 0.7637226
572.00 0.7634348
572.10 0.7631472
572.20 0.7628597
572.30 0.7625724
572.40 0.7622852
572.50 0.7619982
572.60 0.7617113
572.70 0.7614246
572.80 0.7611381
572.90 0.7608517
573.00 0.7605654
573.10 0.7602793
573.20 0.7599934
573.30 0.7597076
573.40 0.7594213
573.50 0.7591342
573.60 0.7588472
573.70 0.7585603
573.80 0.7582737
573.90 0.7579872
574.00 0.7577008
574.10 0.7574146
574.20 0.7571285
574.30 0.7568426
574.40 0.7565569
574.50 0.7562713
574.60 0.7559858
574.70 0.7557005
574.80 0.7554154
574.90 0.7551304
575.00 0.7548455
575.10 0.7545609
575.20 0.7542763
575.30 0.753992
575.40 0.7537077
575.50 0.7534236
575.60 0.7531397
575.70 0.752856
575.80 0.7525723
575.90 0.7522889
576.00 0.7520055
576.10 0.7517224
576.20 0.7514394
576.30 0.7511565
576.40 0.7508738
576.50 0.7505912
576.60 0.7503088
576.70 0.7500266
576.80 0.7497445
576.90 0.7494625
577.00 0.7491807
577.10 0.748899
577.20 0.7486175
577.30 0.7483362
577.40 0.748055
577.50 0.7477739
577.60 0.7474899
577.70 0.7472009
577.80 0.746912
577.90 0.7466233
578.00 0.7463348
578.10 0.7460464
578.20 0.7457582
578.30 0.7454701
578.40 0.7451822
578.50 0.7448944
578.60 0.7446068
578.70 0.7443194
578.80 0.7440321
578.90 0.7437449
579.00 0.7434579
579.10 0.7431717
579.20 0.7428914
579.30 0.7426112
579.40 0.7423313
579.50 0.7420514
579.60 0.7417717
579.70 0.7414922
579.80 0.7412128
579.90 0.7409336
580.00 0.7406545
580.10 0.7403758
580.20 0.7400977
580.30 0.7398197
580.40 0.7395419
580.50 0.7392642
580.60 0.7389867
580.70 0.7387093
580.80 0.7384321
580.90 0.738155
581.00 0.7378781
581.10 0.7376013
581.20 0.7373246
581.30 0.7370481
581.40 0.7367718
581.50 0.7364956
581.60 0.7362195
581.70 0.7359436
581.80 0.7356679
581.90 0.7353923
582.00 0.7351168
582.10 0.7348386
582.20 0.7345558
582.30 0.7342732
582.40 0.7339907
582.50 0.7337084
582.60 0.7334263
582.70 0.7331442
582.80 0.7328624
582.90 0.7325807
583.00 0.7322991
583.10 0.7320177
583.20 0.7317364
583.30 0.7314553
583.40 0.7311744
583.50 0.7308935
583.60 0.7306178
583.70 0.7303504
583.80 0.730083
583.90 0.7298158
584.00 0.7295488
584.10 0.7292819
584.20 0.7290151
584.30 0.7287485
584.40 0.728482
584.50 0.7282156
584.60 0.7279494
584.70 0.7276833
584.80 0.7274174
584.90 0.7271402
585.00 0.7268111
585.10 0.7264821
585.20 0.7261754
585.30 0.7259048
585.40 0.7256343
585.50 0.7253639
585.60 0.7250937
585.70 0.7248236
585.80 0.7245537
585.90 0.7242839
586.00 0.7240143
586.10 0.7237448
586.20 0.7234697
586.30 0.7231856
586.40 0.7229015
586.50 0.7226176
586.60 0.7223339
586.70 0.7220503
586.80 0.7217811
586.90 0.7215352
587.00 0.7212894
587.10 0.7210437
587.20 0.7207556
587.30 0.7203983
587.40 0.7200837
587.50 0.7198386
587.60 0.7195936
587.70 0.7193487
587.80 0.719104
587.90 0.7188594
588.00 0.7185937
588.10 0.7182936
588.20 0.7179936
588.30 0.7176938
588.40 0.7174012
588.50 0.7171203
588.60 0.7168395
588.70 0.7165589
588.80 0.7162784
588.90 0.7159981
589.00 0.7157236
589.10 0.7154584
589.20 0.7151933
589.30 0.7149284
589.40 0.7146636
589.50 0.7143989
589.60 0.7141344
589.70 0.7138701
589.80 0.7136058
589.90 0.7133417
590.00 0.7130753
590.10 0.7128048
590.20 0.7125344
590.30 0.7122643
590.40 0.7119942
590.50 0.7117243
590.60 0.7114545
590.70 0.7111849
590.80 0.7109169
590.90 0.7106497
591.00 0.7103827
591.10 0.7101158
591.20 0.709849
591.30 0.7095824
591.40 0.7093159
591.50 0.7090495
591.60 0.7087822
591.70 0.7085133
591.80 0.7082445
591.90 0.7079758
592.00 0.7077073
592.10 0.7074389
592.20 0.7071707
592.30 0.7069026
592.40 0.7066346
592.50 0.7063668
592.60 0.7060991
592.70 0.7058316
592.80 0.7055642
592.90 0.705297
593.00 0.7050299
593.10 0.7047615
593.20 0.704491
593.30 0.7042207
593.40 0.7039505
593.50 0.7036804
593.60 0.7034105
593.70 0.7031407
593.80 0.7028711
593.90 0.7026016
594.00 0.7023323
594.10 0.702063
594.20 0.701794
594.30 0.7015251
594.40 0.7012563
594.50 0.7009876
594.60 0.7007191
594.70 0.7004508
594.80 0.7001825
594.90 0.6999145
595.00 0.6996465
595.10 0.6993806
595.20 0.699118
595.30 0.6988555
595.40 0.6985932
595.50 0.698331
595.60 0.6980689
595.70 0.6978069
595.80 0.6975451
595.90 0.6972834
596.00 0.6970219
596.10 0.6967605
596.20 0.6964993
596.30 0.6962381
596.40 0.6959771
596.50 0.6957163
596.60 0.6954556
596.70 0.6951975
596.80 0.6949411
596.90 0.6946848
597.00 0.6944287
597.10 0.6941727
597.20 0.6939168
597.30 0.6936611
597.40 0.6934055
597.50 0.69315
597.60 0.6928894
597.70 0.6926203
597.80 0.6923513
597.90 0.6920824
598.00 0.6918138
598.10 0.6915452
598.20 0.6912768
598.30 0.6910085
598.40 0.6907404
598.50 0.6904724
598.60 0.6902046
598.70 0.6899369
598.80 0.6896693
598.90 0.6894019
599.00 0.6891346
599.10 0.6888674
599.20 0.6886004
599.30 0.6883336
599.40 0.6880717
599.50 0.68781
599.60 0.6875484
599.70 0.6872869
599.80 0.6870256
599.90 0.6867644
600.00 0.6865033
600.10 0.6862424
600.20 0.6859816
600.30 0.685721
600.40 0.6854605
600.50 0.6852001
600.60 0.6849399
600.70 0.6846798
600.80 0.6844198
600.90 0.68416
601.00 0.6839003
601.10 0.6836407
601.20 0.6833813
601.30 0.683122
601.40 0.6828621
601.50 0.6826024
601.60 0.6823428
601.70 0.6820834
601.80 0.6818241
601.90 0.6815649
602.00 0.6813058
602.10 0.6810469
602.20 0.6807882
602.30 0.6805295
602.40 0.680271
602.50 0.6800126
602.60 0.6797544
602.70 0.6795272
602.80 0.6793018
602.90 0.6790499
603.00 0.6787982
603.10 0.6785466
603.20 0.6782951
603.30 0.6780438
603.40 0.6777926
603.50 0.6775415
603.60 0.6772905
603.70 0.6770397
603.80 0.676789
603.90 0.6765384
604.00 0.676288
604.10 0.6760377
604.20 0.6757875
604.30 0.6755374
604.40 0.6752875
604.50 0.6750219
604.60 0.6747564
604.70 0.674491
604.80 0.6742258
604.90 0.6739607
605.00 0.6736958
605.10 0.673431
605.20 0.6731663
605.30 0.6729018
605.40 0.6726374
605.50 0.6723802
605.60 0.6721231
605.70 0.6718661
605.80 0.6716093
605.90 0.6713526
606.00 0.671096
606.10 0.6708221
606.20 0.6705483
606.30 0.6702746
606.40 0.6700011
606.50 0.6697802
606.60 0.6695594
606.70 0.6693387
606.80 0.6691181
606.90 0.6688976
607.00 0.6684678
607.10 0.6682476
607.20 0.6680275
607.30 0.6678075
607.40 0.6675877
607.50 0.6673679
607.60 0.6671482
607.70 0.6668939
607.80 0.6666396
607.90 0.6663855
608.00 0.6661316
608.10 0.6658777
608.20 0.665624
608.30 0.6653568
608.40 0.6650897
608.50 0.6648228
608.60 0.664556
608.70 0.6642974
608.80 0.6640426
608.90 0.663788
609.00 0.6635334
609.10 0.663279
609.20 0.6630247
609.30 0.6627681
609.40 0.6625117
609.50 0.6622554
609.60 0.6619992
609.70 0.6617431
609.80 0.6614872
609.90 0.6612314
610.00 0.6609757
610.10 0.6607202
610.20 0.6604648
610.30 0.6602096
610.40 0.6599544
610.50 0.6596994
610.60 0.6594446
610.70 0.6591898
610.80 0.6589352
610.90 0.6586919
611.00 0.6584488
611.10 0.6582058
611.20 0.6579628
611.30 0.6577201
611.40 0.6574774
611.50 0.6572349
611.60 0.6569925
611.70 0.6567502
611.80 0.656508
611.90 0.656266
612.00 0.6560241
612.10 0.6557823
612.20 0.6555406
612.30 0.6552991
612.40 0.6550439
612.50 0.6547889
612.60 0.654534
612.70 0.6542793
612.80 0.6540247
612.90 0.6537702
613.00 0.6535158
613.10 0.6532616
613.20 0.6530075
613.30 0.6527536
613.40 0.6524997
613.50 0.652246
613.60 0.6519925
613.70 0.651739
613.80 0.6514857
613.90 0.6512325
614.00 0.6509795
614.10 0.6507266
614.20 0.6504738
614.30 0.6502211
614.40 0.6500095
614.50 0.649798
614.60 0.6495865
614.70 0.6493752
614.80 0.6491314
614.90 0.6488811
615.00 0.6486309
615.10 0.6483809
615.20 0.648131
615.30 0.6478812
615.40 0.6476315
615.50 0.647382
615.60 0.6471326
615.70 0.6468833
615.80 0.6466341
615.90 0.6463851
616.00 0.6461362
616.10 0.6458875
616.20 0.6456388
616.30 0.6453903
616.40 0.6451419
616.50 0.6448936
616.60 0.6446455
616.70 0.6443975
616.80 0.6441496
616.90 0.6439059
617.00 0.6436623
617.10 0.6434188
617.20 0.6431754
617.30 0.6429322
617.40 0.642689
617.50 0.6424461
617.60 0.6422032
617.70 0.6419604
617.80 0.6417178
617.90 0.6414753
618.00 0.6412329
618.10 0.6409907
618.20 0.6407485
618.30 0.6405065
618.40 0.6402646
618.50 0.6400229
618.60 0.6397812
618.70 0.6395397
618.80 0.6392983
618.90 0.639057
619.00 0.6388159
619.10 0.6385749
619.20 0.638334
619.30 0.6380932
619.40 0.6378525
619.50 0.637612
619.60 0.6373716
619.70 0.6371313
619.80 0.6368911
619.90 0.636651
620.00 0.6364111
620.10 0.6361713
620.20 0.6359316
620.30 0.6356921
620.40 0.6354526
620.50 0.6352133
620.60 0.6349741
620.70 0.634735
620.80 0.6344961
620.90 0.6342569
621.00 0.6340172
621.10 0.6337776
621.20 0.6335381
621.30 0.6332988
621.40 0.6330596
621.50 0.6328205
621.60 0.6325815
621.70 0.6323427
621.80 0.6321039
621.90 0.6318653
622.00 0.6316268
622.10 0.6313885
622.20 0.6311502
622.30 0.6309121
622.40 0.6306741
622.50 0.6304362
622.60 0.6301984
622.70 0.6299608
622.80 0.6297233
622.90 0.6294858
623.00 0.6292486
623.10 0.6290114
623.20 0.6287744
623.30 0.6285374
623.40 0.6283006
623.50 0.6280639
623.60 0.6278274
623.70 0.6275909
623.80 0.6273546
623.90 0.6271184
624.00 0.6268823
624.10 0.6266463
624.20 0.6264105
624.30 0.6261747
624.40 0.6259391
624.50 0.6257036
624.60 0.6254682
624.70 0.625233
624.80 0.6249978
624.90 0.6247628
625.00 0.6245279
625.10 0.6242931
625.20 0.6240585
625.30 0.6238239
625.40 0.6235895
625.50 0.6233552
625.60 0.623121
625.70 0.6228869
625.80 0.6226529
625.90 0.6224191
626.00 0.6221854
626.10 0.6219518
626.20 0.6217183
626.30 0.6214849
626.40 0.6212517
626.50 0.6210185
626.60 0.6207855
626.70 0.6205526
626.80 0.6203198
626.90 0.6200872
627.00 0.6198546
627.10 0.6196214
627.20 0.6193863
627.30 0.6191513
627.40 0.6189164
627.50 0.6186817
627.60 0.6184471
627.70 0.6182125
627.80 0.6179781
627.90 0.6177439
628.00 0.6175097
628.10 0.6172757
628.20 0.6170417
628.30 0.6168079
628.40 0.6165742
628.50 0.6163406
628.60 0.6161072
628.70 0.6158739
628.80 0.6156406
628.90 0.6154075
629.00 0.6151745
629.10 0.6149417
629.20 0.6147089
629.30 0.6144763
629.40 0.6142438
629.50 0.6140113
629.60 0.6137791
629.70 0.6135469
629.80 0.6133148
629.90 0.6130829
630.00 0.6128511
630.10 0.6126194
630.20 0.6123878
630.30 0.6121563
630.40 0.611925
630.50 0.6116937
630.60 0.6114626
630.70 0.6112316
630.80 0.6110008
630.90 0.61077
631.00 0.6105393
631.10 0.6103088
631.20 0.6100784
631.30 0.6098481
631.40 0.6096179
631.50 0.6093878
631.60 0.6091579
631.70 0.608928
631.80 0.6086983
631.90 0.6084687
632.00 0.6082392
632.10 0.6080098
632.20 0.6077805
632.30 0.6075514
632.40 0.6073223
632.50 0.6070934
632.60 0.6068646
632.70 0.6066359
632.80 0.6064073
632.90 0.6061788
633.00 0.6059505
633.10 0.6057223
633.20 0.6054941
633.30 0.6052661
633.40 0.6050384
633.50 0.604811
633.60 0.6045837
633.70 0.6043564
633.80 0.6041293
633.90 0.6039024
634.00 0.6036755
634.10 0.6034487
634.20 0.6032221
634.30 0.6029956
634.40 0.6027691
634.50 0.6025428
634.60 0.6023166
634.70 0.6020906
634.80 0.6018646
634.90 0.6016387
635.00 0.601413
635.10 0.6011874
635.20 0.6009619
635.30 0.6007364
635.40 0.6005112
635.50 0.600286
635.60 0.6000609
635.70 0.5998359
635.80 0.5996111
635.90 0.5993864
636.00 0.5991617
636.10 0.5989372
636.20 0.5987128
636.30 0.5984885
636.40 0.5982644
636.50 0.5980403
636.60 0.5978109
636.70 0.5975811
636.80 0.5973514
636.90 0.5971218
637.00 0.5968923
637.10 0.5966629
637.20 0.5964336
637.30 0.5962045
637.40 0.5959754
637.50 0.5957465
637.60 0.5955177
637.70 0.595289
637.80 0.5950604
637.90 0.594832
638.00 0.5946036
638.10 0.5943754
638.20 0.5941473
638.30 0.5939192
638.40 0.5936913
638.50 0.5934636
638.60 0.5932359
638.70 0.5930083
638.80 0.5927809
638.90 0.5925536
639.00 0.5923264
639.10 0.5920992
639.20 0.5918723
639.30 0.5916454
639.40 0.5914186
639.50 0.591192
639.60 0.5909654
639.70 0.5907405
639.80 0.5905204
639.90 0.5903006
640.00 0.5900808
640.10 0.5898611
640.20 0.5896415
640.30 0.5894221
640.40 0.5892027
640.50 0.5889835
640.60 0.5887643
640.70 0.5885453
640.80 0.5883264
640.90 0.5881076
641.00 0.5878889
641.10 0.5876703
641.20 0.5874518
641.30 0.5872334
641.40 0.5870151
641.50 0.5867969
641.60 0.5865789
641.70 0.5863609
641.80 0.5861431
641.90 0.5859254
642.00 0.5857077
642.10 0.5854902
642.20 0.5852728
642.30 0.5850555
642.40 0.5848383
642.50 0.5846212
642.60 0.5844042
642.70 0.5841873
642.80 0.5839705
642.90 0.5837525
643.00 0.5835301
643.10 0.5833078
643.20 0.5830856
643.30 0.5828635
643.40 0.5826415
643.50 0.5824197
643.60 0.5821979
643.70 0.5819763
643.80 0.5817548
643.90 0.5815333
644.00 0.581312
644.10 0.5810908
644.20 0.5808697
644.30 0.5806488
644.40 0.5804279
644.50 0.5802071
644.60 0.5799865
644.70 0.5797659
644.80 0.5795455
644.90 0.5793252
645.00 0.5791049
645.10 0.5788848
645.20 0.5786648
645.30 0.5784449
645.40 0.5782252
645.50 0.5780055
645.60 0.5777859
645.70 0.5775664
645.80 0.5773471
645.90 0.5771279
646.00 0.5769087
646.10 0.5766913
646.20 0.5764785
646.30 0.5762658
646.40 0.5760532
646.50 0.5758407
646.60 0.5756283
646.70 0.5754161
646.80 0.5752039
646.90 0.5749918
647.00 0.5747798
647.10 0.574568
647.20 0.5743562
647.30 0.5741446
647.40 0.573933
647.50 0.5737216
647.60 0.5735102
647.70 0.573299
647.80 0.5730878
647.90 0.5728768
648.00 0.5726659
648.10 0.572455
648.20 0.5722443
648.30 0.5720337
648.40 0.5718231
648.50 0.5716127
648.60 0.5714024
648.70 0.5711922
648.80 0.5709821
648.90 0.5707721
649.00 0.5705622
649.10 0.5703523
649.20 0.5701426
649.30 0.569933
649.40 0.5697181
649.50 0.5695031
649.60 0.5692881
649.70 0.5690733
649.80 0.5688586
649.90 0.5686439
650.00 0.5684294
650.10 0.568215
650.20 0.5680007
650.30 0.5677865
650.40 0.5675724
650.50 0.5673584
650.60 0.5671445
650.70 0.5669307
650.80 0.566717
650.90 0.5665035
651.00 0.56629
651.10 0.5660766
651.20 0.5658633
651.30 0.5656502
651.40 0.5654371
651.50 0.5652242
651.60 0.5650113
651.70 0.5647986
651.80 0.5645859
651.90 0.5643734
652.00 0.564161
652.10 0.5639487
652.20 0.5637364
652.30 0.5635243
652.40 0.5633123
652.50 0.5631004
652.60 0.562888
652.70 0.5626755
652.80 0.5624631
652.90 0.5622508
653.00 0.5620386
653.10 0.5618264
653.20 0.5616144
653.30 0.5614025
653.40 0.5611907
653.50 0.560979
653.60 0.5607674
653.70 0.560556
653.80 0.5603446
653.90 0.5601333
654.00 0.5599221
654.10 0.559711
654.20 0.5595001
654.30 0.5592892
654.40 0.5590784
654.50 0.5588677
654.60 0.5586572
654.70 0.5584467
654.80 0.5582364
654.90 0.5580261
655.00 0.557816
655.10 0.5576059
655.20 0.557396
655.30 0.5571861
655.40 0.5569764
655.50 0.5567667
655.60 0.5565572
655.70 0.5563477
655.80 0.5561422
655.90 0.5559368
656.00 0.5557314
656.10 0.5555262
656.20 0.555321
656.30 0.555116
656.40 0.554911
656.50 0.5547062
656.60 0.5545015
656.70 0.5542968
656.80 0.5540923
656.90 0.5538878
657.00 0.5536835
657.10 0.5534792
657.20 0.5532751
657.30 0.553071
657.40 0.5528671
657.50 0.5526632
657.60 0.5524594
657.70 0.5522558
657.80 0.5519328
657.90 0.5517174
658.00 0.5515211
658.10 0.5513249
658.20 0.5511288
658.30 0.5509328
658.40 0.5507368
658.50 0.550541
658.60 0.5503452
658.70 0.5501496
658.80 0.549954
658.90 0.5497585
659.00 0.5495632
659.10 0.5493286
659.20 0.5490351
659.30 0.5488367
659.40 0.5486384
659.50 0.5484402
659.60 0.5482421
659.70 0.5480441
659.80 0.5478462
659.90 0.5476484
660.00 0.5474507
660.10 0.5472531
660.20 0.5470556
660.30 0.5468581
660.40 0.5466568
660.50 0.5464548
660.60 0.5462529
660.70 0.5460511
660.80 0.5458494
660.90 0.5456312
661.00 0.5454132
661.10 0.5451952
661.20 0.5449774
661.30 0.5447596
661.40 0.544542
661.50 0.5443245
661.60 0.5441071
661.70 0.5438897
661.80 0.5436725
661.90 0.5434741
662.00 0.5432757
662.10 0.5430774
662.20 0.5428793
662.30 0.5426812
662.40 0.5425122
662.50 0.5423045
662.60 0.5420969
662.70 0.5418894
662.80 0.541682
662.90 0.5415185
663.00 0.5413552
663.10 0.5411919
663.20 0.5408533
663.30 0.5406902
663.40 0.5405272
663.50 0.5402767
663.60 0.5400263
663.70 0.5398635
663.80 0.5397009
663.90 0.5395383
664.00 0.5393758
664.10 0.5391551
664.20 0.5389344
664.30 0.5387139
664.40 0.5384935
664.50 0.5382732
664.60 0.538053
664.70 0.5378482
664.80 0.5376436
664.90 0.5374391
665.00 0.5372346
665.10 0.5370303
665.20 0.536826
665.30 0.5366219
665.40 0.5364178
665.50 0.5362502
665.60 0.5360891
665.70 0.5359057
665.80 0.5356992
665.90 0.5354928
666.00 0.5352864
666.10 0.5350802
666.20 0.5348741
666.30 0.534668
666.40 0.5344621
666.50 0.5342703
666.60 0.5340811
666.70 0.5338919
666.80 0.5337029
666.90 0.5335139
667.00 0.533325
667.10 0.5330812
667.20 0.5328277
667.30 0.532668
667.40 0.5325084
667.50 0.5322753
667.60 0.5320292
667.70 0.5318569
667.80 0.5316976
667.90 0.5315384
668.00 0.5313793
668.10 0.5311468
668.20 0.5309014
668.30 0.5306929
668.40 0.5304909
668.50 0.530289
668.60 0.5300873
668.70 0.5299223
668.80 0.5297303
668.90 0.5295385
669.00 0.5293467
669.10 0.529155
669.20 0.5289634
669.30 0.5287711
669.40 0.5285786
669.50 0.5283863
669.60 0.5281941
669.70 0.528002
669.80 0.5278099
669.90 0.527618
670.00 0.5274261
670.10 0.5272343
670.20 0.5270426
670.30 0.52682
670.40 0.5265921
670.50 0.5263643
670.60 0.5261365
670.70 0.5259089
670.80 0.5257214
670.90 0.5255339
671.00 0.5253465
671.10 0.5251593
671.20 0.5249721
671.30 0.524785
671.40 0.5245979
671.50 0.524411
671.60 0.5242242
671.70 0.5240374
671.80 0.5238508
671.90 0.5236607
672.00 0.5234701
672.10 0.5232797
672.20 0.5230893
672.30 0.522899
672.40 0.5227055
672.50 0.5225118
672.60 0.5223183
672.70 0.5221248
672.80 0.5219314
672.90 0.5217381
673.00 0.521545
673.10 0.5213519
673.20 0.5211588
673.30 0.520856
673.40 0.5206502
673.50 0.5204616
673.60 0.5202731
673.70 0.5200846
673.80 0.5198963
673.90 0.519708
674.00 0.5195199
674.10 0.5193318
674.20 0.5191438
674.30 0.5189559
674.40 0.518768
674.50 0.5185803
674.60 0.5183927
674.70 0.5182051
674.80 0.5180176
674.90 0.5178303
675.00 0.517643
675.10 0.5174558
675.20 0.5172687
675.30 0.5170816
675.40 0.5168889
675.50 0.5166953
675.60 0.5165018
675.70 0.5163084
675.80 0.5161151
675.90 0.5159218
676.00 0.5157287
676.10 0.5155356
676.20 0.5153426
676.30 0.5151497
676.40 0.514957
676.50 0.5147643
676.60 0.5145717
676.70 0.5143792
676.80 0.5141867
676.90 0.5139944
677.00 0.5138022
677.10 0.51361
677.20 0.513418
677.30 0.513226
677.40 0.5130341
677.50 0.5128423
677.60 0.5126506
677.70 0.512459
677.80 0.5122675
677.90 0.5120751
678.00 0.5118826
678.10 0.5116902
678.20 0.5114979
678.30 0.5113057
678.40 0.5111136
678.50 0.5109216
678.60 0.5107296
678.70 0.5105378
678.80 0.510346
678.90 0.5101543
679.00 0.5099628
679.10 0.5097726
679.20 0.5095831
679.30 0.5093937
679.40 0.5092043
679.50 0.5090151
679.60 0.5088259
679.70 0.5086369
679.80 0.5084479
679.90 0.508259
680.00 0.5080702
680.10 0.5078815
680.20 0.5076929
680.30 0.5075043
680.40 0.5073159
680.50 0.5071275
680.60 0.5069393
680.70 0.5067511
680.80 0.506563
680.90 0.506375
681.00 0.5061871
681.10 0.5059993
681.20 0.5058115
681.30 0.5056239
681.40 0.5054363
681.50 0.5052489
681.60 0.5050615
681.70 0.5048742
681.80 0.504687
681.90 0.5044999
682.00 0.5043129
682.10 0.5041259
682.20 0.5039391
682.30 0.5037523
682.40 0.5035656
682.50 0.503379
682.60 0.5031925
682.70 0.5030061
682.80 0.5028198
682.90 0.5026336
683.00 0.5024474
683.10 0.5022614
683.20 0.5020754
683.30 0.5018895
683.40 0.5017037
683.50 0.501518
683.60 0.5013324
683.70 0.5011468
683.80 0.5009614
683.90 0.500776
684.00 0.5005907
684.10 0.5004055
684.20 0.5002204
684.30 0.5000354
684.40 0.4998505
684.50 0.4996656
684.60 0.4994809
684.70 0.4992962
684.80 0.4991116
684.90 0.4989271
685.00 0.4987427
685.10 0.4985584
685.20 0.4983742
685.30 0.49819
685.40 0.4980059
685.50 0.497822
685.60 0.4976381
685.70 0.4974543
685.80 0.4972705
685.90 0.4970853
686.00 0.4968997
686.10 0.4967143
686.20 0.4965289
686.30 0.4963436
686.40 0.4961584
686.50 0.4959733
686.60 0.4957883
686.70 0.4956033
686.80 0.4954185
686.90 0.4952337
687.00 0.495049
687.10 0.4948644
687.20 0.4946799
687.30 0.4944955
687.40 0.4943112
687.50 0.4941269
687.60 0.4939427
687.70 0.4937587
687.80 0.4935747
687.90 0.4933908
688.00 0.4932069
688.10 0.4930232
688.20 0.4928396
688.30 0.492656
688.40 0.4924725
688.50 0.4922891
688.60 0.4921058
688.70 0.4919226
688.80 0.4917395
688.90 0.4915564
689.00 0.4913735
689.10 0.4911906
689.20 0.4910078
689.30 0.4908251
689.40 0.4906425
689.50 0.4904599
689.60 0.4902775
689.70 0.4900951
689.80 0.4899129
689.90 0.4897307
690.00 0.4895486
690.10 0.4893665
690.20 0.4891846
690.30 0.4890027
690.40 0.488821
690.50 0.4886393
690.60 0.4884577
690.70 0.4882762
690.80 0.4880947
690.90 0.4879134
691.00 0.4877321
691.10 0.4875509
691.20 0.4873699
691.30 0.4871888
691.40 0.4870079
691.50 0.4868271
691.60 0.4866463
691.70 0.4864657
691.80 0.4862851
691.90 0.4861046
692.00 0.4859241
692.10 0.4857438
692.20 0.4855636
692.30 0.4853834
692.40 0.4852033
692.50 0.4850233
692.60 0.4848434
692.70 0.484664
692.80 0.4844864
692.90 0.4843089
693.00 0.4841315
693.10 0.4839542
693.20 0.4837769
693.30 0.4835998
693.40 0.4834227
693.50 0.4832457
693.60 0.4830687
693.70 0.4828919
693.80 0.4827151
693.90 0.4825384
694.00 0.4823619
694.10 0.4821853
694.20 0.4820089
694.30 0.4818325
694.40 0.4816563
694.50 0.4814801
694.60 0.481304
694.70 0.4811279
694.80 0.480952
694.90 0.4807761
695.00 0.4806004
695.10 0.4804247
695.20 0.480249
695.30 0.4800735
695.40 0.479898
695.50 0.4797227
695.60 0.4795474
695.70 0.4793721
695.80 0.479197
695.90 0.479022
696.00 0.478847
696.10 0.4786721
696.20 0.4784973
696.30 0.4783226
696.40 0.4781479
696.50 0.4779733
696.60 0.4777981
696.70 0.4776228
696.80 0.4774476
696.90 0.4772725
697.00 0.4770974
697.10 0.4769224
697.20 0.4767475
697.30 0.4765727
697.40 0.476398
697.50 0.4762233
697.60 0.4760487
697.70 0.4758742
697.80 0.4756998
697.90 0.4755255
698.00 0.4753512
698.10 0.4751771
698.20 0.475003
698.30 0.474829
698.40 0.474655
698.50 0.4744812
698.60 0.4743074
698.70 0.4741337
698.80 0.4739601
698.90 0.4737866
699.00 0.4736131
699.10 0.4734268
699.20 0.4732375
699.30 0.4730483
699.40 0.4728592
699.50 0.4726702
699.60 0.4724813
699.70 0.4723118
699.80 0.4721434
699.90 0.4719751
700.00 0.4718068
700.10 0.4716386
700.20 0.4714705
700.30 0.4713025
700.40 0.4711346
700.50 0.4709667
700.60 0.4707989
700.70 0.4706312
700.80 0.4704636
700.90 0.470296
701.00 0.4701285
701.10 0.4699542
701.20 0.4697783
701.30 0.4696025
701.40 0.4694268
701.50 0.4692512
701.60 0.4690756
701.70 0.4689001
701.80 0.4687247
701.90 0.4685494
702.00 0.4683742
702.10 0.468199
702.20 0.4680239
702.30 0.467849
702.40 0.467674
702.50 0.4674992
702.60 0.4673266
702.70 0.4671545
702.80 0.4669825
702.90 0.4668106
703.00 0.4666388
703.10 0.466467
703.20 0.4662954
703.30 0.4661238
703.40 0.4659523
703.50 0.4657808
703.60 0.4656095
703.70 0.4654382
703.80 0.465267
703.90 0.4650959
704.00 0.4649248
704.10 0.4647539
704.20 0.4645893
704.30 0.4644263
704.40 0.4642633
704.50 0.4641004
704.60 0.4639376
704.70 0.4637749
704.80 0.4636122
704.90 0.4634496
705.00 0.4632871
705.10 0.4631247
705.20 0.4629455
705.30 0.4627626
705.40 0.4625797
705.50 0.4623969
705.60 0.4622142
705.70 0.4620315
705.80 0.4618595
705.90 0.4616899
706.00 0.4615204
706.10 0.461351
706.20 0.461213
706.30 0.4610824
706.40 0.460948
706.50 0.4606668
706.60 0.4605364
706.70 0.4604061
706.80 0.4602133
706.90 0.4600059
707.00 0.4598298
707.10 0.4596612
707.20 0.4594927
707.30 0.4593242
707.40 0.4591662
707.50 0.4590107
707.60 0.4588553
707.70 0.4586999
707.80 0.4585447
707.90 0.4583895
708.00 0.4582177
708.10 0.4580421
708.20 0.4578666
708.30 0.4576912
708.40 0.4575159
708.50 0.4573406
708.60 0.4571654
708.70 0.4569903
708.80 0.4568153
708.90 0.4566404
709.00 0.4564718
709.10 0.4563047
709.20 0.4561376
709.30 0.4559707
709.40 0.4558038
709.50 0.455637
709.60 0.4554703
709.70 0.4553037
709.80 0.4551371
709.90 0.4549706
710.00 0.4548042
710.10 0.4546378
710.20 0.4544716
710.30 0.4543054
710.40 0.4541393
710.50 0.4539732
710.60 0.4538052
710.70 0.4536368
710.80 0.4534684
710.90 0.4533001
711.00 0.4531319
711.10 0.4529638
711.20 0.4527957
711.30 0.4526278
711.40 0.4524599
711.50 0.452292
711.60 0.4521243
711.70 0.4519566
711.80 0.451789
711.90 0.4516215
712.00 0.4514541
712.10 0.4512897
712.20 0.451126
712.30 0.4509624
712.40 0.4507989
712.50 0.4506355
712.60 0.4504722
712.70 0.4503089
712.80 0.4501457
712.90 0.4499826
713.00 0.4498195
713.10 0.4496565
713.20 0.4494936
713.30 0.4493308
713.40 0.449168
713.50 0.4490054
713.60 0.4488427
713.70 0.4486781
713.80 0.4485094
713.90 0.4483408
714.00 0.4481722
714.10 0.4480091
714.20 0.4478473
714.30 0.4476857
714.40 0.447524
714.50 0.4473625
714.60 0.4472011
714.70 0.4470397
714.80 0.4468783
714.90 0.4467171
715.00 0.4465559
715.10 0.4463948
715.20 0.4462338
715.30 0.4460729
715.40 0.445912
715.50 0.4457512
715.60 0.4455904
715.70 0.4454298
715.80 0.4452692
715.90 0.4451087
716.00 0.4449482
716.10 0.4447878
716.20 0.4446275
716.30 0.4444673
716.40 0.4443071
716.50 0.4441471
716.60 0.4439861
716.70 0.4438251
716.80 0.4436641
716.90 0.4435031
717.00 0.4433423
717.10 0.4431815
717.20 0.4430208
717.30 0.4428602
717.40 0.4426996
717.50 0.4425391
717.60 0.4423787
717.70 0.4422183
717.80 0.4420581
717.90 0.4418979
718.00 0.4417377
718.10 0.4415777
718.20 0.4414145
718.30 0.4412498
718.40 0.4410851
718.50 0.4409204
718.60 0.4407559
718.70 0.4405914
718.80 0.440427
718.90 0.4402627
719.00 0.4400984
719.10 0.4399343
719.20 0.4397702
719.30 0.4396061
719.40 0.4394422
719.50 0.4392783
719.60 0.4391145
719.70 0.4389508
719.80 0.4387871
719.90 0.4386235
720.00 0.43846
720.10 0.4382966
720.20 0.4381332
720.30 0.43797
720.40 0.4378067
720.50 0.4376436
720.60 0.4374805
720.70 0.4373446
720.80 0.4372233
720.90 0.437063
721.00 0.4369013
721.10 0.4367396
721.20 0.436578
721.30 0.4364164
721.40 0.436255
721.50 0.4360936
721.60 0.4359322
721.70 0.435771
721.80 0.4356098
721.90 0.4354487
722.00 0.4352877
722.10 0.4351267
722.20 0.4349658
722.30 0.434805
722.40 0.4346442
722.50 0.4344836
722.60 0.434323
722.70 0.4341631
722.80 0.4340035
722.90 0.4338441
723.00 0.4336847
723.10 0.4335254
723.20 0.4333662
723.30 0.4332071
723.40 0.433048
723.50 0.432889
723.60 0.43273
723.70 0.4325712
723.80 0.4324124
723.90 0.4322537
724.00 0.432095
724.10 0.4319364
724.20 0.4317795
724.30 0.4316235
724.40 0.4314676
724.50 0.4313117
724.60 0.431156
724.70 0.4310003
724.80 0.4308446
724.90 0.430689
725.00 0.4305335
725.10 0.4303781
725.20 0.4302227
725.30 0.4300674
725.40 0.4299122
725.50 0.4297571
725.60 0.429602
725.70 0.429447
725.80 0.4292968
725.90 0.4291492
726.00 0.4290017
726.10 0.4288543
726.20 0.4287069
726.30 0.4285596
726.40 0.4284124
726.50 0.4282652
726.60 0.4281181
726.70 0.4279711
726.80 0.4278115
726.90 0.4276451
727.00 0.4274788
727.10 0.4273125
727.20 0.4271464
727.30 0.4269803
727.40 0.4268222
727.50 0.4266684
727.60 0.4265147
727.70 0.4263611
727.80 0.4262312
727.90 0.4261141
728.00 0.4258986
728.10 0.4257345
728.20 0.4256175
728.30 0.4255007
728.40 0.4253366
728.50 0.4251471
728.60 0.4249814
728.70 0.4248284
728.80 0.4246755
728.90 0.4245227
729.00 0.4243621
729.10 0.4241973
729.20 0.4240326
729.30 0.4238679
729.40 0.4237034
729.50 0.4235389
729.60 0.4233871
729.70 0.423242
729.80 0.4230971
729.90 0.4229522
730.00 0.4228074
730.10 0.4226626
730.20 0.4225179
730.30 0.4223733
730.40 0.4222287
730.50 0.4220842
730.60 0.421935
730.70 0.4217834
730.80 0.4216319
730.90 0.4214804
731.00 0.421329
731.10 0.4211777
731.20 0.4210264
731.30 0.4208752
731.40 0.420724
731.50 0.420573
731.60 0.420422
731.70 0.420271
731.80 0.4201201
731.90 0.4199693
732.00 0.4198186
732.10 0.4196679
732.20 0.4195158
732.30 0.4193628
732.40 0.41921
732.50 0.4190572
732.60 0.4189044
732.70 0.4187518
732.80 0.4185992
732.90 0.4184466
733.00 0.4182942
733.10 0.4181418
733.20 0.4179894
733.30 0.4178372
733.40 0.417685
733.50 0.4175329
733.60 0.4173808
733.70 0.4172256
733.80 0.4170686
733.90 0.4169117
734.00 0.4167549
734.10 0.4165982
734.20 0.4164415
734.30 0.4162849
734.40 0.4161284
734.50 0.4159719
734.60 0.4158155
734.70 0.4156592
734.80 0.415503
734.90 0.4153468
735.00 0.4151907
735.10 0.4150346
735.20 0.4148787
735.30 0.4147262
735.40 0.4146134
735.50 0.4145007
735.60 0.414388
735.70 0.4142494
735.80 0.4140969
735.90 0.4139445
736.00 0.4137921
736.10 0.4136398
736.20 0.4134876
736.30 0.4133354
736.40 0.4131834
736.50 0.4130313
736.60 0.4128794
736.70 0.4127275
736.80 0.4125757
736.90 0.4124239
737.00 0.4122722
737.10 0.4121206
737.20 0.411969
737.30 0.4118176
737.40 0.4116661
737.50 0.4115148
737.60 0.4113635
737.70 0.4112123
737.80 0.4110611
737.90 0.41091
738.00 0.410759
738.10 0.4106081
738.20 0.4104585
738.30 0.4103096
738.40 0.4101608
738.50 0.4100121
738.60 0.4098635
738.70 0.4097149
738.80 0.4095664
738.90 0.4094179
739.00 0.4092695
739.10 0.4091212
739.20 0.4089729
739.30 0.4088248
739.40 0.4086766
739.50 0.4085286
739.60 0.4083806
739.70 0.4082326
739.80 0.4080848
739.90 0.407937
740.00 0.4077892
740.10 0.4076415
740.20 0.4074939
740.30 0.4073464
740.40 0.4071989
740.50 0.4070515
740.60 0.4069042
740.70 0.4067569
740.80 0.4066097
740.90 0.4064625
741.00 0.4063154
741.10 0.4061684
741.20 0.4060214
741.30 0.4058745
741.40 0.4057277
741.50 0.4055809
741.60 0.4054342
741.70 0.4052876
741.80 0.405141
741.90 0.4049945
742.00 0.4048481
742.10 0.4047017
742.20 0.4045554
742.30 0.4044091
742.40 0.4042629
742.50 0.4041168
742.60 0.4039707
742.70 0.4038229
742.80 0.4036737
742.90 0.4035245
743.00 0.4033753
743.10 0.4032263
743.20 0.4030773
743.30 0.4029283
743.40 0.4027795
743.50 0.4026307
743.60 0.402482
743.70 0.4023344
743.80 0.4021913
743.90 0.4020483
744.00 0.4019053
744.10 0.4017624
744.20 0.4016196
744.30 0.4014768
744.40 0.4013341
744.50 0.4011914
744.60 0.4010488
744.70 0.4009063
744.80 0.4007639
744.90 0.4006214
745.00 0.4004791
745.10 0.4003368
745.20 0.4001946
745.30 0.4000525
745.40 0.3999104
745.50 0.3997683
745.60 0.3996264
745.70 0.3994845
745.80 0.3993426
745.90 0.3992008
746.00 0.3990591
746.10 0.3989174
746.20 0.3987758
746.30 0.3986343
746.40 0.3984928
746.50 0.3983514
746.60 0.3982101
746.70 0.3980688
746.80 0.3979275
746.90 0.3977864
747.00 0.3976453
747.10 0.3975042
747.20 0.3973632
747.30 0.3972223
747.40 0.3970814
747.50 0.3969406
747.60 0.3967999
747.70 0.3966592
747.80 0.3965186
747.90 0.396378
748.00 0.3962375
748.10 0.3960971
748.20 0.3959567
748.30 0.3958164
748.40 0.3956762
748.50 0.395536
748.60 0.3953958
748.70 0.3952558
748.80 0.3951158
748.90 0.3949758
749.00 0.3948359
749.10 0.3946961
749.20 0.3945563
749.30 0.3944166
749.40 0.394277
749.50 0.3941374
749.60 0.3939979
749.70 0.3938584
749.80 0.393719
749.90 0.3935796
750.00 0.3934404
750.10 0.3933005
750.20 0.3931591
750.30 0.3930178
750.40 0.3928765
750.50 0.3927353
750.60 0.3925941
750.70 0.392453
750.80 0.392312
750.90 0.392171
751.00 0.3920301
751.10 0.3918892
751.20 0.3917484
751.30 0.3916077
751.40 0.391467
751.50 0.3913264
751.60 0.3911859
751.70 0.3910454
751.80 0.3909049
751.90 0.3907646
752.00 0.3906243
752.10 0.390484
752.20 0.3903438
752.30 0.3902037
752.40 0.3900637
752.50 0.3899237
752.60 0.3897837
752.70 0.3896438
752.80 0.389504
752.90 0.3893643
753.00 0.3892246
753.10 0.3890849
753.20 0.3889453
753.30 0.3888058
753.40 0.3886664
753.50 0.388527
753.60 0.3883876
753.70 0.3882484
753.80 0.3881091
753.90 0.38797
754.00 0.3878309
754.10 0.3876919
754.20 0.3875529
754.30 0.387414
754.40 0.3872751
754.50 0.3871363
754.60 0.3869976
754.70 0.3868589
754.80 0.3867203
754.90 0.3865817
755.00 0.3864432
755.10 0.3863048
755.20 0.3861664
755.30 0.3860281
755.40 0.3858898
755.50 0.3857517
755.60 0.3856135
755.70 0.3854754
755.80 0.3853374
755.90 0.3851995
756.00 0.3850616
756.10 0.3849237
756.20 0.3847859
756.30 0.3846482
756.40 0.3845106
756.50 0.384373
756.60 0.3842354
756.70 0.3840979
756.80 0.3839605
756.90 0.3838231
757.00 0.3836858
757.10 0.3835486
757.20 0.3834114
757.30 0.3832743
757.40 0.3831372
757.50 0.3830002
757.60 0.3828623
757.70 0.3827223
757.80 0.3825822
757.90 0.3824423
758.00 0.3823024
758.10 0.3821625
758.20 0.3820228
758.30 0.381883
758.40 0.3817434
758.50 0.3816038
758.60 0.3814643
758.70 0.3813248
758.80 0.3811854
758.90 0.381046
759.00 0.3809067
759.10 0.3807675
759.20 0.3806283
759.30 0.3804892
759.40 0.3803501
759.50 0.3802111
759.60 0.3800722
759.70 0.3799333
759.80 0.3797945
759.90 0.3796558
760.00 0.3795171
760.10 0.3793784
760.20 0.3792398
760.30 0.3791013
760.40 0.3789629
760.50 0.3788245
760.60 0.3786861
760.70 0.3785479
760.80 0.3784096
760.90 0.3782715
761.00 0.3781334
761.10 0.3779953
761.20 0.3778574
761.30 0.3777194
761.40 0.377583
761.50 0.3774487
761.60 0.3773145
761.70 0.3771803
761.80 0.3770462
761.90 0.3769121
762.00 0.3767781
762.10 0.3766442
762.20 0.3765103
762.30 0.3763765
762.40 0.3762427
762.50 0.376109
762.60 0.3759753
762.70 0.3758417
762.80 0.3757082
762.90 0.3755747
763.00 0.3754413
763.10 0.3753079
763.20 0.3751746
763.30 0.3750413
763.40 0.3749081
763.50 0.374775
763.60 0.3746419
763.70 0.3745088
763.80 0.3743759
763.90 0.3742429
764.00 0.3741101
764.10 0.3739773
764.20 0.3738445
764.30 0.3737118
764.40 0.3735792
764.50 0.3734466
764.60 0.3733141
764.70 0.3731816
764.80 0.3730492
764.90 0.3729169
765.00 0.3727846
765.10 0.3726524
765.20 0.3725204
765.30 0.3723886
765.40 0.3722568
765.50 0.3721252
765.60 0.3719936
765.70 0.371862
765.80 0.3717305
765.90 0.3715991
766.00 0.3714677
766.10 0.3713363
766.20 0.3712051
766.30 0.3710739
766.40 0.3709427
766.50 0.3708116
766.60 0.3706805
766.70 0.3705495
766.80 0.3704186
766.90 0.3702877
767.00 0.3701569
767.10 0.3700261
767.20 0.3698954
767.30 0.3697647
767.40 0.3696341
767.50 0.3695036
767.60 0.3693731
767.70 0.3692426
767.80 0.3691122
767.90 0.3689819
768.00 0.3688516
768.10 0.3687214
768.20 0.3685912
768.30 0.3684611
768.40 0.3683311
768.50 0.3682011
768.60 0.3680711
768.70 0.3679412
768.80 0.3678114
768.90 0.3676816
769.00 0.3675519
769.10 0.3674222
769.20 0.3672926
769.30 0.3671631
769.40 0.3670336
769.50 0.3669041
769.60 0.3667747
769.70 0.3666454
769.80 0.3665161
769.90 0.3663869
770.00 0.3662577
770.10 0.3661286
770.20 0.3659995
770.30 0.3658705
770.40 0.3657416
770.50 0.3656127
770.60 0.3654838
770.70 0.365355
770.80 0.3652263
770.90 0.3650976
771.00 0.364969
771.10 0.3648404
771.20 0.3647119
771.30 0.3645834
771.40 0.364455
771.50 0.3643266
771.60 0.3641983
771.70 0.3640701
771.80 0.3639419
771.90 0.3638138
772.00 0.3636857
772.10 0.3635576
772.20 0.3634297
772.30 0.3633017
772.40 0.3631739
772.50 0.3630461
772.60 0.3629183
772.70 0.3627906
772.80 0.3626629
772.90 0.362534
773.00 0.3624051
773.10 0.3622763
773.20 0.3621475
773.30 0.3620188
773.40 0.3618901
773.50 0.3617615
773.60 0.361633
773.70 0.3615045
773.80 0.361376
773.90 0.3612476
774.00 0.3611193
774.10 0.360991
774.20 0.3608628
774.30 0.3607346
774.40 0.3606065
774.50 0.3604784
774.60 0.3603504
774.70 0.3602224
774.80 0.3600945
774.90 0.3599667
775.00 0.3598389
775.10 0.3597111
775.20 0.3595834
775.30 0.3594558
775.40 0.3593282
775.50 0.3592007
775.60 0.3590732
775.70 0.3589458
775.80 0.3588184
775.90 0.3586911
776.00 0.3585639
776.10 0.3584366
776.20 0.3583095
776.30 0.3581824
776.40 0.3580553
776.50 0.3579284
776.60 0.3578014
776.70 0.3576745
776.80 0.3575477
776.90 0.3574209
777.00 0.3572942
777.10 0.3571675
777.20 0.3570409
777.30 0.3569143
777.40 0.3567878
777.50 0.3566614
777.60 0.356535
777.70 0.3564086
777.80 0.3562823
777.90 0.3561561
778.00 0.3560299
778.10 0.3559037
778.20 0.3557777
778.30 0.3556516
778.40 0.3555257
778.50 0.3553997
778.60 0.3552739
778.70 0.355148
778.80 0.3550223
778.90 0.3548965
779.00 0.3547709
779.10 0.3546453
779.20 0.3545197
779.30 0.3543942
779.40 0.3542688
779.50 0.3541434
779.60 0.354018
779.70 0.3538927
779.80 0.3537675
779.90 0.3536423
780.00 0.3535172
780.10 0.3533921
780.20 0.3532671
780.30 0.3531421
780.40 0.3530172
780.50 0.3528923
780.60 0.3527674
780.70 0.3526426
780.80 0.3525178
780.90 0.3523931
781.00 0.3522685
781.10 0.3521439
781.20 0.3520193
781.30 0.3518948
781.40 0.3517703
781.50 0.3516459
781.60 0.3515216
781.70 0.3513973
781.80 0.351273
781.90 0.3511489
782.00 0.3510247
782.10 0.3509006
782.20 0.3507766
782.30 0.3506526
782.40 0.3505287
782.50 0.3504048
782.60 0.350281
782.70 0.3501572
782.80 0.3500335
782.90 0.3499098
783.00 0.3497862
783.10 0.3496626
783.20 0.3495391
783.30 0.3494156
783.40 0.3492922
783.50 0.3491688
783.60 0.3490455
783.70 0.3489223
783.80 0.3487991
783.90 0.3486759
784.00 0.3485528
784.10 0.3484297
784.20 0.3483067
784.30 0.3481838
784.40 0.3480609
784.50 0.347938
784.60 0.3478155
784.70 0.3476935
784.80 0.3475716
784.90 0.3474498
785.00 0.347328
785.10 0.3472063
785.20 0.3470846
785.30 0.3469629
785.40 0.3468413
785.50 0.3467198
785.60 0.3465983
785.70 0.3464769
785.80 0.3463555
785.90 0.3462342
786.00 0.3461129
786.10 0.3459916
786.20 0.3458705
786.30 0.3457493
786.40 0.3456282
786.50 0.3455072
786.60 0.3453862
786.70 0.3452653
786.80 0.3451444
786.90 0.3450236
787.00 0.3449028
787.10 0.3447821
787.20 0.3446614
787.30 0.3445407
787.40 0.3444202
787.50 0.3442996
787.60 0.3441792
787.70 0.3440587
787.80 0.3439383
787.90 0.343818
788.00 0.3436977
788.10 0.3435775
788.20 0.3434573
788.30 0.3433372
788.40 0.343216
788.50 0.3430943
788.60 0.3429727
788.70 0.3428511
788.80 0.3427296
788.90 0.3426081
789.00 0.3424867
789.10 0.3423653
789.20 0.342244
789.30 0.3421227
789.40 0.3420015
789.50 0.3418803
789.60 0.3417592
789.70 0.3416381
789.80 0.3415171
789.90 0.3413961
790.00 0.3412752
790.10 0.3411543
790.20 0.3410335
790.30 0.3409127
790.40 0.340792
790.50 0.3406713
790.60 0.3405507
790.70 0.3404301
790.80 0.3403096
790.90 0.3401891
791.00 0.3400687
791.10 0.3399483
791.20 0.339828
791.30 0.3397077
791.40 0.3395875
791.50 0.3394673
791.60 0.3393472
791.70 0.3392271
791.80 0.3391071
791.90 0.3389871
792.00 0.3388672
792.10 0.3387474
792.20 0.3386275
792.30 0.3385078
792.40 0.338388
792.50 0.3382683
792.60 0.3381487
792.70 0.3380291
792.80 0.3379096
792.90 0.3377901
793.00 0.3376707
793.10 0.3375513
793.20 0.3374319
793.30 0.3373127
793.40 0.3371934
793.50 0.3370742
793.60 0.3369551
793.70 0.336836
793.80 0.336717
793.90 0.336598
794.00 0.336479
794.10 0.3363601
794.20 0.3362413
794.30 0.3361225
794.40 0.3360037
794.50 0.3358851
794.60 0.3357664
794.70 0.3356478
794.80 0.3355293
794.90 0.3354108
795.00 0.3352923
795.10 0.3351739
795.20 0.3350556
795.30 0.3349373
795.40 0.334819
795.50 0.3347008
795.60 0.3345826
795.70 0.3344645
795.80 0.3343465
795.90 0.3342285
796.00 0.3341105
796.10 0.3339926
796.20 0.3338747
796.30 0.3337585
796.40 0.3336426
796.50 0.3335267
796.60 0.3334109
796.70 0.3332952
796.80 0.3331795
796.90 0.3330638
797.00 0.3329482
797.10 0.3328326
797.20 0.3327171
797.30 0.3326016
797.40 0.3324862
797.50 0.3323708
797.60 0.3322555
797.70 0.3321402
797.80 0.332025
797.90 0.3319098
798.00 0.3317947
798.10 0.3316796
798.20 0.3315645
798.30 0.3314495
798.40 0.3313346
798.50 0.3312197
798.60 0.3311048
798.70 0.33099
798.80 0.3308753
798.90 0.3307605
799.00 0.3306459
799.10 0.3305313
799.20 0.3304167
799.30 0.3303022
799.40 0.3301877
799.50 0.3300732
799.60 0.3299589
799.70 0.3298445
799.80 0.3297302
799.90 0.329616
800.00 0.3295018
800.10 0.3293876
800.20 0.3292735
800.30 0.3291595
800.40 0.3290455
800.50 0.3289315
800.60 0.3288176
800.70 0.3287037
800.80 0.3285899
800.90 0.3284761
801.00 0.3283624
801.10 0.3282487
801.20 0.3281351
801.30 0.3280215
801.40 0.3279079
801.50 0.3277944
801.60 0.327681
801.70 0.3275676
801.80 0.3274542
801.90 0.3273409
802.00 0.3272276
802.10 0.3271144
802.20 0.3270012
802.30 0.3268881
802.40 0.326775
802.50 0.326662
802.60 0.326549
802.70 0.3264361
802.80 0.3263232
802.90 0.3262103
803.00 0.3260975
803.10 0.3259847
803.20 0.325872
803.30 0.3257594
803.40 0.3256467
803.50 0.3255342
803.60 0.3254216
803.70 0.3253092
803.80 0.3251967
803.90 0.3250843
804.00 0.324972
804.10 0.3248597
804.20 0.3247472
804.30 0.3246338
804.40 0.3245205
804.50 0.3244072
804.60 0.3242939
804.70 0.3241807
804.80 0.3240676
804.90 0.3239545
805.00 0.3238414
805.10 0.3237284
805.20 0.3236155
805.30 0.3235026
805.40 0.3233897
805.50 0.3232769
805.60 0.3231641
805.70 0.3230514
805.80 0.3229387
805.90 0.322826
806.00 0.3227134
806.10 0.3226009
806.20 0.3224884
806.30 0.3223759
806.40 0.3222635
806.50 0.3221512
806.60 0.3220388
806.70 0.3219266
806.80 0.3218143
806.90 0.3217022
807.00 0.32159
807.10 0.3214779
807.20 0.3213659
807.30 0.3212539
807.40 0.3211419
807.50 0.32103
807.60 0.3209182
807.70 0.3208064
807.80 0.3206946
807.90 0.3205829
808.00 0.3204712
808.10 0.3203596
808.20 0.320248
808.30 0.3201364
808.40 0.3200249
808.50 0.3199135
808.60 0.3198021
808.70 0.3196907
808.80 0.3195794
808.90 0.3194681
809.00 0.3193569
809.10 0.3192457
809.20 0.3191346
809.30 0.3190235
809.40 0.3189124
809.50 0.3188014
809.60 0.3186905
809.70 0.3185796
809.80 0.3184687
809.90 0.3183579
810.00 0.3182471
810.10 0.3181364
810.20 0.3180257
810.30 0.3179151
810.40 0.3178045
810.50 0.3176939
810.60 0.3175834
810.70 0.317473
810.80 0.3173625
810.90 0.3172522
811.00 0.3171419
811.10 0.3170316
811.20 0.3169213
811.30 0.3168111
811.40 0.316701
811.50 0.3165909
811.60 0.3164808
811.70 0.3163708
811.80 0.3162609
811.90 0.3161509
812.00 0.3160411
812.10 0.3159312
812.20 0.3158214
812.30 0.315712
812.40 0.3156026
812.50 0.3154933
812.60 0.315384
812.70 0.3152748
812.80 0.3151656
812.90 0.3150565
813.00 0.3149474
813.10 0.3148383
813.20 0.3147293
813.30 0.3146203
813.40 0.3145114
813.50 0.3144025
813.60 0.3142937
813.70 0.3141849
813.80 0.3140762
813.90 0.3139675
814.00 0.3138588
814.10 0.3137502
814.20 0.3136416
814.30 0.3135331
814.40 0.3134246
814.50 0.3133162
814.60 0.3132078
814.70 0.3130995
814.80 0.3129912
814.90 0.3128829
815.00 0.3127747
815.10 0.3126665
815.20 0.3125584
815.30 0.3124503
815.40 0.3123422
815.50 0.3122342
815.60 0.3121263
815.70 0.3120184
815.80 0.3119105
815.90 0.3118027
816.00 0.3116949
816.10 0.3115872
816.20 0.3114795
816.30 0.3113718
816.40 0.3112642
816.50 0.3111566
816.60 0.3110491
816.70 0.3109416
816.80 0.3108342
816.90 0.3107268
817.00 0.3106195
817.10 0.3105122
817.20 0.3104049
817.30 0.3102977
817.40 0.3101905
817.50 0.3100834
817.60 0.3099763
817.70 0.3098692
817.80 0.3097622
817.90 0.3096553
818.00 0.3095484
818.10 0.3094415
818.20 0.3093347
818.30 0.3092279
818.40 0.3091211
818.50 0.3090144
818.60 0.3089078
818.70 0.3088012
818.80 0.3086946
818.90 0.3085881
819.00 0.3084816
819.10 0.3083751
819.20 0.3082687
819.30 0.3081648
819.40 0.3080626
819.50 0.3079604
819.60 0.3078583
819.70 0.3077562
819.80 0.3076541
819.90 0.3075521
820.00 0.3074501
820.10 0.307299
820.20 0.307161
820.30 0.3070861
820.40 0.3069932
820.50 0.3068873
820.60 0.3067814
820.70 0.3066756
820.80 0.3065698
820.90 0.306464
821.00 0.3063583
821.10 0.3062527
821.20 0.306147
821.30 0.3060415
821.40 0.3059359
821.50 0.3058304
821.60 0.305725
821.70 0.3056196
821.80 0.3055142
821.90 0.3054089
822.00 0.3053036
822.10 0.3051983
822.20 0.3050931
822.30 0.304988
822.40 0.3048829
822.50 0.3047778
822.60 0.3046728
822.70 0.3045678
822.80 0.3044628
822.90 0.3043579
823.00 0.3042531
823.10 0.3041483
823.20 0.3040435
823.30 0.3039387
823.40 0.303834
823.50 0.3037294
823.60 0.3036248
823.70 0.3035202
823.80 0.3034157
823.90 0.3033112
824.00 0.3032068
824.10 0.3031024
824.20 0.302998
824.30 0.3028937
824.40 0.3027894
824.50 0.3026852
824.60 0.302581
824.70 0.3024768
824.80 0.3023727
824.90 0.3022686
825.00 0.3021646
825.10 0.3020606
825.20 0.3019567
825.30 0.3018528
825.40 0.3017489
825.50 0.3016451
825.60 0.3015413
825.70 0.3014376
825.80 0.3013339
825.90 0.3012302
826.00 0.3011266
826.10 0.3010231
826.20 0.3009195
826.30 0.3008168
826.40 0.3007146
826.50 0.3006124
826.60 0.3005103
826.70 0.3004083
826.80 0.3003062
826.90 0.3002042
827.00 0.3001023
827.10 0.3000004
827.20 0.2998985
827.30 0.2997967
827.40 0.2996949
827.50 0.2995931
827.60 0.2994914
827.70 0.2993898
827.80 0.2992881
827.90 0.2991865
828.00 0.299085
828.10 0.2989835
828.20 0.298882
828.30 0.2987806
828.40 0.2986792
828.50 0.2985779
828.60 0.2984755
828.70 0.2983723
828.80 0.2982691
828.90 0.298166
829.00 0.2980629
829.10 0.2979598
829.20 0.2978568
829.30 0.2977538
829.40 0.2976509
829.50 0.297548
829.60 0.2974451
829.70 0.2973423
829.80 0.2972396
829.90 0.2971368
830.00 0.2970341
830.10 0.2969315
830.20 0.2968289
830.30 0.2967263
830.40 0.2966238
830.50 0.2965213
830.60 0.2964189
830.70 0.2963165
830.80 0.2962141
830.90 0.2961118
831.00 0.2960095
831.10 0.2959073
831.20 0.2958051
831.30 0.2957029
831.40 0.2956008
831.50 0.2954987
831.60 0.2953967
831.70 0.2952947
831.80 0.2951927
831.90 0.2950908
832.00 0.2949889
832.10 0.2948871
832.20 0.2947853
832.30 0.2946835
832.40 0.2945818
832.50 0.2944801
832.60 0.2943785
832.70 0.2942769
832.80 0.2941754
832.90 0.2940739
833.00 0.2939724
833.10 0.2938709
833.20 0.2937696
833.30 0.2936682
833.40 0.2935669
833.50 0.2934656
833.60 0.2933644
833.70 0.2932632
833.80 0.2931621
833.90 0.2930609
834.00 0.2929599
834.10 0.2928588
834.20 0.2927578
834.30 0.2926569
834.40 0.292556
834.50 0.2924551
834.60 0.2923543
834.70 0.2922535
834.80 0.2921527
834.90 0.292052
835.00 0.2919514
835.10 0.2918507
835.20 0.2917501
835.30 0.2916496
835.40 0.2915491
835.50 0.2914486
835.60 0.2913482
835.70 0.2912478
835.80 0.2911474
835.90 0.2910471
836.00 0.2909468
836.10 0.2908466
836.20 0.2907464
836.30 0.2906463
836.40 0.2905461
836.50 0.2904461
836.60 0.290346
836.70 0.290246
836.80 0.2901461
836.90 0.2900473
837.00 0.289949
837.10 0.2898508
837.20 0.2897526
837.30 0.2896545
837.40 0.2895564
837.50 0.2894583
837.60 0.2893603
837.70 0.2892623
837.80 0.2891643
837.90 0.2890664
838.00 0.2889686
838.10 0.2888707
838.20 0.2887729
838.30 0.2886752
838.40 0.2885775
838.50 0.2884798
838.60 0.2883821
838.70 0.2882845
838.80 0.288187
838.90 0.2880894
839.00 0.2879919
839.10 0.2878945
839.20 0.2877971
839.30 0.2876997
839.40 0.2876024
839.50 0.2875051
839.60 0.2874078
839.70 0.2873106
839.80 0.2872134
839.90 0.2871163
840.00 0.2870192
840.10 0.2869221
840.20 0.2868251
840.30 0.2867281
840.40 0.2866311
840.50 0.2865342
840.60 0.2864373
840.70 0.2863405
840.80 0.2862437
840.90 0.2861469
841.00 0.2860502
841.10 0.2859535
841.20 0.2858569
841.30 0.2857602
841.40 0.2856637
841.50 0.2855671
841.60 0.2854707
841.70 0.2853742
841.80 0.2852778
841.90 0.2851814
842.00 0.2850851
842.10 0.2849888
842.20 0.2848925
842.30 0.2847963
842.40 0.2847001
842.50 0.2846039
842.60 0.2845078
842.70 0.2844117
842.80 0.2843157
842.90 0.2842197
843.00 0.2841237
843.10 0.2840278
843.20 0.2839319
843.30 0.283836
843.40 0.2837402
843.50 0.2836445
843.60 0.2835487
843.70 0.283453
843.80 0.2833573
843.90 0.2832617
844.00 0.2831661
844.10 0.2830706
844.20 0.2829751
844.30 0.2828796
844.40 0.2827841
844.50 0.2826887
844.60 0.2825934
844.70 0.282498
844.80 0.2824027
844.90 0.2823075
845.00 0.2822123
845.10 0.2821171
845.20 0.2820219
845.30 0.2819258
845.40 0.2818298
845.50 0.2817337
845.60 0.2816377
845.70 0.2815418
845.80 0.2814458
845.90 0.28135
846.00 0.2812541
846.10 0.2811583
846.20 0.2810625
846.30 0.2809668
846.40 0.2808711
846.50 0.2807754
846.60 0.2806798
846.70 0.2805842
846.80 0.2804887
846.90 0.2803932
847.00 0.2802977
847.10 0.2802023
847.20 0.2801069
847.30 0.2800115
847.40 0.2799162
847.50 0.2798209
847.60 0.2797257
847.70 0.2796304
847.80 0.2795353
847.90 0.2794401
848.00 0.279345
848.10 0.27925
848.20 0.2791549
848.30 0.2790599
848.40 0.278965
848.50 0.2788701
848.60 0.2787752
848.70 0.2786804
848.80 0.2785856
848.90 0.2784908
849.00 0.2783961
849.10 0.2783014
849.20 0.2782067
849.30 0.2781121
849.40 0.2780175
849.50 0.2779229
849.60 0.2778284
849.70 0.277734
849.80 0.2776395
849.90 0.2775451
850.00 0.2774508
850.10 0.2773564
850.20 0.2772622
850.30 0.2771679
850.40 0.2770737
850.50 0.2769795
850.60 0.2768854
850.70 0.2767913
850.80 0.2766972
850.90 0.2766032
851.00 0.2765092
851.10 0.2764152
851.20 0.2763213
851.30 0.2762274
851.40 0.2761335
851.50 0.2760397
851.60 0.2759459
851.70 0.2758522
851.80 0.2757585
851.90 0.2756648
852.00 0.2755712
852.10 0.2754776
852.20 0.275384
852.30 0.2752905
852.40 0.275197
852.50 0.2751036
852.60 0.2750102
852.70 0.2749168
852.80 0.2748234
852.90 0.2747301
853.00 0.2746369
853.10 0.2745436
853.20 0.2744504
853.30 0.2743573
853.40 0.2742642
853.50 0.2741711
853.60 0.274078
853.70 0.2739845
853.80 0.2738906
853.90 0.2737967
854.00 0.2737028
854.10 0.273609
854.20 0.2735152
854.30 0.2734215
854.40 0.2733277
854.50 0.2732341
854.60 0.2731404
854.70 0.2730468
854.80 0.2729532
854.90 0.2728597
855.00 0.2727662
855.10 0.2726727
855.20 0.2725793
855.30 0.2724859
855.40 0.2723926
855.50 0.2722992
855.60 0.272206
855.70 0.2721127
855.80 0.2720195
855.90 0.2719263
856.00 0.2718332
856.10 0.2717401
856.20 0.271647
856.30 0.271554
856.40 0.271461
856.50 0.271368
856.60 0.2712751
856.70 0.2711822
856.80 0.2710894
856.90 0.2709966
857.00 0.2709038
857.10 0.2708111
857.20 0.2707183
857.30 0.2706257
857.40 0.270533
857.50 0.2704404
857.60 0.2703479
857.70 0.2702554
857.80 0.2701629
857.90 0.2700704
858.00 0.26998
858.10 0.26989
858.20 0.2698001
858.30 0.2697103
858.40 0.2696204
858.50 0.2695307
858.60 0.2694409
858.70 0.2693512
858.80 0.2692615
858.90 0.2691718
859.00 0.2690822
859.10 0.2689926
859.20 0.2689031
859.30 0.2688136
859.40 0.2687241
859.50 0.2686346
859.60 0.2685452
859.70 0.2684559
859.80 0.2683665
859.90 0.2682772
860.00 0.2681879
860.10 0.2680987
860.20 0.2680095
860.30 0.2679203
860.40 0.2678312
860.50 0.2677421
860.60 0.267653
860.70 0.267564
860.80 0.267475
860.90 0.267386
861.00 0.2672971
861.10 0.2672082
861.20 0.2671193
861.30 0.2670305
861.40 0.2669417
861.50 0.2668529
861.60 0.2667642
861.70 0.2666755
861.80 0.2665868
861.90 0.2664982
862.00 0.2664096
862.10 0.266321
862.20 0.2662324
862.30 0.266143
862.40 0.2660536
862.50 0.2659642
862.60 0.2658749
862.70 0.2657856
862.80 0.2656963
862.90 0.2656071
863.00 0.2655179
863.10 0.2654288
863.20 0.2653397
863.30 0.2652506
863.40 0.2651615
863.50 0.2650725
863.60 0.2649835
863.70 0.2648946
863.80 0.2648057
863.90 0.2647168
864.00 0.2646279
864.10 0.2645391
864.20 0.2644503
864.30 0.2643616
864.40 0.2642729
864.50 0.2641842
864.60 0.2640956
864.70 0.264007
864.80 0.2639184
864.90 0.2638298
865.00 0.2637413
865.10 0.2636529
865.20 0.2635644
865.30 0.263476
865.40 0.2633877
865.50 0.2632993
865.60 0.263211
865.70 0.2631227
865.80 0.2630345
865.90 0.2629463
866.00 0.2628581
866.10 0.26277
866.20 0.2626819
866.30 0.2625938
866.40 0.2625058
866.50 0.2624178
866.60 0.2623298
866.70 0.2622419
866.80 0.262154
866.90 0.2620661
867.00 0.2619783
867.10 0.2618905
867.20 0.2618027
867.30 0.261715
867.40 0.2616273
867.50 0.2615396
867.60 0.261452
867.70 0.2613644
867.80 0.2612768
867.90 0.2611893
868.00 0.2611018
868.10 0.2610143
868.20 0.2609269
868.30 0.2608395
868.40 0.2607521
868.50 0.2606648
868.60 0.2605775
868.70 0.2604903
868.80 0.260403
868.90 0.2603158
869.00 0.2602287
869.10 0.2601415
869.20 0.2600544
869.30 0.2599674
869.40 0.2598803
869.50 0.2597933
869.60 0.2597064
869.70 0.2596194
869.80 0.2595325
869.90 0.2594457
870.00 0.2593588
870.10 0.259272
870.20 0.2591853
870.30 0.2590985
870.40 0.2590118
870.50 0.2589252
870.60 0.2588385
870.70 0.2587519
870.80 0.2586654
870.90 0.258578
871.00 0.2584906
871.10 0.2584032
871.20 0.2583159
871.30 0.2582286
871.40 0.2581413
871.50 0.2580541
871.60 0.2579669
871.70 0.2578797
871.80 0.2577926
871.90 0.2577055
872.00 0.2576184
872.10 0.2575314
872.20 0.2574444
872.30 0.2573574
872.40 0.2572704
872.50 0.2571835
872.60 0.2570967
872.70 0.2570098
872.80 0.256923
872.90 0.2568363
873.00 0.2567495
873.10 0.2566628
873.20 0.2565761
873.30 0.2564895
873.40 0.2564029
873.50 0.2563163
873.60 0.2562298
873.70 0.2561433
873.80 0.2560568
873.90 0.2559703
874.00 0.2558839
874.10 0.2557975
874.20 0.2557112
874.30 0.2556249
874.40 0.2555386
874.50 0.2554524
874.60 0.2553661
874.70 0.25528
874.80 0.2551938
874.90 0.2551077
875.00 0.2550216
875.10 0.2549356
875.20 0.2548504
875.30 0.2547667
875.40 0.2546831
875.50 0.2545995
875.60 0.2545159
875.70 0.2544323
875.80 0.2543488
875.90 0.2542653
876.00 0.2541819
876.10 0.2540985
876.20 0.2540151
876.30 0.2539317
876.40 0.2538484
876.50 0.2537651
876.60 0.2536818
876.70 0.2535986
876.80 0.2535154
876.90 0.2534322
877.00 0.2533491
877.10 0.253266
877.20 0.2531829
877.30 0.2530999
877.40 0.2530169
877.50 0.2529339
877.60 0.2528509
877.70 0.252768
877.80 0.2526851
877.90 0.2526023
878.00 0.2525194
878.10 0.2524367
878.20 0.2523539
878.30 0.2522712
878.40 0.2521885
878.50 0.2521058
878.60 0.2520232
878.70 0.2519405
878.80 0.251858
878.90 0.2517754
879.00 0.2516929
879.10 0.2516104
879.20 0.251528
879.30 0.2514456
879.40 0.2513632
879.50 0.2512808
879.60 0.2511968
879.70 0.2511125
879.80 0.2510282
879.90 0.250944
880.00 0.2508598
880.10 0.2507756
880.20 0.2506914
880.30 0.2506073
880.40 0.2505232
880.50 0.2504392
880.60 0.2503551
880.70 0.2502711
880.80 0.2501872
880.90 0.2501033
881.00 0.2500194
881.10 0.2499355
881.20 0.2498517
881.30 0.2497678
881.40 0.2496841
881.50 0.2496003
881.60 0.2495166
881.70 0.2494329
881.80 0.2493493
881.90 0.2492657
882.00 0.2491821
882.10 0.2490986
882.20 0.249015
882.30 0.2489315
882.40 0.2488481
882.50 0.2487647
882.60 0.2486813
882.70 0.2485979
882.80 0.2485146
882.90 0.2484313
883.00 0.248348
883.10 0.2482648
883.20 0.2481816
883.30 0.2480984
883.40 0.2480152
883.50 0.2479321
883.60 0.247849
883.70 0.247766
883.80 0.247683
883.90 0.2476
884.00 0.247517
884.10 0.2474341
884.20 0.2473512
884.30 0.2472683
884.40 0.2471855
884.50 0.2471027
884.60 0.2470199
884.70 0.2469372
884.80 0.2468545
884.90 0.2467718
885.00 0.2466891
885.10 0.2466065
885.20 0.2465239
885.30 0.2464414
885.40 0.2463588
885.50 0.2462763
885.60 0.2461939
885.70 0.2461114
885.80 0.246029
885.90 0.2459467
886.00 0.2458643
886.10 0.245782
886.20 0.2456997
886.30 0.2456175
886.40 0.2455353
886.50 0.2454531
886.60 0.2453709
886.70 0.2452888
886.80 0.2452067
886.90 0.2451246
887.00 0.2450426
887.10 0.2449606
887.20 0.2448786
887.30 0.2447967
887.40 0.2447148
887.50 0.2446329
887.60 0.2445511
887.70 0.2444692
887.80 0.2443874
887.90 0.2443057
888.00 0.244224
888.10 0.2441423
888.20 0.2440606
888.30 0.243979
888.40 0.2438986
888.50 0.2438184
888.60 0.2437382
888.70 0.243658
888.80 0.2435779
888.90 0.2434978
889.00 0.2434178
889.10 0.2433377
889.20 0.2432578
889.30 0.2431778
889.40 0.2430978
889.50 0.2430179
889.60 0.2429381
889.70 0.2428582
889.80 0.2427784
889.90 0.2426986
890.00 0.2426189
890.10 0.2425391
890.20 0.2424594
890.30 0.2423798
890.40 0.2423001
890.50 0.2422205
890.60 0.2421409
890.70 0.2420614
890.80 0.2419819
890.90 0.2419024
891.00 0.2418229
891.10 0.2417435
891.20 0.2416641
891.30 0.2415847
891.40 0.2415054
891.50 0.241426
891.60 0.2413468
891.70 0.2412675
891.80 0.2411883
891.90 0.2411091
892.00 0.2410299
892.10 0.2409508
892.20 0.2408717
892.30 0.2407926
892.40 0.2407135
892.50 0.2406345
892.60 0.2405555
892.70 0.2404766
892.80 0.2403976
892.90 0.2403187
893.00 0.2402399
893.10 0.240161
893.20 0.2400822
893.30 0.2400034
893.40 0.2399247
893.50 0.2398459
893.60 0.2397672
893.70 0.2396886
893.80 0.2396099
893.90 0.2395313
894.00 0.2394527
894.10 0.2393742
894.20 0.2392957
894.30 0.2392172
894.40 0.2391387
894.50 0.2390603
894.60 0.2389819
894.70 0.2389035
894.80 0.2388251
894.90 0.2387468
895.00 0.2386685
895.10 0.2385903
895.20 0.2385121
895.30 0.2384338
895.40 0.2383557
895.50 0.2382775
895.60 0.2381994
895.70 0.2381213
895.80 0.2380433
895.90 0.2379652
896.00 0.2378872
896.10 0.2378093
896.20 0.2377313
896.30 0.2376534
896.40 0.2375755
896.50 0.2374977
896.60 0.2374198
896.70 0.2373421
896.80 0.2372643
896.90 0.2371865
897.00 0.2371088
897.10 0.2370311
897.20 0.2369535
897.30 0.236875
897.40 0.2367966
897.50 0.2367182
897.60 0.2366398
897.70 0.2365615
897.80 0.2364832
897.90 0.2364049
898.00 0.2363267
898.10 0.2362485
898.20 0.2361703
898.30 0.2360921
898.40 0.236014
898.50 0.2359359
898.60 0.2358578
898.70 0.2357798
898.80 0.2357018
898.90 0.2356238
899.00 0.2355458
899.10 0.2354679
899.20 0.23539
899.30 0.2353122
899.40 0.2352343
899.50 0.2351565
899.60 0.2350787
899.70 0.235001
899.80 0.2349232
899.90 0.2348456
900.00 0.2347679
900.10 0.2346902
900.20 0.2346126
900.30 0.2345351
900.40 0.2344575
900.50 0.23438
900.60 0.2343025
900.70 0.234225
900.80 0.2341476
900.90 0.2340702
901.00 0.2339928
901.10 0.2339154
901.20 0.2338381
901.30 0.2337608
901.40 0.2336836
901.50 0.2336063
901.60 0.2335291
901.70 0.2334519
901.80 0.2333748
901.90 0.2332977
902.00 0.2332206
902.10 0.2331435
902.20 0.2330665
902.30 0.2329894
902.40 0.2329125
902.50 0.2328355
902.60 0.2327586
902.70 0.2326817
902.80 0.2326048
902.90 0.232528
903.00 0.2324512
903.10 0.2323744
903.20 0.2322976
903.30 0.2322209
903.40 0.2321442
903.50 0.2320675
903.60 0.2319909
903.70 0.2319143
903.80 0.2318377
903.90 0.2317611
904.00 0.2316846
904.10 0.2316081
904.20 0.2315316
904.30 0.2314552
904.40 0.2313788
904.50 0.2313024
904.60 0.231226
904.70 0.2311497
904.80 0.2310734
904.90 0.2309971
905.00 0.2309209
905.10 0.2308447
905.20 0.2307685
905.30 0.2306923
905.40 0.2306162
905.50 0.2305401
905.60 0.230464
905.70 0.2303879
905.80 0.2303119
905.90 0.2302359
906.00 0.2301599
906.10 0.230084
906.20 0.2300082
906.30 0.2299325
906.40 0.2298569
906.50 0.2297813
906.60 0.2297058
906.70 0.2296303
906.80 0.2295548
906.90 0.2294793
907.00 0.2294039
907.10 0.2293285
907.20 0.2292531
907.30 0.2291777
907.40 0.2291024
907.50 0.2290271
907.60 0.2289518
907.70 0.2288766
907.80 0.2288013
907.90 0.2287262
908.00 0.228651
908.10 0.2285759
908.20 0.2285007
908.30 0.2284257
908.40 0.2283506
908.50 0.2282756
908.60 0.2282006
908.70 0.2281256
908.80 0.2280507
908.90 0.2279758
909.00 0.2279009
909.10 0.227826
909.20 0.2277512
909.30 0.2276764
909.40 0.2276016
909.50 0.2275268
909.60 0.2274521
909.70 0.2273774
909.80 0.2273027
909.90 0.2272281
910.00 0.2271535
910.10 0.2270789
910.20 0.2270043
910.30 0.2269298
910.40 0.2268553
910.50 0.2267808
910.60 0.2267064
910.70 0.226632
910.80 0.2265596
910.90 0.2264873
911.00 0.226415
911.10 0.2263428
911.20 0.2262705
911.30 0.2261983
911.40 0.2261261
911.50 0.226054
911.60 0.2259818
911.70 0.2259097
911.80 0.2258376
911.90 0.2257656
912.00 0.2256935
912.10 0.2256215
912.20 0.2255496
912.30 0.2254776
912.40 0.2254057
912.50 0.2253338
912.60 0.2252619
912.70 0.2251901
912.80 0.2251183
912.90 0.2250465
913.00 0.2249747
913.10 0.224903
913.20 0.2248312
913.30 0.2247595
913.40 0.2246879
913.50 0.2246162
913.60 0.2245446
913.70 0.224473
913.80 0.2244015
913.90 0.22433
914.00 0.2242584
914.10 0.224187
914.20 0.2241155
914.30 0.2240441
914.40 0.2239727
914.50 0.2239013
914.60 0.2238299
914.70 0.2237586
914.80 0.2236873
914.90 0.223616
915.00 0.2235448
915.10 0.2234736
915.20 0.2234024
915.30 0.2233299
915.40 0.223257
915.50 0.2231841
915.60 0.2231112
915.70 0.2230383
915.80 0.2229655
915.90 0.2228927
916.00 0.2228199
916.10 0.2227472
916.20 0.2226744
916.30 0.2226017
916.40 0.2225291
916.50 0.2224564
916.60 0.2223838
916.70 0.2223112
916.80 0.2222386
916.90 0.2221661
917.00 0.2220936
917.10 0.2220211
917.20 0.2219486
917.30 0.2218762
917.40 0.2218038
917.50 0.2217314
917.60 0.221659
917.70 0.2215867
917.80 0.2215144
917.90 0.2214421
918.00 0.2213699
918.10 0.2212976
918.20 0.2212254
918.30 0.2211533
918.40 0.2210811
918.50 0.221009
918.60 0.2209369
918.70 0.2208648
918.80 0.2207928
918.90 0.2207208
919.00 0.2206488
919.10 0.2205768
919.20 0.2205049
919.30 0.220433
919.40 0.2203611
919.50 0.2202892
919.60 0.2202174
919.70 0.2201456
919.80 0.2200738
919.90 0.220002
920.00 0.2199303
920.10 0.2198586
920.20 0.2197869
920.30 0.2197153
920.40 0.2196437
920.50 0.2195721
920.60 0.2195005
920.70 0.2194289
920.80 0.2193574
920.90 0.2192859
921.00 0.2192144
921.10 0.219143
921.20 0.2190716
921.30 0.2190002
921.40 0.2189288
921.50 0.2188575
921.60 0.2187862
921.70 0.2187149
921.80 0.2186436
921.90 0.2185724
922.00 0.2185011
922.10 0.21843
922.20 0.2183588
922.30 0.2182877
922.40 0.2182166
922.50 0.2181455
922.60 0.2180744
922.70 0.2180034
922.80 0.2179324
922.90 0.2178614
923.00 0.2177904
923.10 0.2177195
923.20 0.2176486
923.30 0.2175777
923.40 0.2175069
923.50 0.217436
923.60 0.2173652
923.70 0.2172945
923.80 0.2172237
923.90 0.217153
924.00 0.2170823
924.10 0.2170116
924.20 0.216941
924.30 0.2168703
924.40 0.2167998
924.50 0.2167294
924.60 0.2166591
924.70 0.2165888
924.80 0.2165186
924.90 0.2164483
925.00 0.2163781
925.10 0.2163079
925.20 0.2162378
925.30 0.2161677
925.40 0.2160975
925.50 0.2160275
925.60 0.2159574
925.70 0.2158874
925.80 0.2158174
925.90 0.2157474
926.00 0.2156774
926.10 0.2156075
926.20 0.2155376
926.30 0.2154677
926.40 0.2153978
926.50 0.215328
926.60 0.2152582
926.70 0.2151884
926.80 0.2151187
926.90 0.2150489
927.00 0.2149792
927.10 0.2149095
927.20 0.2148399
927.30 0.2147703
927.40 0.2147006
927.50 0.2146311
927.60 0.2145615
927.70 0.214492
927.80 0.2144225
927.90 0.214353
928.00 0.2142835
928.10 0.2142141
928.20 0.2141447
928.30 0.2140753
928.40 0.214006
928.50 0.2139366
928.60 0.2138673
928.70 0.213798
928.80 0.2137288
928.90 0.2136595
929.00 0.2135903
929.10 0.2135212
929.20 0.213452
929.30 0.2133829
929.40 0.2133138
929.50 0.2132447
929.60 0.2131756
929.70 0.2131066
929.80 0.2130376
929.90 0.2129686
930.00 0.2128996
930.10 0.2128307
930.20 0.2127618
930.30 0.2126929
930.40 0.212624
930.50 0.2125552
930.60 0.2124864
930.70 0.2124176
930.80 0.2123488
930.90 0.2122801
931.00 0.2122114
931.10 0.2121427
931.20 0.212074
931.30 0.2120054
931.40 0.2119368
931.50 0.2118682
931.60 0.2117996
931.70 0.2117311
931.80 0.2116626
931.90 0.2115941
932.00 0.2115256
932.10 0.2114572
932.20 0.2113888
932.30 0.2113204
932.40 0.211252
932.50 0.2111837
932.60 0.2111153
932.70 0.211047
932.80 0.2109788
932.90 0.2109105
933.00 0.2108423
933.10 0.2107741
933.20 0.2107059
933.30 0.2106378
933.40 0.2105697
933.50 0.2105016
933.60 0.2104335
933.70 0.2103656
933.80 0.2102978
933.90 0.21023
934.00 0.2101623
934.10 0.2100945
934.20 0.2100268
934.30 0.2099591
934.40 0.2098915
934.50 0.2098239
934.60 0.2097563
934.70 0.2096887
934.80 0.2096211
934.90 0.2095536
935.00 0.2094861
935.10 0.2094186
935.20 0.2093511
935.30 0.2092837
935.40 0.2092163
935.50 0.2091489
935.60 0.2090815
935.70 0.2090142
935.80 0.2089468
935.90 0.2088795
936.00 0.2088123
936.10 0.208745
936.20 0.2086778
936.30 0.2086106
936.40 0.2085434
936.50 0.2084763
936.60 0.2084092
936.70 0.208342
936.80 0.208275
936.90 0.2082079
937.00 0.2081409
937.10 0.2080739
937.20 0.2080069
937.30 0.2079399
937.40 0.207873
937.50 0.2078061
937.60 0.2077392
937.70 0.2076723
937.80 0.2076055
937.90 0.2075387
938.00 0.2074719
938.10 0.2074051
938.20 0.2073384
938.30 0.2072716
938.40 0.2072049
938.50 0.2071383
938.60 0.2070716
938.70 0.207005
938.80 0.2069384
938.90 0.2068718
939.00 0.2068052
939.10 0.2067387
939.20 0.2066722
939.30 0.2066057
939.40 0.2065393
939.50 0.2064728
939.60 0.2064064
939.70 0.20634
939.80 0.2062736
939.90 0.2062073
940.00 0.206141
940.10 0.2060747
940.20 0.2060084
940.30 0.2059422
940.40 0.2058759
940.50 0.2058097
940.60 0.2057436
940.70 0.2056774
940.80 0.2056113
940.90 0.2055452
941.00 0.2054791
941.10 0.205413
941.20 0.205347
941.30 0.205281
941.40 0.205215
941.50 0.205149
941.60 0.2050831
941.70 0.2050171
941.80 0.2049512
941.90 0.2048854
942.00 0.2048195
942.10 0.2047537
942.20 0.2046879
942.30 0.2046221
942.40 0.2045563
942.50 0.2044906
942.60 0.2044249
942.70 0.2043592
942.80 0.2042935
942.90 0.2042279
943.00 0.2041624
943.10 0.204097
943.20 0.2040316
943.30 0.2039663
943.40 0.203901
943.50 0.2038357
943.60 0.2037705
943.70 0.2037052
943.80 0.20364
943.90 0.2035748
944.00 0.2035097
944.10 0.2034445
944.20 0.2033794
944.30 0.2033143
944.40 0.2032492
944.50 0.2031842
944.60 0.2031192
944.70 0.2030542
944.80 0.2029892
944.90 0.2029242
945.00 0.2028593
945.10 0.2027944
945.20 0.2027295
945.30 0.2026646
945.40 0.2025998
945.50 0.202535
945.60 0.2024702
945.70 0.2024054
945.80 0.2023406
945.90 0.2022759
946.00 0.2022112
946.10 0.2021465
946.20 0.2020819
946.30 0.2020172
946.40 0.2019526
946.50 0.201888
946.60 0.2018234
946.70 0.2017589
946.80 0.2016944
946.90 0.2016299
947.00 0.2015654
947.10 0.2015009
947.20 0.2014365
947.30 0.2013721
947.40 0.2013077
947.50 0.2012433
947.60 0.201179
947.70 0.2011147
947.80 0.2010504
947.90 0.2009861
948.00 0.2009219
948.10 0.2008576
948.20 0.2007934
948.30 0.2007292
948.40 0.2006651
948.50 0.200601
948.60 0.2005368
948.70 0.2004727
948.80 0.2004087
948.90 0.2003446
949.00 0.2002806
949.10 0.2002166
949.20 0.2001526
949.30 0.2000887
949.40 0.2000247
949.50 0.1999608
949.60 0.1998969
949.70 0.1998331
949.80 0.1997692
949.90 0.1997054
950.00 0.1996416
950.10 0.1995778
950.20 0.199514
950.30 0.1994503
950.40 0.1993866
950.50 0.1993229
950.60 0.1992593
950.70 0.1991956
950.80 0.199132
950.90 0.1990684
951.00 0.1990048
951.10 0.1989413
951.20 0.1988777
951.30 0.1988142
951.40 0.1987507
951.50 0.1986873
951.60 0.1986238
951.70 0.1985604
951.80 0.198497
951.90 0.1984336
952.00 0.1983703
952.10 0.1983069
952.20 0.1982436
952.30 0.1981803
952.40 0.1981172
952.50 0.198056
952.60 0.1979948
952.70 0.1979336
952.80 0.1978724
952.90 0.1978112
953.00 0.1977501
953.10 0.197689
953.20 0.1976279
953.30 0.1975668
953.40 0.1975058
953.50 0.1974447
953.60 0.1973837
953.70 0.1973227
953.80 0.1972618
953.90 0.1972008
954.00 0.1971399
954.10 0.197079
954.20 0.1970181
954.30 0.1969573
954.40 0.1968964
954.50 0.1968356
954.60 0.1967748
954.70 0.196714
954.80 0.1966533
954.90 0.1965925
955.00 0.1965318
955.10 0.1964711
955.20 0.1964105
955.30 0.1963498
955.40 0.1962892
955.50 0.1962286
955.60 0.196168
955.70 0.1961074
955.80 0.1960469
955.90 0.1959864
956.00 0.1959259
956.10 0.1958654
956.20 0.1958049
956.30 0.1957445
956.40 0.1956841
956.50 0.1956237
956.60 0.1955633
956.70 0.195503
956.80 0.1954426
956.90 0.1953823
957.00 0.195322
957.10 0.1952617
957.20 0.1952007
957.30 0.1951387
957.40 0.1950767
957.50 0.1950148
957.60 0.1949528
957.70 0.1948909
957.80 0.194829
957.90 0.1947672
958.00 0.1947053
958.10 0.1946435
958.20 0.1945817
958.30 0.1945199
958.40 0.1944581
958.50 0.1943964
958.60 0.1943347
958.70 0.194273
958.80 0.1942113
958.90 0.1941497
959.00 0.194088
959.10 0.1940264
959.20 0.1939648
959.30 0.1939033
959.40 0.1938417
959.50 0.1937802
959.60 0.1937187
959.70 0.1936572
959.80 0.1935958
959.90 0.1935343
960.00 0.1934729
960.10 0.1934115
960.20 0.1933502
960.30 0.1932888
960.40 0.1932275
960.50 0.1931662
960.60 0.1931049
960.70 0.1930436
960.80 0.1929824
960.90 0.1929211
961.00 0.1928599
961.10 0.1927988
961.20 0.1927376
961.30 0.1926765
961.40 0.1926153
961.50 0.1925542
961.60 0.1924932
961.70 0.1924321
961.80 0.1923711
961.90 0.1923101
962.00 0.1922493
962.10 0.1921885
962.20 0.1921278
962.30 0.192067
962.40 0.1920063
962.50 0.1919457
962.60 0.191885
962.70 0.1918244
962.80 0.1917638
962.90 0.1917032
963.00 0.1916426
963.10 0.1915821
963.20 0.1915215
963.30 0.191461
963.40 0.1914005
963.50 0.1913401
963.60 0.1912796
963.70 0.1912192
963.80 0.1911588
963.90 0.1910984
964.00 0.191038
964.10 0.1909777
964.20 0.1909174
964.30 0.1908571
964.40 0.1907968
964.50 0.1907365
964.60 0.1906763
964.70 0.1906161
964.80 0.1905559
964.90 0.1904957
965.00 0.1904356
965.10 0.1903754
965.20 0.1903153
965.30 0.1902552
965.40 0.1901952
965.50 0.1901351
965.60 0.1900751
965.70 0.1900151
965.80 0.1899551
965.90 0.1898951
966.00 0.1898352
966.10 0.1897753
966.20 0.1897154
966.30 0.1896555
966.40 0.1895956
966.50 0.1895358
966.60 0.189476
966.70 0.1894162
966.80 0.1893564
966.90 0.1892966
967.00 0.1892369
967.10 0.1891772
967.20 0.1891175
967.30 0.1890578
967.40 0.1889981
967.50 0.1889385
967.60 0.1888789
967.70 0.1888193
967.80 0.1887597
967.90 0.1887002
968.00 0.1886406
968.10 0.1885811
968.20 0.1885216
968.30 0.1884622
968.40 0.1884027
968.50 0.1883433
968.60 0.1882839
968.70 0.1882245
968.80 0.1881651
968.90 0.1881058
969.00 0.1880465
969.10 0.1879871
969.20 0.1879279
969.30 0.1878686
969.40 0.1878094
969.50 0.1877501
969.60 0.1876909
969.70 0.1876317
969.80 0.1875726
969.90 0.1875134
970.00 0.1874543
970.10 0.1873952
970.20 0.1873361
970.30 0.1872771
970.40 0.187218
970.50 0.187159
970.60 0.1871
970.70 0.187041
970.80 0.1869821
970.90 0.1869231
971.00 0.1868642
971.10 0.1868053
971.20 0.1867464
971.30 0.1866876
971.40 0.1866287
971.50 0.1865699
971.60 0.1865113
971.70 0.1864527
971.80 0.1863941
971.90 0.1863356
972.00 0.1862771
972.10 0.1862186
972.20 0.1861601
972.30 0.1861017
972.40 0.1860432
972.50 0.1859848
972.60 0.1859264
972.70 0.185868
972.80 0.1858097
972.90 0.1857514
973.00 0.185693
973.10 0.1856348
973.20 0.1855765
973.30 0.1855182
973.40 0.18546
973.50 0.1854018
973.60 0.1853436
973.70 0.1852854
973.80 0.1852273
973.90 0.1851691
974.00 0.185111
974.10 0.1850529
974.20 0.1849948
974.30 0.1849368
974.40 0.1848788
974.50 0.1848207
974.60 0.1847627
974.70 0.1847048
974.80 0.1846468
974.90 0.1845889
975.00 0.184531
975.10 0.1844731
975.20 0.1844152
975.30 0.1843573
975.40 0.1842995
975.50 0.1842417
975.60 0.1841839
975.70 0.1841261
975.80 0.1840684
975.90 0.1840106
976.00 0.1839529
976.10 0.1838952
976.20 0.1838375
976.30 0.1837799
976.40 0.1837223
976.50 0.1836646
976.60 0.183607
976.70 0.1835495
976.80 0.1834919
976.90 0.1834344
977.00 0.1833768
977.10 0.1833194
977.20 0.1832619
977.30 0.1832044
977.40 0.183147
977.50 0.1830896
977.60 0.1830322
977.70 0.1829748
977.80 0.1829174
977.90 0.1828601
978.00 0.1828027
978.10 0.1827454
978.20 0.1826882
978.30 0.1826309
978.40 0.1825737
978.50 0.1825164
978.60 0.1824592
978.70 0.182402
978.80 0.1823449
978.90 0.1822877
979.00 0.1822306
979.10 0.1821735
979.20 0.1821164
979.30 0.1820593
979.40 0.1820023
979.50 0.1819453
979.60 0.1818883
979.70 0.1818313
979.80 0.1817743
979.90 0.1817174
980.00 0.1816604
980.10 0.1816035
980.20 0.1815466
980.30 0.1814897
980.40 0.1814329
980.50 0.1813761
980.60 0.1813192
980.70 0.1812624
980.80 0.1812057
980.90 0.1811489
981.00 0.1810922
981.10 0.1810355
981.20 0.1809788
981.30 0.1809222
981.40 0.1808657
981.50 0.1808093
981.60 0.1807529
981.70 0.1806965
981.80 0.1806401
981.90 0.1805837
982.00 0.1805274
982.10 0.180471
982.20 0.1804147
982.30 0.1803584
982.40 0.1803022
982.50 0.1802459
982.60 0.1801897
982.70 0.1801335
982.80 0.1800773
982.90 0.1800211
983.00 0.1799649
983.10 0.1799088
983.20 0.1798527
983.30 0.1797966
983.40 0.1797405
983.50 0.1796845
983.60 0.1796284
983.70 0.1795724
983.80 0.1795164
983.90 0.1794604
984.00 0.1794044
984.10 0.1793485
984.20 0.1792926
984.30 0.1792367
984.40 0.1791808
984.50 0.1791249
984.60 0.1790691
984.70 0.1790132
984.80 0.1789574
984.90 0.1789016
985.00 0.1788459
985.10 0.1787901
985.20 0.1787344
985.30 0.1786786
985.40 0.1786229
985.50 0.1785673
985.60 0.1785116
985.70 0.178456
985.80 0.1784003
985.90 0.1783447
986.00 0.1782892
986.10 0.1782336
986.20 0.178178
986.30 0.1781225
986.40 0.178067
986.50 0.1780115
986.60 0.177956
986.70 0.1779006
986.80 0.1778452
986.90 0.1777897
987.00 0.1777343
987.10 0.177679
987.20 0.1776236
987.30 0.1775683
987.40 0.1775129
987.50 0.1774576
987.60 0.1774024
987.70 0.1773471
987.80 0.1772919
987.90 0.1772366
988.00 0.1771814
988.10 0.1771262
988.20 0.1770711
988.30 0.1770159
988.40 0.1769608
988.50 0.1769057
988.60 0.1768506
988.70 0.1767955
988.80 0.1767404
988.90 0.1766854
989.00 0.1766304
989.10 0.1765754
989.20 0.1765204
989.30 0.1764654
989.40 0.1764105
989.50 0.1763555
989.60 0.1763006
989.70 0.1762457
989.80 0.1761909
989.90 0.176136
990.00 0.1760812
990.10 0.1760263
990.20 0.1759715
990.30 0.1759168
990.40 0.175862
990.50 0.1758073
990.60 0.1757525
990.70 0.1756978
990.80 0.1756431
990.90 0.1755885
991.00 0.1755338
991.10 0.1754793
991.20 0.1754248
991.30 0.1753704
991.40 0.175316
991.50 0.1752617
991.60 0.1752073
991.70 0.175153
991.80 0.1750987
991.90 0.1750444
992.00 0.1749901
992.10 0.1749358
992.20 0.1748816
992.30 0.1748274
992.40 0.1747732
992.50 0.174719
992.60 0.1746648
992.70 0.1746107
992.80 0.1745565
992.90 0.1745024
993.00 0.1744483
993.10 0.1743942
993.20 0.1743402
993.30 0.1742861
993.40 0.1742321
993.50 0.1741781
993.60 0.1741241
993.70 0.1740702
993.80 0.1740162
993.90 0.1739623
994.00 0.1739084
994.10 0.1738545
994.20 0.1738006
994.30 0.1737467
994.40 0.1736929
994.50 0.1736391
994.60 0.1735853
994.70 0.1735315
994.80 0.1734777
994.90 0.1734239
995.00 0.1733702
995.10 0.1733165
995.20 0.1732628
995.30 0.1732091
995.40 0.1731555
995.50 0.1731018
995.60 0.1730482
995.70 0.1729946
995.80 0.172941
995.90 0.1728874
996.00 0.1728339
996.10 0.1727804
996.20 0.1727268
996.30 0.1726734
996.40 0.1726199
996.50 0.1725664
996.60 0.172513
996.70 0.1724596
996.80 0.1724062
996.90 0.1723528
997.00 0.1722994
997.10 0.172246
997.20 0.1721927
997.30 0.1721394
997.40 0.1720861
997.50 0.1720328
997.60 0.1719796
997.70 0.1719263
997.80 0.1718731
997.90 0.1718199
998.00 0.1717667
998.10 0.1717135
998.20 0.1716604
998.30 0.1716072
998.40 0.1715541
998.50 0.171501
998.60 0.1714479
998.70 0.1713949
998.80 0.1713418
998.90 0.1712888
999.00 0.1712358
999.10 0.1711828
999.20 0.1711298
999.30 0.1710769
999.40 0.1710239
999.50 0.170971
999.60 0.1709181
999.70 0.1708652
999.80 0.1708123
999.90 0.1707595
1000.00 0.1707067
1000.10 0.1706538
1000.20 0.170601
1000.30 0.1705483
1000.40 0.1704955
1000.50 0.1704428
1000.60 0.17039
1000.70 0.1703373
1000.80 0.1702846
1000.90 0.170232
1001.00 0.1701794
1001.10 0.1701269
1001.20 0.1700745
1001.30 0.170022
1001.40 0.1699696
1001.50 0.1699172
1001.60 0.1698649
1001.70 0.1698125
1001.80 0.1697602
1001.90 0.1697079
1002.00 0.1696556
1002.10 0.1696033
1002.20 0.169551
1002.30 0.1694988
1002.40 0.1694466
1002.50 0.1693944
1002.60 0.1693422
1002.70 0.16929
1002.80 0.1692378
1002.90 0.1691857
1003.00 0.1691336
1003.10 0.1690815
1003.20 0.1690294
1003.30 0.1689773
1003.40 0.1689252
1003.50 0.1688732
1003.60 0.1688212
1003.70 0.1687692
1003.80 0.1687172
1003.90 0.1686652
1004.00 0.1686133
1004.10 0.1685613
1004.20 0.1685094
1004.30 0.1684575
1004.40 0.1684057
1004.50 0.1683538
1004.60 0.1683019
1004.70 0.1682501
1004.80 0.1681983
1004.90 0.1681465
1005.00 0.1680947
1005.10 0.168043
1005.20 0.1679912
1005.30 0.1679395
1005.40 0.1678878
1005.50 0.1678361
1005.60 0.1677844
1005.70 0.1677328
1005.80 0.1676811
1005.90 0.1676295
1006.00 0.1675779
1006.10 0.1675263
1006.20 0.1674747
1006.30 0.1674232
1006.40 0.1673717
1006.50 0.1673201
1006.60 0.1672686
1006.70 0.1672171
1006.80 0.1671657
1006.90 0.1671142
1007.00 0.1670628
1007.10 0.1670114
1007.20 0.16696
1007.30 0.1669086
1007.40 0.1668572
1007.50 0.1668059
1007.60 0.1667545
1007.70 0.1667032
1007.80 0.1666519
1007.90 0.1666006
1008.00 0.1665494
1008.10 0.1664981
1008.20 0.1664469
1008.30 0.1663957
1008.40 0.1663445
1008.50 0.1662933
1008.60 0.1662421
1008.70 0.166191
1008.80 0.1661398
1008.90 0.1660887
1009.00 0.1660376
1009.10 0.1659866
1009.20 0.1659355
1009.30 0.1658845
1009.40 0.1658334
1009.50 0.1657824
1009.60 0.1657314
1009.70 0.1656805
1009.80 0.1656295
1009.90 0.1655786
1010.00 0.1655276
1010.10 0.1654767
1010.20 0.1654258
1010.30 0.165375
1010.40 0.1653241
1010.50 0.1652733
1010.60 0.1652224
1010.70 0.1651716
1010.80 0.1651208
1010.90 0.1650701
1011.00 0.1650193
1011.10 0.1649688
1011.20 0.1649182
1011.30 0.1648677
1011.40 0.1648172
1011.50 0.1647667
1011.60 0.1647162
1011.70 0.1646658
1011.80 0.1646153
1011.90 0.1645649
1012.00 0.1645145
1012.10 0.1644641
1012.20 0.1644138
1012.30 0.1643634
1012.40 0.1643131
1012.50 0.1642627
1012.60 0.1642124
1012.70 0.1641621
1012.80 0.1641119
1012.90 0.1640616
1013.00 0.1640114
1013.10 0.1639611
1013.20 0.1639109
1013.30 0.1638608
1013.40 0.1638106
1013.50 0.1637604
1013.60 0.1637103
1013.70 0.1636602
1013.80 0.1636101
1013.90 0.16356
1014.00 0.1635099
1014.10 0.1634598
1014.20 0.1634098
1014.30 0.1633598
1014.40 0.1633098
1014.50 0.1632598
1014.60 0.1632098
1014.70 0.1631598
1014.80 0.1631099
1014.90 0.16306
1015.00 0.1630101
1015.10 0.1629602
1015.20 0.1629103
1015.30 0.1628604
1015.40 0.1628106
1015.50 0.1627608
1015.60 0.162711
1015.70 0.1626612
1015.80 0.1626114
1015.90 0.1625616
1016.00 0.1625119
1016.10 0.1624622
1016.20 0.1624125
1016.30 0.1623628
1016.40 0.1623131
1016.50 0.1622634
1016.60 0.1622138
1016.70 0.1621641
1016.80 0.1621145
1016.90 0.1620649
1017.00 0.1620154
1017.10 0.1619658
1017.20 0.1619162
1017.30 0.1618667
1017.40 0.1618172
1017.50 0.1617677
1017.60 0.1617182
1017.70 0.1616688
1017.80 0.1616193
1017.90 0.1615699
1018.00 0.1615205
1018.10 0.1614711
1018.20 0.1614217
1018.30 0.1613723
1018.40 0.161323
1018.50 0.1612736
1018.60 0.1612243
1018.70 0.161175
1018.80 0.1611257
1018.90 0.1610765
1019.00 0.1610272
1019.10 0.160978
1019.20 0.1609287
1019.30 0.1608795
1019.40 0.1608303
1019.50 0.1607812
1019.60 0.160732
1019.70 0.1606829
1019.80 0.1606338
1019.90 0.1605846
1020.00 0.1605356
1020.10 0.1604865
1020.20 0.1604374
1020.30 0.1603884
1020.40 0.1603394
1020.50 0.1602903
1020.60 0.1602413
1020.70 0.1601924
1020.80 0.1601434
1020.90 0.1600945
1021.00 0.1600455
1021.10 0.1599966
1021.20 0.1599479
1021.30 0.1598992
1021.40 0.1598505
1021.50 0.1598018
1021.60 0.1597532
1021.70 0.1597045
1021.80 0.1596559
1021.90 0.1596073
1022.00 0.1595587
1022.10 0.1595101
1022.20 0.1594616
1022.30 0.159413
1022.40 0.1593645
1022.50 0.159316
1022.60 0.1592675
1022.70 0.159219
1022.80 0.1591705
1022.90 0.1591221
1023.00 0.1590736
1023.10 0.1590252
1023.20 0.1589768
1023.30 0.1589284
1023.40 0.1588801
1023.50 0.1588317
1023.60 0.1587834
1023.70 0.158735
1023.80 0.1586867
1023.90 0.1586384
1024.00 0.1585902
1024.10 0.1585419
1024.20 0.1584936
1024.30 0.1584454
1024.40 0.1583972
1024.50 0.158349
1024.60 0.1583008
1024.70 0.1582527
1024.80 0.1582045
1024.90 0.1581564
1025.00 0.1581083
1025.10 0.1580602
1025.20 0.1580121
1025.30 0.157964
1025.40 0.1579159
1025.50 0.1578679
1025.60 0.1578199
1025.70 0.1577719
1025.80 0.1577239
1025.90 0.1576759
1026.00 0.1576279
1026.10 0.15758
1026.20 0.1575321
1026.30 0.1574841
1026.40 0.1574362
1026.50 0.1573884
1026.60 0.1573405
1026.70 0.1572926
1026.80 0.1572448
1026.90 0.157197
1027.00 0.1571492
1027.10 0.1571014
1027.20 0.1570536
1027.30 0.1570058
1027.40 0.1569581
1027.50 0.1569104
1027.60 0.1568626
1027.70 0.1568149
1027.80 0.1567673
1027.90 0.1567196
1028.00 0.1566719
1028.10 0.1566243
1028.20 0.1565767
1028.30 0.1565291
1028.40 0.1564815
1028.50 0.1564339
1028.60 0.1563864
1028.70 0.1563388
1028.80 0.1562913
1028.90 0.1562438
1029.00 0.1561963
1029.10 0.1561488
1029.20 0.1561013
1029.30 0.1560539
1029.40 0.1560065
1029.50 0.155959
1029.60 0.1559116
1029.70 0.1558642
1029.80 0.1558169
1029.90 0.1557695
1030.00 0.1557222
1030.10 0.1556748
1030.20 0.1556275
1030.30 0.1555802
1030.40 0.155533
1030.50 0.1554857
1030.60 0.1554384
1030.70 0.1553912
1030.80 0.155344
1030.90 0.1552968
1031.00 0.1552496
1031.10 0.1552024
1031.20 0.1551553
1031.30 0.1551081
1031.40 0.1550612
1031.50 0.1550142
1031.60 0.1549673
1031.70 0.1549204
1031.80 0.1548735
1031.90 0.1548266
1032.00 0.1547798
1032.10 0.1547329
1032.20 0.1546861
1032.30 0.1546393
1032.40 0.1545925
1032.50 0.1545457
1032.60 0.1544989
1032.70 0.1544522
1032.80 0.1544054
1032.90 0.1543587
1033.00 0.154312
1033.10 0.1542653
1033.20 0.1542186
1033.30 0.1541719
1033.40 0.1541253
1033.50 0.1540787
1033.60 0.154032
1033.70 0.1539854
1033.80 0.1539389
1033.90 0.1538923
1034.00 0.1538457
1034.10 0.1537992
1034.20 0.1537527
1034.30 0.1537061
1034.40 0.1536596
1034.50 0.1536132
1034.60 0.1535667
1034.70 0.1535202
1034.80 0.1534738
1034.90 0.1534274
1035.00 0.153381
1035.10 0.1533346
1035.20 0.1532882
1035.30 0.1532418
1035.40 0.1531955
1035.50 0.1531492
1035.60 0.1531028
1035.70 0.1530565
1035.80 0.1530103
1035.90 0.152964
1036.00 0.1529177
1036.10 0.1528715
1036.20 0.1528253
1036.30 0.152779
1036.40 0.1527328
1036.50 0.1526867
1036.60 0.1526405
1036.70 0.1525943
1036.80 0.1525482
1036.90 0.1525021
1037.00 0.152456
1037.10 0.1524099
1037.20 0.1523638
1037.30 0.1523177
1037.40 0.1522717
1037.50 0.1522256
1037.60 0.1521796
1037.70 0.1521336
1037.80 0.1520876
1037.90 0.1520416
1038.00 0.1519957
1038.10 0.1519497
1038.20 0.1519038
1038.30 0.1518579
1038.40 0.151812
1038.50 0.1517661
1038.60 0.1517202
1038.70 0.1516744
1038.80 0.1516285
1038.90 0.1515827
1039.00 0.1515369
1039.10 0.1514911
1039.20 0.1514453
1039.30 0.1513995
1039.40 0.1513538
1039.50 0.151308
1039.60 0.1512623
1039.70 0.1512166
1039.80 0.1511709
1039.90 0.1511252
1040.00 0.1510796
1040.10 0.1510339
1040.20 0.1509883
1040.30 0.1509427
1040.40 0.1508971
1040.50 0.1508515
1040.60 0.1508059
1040.70 0.1507603
1040.80 0.1507148
1040.90 0.1506693
1041.00 0.1506237
1041.10 0.1505782
1041.20 0.1505328
1041.30 0.1504873
1041.40 0.1504418
1041.50 0.1503964
1041.60 0.1503509
1041.70 0.1503057
1041.80 0.1502604
1041.90 0.1502152
1042.00 0.15017
1042.10 0.1501248
1042.20 0.1500796
1042.30 0.1500345
1042.40 0.1499893
1042.50 0.1499442
1042.60 0.1498991
1042.70 0.149854
1042.80 0.1498089
1042.90 0.1497638
1043.00 0.1497188
1043.10 0.1496737
1043.20 0.1496287
1043.30 0.1495837
1043.40 0.1495387
1043.50 0.1494937
1043.60 0.1494487
1043.70 0.1494037
1043.80 0.1493588
1043.90 0.1493139
1044.00 0.149269
1044.10 0.1492241
1044.20 0.1491792
1044.30 0.1491343
1044.40 0.1490894
1044.50 0.1490446
1044.60 0.1489998
1044.70 0.148955
1044.80 0.1489102
1044.90 0.1488654
1045.00 0.1488206
1045.10 0.1487759
1045.20 0.1487311
1045.30 0.1486864
1045.40 0.1486417
1045.50 0.148597
1045.60 0.1485523
1045.70 0.1485076
1045.80 0.148463
1045.90 0.1484183
1046.00 0.1483737
1046.10 0.1483291
1046.20 0.1482845
1046.30 0.1482399
1046.40 0.1481953
1046.50 0.1481508
1046.60 0.1481062
1046.70 0.1480617
1046.80 0.1480172
1046.90 0.1479737
1047.00 0.1479306
1047.10 0.1478875
1047.20 0.1478444
1047.30 0.1478013
1047.40 0.1477582
1047.50 0.1477151
1047.60 0.1476721
1047.70 0.147629
1047.80 0.147586
1047.90 0.147543
1048.00 0.1475
1048.10 0.147457
1048.20 0.1474141
1048.30 0.1473711
1048.40 0.1473282
1048.50 0.1472853
1048.60 0.1472423
1048.70 0.1471994
1048.80 0.1471566
1048.90 0.1471137
1049.00 0.1470708
1049.10 0.147028
1049.20 0.1469852
1049.30 0.1469423
1049.40 0.1468995
1049.50 0.1468568
1049.60 0.146814
1049.70 0.1467712
1049.80 0.1467285
1049.90 0.1466857
1050.00 0.146643
1050.10 0.1466003
1050.20 0.1465576
1050.30 0.1465149
1050.40 0.1464723
1050.50 0.1464296
1050.60 0.146387
1050.70 0.1463443
1050.80 0.1463017
1050.90 0.1462591
1051.00 0.1462165
1051.10 0.146174
1051.20 0.1461314
1051.30 0.1460889
1051.40 0.1460463
1051.50 0.1460038
1051.60 0.1459613
1051.70 0.1459188
1051.80 0.1458764
1051.90 0.1458339
1052.00 0.1457914
1052.10 0.1457482
1052.20 0.1457046
1052.30 0.145661
1052.40 0.1456175
1052.50 0.1455739
1052.60 0.1455304
1052.70 0.1454868
1052.80 0.1454433
1052.90 0.1453998
1053.00 0.1453563
1053.10 0.1453128
1053.20 0.1452694
1053.30 0.1452259
1053.40 0.1451825
1053.50 0.1451391
1053.60 0.1450957
1053.70 0.1450523
1053.80 0.1450089
1053.90 0.1449655
1054.00 0.1449222
1054.10 0.1448788
1054.20 0.1448355
1054.30 0.1447922
1054.40 0.1447489
1054.50 0.1447056
1054.60 0.1446624
1054.70 0.1446191
1054.80 0.1445759
1054.90 0.1445327
1055.00 0.1444894
1055.10 0.1444462
1055.20 0.1444031
1055.30 0.1443599
1055.40 0.1443167
1055.50 0.1442736
1055.60 0.1442305
1055.70 0.1441873
1055.80 0.1441442
1055.90 0.1441011
1056.00 0.1440581
1056.10 0.144015
1056.20 0.143972
1056.30 0.1439289
1056.40 0.1438859
1056.50 0.1438429
1056.60 0.1437999
1056.70 0.1437569
1056.80 0.143714
1056.90 0.143671
1057.00 0.1436281
1057.10 0.1435852
1057.20 0.1435422
1057.30 0.1434993
1057.40 0.1434565
1057.50 0.1434136
1057.60 0.1433707
1057.70 0.1433279
1057.80 0.1432851
1057.90 0.1432423
1058.00 0.1431995
1058.10 0.1431567
1058.20 0.1431139
1058.30 0.1430711
1058.40 0.1430284
1058.50 0.1429857
1058.60 0.1429429
1058.70 0.1429002
1058.80 0.1428575
1058.90 0.1428149
1059.00 0.1427722
1059.10 0.1427295
1059.20 0.1426869
1059.30 0.1426443
1059.40 0.1426017
1059.50 0.1425591
1059.60 0.1425165
1059.70 0.1424739
1059.80 0.1424314
1059.90 0.1423888
1060.00 0.1423463
1060.10 0.1423038
1060.20 0.1422613
1060.30 0.1422188
1060.40 0.1421763
1060.50 0.1421338
1060.60 0.1420914
1060.70 0.142049
1060.80 0.1420065
1060.90 0.1419641
1061.00 0.1419217
1061.10 0.1418793
1061.20 0.141837
1061.30 0.1417946
1061.40 0.1417523
1061.50 0.14171
1061.60 0.1416676
1061.70 0.1416253
1061.80 0.1415831
1061.90 0.1415408
1062.00 0.1414985
1062.10 0.1414563
1062.20 0.141414
1062.30 0.1413718
1062.40 0.1413296
1062.50 0.1412874
1062.60 0.1412453
1062.70 0.1412033
1062.80 0.1411613
1062.90 0.1411193
1063.00 0.1410773
1063.10 0.1410354
1063.20 0.1409934
1063.30 0.1409515
1063.40 0.1409096
1063.50 0.1408677
1063.60 0.1408258
1063.70 0.1407839
1063.80 0.140742
1063.90 0.1407002
1064.00 0.1406583
1064.10 0.1406165
1064.20 0.1405747
1064.30 0.1405329
1064.40 0.1404911
1064.50 0.1404493
1064.60 0.1404076
1064.70 0.1403658
1064.80 0.1403241
1064.90 0.1402824
1065.00 0.1402407
1065.10 0.140199
1065.20 0.1401573
1065.30 0.1401156
1065.40 0.140074
1065.50 0.1400323
1065.60 0.1399907
1065.70 0.1399491
1065.80 0.1399075
1065.90 0.1398659
1066.00 0.1398243
1066.10 0.1397827
1066.20 0.1397412
1066.30 0.1396997
1066.40 0.1396581
1066.50 0.1396166
1066.60 0.1395751
1066.70 0.1395336
1066.80 0.1394922
1066.90 0.1394507
1067.00 0.1394093
1067.10 0.1393678
1067.20 0.1393264
1067.30 0.139285
1067.40 0.1392436
1067.50 0.1392022
1067.60 0.1391609
1067.70 0.1391195
1067.80 0.1390782
1067.90 0.1390368
1068.00 0.1389955
1068.10 0.1389542
1068.20 0.1389129
1068.30 0.1388717
1068.40 0.1388304
1068.50 0.1387891
1068.60 0.1387479
1068.70 0.1387067
1068.80 0.1386655
1068.90 0.1386243
1069.00 0.1385831
1069.10 0.1385419
1069.20 0.1385007
1069.30 0.1384596
1069.40 0.1384184
1069.50 0.1383773
1069.60 0.1383362
1069.70 0.1382951
1069.80 0.138254
1069.90 0.138213
1070.00 0.1381719
1070.10 0.1381309
1070.20 0.1380898
1070.30 0.1380488
1070.40 0.1380078
1070.50 0.1379668
1070.60 0.1379258
1070.70 0.1378849
1070.80 0.1378439
1070.90 0.137803
1071.00 0.137762
1071.10 0.1377211
1071.20 0.1376802
1071.30 0.1376393
1071.40 0.1375985
1071.50 0.1375576
1071.60 0.1375167
1071.70 0.1374759
1071.80 0.1374351
1071.90 0.1373943
1072.00 0.1373535
1072.10 0.1373127
1072.20 0.1372719
1072.30 0.1372311
1072.40 0.1371904
1072.50 0.1371497
1072.60 0.1371089
1072.70 0.1370682
1072.80 0.1370275
1072.90 0.1369868
1073.00 0.1369462
1073.10 0.1369055
1073.20 0.1368649
1073.30 0.1368244
1073.40 0.1367839
1073.50 0.1367435
1073.60 0.136703
1073.70 0.1366626
1073.80 0.1366222
1073.90 0.1365818
1074.00 0.1365414
1074.10 0.136501
1074.20 0.1364606
1074.30 0.1364203
1074.40 0.13638
1074.50 0.1363396
1074.60 0.1362993
1074.70 0.136259
1074.80 0.1362187
1074.90 0.1361784
1075.00 0.1361382
1075.10 0.1360979
1075.20 0.1360577
1075.30 0.1360174
1075.40 0.1359772
1075.50 0.135937
1075.60 0.1358968
1075.70 0.1358567
1075.80 0.1358165
1075.90 0.1357763
1076.00 0.1357362
1076.10 0.1356961
1076.20 0.135656
1076.30 0.1356159
1076.40 0.1355758
1076.50 0.1355357
1076.60 0.1354956
1076.70 0.1354556
1076.80 0.1354155
1076.90 0.1353755
1077.00 0.1353355
1077.10 0.1352955
1077.20 0.1352555
1077.30 0.1352155
1077.40 0.1351756
1077.50 0.1351356
1077.60 0.1350957
1077.70 0.1350557
1077.80 0.1350158
1077.90 0.1349759
1078.00 0.134936
1078.10 0.1348962
1078.20 0.1348563
1078.30 0.1348164
1078.40 0.1347766
1078.50 0.1347368
1078.60 0.134697
1078.70 0.1346572
1078.80 0.1346174
1078.90 0.1345776
1079.00 0.1345378
1079.10 0.1344981
1079.20 0.1344583
1079.30 0.1344186
1079.40 0.1343789
1079.50 0.1343392
1079.60 0.1342995
1079.70 0.1342598
1079.80 0.1342202
1079.90 0.1341805
1080.00 0.1341409
1080.10 0.1341012
1080.20 0.1340616
1080.30 0.134022
1080.40 0.1339824
1080.50 0.1339428
1080.60 0.1339033
1080.70 0.1338637
1080.80 0.1338242
1080.90 0.1337846
1081.00 0.1337451
1081.10 0.1337056
1081.20 0.1336661
1081.30 0.1336267
1081.40 0.1335872
1081.50 0.1335477
1081.60 0.1335083
1081.70 0.1334689
1081.80 0.1334294
1081.90 0.13339
1082.00 0.1333506
1082.10 0.1333113
1082.20 0.1332719
1082.30 0.1332325
1082.40 0.1331932
1082.50 0.1331538
1082.60 0.1331145
1082.70 0.1330752
1082.80 0.1330359
1082.90 0.1329966
1083.00 0.1329574
1083.10 0.1329181
1083.20 0.1328789
1083.30 0.1328396
1083.40 0.1328004
1083.50 0.1327612
1083.60 0.132722
1083.70 0.1326828
1083.80 0.1326436
1083.90 0.1326045
1084.00 0.1325665
1084.10 0.1325288
1084.20 0.132491
1084.30 0.1324532
1084.40 0.1324155
1084.50 0.1323778
1084.60 0.13234
1084.70 0.1323023
1084.80 0.1322646
1084.90 0.1322269
1085.00 0.1321893
1085.10 0.1321516
1085.20 0.1321139
1085.30 0.1320763
1085.40 0.1320387
1085.50 0.1320011
1085.60 0.1319635
1085.70 0.1319259
1085.80 0.1318883
1085.90 0.1318507
1086.00 0.1318132
1086.10 0.1317756
1086.20 0.1317381
1086.30 0.1317005
1086.40 0.131663
1086.50 0.1316255
1086.60 0.131588
1086.70 0.1315506
1086.80 0.1315131
1086.90 0.1314756
1087.00 0.1314382
1087.10 0.1314008
1087.20 0.1313633
1087.30 0.1313259
1087.40 0.1312885
1087.50 0.1312512
1087.60 0.1312138
1087.70 0.1311764
1087.80 0.1311391
1087.90 0.1311017
1088.00 0.1310644
1088.10 0.1310271
1088.20 0.1309898
1088.30 0.1309525
1088.40 0.1309152
1088.50 0.1308779
1088.60 0.1308407
1088.70 0.1308034
1088.80 0.1307662
1088.90 0.130729
1089.00 0.1306918
1089.10 0.1306546
1089.20 0.1306174
1089.30 0.1305802
1089.40 0.1305422
1089.50 0.1305038
1089.60 0.1304655
1089.70 0.1304272
1089.80 0.1303888
1089.90 0.1303505
1090.00 0.1303122
1090.10 0.1302739
1090.20 0.1302357
1090.30 0.1301974
1090.40 0.1301592
1090.50 0.1301209
1090.60 0.1300827
1090.70 0.1300445
1090.80 0.1300063
1090.90 0.1299681
1091.00 0.1299299
1091.10 0.1298917
1091.20 0.1298536
1091.30 0.1298154
1091.40 0.1297773
1091.50 0.1297392
1091.60 0.1297011
1091.70 0.129663
1091.80 0.1296249
1091.90 0.1295868
1092.00 0.1295488
1092.10 0.1295107
1092.20 0.1294727
1092.30 0.1294346
1092.40 0.1293966
1092.50 0.1293586
1092.60 0.1293206
1092.70 0.1292827
1092.80 0.1292447
1092.90 0.1292067
1093.00 0.1291688
1093.10 0.1291309
1093.20 0.1290929
1093.30 0.129055
1093.40 0.1290171
1093.50 0.1289792
1093.60 0.1289414
1093.70 0.1289035
1093.80 0.1288657
1093.90 0.1288278
1094.00 0.12879
1094.10 0.1287522
1094.20 0.1287144
1094.30 0.1286766
1094.40 0.1286388
1094.50 0.128601
1094.60 0.1285633
1094.70 0.1285255
1094.80 0.1284879
1094.90 0.1284503
1095.00 0.1284127
1095.10 0.1283752
1095.20 0.1283376
1095.30 0.1283001
1095.40 0.1282626
1095.50 0.1282251
1095.60 0.1281876
1095.70 0.1281501
1095.80 0.1281126
1095.90 0.1280751
1096.00 0.1280377
1096.10 0.1280002
1096.20 0.1279628
1096.30 0.1279254
1096.40 0.127888
1096.50 0.1278506
1096.60 0.1278132
1096.70 0.1277758
1096.80 0.1277385
1096.90 0.1277011
1097.00 0.1276638
1097.10 0.1276265
1097.20 0.1275892
1097.30 0.1275519
1097.40 0.1275146
1097.50 0.1274773
1097.60 0.12744
1097.70 0.1274028
1097.80 0.1273655
1097.90 0.1273283
1098.00 0.1272911
1098.10 0.1272538
1098.20 0.1272166
1098.30 0.1271795
1098.40 0.1271423
1098.50 0.1271051
1098.60 0.127068
1098.70 0.1270308
1098.80 0.1269937
1098.90 0.1269566
1099.00 0.1269195
1099.10 0.1268824
1099.20 0.1268453
1099.30 0.1268082
1099.40 0.1267711
1099.50 0.1267341
1099.60 0.1266971
1099.70 0.12666
1099.80 0.126623
1099.90 0.126586
1100.00 0.126549
1100.10 0.126512
1100.20 0.1264751
1100.30 0.1264381
1100.40 0.1264012
1100.50 0.1263642
1100.60 0.1263273
1100.70 0.1262904
1100.80 0.1262535
1100.90 0.1262166
1101.00 0.1261797
1101.10 0.1261428
1101.20 0.126106
1101.30 0.1260691
1101.40 0.1260323
1101.50 0.1259955
1101.60 0.1259587
1101.70 0.1259219
1101.80 0.1258851
1101.90 0.1258483
1102.00 0.1258115
1102.10 0.1257748
1102.20 0.125738
1102.30 0.1257013
1102.40 0.1256646
1102.50 0.1256278
1102.60 0.1255911
1102.70 0.1255545
1102.80 0.1255178
1102.90 0.1254811
1103.00 0.1254445
1103.10 0.1254078
1103.20 0.1253712
1103.30 0.1253346
1103.40 0.125298
1103.50 0.1252614
1103.60 0.1252248
1103.70 0.1251882
1103.80 0.1251516
1103.90 0.1251151
1104.00 0.1250785
1104.10 0.125042
1104.20 0.1250055
1104.30 0.124969
1104.40 0.1249325
1104.50 0.124896
1104.60 0.1248595
1104.70 0.124823
1104.80 0.1247866
1104.90 0.1247501
1105.00 0.1247137
1105.10 0.1246773
1105.20 0.1246409
1105.30 0.1246045
1105.40 0.1245681
1105.50 0.1245317
1105.60 0.1244954
1105.70 0.124459
1105.80 0.1244234
1105.90 0.1243878
1106.00 0.1243521
1106.10 0.1243165
1106.20 0.124281
1106.30 0.1242454
1106.40 0.1242098
1106.50 0.1241742
1106.60 0.1241387
1106.70 0.1241032
1106.80 0.1240676
1106.90 0.1240321
1107.00 0.1239966
1107.10 0.1239611
1107.20 0.1239256
1107.30 0.1238902
1107.40 0.1238547
1107.50 0.1238192
1107.60 0.1237838
1107.70 0.1237484
1107.80 0.123713
1107.90 0.1236775
1108.00 0.1236421
1108.10 0.1236068
1108.20 0.1235714
1108.30 0.123536
1108.40 0.1235007
1108.50 0.1234653
1108.60 0.12343
1108.70 0.1233947
1108.80 0.1233594
1108.90 0.1233241
1109.00 0.1232888
1109.10 0.1232535
1109.20 0.1232182
1109.30 0.123183
1109.40 0.1231477
1109.50 0.1231125
1109.60 0.1230773
1109.70 0.123042
1109.80 0.1230068
1109.90 0.1229716
1110.00 0.1229365
1110.10 0.1229013
1110.20 0.1228661
1110.30 0.122831
1110.40 0.1227958
1110.50 0.1227607
1110.60 0.1227256
1110.70 0.1226905
1110.80 0.1226554
1110.90 0.1226203
1111.00 0.1225852
1111.10 0.1225501
1111.20 0.1225151
1111.30 0.12248
1111.40 0.122445
1111.50 0.12241
1111.60 0.122375
1111.70 0.12234
1111.80 0.122305
1111.90 0.12227
1112.00 0.122235
1112.10 0.1222001
1112.20 0.1221651
1112.30 0.1221302
1112.40 0.1220953
1112.50 0.1220603
1112.60 0.1220254
1112.70 0.1219905
1112.80 0.1219557
1112.90 0.1219208
1113.00 0.1218859
1113.10 0.1218511
1113.20 0.1218162
1113.30 0.1217814
1113.40 0.1217466
1113.50 0.1217118
1113.60 0.121677
1113.70 0.1216422
1113.80 0.1216074
1113.90 0.1215726
1114.00 0.1215379
1114.10 0.1215031
1114.20 0.1214684
1114.30 0.1214336
1114.40 0.1213989
1114.50 0.1213642
1114.60 0.1213295
1114.70 0.1212948
1114.80 0.1212602
1114.90 0.1212255
1115.00 0.1211908
1115.10 0.1211562
1115.20 0.1211216
1115.30 0.1210869
1115.40 0.1210523
1115.50 0.1210177
1115.60 0.1209831
1115.70 0.1209486
1115.80 0.120914
1115.90 0.1208794
1116.00 0.1208449
1116.10 0.1208103
1116.20 0.1207758
1116.30 0.1207413
1116.40 0.1207068
1116.50 0.1206723
1116.60 0.1206378
1116.70 0.1206033
1116.80 0.1205687
1116.90 0.1205338
1117.00 0.1204989
1117.10 0.1204641
1117.20 0.1204292
1117.30 0.1203944
1117.40 0.1203595
1117.50 0.1203247
1117.60 0.1202899
1117.70 0.1202551
1117.80 0.1202203
1117.90 0.1201856
1118.00 0.1201508
1118.10 0.120116
1118.20 0.1200813
1118.30 0.1200466
1118.40 0.1200118
1118.50 0.1199771
1118.60 0.1199424
1118.70 0.1199077
1118.80 0.119873
1118.90 0.1198384
1119.00 0.1198037
1119.10 0.1197691
1119.20 0.1197344
1119.30 0.1196998
1119.40 0.1196652
1119.50 0.1196306
1119.60 0.119596
1119.70 0.1195614
1119.80 0.1195268
1119.90 0.1194922
1120.00 0.1194577
1120.10 0.1194231
1120.20 0.1193886
1120.30 0.1193541
1120.40 0.1193196
1120.50 0.1192851
1120.60 0.1192506
1120.70 0.1192161
1120.80 0.1191816
1120.90 0.1191472
1121.00 0.1191127
1121.10 0.1190783
1121.20 0.1190438
1121.30 0.1190094
1121.40 0.118975
1121.50 0.1189406
1121.60 0.1189062
1121.70 0.1188718
1121.80 0.1188375
1121.90 0.1188031
1122.00 0.1187688
1122.10 0.1187344
1122.20 0.1187001
1122.30 0.1186658
1122.40 0.1186321
1122.50 0.1185989
1122.60 0.1185657
1122.70 0.1185326
1122.80 0.1184994
1122.90 0.1184662
1123.00 0.1184331
1123.10 0.1183999
1123.20 0.1183668
1123.30 0.1183337
1123.40 0.1183006
1123.50 0.1182675
1123.60 0.1182344
1123.70 0.1182013
1123.80 0.1181682
1123.90 0.1181352
1124.00 0.1181021
1124.10 0.1180691
1124.20 0.118036
1124.30 0.118003
1124.40 0.11797
1124.50 0.117937
1124.60 0.117904
1124.70 0.117871
1124.80 0.117838
1124.90 0.1178051
1125.00 0.1177721
1125.10 0.1177392
1125.20 0.1177062
1125.30 0.1176733
1125.40 0.1176404
1125.50 0.1176075
1125.60 0.1175746
1125.70 0.1175417
1125.80 0.1175088
1125.90 0.117476
1126.00 0.1174431
1126.10 0.1174103
1126.20 0.1173774
1126.30 0.1173446
1126.40 0.1173118
1126.50 0.117279
1126.60 0.1172462
1126.70 0.1172134
1126.80 0.1171806
1126.90 0.1171479
1127.00 0.1171151
1127.10 0.1170823
1127.20 0.1170496
1127.30 0.1170169
1127.40 0.1169842
1127.50 0.1169515
1127.60 0.1169188
1127.70 0.1168861
1127.80 0.1168534
1127.90 0.1168207
1128.00 0.1167873
1128.10 0.1167537
1128.20 0.1167201
1128.30 0.1166865
1128.40 0.116653
1128.50 0.1166194
1128.60 0.1165858
1128.70 0.1165523
1128.80 0.1165188
1128.90 0.1164852
1129.00 0.1164517
1129.10 0.1164182
1129.20 0.1163847
1129.30 0.1163512
1129.40 0.1163178
1129.50 0.1162843
1129.60 0.1162508
1129.70 0.1162174
1129.80 0.116184
1129.90 0.1161505
1130.00 0.1161171
1130.10 0.1160837
1130.20 0.1160503
1130.30 0.1160169
1130.40 0.1159836
1130.50 0.1159502
1130.60 0.1159169
1130.70 0.1158835
1130.80 0.1158502
1130.90 0.1158169
1131.00 0.1157835
1131.10 0.1157502
1131.20 0.1157169
1131.30 0.1156837
1131.40 0.1156504
1131.50 0.1156171
1131.60 0.1155839
1131.70 0.1155506
1131.80 0.1155174
1131.90 0.1154842
1132.00 0.115451
1132.10 0.1154177
1132.20 0.1153846
1132.30 0.1153514
1132.40 0.1153182
1132.50 0.115285
1132.60 0.1152519
1132.70 0.1152187
1132.80 0.1151856
1132.90 0.1151525
1133.00 0.1151194
1133.10 0.1150862
1133.20 0.1150532
1133.30 0.1150201
1133.40 0.114987
1133.50 0.1149539
1133.60 0.1149209
1133.70 0.1148878
1133.80 0.1148548
1133.90 0.1148218
1134.00 0.1147887
1134.10 0.1147557
1134.20 0.1147227
1134.30 0.1146898
1134.40 0.1146568
1134.50 0.1146238
1134.60 0.1145909
1134.70 0.1145579
1134.80 0.114525
1134.90 0.114492
1135.00 0.1144591
1135.10 0.1144262
1135.20 0.1143933
1135.30 0.1143604
1135.40 0.1143276
1135.50 0.1142947
1135.60 0.1142618
1135.70 0.114229
1135.80 0.1141961
1135.90 0.1141633
1136.00 0.1141305
1136.10 0.1140977
1136.20 0.1140649
1136.30 0.1140321
1136.40 0.1139993
1136.50 0.1139665
1136.60 0.1139338
1136.70 0.113901
1136.80 0.1138683
1136.90 0.1138355
1137.00 0.1138028
1137.10 0.1137701
1137.20 0.1137374
1137.30 0.1137047
1137.40 0.113672
1137.50 0.1136394
1137.60 0.1136067
1137.70 0.113574
1137.80 0.1135414
1137.90 0.1135088
1138.00 0.1134761
1138.10 0.1134435
1138.20 0.1134109
1138.30 0.1133783
1138.40 0.1133457
1138.50 0.1133132
1138.60 0.1132806
1138.70 0.113248
1138.80 0.1132155
1138.90 0.113183
1139.00 0.1131504
1139.10 0.1131179
1139.20 0.1130854
1139.30 0.1130535
1139.40 0.1130217
1139.50 0.1129899
1139.60 0.112958
1139.70 0.1129262
1139.80 0.1128944
1139.90 0.1128626
1140.00 0.1128308
1140.10 0.1127991
1140.20 0.1127673
1140.30 0.1127355
1140.40 0.1127038
1140.50 0.112672
1140.60 0.1126403
1140.70 0.1126086
1140.80 0.1125769
1140.90 0.1125452
1141.00 0.1125135
1141.10 0.1124818
1141.20 0.1124501
1141.30 0.1124185
1141.40 0.1123868
1141.50 0.1123552
1141.60 0.1123235
1141.70 0.1122919
1141.80 0.1122603
1141.90 0.1122287
1142.00 0.1121971
1142.10 0.1121655
1142.20 0.1121339
1142.30 0.1121023
1142.40 0.1120708
1142.50 0.1120392
1142.60 0.1120077
1142.70 0.1119761
1142.80 0.1119446
1142.90 0.1119131
1143.00 0.1118816
1143.10 0.1118501
1143.20 0.1118186
1143.30 0.1117871
1143.40 0.1117557
1143.50 0.1117242
1143.60 0.1116928
1143.70 0.1116613
1143.80 0.1116299
1143.90 0.1115985
1144.00 0.111567
1144.10 0.1115356
1144.20 0.1115042
1144.30 0.1114729
1144.40 0.1114415
1144.50 0.1114101
1144.60 0.1113788
1144.70 0.1113474
1144.80 0.1113161
1144.90 0.1112847
1145.00 0.1112534
1145.10 0.1112221
1145.20 0.1111908
1145.30 0.1111595
1145.40 0.1111282
1145.50 0.111097
1145.60 0.1110657
1145.70 0.1110344
1145.80 0.1110032
1145.90 0.110972
1146.00 0.1109407
1146.10 0.1109095
1146.20 0.1108783
1146.30 0.1108471
1146.40 0.1108159
1146.50 0.1107847
1146.60 0.1107536
1146.70 0.1107224
1146.80 0.1106912
1146.90 0.1106601
1147.00 0.110629
1147.10 0.1105978
1147.20 0.1105667
1147.30 0.1105356
1147.40 0.1105045
1147.50 0.1104734
1147.60 0.1104423
1147.70 0.1104113
1147.80 0.1103802
1147.90 0.1103491
1148.00 0.1103181
1148.10 0.1102871
1148.20 0.110256
1148.30 0.110225
1148.40 0.110194
1148.50 0.110163
1148.60 0.110132
1148.70 0.1101011
1148.80 0.1100701
1148.90 0.1100391
1149.00 0.1100082
1149.10 0.1099772
1149.20 0.1099463
1149.30 0.1099154
1149.40 0.1098844
1149.50 0.1098535
1149.60 0.1098226
1149.70 0.1097917
1149.80 0.1097609
1149.90 0.10973
1150.00 0.1096991
1150.10 0.1096683
1150.20 0.1096374
1150.30 0.1096066
1150.40 0.1095758
1150.50 0.109545
1150.60 0.1095142
1150.70 0.109484
1150.80 0.1094538
1150.90 0.1094237
1151.00 0.1093935
1151.10 0.1093634
1151.20 0.1093333
1151.30 0.1093031
1151.40 0.109273
1151.50 0.1092429
1151.60 0.1092128
1151.70 0.1091827
1151.80 0.1091526
1151.90 0.1091226
1152.00 0.1090925
1152.10 0.1090624
1152.20 0.1090324
1152.30 0.1090024
1152.40 0.1089723
1152.50 0.1089423
1152.60 0.1089123
1152.70 0.1088823
1152.80 0.1088523
1152.90 0.1088223
1153.00 0.1087924
1153.10 0.1087624
1153.20 0.1087324
1153.30 0.1087025
1153.40 0.1086725
1153.50 0.1086426
1153.60 0.1086127
1153.70 0.1085828
1153.80 0.1085529
1153.90 0.108523
1154.00 0.1084931
1154.10 0.1084632
1154.20 0.1084333
1154.30 0.1084035
1154.40 0.1083736
1154.50 0.1083438
1154.60 0.1083139
1154.70 0.1082841
1154.80 0.1082543
1154.90 0.1082245
1155.00 0.1081947
1155.10 0.1081649
1155.20 0.1081351
1155.30 0.1081053
1155.40 0.1080756
1155.50 0.1080458
1155.60 0.1080161
1155.70 0.1079863
1155.80 0.1079566
1155.90 0.1079269
1156.00 0.1078972
1156.10 0.1078675
1156.20 0.1078378
1156.30 0.1078081
1156.40 0.1077779
1156.50 0.1077472
1156.60 0.1077165
1156.70 0.1076859
1156.80 0.1076552
1156.90 0.1076246
1157.00 0.107594
1157.10 0.1075634
1157.20 0.1075327
1157.30 0.1075022
1157.40 0.1074716
1157.50 0.107441
1157.60 0.1074104
1157.70 0.1073799
1157.80 0.1073493
1157.90 0.1073188
1158.00 0.1072882
1158.10 0.1072577
1158.20 0.1072272
1158.30 0.1071967
1158.40 0.1071662
1158.50 0.1071357
1158.60 0.1071052
1158.70 0.1070747
1158.80 0.1070443
1158.90 0.1070138
1159.00 0.1069834
1159.10 0.1069529
1159.20 0.1069225
1159.30 0.1068921
1159.40 0.1068617
1159.50 0.1068313
1159.60 0.1068009
1159.70 0.1067705
1159.80 0.1067401
1159.90 0.1067098
1160.00 0.1066794
1160.10 0.1066491
1160.20 0.1066187
1160.30 0.1065884
1160.40 0.1065581
1160.50 0.1065278
1160.60 0.1064975
1160.70 0.1064672
1160.80 0.1064369
1160.90 0.1064066
1161.00 0.1063763
1161.10 0.1063461
1161.20 0.1063158
1161.30 0.1062856
1161.40 0.1062553
1161.50 0.1062251
1161.60 0.1061949
1161.70 0.1061647
1161.80 0.1061345
1161.90 0.1061043
1162.00 0.1060741
1162.10 0.106044
1162.20 0.1060149
1162.30 0.1059858
1162.40 0.1059568
1162.50 0.1059278
1162.60 0.1058987
1162.70 0.1058697
1162.80 0.1058407
1162.90 0.1058117
1163.00 0.1057827
1163.10 0.1057537
1163.20 0.1057247
1163.30 0.1056958
1163.40 0.1056668
1163.50 0.1056378
1163.60 0.1056089
1163.70 0.10558
1163.80 0.105551
1163.90 0.1055221
1164.00 0.1054932
1164.10 0.1054643
1164.20 0.1054354
1164.30 0.1054065
1164.40 0.1053776
1164.50 0.1053488
1164.60 0.1053199
1164.70 0.105291
1164.80 0.1052622
1164.90 0.1052334
1165.00 0.1052045
1165.10 0.1051757
1165.20 0.1051469
1165.30 0.1051181
1165.40 0.1050893
1165.50 0.1050605
1165.60 0.1050317
1165.70 0.105003
1165.80 0.1049742
1165.90 0.1049455
1166.00 0.1049167
1166.10 0.104888
1166.20 0.1048592
1166.30 0.1048305
1166.40 0.1048018
1166.50 0.1047731
1166.60 0.1047444
1166.70 0.1047157
1166.80 0.104687
1166.90 0.1046584
1167.00 0.1046297
1167.10 0.1046011
1167.20 0.1045724
1167.30 0.1045438
1167.40 0.1045151
1167.50 0.1044865
1167.60 0.1044579
1167.70 0.1044293
1167.80 0.1044007
1167.90 0.1043721
1168.00 0.1043427
1168.10 0.1043131
1168.20 0.1042836
1168.30 0.1042541
1168.40 0.1042245
1168.50 0.104195
1168.60 0.1041655
1168.70 0.104136
1168.80 0.1041066
1168.90 0.1040771
1169.00 0.1040476
1169.10 0.1040182
1169.20 0.1039887
1169.30 0.1039593
1169.40 0.1039299
1169.50 0.1039004
1169.60 0.103871
1169.70 0.1038416
1169.80 0.1038122
1169.90 0.1037828
1170.00 0.1037534
1170.10 0.1037241
1170.20 0.1036947
1170.30 0.1036654
1170.40 0.103636
1170.50 0.1036067
1170.60 0.1035773
1170.70 0.103548
1170.80 0.1035187
1170.90 0.1034894
1171.00 0.1034601
1171.10 0.1034308
1171.20 0.1034015
1171.30 0.1033723
1171.40 0.103343
1171.50 0.1033138
1171.60 0.1032845
1171.70 0.1032553
1171.80 0.1032261
1171.90 0.1031968
1172.00 0.1031676
1172.10 0.1031384
1172.20 0.1031092
1172.30 0.1030801
1172.40 0.1030509
1172.50 0.1030217
1172.60 0.1029926
1172.70 0.1029634
1172.80 0.1029343
1172.90 0.1029051
1173.00 0.102876
1173.10 0.1028469
1173.20 0.1028178
1173.30 0.1027887
1173.40 0.1027596
1173.50 0.1027305
1173.60 0.1027014
1173.70 0.1026724
1173.80 0.1026441
1173.90 0.1026162
1174.00 0.1025882
1174.10 0.1025602
1174.20 0.1025323
1174.30 0.1025043
1174.40 0.1024764
1174.50 0.1024484
1174.60 0.1024205
1174.70 0.1023926
1174.80 0.1023647
1174.90 0.1023368
1175.00 0.1023089
1175.10 0.102281
1175.20 0.1022531
1175.30 0.1022252
1175.40 0.1021974
1175.50 0.1021695
1175.60 0.1021417
1175.70 0.1021138
1175.80 0.102086
1175.90 0.1020582
1176.00 0.1020304
1176.10 0.1020026
1176.20 0.1019748
1176.30 0.101947
1176.40 0.1019192
1176.50 0.1018914
1176.60 0.1018636
1176.70 0.1018359
1176.80 0.1018081
1176.90 0.1017804
1177.00 0.1017527
1177.10 0.1017249
1177.20 0.1016972
1177.30 0.1016695
1177.40 0.1016418
1177.50 0.1016141
1177.60 0.1015864
1177.70 0.1015587
1177.80 0.1015311
1177.90 0.1015034
1178.00 0.1014757
1178.10 0.1014481
1178.20 0.1014204
1178.30 0.1013928
1178.40 0.1013652
1178.50 0.1013376
1178.60 0.10131
1178.70 0.1012824
1178.80 0.1012548
1178.90 0.1012272
1179.00 0.1011996
1179.10 0.101172
1179.20 0.1011445
1179.30 0.1011169
1179.40 0.1010894
1179.50 0.1010619
1179.60 0.1010343
1179.70 0.1010068
1179.80 0.1009793
1179.90 0.1009518
1180.00 0.1009243
1180.10 0.1008968
1180.20 0.1008693
1180.30 0.1008418
1180.40 0.1008144
1180.50 0.1007869
1180.60 0.1007595
1180.70 0.100732
1180.80 0.1007046
1180.90 0.1006772
1181.00 0.1006498
1181.10 0.1006224
1181.20 0.100595
1181.30 0.1005676
1181.40 0.1005402
1181.50 0.1005128
1181.60 0.1004854
1181.70 0.1004581
1181.80 0.1004307
1181.90 0.1004034
1182.00 0.100376
1182.10 0.1003487
1182.20 0.1003214
1182.30 0.100294
1182.40 0.1002667
1182.50 0.1002394
1182.60 0.1002121
1182.70 0.1001849
1182.80 0.1001576
1182.90 0.1001303
1183.00 0.1001031
1183.10 0.1000758
1183.20 0.1000486
1183.30 0.1000213
1183.40 0.09999409
1183.50 0.09996687
1183.60 0.09993965
1183.70 0.09991245
1183.80 0.09988525
1183.90 0.09985806
1184.00 0.09983087
1184.10 0.0998037
1184.20 0.09977653
1184.30 0.09974937
1184.40 0.09972222
1184.50 0.09969507
1184.60 0.09966794
1184.70 0.09964081
1184.80 0.09961368
1184.90 0.09958657
1185.00 0.09955946
1185.10 0.09953237
1185.20 0.09950528
1185.30 0.09947819
1185.40 0.09945112
1185.50 0.0994237
1185.60 0.09939582
1185.70 0.09936794
1185.80 0.09934007
1185.90 0.09931221
1186.00 0.09928436
1186.10 0.09925651
1186.20 0.09922868
1186.30 0.09920085
1186.40 0.09917303
1186.50 0.09914521
1186.60 0.09911741
1186.70 0.09908961
1186.80 0.09906182
1186.90 0.09903404
1187.00 0.09900627
1187.10 0.0989785
1187.20 0.09895074
1187.30 0.09892299
1187.40 0.09889525
1187.50 0.09886752
1187.60 0.09883979
1187.70 0.09881208
1187.80 0.09878437
1187.90 0.09875666
1188.00 0.09872897
1188.10 0.09870128
1188.20 0.09867361
1188.30 0.09864594
1188.40 0.09861827
1188.50 0.09859062
1188.60 0.09856297
1188.70 0.09853533
1188.80 0.0985077
1188.90 0.09848008
1189.00 0.09845246
1189.10 0.09842486
1189.20 0.09839726
1189.30 0.09836967
1189.40 0.09834208
1189.50 0.09831451
1189.60 0.09828694
1189.70 0.09825938
1189.80 0.09823183
1189.90 0.09820429
1190.00 0.09817675
1190.10 0.09814922
1190.20 0.0981217
1190.30 0.09809419
1190.40 0.09806668
1190.50 0.09803919
1190.60 0.0980117
1190.70 0.09798422
1190.80 0.09795674
1190.90 0.09792928
1191.00 0.09790182
1191.10 0.09787437
1191.20 0.09784693
1191.30 0.0978195
1191.40 0.09779221
1191.50 0.09776571
1191.60 0.09773921
1191.70 0.09771273
1191.80 0.09768625
1191.90 0.09765978
1192.00 0.09763331
1192.10 0.09760686
1192.20 0.09758041
1192.30 0.09755397
1192.40 0.09752753
1192.50 0.09750111
1192.60 0.09747469
1192.70 0.09744828
1192.80 0.09742187
1192.90 0.09739548
1193.00 0.09736909
1193.10 0.09734271
1193.20 0.09731633
1193.30 0.09728996
1193.40 0.09726361
1193.50 0.09723725
1193.60 0.09721091
1193.70 0.09718457
1193.80 0.09715824
1193.90 0.09713192
1194.00 0.09710561
1194.10 0.0970793
1194.20 0.097053
1194.30 0.09702671
1194.40 0.09700043
1194.50 0.09697415
1194.60 0.09694788
1194.70 0.09692162
1194.80 0.09689536
1194.90 0.09686912
1195.00 0.09684288
1195.10 0.09681664
1195.20 0.09679042
1195.30 0.0967642
1195.40 0.09673799
1195.50 0.09671179
1195.60 0.09668559
1195.70 0.09665941
1195.80 0.09663323
1195.90 0.09660705
1196.00 0.09658089
1196.10 0.09655473
1196.20 0.09652858
1196.30 0.09650243
1196.40 0.0964763
1196.50 0.09645017
1196.60 0.09642405
1196.70 0.09639793
1196.80 0.09637183
1196.90 0.09634573
1197.00 0.09631964
1197.10 0.09629355
1197.20 0.09626748
1197.30 0.09624141
1197.40 0.09621543
1197.50 0.09618948
1197.60 0.09616353
1197.70 0.09613759
1197.80 0.09611166
1197.90 0.09608573
1198.00 0.09605981
1198.10 0.0960339
1198.20 0.096008
1198.30 0.0959821
1198.40 0.09595621
1198.50 0.09593033
1198.60 0.09590446
1198.70 0.09587859
1198.80 0.09585273
1198.90 0.09582688
1199.00 0.09580103
1199.10 0.09577519
1199.20 0.09574936
1199.30 0.09572354
1199.40 0.09569772
1199.50 0.09567191
1199.60 0.09564611
1199.70 0.09562032
1199.80 0.09559453
1199.90 0.09556875
1200.00 0.09554298
