# Version 2.1 - nm, norm@500 to 1, cut digits, bergeron_He_4500_70.dat_4500
# Wavelength(nm)  Flambda(ergs/cm^s/s/nm)
300.00 0.04626101
300.10 0.0464028
300.20 0.04654512
300.30 0.04668736
300.40 0.04683011
300.50 0.04697266
300.60 0.04711501
300.70 0.04725716
300.80 0.04739912
300.90 0.04754087
301.00 0.04768242
301.10 0.04782378
301.20 0.04796494
301.30 0.0481059
301.40 0.04824666
301.50 0.04838723
301.60 0.04852759
301.70 0.04866777
301.80 0.04880774
301.90 0.04894752
302.00 0.0490871
302.10 0.0492363
302.20 0.04938638
302.30 0.04953625
302.40 0.04968591
302.50 0.04983536
302.60 0.0499846
302.70 0.05013364
302.80 0.05028246
302.90 0.05043108
303.00 0.0505795
303.10 0.0507277
303.20 0.0508757
303.30 0.05102391
303.40 0.05117559
303.50 0.05132707
303.60 0.05147833
303.70 0.05162938
303.80 0.05178023
303.90 0.05193086
304.00 0.05208129
304.10 0.0522315
304.20 0.05238151
304.30 0.05253131
304.40 0.0526809
304.50 0.05283028
304.60 0.05298752
304.70 0.05314543
304.80 0.05330312
304.90 0.05346059
305.00 0.05361785
305.10 0.05377489
305.20 0.05393171
305.30 0.05408832
305.40 0.0542447
305.50 0.05440087
305.60 0.05455683
305.70 0.05471257
305.80 0.05486809
305.90 0.0550234
306.00 0.0551785
306.10 0.05533338
306.20 0.05548805
306.30 0.0556425
306.40 0.05580558
306.50 0.05597107
306.60 0.05613633
306.70 0.05630136
306.80 0.05646617
306.90 0.05663075
307.00 0.05679511
307.10 0.05695924
307.20 0.05712314
307.30 0.05728682
307.40 0.05745027
307.50 0.0576135
307.60 0.05777651
307.70 0.05793929
307.80 0.05810184
307.90 0.05826418
308.00 0.05842629
308.10 0.05858817
308.20 0.05874984
308.30 0.05891128
308.40 0.0590725
308.50 0.0592335
308.60 0.05939428
308.70 0.05955484
308.80 0.0597161
308.90 0.05987977
309.00 0.0600507
309.10 0.06022139
309.20 0.06039186
309.30 0.06056209
309.40 0.06073227
309.50 0.06090333
309.60 0.06107416
309.70 0.06124476
309.80 0.06141512
309.90 0.06158525
310.00 0.06175515
310.10 0.06192482
310.20 0.06209425
310.30 0.06226346
310.40 0.06243527
310.50 0.06260992
310.60 0.06278433
310.70 0.06295851
310.80 0.06313245
310.90 0.06330615
311.00 0.06348212
311.10 0.06365786
311.20 0.06383336
311.30 0.06400921
311.40 0.06418653
311.50 0.06436361
311.60 0.06454045
311.70 0.06471705
311.80 0.06489342
311.90 0.06506954
312.00 0.06524542
312.10 0.06542106
312.20 0.0655946
312.30 0.0657666
312.40 0.0659399
312.50 0.06613608
312.60 0.06631683
312.70 0.06649733
312.80 0.06667759
312.90 0.0668575
313.00 0.06703706
313.10 0.06721638
313.20 0.06739545
313.30 0.06757577
313.40 0.06776008
313.50 0.06794413
313.60 0.06812793
313.70 0.06831149
313.80 0.0684948
313.90 0.06867786
314.00 0.06886067
314.10 0.06905044
314.20 0.06923995
314.30 0.0694292
314.40 0.0696182
314.50 0.06980694
314.60 0.06999543
314.70 0.07018367
314.80 0.07036573
314.90 0.07054499
315.00 0.07073946
315.10 0.07093049
315.20 0.07112126
315.30 0.07131178
315.40 0.07150204
315.50 0.07169204
315.60 0.07188179
315.70 0.07207355
315.80 0.07226504
315.90 0.07245628
316.00 0.07264727
316.10 0.07283123
316.20 0.07301495
316.30 0.07322543
316.40 0.07342214
316.50 0.07360509
316.60 0.07380128
316.70 0.07399721
316.80 0.07419287
316.90 0.07438828
317.00 0.07458342
317.10 0.0747783
317.20 0.07497292
317.30 0.07517252
317.40 0.07537158
317.50 0.07556957
317.60 0.07576729
317.70 0.07596475
317.80 0.07616195
317.90 0.07636037
318.00 0.07655809
318.10 0.07675704
318.20 0.07695572
318.30 0.07715414
318.40 0.07735402
318.50 0.07755857
318.60 0.07776631
318.70 0.077957
318.80 0.07815808
318.90 0.07836421
319.00 0.07857723
319.10 0.07878015
319.20 0.07898297
319.30 0.07918598
319.40 0.07938873
319.50 0.0795912
319.60 0.07979271
319.70 0.08000164
319.80 0.0802103
319.90 0.08041868
320.00 0.08062313
320.10 0.08082335
320.20 0.08102673
320.30 0.0812425
320.40 0.08146034
320.50 0.08166737
320.60 0.08187308
320.70 0.08207168
320.80 0.08227632
320.90 0.08248752
321.00 0.08269843
321.10 0.08290907
321.20 0.08314062
321.30 0.0833516
321.40 0.08356229
321.50 0.08377271
321.60 0.08398285
321.70 0.08419271
321.80 0.08440355
321.90 0.08461548
322.00 0.0848332
322.10 0.08504947
322.20 0.08526546
322.30 0.08548116
322.40 0.08569658
322.50 0.08591171
322.60 0.08612656
322.70 0.08634113
322.80 0.08655004
322.90 0.08677039
323.00 0.08699046
323.10 0.08721024
323.20 0.08742973
323.30 0.08764894
323.40 0.08786785
323.50 0.08808648
323.60 0.08830482
323.70 0.08852287
323.80 0.08874064
323.90 0.08895812
324.00 0.08918547
324.10 0.08941252
324.20 0.08963927
324.30 0.089861
324.40 0.09007705
324.50 0.09030149
324.60 0.09052564
324.70 0.09074949
324.80 0.09097305
324.90 0.09119632
325.00 0.0914193
325.10 0.09164199
325.20 0.09186637
325.30 0.09209468
325.40 0.09232269
325.50 0.09255253
325.60 0.09278466
325.70 0.0930165
325.80 0.09324803
325.90 0.09347684
326.00 0.09370275
326.10 0.09392836
326.20 0.09415368
326.30 0.09438376
326.40 0.09462796
326.50 0.09486335
326.60 0.09509844
326.70 0.09533322
326.80 0.0955677
326.90 0.09580187
327.00 0.09603574
327.10 0.09626931
327.20 0.09650257
327.30 0.09673553
327.40 0.09696818
327.50 0.09720054
327.60 0.09743259
327.70 0.09766434
327.80 0.09789579
327.90 0.09812791
328.00 0.09836307
328.10 0.09860072
328.20 0.09883807
328.30 0.09907511
328.40 0.09931185
328.50 0.09955354
328.60 0.09979614
328.70 0.1000384
328.80 0.1002809
328.90 0.1005246
329.00 0.100768
329.10 0.101011
329.20 0.1012538
329.30 0.1014962
329.40 0.1017383
329.50 0.1019801
329.60 0.1022216
329.70 0.1024627
329.80 0.1027036
329.90 0.1029441
330.00 0.103186
330.10 0.1034297
330.20 0.103673
330.30 0.103916
330.40 0.1041629
330.50 0.1044139
330.60 0.1046646
330.70 0.104915
330.80 0.1051651
330.90 0.1054148
331.00 0.1056643
331.10 0.1059134
331.20 0.1061622
331.30 0.1064107
331.40 0.1066588
331.50 0.1069084
331.60 0.1071598
331.70 0.1074109
331.80 0.1076658
331.90 0.1079206
332.00 0.108175
332.10 0.1084292
332.20 0.1086829
332.30 0.1089364
332.40 0.1091895
332.50 0.1094424
332.60 0.1096948
332.70 0.109947
332.80 0.1101989
332.90 0.1104504
333.00 0.1107016
333.10 0.1109576
333.20 0.1112197
333.30 0.1114814
333.40 0.1117428
333.50 0.1120039
333.60 0.1122646
333.70 0.112525
333.80 0.112785
333.90 0.1130448
334.00 0.1133042
334.10 0.1135651
334.20 0.1138278
334.30 0.1140903
334.40 0.1143524
334.50 0.1146141
334.60 0.1148756
334.70 0.1151344
334.80 0.115393
334.90 0.1156552
335.00 0.1159171
335.10 0.1161894
335.20 0.1164568
335.30 0.1167107
335.40 0.1169865
335.50 0.1172439
335.60 0.117519
335.70 0.117789
335.80 0.1180544
335.90 0.1183222
336.00 0.1185929
336.10 0.1188633
336.20 0.1191334
336.30 0.119404
336.40 0.1196753
336.50 0.1199463
336.60 0.120217
336.70 0.1204873
336.80 0.1207573
336.90 0.1210298
337.00 0.1213056
337.10 0.121581
337.20 0.121856
337.30 0.1221306
337.40 0.1224048
337.50 0.1226787
337.60 0.1229521
337.70 0.1232253
337.80 0.1234981
337.90 0.123774
338.00 0.1240538
338.10 0.1243333
338.20 0.1246124
338.30 0.1248911
338.40 0.1251699
338.50 0.1254493
338.60 0.1257283
338.70 0.1260069
338.80 0.1262852
338.90 0.1265631
339.00 0.1268407
339.10 0.127118
339.20 0.1273949
339.30 0.1276746
339.40 0.1279585
339.50 0.128244
339.60 0.1285315
339.70 0.1288187
339.80 0.1291055
339.90 0.1293919
340.00 0.129678
340.10 0.1299637
340.20 0.1302491
340.30 0.1305341
340.40 0.1308187
340.50 0.131103
340.60 0.1313869
340.70 0.1316705
340.80 0.1319568
340.90 0.1322473
341.00 0.132538
341.10 0.132829
341.20 0.1331198
341.30 0.1334101
341.40 0.1337001
341.50 0.1339897
341.60 0.134279
341.70 0.1345679
341.80 0.1348602
341.90 0.1351567
342.00 0.1354528
342.10 0.1357486
342.20 0.1360383
342.30 0.1363333
342.40 0.1366326
342.50 0.1369278
342.60 0.1372227
342.70 0.1375171
342.80 0.1378113
342.90 0.138105
343.00 0.1384016
343.10 0.1387017
343.20 0.1390014
343.30 0.1393008
343.40 0.1396005
343.50 0.139901
343.60 0.1402012
343.70 0.1405009
343.80 0.1408003
343.90 0.1410993
344.00 0.1413987
344.10 0.1416989
344.20 0.1419987
344.30 0.1422981
344.40 0.1425995
344.50 0.1429039
344.60 0.1432126
344.70 0.1435276
344.80 0.1438194
344.90 0.1441337
345.00 0.1444429
345.10 0.144745
345.20 0.1450488
345.30 0.1453554
345.40 0.1456616
345.50 0.1459682
345.60 0.1462772
345.70 0.1465883
345.80 0.1468991
345.90 0.1472095
346.00 0.1475195
346.10 0.1478291
346.20 0.1481402
346.30 0.1484536
346.40 0.1487666
346.50 0.1490792
346.60 0.1493914
346.70 0.1497032
346.80 0.1500147
346.90 0.1503257
347.00 0.1506364
347.10 0.1509467
347.20 0.1512608
347.30 0.1515806
347.40 0.1519
347.50 0.1522189
347.60 0.1525375
347.70 0.1528557
347.80 0.1531735
347.90 0.1534909
348.00 0.153808
348.10 0.1541246
348.20 0.1544408
348.30 0.1547567
348.40 0.1550722
348.50 0.1553873
348.60 0.1557019
348.70 0.1560224
348.80 0.1563469
348.90 0.1566747
349.00 0.1570021
349.10 0.1573291
349.20 0.1576557
349.30 0.1579819
349.40 0.1583077
349.50 0.1586331
349.60 0.1589581
349.70 0.1592827
349.80 0.1596069
349.90 0.1599307
350.00 0.1602542
350.10 0.1605772
350.20 0.1608998
350.30 0.1612263
350.40 0.1615587
350.50 0.1618906
350.60 0.1622221
350.70 0.1625532
350.80 0.1628839
350.90 0.1632142
351.00 0.163544
351.10 0.1638735
351.20 0.1642026
351.30 0.1645313
351.40 0.1648619
351.50 0.1651963
351.60 0.1655302
351.70 0.1658637
351.80 0.1661968
351.90 0.1665295
352.00 0.1668618
352.10 0.1671938
352.20 0.1675231
352.30 0.1678573
352.40 0.1681988
352.50 0.1685399
352.60 0.1688806
352.70 0.1692209
352.80 0.1695608
352.90 0.1699003
353.00 0.1702393
353.10 0.1705779
353.20 0.1709162
353.30 0.171254
353.40 0.1715914
353.50 0.1719319
353.60 0.1722728
353.70 0.1726133
353.80 0.1729535
353.90 0.1732954
354.00 0.1736409
354.10 0.173986
354.20 0.1743307
354.30 0.1746749
354.40 0.1750188
354.50 0.1753622
354.60 0.1757052
354.70 0.1760478
354.80 0.1763927
354.90 0.1767409
355.00 0.1770888
355.10 0.1774362
355.20 0.1777832
355.30 0.1781352
355.40 0.1784868
355.50 0.1788379
355.60 0.1791886
355.70 0.1795377
355.80 0.1798858
355.90 0.1802365
356.00 0.1805941
356.10 0.1809517
356.20 0.1813089
356.30 0.1816657
356.40 0.1820221
356.50 0.182378
356.60 0.1827335
356.70 0.1830885
356.80 0.1834432
356.90 0.1837974
357.00 0.1841512
357.10 0.1845045
357.20 0.1848575
357.30 0.18521
357.40 0.1855635
357.50 0.1859192
357.60 0.1862744
357.70 0.1866292
357.80 0.1869855
357.90 0.1873414
358.00 0.1877037
358.10 0.1880673
358.20 0.1884304
358.30 0.1887931
358.40 0.1891553
358.50 0.1895171
358.60 0.1898785
358.70 0.1902394
358.80 0.1906
358.90 0.1909601
359.00 0.1913246
359.10 0.1916974
359.20 0.1920682
359.30 0.1924286
359.40 0.1927885
359.50 0.193157
359.60 0.1935273
359.70 0.1938972
359.80 0.194264
359.90 0.1946303
360.00 0.1949975
360.10 0.1953666
360.20 0.1957353
360.30 0.1961035
360.40 0.1964713
360.50 0.1968387
360.60 0.1972182
360.70 0.1975867
360.80 0.1979547
360.90 0.1983223
361.00 0.198691
361.10 0.1990687
361.20 0.1994373
361.30 0.1998156
361.40 0.2001903
361.50 0.2005666
361.60 0.2009489
361.70 0.2013233
361.80 0.2016968
361.90 0.202069
362.00 0.2024407
362.10 0.2028264
362.20 0.2032105
362.30 0.2035861
362.40 0.2039611
362.50 0.2043358
362.60 0.2047099
362.70 0.2050939
362.80 0.2055467
362.90 0.2058418
363.00 0.2061366
363.10 0.2065832
363.20 0.2070308
363.30 0.2074386
363.40 0.2078361
363.50 0.2082332
363.60 0.2086297
363.70 0.2089577
363.80 0.2093194
363.90 0.2096903
364.00 0.2100608
364.10 0.2104308
364.20 0.2108005
364.30 0.2112343
364.40 0.2116838
364.50 0.2119799
364.60 0.212404
364.70 0.2128276
364.80 0.2132508
364.90 0.2136413
365.00 0.2140315
365.10 0.2144212
365.20 0.2148104
365.30 0.2151991
365.40 0.2155874
365.50 0.2159753
365.60 0.2163627
365.70 0.2167037
365.80 0.2170443
365.90 0.217466
366.00 0.2179077
366.10 0.2182841
366.20 0.2186601
366.30 0.2190357
366.40 0.2194108
366.50 0.2199229
366.60 0.2202116
366.70 0.2206244
366.80 0.2210368
366.90 0.221439
367.00 0.2218237
367.10 0.2222078
367.20 0.2225915
367.30 0.2229748
367.40 0.2233576
367.50 0.2237816
367.60 0.2242155
367.70 0.2246196
367.80 0.2250232
367.90 0.2254264
368.00 0.2258239
368.10 0.2261949
368.20 0.2265944
368.30 0.2269936
368.40 0.2273924
368.50 0.2277907
368.60 0.2281886
368.70 0.228586
368.80 0.2289829
368.90 0.2294473
369.00 0.2299034
369.10 0.2303269
369.20 0.2306042
369.30 0.2310078
369.40 0.231411
369.50 0.2318136
369.60 0.2322788
369.70 0.2327435
369.80 0.2331523
369.90 0.2335601
370.00 0.2339675
370.10 0.2344105
370.20 0.2347785
370.30 0.2351445
370.40 0.2355101
370.50 0.2359712
370.60 0.2364367
370.70 0.2368057
370.80 0.2372648
370.90 0.2377234
371.00 0.2380896
371.10 0.2384544
371.20 0.2389114
371.30 0.239368
371.40 0.2396379
371.50 0.240056
371.60 0.2404735
371.70 0.2408906
371.80 0.2413072
371.90 0.2417233
372.00 0.2422126
372.10 0.2426402
372.20 0.2430626
372.30 0.2434845
372.40 0.243906
372.50 0.2443269
372.60 0.2447474
372.70 0.2451674
372.80 0.2456164
372.90 0.2460649
373.00 0.246422
373.10 0.2467777
373.20 0.2472277
373.30 0.2476771
373.40 0.248126
373.50 0.2485744
373.60 0.2489254
373.70 0.2494696
373.80 0.24985
373.90 0.2501695
374.00 0.2506154
374.10 0.2510608
374.20 0.2515057
374.30 0.2519501
374.40 0.252418
374.50 0.2528326
374.60 0.2532758
374.70 0.2537196
374.80 0.2541629
374.90 0.2546056
375.00 0.2549824
375.10 0.2553587
375.20 0.2557346
375.30 0.256174
375.40 0.2566129
375.50 0.2570513
375.60 0.2574892
375.70 0.2579266
375.80 0.2583635
375.90 0.2587999
376.00 0.2592301
376.10 0.2596749
376.20 0.2601194
376.30 0.2605633
376.40 0.2610068
376.50 0.2614538
376.60 0.2619063
376.70 0.2623584
376.80 0.262803
376.90 0.2632401
377.00 0.2636767
377.10 0.2641129
377.20 0.2645519
377.30 0.2650031
377.40 0.2654539
377.50 0.2659041
377.60 0.2663402
377.70 0.2667758
377.80 0.2672109
377.90 0.2676455
378.00 0.2680339
378.10 0.2684816
378.20 0.2689302
378.30 0.2693782
378.40 0.2698257
378.50 0.2702727
378.60 0.2707192
378.70 0.2711652
378.80 0.2716107
378.90 0.272045
379.00 0.2724589
379.10 0.272917
379.20 0.2733746
379.30 0.273834
379.40 0.2742954
379.50 0.2747563
379.60 0.2752267
379.70 0.2757041
379.80 0.2761516
379.90 0.2765986
380.00 0.2770451
380.10 0.277491
380.20 0.2779365
380.30 0.2783814
380.40 0.2788259
380.50 0.2792698
380.60 0.2797396
380.70 0.2801861
380.80 0.280632
380.90 0.2810774
381.00 0.2815223
381.10 0.2819561
381.20 0.2824049
381.30 0.2828571
381.40 0.2833618
381.50 0.2837847
381.60 0.2842282
381.70 0.2847162
381.80 0.2851645
381.90 0.2856638
382.00 0.2861625
382.10 0.2865681
382.20 0.2870102
382.30 0.2874149
382.40 0.2878496
382.50 0.2883296
382.60 0.2888091
382.70 0.2892602
382.80 0.2897168
382.90 0.2902101
383.00 0.2907028
383.10 0.2911949
383.20 0.2916795
383.30 0.2921372
383.40 0.2925606
383.50 0.2929331
383.60 0.2933881
383.70 0.2938641
383.80 0.2943395
383.90 0.2948144
384.00 0.2952887
384.10 0.2957625
384.20 0.2962358
384.30 0.2967086
384.40 0.2971873
384.50 0.297672
384.60 0.2981561
384.70 0.2986396
384.80 0.2991224
384.90 0.2995999
385.00 0.3000703
385.10 0.300541
385.20 0.3009968
385.30 0.301395
385.40 0.3018339
385.50 0.3023132
385.60 0.302792
385.70 0.3032703
385.80 0.3037485
385.90 0.3042279
386.00 0.3047102
386.10 0.3051941
386.20 0.3056658
386.30 0.3061369
386.40 0.3066066
386.50 0.3070817
386.60 0.3076489
386.70 0.3080772
386.80 0.3085954
386.90 0.3090227
387.00 0.3095037
387.10 0.3100607
387.20 0.3104683
387.30 0.3110019
387.40 0.3113371
387.50 0.3118964
387.60 0.3124474
387.70 0.3129156
387.80 0.3133833
387.90 0.3138504
388.00 0.3143166
388.10 0.3147957
388.20 0.3152507
388.30 0.3157143
388.40 0.3161774
388.50 0.316696
388.60 0.3172548
388.70 0.3176712
388.80 0.3181456
388.90 0.3185963
389.00 0.3191873
389.10 0.319594
389.20 0.3200549
389.30 0.3205498
389.40 0.3211165
389.50 0.3216297
389.60 0.3220679
389.70 0.3225392
389.80 0.3230393
389.90 0.3235388
390.00 0.3240377
390.10 0.3245361
390.20 0.325034
390.30 0.3255213
390.40 0.3259968
390.50 0.3264718
390.60 0.3269463
390.70 0.3274202
390.80 0.327923
390.90 0.3284548
391.00 0.3289914
391.10 0.3294236
391.20 0.3298797
391.30 0.3304084
391.40 0.3309159
391.50 0.3314228
391.60 0.3319292
391.70 0.332435
391.80 0.3329403
391.90 0.3334371
392.00 0.3339052
392.10 0.3343437
392.20 0.3348074
392.30 0.3353819
392.40 0.3358089
392.50 0.3363822
392.60 0.3369123
392.70 0.3374111
392.80 0.3378524
392.90 0.3383157
393.00 0.3387951
393.10 0.3393253
393.20 0.3399074
393.30 0.3404335
393.40 0.3409398
393.50 0.3413549
393.60 0.3419171
393.70 0.3423733
393.80 0.3428809
393.90 0.3434036
394.00 0.3439137
394.10 0.3443688
394.20 0.3449004
394.30 0.3453808
394.40 0.345844
394.50 0.3464654
394.60 0.3469686
394.70 0.3474625
394.80 0.3479228
394.90 0.3483857
395.00 0.3489304
395.10 0.3494142
395.20 0.3499335
395.30 0.3504325
395.40 0.350931
395.50 0.3514487
395.60 0.3519731
395.70 0.352498
395.80 0.3530252
395.90 0.3535518
396.00 0.3540712
396.10 0.3545386
396.20 0.3550483
396.30 0.355604
396.40 0.3561127
396.50 0.3566487
396.60 0.3571282
396.70 0.357584
396.80 0.3580871
396.90 0.3586217
397.00 0.3590927
397.10 0.359626
397.20 0.3602548
397.30 0.3607943
397.40 0.3613124
397.50 0.3618299
397.60 0.362344
397.70 0.3628284
397.80 0.3633122
397.90 0.3638133
398.00 0.3643617
398.10 0.3649096
398.20 0.3654418
398.30 0.3659566
398.40 0.3664695
398.50 0.3669402
398.60 0.3674669
398.70 0.367984
398.80 0.3684931
398.90 0.3690233
399.00 0.3695929
399.10 0.3699833
399.20 0.370537
399.30 0.3710902
399.40 0.3716427
399.50 0.3721947
399.60 0.3727071
399.70 0.3732045
399.80 0.3737014
399.90 0.3741978
400.00 0.3746965
400.10 0.3752884
400.20 0.3758351
400.30 0.3763851
400.40 0.3769301
400.50 0.3774452
400.60 0.377917
400.70 0.3784017
400.80 0.3790087
400.90 0.3794923
401.00 0.3800544
401.10 0.380626
401.20 0.3811902
401.30 0.3816465
401.40 0.3821699
401.50 0.3827248
401.60 0.383276
401.70 0.3837294
401.80 0.3842379
401.90 0.3848031
402.00 0.3853617
402.10 0.3858145
402.20 0.3864799
402.30 0.3869591
402.40 0.3874703
402.50 0.3880511
402.60 0.3885432
402.70 0.3891657
402.80 0.3896388
402.90 0.3902113
403.00 0.3907666
403.10 0.3912214
403.20 0.3917154
403.30 0.3922882
403.40 0.3928221
403.50 0.3933916
403.60 0.3939578
403.70 0.3943713
403.80 0.3950274
403.90 0.3955849
404.00 0.3961288
404.10 0.3965702
404.20 0.3971184
404.30 0.3976661
404.40 0.3981455
404.50 0.3987596
404.60 0.3993055
404.70 0.3998508
404.80 0.400337
404.90 0.4009396
405.00 0.4014238
405.10 0.401979
405.20 0.4025449
405.30 0.4031102
405.40 0.4036514
405.50 0.404192
405.60 0.4047321
405.70 0.4052715
405.80 0.4058104
405.90 0.4063487
406.00 0.4069073
406.10 0.4074654
406.20 0.4080228
406.30 0.4085797
406.40 0.4091296
406.50 0.409609
406.60 0.4101822
406.70 0.4107567
406.80 0.4113204
406.90 0.4118855
407.00 0.4124337
407.10 0.4129813
407.20 0.4135283
407.30 0.4140747
407.40 0.4146205
407.50 0.4151658
407.60 0.4157104
407.70 0.4162545
407.80 0.416798
407.90 0.4173398
408.00 0.417845
408.10 0.4183701
408.20 0.4189614
408.30 0.4195483
408.40 0.4201347
408.50 0.4206286
408.60 0.4212069
408.70 0.4217847
408.80 0.4223574
408.90 0.4228944
409.00 0.423432
409.10 0.4239689
409.20 0.4245052
409.30 0.425041
409.40 0.4255779
409.50 0.4261674
409.60 0.4267563
409.70 0.4273337
409.80 0.4278668
409.90 0.4284005
410.00 0.4289721
410.10 0.4295664
410.20 0.43012
410.30 0.4306629
410.40 0.4312148
410.50 0.4317961
410.60 0.4323769
410.70 0.4329546
410.80 0.4335219
410.90 0.4340886
411.00 0.4346498
411.10 0.4352085
411.20 0.4357667
411.30 0.4363069
411.40 0.4367805
411.50 0.4373579
411.60 0.4379346
411.70 0.4385124
411.80 0.4390964
411.90 0.4396797
412.00 0.4402624
412.10 0.4407252
412.20 0.441267
412.30 0.441852
412.40 0.4424512
412.50 0.443008
412.60 0.4435871
412.70 0.444173
412.80 0.4447601
412.90 0.4453448
413.00 0.4459276
413.10 0.4464973
413.20 0.4470665
413.30 0.447635
413.40 0.4482029
413.50 0.4487452
413.60 0.4492181
413.70 0.4497906
413.80 0.4503624
413.90 0.4509337
414.00 0.4515043
414.10 0.4520744
414.20 0.4526438
414.30 0.4532127
414.40 0.4537809
414.50 0.4543413
414.60 0.4549156
414.70 0.455482
414.80 0.4560572
414.90 0.4566617
415.00 0.4572656
415.10 0.4578688
415.20 0.4584614
415.30 0.4590217
415.40 0.4595815
415.50 0.4601408
415.60 0.4607046
415.70 0.4612678
415.80 0.4618396
415.90 0.4624399
416.00 0.4630396
416.10 0.4636316
416.20 0.4641946
416.30 0.464757
416.40 0.4653188
416.50 0.4658798
416.60 0.4664348
416.70 0.4669893
416.80 0.4675463
416.90 0.4682519
417.00 0.4687534
417.10 0.4693565
417.20 0.4699079
417.30 0.4704602
417.40 0.4710571
417.50 0.4716533
417.60 0.4722436
417.70 0.4728121
417.80 0.4733858
417.90 0.4739588
418.00 0.4745313
418.10 0.4751032
418.20 0.4756745
418.30 0.4762505
418.40 0.4769587
418.50 0.477535
418.60 0.4781108
418.70 0.4786859
418.80 0.4792605
418.90 0.4798344
419.00 0.4804078
419.10 0.4809805
419.20 0.4815526
419.30 0.4821246
419.40 0.4827091
419.50 0.4832931
419.60 0.4838796
419.70 0.4844785
419.80 0.4850767
419.90 0.4856736
420.00 0.4862677
420.10 0.4868612
420.20 0.4874541
420.30 0.4880464
420.40 0.488638
420.50 0.4892291
420.60 0.4898195
420.70 0.4904093
420.80 0.4909984
420.90 0.491587
421.00 0.4921763
421.10 0.492765
421.20 0.493354
421.30 0.4939453
421.40 0.494536
421.50 0.495126
421.60 0.4957155
421.70 0.4963043
421.80 0.4968925
421.90 0.497479
422.00 0.4980616
422.10 0.4986428
422.20 0.4992197
422.30 0.4997961
422.40 0.5003727
422.50 0.5009775
422.60 0.5015816
422.70 0.5021851
422.80 0.502788
422.90 0.5033902
423.00 0.5039919
423.10 0.5045929
423.20 0.5051932
423.30 0.505793
423.40 0.5063921
423.50 0.5069906
423.60 0.5075885
423.70 0.5081858
423.80 0.5087824
423.90 0.5093785
424.00 0.5099739
424.10 0.5105687
424.20 0.5111628
424.30 0.5117564
424.40 0.5123247
424.50 0.5129317
424.60 0.5135382
424.70 0.514144
424.80 0.5147492
424.90 0.5153537
425.00 0.5159577
425.10 0.516561
425.20 0.5171636
425.30 0.5177657
425.40 0.5183679
425.50 0.5189745
425.60 0.5195805
425.70 0.5201858
425.80 0.5207905
425.90 0.5213946
426.00 0.5219981
426.10 0.5226009
426.20 0.5232032
426.30 0.5238048
426.40 0.5244058
426.50 0.5250061
426.60 0.5256059
426.70 0.526205
426.80 0.5268035
426.90 0.5274018
427.00 0.5280148
427.10 0.5286272
427.20 0.529239
427.30 0.5298501
427.40 0.5304606
427.50 0.5310705
427.60 0.5316797
427.70 0.5322884
427.80 0.5328964
427.90 0.5335037
428.00 0.5341104
428.10 0.5347166
428.20 0.535322
428.30 0.5359269
428.40 0.5365312
428.50 0.5371348
428.60 0.5377378
428.70 0.5383401
428.80 0.5389431
428.90 0.5395616
429.00 0.5401795
429.10 0.5407968
429.20 0.5414134
429.30 0.5420294
429.40 0.5426447
429.50 0.5432594
429.60 0.5438735
429.70 0.544487
429.80 0.5450998
429.90 0.545712
430.00 0.5463235
430.10 0.5469345
430.20 0.5475448
430.30 0.5481545
430.40 0.5487635
430.50 0.549372
430.60 0.5499798
430.70 0.550587
430.80 0.5511935
430.90 0.5517995
431.00 0.5524048
431.10 0.5530095
431.20 0.5536136
431.30 0.5542184
431.40 0.5548401
431.50 0.5554612
431.60 0.5560816
431.70 0.5567014
431.80 0.5573206
431.90 0.5579392
432.00 0.5585571
432.10 0.5591744
432.20 0.559791
432.30 0.560407
432.40 0.5610224
432.50 0.5616372
432.60 0.5622513
432.70 0.5628649
432.80 0.5634777
432.90 0.56409
433.00 0.5647016
433.10 0.5653126
433.20 0.565923
433.30 0.5665329
433.40 0.5671435
433.50 0.5677536
433.60 0.568363
433.70 0.5689718
433.80 0.5695767
433.90 0.5701771
434.00 0.5707937
434.10 0.5714198
434.20 0.5720453
434.30 0.5726701
434.40 0.5732944
434.50 0.573918
434.60 0.5745409
434.70 0.5751632
434.80 0.5757852
434.90 0.5764099
435.00 0.5770339
435.10 0.5776574
435.20 0.5782802
435.30 0.5789023
435.40 0.5795239
435.50 0.5801448
435.60 0.580765
435.70 0.5813847
435.80 0.5820037
435.90 0.582622
436.00 0.5832398
436.10 0.5838569
436.20 0.5844734
436.30 0.5851083
436.40 0.5857641
436.50 0.5863976
436.60 0.5870304
436.70 0.5876626
436.80 0.5882942
436.90 0.5889251
437.00 0.5895554
437.10 0.5901851
437.20 0.5907968
437.30 0.591392
437.40 0.5919886
437.50 0.5926123
437.60 0.5932354
437.70 0.5938579
437.80 0.5944797
437.90 0.5951009
438.00 0.595723
438.10 0.5963648
438.20 0.5970059
438.30 0.5975994
438.40 0.5982928
438.50 0.5989336
438.60 0.599559
438.70 0.6001283
438.80 0.6007795
438.90 0.6014055
439.00 0.6019877
439.10 0.6026247
439.20 0.6032611
439.30 0.6038968
439.40 0.6045319
439.50 0.6051663
439.60 0.6058077
439.70 0.6064958
439.80 0.6071247
439.90 0.6077416
440.00 0.6083579
440.10 0.6089735
440.20 0.6095905
440.30 0.6102338
440.40 0.6108764
440.50 0.6115184
440.60 0.6121598
440.70 0.6128005
440.80 0.6134405
440.90 0.6140799
441.00 0.6147187
441.10 0.6153568
441.20 0.6159901
441.30 0.6165677
441.40 0.6171641
441.50 0.6177837
441.60 0.6184027
441.70 0.6191081
441.80 0.6197369
441.90 0.6203651
442.00 0.6209926
442.10 0.6216196
442.20 0.6222458
442.30 0.6228715
442.40 0.6235164
442.50 0.624185
442.60 0.624853
442.70 0.6254723
442.80 0.6260264
442.90 0.6266793
443.00 0.6273282
443.10 0.6279723
443.20 0.6286178
443.30 0.6292644
443.40 0.6298941
443.50 0.6305032
443.60 0.6311736
443.70 0.6317815
443.80 0.6323888
443.90 0.6330469
444.00 0.6337078
444.10 0.6343817
444.20 0.6350344
444.30 0.6356359
444.40 0.6362901
444.50 0.6369437
444.60 0.6375883
444.70 0.6382221
444.80 0.6388481
444.90 0.6394668
445.00 0.6400849
445.10 0.6407024
445.20 0.6413364
445.30 0.6419908
445.40 0.6426445
445.50 0.6432976
445.60 0.64395
445.70 0.6446018
445.80 0.6452505
445.90 0.6458963
446.00 0.6465414
446.10 0.647186
446.20 0.6478168
446.30 0.6484098
446.40 0.6490689
446.50 0.6496933
446.60 0.6503171
446.70 0.6509402
446.80 0.6515803
446.90 0.6522361
447.00 0.6529263
447.10 0.6535131
447.20 0.654194
447.30 0.6548201
447.40 0.655505
447.50 0.6561568
447.60 0.6567785
447.70 0.6573722
447.80 0.6580264
447.90 0.65864
448.00 0.6592716
448.10 0.6599196
448.20 0.660567
448.30 0.6612137
448.40 0.6618598
448.50 0.6625053
448.60 0.6631458
448.70 0.6637817
448.80 0.664419
448.90 0.665081
449.00 0.6657424
449.10 0.6664031
449.20 0.6670632
449.30 0.667694
449.40 0.6683682
449.50 0.6690417
449.60 0.6697
449.70 0.6703441
449.80 0.6709876
449.90 0.6716305
450.00 0.6722727
450.10 0.6729143
450.20 0.6735552
450.30 0.6741955
450.40 0.6748288
450.50 0.6754615
450.60 0.6760935
450.70 0.6767249
450.80 0.6773557
450.90 0.6779859
451.00 0.6786497
451.10 0.6793128
451.20 0.6799904
451.30 0.6806329
451.40 0.6812599
451.50 0.6818863
451.60 0.6825783
451.70 0.6832033
451.80 0.6838278
451.90 0.6845178
452.00 0.685141
452.10 0.6857636
452.20 0.6864186
452.30 0.687073
452.40 0.6877267
452.50 0.6883797
452.60 0.6890562
452.70 0.689723
452.80 0.6903809
452.90 0.691038
453.00 0.6916946
453.10 0.6923504
453.20 0.6929892
453.30 0.6936273
453.40 0.6942648
453.50 0.6949016
453.60 0.6955379
453.70 0.6961735
453.80 0.6968126
453.90 0.6974563
454.00 0.6980992
454.10 0.6987416
454.20 0.6994142
454.30 0.7000861
454.40 0.7007573
454.50 0.7014279
454.60 0.7020978
454.70 0.7027561
454.80 0.7034035
454.90 0.7040503
455.00 0.7046964
455.10 0.7053419
455.20 0.7059868
455.30 0.706631
455.40 0.7072746
455.50 0.7079175
455.60 0.7085599
455.70 0.7092016
455.80 0.709867
455.90 0.7105318
456.00 0.7111959
456.10 0.7118571
456.20 0.7125115
456.30 0.7131653
456.40 0.7138184
456.50 0.7144709
456.60 0.7151227
456.70 0.7157739
456.80 0.7164245
456.90 0.7170744
457.00 0.7177237
457.10 0.7183724
457.20 0.7190372
457.30 0.7196905
457.40 0.7203432
457.50 0.7209952
457.60 0.7216466
457.70 0.7222974
457.80 0.7229475
457.90 0.723597
458.00 0.7242458
458.10 0.724894
458.20 0.7255416
458.30 0.7261885
458.40 0.7268348
458.50 0.7274805
458.60 0.7281255
458.70 0.7287898
458.80 0.7294616
458.90 0.7301327
459.00 0.7308031
459.10 0.7314729
459.20 0.7321421
459.30 0.7327978
459.40 0.733453
459.50 0.7341075
459.60 0.7347613
459.70 0.7354145
459.80 0.7360671
459.90 0.736719
460.00 0.7373703
460.10 0.738021
460.20 0.738671
460.30 0.7393204
460.40 0.7399691
460.50 0.7406173
460.60 0.7412647
460.70 0.7419163
460.80 0.7425695
460.90 0.7432221
461.00 0.743874
461.10 0.7445253
461.20 0.7451933
461.30 0.7458677
461.40 0.746519
461.50 0.7471639
461.60 0.7478083
461.70 0.748452
461.80 0.7491124
461.90 0.7497721
462.00 0.7504311
462.10 0.7510895
462.20 0.7517473
462.30 0.7524044
462.40 0.7530609
462.50 0.7537168
462.60 0.754372
462.70 0.7550266
462.80 0.7556806
462.90 0.7563339
463.00 0.7569865
463.10 0.7576386
463.20 0.7582942
463.30 0.7589509
463.40 0.759607
463.50 0.7602624
463.60 0.7609172
463.70 0.7615714
463.80 0.7622249
463.90 0.7628875
464.00 0.7635518
464.10 0.7642155
464.20 0.7648785
464.30 0.7655409
464.40 0.7662027
464.50 0.7668638
464.60 0.7675243
464.70 0.7681793
464.80 0.7688316
464.90 0.7694833
465.00 0.7701344
465.10 0.7707848
465.20 0.7714346
465.30 0.7721023
465.40 0.7727817
465.50 0.7734605
465.60 0.7741386
465.70 0.774816
465.80 0.7754928
465.90 0.7761411
466.00 0.7767818
466.10 0.7774219
466.20 0.7780614
466.30 0.7787158
466.40 0.7793759
466.50 0.7800354
466.60 0.7806942
466.70 0.7813524
466.80 0.78201
466.90 0.7826669
467.00 0.7833232
467.10 0.7839788
467.20 0.7846338
467.30 0.7853578
467.40 0.7860365
467.50 0.7866964
467.60 0.7873557
467.70 0.7880143
467.80 0.7886722
467.90 0.7893248
468.00 0.7899747
468.10 0.790624
468.20 0.7912727
468.30 0.7919207
468.40 0.7925681
468.50 0.7932667
468.60 0.7938865
468.70 0.794586
468.80 0.7951941
468.90 0.795892
469.00 0.7965533
469.10 0.7972055
469.20 0.7978478
469.30 0.7984896
469.40 0.7991308
469.50 0.7997893
469.60 0.8004547
469.70 0.8011193
469.80 0.8017834
469.90 0.8024713
470.00 0.8031105
470.10 0.8037542
470.20 0.8044332
470.30 0.8051115
470.40 0.8057892
470.50 0.8064662
470.60 0.8071328
470.70 0.8077963
470.80 0.8084592
470.90 0.8091214
471.00 0.8097837
471.10 0.8103967
471.20 0.8110921
471.30 0.811691
471.40 0.8123501
471.50 0.8130389
471.60 0.8137028
471.70 0.8143903
471.80 0.8150529
471.90 0.8157089
472.00 0.8163641
472.10 0.8170188
472.20 0.8176729
472.30 0.8183265
472.40 0.8189794
472.50 0.8196318
472.60 0.8202835
472.70 0.8209809
472.80 0.821649
472.90 0.8223047
473.00 0.8229597
473.10 0.8236141
473.20 0.8242679
473.30 0.8249211
473.40 0.8255736
473.50 0.8262255
473.60 0.8268768
473.70 0.8275274
473.80 0.8282022
473.90 0.8288826
474.00 0.8295624
474.10 0.8302414
474.20 0.83091
474.30 0.8315739
474.40 0.8322371
474.50 0.8328997
474.60 0.8335609
474.70 0.8342134
474.80 0.8348652
474.90 0.8355164
475.00 0.836167
475.10 0.836817
475.20 0.8374664
475.30 0.8381151
475.40 0.8387787
475.50 0.8394455
475.60 0.8401116
475.70 0.8407772
475.80 0.8414421
475.90 0.8421063
476.00 0.8427699
476.10 0.8434329
476.20 0.8440961
476.30 0.8447589
476.40 0.8454211
476.50 0.8460827
476.60 0.8467437
476.70 0.847404
476.80 0.8480637
476.90 0.8487256
477.00 0.8493876
477.10 0.8500489
477.20 0.8507097
477.30 0.8513698
477.40 0.8520292
477.50 0.8526881
477.60 0.8533463
477.70 0.8540039
477.80 0.8546609
477.90 0.8553172
478.00 0.8559729
478.10 0.856628
478.20 0.8572825
478.30 0.8579364
478.40 0.8585896
478.50 0.8592422
478.60 0.8598942
478.70 0.8605734
478.80 0.8612633
478.90 0.861934
479.00 0.8625995
479.10 0.8632643
479.20 0.8639286
479.30 0.8645921
479.40 0.8652532
479.50 0.8659125
479.60 0.8665712
479.70 0.8672293
479.80 0.8678867
479.90 0.8685435
480.00 0.8691997
480.10 0.8698553
480.20 0.8705102
480.30 0.8711645
480.40 0.8718182
480.50 0.8724713
480.60 0.8731238
480.70 0.8737757
480.80 0.8744269
480.90 0.8750775
481.00 0.8757275
481.10 0.8763769
481.20 0.8770486
481.30 0.8777196
481.40 0.87839
481.50 0.8790598
481.60 0.8797289
481.70 0.8803974
481.80 0.8810653
481.90 0.8817326
482.00 0.8823992
482.10 0.8830652
482.20 0.8837301
482.30 0.8843876
482.40 0.8850446
482.50 0.8857009
482.60 0.8863567
482.70 0.8870118
482.80 0.8876662
482.90 0.8883201
483.00 0.8889734
483.10 0.889626
483.20 0.890278
483.30 0.8909294
483.40 0.8915802
483.50 0.8922303
483.60 0.8928799
483.70 0.8935352
483.80 0.8941898
483.90 0.8948439
484.00 0.8954973
484.10 0.8961501
484.20 0.8968177
484.30 0.8974912
484.40 0.8981642
484.50 0.8988364
484.60 0.8995081
484.70 0.9001781
484.80 0.9008337
484.90 0.9014888
485.00 0.9021432
485.10 0.902797
485.20 0.9034502
485.30 0.9041028
485.40 0.9047548
485.50 0.9054061
485.60 0.9060568
485.70 0.9067215
485.80 0.9073856
485.90 0.908049
486.00 0.9087119
486.10 0.9093741
486.20 0.9100356
486.30 0.9106966
486.40 0.9113569
486.50 0.9120166
486.60 0.9126757
486.70 0.9133345
486.80 0.9139961
486.90 0.9146571
487.00 0.9153176
487.10 0.9159773
487.20 0.9166327
487.30 0.9172875
487.40 0.9179417
487.50 0.9185952
487.60 0.9192481
487.70 0.9199004
487.80 0.9205521
487.90 0.9212032
488.00 0.9218537
488.10 0.9225036
488.20 0.923153
488.30 0.9238033
488.40 0.9244531
488.50 0.9251023
488.60 0.9257509
488.70 0.9263988
488.80 0.9270595
488.90 0.9277196
489.00 0.9283795
489.10 0.9290397
489.20 0.9296993
489.30 0.9303583
489.40 0.9310167
489.50 0.9316745
489.60 0.9323316
489.70 0.9329882
489.80 0.9335816
489.90 0.9342445
490.00 0.9349068
490.10 0.9355684
490.20 0.9362294
490.30 0.9368898
490.40 0.9375473
490.50 0.9382042
490.60 0.9388605
490.70 0.9395162
490.80 0.9402093
490.90 0.9407696
491.00 0.9415076
491.10 0.9421328
491.20 0.9427574
491.30 0.9434934
491.40 0.9440781
491.50 0.9447396
491.60 0.9453603
491.70 0.9460192
491.80 0.9466776
491.90 0.9473367
492.00 0.9480347
492.10 0.9486539
492.20 0.9493186
492.30 0.9500021
492.40 0.9506145
492.50 0.9512699
492.60 0.9519583
492.70 0.9526018
492.80 0.9532446
492.90 0.9538869
493.00 0.9545303
493.10 0.9551956
493.20 0.9558603
493.30 0.9565243
493.40 0.9571877
493.50 0.9578505
493.60 0.9584223
493.70 0.9590685
493.80 0.9597141
493.90 0.9603735
494.00 0.9610548
494.10 0.9617238
494.20 0.9623675
494.30 0.9630106
494.40 0.9636531
494.50 0.964295
494.60 0.9649368
494.70 0.965584
494.80 0.966234
494.90 0.9668929
495.00 0.9675512
495.10 0.9682089
495.20 0.9688654
495.30 0.9695213
495.40 0.9701766
495.50 0.9708313
495.60 0.9714854
495.70 0.9721389
495.80 0.9727917
495.90 0.973444
496.00 0.9740957
496.10 0.9747501
496.20 0.9754091
496.30 0.9760405
496.40 0.9766714
496.50 0.9773017
496.60 0.9779314
496.70 0.9785779
496.80 0.9792239
496.90 0.9798692
497.00 0.9805139
497.10 0.9811581
497.20 0.9818016
497.30 0.982455
497.40 0.9831376
497.50 0.9838195
497.60 0.9844637
497.70 0.9850344
497.80 0.9856849
497.90 0.9863347
498.00 0.986984
498.10 0.9876327
498.20 0.9882808
498.30 0.9889283
498.40 0.9895751
498.50 0.9902214
498.60 0.9908671
498.70 0.9915565
498.80 0.9922453
498.90 0.9928803
499.00 0.9935148
499.10 0.9941486
499.20 0.9947792
499.30 0.9954135
499.40 0.9960753
499.50 0.9967365
499.60 0.9973972
499.70 0.9980564
499.80 0.9987049
499.90 0.9993527
500.00 1
500.10 1.000647
500.20 1.001292
500.30 1.001936
500.40 1.002579
500.50 1.003221
500.60 1.003863
500.70 1.004504
500.80 1.005144
500.90 1.005781
501.00 1.006417
501.10 1.007053
501.20 1.007641
501.30 1.008315
501.40 1.008988
501.50 1.009628
501.60 1.010224
501.70 1.010895
501.80 1.011549
501.90 1.012165
502.00 1.01279
502.10 1.013435
502.20 1.014079
502.30 1.014716
502.40 1.015356
502.50 1.016004
502.60 1.016652
502.70 1.0173
502.80 1.017946
502.90 1.018592
503.00 1.019238
503.10 1.019885
503.20 1.020532
503.30 1.021177
503.40 1.021824
503.50 1.022474
503.60 1.023123
503.70 1.023772
503.80 1.024414
503.90 1.025013
504.00 1.025625
504.10 1.026266
504.20 1.026907
504.30 1.027547
504.40 1.02819
504.50 1.028844
504.60 1.029498
504.70 1.030151
504.80 1.030804
504.90 1.03135
505.00 1.032001
505.10 1.032652
505.20 1.033299
505.30 1.033938
505.40 1.034576
505.50 1.035214
505.60 1.035851
505.70 1.036488
505.80 1.037124
505.90 1.03776
506.00 1.038395
506.10 1.039029
506.20 1.039665
506.30 1.040304
506.40 1.040942
506.50 1.04158
506.60 1.042217
506.70 1.042854
506.80 1.04349
506.90 1.044125
507.00 1.04476
507.10 1.045409
507.20 1.04607
507.30 1.046681
507.40 1.047292
507.50 1.047903
507.60 1.048513
507.70 1.049122
507.80 1.049731
507.90 1.050339
508.00 1.050947
508.10 1.051554
508.20 1.052161
508.30 1.052767
508.40 1.053372
508.50 1.053977
508.60 1.054581
508.70 1.055185
508.80 1.056045
508.90 1.056791
509.00 1.057237
509.10 1.05774
509.20 1.058362
509.30 1.058983
509.40 1.059604
509.50 1.060224
509.60 1.060844
509.70 1.061463
509.80 1.062081
509.90 1.062699
510.00 1.063316
510.10 1.063933
510.20 1.064549
510.30 1.065188
510.40 1.065893
510.50 1.066598
510.60 1.067301
510.70 1.068005
510.80 1.068707
510.90 1.069409
511.00 1.070111
511.10 1.070811
511.20 1.071511
511.30 1.072211
511.40 1.07291
511.50 1.073608
511.60 1.074275
511.70 1.074879
511.80 1.075482
511.90 1.076085
512.00 1.076687
512.10 1.077288
512.20 1.077889
512.30 1.078485
512.40 1.079068
512.50 1.079651
512.60 1.080234
512.70 1.080815
512.80 1.081397
512.90 1.081977
513.00 1.082558
513.10 1.083137
513.20 1.083716
513.30 1.084295
513.40 1.084873
513.50 1.08545
513.60 1.086027
513.70 1.086604
513.80 1.08718
513.90 1.087755
514.00 1.088396
514.10 1.089047
514.20 1.089697
514.30 1.090347
514.40 1.090996
514.50 1.091645
514.60 1.092293
514.70 1.09294
514.80 1.093587
514.90 1.094234
515.00 1.094879
515.10 1.095524
515.20 1.096169
515.30 1.096813
515.40 1.097456
515.50 1.098099
515.60 1.098741
515.70 1.099383
515.80 1.100024
515.90 1.100664
516.00 1.101304
516.10 1.101944
516.20 1.102582
516.30 1.10322
516.40 1.103858
516.50 1.104495
516.60 1.105132
516.70 1.105768
516.80 1.106404
516.90 1.107039
517.00 1.107673
517.10 1.108307
517.20 1.108941
517.30 1.109574
517.40 1.110206
517.50 1.110838
517.60 1.111469
517.70 1.112099
517.80 1.112729
517.90 1.113358
518.00 1.113987
518.10 1.114616
518.20 1.115243
518.30 1.11587
518.40 1.116497
518.50 1.117123
518.60 1.117748
518.70 1.118373
518.80 1.118997
518.90 1.119621
519.00 1.120244
519.10 1.120862
519.20 1.121473
519.30 1.122084
519.40 1.122694
519.50 1.123304
519.60 1.123913
519.70 1.124521
519.80 1.125129
519.90 1.125737
520.00 1.126343
520.10 1.12695
520.20 1.127556
520.30 1.128161
520.40 1.128765
520.50 1.12937
520.60 1.129973
520.70 1.130576
520.80 1.131179
520.90 1.131781
521.00 1.132382
521.10 1.132983
521.20 1.133583
521.30 1.134183
521.40 1.134782
521.50 1.135381
521.60 1.135979
521.70 1.136576
521.80 1.137173
521.90 1.13777
522.00 1.138366
522.10 1.138961
522.20 1.139556
522.30 1.14015
522.40 1.140744
522.50 1.141338
522.60 1.14193
522.70 1.142522
522.80 1.143114
522.90 1.143705
523.00 1.144296
523.10 1.144886
523.20 1.145475
523.30 1.146064
523.40 1.146653
523.50 1.147241
523.60 1.147828
523.70 1.148415
523.80 1.149001
523.90 1.149587
524.00 1.150172
524.10 1.150757
524.20 1.151341
524.30 1.15194
524.40 1.152551
524.50 1.153161
524.60 1.153771
524.70 1.15438
524.80 1.154988
524.90 1.155596
525.00 1.156203
525.10 1.15681
525.20 1.157417
525.30 1.158022
525.40 1.158627
525.50 1.159232
525.60 1.159836
525.70 1.16044
525.80 1.161043
525.90 1.161645
526.00 1.162247
526.10 1.162849
526.20 1.16345
526.30 1.16405
526.40 1.16465
526.50 1.165249
526.60 1.165848
526.70 1.166446
526.80 1.167043
526.90 1.16764
527.00 1.168237
527.10 1.168833
527.20 1.169428
527.30 1.170023
527.40 1.170618
527.50 1.171212
527.60 1.171805
527.70 1.172398
527.80 1.17299
527.90 1.173582
528.00 1.174173
528.10 1.174764
528.20 1.175354
528.30 1.175943
528.40 1.176533
528.50 1.177121
528.60 1.177709
528.70 1.178297
528.80 1.178884
528.90 1.17947
529.00 1.180056
529.10 1.180641
529.20 1.181226
529.30 1.18181
529.40 1.182394
529.50 1.182981
529.60 1.18359
529.70 1.184198
529.80 1.184805
529.90 1.185412
530.00 1.186019
530.10 1.186625
530.20 1.18723
530.30 1.187835
530.40 1.188439
530.50 1.189043
530.60 1.189646
530.70 1.190249
530.80 1.190851
530.90 1.191453
531.00 1.192054
531.10 1.192654
531.20 1.193254
531.30 1.193854
531.40 1.194453
531.50 1.195051
531.60 1.195649
531.70 1.196246
531.80 1.196843
531.90 1.197439
532.00 1.198035
532.10 1.19863
532.20 1.199225
532.30 1.19982
532.40 1.200414
532.50 1.201007
532.60 1.2016
532.70 1.202193
532.80 1.202784
532.90 1.203376
533.00 1.203967
533.10 1.204557
533.20 1.205147
533.30 1.205736
533.40 1.206325
533.50 1.206913
533.60 1.2075
533.70 1.208088
533.80 1.208674
533.90 1.20926
534.00 1.209846
534.10 1.210431
534.20 1.211015
534.30 1.211599
534.40 1.212183
534.50 1.212766
534.60 1.213348
534.70 1.21393
534.80 1.214513
534.90 1.215101
535.00 1.215688
535.10 1.216275
535.20 1.216862
535.30 1.217448
535.40 1.218033
535.50 1.218618
535.60 1.219203
535.70 1.219787
535.80 1.22037
535.90 1.220953
536.00 1.221535
536.10 1.222117
536.20 1.222698
536.30 1.223279
536.40 1.223859
536.50 1.224439
536.60 1.225018
536.70 1.225597
536.80 1.226175
536.90 1.226753
537.00 1.22733
537.10 1.227907
537.20 1.228483
537.30 1.229058
537.40 1.229633
537.50 1.230208
537.60 1.230782
537.70 1.231356
537.80 1.231929
537.90 1.232501
538.00 1.233073
538.10 1.233645
538.20 1.234216
538.30 1.234786
538.40 1.235356
538.50 1.235926
538.60 1.236495
538.70 1.237063
538.80 1.237631
538.90 1.238199
539.00 1.238766
539.10 1.239332
539.20 1.239898
539.30 1.240463
539.40 1.241028
539.50 1.241593
539.60 1.242157
539.70 1.24272
539.80 1.243283
539.90 1.243845
540.00 1.244407
540.10 1.244969
540.20 1.245535
540.30 1.246102
540.40 1.246669
540.50 1.247236
540.60 1.247802
540.70 1.248367
540.80 1.248932
540.90 1.249497
541.00 1.250061
541.10 1.250624
541.20 1.251187
541.30 1.25175
541.40 1.252312
541.50 1.252873
541.60 1.253434
541.70 1.253995
541.80 1.254555
541.90 1.255114
542.00 1.255673
542.10 1.256232
542.20 1.25679
542.30 1.257347
542.40 1.257904
542.50 1.258461
542.60 1.259017
542.70 1.259572
542.80 1.260127
542.90 1.260682
543.00 1.261236
543.10 1.261789
543.20 1.262342
543.30 1.262895
543.40 1.263447
543.50 1.263999
543.60 1.26455
543.70 1.2651
543.80 1.26565
543.90 1.2662
544.00 1.266749
544.10 1.267298
544.20 1.267846
544.30 1.268393
544.40 1.268941
544.50 1.269487
544.60 1.270033
544.70 1.270579
544.80 1.271124
544.90 1.271669
545.00 1.272213
545.10 1.272757
545.20 1.2733
545.30 1.273843
545.40 1.274385
545.50 1.274927
545.60 1.275485
545.70 1.276049
545.80 1.276612
545.90 1.277175
546.00 1.277738
546.10 1.2783
546.20 1.278861
546.30 1.279422
546.40 1.279983
546.50 1.280543
546.60 1.281102
546.70 1.281661
546.80 1.28222
546.90 1.282778
547.00 1.283335
547.10 1.283892
547.20 1.284449
547.30 1.285005
547.40 1.28556
547.50 1.286115
547.60 1.28667
547.70 1.287224
547.80 1.287777
547.90 1.28833
548.00 1.288883
548.10 1.289435
548.20 1.289987
548.30 1.290538
548.40 1.291089
548.50 1.29164
548.60 1.29219
548.70 1.292739
548.80 1.293288
548.90 1.293837
549.00 1.294385
549.10 1.294933
549.20 1.29548
549.30 1.296026
549.40 1.296572
549.50 1.297118
549.60 1.297663
549.70 1.298208
549.80 1.298752
549.90 1.299296
550.00 1.299839
550.10 1.300382
550.20 1.300924
550.30 1.301466
550.40 1.302008
550.50 1.302548
550.60 1.303089
550.70 1.303629
550.80 1.304168
550.90 1.304707
551.00 1.305244
551.10 1.305772
551.20 1.306299
551.30 1.306826
551.40 1.307352
551.50 1.307878
551.60 1.308403
551.70 1.308928
551.80 1.309453
551.90 1.309977
552.00 1.3105
552.10 1.311023
552.20 1.311546
552.30 1.312068
552.40 1.312589
552.50 1.313111
552.60 1.313631
552.70 1.314152
552.80 1.314671
552.90 1.315191
553.00 1.31571
553.10 1.316228
553.20 1.316746
553.30 1.317264
553.40 1.317781
553.50 1.318297
553.60 1.318813
553.70 1.319329
553.80 1.319863
553.90 1.32041
554.00 1.320956
554.10 1.321502
554.20 1.322047
554.30 1.322592
554.40 1.323136
554.50 1.32368
554.60 1.324224
554.70 1.324766
554.80 1.325309
554.90 1.325851
555.00 1.326392
555.10 1.326933
555.20 1.327474
555.30 1.328014
555.40 1.328553
555.50 1.329092
555.60 1.329631
555.70 1.330169
555.80 1.330707
555.90 1.331244
556.00 1.331781
556.10 1.332317
556.20 1.332853
556.30 1.333388
556.40 1.333923
556.50 1.334456
556.60 1.33498
556.70 1.335504
556.80 1.336027
556.90 1.336549
557.00 1.337071
557.10 1.337593
557.20 1.338114
557.30 1.338634
557.40 1.339155
557.50 1.339674
557.60 1.340194
557.70 1.340712
557.80 1.341231
557.90 1.341749
558.00 1.342266
558.10 1.342783
558.20 1.343299
558.30 1.343816
558.40 1.344331
558.50 1.344846
558.60 1.345361
558.70 1.345875
558.80 1.346389
558.90 1.346902
559.00 1.347415
559.10 1.347928
559.20 1.348439
559.30 1.348951
559.40 1.349462
559.50 1.349973
559.60 1.350483
559.70 1.350993
559.80 1.351502
559.90 1.352011
560.00 1.352519
560.10 1.353027
560.20 1.353534
560.30 1.354041
560.40 1.354548
560.50 1.355054
560.60 1.35556
560.70 1.356065
560.80 1.35657
560.90 1.357074
561.00 1.357578
561.10 1.358081
561.20 1.358584
561.30 1.359087
561.40 1.359589
561.50 1.360091
561.60 1.360592
561.70 1.361093
561.80 1.361593
561.90 1.362093
562.00 1.362592
562.10 1.363099
562.20 1.363618
562.30 1.364137
562.40 1.364655
562.50 1.365173
562.60 1.36569
562.70 1.366207
562.80 1.366723
562.90 1.367239
563.00 1.367754
563.10 1.368269
563.20 1.368784
563.30 1.369298
563.40 1.369811
563.50 1.370324
563.60 1.370837
563.70 1.371349
563.80 1.371861
563.90 1.372372
564.00 1.372883
564.10 1.373394
564.20 1.373903
564.30 1.374413
564.40 1.374922
564.50 1.375431
564.60 1.375939
564.70 1.376447
564.80 1.376954
564.90 1.377452
565.00 1.377929
565.10 1.378405
565.20 1.378881
565.30 1.379356
565.40 1.379831
565.50 1.380306
565.60 1.38078
565.70 1.381253
565.80 1.381727
565.90 1.382199
566.00 1.382672
566.10 1.383144
566.20 1.383615
566.30 1.384087
566.40 1.384557
566.50 1.385028
566.60 1.385497
566.70 1.385967
566.80 1.386436
566.90 1.386905
567.00 1.387373
567.10 1.387841
567.20 1.388308
567.30 1.388775
567.40 1.389242
567.50 1.389708
567.60 1.390173
567.70 1.390645
567.80 1.391145
567.90 1.391644
568.00 1.392143
568.10 1.392641
568.20 1.393139
568.30 1.393637
568.40 1.394134
568.50 1.39463
568.60 1.395126
568.70 1.395622
568.80 1.396117
568.90 1.396612
569.00 1.397106
569.10 1.3976
569.20 1.398094
569.30 1.398587
569.40 1.39908
569.50 1.399572
569.60 1.400064
569.70 1.400555
569.80 1.401046
569.90 1.401536
570.00 1.402026
570.10 1.402516
570.20 1.403005
570.30 1.403494
570.40 1.403982
570.50 1.40447
570.60 1.404958
570.70 1.405445
570.80 1.405931
570.90 1.406418
571.00 1.406903
571.10 1.407389
571.20 1.407874
571.30 1.408358
571.40 1.408842
571.50 1.409326
571.60 1.409809
571.70 1.410292
571.80 1.410774
571.90 1.411256
572.00 1.411738
572.10 1.412219
572.20 1.4127
572.30 1.41318
572.40 1.41366
572.50 1.414139
572.60 1.414618
572.70 1.415097
572.80 1.415575
572.90 1.416053
573.00 1.41653
573.10 1.417007
573.20 1.417483
573.30 1.417959
573.40 1.41843
573.50 1.418893
573.60 1.419356
573.70 1.419818
573.80 1.42028
573.90 1.420742
574.00 1.421203
574.10 1.421664
574.20 1.422124
574.30 1.422584
574.40 1.423043
574.50 1.423503
574.60 1.423961
574.70 1.42442
574.80 1.424877
574.90 1.425335
575.00 1.425792
575.10 1.426249
575.20 1.426705
575.30 1.427161
575.40 1.427616
575.50 1.428071
575.60 1.428526
575.70 1.42898
575.80 1.429434
575.90 1.429888
576.00 1.430341
576.10 1.430793
576.20 1.431246
576.30 1.431698
576.40 1.432149
576.50 1.4326
576.60 1.433051
576.70 1.433501
576.80 1.433951
576.90 1.4344
577.00 1.434849
577.10 1.435298
577.20 1.435746
577.30 1.436194
577.40 1.436642
577.50 1.437089
577.60 1.437539
577.70 1.437995
577.80 1.43845
577.90 1.438905
578.00 1.43936
578.10 1.439814
578.20 1.440268
578.30 1.440721
578.40 1.441174
578.50 1.441627
578.60 1.442079
578.70 1.44253
578.80 1.442982
578.90 1.443433
579.00 1.443883
579.10 1.44433
579.20 1.444744
579.30 1.445158
579.40 1.445571
579.50 1.445984
579.60 1.446397
579.70 1.446809
579.80 1.447221
579.90 1.447632
580.00 1.448043
580.10 1.448474
580.20 1.448938
580.30 1.449402
580.40 1.449866
580.50 1.450329
580.60 1.450791
580.70 1.451253
580.80 1.451715
580.90 1.452176
581.00 1.452637
581.10 1.453098
581.20 1.453558
581.30 1.454018
581.40 1.454477
581.50 1.454936
581.60 1.455395
581.70 1.455853
581.80 1.456311
581.90 1.456768
582.00 1.457225
582.10 1.457682
582.20 1.458138
582.30 1.458593
582.40 1.459049
582.50 1.459504
582.60 1.459958
582.70 1.460412
582.80 1.460866
582.90 1.46132
583.00 1.461773
583.10 1.462225
583.20 1.462677
583.30 1.463129
583.40 1.46358
583.50 1.464031
583.60 1.464463
583.70 1.464863
583.80 1.465262
583.90 1.465661
584.00 1.46606
584.10 1.466458
584.20 1.466856
584.30 1.467253
584.40 1.467651
584.50 1.468047
584.60 1.468444
584.70 1.46884
584.80 1.469236
584.90 1.469673
585.00 1.470299
585.10 1.470924
585.20 1.47148
585.30 1.471924
585.40 1.472368
585.50 1.472811
585.60 1.473254
585.70 1.473696
585.80 1.474138
585.90 1.47458
586.00 1.475021
586.10 1.475462
586.20 1.475893
586.30 1.476306
586.40 1.47672
586.50 1.477133
586.60 1.477546
586.70 1.477958
586.80 1.478321
586.90 1.478602
587.00 1.478882
587.10 1.479163
587.20 1.479592
587.30 1.480263
587.40 1.480488
587.50 1.481119
587.60 1.481809
587.70 1.482107
587.80 1.482682
587.90 1.48296
588.00 1.483311
588.10 1.483784
588.20 1.484256
588.30 1.484727
588.40 1.485174
588.50 1.48558
588.60 1.485985
588.70 1.48639
588.80 1.486795
588.90 1.487199
589.00 1.487613
589.10 1.488043
589.20 1.488472
589.30 1.488901
589.40 1.489329
589.50 1.489757
589.60 1.490185
589.70 1.490612
589.80 1.491039
589.90 1.491466
590.00 1.491883
590.10 1.492286
590.20 1.492688
590.30 1.49309
590.40 1.493492
590.50 1.493894
590.60 1.494295
590.70 1.494695
590.80 1.495113
590.90 1.495539
591.00 1.495964
591.10 1.496389
591.20 1.496813
591.30 1.497237
591.40 1.497661
591.50 1.498084
591.60 1.498486
591.70 1.498855
591.80 1.499223
591.90 1.49959
592.00 1.499958
592.10 1.500325
592.20 1.500692
592.30 1.501058
592.40 1.501424
592.50 1.50179
592.60 1.502156
592.70 1.502521
592.80 1.502886
592.90 1.50325
593.00 1.503614
593.10 1.503997
593.20 1.504412
593.30 1.504826
593.40 1.50524
593.50 1.505654
593.60 1.506067
593.70 1.50648
593.80 1.506892
593.90 1.507305
594.00 1.507716
594.10 1.508128
594.20 1.508539
594.30 1.508949
594.40 1.50936
594.50 1.50977
594.60 1.510179
594.70 1.510588
594.80 1.510997
594.90 1.511406
595.00 1.511814
595.10 1.512223
595.20 1.512635
595.30 1.513046
595.40 1.513457
595.50 1.513868
595.60 1.514278
595.70 1.514688
595.80 1.515097
595.90 1.515507
596.00 1.515915
596.10 1.516324
596.20 1.516732
596.30 1.51714
596.40 1.517547
596.50 1.517954
596.60 1.518361
596.70 1.51876
596.80 1.519154
596.90 1.519548
597.00 1.519942
597.10 1.520336
597.20 1.520729
597.30 1.521121
597.40 1.521514
597.50 1.521906
597.60 1.522286
597.70 1.522647
597.80 1.523008
597.90 1.523369
598.00 1.523729
598.10 1.524089
598.20 1.524449
598.30 1.524808
598.40 1.525167
598.50 1.525526
598.60 1.525884
598.70 1.526242
598.80 1.5266
598.90 1.526957
599.00 1.527314
599.10 1.527671
599.20 1.528027
599.30 1.528383
599.40 1.528776
599.50 1.529169
599.60 1.529561
599.70 1.529952
599.80 1.530344
599.90 1.530735
600.00 1.531126
600.10 1.531516
600.20 1.531906
600.30 1.532296
600.40 1.532685
600.50 1.533074
600.60 1.533463
600.70 1.533851
600.80 1.534239
600.90 1.534627
601.00 1.535014
601.10 1.535401
601.20 1.535788
601.30 1.536174
601.40 1.536579
601.50 1.536984
601.60 1.537389
601.70 1.537793
601.80 1.538197
601.90 1.538601
602.00 1.539004
602.10 1.539407
602.20 1.539809
602.30 1.540212
602.40 1.540614
602.50 1.541015
602.60 1.541416
602.70 1.541675
602.80 1.541927
602.90 1.542298
603.00 1.542669
603.10 1.54304
603.20 1.543411
603.30 1.543781
603.40 1.544151
603.50 1.54452
603.60 1.54489
603.70 1.545259
603.80 1.545627
603.90 1.545995
604.00 1.546363
604.10 1.546731
604.20 1.547098
604.30 1.547465
604.40 1.547832
604.50 1.548207
604.60 1.548582
604.70 1.548957
604.80 1.549332
604.90 1.549706
605.00 1.55008
605.10 1.550453
605.20 1.550826
605.30 1.551199
605.40 1.551572
605.50 1.551919
605.60 1.552267
605.70 1.552614
605.80 1.55296
605.90 1.553307
606.00 1.553653
606.10 1.55406
606.20 1.554466
606.30 1.554873
606.40 1.555279
606.50 1.555501
606.60 1.555722
606.70 1.555944
606.80 1.556532
606.90 1.556753
607.00 1.55734
607.10 1.557561
607.20 1.557781
607.30 1.558184
607.40 1.558587
607.50 1.558989
607.60 1.559391
607.70 1.559732
607.80 1.560072
607.90 1.560412
608.00 1.560752
608.10 1.561091
608.20 1.56143
608.30 1.561764
608.40 1.562098
608.50 1.562432
608.60 1.562765
608.70 1.563133
608.80 1.563516
608.90 1.5639
609.00 1.564283
609.10 1.564665
609.20 1.565048
609.30 1.565398
609.40 1.565749
609.50 1.566099
609.60 1.566449
609.70 1.566799
609.80 1.567148
609.90 1.567497
610.00 1.567846
610.10 1.568194
610.20 1.568542
610.30 1.56889
610.40 1.569237
610.50 1.569584
610.60 1.569931
610.70 1.570278
610.80 1.570624
610.90 1.570979
611.00 1.571333
611.10 1.571687
611.20 1.572041
611.30 1.572395
611.40 1.572748
611.50 1.573101
611.60 1.573454
611.70 1.573806
611.80 1.574159
611.90 1.57451
612.00 1.574862
612.10 1.575213
612.20 1.575564
612.30 1.575914
612.40 1.576228
612.50 1.576542
612.60 1.576856
612.70 1.577169
612.80 1.577482
612.90 1.577795
613.00 1.578107
613.10 1.578419
613.20 1.578731
613.30 1.579043
613.40 1.579354
613.50 1.579665
613.60 1.579976
613.70 1.580286
613.80 1.580596
613.90 1.580906
614.00 1.581216
614.10 1.581525
614.20 1.581834
614.30 1.582143
614.40 1.582486
614.50 1.582829
614.60 1.583172
614.70 1.583515
614.80 1.583858
614.90 1.584201
615.00 1.584543
615.10 1.584885
615.20 1.585227
615.30 1.585569
615.40 1.58591
615.50 1.586251
615.60 1.586592
615.70 1.586932
615.80 1.587272
615.90 1.587612
616.00 1.587951
616.10 1.588291
616.20 1.588629
616.30 1.588968
616.40 1.589306
616.50 1.589644
616.60 1.589982
616.70 1.590319
616.80 1.590656
616.90 1.590979
617.00 1.591302
617.10 1.591625
617.20 1.591947
617.30 1.592269
617.40 1.592591
617.50 1.592912
617.60 1.593233
617.70 1.593554
617.80 1.593875
617.90 1.594195
618.00 1.594515
618.10 1.594834
618.20 1.595154
618.30 1.595473
618.40 1.595792
618.50 1.59611
618.60 1.596428
618.70 1.596746
618.80 1.597064
618.90 1.597381
619.00 1.597698
619.10 1.598015
619.20 1.598332
619.30 1.598648
619.40 1.598964
619.50 1.599279
619.60 1.599595
619.70 1.59991
619.80 1.600225
619.90 1.600539
620.00 1.600853
620.10 1.601167
620.20 1.601481
620.30 1.601794
620.40 1.602107
620.50 1.60242
620.60 1.602732
620.70 1.603045
620.80 1.603357
620.90 1.603667
621.00 1.603974
621.10 1.604282
621.20 1.604589
621.30 1.604895
621.40 1.605202
621.50 1.605508
621.60 1.605814
621.70 1.606119
621.80 1.606425
621.90 1.60673
622.00 1.607035
622.10 1.607339
622.20 1.607643
622.30 1.607947
622.40 1.608251
622.50 1.608554
622.60 1.608857
622.70 1.60916
622.80 1.609463
622.90 1.609765
623.00 1.610067
623.10 1.610369
623.20 1.61067
623.30 1.610971
623.40 1.611272
623.50 1.611573
623.60 1.611873
623.70 1.612173
623.80 1.612473
623.90 1.612772
624.00 1.613072
624.10 1.613371
624.20 1.613669
624.30 1.613968
624.40 1.614266
624.50 1.614564
624.60 1.614861
624.70 1.615159
624.80 1.615456
624.90 1.615752
625.00 1.616049
625.10 1.616345
625.20 1.616641
625.30 1.616937
625.40 1.617232
625.50 1.617527
625.60 1.617822
625.70 1.618117
625.80 1.618411
625.90 1.618705
626.00 1.618999
626.10 1.619292
626.20 1.619585
626.30 1.619878
626.40 1.620171
626.50 1.620464
626.60 1.620756
626.70 1.621048
626.80 1.621339
626.90 1.621631
627.00 1.621922
627.10 1.622213
627.20 1.622507
627.30 1.6228
627.40 1.623093
627.50 1.623386
627.60 1.623679
627.70 1.623971
627.80 1.624263
627.90 1.624555
628.00 1.624846
628.10 1.625138
628.20 1.625429
628.30 1.625719
628.40 1.62601
628.50 1.6263
628.60 1.62659
628.70 1.626879
628.80 1.627169
628.90 1.627458
629.00 1.627747
629.10 1.628035
629.20 1.628324
629.30 1.628612
629.40 1.628899
629.50 1.629187
629.60 1.629474
629.70 1.629761
629.80 1.630048
629.90 1.630334
630.00 1.63062
630.10 1.630906
630.20 1.631192
630.30 1.631457
630.40 1.63172
630.50 1.631983
630.60 1.632246
630.70 1.632508
630.80 1.632771
630.90 1.633032
631.00 1.633294
631.10 1.633556
631.20 1.633817
631.30 1.634078
631.40 1.634338
631.50 1.634599
631.60 1.634859
631.70 1.635119
631.80 1.635379
631.90 1.635638
632.00 1.635897
632.10 1.636156
632.20 1.636415
632.30 1.636674
632.40 1.636932
632.50 1.63719
632.60 1.637448
632.70 1.637705
632.80 1.637962
632.90 1.638219
633.00 1.638476
633.10 1.638733
633.20 1.638989
633.30 1.639245
633.40 1.639509
633.50 1.639778
633.60 1.640047
633.70 1.640316
633.80 1.640585
633.90 1.640854
634.00 1.641122
634.10 1.64139
634.20 1.641658
634.30 1.641925
634.40 1.642192
634.50 1.642459
634.60 1.642726
634.70 1.642993
634.80 1.643259
634.90 1.643525
635.00 1.643791
635.10 1.644056
635.20 1.644321
635.30 1.644586
635.40 1.644851
635.50 1.645116
635.60 1.64538
635.70 1.645644
635.80 1.645908
635.90 1.646171
636.00 1.646434
636.10 1.646697
636.20 1.64696
636.30 1.647223
636.40 1.647485
636.50 1.647747
636.60 1.648009
636.70 1.64827
636.80 1.648531
636.90 1.648792
637.00 1.649052
637.10 1.649313
637.20 1.649573
637.30 1.649832
637.40 1.650092
637.50 1.650351
637.60 1.65061
637.70 1.650869
637.80 1.651128
637.90 1.651386
638.00 1.651644
638.10 1.651902
638.20 1.65216
638.30 1.652417
638.40 1.652674
638.50 1.652931
638.60 1.653188
638.70 1.653444
638.80 1.653701
638.90 1.653956
639.00 1.654212
639.10 1.654468
639.20 1.654723
639.30 1.654978
639.40 1.655233
639.50 1.655487
639.60 1.655741
639.70 1.655994
639.80 1.65624
639.90 1.656485
640.00 1.656731
640.10 1.656976
640.20 1.657221
640.30 1.657466
640.40 1.657711
640.50 1.657955
640.60 1.6582
640.70 1.658444
640.80 1.658687
640.90 1.658931
641.00 1.659174
641.10 1.659417
641.20 1.65966
641.30 1.659902
641.40 1.660145
641.50 1.660387
641.60 1.660629
641.70 1.66087
641.80 1.661112
641.90 1.661353
642.00 1.661594
642.10 1.661835
642.20 1.662075
642.30 1.662315
642.40 1.662555
642.50 1.662795
642.60 1.663035
642.70 1.663274
642.80 1.663513
642.90 1.663747
643.00 1.663966
643.10 1.664184
643.20 1.664402
643.30 1.66462
643.40 1.664837
643.50 1.665054
643.60 1.665272
643.70 1.665489
643.80 1.665705
643.90 1.665922
644.00 1.666138
644.10 1.666354
644.20 1.66657
644.30 1.666786
644.40 1.667001
644.50 1.667216
644.60 1.667431
644.70 1.667646
644.80 1.667861
644.90 1.668075
645.00 1.668289
645.10 1.668503
645.20 1.668717
645.30 1.66893
645.40 1.669143
645.50 1.669357
645.60 1.669569
645.70 1.669782
645.80 1.669994
645.90 1.670207
646.00 1.670419
646.10 1.670634
646.20 1.670858
646.30 1.671082
646.40 1.671306
646.50 1.67153
646.60 1.671754
646.70 1.671977
646.80 1.6722
646.90 1.672423
647.00 1.672646
647.10 1.672868
647.20 1.67309
647.30 1.673312
647.40 1.673534
647.50 1.673756
647.60 1.673977
647.70 1.674198
647.80 1.674419
647.90 1.67464
648.00 1.674861
648.10 1.675081
648.20 1.675301
648.30 1.675521
648.40 1.67574
648.50 1.67596
648.60 1.676179
648.70 1.676398
648.80 1.676617
648.90 1.676835
649.00 1.677054
649.10 1.677272
649.20 1.67749
649.30 1.677707
649.40 1.677925
649.50 1.678142
649.60 1.678359
649.70 1.678575
649.80 1.678792
649.90 1.679008
650.00 1.679224
650.10 1.67944
650.20 1.679655
650.30 1.679871
650.40 1.680086
650.50 1.680301
650.60 1.680515
650.70 1.68073
650.80 1.680944
650.90 1.681158
651.00 1.681372
651.10 1.681586
651.20 1.681799
651.30 1.682013
651.40 1.682226
651.50 1.682438
651.60 1.682651
651.70 1.682863
651.80 1.683076
651.90 1.683288
652.00 1.683499
652.10 1.683711
652.20 1.683922
652.30 1.684133
652.40 1.684344
652.50 1.684555
652.60 1.684762
652.70 1.684968
652.80 1.685173
652.90 1.685378
653.00 1.685583
653.10 1.685788
653.20 1.685992
653.30 1.686196
653.40 1.6864
653.50 1.686604
653.60 1.686807
653.70 1.687011
653.80 1.687214
653.90 1.687417
654.00 1.68762
654.10 1.687822
654.20 1.688025
654.30 1.688227
654.40 1.688429
654.50 1.688631
654.60 1.688832
654.70 1.689033
654.80 1.689235
654.90 1.689436
655.00 1.689636
655.10 1.689837
655.20 1.690037
655.30 1.690237
655.40 1.690437
655.50 1.690637
655.60 1.690837
655.70 1.691036
655.80 1.691243
655.90 1.69145
656.00 1.691656
656.10 1.691863
656.20 1.692069
656.30 1.692275
656.40 1.692481
656.50 1.692687
656.60 1.692892
656.70 1.693097
656.80 1.693302
656.90 1.693507
657.00 1.693711
657.10 1.693916
657.20 1.69412
657.30 1.694324
657.40 1.694528
657.50 1.694731
657.60 1.694935
657.70 1.695138
657.80 1.695166
657.90 1.695329
658.00 1.695515
658.10 1.695702
658.20 1.695888
658.30 1.696074
658.40 1.69626
658.50 1.696446
658.60 1.696632
658.70 1.696817
658.80 1.697002
658.90 1.697187
659.00 1.697372
659.10 1.697455
659.20 1.697384
659.30 1.697594
659.40 1.697804
659.50 1.698014
659.60 1.698223
659.70 1.698432
659.80 1.698641
659.90 1.69885
660.00 1.699059
660.10 1.699267
660.20 1.699476
660.30 1.699684
660.40 1.69982
660.50 1.699944
660.60 1.700068
660.70 1.700192
660.80 1.700316
660.90 1.700544
661.00 1.700771
661.10 1.700999
661.20 1.701226
661.30 1.701454
661.40 1.70168
661.50 1.701907
661.60 1.702134
661.70 1.70236
661.80 1.702586
661.90 1.702671
662.00 1.702755
662.10 1.702839
662.20 1.702924
662.30 1.703008
662.40 1.703199
662.50 1.703455
662.60 1.70371
662.70 1.703965
662.80 1.70422
662.90 1.704321
663.00 1.704422
663.10 1.704523
663.20 1.70493
663.30 1.705031
663.40 1.704824
663.50 1.705231
663.60 1.705637
663.70 1.705694
663.80 1.705751
663.90 1.705886
664.00 1.706035
664.10 1.706236
664.20 1.706437
664.30 1.706638
664.40 1.706839
664.50 1.707039
664.60 1.70724
664.70 1.707401
664.80 1.707563
664.90 1.707725
665.00 1.707886
665.10 1.708047
665.20 1.708208
665.30 1.708369
665.40 1.70853
665.50 1.708678
665.60 1.708824
665.70 1.708663
665.80 1.708868
665.90 1.709073
666.00 1.709277
666.10 1.709482
666.20 1.709686
666.30 1.70989
666.40 1.710094
666.50 1.710292
666.60 1.710488
666.70 1.710685
666.80 1.710881
666.90 1.711077
667.00 1.711272
667.10 1.711424
667.20 1.711567
667.30 1.711619
667.40 1.71167
667.50 1.711758
667.60 1.711851
667.70 1.712112
667.80 1.712319
667.90 1.712298
668.00 1.712694
668.10 1.712923
668.20 1.713016
668.30 1.713108
668.40 1.713201
668.50 1.713293
668.60 1.713385
668.70 1.713568
668.80 1.71376
668.90 1.713951
669.00 1.714142
669.10 1.714333
669.20 1.714524
669.30 1.714681
669.40 1.714833
669.50 1.714984
669.60 1.715134
669.70 1.715285
669.80 1.715436
669.90 1.715586
670.00 1.715736
670.10 1.715886
670.20 1.716036
670.30 1.716151
670.40 1.716259
670.50 1.716367
670.60 1.716474
670.70 1.716582
670.80 1.716717
670.90 1.716851
671.00 1.716986
671.10 1.71712
671.20 1.717254
671.30 1.717388
671.40 1.717521
671.50 1.717655
671.60 1.717789
671.70 1.717922
671.80 1.718055
671.90 1.718261
672.00 1.718479
672.10 1.718698
672.20 1.718916
672.30 1.719134
672.40 1.719296
672.50 1.719454
672.60 1.719612
672.70 1.719769
672.80 1.719927
672.90 1.720084
673.00 1.720241
673.10 1.720398
673.20 1.720555
673.30 1.720562
673.40 1.720686
673.50 1.720831
673.60 1.720975
673.70 1.721119
673.80 1.721263
673.90 1.721407
674.00 1.721551
674.10 1.721694
674.20 1.721838
674.30 1.721981
674.40 1.722124
674.50 1.722267
674.60 1.72241
674.70 1.722552
674.80 1.722695
674.90 1.722837
675.00 1.722979
675.10 1.723121
675.20 1.723263
675.30 1.723404
675.40 1.723536
675.50 1.723665
675.60 1.723794
675.70 1.723924
675.80 1.724053
675.90 1.724181
676.00 1.72431
676.10 1.724439
676.20 1.724567
676.30 1.724695
676.40 1.724823
676.50 1.724951
676.60 1.725079
676.70 1.725207
676.80 1.725334
676.90 1.725462
677.00 1.725589
677.10 1.725716
677.20 1.725843
677.30 1.725969
677.40 1.726096
677.50 1.726222
677.60 1.726349
677.70 1.726475
677.80 1.726601
677.90 1.726722
678.00 1.726841
678.10 1.726961
678.20 1.72708
678.30 1.7272
678.40 1.727319
678.50 1.727438
678.60 1.727557
678.70 1.727676
678.80 1.727794
678.90 1.727913
679.00 1.728031
679.10 1.728151
679.20 1.728273
679.30 1.728393
679.40 1.728514
679.50 1.728635
679.60 1.728755
679.70 1.728876
679.80 1.728996
679.90 1.729116
680.00 1.729236
680.10 1.729355
680.20 1.729475
680.30 1.729594
680.40 1.729714
680.50 1.729833
680.60 1.729952
680.70 1.730071
680.80 1.73019
680.90 1.730308
681.00 1.730427
681.10 1.730545
681.20 1.730663
681.30 1.730781
681.40 1.730899
681.50 1.731017
681.60 1.731134
681.70 1.731252
681.80 1.731369
681.90 1.731486
682.00 1.731603
682.10 1.73172
682.20 1.731837
682.30 1.731953
682.40 1.73207
682.50 1.732186
682.60 1.732302
682.70 1.732418
682.80 1.732534
682.90 1.73265
683.00 1.732765
683.10 1.732881
683.20 1.732996
683.30 1.733111
683.40 1.733226
683.50 1.733341
683.60 1.733456
683.70 1.73357
683.80 1.733685
683.90 1.733799
684.00 1.733913
684.10 1.734027
684.20 1.734141
684.30 1.734255
684.40 1.734369
684.50 1.734482
684.60 1.734595
684.70 1.734709
684.80 1.734822
684.90 1.734934
685.00 1.735047
685.10 1.73516
685.20 1.735272
685.30 1.735385
685.40 1.735497
685.50 1.735609
685.60 1.735721
685.70 1.735833
685.80 1.735944
685.90 1.736044
686.00 1.736141
686.10 1.736238
686.20 1.736334
686.30 1.73643
686.40 1.736527
686.50 1.736623
686.60 1.736719
686.70 1.736815
686.80 1.736911
686.90 1.737006
687.00 1.737102
687.10 1.737197
687.20 1.737292
687.30 1.737387
687.40 1.737482
687.50 1.737577
687.60 1.737672
687.70 1.737766
687.80 1.737861
687.90 1.737955
688.00 1.738049
688.10 1.738143
688.20 1.738237
688.30 1.738331
688.40 1.738425
688.50 1.738519
688.60 1.738612
688.70 1.738705
688.80 1.738798
688.90 1.738891
689.00 1.738984
689.10 1.739077
689.20 1.73917
689.30 1.739262
689.40 1.739355
689.50 1.739447
689.60 1.739539
689.70 1.739631
689.80 1.739723
689.90 1.739815
690.00 1.739907
690.10 1.739998
690.20 1.74009
690.30 1.740181
690.40 1.740272
690.50 1.740363
690.60 1.740454
690.70 1.740545
690.80 1.740635
690.90 1.740726
691.00 1.740816
691.10 1.740907
691.20 1.740997
691.30 1.741087
691.40 1.741177
691.50 1.741266
691.60 1.741356
691.70 1.741446
691.80 1.741535
691.90 1.741624
692.00 1.741713
692.10 1.741802
692.20 1.741891
692.30 1.74198
692.40 1.742069
692.50 1.742157
692.60 1.742246
692.70 1.742333
692.80 1.742417
692.90 1.7425
693.00 1.742584
693.10 1.742667
693.20 1.74275
693.30 1.742833
693.40 1.742916
693.50 1.742999
693.60 1.743081
693.70 1.743164
693.80 1.743246
693.90 1.743329
694.00 1.743411
694.10 1.743493
694.20 1.743575
694.30 1.743657
694.40 1.743738
694.50 1.74382
694.60 1.743901
694.70 1.743983
694.80 1.744064
694.90 1.744145
695.00 1.744226
695.10 1.744307
695.20 1.744388
695.30 1.744468
695.40 1.744549
695.50 1.744629
695.60 1.74471
695.70 1.74479
695.80 1.74487
695.90 1.74495
696.00 1.74503
696.10 1.745109
696.20 1.745189
696.30 1.745268
696.40 1.745348
696.50 1.745427
696.60 1.745505
696.70 1.745583
696.80 1.745661
696.90 1.745739
697.00 1.745817
697.10 1.745894
697.20 1.745972
697.30 1.746049
697.40 1.746126
697.50 1.746203
697.60 1.74628
697.70 1.746357
697.80 1.746434
697.90 1.746511
698.00 1.746587
698.10 1.746664
698.20 1.74674
698.30 1.746816
698.40 1.746892
698.50 1.746968
698.60 1.747044
698.70 1.74712
698.80 1.747196
698.90 1.747271
699.00 1.747347
699.10 1.747415
699.20 1.747481
699.30 1.747547
699.40 1.747613
699.50 1.747679
699.60 1.747745
699.70 1.747793
699.80 1.74784
699.90 1.747887
700.00 1.747933
700.10 1.74798
700.20 1.748027
700.30 1.748073
700.40 1.748119
700.50 1.748166
700.60 1.748212
700.70 1.748258
700.80 1.748304
700.90 1.74835
701.00 1.748396
701.10 1.748446
701.20 1.748497
701.30 1.748548
701.40 1.748599
701.50 1.748649
701.60 1.7487
701.70 1.74875
701.80 1.748801
701.90 1.748851
702.00 1.748901
702.10 1.748952
702.20 1.749002
702.30 1.749052
702.40 1.749101
702.50 1.749151
702.60 1.749229
702.70 1.749312
702.80 1.749396
702.90 1.749479
703.00 1.749563
703.10 1.749646
703.20 1.749729
703.30 1.749812
703.40 1.749895
703.50 1.749978
703.60 1.750061
703.70 1.750143
703.80 1.750226
703.90 1.750308
704.00 1.75039
704.10 1.750472
704.20 1.750527
704.30 1.750574
704.40 1.750622
704.50 1.75067
704.60 1.750717
704.70 1.750765
704.80 1.750812
704.90 1.750859
705.00 1.750906
705.10 1.750953
705.20 1.751
705.30 1.751047
705.40 1.751094
705.50 1.751141
705.60 1.751187
705.70 1.751234
705.80 1.75128
705.90 1.751326
706.00 1.751372
706.10 1.751418
706.20 1.751464
706.30 1.75151
706.40 1.751659
706.50 1.751305
706.60 1.75175
706.70 1.751539
706.80 1.751738
706.90 1.751784
707.00 1.751829
707.10 1.751874
707.20 1.751919
707.30 1.751964
707.40 1.752009
707.50 1.752053
707.60 1.752098
707.70 1.752142
707.80 1.752187
707.90 1.752231
708.00 1.752275
708.10 1.75232
708.20 1.752364
708.30 1.752408
708.40 1.752452
708.50 1.752495
708.60 1.752539
708.70 1.752583
708.80 1.752626
708.90 1.752669
709.00 1.752713
709.10 1.752756
709.20 1.752799
709.30 1.752842
709.40 1.752885
709.50 1.752928
709.60 1.752971
709.70 1.753013
709.80 1.753056
709.90 1.753098
710.00 1.753141
710.10 1.753183
710.20 1.753225
710.30 1.753267
710.40 1.753309
710.50 1.753351
710.60 1.753393
710.70 1.753435
710.80 1.753476
710.90 1.753518
711.00 1.753559
711.10 1.7536
711.20 1.753642
711.30 1.753683
711.40 1.753724
711.50 1.753765
711.60 1.753806
711.70 1.753847
711.80 1.753887
711.90 1.753928
712.00 1.753968
712.10 1.753996
712.20 1.754021
712.30 1.754046
712.40 1.75407
712.50 1.754095
712.60 1.754119
712.70 1.754144
712.80 1.754168
712.90 1.754192
713.00 1.754217
713.10 1.754241
713.20 1.754265
713.30 1.754288
713.40 1.754312
713.50 1.754336
713.60 1.75436
713.70 1.754362
713.80 1.754323
713.90 1.754284
714.00 1.754244
714.10 1.754268
714.20 1.754307
714.30 1.754345
714.40 1.754384
714.50 1.754422
714.60 1.75446
714.70 1.754498
714.80 1.754537
714.90 1.754575
715.00 1.754613
715.10 1.75465
715.20 1.754688
715.30 1.754726
715.40 1.754763
715.50 1.754801
715.60 1.754838
715.70 1.754876
715.80 1.754913
715.90 1.75495
716.00 1.754987
716.10 1.755024
716.20 1.755061
716.30 1.755098
716.40 1.755134
716.50 1.755171
716.60 1.755203
716.70 1.755234
716.80 1.755265
716.90 1.755296
717.00 1.755327
717.10 1.755358
717.20 1.755389
717.30 1.75542
717.40 1.75545
717.50 1.755481
717.60 1.755511
717.70 1.755542
717.80 1.755572
717.90 1.755602
718.00 1.755632
718.10 1.755662
718.20 1.755682
718.30 1.755696
718.40 1.75571
718.50 1.755724
718.60 1.755738
718.70 1.755751
718.80 1.755765
718.90 1.755779
719.00 1.755792
719.10 1.755806
719.20 1.755819
719.30 1.755833
719.40 1.755846
719.50 1.755859
719.60 1.755872
719.70 1.755885
719.80 1.755898
719.90 1.755911
720.00 1.755924
720.10 1.755936
720.20 1.755949
720.30 1.755962
720.40 1.755974
720.50 1.755987
720.60 1.755999
720.70 1.755887
720.80 1.755707
720.90 1.755723
721.00 1.755747
721.10 1.755772
721.20 1.755795
721.30 1.755819
721.40 1.755843
721.50 1.755867
721.60 1.755891
721.70 1.755914
721.80 1.755938
721.90 1.755961
722.00 1.755984
722.10 1.756008
722.20 1.756031
722.30 1.756054
722.40 1.756077
722.50 1.7561
722.60 1.756123
722.70 1.756129
722.80 1.756126
722.90 1.756122
723.00 1.756119
723.10 1.756116
723.20 1.756113
723.30 1.756109
723.40 1.756106
723.50 1.756102
723.60 1.756099
723.70 1.756095
723.80 1.756092
723.90 1.756088
724.00 1.756084
724.10 1.75608
724.20 1.756098
724.30 1.756129
724.40 1.756159
724.50 1.756189
724.60 1.756219
724.70 1.756249
724.80 1.756279
724.90 1.756309
725.00 1.756339
725.10 1.756368
725.20 1.756398
725.30 1.756427
725.40 1.756457
725.50 1.756486
725.60 1.756515
725.70 1.756545
725.80 1.75654
725.90 1.756518
726.00 1.756496
726.10 1.756473
726.20 1.756451
726.30 1.756428
726.40 1.756406
726.50 1.756383
726.60 1.75636
726.70 1.756338
726.80 1.756348
726.90 1.756376
727.00 1.756405
727.10 1.756433
727.20 1.756461
727.30 1.756489
727.40 1.756517
727.50 1.756545
727.60 1.756572
727.70 1.7566
727.80 1.756462
727.90 1.756234
728.00 1.756351
728.10 1.75641
728.20 1.756406
728.30 1.756433
728.40 1.756282
728.50 1.756309
728.60 1.756336
728.70 1.756363
728.80 1.75639
728.90 1.756417
729.00 1.756388
729.10 1.75633
729.20 1.756272
729.30 1.756214
729.40 1.756156
729.50 1.756098
729.60 1.756095
729.70 1.756121
729.80 1.756147
729.90 1.756173
730.00 1.756199
730.10 1.756225
730.20 1.756251
730.30 1.756277
730.40 1.756303
730.50 1.756328
730.60 1.756334
730.70 1.756327
730.80 1.756321
730.90 1.756315
731.00 1.756309
731.10 1.756302
731.20 1.756296
731.30 1.756289
731.40 1.756283
731.50 1.756276
731.60 1.75627
731.70 1.756263
731.80 1.756256
731.90 1.756249
732.00 1.756242
732.10 1.756235
732.20 1.756227
732.30 1.756218
732.40 1.756208
732.50 1.756199
732.60 1.75619
732.70 1.75618
732.80 1.756171
732.90 1.756161
733.00 1.756151
733.10 1.756142
733.20 1.756132
733.30 1.756122
733.40 1.756112
733.50 1.756102
733.60 1.756092
733.70 1.756073
733.80 1.756049
733.90 1.756025
734.00 1.756
734.10 1.755976
734.20 1.755952
734.30 1.755927
734.40 1.755903
734.50 1.755878
734.60 1.755853
734.70 1.755829
734.80 1.755804
734.90 1.755779
735.00 1.755754
735.10 1.755729
735.20 1.755705
735.30 1.755678
735.40 1.755638
735.50 1.755598
735.60 1.755557
735.70 1.755531
735.80 1.755514
735.90 1.755496
736.00 1.755478
736.10 1.75546
736.20 1.755442
736.30 1.755423
736.40 1.755405
736.50 1.755387
736.60 1.755369
736.70 1.75535
736.80 1.755332
736.90 1.755314
737.00 1.755295
737.10 1.755276
737.20 1.755258
737.30 1.755239
737.40 1.75522
737.50 1.755202
737.60 1.755183
737.70 1.755164
737.80 1.755145
737.90 1.755126
738.00 1.755107
738.10 1.755088
738.20 1.755065
738.30 1.75504
738.40 1.755016
738.50 1.754991
738.60 1.754966
738.70 1.754941
738.80 1.754916
738.90 1.754891
739.00 1.754866
739.10 1.754841
739.20 1.754816
739.30 1.754791
739.40 1.754766
739.50 1.754741
739.60 1.754715
739.70 1.75469
739.80 1.754665
739.90 1.754639
740.00 1.754614
740.10 1.754588
740.20 1.754563
740.30 1.754537
740.40 1.754511
740.50 1.754486
740.60 1.75446
740.70 1.754434
740.80 1.754408
740.90 1.754382
741.00 1.754356
741.10 1.75433
741.20 1.754304
741.30 1.754278
741.40 1.754252
741.50 1.754225
741.60 1.754199
741.70 1.754173
741.80 1.754146
741.90 1.75412
742.00 1.754093
742.10 1.754067
742.20 1.75404
742.30 1.754014
742.40 1.753987
742.50 1.75396
742.60 1.753933
742.70 1.753896
742.80 1.75385
742.90 1.753803
743.00 1.753757
743.10 1.753711
743.20 1.753664
743.30 1.753618
743.40 1.753571
743.50 1.753525
743.60 1.753478
743.70 1.753432
743.80 1.753389
743.90 1.753345
744.00 1.753302
744.10 1.753258
744.20 1.753215
744.30 1.753171
744.40 1.753127
744.50 1.753084
744.60 1.75304
744.70 1.752996
744.80 1.752952
744.90 1.752908
745.00 1.752864
745.10 1.752821
745.20 1.752777
745.30 1.752732
745.40 1.752688
745.50 1.752644
745.60 1.7526
745.70 1.752556
745.80 1.752512
745.90 1.752467
746.00 1.752423
746.10 1.752379
746.20 1.752334
746.30 1.75229
746.40 1.752245
746.50 1.752201
746.60 1.752156
746.70 1.752112
746.80 1.752067
746.90 1.752023
747.00 1.751978
747.10 1.751933
747.20 1.751888
747.30 1.751843
747.40 1.751799
747.50 1.751754
747.60 1.751709
747.70 1.751664
747.80 1.751619
747.90 1.751574
748.00 1.751529
748.10 1.751484
748.20 1.751438
748.30 1.751393
748.40 1.751348
748.50 1.751303
748.60 1.751257
748.70 1.751212
748.80 1.751167
748.90 1.751121
749.00 1.751076
749.10 1.75103
749.20 1.750985
749.30 1.750939
749.40 1.750893
749.50 1.750848
749.60 1.750802
749.70 1.750756
749.80 1.75071
749.90 1.750665
750.00 1.750619
750.10 1.750573
750.20 1.750529
750.30 1.750485
750.40 1.750441
750.50 1.750397
750.60 1.750353
750.70 1.750309
750.80 1.750264
750.90 1.75022
751.00 1.750176
751.10 1.750131
751.20 1.750087
751.30 1.750042
751.40 1.749998
751.50 1.749953
751.60 1.749909
751.70 1.749864
751.80 1.749819
751.90 1.749775
752.00 1.74973
752.10 1.749685
752.20 1.74964
752.30 1.749595
752.40 1.74955
752.50 1.749506
752.60 1.749461
752.70 1.749416
752.80 1.74937
752.90 1.749325
753.00 1.74928
753.10 1.749235
753.20 1.74919
753.30 1.749145
753.40 1.749099
753.50 1.749054
753.60 1.749009
753.70 1.748963
753.80 1.748918
753.90 1.748863
754.00 1.748804
754.10 1.748746
754.20 1.748688
754.30 1.74863
754.40 1.748571
754.50 1.748513
754.60 1.748455
754.70 1.748396
754.80 1.748338
754.90 1.748279
755.00 1.748221
755.10 1.748162
755.20 1.748104
755.30 1.748045
755.40 1.747987
755.50 1.747928
755.60 1.747869
755.70 1.747811
755.80 1.747752
755.90 1.747693
756.00 1.747634
756.10 1.747576
756.20 1.747517
756.30 1.747458
756.40 1.747399
756.50 1.74734
756.60 1.747281
756.70 1.747222
756.80 1.747163
756.90 1.747104
757.00 1.747045
757.10 1.746986
757.20 1.746927
757.30 1.746868
757.40 1.746808
757.50 1.746749
757.60 1.746689
757.70 1.746625
757.80 1.746562
757.90 1.746499
758.00 1.746435
758.10 1.746372
758.20 1.746308
758.30 1.746245
758.40 1.746181
758.50 1.746118
758.60 1.746054
758.70 1.745991
758.80 1.745927
758.90 1.745863
759.00 1.7458
759.10 1.745736
759.20 1.745672
759.30 1.745609
759.40 1.745545
759.50 1.745481
759.60 1.745417
759.70 1.745353
759.80 1.745289
759.90 1.745226
760.00 1.745162
760.10 1.745098
760.20 1.745034
760.30 1.74497
760.40 1.744906
760.50 1.744841
760.60 1.744777
760.70 1.744713
760.80 1.744649
760.90 1.744585
761.00 1.744521
761.10 1.744456
761.20 1.744392
761.30 1.744328
761.40 1.744259
761.50 1.744182
761.60 1.744105
761.70 1.744029
761.80 1.743952
761.90 1.743875
762.00 1.743799
762.10 1.743722
762.20 1.743645
762.30 1.743568
762.40 1.743491
762.50 1.743414
762.60 1.743338
762.70 1.743261
762.80 1.743184
762.90 1.743107
763.00 1.74303
763.10 1.742953
763.20 1.742876
763.30 1.742799
763.40 1.742722
763.50 1.742645
763.60 1.742568
763.70 1.742491
763.80 1.742414
763.90 1.742337
764.00 1.74226
764.10 1.742182
764.20 1.742105
764.30 1.742028
764.40 1.741951
764.50 1.741874
764.60 1.741796
764.70 1.741719
764.80 1.741642
764.90 1.741564
765.00 1.741487
765.10 1.74141
765.20 1.74133
765.30 1.741249
765.40 1.741168
765.50 1.741087
765.60 1.741006
765.70 1.740925
765.80 1.740843
765.90 1.740762
766.00 1.740681
766.10 1.7406
766.20 1.740518
766.30 1.740437
766.40 1.740356
766.50 1.740274
766.60 1.740193
766.70 1.740112
766.80 1.74003
766.90 1.739949
767.00 1.739867
767.10 1.739786
767.20 1.739705
767.30 1.739623
767.40 1.739542
767.50 1.73946
767.60 1.739379
767.70 1.739297
767.80 1.739215
767.90 1.739134
768.00 1.739052
768.10 1.738971
768.20 1.738889
768.30 1.738807
768.40 1.738726
768.50 1.738644
768.60 1.738562
768.70 1.738481
768.80 1.738399
768.90 1.738317
769.00 1.738236
769.10 1.738154
769.20 1.738072
769.30 1.73799
769.40 1.737908
769.50 1.737827
769.60 1.737745
769.70 1.737663
769.80 1.737581
769.90 1.737499
770.00 1.737417
770.10 1.737335
770.20 1.737253
770.30 1.737171
770.40 1.737089
770.50 1.737007
770.60 1.736925
770.70 1.736843
770.80 1.736761
770.90 1.736679
771.00 1.736597
771.10 1.736515
771.20 1.736433
771.30 1.736351
771.40 1.736269
771.50 1.736187
771.60 1.736104
771.70 1.736022
771.80 1.73594
771.90 1.735858
772.00 1.735776
772.10 1.735693
772.20 1.735611
772.30 1.735529
772.40 1.735447
772.50 1.735364
772.60 1.735282
772.70 1.7352
772.80 1.735117
772.90 1.735025
773.00 1.734934
773.10 1.734842
773.20 1.73475
773.30 1.734658
773.40 1.734566
773.50 1.734474
773.60 1.734382
773.70 1.73429
773.80 1.734198
773.90 1.734106
774.00 1.734015
774.10 1.733923
774.20 1.733831
774.30 1.733739
774.40 1.733647
774.50 1.733555
774.60 1.733463
774.70 1.733371
774.80 1.733279
774.90 1.733187
775.00 1.733095
775.10 1.733002
775.20 1.73291
775.30 1.732818
775.40 1.732726
775.50 1.732634
775.60 1.732542
775.70 1.73245
775.80 1.732358
775.90 1.732266
776.00 1.732173
776.10 1.732081
776.20 1.731989
776.30 1.731897
776.40 1.731805
776.50 1.731713
776.60 1.73162
776.70 1.731528
776.80 1.731436
776.90 1.731344
777.00 1.731251
777.10 1.731159
777.20 1.731067
777.30 1.730975
777.40 1.730882
777.50 1.73079
777.60 1.730698
777.70 1.730605
777.80 1.730513
777.90 1.730421
778.00 1.730328
778.10 1.730236
778.20 1.730144
778.30 1.730051
778.40 1.729959
778.50 1.729867
778.60 1.729774
778.70 1.729682
778.80 1.729589
778.90 1.729497
779.00 1.729404
779.10 1.729312
779.20 1.72922
779.30 1.729127
779.40 1.729035
779.50 1.728942
779.60 1.72885
779.70 1.728757
779.80 1.728665
779.90 1.728572
780.00 1.72848
780.10 1.728387
780.20 1.728294
780.30 1.728202
780.40 1.728109
780.50 1.728017
780.60 1.727917
780.70 1.727814
780.80 1.727712
780.90 1.727609
781.00 1.727507
781.10 1.727404
781.20 1.727302
781.30 1.727199
781.40 1.727097
781.50 1.726994
781.60 1.726891
781.70 1.726789
781.80 1.726686
781.90 1.726584
782.00 1.726481
782.10 1.726379
782.20 1.726276
782.30 1.726173
782.40 1.726071
782.50 1.725968
782.60 1.725866
782.70 1.725763
782.80 1.72566
782.90 1.725558
783.00 1.725455
783.10 1.725352
783.20 1.72525
783.30 1.725147
783.40 1.725045
783.50 1.724942
783.60 1.724839
783.70 1.724737
783.80 1.724634
783.90 1.724531
784.00 1.724429
784.10 1.724326
784.20 1.724223
784.30 1.724121
784.40 1.724018
784.50 1.723915
784.60 1.72381
784.70 1.723697
784.80 1.723584
784.90 1.723472
785.00 1.723359
785.10 1.723246
785.20 1.723133
785.30 1.723021
785.40 1.722908
785.50 1.722795
785.60 1.722683
785.70 1.72257
785.80 1.722457
785.90 1.722344
786.00 1.722232
786.10 1.722119
786.20 1.722006
786.30 1.721894
786.40 1.721781
786.50 1.721668
786.60 1.721556
786.70 1.721443
786.80 1.72133
786.90 1.721218
787.00 1.721105
787.10 1.720992
787.20 1.720879
787.30 1.720767
787.40 1.720654
787.50 1.720541
787.60 1.720429
787.70 1.720316
787.80 1.720203
787.90 1.720091
788.00 1.719978
788.10 1.719865
788.20 1.719753
788.30 1.71964
788.40 1.719525
788.50 1.719409
788.60 1.719292
788.70 1.719176
788.80 1.71906
788.90 1.718943
789.00 1.718827
789.10 1.718711
789.20 1.718595
789.30 1.718478
789.40 1.718362
789.50 1.718246
789.60 1.718129
789.70 1.718013
789.80 1.717897
789.90 1.717781
790.00 1.717664
790.10 1.717548
790.20 1.717432
790.30 1.717316
790.40 1.717199
790.50 1.717083
790.60 1.716967
790.70 1.716851
790.80 1.716734
790.90 1.716618
791.00 1.716502
791.10 1.716386
791.20 1.71627
791.30 1.716153
791.40 1.716037
791.50 1.715921
791.60 1.715805
791.70 1.715689
791.80 1.715572
791.90 1.715456
792.00 1.71534
792.10 1.715224
792.20 1.715108
792.30 1.714992
792.40 1.714875
792.50 1.714759
792.60 1.714643
792.70 1.714527
792.80 1.714411
792.90 1.714295
793.00 1.714179
793.10 1.714063
793.20 1.713947
793.30 1.713831
793.40 1.713715
793.50 1.713599
793.60 1.713483
793.70 1.713367
793.80 1.713251
793.90 1.713135
794.00 1.713019
794.10 1.712903
794.20 1.712787
794.30 1.712671
794.40 1.712555
794.50 1.712439
794.60 1.712323
794.70 1.712207
794.80 1.712091
794.90 1.711975
795.00 1.711859
795.10 1.711743
795.20 1.711627
795.30 1.711511
795.40 1.711395
795.50 1.711279
795.60 1.711163
795.70 1.711047
795.80 1.710931
795.90 1.710815
796.00 1.710699
796.10 1.710583
796.20 1.710467
796.30 1.710344
796.40 1.71022
796.50 1.710095
796.60 1.709971
796.70 1.709847
796.80 1.709722
796.90 1.709598
797.00 1.709473
797.10 1.709349
797.20 1.709225
797.30 1.7091
797.40 1.708976
797.50 1.708852
797.60 1.708727
797.70 1.708603
797.80 1.708479
797.90 1.708354
798.00 1.70823
798.10 1.708106
798.20 1.707982
798.30 1.707857
798.40 1.707733
798.50 1.707609
798.60 1.707485
798.70 1.70736
798.80 1.707236
798.90 1.707112
799.00 1.706988
799.10 1.706864
799.20 1.706739
799.30 1.706615
799.40 1.706491
799.50 1.706367
799.60 1.706243
799.70 1.706119
799.80 1.705995
799.90 1.70587
800.00 1.705746
800.10 1.705622
800.20 1.705498
800.30 1.705374
800.40 1.70525
800.50 1.705126
800.60 1.705002
800.70 1.704878
800.80 1.704754
800.90 1.70463
801.00 1.704506
801.10 1.704382
801.20 1.704258
801.30 1.704134
801.40 1.70401
801.50 1.703886
801.60 1.703762
801.70 1.703638
801.80 1.703514
801.90 1.70339
802.00 1.703266
802.10 1.703142
802.20 1.703018
802.30 1.702894
802.40 1.70277
802.50 1.702646
802.60 1.702523
802.70 1.702399
802.80 1.702275
802.90 1.702151
803.00 1.702027
803.10 1.701903
803.20 1.701779
803.30 1.701656
803.40 1.701532
803.50 1.701408
803.60 1.701284
803.70 1.70116
803.80 1.701037
803.90 1.700913
804.00 1.700789
804.10 1.700665
804.20 1.700538
804.30 1.700395
804.40 1.700253
804.50 1.700111
804.60 1.699969
804.70 1.699826
804.80 1.699684
804.90 1.699542
805.00 1.6994
805.10 1.699258
805.20 1.699116
805.30 1.698973
805.40 1.698831
805.50 1.698689
805.60 1.698547
805.70 1.698405
805.80 1.698263
805.90 1.698121
806.00 1.697979
806.10 1.697837
806.20 1.697695
806.30 1.697553
806.40 1.697411
806.50 1.69727
806.60 1.697128
806.70 1.696986
806.80 1.696844
806.90 1.696702
807.00 1.69656
807.10 1.696419
807.20 1.696277
807.30 1.696135
807.40 1.695993
807.50 1.695852
807.60 1.69571
807.70 1.695568
807.80 1.695427
807.90 1.695285
808.00 1.695143
808.10 1.695002
808.20 1.69486
808.30 1.694719
808.40 1.694577
808.50 1.694436
808.60 1.694294
808.70 1.694153
808.80 1.694011
808.90 1.69387
809.00 1.693728
809.10 1.693587
809.20 1.693445
809.30 1.693304
809.40 1.693163
809.50 1.693021
809.60 1.69288
809.70 1.692739
809.80 1.692597
809.90 1.692456
810.00 1.692315
810.10 1.692174
810.20 1.692032
810.30 1.691891
810.40 1.69175
810.50 1.691609
810.60 1.691468
810.70 1.691327
810.80 1.691186
810.90 1.691044
811.00 1.690903
811.10 1.690762
811.20 1.690621
811.30 1.69048
811.40 1.690339
811.50 1.690198
811.60 1.690057
811.70 1.689916
811.80 1.689775
811.90 1.689635
812.00 1.689494
812.10 1.689353
812.20 1.689212
812.30 1.68907
812.40 1.688929
812.50 1.688787
812.60 1.688646
812.70 1.688504
812.80 1.688363
812.90 1.688221
813.00 1.68808
813.10 1.687938
813.20 1.687797
813.30 1.687655
813.40 1.687514
813.50 1.687372
813.60 1.687231
813.70 1.687089
813.80 1.686948
813.90 1.686807
814.00 1.686665
814.10 1.686524
814.20 1.686383
814.30 1.686242
814.40 1.6861
814.50 1.685959
814.60 1.685818
814.70 1.685677
814.80 1.685536
814.90 1.685394
815.00 1.685253
815.10 1.685112
815.20 1.684971
815.30 1.68483
815.40 1.684689
815.50 1.684548
815.60 1.684407
815.70 1.684266
815.80 1.684125
815.90 1.683984
816.00 1.683843
816.10 1.683702
816.20 1.683561
816.30 1.68342
816.40 1.683279
816.50 1.683138
816.60 1.682998
816.70 1.682857
816.80 1.682716
816.90 1.682575
817.00 1.682434
817.10 1.682294
817.20 1.682153
817.30 1.682012
817.40 1.681872
817.50 1.681731
817.60 1.68159
817.70 1.68145
817.80 1.681309
817.90 1.681168
818.00 1.681028
818.10 1.680887
818.20 1.680747
818.30 1.680606
818.40 1.680466
818.50 1.680325
818.60 1.680185
818.70 1.680044
818.80 1.679904
818.90 1.679763
819.00 1.679623
819.10 1.679483
819.20 1.679342
819.30 1.679182
819.40 1.679009
819.50 1.678835
819.60 1.678662
819.70 1.678489
819.80 1.678316
819.90 1.678143
820.00 1.67797
820.10 1.677775
820.20 1.677676
820.30 1.677614
820.40 1.677498
820.50 1.677341
820.60 1.677184
820.70 1.677027
820.80 1.67687
820.90 1.676713
821.00 1.676556
821.10 1.676399
821.20 1.676242
821.30 1.676085
821.40 1.675929
821.50 1.675772
821.60 1.675615
821.70 1.675459
821.80 1.675302
821.90 1.675145
822.00 1.674989
822.10 1.674832
822.20 1.674675
822.30 1.674519
822.40 1.674362
822.50 1.674206
822.60 1.674049
822.70 1.673893
822.80 1.673737
822.90 1.67358
823.00 1.673424
823.10 1.673268
823.20 1.673111
823.30 1.672955
823.40 1.672799
823.50 1.672643
823.60 1.672486
823.70 1.67233
823.80 1.672174
823.90 1.672018
824.00 1.671862
824.10 1.671706
824.20 1.67155
824.30 1.671394
824.40 1.671238
824.50 1.671082
824.60 1.670926
824.70 1.67077
824.80 1.670614
824.90 1.670458
825.00 1.670302
825.10 1.670147
825.20 1.669991
825.30 1.669835
825.40 1.669679
825.50 1.669524
825.60 1.669368
825.70 1.669212
825.80 1.669057
825.90 1.668901
826.00 1.668746
826.10 1.66859
826.20 1.668435
826.30 1.668285
826.40 1.668138
826.50 1.667992
826.60 1.667846
826.70 1.6677
826.80 1.667553
826.90 1.667407
827.00 1.667261
827.10 1.667115
827.20 1.666969
827.30 1.666823
827.40 1.666677
827.50 1.666531
827.60 1.666385
827.70 1.666239
827.80 1.666093
827.90 1.665947
828.00 1.665801
828.10 1.665655
828.20 1.665509
828.30 1.665363
828.40 1.665217
828.50 1.665071
828.60 1.664916
828.70 1.664751
828.80 1.664587
828.90 1.664423
829.00 1.664259
829.10 1.664095
829.20 1.66393
829.30 1.663766
829.40 1.663602
829.50 1.663438
829.60 1.663274
829.70 1.66311
829.80 1.662946
829.90 1.662782
830.00 1.662619
830.10 1.662455
830.20 1.662291
830.30 1.662127
830.40 1.661963
830.50 1.6618
830.60 1.661636
830.70 1.661472
830.80 1.661309
830.90 1.661145
831.00 1.660982
831.10 1.660818
831.20 1.660654
831.30 1.660491
831.40 1.660328
831.50 1.660164
831.60 1.660001
831.70 1.659837
831.80 1.659674
831.90 1.659511
832.00 1.659348
832.10 1.659184
832.20 1.659021
832.30 1.658858
832.40 1.658695
832.50 1.658532
832.60 1.658369
832.70 1.658206
832.80 1.658043
832.90 1.65788
833.00 1.657717
833.10 1.657554
833.20 1.657391
833.30 1.657228
833.40 1.657065
833.50 1.656902
833.60 1.65674
833.70 1.656577
833.80 1.656414
833.90 1.656251
834.00 1.656089
834.10 1.655926
834.20 1.655764
834.30 1.655601
834.40 1.655438
834.50 1.655276
834.60 1.655113
834.70 1.654951
834.80 1.654789
834.90 1.654626
835.00 1.654464
835.10 1.654302
835.20 1.654139
835.30 1.653977
835.40 1.653815
835.50 1.653653
835.60 1.65349
835.70 1.653328
835.80 1.653166
835.90 1.653004
836.00 1.652842
836.10 1.65268
836.20 1.652518
836.30 1.652356
836.40 1.652194
836.50 1.652032
836.60 1.65187
836.70 1.651709
836.80 1.651547
836.90 1.651377
837.00 1.651204
837.10 1.651031
837.20 1.650857
837.30 1.650684
837.40 1.650511
837.50 1.650338
837.60 1.650165
837.70 1.649992
837.80 1.649819
837.90 1.649646
838.00 1.649473
838.10 1.6493
838.20 1.649127
838.30 1.648954
838.40 1.648782
838.50 1.648609
838.60 1.648436
838.70 1.648264
838.80 1.648091
838.90 1.647918
839.00 1.647746
839.10 1.647573
839.20 1.647401
839.30 1.647228
839.40 1.647056
839.50 1.646884
839.60 1.646711
839.70 1.646539
839.80 1.646367
839.90 1.646194
840.00 1.646022
840.10 1.64585
840.20 1.645678
840.30 1.645506
840.40 1.645334
840.50 1.645162
840.60 1.64499
840.70 1.644818
840.80 1.644646
840.90 1.644474
841.00 1.644302
841.10 1.64413
841.20 1.643958
841.30 1.643787
841.40 1.643615
841.50 1.643443
841.60 1.643271
841.70 1.6431
841.80 1.642928
841.90 1.642756
842.00 1.642585
842.10 1.642413
842.20 1.642242
842.30 1.64207
842.40 1.641899
842.50 1.641728
842.60 1.641556
842.70 1.641385
842.80 1.641214
842.90 1.641043
843.00 1.640871
843.10 1.6407
843.20 1.640529
843.30 1.640358
843.40 1.640187
843.50 1.640016
843.60 1.639845
843.70 1.639674
843.80 1.639503
843.90 1.639332
844.00 1.639161
844.10 1.63899
844.20 1.63882
844.30 1.638649
844.40 1.638478
844.50 1.638307
844.60 1.638137
844.70 1.637966
844.80 1.637796
844.90 1.637625
845.00 1.637455
845.10 1.637284
845.20 1.637114
845.30 1.636937
845.40 1.63676
845.50 1.636583
845.60 1.636406
845.70 1.636229
845.80 1.636052
845.90 1.635876
846.00 1.635699
846.10 1.635522
846.20 1.635346
846.30 1.635169
846.40 1.634992
846.50 1.634816
846.60 1.634639
846.70 1.634463
846.80 1.634287
846.90 1.63411
847.00 1.633934
847.10 1.633758
847.20 1.633581
847.30 1.633405
847.40 1.633229
847.50 1.633053
847.60 1.632877
847.70 1.632701
847.80 1.632525
847.90 1.632349
848.00 1.632173
848.10 1.631997
848.20 1.631821
848.30 1.631645
848.40 1.631469
848.50 1.631293
848.60 1.631118
848.70 1.630942
848.80 1.630766
848.90 1.630591
849.00 1.630415
849.10 1.63024
849.20 1.630064
849.30 1.629889
849.40 1.629713
849.50 1.629538
849.60 1.629362
849.70 1.629187
849.80 1.629012
849.90 1.628836
850.00 1.628661
850.10 1.628486
850.20 1.628311
850.30 1.628136
850.40 1.627961
850.50 1.627786
850.60 1.627611
850.70 1.627436
850.80 1.627261
850.90 1.627086
851.00 1.626911
851.10 1.626736
851.20 1.626562
851.30 1.626387
851.40 1.626212
851.50 1.626038
851.60 1.625863
851.70 1.625688
851.80 1.625514
851.90 1.625339
852.00 1.625165
852.10 1.62499
852.20 1.624816
852.30 1.624642
852.40 1.624467
852.50 1.624293
852.60 1.624119
852.70 1.623945
852.80 1.623771
852.90 1.623596
853.00 1.623422
853.10 1.623248
853.20 1.623074
853.30 1.6229
853.40 1.622726
853.50 1.622552
853.60 1.622378
853.70 1.622202
853.80 1.622021
853.90 1.621841
854.00 1.621661
854.10 1.621481
854.20 1.621301
854.30 1.621121
854.40 1.620941
854.50 1.620761
854.60 1.620582
854.70 1.620402
854.80 1.620222
854.90 1.620042
855.00 1.619862
855.10 1.619683
855.20 1.619503
855.30 1.619324
855.40 1.619144
855.50 1.618965
855.60 1.618785
855.70 1.618606
855.80 1.618426
855.90 1.618247
856.00 1.618068
856.10 1.617888
856.20 1.617709
856.30 1.61753
856.40 1.617351
856.50 1.617172
856.60 1.616993
856.70 1.616814
856.80 1.616635
856.90 1.616456
857.00 1.616277
857.10 1.616098
857.20 1.615919
857.30 1.615741
857.40 1.615562
857.50 1.615383
857.60 1.615204
857.70 1.615026
857.80 1.614847
857.90 1.614669
858.00 1.614483
858.10 1.614296
858.20 1.614109
858.30 1.613922
858.40 1.613735
858.50 1.613548
858.60 1.613362
858.70 1.613175
858.80 1.612988
858.90 1.612801
859.00 1.612615
859.10 1.612428
859.20 1.612241
859.30 1.612055
859.40 1.611868
859.50 1.611682
859.60 1.611495
859.70 1.611309
859.80 1.611123
859.90 1.610936
860.00 1.61075
860.10 1.610564
860.20 1.610378
860.30 1.610192
860.40 1.610006
860.50 1.60982
860.60 1.609634
860.70 1.609448
860.80 1.609262
860.90 1.609076
861.00 1.60889
861.10 1.608704
861.20 1.608519
861.30 1.608333
861.40 1.608147
861.50 1.607962
861.60 1.607776
861.70 1.607591
861.80 1.607405
861.90 1.60722
862.00 1.607034
862.10 1.606849
862.20 1.606663
862.30 1.606476
862.40 1.606289
862.50 1.606102
862.60 1.605915
862.70 1.605728
862.80 1.605541
862.90 1.605354
863.00 1.605168
863.10 1.604981
863.20 1.604794
863.30 1.604607
863.40 1.604421
863.50 1.604234
863.60 1.604048
863.70 1.603861
863.80 1.603675
863.90 1.603488
864.00 1.603302
864.10 1.603115
864.20 1.602929
864.30 1.602743
864.40 1.602557
864.50 1.602371
864.60 1.602184
864.70 1.601998
864.80 1.601812
864.90 1.601626
865.00 1.60144
865.10 1.601254
865.20 1.601069
865.30 1.600883
865.40 1.600697
865.50 1.600511
865.60 1.600325
865.70 1.60014
865.80 1.599954
865.90 1.599769
866.00 1.599583
866.10 1.599398
866.20 1.599212
866.30 1.599027
866.40 1.598841
866.50 1.598656
866.60 1.598471
866.70 1.598286
866.80 1.5981
866.90 1.597915
867.00 1.59773
867.10 1.597545
867.20 1.59736
867.30 1.597175
867.40 1.59699
867.50 1.596805
867.60 1.596621
867.70 1.596436
867.80 1.596251
867.90 1.596066
868.00 1.595882
868.10 1.595697
868.20 1.595512
868.30 1.595328
868.40 1.595143
868.50 1.594959
868.60 1.594775
868.70 1.59459
868.80 1.594406
868.90 1.594222
869.00 1.594037
869.10 1.593853
869.20 1.593669
869.30 1.593485
869.40 1.593301
869.50 1.593117
869.60 1.592933
869.70 1.592749
869.80 1.592565
869.90 1.592381
870.00 1.592197
870.10 1.592014
870.20 1.59183
870.30 1.591646
870.40 1.591462
870.50 1.591279
870.60 1.591095
870.70 1.590912
870.80 1.590728
870.90 1.590536
871.00 1.590343
871.10 1.590149
871.20 1.589956
871.30 1.589763
871.40 1.58957
871.50 1.589376
871.60 1.589183
871.70 1.58899
871.80 1.588797
871.90 1.588604
872.00 1.588411
872.10 1.588219
872.20 1.588026
872.30 1.587833
872.40 1.58764
872.50 1.587448
872.60 1.587255
872.70 1.587062
872.80 1.58687
872.90 1.586677
873.00 1.586485
873.10 1.586293
873.20 1.5861
873.30 1.585908
873.40 1.585716
873.50 1.585524
873.60 1.585331
873.70 1.585139
873.80 1.584947
873.90 1.584755
874.00 1.584563
874.10 1.584371
874.20 1.584179
874.30 1.583988
874.40 1.583796
874.50 1.583604
874.60 1.583412
874.70 1.583221
874.80 1.583029
874.90 1.582838
875.00 1.582646
875.10 1.582455
875.20 1.58226
875.30 1.582061
875.40 1.581861
875.50 1.581662
875.60 1.581463
875.70 1.581263
875.80 1.581064
875.90 1.580865
876.00 1.580666
876.10 1.580467
876.20 1.580268
876.30 1.580069
876.40 1.57987
876.50 1.579671
876.60 1.579472
876.70 1.579273
876.80 1.579075
876.90 1.578876
877.00 1.578677
877.10 1.578479
877.20 1.57828
877.30 1.578082
877.40 1.577883
877.50 1.577685
877.60 1.577487
877.70 1.577288
877.80 1.57709
877.90 1.576892
878.00 1.576694
878.10 1.576496
878.20 1.576298
878.30 1.5761
878.40 1.575902
878.50 1.575704
878.60 1.575506
878.70 1.575308
878.80 1.575111
878.90 1.574913
879.00 1.574715
879.10 1.574518
879.20 1.57432
879.30 1.574123
879.40 1.573925
879.50 1.573728
879.60 1.573529
879.70 1.57333
879.80 1.573132
879.90 1.572933
880.00 1.572734
880.10 1.572535
880.20 1.572337
880.30 1.572138
880.40 1.571939
880.50 1.571741
880.60 1.571543
880.70 1.571344
880.80 1.571146
880.90 1.570947
881.00 1.570749
881.10 1.570551
881.20 1.570353
881.30 1.570155
881.40 1.569957
881.50 1.569759
881.60 1.569561
881.70 1.569363
881.80 1.569165
881.90 1.568967
882.00 1.568769
882.10 1.568572
882.20 1.568374
882.30 1.568176
882.40 1.567979
882.50 1.567781
882.60 1.567584
882.70 1.567386
882.80 1.567189
882.90 1.566992
883.00 1.566795
883.10 1.566597
883.20 1.5664
883.30 1.566203
883.40 1.566006
883.50 1.565809
883.60 1.565612
883.70 1.565415
883.80 1.565218
883.90 1.565021
884.00 1.564825
884.10 1.564628
884.20 1.564431
884.30 1.564235
884.40 1.564038
884.50 1.563842
884.60 1.563645
884.70 1.563449
884.80 1.563252
884.90 1.563056
885.00 1.56286
885.10 1.562664
885.20 1.562468
885.30 1.562271
885.40 1.562075
885.50 1.561879
885.60 1.561683
885.70 1.561488
885.80 1.561292
885.90 1.561096
886.00 1.5609
886.10 1.560704
886.20 1.560509
886.30 1.560313
886.40 1.560118
886.50 1.559922
886.60 1.559727
886.70 1.559531
886.80 1.559336
886.90 1.55914
887.00 1.558945
887.10 1.55875
887.20 1.558555
887.30 1.55836
887.40 1.558165
887.50 1.557969
887.60 1.557775
887.70 1.55758
887.80 1.557385
887.90 1.55719
888.00 1.556995
888.10 1.5568
888.20 1.556606
888.30 1.556411
888.40 1.556208
888.50 1.556004
888.60 1.555801
888.70 1.555597
888.80 1.555393
888.90 1.55519
889.00 1.554986
889.10 1.554783
889.20 1.554579
889.30 1.554376
889.40 1.554172
889.50 1.553969
889.60 1.553766
889.70 1.553563
889.80 1.55336
889.90 1.553156
890.00 1.552953
890.10 1.55275
890.20 1.552548
890.30 1.552345
890.40 1.552142
890.50 1.551939
890.60 1.551736
890.70 1.551534
890.80 1.551331
890.90 1.551128
891.00 1.550926
891.10 1.550723
891.20 1.550521
891.30 1.550319
891.40 1.550116
891.50 1.549914
891.60 1.549712
891.70 1.54951
891.80 1.549308
891.90 1.549106
892.00 1.548904
892.10 1.548702
892.20 1.5485
892.30 1.548298
892.40 1.548096
892.50 1.547894
892.60 1.547693
892.70 1.547491
892.80 1.547289
892.90 1.547088
893.00 1.546886
893.10 1.546685
893.20 1.546484
893.30 1.546282
893.40 1.546081
893.50 1.54588
893.60 1.545679
893.70 1.545477
893.80 1.545276
893.90 1.545075
894.00 1.544874
894.10 1.544673
894.20 1.544473
894.30 1.544272
894.40 1.544071
894.50 1.54387
894.60 1.54367
894.70 1.543469
894.80 1.543268
894.90 1.543068
895.00 1.542867
895.10 1.542667
895.20 1.542467
895.30 1.542266
895.40 1.542066
895.50 1.541866
895.60 1.541666
895.70 1.541466
895.80 1.541266
895.90 1.541066
896.00 1.540866
896.10 1.540666
896.20 1.540466
896.30 1.540266
896.40 1.540066
896.50 1.539867
896.60 1.539667
896.70 1.539467
896.80 1.539268
896.90 1.539068
897.00 1.538869
897.10 1.53867
897.20 1.53847
897.30 1.538269
897.40 1.538069
897.50 1.537868
897.60 1.537668
897.70 1.537467
897.80 1.537267
897.90 1.537066
898.00 1.536866
898.10 1.536666
898.20 1.536465
898.30 1.536265
898.40 1.536065
898.50 1.535865
898.60 1.535665
898.70 1.535465
898.80 1.535265
898.90 1.535065
899.00 1.534865
899.10 1.534665
899.20 1.534466
899.30 1.534266
899.40 1.534066
899.50 1.533867
899.60 1.533667
899.70 1.533468
899.80 1.533268
899.90 1.533069
900.00 1.53287
900.10 1.53267
900.20 1.532471
900.30 1.532272
900.40 1.532073
900.50 1.531874
900.60 1.531675
900.70 1.531476
900.80 1.531277
900.90 1.531078
901.00 1.530879
901.10 1.53068
901.20 1.530481
901.30 1.530283
901.40 1.530084
901.50 1.529886
901.60 1.529687
901.70 1.529486
901.80 1.529273
901.90 1.529059
902.00 1.528846
902.10 1.528633
902.20 1.52842
902.30 1.528207
902.40 1.527994
902.50 1.527781
902.60 1.527569
902.70 1.527356
902.80 1.527143
902.90 1.526931
903.00 1.526718
903.10 1.526506
903.20 1.526293
903.30 1.526081
903.40 1.525868
903.50 1.525656
903.60 1.525444
903.70 1.525232
903.80 1.52502
903.90 1.524808
904.00 1.524596
904.10 1.524384
904.20 1.524172
904.30 1.52396
904.40 1.523748
904.50 1.523536
904.60 1.523325
904.70 1.523113
904.80 1.522902
904.90 1.52269
905.00 1.522479
905.10 1.522267
905.20 1.522056
905.30 1.521845
905.40 1.521634
905.50 1.521422
905.60 1.521211
905.70 1.521
905.80 1.520789
905.90 1.520578
906.00 1.520368
906.10 1.520157
906.20 1.519948
906.30 1.519743
906.40 1.519539
906.50 1.519334
906.60 1.519129
906.70 1.518925
906.80 1.518721
906.90 1.518516
907.00 1.518312
907.10 1.518108
907.20 1.517903
907.30 1.517699
907.40 1.517495
907.50 1.517291
907.60 1.517087
907.70 1.516883
907.80 1.516679
907.90 1.516476
908.00 1.516272
908.10 1.516068
908.20 1.515864
908.30 1.515661
908.40 1.515457
908.50 1.515254
908.60 1.51505
908.70 1.514847
908.80 1.514644
908.90 1.51444
909.00 1.514237
909.10 1.514034
909.20 1.513831
909.30 1.513628
909.40 1.513425
909.50 1.513222
909.60 1.513019
909.70 1.512816
909.80 1.512613
909.90 1.51241
910.00 1.512207
910.10 1.512005
910.20 1.511802
910.30 1.5116
910.40 1.511397
910.50 1.511195
910.60 1.510992
910.70 1.51079
910.80 1.51058
910.90 1.510371
911.00 1.510161
911.10 1.509952
911.20 1.509743
911.30 1.509534
911.40 1.509325
911.50 1.509115
911.60 1.508906
911.70 1.508697
911.80 1.508488
911.90 1.50828
912.00 1.508071
912.10 1.507862
912.20 1.507653
912.30 1.507445
912.40 1.507236
912.50 1.507027
912.60 1.506819
912.70 1.50661
912.80 1.506402
912.90 1.506194
913.00 1.505986
913.10 1.505777
913.20 1.505569
913.30 1.505361
913.40 1.505153
913.50 1.504945
913.60 1.504737
913.70 1.504529
913.80 1.504321
913.90 1.504114
914.00 1.503906
914.10 1.503698
914.20 1.503491
914.30 1.503283
914.40 1.503075
914.50 1.502868
914.60 1.502661
914.70 1.502453
914.80 1.502246
914.90 1.502039
915.00 1.501832
915.10 1.501624
915.20 1.501417
915.30 1.50121
915.40 1.501001
915.50 1.500793
915.60 1.500585
915.70 1.500377
915.80 1.500169
915.90 1.499962
916.00 1.499754
916.10 1.499546
916.20 1.499338
916.30 1.499131
916.40 1.498923
916.50 1.498715
916.60 1.498508
916.70 1.498301
916.80 1.498093
916.90 1.497886
917.00 1.497679
917.10 1.497471
917.20 1.497264
917.30 1.497057
917.40 1.49685
917.50 1.496643
917.60 1.496436
917.70 1.496229
917.80 1.496022
917.90 1.495816
918.00 1.495609
918.10 1.495402
918.20 1.495196
918.30 1.494989
918.40 1.494783
918.50 1.494576
918.60 1.49437
918.70 1.494163
918.80 1.493957
918.90 1.493751
919.00 1.493545
919.10 1.493339
919.20 1.493133
919.30 1.492927
919.40 1.492721
919.50 1.492515
919.60 1.492309
919.70 1.492103
919.80 1.491897
919.90 1.491685
920.00 1.491472
920.10 1.49126
920.20 1.491047
920.30 1.490835
920.40 1.490623
920.50 1.49041
920.60 1.490198
920.70 1.489986
920.80 1.489774
920.90 1.489562
921.00 1.489349
921.10 1.489138
921.20 1.488926
921.30 1.488714
921.40 1.488502
921.50 1.48829
921.60 1.488078
921.70 1.487867
921.80 1.487655
921.90 1.487444
922.00 1.487232
922.10 1.487021
922.20 1.486809
922.30 1.486598
922.40 1.486387
922.50 1.486176
922.60 1.485965
922.70 1.485754
922.80 1.485543
922.90 1.485332
923.00 1.485121
923.10 1.48491
923.20 1.484699
923.30 1.484488
923.40 1.484278
923.50 1.484067
923.60 1.483856
923.70 1.483646
923.80 1.483435
923.90 1.483225
924.00 1.483015
924.10 1.482804
924.20 1.482594
924.30 1.482384
924.40 1.482173
924.50 1.481955
924.60 1.481737
924.70 1.481519
924.80 1.481301
924.90 1.481083
925.00 1.480865
925.10 1.480648
925.20 1.48043
925.30 1.480213
925.40 1.479995
925.50 1.479778
925.60 1.47956
925.70 1.479343
925.80 1.479126
925.90 1.478909
926.00 1.478692
926.10 1.478475
926.20 1.478258
926.30 1.478041
926.40 1.477824
926.50 1.477607
926.60 1.47739
926.70 1.477174
926.80 1.476957
926.90 1.47674
927.00 1.476524
927.10 1.476307
927.20 1.476091
927.30 1.475875
927.40 1.475658
927.50 1.475442
927.60 1.475226
927.70 1.47501
927.80 1.474794
927.90 1.474578
928.00 1.474362
928.10 1.474146
928.20 1.47393
928.30 1.473714
928.40 1.473499
928.50 1.473283
928.60 1.473068
928.70 1.472852
928.80 1.472637
928.90 1.472421
929.00 1.472206
929.10 1.471997
929.20 1.471789
929.30 1.47158
929.40 1.471372
929.50 1.471164
929.60 1.470955
929.70 1.470747
929.80 1.470539
929.90 1.470331
930.00 1.470123
930.10 1.469915
930.20 1.469707
930.30 1.469499
930.40 1.469292
930.50 1.469084
930.60 1.468876
930.70 1.468669
930.80 1.468461
930.90 1.468253
931.00 1.468046
931.10 1.467839
931.20 1.467631
931.30 1.467424
931.40 1.467217
931.50 1.46701
931.60 1.466802
931.70 1.466595
931.80 1.466388
931.90 1.466181
932.00 1.465975
932.10 1.465768
932.20 1.465561
932.30 1.465354
932.40 1.465148
932.50 1.464941
932.60 1.464734
932.70 1.464528
932.80 1.464321
932.90 1.464115
933.00 1.463909
933.10 1.463702
933.20 1.463496
933.30 1.46329
933.40 1.463084
933.50 1.462878
933.60 1.462672
933.70 1.462457
933.80 1.462241
933.90 1.462024
934.00 1.461807
934.10 1.46159
934.20 1.461373
934.30 1.461157
934.40 1.46094
934.50 1.460724
934.60 1.460507
934.70 1.460291
934.80 1.460075
934.90 1.459858
935.00 1.459642
935.10 1.459426
935.20 1.45921
935.30 1.458994
935.40 1.458778
935.50 1.458562
935.60 1.458346
935.70 1.45813
935.80 1.457914
935.90 1.457699
936.00 1.457483
936.10 1.457268
936.20 1.457052
936.30 1.456837
936.40 1.456621
936.50 1.456406
936.60 1.456191
936.70 1.455975
936.80 1.45576
936.90 1.455545
937.00 1.45533
937.10 1.455115
937.20 1.4549
937.30 1.454685
937.40 1.45447
937.50 1.454256
937.60 1.454041
937.70 1.453826
937.80 1.453612
937.90 1.453397
938.00 1.453183
938.10 1.452968
938.20 1.452754
938.30 1.45254
938.40 1.452326
938.50 1.452111
938.60 1.451897
938.70 1.451683
938.80 1.451469
938.90 1.451255
939.00 1.451042
939.10 1.450828
939.20 1.450614
939.30 1.4504
939.40 1.450187
939.50 1.449973
939.60 1.449759
939.70 1.449546
939.80 1.449333
939.90 1.449119
940.00 1.448906
940.10 1.448693
940.20 1.44848
940.30 1.448266
940.40 1.448053
940.50 1.44784
940.60 1.447627
940.70 1.447415
940.80 1.447202
940.90 1.446989
941.00 1.446776
941.10 1.446564
941.20 1.446351
941.30 1.446138
941.40 1.445926
941.50 1.445714
941.60 1.445501
941.70 1.445289
941.80 1.445077
941.90 1.444864
942.00 1.444652
942.10 1.44444
942.20 1.444228
942.30 1.444016
942.40 1.443804
942.50 1.443592
942.60 1.443381
942.70 1.443169
942.80 1.442957
942.90 1.442746
943.00 1.442531
943.10 1.442312
943.20 1.442094
943.30 1.441875
943.40 1.441656
943.50 1.441437
943.60 1.441219
943.70 1.441
943.80 1.440782
943.90 1.440563
944.00 1.440345
944.10 1.440127
944.20 1.439909
944.30 1.43969
944.40 1.439472
944.50 1.439254
944.60 1.439036
944.70 1.438818
944.80 1.4386
944.90 1.438383
945.00 1.438165
945.10 1.437947
945.20 1.43773
945.30 1.437512
945.40 1.437294
945.50 1.437077
945.60 1.43686
945.70 1.436642
945.80 1.436425
945.90 1.436208
946.00 1.435991
946.10 1.435774
946.20 1.435557
946.30 1.43534
946.40 1.435123
946.50 1.434906
946.60 1.434689
946.70 1.434472
946.80 1.434256
946.90 1.434039
947.00 1.433823
947.10 1.433606
947.20 1.43339
947.30 1.433173
947.40 1.432957
947.50 1.432741
947.60 1.432524
947.70 1.432308
947.80 1.432092
947.90 1.431876
948.00 1.43166
948.10 1.431444
948.20 1.431228
948.30 1.431013
948.40 1.430797
948.50 1.430581
948.60 1.430366
948.70 1.43015
948.80 1.429935
948.90 1.429719
949.00 1.429504
949.10 1.429289
949.20 1.429073
949.30 1.428858
949.40 1.428643
949.50 1.428428
949.60 1.428213
949.70 1.427998
949.80 1.427783
949.90 1.427568
950.00 1.427353
950.10 1.427139
950.20 1.426924
950.30 1.426709
950.40 1.426495
950.50 1.42628
950.60 1.426066
950.70 1.425852
950.80 1.425637
950.90 1.425423
951.00 1.425209
951.10 1.424995
951.20 1.424781
951.30 1.424567
951.40 1.424353
951.50 1.424139
951.60 1.423925
951.70 1.423711
951.80 1.423497
951.90 1.423284
952.00 1.42307
952.10 1.422857
952.20 1.422643
952.30 1.42243
952.40 1.422216
952.50 1.421999
952.60 1.421782
952.70 1.421564
952.80 1.421347
952.90 1.42113
953.00 1.420913
953.10 1.420696
953.20 1.420479
953.30 1.420263
953.40 1.420046
953.50 1.419829
953.60 1.419613
953.70 1.419396
953.80 1.419179
953.90 1.418963
954.00 1.418747
954.10 1.41853
954.20 1.418314
954.30 1.418098
954.40 1.417882
954.50 1.417666
954.60 1.41745
954.70 1.417234
954.80 1.417018
954.90 1.416802
955.00 1.416586
955.10 1.41637
955.20 1.416155
955.30 1.415939
955.40 1.415723
955.50 1.415508
955.60 1.415293
955.70 1.415077
955.80 1.414862
955.90 1.414647
956.00 1.414431
956.10 1.414216
956.20 1.414001
956.30 1.413786
956.40 1.413571
956.50 1.413356
956.60 1.413141
956.70 1.412927
956.80 1.412712
956.90 1.412497
957.00 1.412283
957.10 1.412068
957.20 1.411851
957.30 1.41163
957.40 1.411409
957.50 1.411189
957.60 1.410969
957.70 1.410748
957.80 1.410528
957.90 1.410308
958.00 1.410087
958.10 1.409867
958.20 1.409647
958.30 1.409427
958.40 1.409207
958.50 1.408987
958.60 1.408767
958.70 1.408548
958.80 1.408328
958.90 1.408108
959.00 1.407889
959.10 1.407669
959.20 1.40745
959.30 1.40723
959.40 1.407011
959.50 1.406792
959.60 1.406572
959.70 1.406353
959.80 1.406134
959.90 1.405915
960.00 1.405696
960.10 1.405477
960.20 1.405258
960.30 1.40504
960.40 1.404821
960.50 1.404602
960.60 1.404384
960.70 1.404165
960.80 1.403946
960.90 1.403728
961.00 1.40351
961.10 1.403291
961.20 1.403073
961.30 1.402855
961.40 1.402637
961.50 1.402419
961.60 1.402201
961.70 1.401983
961.80 1.401765
961.90 1.401547
962.00 1.401329
962.10 1.40111
962.20 1.400892
962.30 1.400674
962.40 1.400455
962.50 1.400237
962.60 1.400019
962.70 1.399801
962.80 1.399583
962.90 1.399365
963.00 1.399147
963.10 1.398929
963.20 1.398711
963.30 1.398494
963.40 1.398276
963.50 1.398058
963.60 1.397841
963.70 1.397623
963.80 1.397406
963.90 1.397189
964.00 1.396971
964.10 1.396754
964.20 1.396537
964.30 1.39632
964.40 1.396103
964.50 1.395886
964.60 1.395669
964.70 1.395452
964.80 1.395235
964.90 1.395018
965.00 1.394802
965.10 1.394585
965.20 1.394369
965.30 1.394152
965.40 1.393936
965.50 1.393719
965.60 1.393503
965.70 1.393287
965.80 1.39307
965.90 1.392854
966.00 1.392638
966.10 1.392422
966.20 1.392206
966.30 1.39199
966.40 1.391774
966.50 1.391559
966.60 1.391343
966.70 1.391127
966.80 1.390912
966.90 1.390696
967.00 1.39048
967.10 1.390265
967.20 1.39005
967.30 1.389834
967.40 1.389619
967.50 1.389404
967.60 1.389189
967.70 1.388974
967.80 1.388759
967.90 1.388544
968.00 1.388329
968.10 1.388114
968.20 1.387899
968.30 1.387684
968.40 1.38747
968.50 1.387255
968.60 1.387041
968.70 1.386826
968.80 1.386612
968.90 1.386397
969.00 1.386183
969.10 1.385969
969.20 1.385754
969.30 1.38554
969.40 1.385326
969.50 1.385112
969.60 1.384898
969.70 1.384684
969.80 1.384471
969.90 1.384257
970.00 1.384043
970.10 1.383829
970.20 1.383616
970.30 1.383402
970.40 1.383189
970.50 1.382975
970.60 1.382762
970.70 1.382549
970.80 1.382335
970.90 1.382122
971.00 1.381909
971.10 1.381696
971.20 1.381483
971.30 1.38127
971.40 1.381057
971.50 1.380844
971.60 1.380627
971.70 1.380408
971.80 1.380188
971.90 1.379969
972.00 1.37975
972.10 1.379531
972.20 1.379312
972.30 1.379093
972.40 1.378874
972.50 1.378655
972.60 1.378436
972.70 1.378218
972.80 1.377999
972.90 1.377781
973.00 1.377562
973.10 1.377343
973.20 1.377125
973.30 1.376907
973.40 1.376688
973.50 1.37647
973.60 1.376252
973.70 1.376034
973.80 1.375816
973.90 1.375598
974.00 1.37538
974.10 1.375162
974.20 1.374944
974.30 1.374726
974.40 1.374509
974.50 1.374291
974.60 1.374074
974.70 1.373856
974.80 1.373639
974.90 1.373421
975.00 1.373204
975.10 1.372987
975.20 1.372769
975.30 1.372552
975.40 1.372335
975.50 1.372118
975.60 1.371901
975.70 1.371684
975.80 1.371467
975.90 1.371251
976.00 1.371034
976.10 1.370817
976.20 1.370601
976.30 1.370384
976.40 1.370168
976.50 1.369951
976.60 1.369735
976.70 1.369519
976.80 1.369302
976.90 1.369086
977.00 1.36887
977.10 1.368654
977.20 1.368438
977.30 1.368222
977.40 1.368006
977.50 1.36779
977.60 1.367574
977.70 1.367359
977.80 1.367143
977.90 1.366928
978.00 1.366712
978.10 1.366497
978.20 1.366281
978.30 1.366066
978.40 1.36585
978.50 1.365635
978.60 1.36542
978.70 1.365205
978.80 1.36499
978.90 1.364775
979.00 1.36456
979.10 1.364345
979.20 1.36413
979.30 1.363915
979.40 1.363701
979.50 1.363486
979.60 1.363272
979.70 1.363057
979.80 1.362843
979.90 1.362628
980.00 1.362414
980.10 1.3622
980.20 1.361985
980.30 1.361771
980.40 1.361557
980.50 1.361343
980.60 1.361129
980.70 1.360915
980.80 1.360701
980.90 1.360487
981.00 1.360274
981.10 1.36006
981.20 1.359846
981.30 1.35963
981.40 1.35941
981.50 1.35919
981.60 1.35897
981.70 1.35875
981.80 1.358531
981.90 1.358311
982.00 1.358092
982.10 1.357872
982.20 1.357653
982.30 1.357434
982.40 1.357214
982.50 1.356995
982.60 1.356776
982.70 1.356557
982.80 1.356338
982.90 1.356119
983.00 1.3559
983.10 1.355681
983.20 1.355462
983.30 1.355244
983.40 1.355025
983.50 1.354807
983.60 1.354588
983.70 1.35437
983.80 1.354151
983.90 1.353933
984.00 1.353715
984.10 1.353496
984.20 1.353278
984.30 1.35306
984.40 1.352842
984.50 1.352624
984.60 1.352406
984.70 1.352188
984.80 1.35197
984.90 1.351753
985.00 1.351535
985.10 1.351317
985.20 1.3511
985.30 1.350882
985.40 1.350665
985.50 1.350448
985.60 1.35023
985.70 1.350013
985.80 1.349796
985.90 1.349579
986.00 1.349362
986.10 1.349145
986.20 1.348928
986.30 1.348711
986.40 1.348494
986.50 1.348277
986.60 1.34806
986.70 1.347844
986.80 1.347627
986.90 1.347411
987.00 1.347194
987.10 1.346978
987.20 1.346761
987.30 1.346545
987.40 1.346329
987.50 1.346113
987.60 1.345897
987.70 1.345681
987.80 1.345465
987.90 1.345249
988.00 1.345033
988.10 1.344817
988.20 1.344601
988.30 1.344385
988.40 1.34417
988.50 1.343954
988.60 1.343739
988.70 1.343523
988.80 1.343308
988.90 1.343093
989.00 1.342877
989.10 1.342662
989.20 1.342447
989.30 1.342232
989.40 1.342017
989.50 1.341802
989.60 1.341587
989.70 1.341372
989.80 1.341157
989.90 1.340942
990.00 1.340728
990.10 1.340513
990.20 1.340299
990.30 1.340084
990.40 1.33987
990.50 1.339655
990.60 1.339441
990.70 1.339227
990.80 1.339013
990.90 1.338798
991.00 1.338584
991.10 1.33837
991.20 1.338156
991.30 1.337941
991.40 1.337727
991.50 1.337512
991.60 1.337298
991.70 1.337084
991.80 1.33687
991.90 1.336656
992.00 1.336442
992.10 1.336228
992.20 1.336014
992.30 1.3358
992.40 1.335586
992.50 1.335372
992.60 1.335159
992.70 1.334945
992.80 1.334731
992.90 1.334518
993.00 1.334304
993.10 1.334091
993.20 1.333878
993.30 1.333664
993.40 1.333451
993.50 1.333238
993.60 1.333025
993.70 1.332812
993.80 1.332599
993.90 1.332386
994.00 1.332173
994.10 1.33196
994.20 1.331747
994.30 1.331535
994.40 1.331322
994.50 1.33111
994.60 1.330897
994.70 1.330685
994.80 1.330472
994.90 1.33026
995.00 1.330048
995.10 1.329835
995.20 1.329623
995.30 1.329411
995.40 1.329199
995.50 1.328987
995.60 1.328775
995.70 1.328563
995.80 1.328351
995.90 1.32814
996.00 1.327928
996.10 1.327712
996.20 1.327495
996.30 1.327278
996.40 1.327061
996.50 1.326844
996.60 1.326627
996.70 1.32641
996.80 1.326194
996.90 1.325977
997.00 1.32576
997.10 1.325544
997.20 1.325327
997.30 1.325111
997.40 1.324894
997.50 1.324678
997.60 1.324462
997.70 1.324246
997.80 1.32403
997.90 1.323814
998.00 1.323598
998.10 1.323382
998.20 1.323166
998.30 1.32295
998.40 1.322734
998.50 1.322518
998.60 1.322303
998.70 1.322087
998.80 1.321872
998.90 1.321656
999.00 1.321441
999.10 1.321226
999.20 1.32101
999.30 1.320795
999.40 1.32058
999.50 1.320365
999.60 1.32015
999.70 1.319935
999.80 1.31972
999.90 1.319505
1000.00 1.31929
1000.10 1.319075
1000.20 1.318861
1000.30 1.318646
1000.40 1.318431
1000.50 1.318217
1000.60 1.318003
1000.70 1.317788
1000.80 1.317574
1000.90 1.31736
1001.00 1.317144
1001.10 1.316924
1001.20 1.316704
1001.30 1.316484
1001.40 1.316264
1001.50 1.316044
1001.60 1.315825
1001.70 1.315605
1001.80 1.315385
1001.90 1.315166
1002.00 1.314946
1002.10 1.314727
1002.20 1.314508
1002.30 1.314288
1002.40 1.314069
1002.50 1.31385
1002.60 1.313631
1002.70 1.313412
1002.80 1.313193
1002.90 1.312974
1003.00 1.312755
1003.10 1.312536
1003.20 1.312318
1003.30 1.312099
1003.40 1.31188
1003.50 1.311662
1003.60 1.311443
1003.70 1.311225
1003.80 1.311006
1003.90 1.310788
1004.00 1.31057
1004.10 1.310352
1004.20 1.310134
1004.30 1.309916
1004.40 1.309698
1004.50 1.30948
1004.60 1.309262
1004.70 1.309044
1004.80 1.308826
1004.90 1.308608
1005.00 1.308391
1005.10 1.308173
1005.20 1.307956
1005.30 1.307738
1005.40 1.307521
1005.50 1.307304
1005.60 1.307086
1005.70 1.306869
1005.80 1.306652
1005.90 1.306435
1006.00 1.306218
1006.10 1.306001
1006.20 1.305784
1006.30 1.305567
1006.40 1.30535
1006.50 1.305134
1006.60 1.304917
1006.70 1.3047
1006.80 1.304484
1006.90 1.304267
1007.00 1.304051
1007.10 1.303835
1007.20 1.303618
1007.30 1.303402
1007.40 1.303186
1007.50 1.30297
1007.60 1.302754
1007.70 1.302538
1007.80 1.302322
1007.90 1.302106
1008.00 1.30189
1008.10 1.301674
1008.20 1.301459
1008.30 1.301243
1008.40 1.301027
1008.50 1.300812
1008.60 1.300596
1008.70 1.300381
1008.80 1.300166
1008.90 1.29995
1009.00 1.299735
1009.10 1.29952
1009.20 1.299305
1009.30 1.29909
1009.40 1.298875
1009.50 1.29866
1009.60 1.298445
1009.70 1.29823
1009.80 1.298016
1009.90 1.297801
1010.00 1.297586
1010.10 1.297372
1010.20 1.297157
1010.30 1.296943
1010.40 1.296729
1010.50 1.296514
1010.60 1.2963
1010.70 1.296086
1010.80 1.295872
1010.90 1.295657
1011.00 1.295443
1011.10 1.295229
1011.20 1.295015
1011.30 1.2948
1011.40 1.294586
1011.50 1.294372
1011.60 1.294158
1011.70 1.293944
1011.80 1.29373
1011.90 1.293516
1012.00 1.293302
1012.10 1.293088
1012.20 1.292875
1012.30 1.292661
1012.40 1.292447
1012.50 1.292234
1012.60 1.29202
1012.70 1.291807
1012.80 1.291593
1012.90 1.29138
1013.00 1.291167
1013.10 1.290954
1013.20 1.29074
1013.30 1.290527
1013.40 1.290314
1013.50 1.290101
1013.60 1.289888
1013.70 1.289676
1013.80 1.289463
1013.90 1.28925
1014.00 1.289037
1014.10 1.288825
1014.20 1.288612
1014.30 1.2884
1014.40 1.288187
1014.50 1.287975
1014.60 1.287763
1014.70 1.28755
1014.80 1.287338
1014.90 1.287126
1015.00 1.286914
1015.10 1.286702
1015.20 1.28649
1015.30 1.286278
1015.40 1.286066
1015.50 1.285854
1015.60 1.285643
1015.70 1.285431
1015.80 1.285219
1015.90 1.285008
1016.00 1.284796
1016.10 1.284582
1016.20 1.284365
1016.30 1.284148
1016.40 1.283932
1016.50 1.283716
1016.60 1.283499
1016.70 1.283283
1016.80 1.283067
1016.90 1.282851
1017.00 1.282635
1017.10 1.282419
1017.20 1.282203
1017.30 1.281987
1017.40 1.281771
1017.50 1.281555
1017.60 1.281339
1017.70 1.281124
1017.80 1.280908
1017.90 1.280693
1018.00 1.280477
1018.10 1.280262
1018.20 1.280046
1018.30 1.279831
1018.40 1.279616
1018.50 1.279401
1018.60 1.279185
1018.70 1.27897
1018.80 1.278755
1018.90 1.27854
1019.00 1.278326
1019.10 1.278111
1019.20 1.277896
1019.30 1.277681
1019.40 1.277467
1019.50 1.277252
1019.60 1.277038
1019.70 1.276823
1019.80 1.276609
1019.90 1.276394
1020.00 1.27618
1020.10 1.275966
1020.20 1.275752
1020.30 1.275538
1020.40 1.275323
1020.50 1.27511
1020.60 1.274896
1020.70 1.274682
1020.80 1.274468
1020.90 1.274254
1021.00 1.27404
1021.10 1.273827
1021.20 1.273613
1021.30 1.273399
1021.40 1.273185
1021.50 1.272971
1021.60 1.272758
1021.70 1.272544
1021.80 1.27233
1021.90 1.272117
1022.00 1.271904
1022.10 1.27169
1022.20 1.271477
1022.30 1.271263
1022.40 1.27105
1022.50 1.270837
1022.60 1.270624
1022.70 1.270411
1022.80 1.270198
1022.90 1.269985
1023.00 1.269772
1023.10 1.269559
1023.20 1.269347
1023.30 1.269134
1023.40 1.268921
1023.50 1.268709
1023.60 1.268496
1023.70 1.268284
1023.80 1.268071
1023.90 1.267859
1024.00 1.267647
1024.10 1.267435
1024.20 1.267222
1024.30 1.26701
1024.40 1.266798
1024.50 1.266586
1024.60 1.266374
1024.70 1.266162
1024.80 1.265951
1024.90 1.265739
1025.00 1.265527
1025.10 1.265316
1025.20 1.265104
1025.30 1.264892
1025.40 1.264681
1025.50 1.26447
1025.60 1.264258
1025.70 1.264047
1025.80 1.263836
1025.90 1.263625
1026.00 1.263413
1026.10 1.263202
1026.20 1.262991
1026.30 1.262775
1026.40 1.26256
1026.50 1.262344
1026.60 1.262128
1026.70 1.261912
1026.80 1.261697
1026.90 1.261481
1027.00 1.261265
1027.10 1.26105
1027.20 1.260835
1027.30 1.260619
1027.40 1.260404
1027.50 1.260189
1027.60 1.259973
1027.70 1.259758
1027.80 1.259543
1027.90 1.259328
1028.00 1.259113
1028.10 1.258898
1028.20 1.258684
1028.30 1.258469
1028.40 1.258254
1028.50 1.25804
1028.60 1.257825
1028.70 1.25761
1028.80 1.257396
1028.90 1.257182
1029.00 1.256967
1029.10 1.256753
1029.20 1.256539
1029.30 1.256325
1029.40 1.256111
1029.50 1.255897
1029.60 1.255683
1029.70 1.255469
1029.80 1.255255
1029.90 1.255041
1030.00 1.254827
1030.10 1.254614
1030.20 1.2544
1030.30 1.254186
1030.40 1.253973
1030.50 1.253759
1030.60 1.253546
1030.70 1.253333
1030.80 1.253119
1030.90 1.252906
1031.00 1.252693
1031.10 1.25248
1031.20 1.252267
1031.30 1.252054
1031.40 1.251841
1031.50 1.251628
1031.60 1.251414
1031.70 1.251201
1031.80 1.250988
1031.90 1.250776
1032.00 1.250563
1032.10 1.25035
1032.20 1.250137
1032.30 1.249924
1032.40 1.249712
1032.50 1.249499
1032.60 1.249287
1032.70 1.249074
1032.80 1.248862
1032.90 1.24865
1033.00 1.248437
1033.10 1.248225
1033.20 1.248013
1033.30 1.247801
1033.40 1.247589
1033.50 1.247377
1033.60 1.247165
1033.70 1.246953
1033.80 1.246741
1033.90 1.24653
1034.00 1.246318
1034.10 1.246106
1034.20 1.245895
1034.30 1.245683
1034.40 1.245472
1034.50 1.24526
1034.60 1.245049
1034.70 1.244838
1034.80 1.244626
1034.90 1.244415
1035.00 1.244204
1035.10 1.243993
1035.20 1.243782
1035.30 1.243571
1035.40 1.24336
1035.50 1.24315
1035.60 1.242939
1035.70 1.242728
1035.80 1.242518
1035.90 1.242307
1036.00 1.242096
1036.10 1.241886
1036.20 1.241676
1036.30 1.241465
1036.40 1.241255
1036.50 1.241045
1036.60 1.240835
1036.70 1.240624
1036.80 1.240414
1036.90 1.240204
1037.00 1.239994
1037.10 1.239785
1037.20 1.239575
1037.30 1.239365
1037.40 1.239155
1037.50 1.238946
1037.60 1.238736
1037.70 1.238527
1037.80 1.238317
1037.90 1.238108
1038.00 1.237898
1038.10 1.237689
1038.20 1.23748
1038.30 1.237271
1038.40 1.237061
1038.50 1.236852
1038.60 1.236643
1038.70 1.236434
1038.80 1.236226
1038.90 1.236017
1039.00 1.235808
1039.10 1.235599
1039.20 1.235391
1039.30 1.235182
1039.40 1.234973
1039.50 1.234765
1039.60 1.234557
1039.70 1.234348
1039.80 1.23414
1039.90 1.233932
1040.00 1.233723
1040.10 1.233515
1040.20 1.233307
1040.30 1.233099
1040.40 1.232891
1040.50 1.232683
1040.60 1.232475
1040.70 1.232268
1040.80 1.23206
1040.90 1.231852
1041.00 1.231644
1041.10 1.231437
1041.20 1.231229
1041.30 1.231022
1041.40 1.230814
1041.50 1.230607
1041.60 1.2304
1041.70 1.230188
1041.80 1.229976
1041.90 1.229764
1042.00 1.229552
1042.10 1.22934
1042.20 1.229128
1042.30 1.228916
1042.40 1.228704
1042.50 1.228492
1042.60 1.22828
1042.70 1.228069
1042.80 1.227857
1042.90 1.227645
1043.00 1.227434
1043.10 1.227222
1043.20 1.227011
1043.30 1.2268
1043.40 1.226588
1043.50 1.226377
1043.60 1.226166
1043.70 1.225955
1043.80 1.225744
1043.90 1.225533
1044.00 1.225322
1044.10 1.225111
1044.20 1.2249
1044.30 1.224689
1044.40 1.224478
1044.50 1.224268
1044.60 1.224057
1044.70 1.223847
1044.80 1.223636
1044.90 1.223426
1045.00 1.223215
1045.10 1.223005
1045.20 1.222795
1045.30 1.222584
1045.40 1.222374
1045.50 1.222164
1045.60 1.221954
1045.70 1.221744
1045.80 1.221534
1045.90 1.221324
1046.00 1.221115
1046.10 1.220905
1046.20 1.220695
1046.30 1.220486
1046.40 1.220276
1046.50 1.220067
1046.60 1.219857
1046.70 1.219648
1046.80 1.219438
1046.90 1.219226
1047.00 1.219012
1047.10 1.218798
1047.20 1.218584
1047.30 1.21837
1047.40 1.218156
1047.50 1.217943
1047.60 1.217729
1047.70 1.217516
1047.80 1.217302
1047.90 1.217089
1048.00 1.216875
1048.10 1.216662
1048.20 1.216449
1048.30 1.216236
1048.40 1.216023
1048.50 1.215809
1048.60 1.215596
1048.70 1.215384
1048.80 1.215171
1048.90 1.214958
1049.00 1.214745
1049.10 1.214532
1049.20 1.21432
1049.30 1.214107
1049.40 1.213895
1049.50 1.213682
1049.60 1.21347
1049.70 1.213257
1049.80 1.213045
1049.90 1.212833
1050.00 1.212621
1050.10 1.212409
1050.20 1.212196
1050.30 1.211984
1050.40 1.211773
1050.50 1.211561
1050.60 1.211349
1050.70 1.211137
1050.80 1.210925
1050.90 1.210714
1051.00 1.210502
1051.10 1.210291
1051.20 1.210079
1051.30 1.209868
1051.40 1.209656
1051.50 1.209445
1051.60 1.209234
1051.70 1.209023
1051.80 1.208811
1051.90 1.2086
1052.00 1.208389
1052.10 1.20818
1052.20 1.207971
1052.30 1.207762
1052.40 1.207554
1052.50 1.207345
1052.60 1.207137
1052.70 1.206928
1052.80 1.20672
1052.90 1.206511
1053.00 1.206303
1053.10 1.206095
1053.20 1.205887
1053.30 1.205679
1053.40 1.205471
1053.50 1.205263
1053.60 1.205055
1053.70 1.204847
1053.80 1.204639
1053.90 1.204431
1054.00 1.204223
1054.10 1.204016
1054.20 1.203808
1054.30 1.203601
1054.40 1.203393
1054.50 1.203186
1054.60 1.202978
1054.70 1.202771
1054.80 1.202564
1054.90 1.202356
1055.00 1.202149
1055.10 1.201942
1055.20 1.201735
1055.30 1.201528
1055.40 1.201321
1055.50 1.201114
1055.60 1.200908
1055.70 1.200701
1055.80 1.200494
1055.90 1.200288
1056.00 1.200081
1056.10 1.199874
1056.20 1.199668
1056.30 1.199462
1056.40 1.199255
1056.50 1.199049
1056.60 1.198843
1056.70 1.198636
1056.80 1.19843
1056.90 1.198224
1057.00 1.198018
1057.10 1.197812
1057.20 1.197606
1057.30 1.197401
1057.40 1.197195
1057.50 1.196989
1057.60 1.196783
1057.70 1.196578
1057.80 1.196372
1057.90 1.196167
1058.00 1.195961
1058.10 1.195756
1058.20 1.19555
1058.30 1.195345
1058.40 1.19514
1058.50 1.194935
1058.60 1.19473
1058.70 1.194525
1058.80 1.19432
1058.90 1.194115
1059.00 1.19391
1059.10 1.193705
1059.20 1.1935
1059.30 1.193295
1059.40 1.193091
1059.50 1.192886
1059.60 1.192682
1059.70 1.192477
1059.80 1.192273
1059.90 1.192068
1060.00 1.191864
1060.10 1.19166
1060.20 1.191455
1060.30 1.191251
1060.40 1.191047
1060.50 1.190843
1060.60 1.190639
1060.70 1.190435
1060.80 1.190231
1060.90 1.190027
1061.00 1.189824
1061.10 1.18962
1061.20 1.189416
1061.30 1.189213
1061.40 1.189009
1061.50 1.188806
1061.60 1.188602
1061.70 1.188399
1061.80 1.188195
1061.90 1.187992
1062.00 1.187789
1062.10 1.187586
1062.20 1.187383
1062.30 1.18718
1062.40 1.186977
1062.50 1.186774
1062.60 1.186568
1062.70 1.186358
1062.80 1.186148
1062.90 1.185938
1063.00 1.185729
1063.10 1.185519
1063.20 1.18531
1063.30 1.1851
1063.40 1.184891
1063.50 1.184682
1063.60 1.184472
1063.70 1.184263
1063.80 1.184054
1063.90 1.183845
1064.00 1.183636
1064.10 1.183427
1064.20 1.183218
1064.30 1.183009
1064.40 1.1828
1064.50 1.182592
1064.60 1.182383
1064.70 1.182174
1064.80 1.181966
1064.90 1.181757
1065.00 1.181549
1065.10 1.18134
1065.20 1.181132
1065.30 1.180924
1065.40 1.180715
1065.50 1.180507
1065.60 1.180299
1065.70 1.180091
1065.80 1.179883
1065.90 1.179675
1066.00 1.179467
1066.10 1.179259
1066.20 1.179052
1066.30 1.178844
1066.40 1.178636
1066.50 1.178429
1066.60 1.178221
1066.70 1.178014
1066.80 1.177806
1066.90 1.177599
1067.00 1.177392
1067.10 1.177184
1067.20 1.176977
1067.30 1.17677
1067.40 1.176563
1067.50 1.176356
1067.60 1.176149
1067.70 1.175942
1067.80 1.175735
1067.90 1.175528
1068.00 1.175321
1068.10 1.175115
1068.20 1.174908
1068.30 1.174702
1068.40 1.174495
1068.50 1.174289
1068.60 1.174082
1068.70 1.173876
1068.80 1.17367
1068.90 1.173463
1069.00 1.173257
1069.10 1.173051
1069.20 1.172845
1069.30 1.172639
1069.40 1.172433
1069.50 1.172227
1069.60 1.172021
1069.70 1.171816
1069.80 1.17161
1069.90 1.171404
1070.00 1.171199
1070.10 1.170993
1070.20 1.170787
1070.30 1.170582
1070.40 1.170377
1070.50 1.170171
1070.60 1.169966
1070.70 1.169761
1070.80 1.169556
1070.90 1.169351
1071.00 1.169145
1071.10 1.168941
1071.20 1.168736
1071.30 1.168531
1071.40 1.168326
1071.50 1.168121
1071.60 1.167916
1071.70 1.167712
1071.80 1.167507
1071.90 1.167303
1072.00 1.167098
1072.10 1.166894
1072.20 1.166689
1072.30 1.166485
1072.40 1.166281
1072.50 1.166077
1072.60 1.165872
1072.70 1.165668
1072.80 1.165464
1072.90 1.16526
1073.00 1.165056
1073.10 1.164852
1073.20 1.164649
1073.30 1.164445
1073.40 1.164241
1073.50 1.164037
1073.60 1.163833
1073.70 1.16363
1073.80 1.163426
1073.90 1.163222
1074.00 1.163019
1074.10 1.162816
1074.20 1.162612
1074.30 1.162409
1074.40 1.162206
1074.50 1.162002
1074.60 1.161799
1074.70 1.161596
1074.80 1.161393
1074.90 1.16119
1075.00 1.160987
1075.10 1.160784
1075.20 1.160581
1075.30 1.160378
1075.40 1.160176
1075.50 1.159973
1075.60 1.15977
1075.70 1.159568
1075.80 1.159365
1075.90 1.159163
1076.00 1.158961
1076.10 1.158758
1076.20 1.158556
1076.30 1.158354
1076.40 1.158152
1076.50 1.157949
1076.60 1.157747
1076.70 1.157545
1076.80 1.157343
1076.90 1.157141
1077.00 1.15694
1077.10 1.156738
1077.20 1.156536
1077.30 1.156334
1077.40 1.156133
1077.50 1.155931
1077.60 1.15573
1077.70 1.155528
1077.80 1.155327
1077.90 1.155125
1078.00 1.154924
1078.10 1.154723
1078.20 1.154522
1078.30 1.154321
1078.40 1.15412
1078.50 1.153919
1078.60 1.153715
1078.70 1.15351
1078.80 1.153305
1078.90 1.1531
1079.00 1.152895
1079.10 1.15269
1079.20 1.152485
1079.30 1.15228
1079.40 1.152075
1079.50 1.15187
1079.60 1.151665
1079.70 1.151461
1079.80 1.151256
1079.90 1.151051
1080.00 1.150847
1080.10 1.150642
1080.20 1.150438
1080.30 1.150234
1080.40 1.150029
1080.50 1.149825
1080.60 1.149621
1080.70 1.149417
1080.80 1.149213
1080.90 1.149009
1081.00 1.148805
1081.10 1.148601
1081.20 1.148397
1081.30 1.148193
1081.40 1.14799
1081.50 1.147786
1081.60 1.147582
1081.70 1.147379
1081.80 1.147175
1081.90 1.146972
1082.00 1.146768
1082.10 1.146565
1082.20 1.146362
1082.30 1.146159
1082.40 1.145955
1082.50 1.145752
1082.60 1.145549
1082.70 1.145346
1082.80 1.145143
1082.90 1.14494
1083.00 1.144738
1083.10 1.144535
1083.20 1.144332
1083.30 1.144129
1083.40 1.143927
1083.50 1.143724
1083.60 1.143522
1083.70 1.143319
1083.80 1.143117
1083.90 1.142914
1084.00 1.142712
1084.10 1.14251
1084.20 1.142308
1084.30 1.142105
1084.40 1.141903
1084.50 1.141701
1084.60 1.141499
1084.70 1.141297
1084.80 1.141095
1084.90 1.140893
1085.00 1.140691
1085.10 1.14049
1085.20 1.140288
1085.30 1.140086
1085.40 1.139885
1085.50 1.139683
1085.60 1.139482
1085.70 1.13928
1085.80 1.139079
1085.90 1.138877
1086.00 1.138676
1086.10 1.138475
1086.20 1.138274
1086.30 1.138073
1086.40 1.137872
1086.50 1.137671
1086.60 1.13747
1086.70 1.137269
1086.80 1.137068
1086.90 1.136867
1087.00 1.136666
1087.10 1.136466
1087.20 1.136265
1087.30 1.136065
1087.40 1.135864
1087.50 1.135664
1087.60 1.135463
1087.70 1.135263
1087.80 1.135063
1087.90 1.134862
1088.00 1.134662
1088.10 1.134462
1088.20 1.134262
1088.30 1.134062
1088.40 1.133862
1088.50 1.133662
1088.60 1.133462
1088.70 1.133263
1088.80 1.133063
1088.90 1.132863
1089.00 1.132663
1089.10 1.132464
1089.20 1.132264
1089.30 1.132065
1089.40 1.131863
1089.50 1.131659
1089.60 1.131455
1089.70 1.131252
1089.80 1.131049
1089.90 1.130845
1090.00 1.130642
1090.10 1.130439
1090.20 1.130236
1090.30 1.130032
1090.40 1.129829
1090.50 1.129626
1090.60 1.129423
1090.70 1.129221
1090.80 1.129018
1090.90 1.128815
1091.00 1.128612
1091.10 1.128409
1091.20 1.128207
1091.30 1.128004
1091.40 1.127802
1091.50 1.127599
1091.60 1.127397
1091.70 1.127195
1091.80 1.126992
1091.90 1.12679
1092.00 1.126588
1092.10 1.126386
1092.20 1.126184
1092.30 1.125982
1092.40 1.12578
1092.50 1.125578
1092.60 1.125376
1092.70 1.125174
1092.80 1.124972
1092.90 1.124771
1093.00 1.124569
1093.10 1.124368
1093.20 1.124166
1093.30 1.123965
1093.40 1.123763
1093.50 1.123562
1093.60 1.12336
1093.70 1.123159
1093.80 1.122958
1093.90 1.122757
1094.00 1.122556
1094.10 1.122355
1094.20 1.122154
1094.30 1.121953
1094.40 1.121752
1094.50 1.121551
1094.60 1.121351
1094.70 1.12115
1094.80 1.120949
1094.90 1.120749
1095.00 1.120548
1095.10 1.120347
1095.20 1.120147
1095.30 1.119947
1095.40 1.119746
1095.50 1.119546
1095.60 1.119346
1095.70 1.119145
1095.80 1.118945
1095.90 1.118745
1096.00 1.118545
1096.10 1.118345
1096.20 1.118145
1096.30 1.117945
1096.40 1.117746
1096.50 1.117546
1096.60 1.117346
1096.70 1.117146
1096.80 1.116947
1096.90 1.116747
1097.00 1.116548
1097.10 1.116348
1097.20 1.116149
1097.30 1.11595
1097.40 1.11575
1097.50 1.115551
1097.60 1.115352
1097.70 1.115153
1097.80 1.114954
1097.90 1.114755
1098.00 1.114556
1098.10 1.114357
1098.20 1.114158
1098.30 1.113959
1098.40 1.113761
1098.50 1.113562
1098.60 1.113363
1098.70 1.113165
1098.80 1.112966
1098.90 1.112768
1099.00 1.112569
1099.10 1.112371
1099.20 1.112173
1099.30 1.111975
1099.40 1.111776
1099.50 1.111578
1099.60 1.11138
1099.70 1.111182
1099.80 1.110984
1099.90 1.110786
1100.00 1.110588
1100.10 1.110391
1100.20 1.110193
1100.30 1.109995
1100.40 1.109797
1100.50 1.1096
1100.60 1.109402
1100.70 1.109205
1100.80 1.109007
1100.90 1.10881
1101.00 1.108613
1101.10 1.108415
1101.20 1.108218
1101.30 1.108021
1101.40 1.107824
1101.50 1.107627
1101.60 1.10743
1101.70 1.107233
1101.80 1.107036
1101.90 1.106839
1102.00 1.106642
1102.10 1.106445
1102.20 1.106249
1102.30 1.106052
1102.40 1.105855
1102.50 1.105659
1102.60 1.105462
1102.70 1.105266
1102.80 1.10507
1102.90 1.104873
1103.00 1.104677
1103.10 1.104481
1103.20 1.104285
1103.30 1.104089
1103.40 1.103892
1103.50 1.103696
1103.60 1.1035
1103.70 1.103305
1103.80 1.103109
1103.90 1.102913
1104.00 1.102717
1104.10 1.102522
1104.20 1.102326
1104.30 1.10213
1104.40 1.101935
1104.50 1.101739
1104.60 1.101544
1104.70 1.101348
1104.80 1.101153
1104.90 1.100958
1105.00 1.100763
1105.10 1.100568
1105.20 1.100372
1105.30 1.100177
1105.40 1.099982
1105.50 1.099787
1105.60 1.099592
1105.70 1.099398
1105.80 1.099199
1105.90 1.099
1106.00 1.098801
1106.10 1.098603
1106.20 1.098404
1106.30 1.098205
1106.40 1.098007
1106.50 1.097808
1106.60 1.09761
1106.70 1.097412
1106.80 1.097213
1106.90 1.097015
1107.00 1.096817
1107.10 1.096619
1107.20 1.096421
1107.30 1.096223
1107.40 1.096025
1107.50 1.095827
1107.60 1.095629
1107.70 1.095431
1107.80 1.095233
1107.90 1.095036
1108.00 1.094838
1108.10 1.09464
1108.20 1.094443
1108.30 1.094245
1108.40 1.094048
1108.50 1.093851
1108.60 1.093653
1108.70 1.093456
1108.80 1.093259
1108.90 1.093062
1109.00 1.092864
1109.10 1.092667
1109.20 1.09247
1109.30 1.092273
1109.40 1.092077
1109.50 1.09188
1109.60 1.091683
1109.70 1.091486
1109.80 1.091289
1109.90 1.091093
1110.00 1.090896
1110.10 1.0907
1110.20 1.090503
1110.30 1.090307
1110.40 1.09011
1110.50 1.089914
1110.60 1.089718
1110.70 1.089522
1110.80 1.089325
1110.90 1.089129
1111.00 1.088933
1111.10 1.088737
1111.20 1.088541
1111.30 1.088345
1111.40 1.08815
1111.50 1.087954
1111.60 1.087758
1111.70 1.087562
1111.80 1.087367
1111.90 1.087171
1112.00 1.086976
1112.10 1.08678
1112.20 1.086585
1112.30 1.086389
1112.40 1.086194
1112.50 1.085999
1112.60 1.085804
1112.70 1.085608
1112.80 1.085413
1112.90 1.085218
1113.00 1.085023
1113.10 1.084828
1113.20 1.084633
1113.30 1.084439
1113.40 1.084244
1113.50 1.084049
1113.60 1.083854
1113.70 1.08366
1113.80 1.083465
1113.90 1.083271
1114.00 1.083076
1114.10 1.082882
1114.20 1.082687
1114.30 1.082493
1114.40 1.082299
1114.50 1.082105
1114.60 1.08191
1114.70 1.081716
1114.80 1.081522
1114.90 1.081328
1115.00 1.081134
1115.10 1.08094
1115.20 1.080747
1115.30 1.080553
1115.40 1.080359
1115.50 1.080165
1115.60 1.079972
1115.70 1.079778
1115.80 1.079585
1115.90 1.079391
1116.00 1.079198
1116.10 1.079004
1116.20 1.078811
1116.30 1.078618
1116.40 1.078424
1116.50 1.078231
1116.60 1.078038
1116.70 1.077845
1116.80 1.077652
1116.90 1.077459
1117.00 1.077266
1117.10 1.077073
1117.20 1.076881
1117.30 1.076688
1117.40 1.076495
1117.50 1.076302
1117.60 1.07611
1117.70 1.075917
1117.80 1.075725
1117.90 1.075532
1118.00 1.07534
1118.10 1.075148
1118.20 1.074955
1118.30 1.074763
1118.40 1.074571
1118.50 1.074379
1118.60 1.074187
1118.70 1.073995
1118.80 1.073803
1118.90 1.073611
1119.00 1.073419
1119.10 1.073227
1119.20 1.073035
1119.30 1.072844
1119.40 1.072652
1119.50 1.07246
1119.60 1.072269
1119.70 1.072077
1119.80 1.071886
1119.90 1.071694
1120.00 1.071503
1120.10 1.071312
1120.20 1.07112
1120.30 1.070929
1120.40 1.070738
1120.50 1.070547
1120.60 1.070356
1120.70 1.070165
1120.80 1.069974
1120.90 1.069783
1121.00 1.069592
1121.10 1.069401
1121.20 1.06921
1121.30 1.06902
1121.40 1.068829
1121.50 1.068639
1121.60 1.068448
1121.70 1.068257
1121.80 1.068067
1121.90 1.067877
1122.00 1.067686
1122.10 1.067496
1122.20 1.067306
1122.30 1.067116
1122.40 1.066923
1122.50 1.066729
1122.60 1.066535
1122.70 1.066341
1122.80 1.066148
1122.90 1.065954
1123.00 1.06576
1123.10 1.065567
1123.20 1.065373
1123.30 1.06518
1123.40 1.064986
1123.50 1.064793
1123.60 1.064599
1123.70 1.064406
1123.80 1.064213
1123.90 1.06402
1124.00 1.063826
1124.10 1.063633
1124.20 1.06344
1124.30 1.063247
1124.40 1.063054
1124.50 1.062861
1124.60 1.062669
1124.70 1.062476
1124.80 1.062283
1124.90 1.06209
1125.00 1.061898
1125.10 1.061705
1125.20 1.061513
1125.30 1.06132
1125.40 1.061128
1125.50 1.060935
1125.60 1.060743
1125.70 1.060551
1125.80 1.060359
1125.90 1.060166
1126.00 1.059974
1126.10 1.059782
1126.20 1.05959
1126.30 1.059398
1126.40 1.059206
1126.50 1.059014
1126.60 1.058823
1126.70 1.058631
1126.80 1.058439
1126.90 1.058248
1127.00 1.058056
1127.10 1.057864
1127.20 1.057673
1127.30 1.057481
1127.40 1.05729
1127.50 1.057099
1127.60 1.056907
1127.70 1.056716
1127.80 1.056525
1127.90 1.056334
1128.00 1.056141
1128.10 1.055948
1128.20 1.055756
1128.30 1.055563
1128.40 1.05537
1128.50 1.055177
1128.60 1.054985
1128.70 1.054792
1128.80 1.0546
1128.90 1.054407
1129.00 1.054215
1129.10 1.054022
1129.20 1.05383
1129.30 1.053638
1129.40 1.053446
1129.50 1.053254
1129.60 1.053061
1129.70 1.052869
1129.80 1.052677
1129.90 1.052485
1130.00 1.052293
1130.10 1.052102
1130.20 1.05191
1130.30 1.051718
1130.40 1.051526
1130.50 1.051335
1130.60 1.051143
1130.70 1.050952
1130.80 1.05076
1130.90 1.050569
1131.00 1.050377
1131.10 1.050186
1131.20 1.049995
1131.30 1.049803
1131.40 1.049612
1131.50 1.049421
1131.60 1.04923
1131.70 1.049039
1131.80 1.048848
1131.90 1.048657
1132.00 1.048466
1132.10 1.048275
1132.20 1.048085
1132.30 1.047894
1132.40 1.047703
1132.50 1.047513
1132.60 1.047322
1132.70 1.047132
1132.80 1.046941
1132.90 1.046751
1133.00 1.04656
1133.10 1.04637
1133.20 1.04618
1133.30 1.045989
1133.40 1.045799
1133.50 1.045609
1133.60 1.045419
1133.70 1.045229
1133.80 1.045039
1133.90 1.044849
1134.00 1.044659
1134.10 1.04447
1134.20 1.04428
1134.30 1.04409
1134.40 1.0439
1134.50 1.043711
1134.60 1.043521
1134.70 1.043332
1134.80 1.043142
1134.90 1.042953
1135.00 1.042764
1135.10 1.042574
1135.20 1.042385
1135.30 1.042196
1135.40 1.042007
1135.50 1.041818
1135.60 1.041629
1135.70 1.04144
1135.80 1.041251
1135.90 1.041062
1136.00 1.040873
1136.10 1.040684
1136.20 1.040495
1136.30 1.040307
1136.40 1.040118
1136.50 1.039929
1136.60 1.039741
1136.70 1.039552
1136.80 1.039364
1136.90 1.039175
1137.00 1.038987
1137.10 1.038799
1137.20 1.038611
1137.30 1.038422
1137.40 1.038234
1137.50 1.038046
1137.60 1.037858
1137.70 1.03767
1137.80 1.037482
1137.90 1.037294
1138.00 1.037106
1138.10 1.036919
1138.20 1.036731
1138.30 1.036543
1138.40 1.036356
1138.50 1.036168
1138.60 1.03598
1138.70 1.035793
1138.80 1.035606
1138.90 1.035418
1139.00 1.035231
1139.10 1.035043
1139.20 1.034856
1139.30 1.034667
1139.40 1.034478
1139.50 1.03429
1139.60 1.034101
1139.70 1.033912
1139.80 1.033723
1139.90 1.033535
1140.00 1.033346
1140.10 1.033157
1140.20 1.032969
1140.30 1.03278
1140.40 1.032592
1140.50 1.032404
1140.60 1.032215
1140.70 1.032027
1140.80 1.031839
1140.90 1.031651
1141.00 1.031463
1141.10 1.031274
1141.20 1.031086
1141.30 1.030898
1141.40 1.030711
1141.50 1.030523
1141.60 1.030335
1141.70 1.030147
1141.80 1.029959
1141.90 1.029772
1142.00 1.029584
1142.10 1.029397
1142.20 1.029209
1142.30 1.029022
1142.40 1.028834
1142.50 1.028647
1142.60 1.028459
1142.70 1.028272
1142.80 1.028085
1142.90 1.027898
1143.00 1.027711
1143.10 1.027524
1143.20 1.027337
1143.30 1.02715
1143.40 1.026963
1143.50 1.026776
1143.60 1.026589
1143.70 1.026402
1143.80 1.026216
1143.90 1.026029
1144.00 1.025842
1144.10 1.025656
1144.20 1.025469
1144.30 1.025283
1144.40 1.025096
1144.50 1.02491
1144.60 1.024724
1144.70 1.024537
1144.80 1.024351
1144.90 1.024165
1145.00 1.023979
1145.10 1.023793
1145.20 1.023607
1145.30 1.023421
1145.40 1.023235
1145.50 1.023049
1145.60 1.022863
1145.70 1.022677
1145.80 1.022492
1145.90 1.022306
1146.00 1.02212
1146.10 1.021935
1146.20 1.021749
1146.30 1.021564
1146.40 1.021378
1146.50 1.021193
1146.60 1.021008
1146.70 1.020822
1146.80 1.020637
1146.90 1.020452
1147.00 1.020267
1147.10 1.020082
1147.20 1.019897
1147.30 1.019712
1147.40 1.019527
1147.50 1.019342
1147.60 1.019157
1147.70 1.018972
1147.80 1.018787
1147.90 1.018603
1148.00 1.018418
1148.10 1.018233
1148.20 1.018049
1148.30 1.017864
1148.40 1.01768
1148.50 1.017495
1148.60 1.017311
1148.70 1.017127
1148.80 1.016943
1148.90 1.016758
1149.00 1.016574
1149.10 1.01639
1149.20 1.016206
1149.30 1.016022
1149.40 1.015838
1149.50 1.015654
1149.60 1.01547
1149.70 1.015286
1149.80 1.015103
1149.90 1.014919
1150.00 1.014735
1150.10 1.014552
1150.20 1.014368
1150.30 1.014185
1150.40 1.014001
1150.50 1.013818
1150.60 1.013634
1150.70 1.013447
1150.80 1.01326
1150.90 1.013074
1151.00 1.012887
1151.10 1.0127
1151.20 1.012514
1151.30 1.012327
1151.40 1.012141
1151.50 1.011954
1151.60 1.011768
1151.70 1.011582
1151.80 1.011395
1151.90 1.011209
1152.00 1.011023
1152.10 1.010837
1152.20 1.010651
1152.30 1.010465
1152.40 1.010279
1152.50 1.010093
1152.60 1.009907
1152.70 1.009721
1152.80 1.009535
1152.90 1.00935
1153.00 1.009164
1153.10 1.008978
1153.20 1.008793
1153.30 1.008607
1153.40 1.008422
1153.50 1.008236
1153.60 1.008051
1153.70 1.007866
1153.80 1.00768
1153.90 1.007495
1154.00 1.00731
1154.10 1.007125
1154.20 1.00694
1154.30 1.006755
1154.40 1.00657
1154.50 1.006385
1154.60 1.0062
1154.70 1.006015
1154.80 1.00583
1154.90 1.005646
1155.00 1.005461
1155.10 1.005276
1155.20 1.005092
1155.30 1.004907
1155.40 1.004723
1155.50 1.004538
1155.60 1.004354
1155.70 1.004169
1155.80 1.003985
1155.90 1.003801
1156.00 1.003617
1156.10 1.003432
1156.20 1.003248
1156.30 1.003064
1156.40 1.00288
1156.50 1.002696
1156.60 1.002512
1156.70 1.002328
1156.80 1.002145
1156.90 1.001961
1157.00 1.001777
1157.10 1.001593
1157.20 1.00141
1157.30 1.001226
1157.40 1.001043
1157.50 1.000859
1157.60 1.000676
1157.70 1.000492
1157.80 1.000309
1157.90 1.000126
1158.00 0.9999426
1158.10 0.9997594
1158.20 0.9995763
1158.30 0.9993932
1158.40 0.9992102
1158.50 0.9990272
1158.60 0.9988442
1158.70 0.9986613
1158.80 0.9984785
1158.90 0.9982957
1159.00 0.9981129
1159.10 0.9979302
1159.20 0.9977476
1159.30 0.997565
1159.40 0.9973824
1159.50 0.9971999
1159.60 0.9970175
1159.70 0.996835
1159.80 0.9966527
1159.90 0.9964704
1160.00 0.9962881
1160.10 0.9961059
1160.20 0.9959237
1160.30 0.9957416
1160.40 0.9955595
1160.50 0.9953774
1160.60 0.9951955
1160.70 0.9950135
1160.80 0.9948316
1160.90 0.9946498
1161.00 0.994468
1161.10 0.9942863
1161.20 0.9941046
1161.30 0.9939229
1161.40 0.9937413
1161.50 0.9935598
1161.60 0.9933783
1161.70 0.9931968
1161.80 0.9930154
1161.90 0.9928341
1162.00 0.9926527
1162.10 0.9924715
1162.20 0.9922904
1162.30 0.9921093
1162.40 0.9919283
1162.50 0.9917473
1162.60 0.9915664
1162.70 0.9913855
1162.80 0.9912047
1162.90 0.9910239
1163.00 0.9908431
1163.10 0.9906625
1163.20 0.9904818
1163.30 0.9903012
1163.40 0.9901207
1163.50 0.9899402
1163.60 0.9897597
1163.70 0.9895793
1163.80 0.989399
1163.90 0.9892186
1164.00 0.9890384
1164.10 0.9888582
1164.20 0.988678
1164.30 0.9884979
1164.40 0.9883178
1164.50 0.9881378
1164.60 0.9879578
1164.70 0.9877779
1164.80 0.987598
1164.90 0.9874182
1165.00 0.9872384
1165.10 0.9870586
1165.20 0.9868789
1165.30 0.9866993
1165.40 0.9865197
1165.50 0.9863401
1165.60 0.9861606
1165.70 0.9859812
1165.80 0.9858018
1165.90 0.9856224
1166.00 0.9854431
1166.10 0.9852638
1166.20 0.9850846
1166.30 0.9849054
1166.40 0.9847263
1166.50 0.9845472
1166.60 0.9843681
1166.70 0.9841892
1166.80 0.9840102
1166.90 0.9838313
1167.00 0.9836525
1167.10 0.9834737
1167.20 0.9832949
1167.30 0.9831162
1167.40 0.9829375
1167.50 0.9827589
1167.60 0.9825804
1167.70 0.9824018
1167.80 0.9822234
1167.90 0.9820449
1168.00 0.9818635
1168.10 0.9816817
1168.20 0.9815001
1168.30 0.9813184
1168.40 0.9811368
1168.50 0.9809553
1168.60 0.9807738
1168.70 0.9805923
1168.80 0.9804109
1168.90 0.9802295
1169.00 0.9800482
1169.10 0.979867
1169.20 0.9796858
1169.30 0.9795046
1169.40 0.9793235
1169.50 0.9791424
1169.60 0.9789614
1169.70 0.9787804
1169.80 0.9785995
1169.90 0.9784186
1170.00 0.9782377
1170.10 0.978057
1170.20 0.9778762
1170.30 0.9776955
1170.40 0.9775149
1170.50 0.9773343
1170.60 0.9771537
1170.70 0.9769732
1170.80 0.9767928
1170.90 0.9766124
1171.00 0.976432
1171.10 0.9762517
1171.20 0.9760714
1171.30 0.9758912
1171.40 0.975711
1171.50 0.9755309
1171.60 0.9753508
1171.70 0.9751708
1171.80 0.9749908
1171.90 0.9748109
1172.00 0.974631
1172.10 0.9744512
1172.20 0.9742714
1172.30 0.9740916
1172.40 0.9739119
1172.50 0.9737323
1172.60 0.9735527
1172.70 0.9733731
1172.80 0.9731936
1172.90 0.9730141
1173.00 0.9728347
1173.10 0.9726554
1173.20 0.972476
1173.30 0.9722968
1173.40 0.9721175
1173.50 0.9719383
1173.60 0.9717592
1173.70 0.9715801
1173.80 0.9714012
1173.90 0.9712223
1174.00 0.9710435
1174.10 0.9708647
1174.20 0.970686
1174.30 0.9705073
1174.40 0.9703287
1174.50 0.9701501
1174.60 0.9699716
1174.70 0.9697931
1174.80 0.9696147
1174.90 0.9694363
1175.00 0.9692579
1175.10 0.9690796
1175.20 0.9689014
1175.30 0.9687232
1175.40 0.968545
1175.50 0.9683669
1175.60 0.9681888
1175.70 0.9680108
1175.80 0.9678328
1175.90 0.9676549
1176.00 0.967477
1176.10 0.9672992
1176.20 0.9671214
1176.30 0.9669436
1176.40 0.9667659
1176.50 0.9665883
1176.60 0.9664107
1176.70 0.9662331
1176.80 0.9660556
1176.90 0.9658782
1177.00 0.9657007
1177.10 0.9655234
1177.20 0.9653461
1177.30 0.9651688
1177.40 0.9649915
1177.50 0.9648144
1177.60 0.9646372
1177.70 0.9644601
1177.80 0.9642831
1177.90 0.9641061
1178.00 0.9639291
1178.10 0.9637522
1178.20 0.9635753
1178.30 0.9633985
1178.40 0.9632218
1178.50 0.963045
1178.60 0.9628684
1178.70 0.9626917
1178.80 0.9625151
1178.90 0.9623386
1179.00 0.9621621
1179.10 0.9619857
1179.20 0.9618093
1179.30 0.9616329
1179.40 0.9614566
1179.50 0.9612803
1179.60 0.9611041
1179.70 0.9609279
1179.80 0.9607518
1179.90 0.9605757
1180.00 0.9603997
1180.10 0.9602237
1180.20 0.9600478
1180.30 0.9598719
1180.40 0.959696
1180.50 0.9595202
1180.60 0.9593445
1180.70 0.9591688
1180.80 0.9589931
1180.90 0.9588175
1181.00 0.9586419
1181.10 0.9584664
1181.20 0.9582909
1181.30 0.9581155
1181.40 0.9579401
1181.50 0.9577647
1181.60 0.9575894
1181.70 0.9574142
1181.80 0.957239
1181.90 0.9570638
1182.00 0.9568887
1182.10 0.9567136
1182.20 0.9565386
1182.30 0.9563636
1182.40 0.9561887
1182.50 0.9560138
1182.60 0.9558389
1182.70 0.9556641
1182.80 0.9554894
1182.90 0.9553147
1183.00 0.95514
1183.10 0.9549654
1183.20 0.9547908
1183.30 0.9546163
1183.40 0.9544418
1183.50 0.9542674
1183.60 0.954093
1183.70 0.9539186
1183.80 0.9537443
1183.90 0.9535701
1184.00 0.9533959
1184.10 0.9532217
1184.20 0.9530476
1184.30 0.9528735
1184.40 0.9526995
1184.50 0.9525255
1184.60 0.9523516
1184.70 0.9521777
1184.80 0.9520038
1184.90 0.95183
1185.00 0.9516563
1185.10 0.9514825
1185.20 0.9513089
1185.30 0.9511353
1185.40 0.9509617
1185.50 0.9507868
1185.60 0.9506102
1185.70 0.9504337
1185.80 0.9502572
1185.90 0.9500807
1186.00 0.9499043
1186.10 0.9497279
1186.20 0.9495516
1186.30 0.9493753
1186.40 0.9491991
1186.50 0.9490229
1186.60 0.9488467
1186.70 0.9486706
1186.80 0.9484946
1186.90 0.9483186
1187.00 0.9481426
1187.10 0.9479667
1187.20 0.9477908
1187.30 0.947615
1187.40 0.9474392
1187.50 0.9472635
1187.60 0.9470878
1187.70 0.9469122
1187.80 0.9467366
1187.90 0.946561
1188.00 0.9463855
1188.10 0.9462101
1188.20 0.9460347
1188.30 0.9458593
1188.40 0.945684
1188.50 0.9455087
1188.60 0.9453335
1188.70 0.9451583
1188.80 0.9449832
1188.90 0.9448081
1189.00 0.944633
1189.10 0.944458
1189.20 0.9442831
1189.30 0.9441082
1189.40 0.9439333
1189.50 0.9437585
1189.60 0.9435837
1189.70 0.943409
1189.80 0.9432343
1189.90 0.9430597
1190.00 0.9428851
1190.10 0.9427105
1190.20 0.942536
1190.30 0.9423616
1190.40 0.9421872
1190.50 0.9420128
1190.60 0.9418385
1190.70 0.9416642
1190.80 0.94149
1190.90 0.9413158
1191.00 0.9411416
1191.10 0.9409675
1191.20 0.9407935
1191.30 0.9406195
1191.40 0.9404455
1191.50 0.9402716
1191.60 0.9400978
1191.70 0.9399239
1191.80 0.9397502
1191.90 0.9395764
1192.00 0.9394027
1192.10 0.9392291
1192.20 0.9390555
1192.30 0.9388819
1192.40 0.9387084
1192.50 0.938535
1192.60 0.9383616
1192.70 0.9381882
1192.80 0.9380149
1192.90 0.9378416
1193.00 0.9376683
1193.10 0.9374951
1193.20 0.937322
1193.30 0.9371489
1193.40 0.9369758
1193.50 0.9368028
1193.60 0.9366299
1193.70 0.9364569
1193.80 0.9362841
1193.90 0.9361112
1194.00 0.9359384
1194.10 0.9357657
1194.20 0.935593
1194.30 0.9354203
1194.40 0.9352477
1194.50 0.9350752
1194.60 0.9349026
1194.70 0.9347302
1194.80 0.9345577
1194.90 0.9343853
1195.00 0.934213
1195.10 0.9340407
1195.20 0.9338684
1195.30 0.9336962
1195.40 0.9335241
1195.50 0.933352
1195.60 0.9331799
1195.70 0.9330078
1195.80 0.9328359
1195.90 0.9326639
1196.00 0.932492
1196.10 0.9323202
1196.20 0.9321484
1196.30 0.9319766
1196.40 0.9318049
1196.50 0.9316332
1196.60 0.9314616
1196.70 0.93129
1196.80 0.9311184
1196.90 0.9309469
1197.00 0.9307755
1197.10 0.9306041
1197.20 0.9304327
1197.30 0.9302614
1197.40 0.9300903
1197.50 0.9299192
1197.60 0.9297482
1197.70 0.9295772
1197.80 0.9294062
1197.90 0.9292353
1198.00 0.9290645
1198.10 0.9288937
1198.20 0.9287229
1198.30 0.9285522
1198.40 0.9283815
1198.50 0.9282109
1198.60 0.9280403
1198.70 0.9278698
1198.80 0.9276993
1198.90 0.9275288
1199.00 0.9273584
1199.10 0.927188
1199.20 0.9270177
1199.30 0.9268474
1199.40 0.9266772
1199.50 0.926507
1199.60 0.9263368
1199.70 0.9261667
1199.80 0.9259967
1199.90 0.9258267
1200.00 0.9256567
