# Version 2.1 - nm, norm@500 to 1, cut digits, bergeron_He_9500_85.dat_9500
# Wavelength(nm)  Flambda(ergs/cm^s/s/nm)
300.00 1.832148
300.10 1.83199
300.20 1.831825
300.30 1.831661
300.40 1.831501
300.50 1.831341
300.60 1.83118
300.70 1.83102
300.80 1.830859
300.90 1.830698
301.00 1.830537
301.10 1.830376
301.20 1.830214
301.30 1.830053
301.40 1.829891
301.50 1.829729
301.60 1.829566
301.70 1.829404
301.80 1.829241
301.90 1.829078
302.00 1.828915
302.10 1.828774
302.20 1.828635
302.30 1.828495
302.40 1.828356
302.50 1.828216
302.60 1.828075
302.70 1.827935
302.80 1.827795
302.90 1.827654
303.00 1.827513
303.10 1.827372
303.20 1.82723
303.30 1.827088
303.40 1.82694
303.50 1.826791
303.60 1.826643
303.70 1.826494
303.80 1.826345
303.90 1.826196
304.00 1.826046
304.10 1.825896
304.20 1.825747
304.30 1.825597
304.40 1.825446
304.50 1.825296
304.60 1.825119
304.70 1.824939
304.80 1.824758
304.90 1.824578
305.00 1.824397
305.10 1.824217
305.20 1.824036
305.30 1.823855
305.40 1.823673
305.50 1.823492
305.60 1.823311
305.70 1.823129
305.80 1.822947
305.90 1.822765
306.00 1.822583
306.10 1.822401
306.20 1.822218
306.30 1.822036
306.40 1.82185
306.50 1.821662
306.60 1.821475
306.70 1.821288
306.80 1.8211
306.90 1.820912
307.00 1.820725
307.10 1.820537
307.20 1.820348
307.30 1.82016
307.40 1.819972
307.50 1.819783
307.60 1.819594
307.70 1.819405
307.80 1.819216
307.90 1.819027
308.00 1.818838
308.10 1.818649
308.20 1.818459
308.30 1.818269
308.40 1.81808
308.50 1.81789
308.60 1.8177
308.70 1.817509
308.80 1.817348
308.90 1.817267
309.00 1.817085
309.10 1.816903
309.20 1.81672
309.30 1.816537
309.40 1.816346
309.50 1.816098
309.60 1.81585
309.70 1.815602
309.80 1.815353
309.90 1.815105
310.00 1.814857
310.10 1.814609
310.20 1.81436
310.30 1.814112
310.40 1.813901
310.50 1.81373
310.60 1.813559
310.70 1.813389
310.80 1.813218
310.90 1.813046
311.00 1.812791
311.10 1.812536
311.20 1.812281
311.30 1.812023
311.40 1.81176
311.50 1.811496
311.60 1.811232
311.70 1.810968
311.80 1.810704
311.90 1.81044
312.00 1.810177
312.10 1.809913
312.20 1.809808
312.30 1.809587
312.40 1.809179
312.50 1.809552
312.60 1.8093
312.70 1.809049
312.80 1.808797
312.90 1.808494
313.00 1.808136
313.10 1.807777
313.20 1.807419
313.30 1.807094
313.40 1.806865
313.50 1.806636
313.60 1.806406
313.70 1.806177
313.80 1.805948
313.90 1.805718
314.00 1.805489
314.10 1.805288
314.20 1.805088
314.30 1.804887
314.40 1.804686
314.50 1.804485
314.60 1.804285
314.70 1.804083
314.80 1.803858
314.90 1.803587
315.00 1.803339
315.10 1.803079
315.20 1.80282
315.30 1.80256
315.40 1.8023
315.50 1.80204
315.60 1.80178
315.70 1.801465
315.80 1.80115
315.90 1.800835
316.00 1.800521
316.10 1.800371
316.20 1.80022
316.30 1.80007
316.40 1.79959
316.50 1.79944
316.60 1.798961
316.70 1.79881
316.80 1.798659
316.90 1.798344
317.00 1.79803
317.10 1.797715
317.20 1.7974
317.30 1.797395
317.40 1.797297
317.50 1.796932
317.60 1.796567
317.70 1.796202
317.80 1.795838
317.90 1.795566
318.00 1.795746
318.10 1.795431
318.20 1.795116
318.30 1.794801
318.40 1.794528
318.50 1.794376
318.60 1.79397
318.70 1.79359
318.80 1.793665
318.90 1.793188
319.00 1.792964
319.10 1.79281
319.20 1.792627
319.30 1.79236
319.40 1.792092
319.50 1.791824
319.60 1.791368
319.70 1.7911
319.80 1.790832
319.90 1.790564
320.00 1.790197
320.10 1.789722
320.20 1.789581
320.30 1.789105
320.40 1.789272
320.50 1.788797
320.60 1.78863
320.70 1.788156
320.80 1.787758
320.90 1.787444
321.00 1.787129
321.10 1.786815
321.20 1.786957
321.30 1.786618
321.40 1.786279
321.50 1.78594
321.60 1.785601
321.70 1.785262
321.80 1.784966
321.90 1.784716
322.00 1.784654
322.10 1.784336
322.20 1.784018
322.30 1.7837
322.40 1.783382
322.50 1.783064
322.60 1.782746
322.70 1.782428
322.80 1.781952
322.90 1.78169
323.00 1.781428
323.10 1.781167
323.20 1.780905
323.30 1.780643
323.40 1.780381
323.50 1.780119
323.60 1.779857
323.70 1.779595
323.80 1.779333
323.90 1.779071
324.00 1.778645
324.10 1.778218
324.20 1.777792
324.30 1.7774
324.40 1.777127
324.50 1.776875
324.60 1.776623
324.70 1.776372
324.80 1.77612
324.90 1.775868
325.00 1.775616
325.10 1.775364
325.20 1.775052
325.30 1.774612
325.40 1.774171
325.50 1.773791
325.60 1.773485
325.70 1.773178
325.80 1.772871
325.90 1.772543
326.00 1.77219
326.10 1.771837
326.20 1.771484
326.30 1.771197
326.40 1.771093
326.50 1.770775
326.60 1.770456
326.70 1.770138
326.80 1.769819
326.90 1.769501
327.00 1.769183
327.10 1.768864
327.20 1.768546
327.30 1.768228
327.40 1.76791
327.50 1.767592
327.60 1.767274
327.70 1.766956
327.80 1.766638
327.90 1.766241
328.00 1.765848
328.10 1.765563
328.20 1.765278
328.30 1.764993
328.40 1.764709
328.50 1.764342
328.60 1.763955
328.70 1.763569
328.80 1.763206
328.90 1.762908
329.00 1.762609
329.10 1.762311
329.20 1.762012
329.30 1.761714
329.40 1.761416
329.50 1.761118
329.60 1.760819
329.70 1.760521
329.80 1.760223
329.90 1.759925
330.00 1.759555
330.10 1.759099
330.20 1.758642
330.30 1.758186
330.40 1.757806
330.50 1.757508
330.60 1.75721
330.70 1.756912
330.80 1.756614
330.90 1.756316
331.00 1.756018
331.10 1.75572
331.20 1.755423
331.30 1.755125
331.40 1.754827
331.50 1.754512
331.60 1.754176
331.70 1.75384
331.80 1.753492
331.90 1.753144
332.00 1.752796
332.10 1.752448
332.20 1.7521
332.30 1.751752
332.40 1.751405
332.50 1.751057
332.60 1.75071
332.70 1.750362
332.80 1.750015
332.90 1.749668
333.00 1.749321
333.10 1.748951
333.20 1.748554
333.30 1.748158
333.40 1.747761
333.50 1.747365
333.60 1.746969
333.70 1.746573
333.80 1.746177
333.90 1.745781
334.00 1.745385
334.10 1.745008
334.20 1.744652
334.30 1.744296
334.40 1.74394
334.50 1.743584
334.60 1.743229
334.70 1.743074
334.80 1.742975
334.90 1.742607
335.00 1.742239
335.10 1.741605
335.20 1.741152
335.30 1.741022
335.40 1.74057
335.50 1.740191
335.60 1.739666
335.70 1.739477
335.80 1.739025
335.90 1.73864
336.00 1.738334
336.10 1.738029
336.20 1.737724
336.30 1.737397
336.40 1.737043
336.50 1.73669
336.60 1.736337
336.70 1.735983
336.80 1.73563
336.90 1.735231
337.00 1.734776
337.10 1.734321
337.20 1.733866
337.30 1.733455
337.40 1.733107
337.50 1.73276
337.60 1.732412
337.70 1.732065
337.80 1.731718
337.90 1.731368
338.00 1.731014
338.10 1.73066
338.20 1.730307
338.30 1.729953
338.40 1.729594
338.50 1.72922
338.60 1.728846
338.70 1.728472
338.80 1.728098
338.90 1.727724
339.00 1.72735
339.10 1.726977
339.20 1.726604
339.30 1.726206
339.40 1.725772
339.50 1.725372
339.60 1.725014
339.70 1.724655
339.80 1.724296
339.90 1.723938
340.00 1.723579
340.10 1.723221
340.20 1.722863
340.30 1.722505
340.40 1.722147
340.50 1.72179
340.60 1.721432
340.70 1.721074
340.80 1.720687
340.90 1.720256
341.00 1.71982
341.10 1.719378
341.20 1.718936
341.30 1.718495
341.40 1.718053
341.50 1.717612
341.60 1.717171
341.70 1.716731
341.80 1.716335
341.90 1.715994
342.00 1.715654
342.10 1.715313
342.20 1.715122
342.30 1.714724
342.40 1.714232
342.50 1.713891
342.60 1.71355
342.70 1.713209
342.80 1.712868
342.90 1.712527
343.00 1.71214
343.10 1.711696
343.20 1.711252
343.30 1.710809
343.40 1.710368
343.50 1.709931
343.60 1.709494
343.70 1.709057
343.80 1.70862
343.90 1.708184
344.00 1.707805
344.10 1.707508
344.20 1.707211
344.30 1.706914
344.40 1.70656
344.50 1.706125
344.60 1.705476
344.70 1.705318
344.80 1.704606
344.90 1.704449
345.00 1.703951
345.10 1.703516
345.20 1.703085
345.30 1.702659
345.40 1.702233
345.50 1.701794
345.60 1.701386
345.70 1.701045
345.80 1.700704
345.90 1.700364
346.00 1.700023
346.10 1.699682
346.20 1.699304
346.30 1.698873
346.40 1.698441
346.50 1.698009
346.60 1.697578
346.70 1.697147
346.80 1.696716
346.90 1.696286
347.00 1.695855
347.10 1.695425
347.20 1.695
347.30 1.694584
347.40 1.694167
347.50 1.693751
347.60 1.693335
347.70 1.692919
347.80 1.692503
347.90 1.692088
348.00 1.691672
348.10 1.691257
348.20 1.690842
348.30 1.690428
348.40 1.690013
348.50 1.689599
348.60 1.689185
348.70 1.688959
348.80 1.688686
348.90 1.68826
349.00 1.687833
349.10 1.687407
349.20 1.686981
349.30 1.686555
349.40 1.686129
349.50 1.685704
349.60 1.685279
349.70 1.684854
349.80 1.684429
349.90 1.684005
350.00 1.68358
350.10 1.683156
350.20 1.682732
350.30 1.682308
350.40 1.681882
350.50 1.681456
350.60 1.68103
350.70 1.680605
350.80 1.68018
350.90 1.679755
351.00 1.679331
351.10 1.678906
351.20 1.678482
351.30 1.678058
351.40 1.677649
351.50 1.677266
351.60 1.676884
351.70 1.676502
351.80 1.676119
351.90 1.675737
352.00 1.675356
352.10 1.674974
352.20 1.674401
352.30 1.673886
352.40 1.673484
352.50 1.673083
352.60 1.672682
352.70 1.672281
352.80 1.67188
352.90 1.671479
353.00 1.671079
353.10 1.670679
353.20 1.670279
353.30 1.669879
353.40 1.669479
353.50 1.669024
353.60 1.668554
353.70 1.668085
353.80 1.667617
353.90 1.667168
354.00 1.666755
354.10 1.666342
354.20 1.66593
354.30 1.665517
354.40 1.665105
354.50 1.664693
354.60 1.664281
354.70 1.663869
354.80 1.663436
354.90 1.662974
355.00 1.662511
355.10 1.662049
355.20 1.661587
355.30 1.661136
355.40 1.660685
355.50 1.660235
355.60 1.659785
355.70 1.659464
355.80 1.659201
355.90 1.658698
356.00 1.658169
356.10 1.657742
356.20 1.657315
356.30 1.656888
356.40 1.656461
356.50 1.656034
356.60 1.655608
356.70 1.655182
356.80 1.654756
356.90 1.65433
357.00 1.653905
357.10 1.653479
357.20 1.653054
357.30 1.652629
357.40 1.652191
357.50 1.651727
357.60 1.651263
357.70 1.6508
357.80 1.650345
357.90 1.64989
358.00 1.649456
358.10 1.649027
358.20 1.648598
358.30 1.64817
358.40 1.647741
358.50 1.647313
358.60 1.646885
358.70 1.646458
358.80 1.64603
358.90 1.645603
359.00 1.645165
359.10 1.644707
359.20 1.644247
359.30 1.64377
359.40 1.643293
359.50 1.642903
359.60 1.642535
359.70 1.642168
359.80 1.641641
359.90 1.641114
360.00 1.640619
360.10 1.640181
360.20 1.639743
360.30 1.639306
360.40 1.638869
360.50 1.638431
360.60 1.638171
360.70 1.637643
360.80 1.637114
360.90 1.636587
361.00 1.636248
361.10 1.635803
361.20 1.635627
361.30 1.634923
361.40 1.634321
361.50 1.633921
361.60 1.633703
361.70 1.633303
361.80 1.632864
361.90 1.632355
362.00 1.631846
362.10 1.631302
362.20 1.630784
362.30 1.630324
362.40 1.629864
362.50 1.629405
362.60 1.628946
362.70 1.628692
362.80 1.628239
362.90 1.62784
363.00 1.627441
363.10 1.627001
363.20 1.626561
363.30 1.625757
363.40 1.625486
363.50 1.624966
363.60 1.62457
363.70 1.624231
363.80 1.62378
363.90 1.623362
364.00 1.622944
364.10 1.622525
364.20 1.622108
364.30 1.621532
364.40 1.620918
364.50 1.62053
364.60 1.620135
364.70 1.61974
364.80 1.619346
364.90 1.618953
365.00 1.618561
365.10 1.617921
365.20 1.617529
365.30 1.616891
365.40 1.616499
365.50 1.616108
365.60 1.615717
365.70 1.615281
365.80 1.614846
365.90 1.614271
366.00 1.613663
366.10 1.613264
366.20 1.612866
366.30 1.612468
366.40 1.612071
366.50 1.61171
366.60 1.610836
366.70 1.610514
366.80 1.610193
366.90 1.60983
367.00 1.609392
367.10 1.608955
367.20 1.608518
367.30 1.608082
367.40 1.607645
367.50 1.607075
367.60 1.606472
367.70 1.605983
367.80 1.605494
367.90 1.605006
368.00 1.604684
368.10 1.604055
368.20 1.603626
368.30 1.603201
368.40 1.602776
368.50 1.602351
368.60 1.601927
368.70 1.601502
368.80 1.601078
368.90 1.600495
369.00 1.600055
369.10 1.599723
369.20 1.599345
369.30 1.598801
369.40 1.598257
369.50 1.597714
369.60 1.597329
369.70 1.596945
369.80 1.596473
369.90 1.596
370.00 1.595528
370.10 1.594943
370.20 1.594557
370.30 1.594176
370.40 1.593549
370.50 1.593174
370.60 1.592561
370.70 1.592181
370.80 1.591799
370.90 1.591417
371.00 1.590802
371.10 1.590186
371.20 1.589805
371.30 1.589424
371.40 1.589179
371.50 1.588679
371.60 1.588179
371.70 1.58768
371.80 1.587181
371.90 1.586682
372.00 1.586105
372.10 1.585932
372.20 1.585397
372.30 1.584863
372.40 1.584328
372.50 1.583794
372.60 1.583261
372.70 1.582727
372.80 1.58235
372.90 1.581973
373.00 1.581601
373.10 1.581229
373.20 1.580618
373.30 1.580008
373.40 1.579634
373.50 1.57926
373.60 1.578887
373.70 1.578042
373.80 1.577773
373.90 1.577297
374.00 1.576807
374.10 1.576317
374.20 1.575828
374.30 1.575338
374.40 1.575084
374.50 1.574596
374.60 1.574105
374.70 1.573617
374.80 1.57313
374.90 1.572644
375.00 1.572117
375.10 1.571591
375.20 1.571066
375.30 1.57063
375.40 1.570194
375.50 1.569758
375.60 1.569323
375.70 1.568887
375.80 1.568452
375.90 1.568018
376.00 1.567645
376.10 1.567117
376.20 1.566589
376.30 1.56606
376.40 1.565532
376.50 1.565011
376.60 1.564501
376.70 1.56399
376.80 1.563536
376.90 1.563139
377.00 1.562742
377.10 1.562346
377.20 1.561919
377.30 1.56138
377.40 1.56084
377.50 1.560302
377.60 1.559877
377.70 1.559453
377.80 1.559029
377.90 1.558605
378.00 1.558021
378.10 1.557567
378.20 1.557116
378.30 1.556666
378.40 1.556216
378.50 1.555767
378.60 1.555317
378.70 1.554868
378.80 1.554419
378.90 1.55396
379.00 1.553479
379.10 1.553027
379.20 1.552574
379.30 1.552087
379.40 1.551564
379.50 1.551041
379.60 1.550555
379.70 1.550112
379.80 1.549629
379.90 1.549146
380.00 1.548664
380.10 1.548182
380.20 1.547701
380.30 1.547219
380.40 1.546738
380.50 1.546258
380.60 1.545614
380.70 1.545215
380.80 1.544817
380.90 1.544419
381.00 1.544021
381.10 1.543494
381.20 1.542854
381.30 1.542498
381.40 1.541852
381.50 1.541508
381.60 1.541131
381.70 1.540624
381.80 1.539817
381.90 1.539462
382.00 1.539108
382.10 1.538528
382.20 1.538129
382.30 1.537775
382.40 1.537364
382.50 1.536868
382.60 1.536372
382.70 1.535732
382.80 1.535086
382.90 1.534599
383.00 1.534112
383.10 1.533625
383.20 1.533177
383.30 1.532872
383.40 1.532498
383.50 1.532019
383.60 1.531252
383.70 1.530808
383.80 1.530364
383.90 1.52992
384.00 1.529476
384.10 1.529033
384.20 1.52859
384.30 1.528147
384.40 1.527684
384.50 1.527201
384.60 1.526719
384.70 1.526237
384.80 1.525689
384.90 1.52503
385.00 1.52462
385.10 1.524202
385.20 1.523622
385.30 1.523282
385.40 1.522872
385.50 1.522392
385.60 1.521912
385.70 1.521433
385.80 1.520943
385.90 1.520414
386.00 1.519912
386.10 1.519441
386.20 1.518995
386.30 1.51855
386.40 1.518042
386.50 1.51759
386.60 1.516915
386.70 1.516461
386.80 1.516117
386.90 1.515664
387.00 1.514991
387.10 1.514648
387.20 1.514184
387.30 1.513534
387.40 1.513181
387.50 1.512595
387.60 1.512127
387.70 1.511676
387.80 1.511225
387.90 1.510774
388.00 1.510362
388.10 1.509914
388.20 1.509275
388.30 1.508775
388.40 1.508276
388.50 1.507813
388.60 1.50734
388.70 1.506958
388.80 1.506389
388.90 1.505886
389.00 1.505548
389.10 1.504953
389.20 1.504625
389.30 1.504176
389.40 1.503626
389.50 1.503134
389.60 1.50265
389.70 1.501982
389.80 1.501507
389.90 1.501031
390.00 1.500556
390.10 1.500082
390.20 1.499607
390.30 1.499118
390.40 1.498611
390.50 1.498104
390.60 1.497598
390.70 1.497092
390.80 1.4967
390.90 1.496421
391.00 1.495844
391.10 1.495288
391.20 1.494811
391.30 1.49449
391.40 1.494013
391.50 1.493536
391.60 1.49306
391.70 1.492584
391.80 1.492108
391.90 1.491499
392.00 1.490886
392.10 1.490497
392.20 1.490074
392.30 1.48946
392.40 1.488984
392.50 1.488653
392.60 1.487894
392.70 1.487564
392.80 1.487234
392.90 1.486556
393.00 1.486027
393.10 1.485536
393.20 1.485081
393.30 1.484539
393.40 1.484084
393.50 1.483649
393.60 1.483156
393.70 1.482567
393.80 1.482258
393.90 1.481718
394.00 1.481221
394.10 1.480933
394.20 1.480397
394.30 1.479938
394.40 1.479427
394.50 1.478677
394.60 1.4784
394.70 1.478065
394.80 1.47751
394.90 1.476964
395.00 1.476625
395.10 1.475877
395.20 1.47535
395.30 1.474879
395.40 1.474407
395.50 1.473986
395.60 1.473583
395.70 1.47316
395.80 1.47268
395.90 1.4722
396.00 1.471697
396.10 1.471011
396.20 1.470478
396.30 1.470173
396.40 1.469567
396.50 1.469177
396.60 1.468578
396.70 1.468183
396.80 1.467613
396.90 1.467122
397.00 1.466801
397.10 1.46641
397.20 1.465741
397.30 1.465074
397.40 1.4646
397.50 1.464125
397.60 1.463654
397.70 1.463213
397.80 1.462773
397.90 1.462333
398.00 1.461896
398.10 1.461458
398.20 1.460962
398.30 1.460398
398.40 1.45984
398.50 1.459427
398.60 1.459106
398.70 1.458599
398.80 1.458036
398.90 1.457523
399.00 1.457099
399.10 1.456394
399.20 1.455949
399.30 1.455504
399.40 1.45506
399.50 1.454615
399.60 1.454156
399.70 1.453692
399.80 1.453228
399.90 1.452764
400.00 1.452293
400.10 1.451567
400.20 1.451253
400.30 1.450658
400.40 1.450096
400.50 1.449901
400.60 1.449327
400.70 1.448809
400.80 1.448141
400.90 1.447829
401.00 1.447132
401.10 1.446795
401.20 1.446395
401.30 1.445762
401.40 1.445263
401.50 1.444846
401.60 1.44443
401.70 1.444025
401.80 1.443391
401.90 1.442886
402.00 1.442377
402.10 1.442053
402.20 1.441336
402.30 1.441026
402.40 1.440588
402.50 1.440001
402.60 1.439692
402.70 1.438977
402.80 1.438669
402.90 1.438117
403.00 1.437607
403.10 1.436934
403.20 1.436636
403.30 1.436235
403.40 1.435607
403.50 1.435085
403.60 1.434623
403.70 1.434283
403.80 1.433579
403.90 1.433099
404.00 1.432789
404.10 1.432252
404.20 1.431745
404.30 1.431238
404.40 1.430933
404.50 1.430226
404.60 1.429921
404.70 1.429215
404.80 1.428911
404.90 1.428205
405.00 1.427902
405.10 1.427426
405.20 1.427008
405.30 1.426591
405.40 1.426087
405.50 1.425584
405.60 1.425082
405.70 1.424579
405.80 1.424077
405.90 1.423576
406.00 1.423116
406.10 1.422656
406.20 1.422197
406.30 1.421738
406.40 1.421272
406.50 1.420673
406.60 1.420272
406.70 1.419699
406.80 1.419156
406.90 1.418583
407.00 1.418085
407.10 1.417587
407.20 1.417089
407.30 1.416592
407.40 1.416095
407.50 1.415599
407.60 1.415102
407.70 1.414607
407.80 1.414111
407.90 1.413616
408.00 1.41314
408.10 1.412818
408.20 1.412426
408.30 1.411863
408.40 1.411301
408.50 1.411039
408.60 1.410485
408.70 1.409932
408.80 1.409413
408.90 1.409104
409.00 1.408567
409.10 1.408029
409.20 1.407492
409.30 1.406955
409.40 1.406423
409.50 1.406014
409.60 1.405605
409.70 1.405177
409.80 1.404672
409.90 1.404162
410.00 1.403477
410.10 1.403119
410.20 1.402623
410.30 1.402092
410.40 1.401587
410.50 1.401161
410.60 1.400736
410.70 1.400291
410.80 1.399767
410.90 1.399244
411.00 1.398767
411.10 1.398308
411.20 1.397848
411.30 1.397345
411.40 1.396674
411.50 1.39627
411.60 1.395867
411.70 1.395448
411.80 1.394964
411.90 1.394442
412.00 1.393765
412.10 1.393477
412.20 1.392801
412.30 1.392513
412.40 1.391852
412.50 1.39155
412.60 1.390876
412.70 1.390443
412.80 1.39007
412.90 1.389628
413.00 1.389011
413.10 1.388568
413.20 1.388126
413.30 1.387684
413.40 1.387242
413.50 1.386754
413.60 1.38613
413.70 1.385652
413.80 1.385175
413.90 1.384698
414.00 1.384222
414.10 1.383745
414.20 1.383223
414.30 1.382939
414.40 1.382272
414.50 1.381988
414.60 1.381368
414.70 1.380893
414.80 1.380419
414.90 1.379945
415.00 1.379471
415.10 1.378998
415.20 1.378508
415.30 1.377963
415.40 1.377418
415.50 1.376879
415.60 1.37649
415.70 1.376101
415.80 1.375677
415.90 1.375141
416.00 1.374605
416.10 1.374081
416.20 1.373603
416.30 1.373126
416.40 1.372648
416.50 1.372172
416.60 1.371703
416.70 1.371229
416.80 1.370571
416.90 1.370292
417.00 1.369635
417.10 1.369363
417.20 1.368896
417.30 1.368427
417.40 1.367905
417.50 1.367384
417.60 1.366836
417.70 1.366187
417.80 1.365722
417.90 1.365257
418.00 1.364792
418.10 1.364328
418.20 1.363864
418.30 1.363394
418.40 1.362792
418.50 1.362345
418.60 1.361898
418.70 1.361452
418.80 1.361005
418.90 1.36056
419.00 1.360114
419.10 1.359669
419.20 1.359224
419.30 1.358777
419.40 1.358261
419.50 1.357746
419.60 1.35723
419.70 1.356709
419.80 1.35619
419.90 1.355683
420.00 1.355221
420.10 1.354759
420.20 1.354297
420.30 1.353835
420.40 1.353373
420.50 1.352912
420.60 1.352451
420.70 1.351991
420.80 1.351531
420.90 1.351069
421.00 1.350561
421.10 1.350053
421.20 1.349552
421.30 1.34907
421.40 1.348589
421.50 1.348108
421.60 1.347627
421.70 1.347147
421.80 1.346666
421.90 1.346192
422.00 1.345735
422.10 1.345266
422.20 1.344746
422.30 1.344225
422.40 1.343706
422.50 1.34322
422.60 1.342733
422.70 1.342247
422.80 1.341761
422.90 1.341276
423.00 1.34079
423.10 1.340305
423.20 1.339821
423.30 1.339336
423.40 1.338852
423.50 1.338369
423.60 1.337885
423.70 1.337402
423.80 1.336919
423.90 1.336437
424.00 1.335955
424.10 1.335473
424.20 1.334991
424.30 1.33451
424.40 1.333998
424.50 1.333517
424.60 1.333037
424.70 1.332557
424.80 1.332077
424.90 1.331597
425.00 1.331118
425.10 1.330639
425.20 1.330161
425.30 1.329683
425.40 1.329204
425.50 1.328724
425.60 1.328244
425.70 1.327765
425.80 1.327286
425.90 1.326807
426.00 1.326328
426.10 1.32585
426.20 1.325372
426.30 1.324894
426.40 1.324417
426.50 1.32394
426.60 1.323463
426.70 1.322986
426.80 1.32251
426.90 1.322035
427.00 1.321568
427.10 1.321102
427.20 1.320636
427.30 1.32017
427.40 1.319704
427.50 1.319239
427.60 1.318774
427.70 1.318309
427.80 1.317845
427.90 1.317381
428.00 1.316917
428.10 1.316454
428.20 1.315991
428.30 1.315528
428.40 1.315065
428.50 1.314603
428.60 1.314141
428.70 1.313679
428.80 1.313216
428.90 1.312732
429.00 1.312249
429.10 1.311767
429.20 1.311284
429.30 1.310802
429.40 1.31032
429.50 1.309839
429.60 1.309358
429.70 1.308877
429.80 1.308396
429.90 1.307916
430.00 1.307436
430.10 1.306956
430.20 1.306477
430.30 1.305998
430.40 1.305519
430.50 1.30504
430.60 1.304562
430.70 1.304084
430.80 1.303607
430.90 1.30313
431.00 1.302653
431.10 1.302176
431.20 1.3017
431.30 1.301223
431.40 1.300744
431.50 1.300265
431.60 1.299786
431.70 1.299308
431.80 1.29883
431.90 1.298352
432.00 1.297875
432.10 1.297398
432.20 1.296921
432.30 1.296444
432.40 1.295968
432.50 1.295492
432.60 1.295016
432.70 1.294541
432.80 1.294066
432.90 1.293591
433.00 1.293117
433.10 1.292643
433.20 1.292169
433.30 1.291697
433.40 1.291253
433.50 1.290809
433.60 1.290366
433.70 1.289922
433.80 1.289411
433.90 1.288817
434.00 1.288299
434.10 1.287828
434.20 1.287358
434.30 1.286887
434.40 1.286417
434.50 1.285948
434.60 1.285478
434.70 1.285009
434.80 1.28454
434.90 1.284069
435.00 1.283598
435.10 1.283127
435.20 1.282656
435.30 1.282186
435.40 1.281716
435.50 1.281246
435.60 1.280777
435.70 1.280307
435.80 1.279838
435.90 1.27937
436.00 1.278902
436.10 1.278434
436.20 1.277966
436.30 1.277558
436.40 1.277212
436.50 1.276719
436.60 1.276226
436.70 1.275733
436.80 1.27524
436.90 1.274748
437.00 1.274256
437.10 1.273764
437.20 1.273299
437.30 1.272857
437.40 1.272414
437.50 1.271947
437.60 1.27148
437.70 1.271014
437.80 1.270548
437.90 1.270082
438.00 1.269618
438.10 1.269169
438.20 1.268721
438.30 1.268214
438.40 1.267648
438.50 1.267241
438.60 1.266823
438.70 1.266245
438.80 1.265668
438.90 1.265433
439.00 1.264869
439.10 1.264464
439.20 1.264053
439.30 1.263563
439.40 1.263073
439.50 1.262583
439.60 1.262088
439.70 1.261514
439.80 1.261011
439.90 1.260593
440.00 1.260175
440.10 1.259758
440.20 1.259337
440.30 1.258867
440.40 1.258398
440.50 1.257928
440.60 1.257459
440.70 1.25699
440.80 1.256522
440.90 1.256053
441.00 1.255585
441.10 1.255118
441.20 1.254643
441.30 1.254075
441.40 1.253559
441.50 1.253106
441.60 1.252654
441.70 1.252142
441.80 1.251678
441.90 1.251215
442.00 1.250752
442.10 1.250289
442.20 1.249827
442.30 1.249364
442.40 1.248906
442.50 1.248452
442.60 1.247998
442.70 1.2475
442.80 1.246951
442.90 1.246596
443.00 1.246147
443.10 1.245584
443.20 1.245107
443.30 1.244707
443.40 1.24431
443.50 1.243916
443.60 1.243448
443.70 1.242887
443.80 1.242327
443.90 1.242102
444.00 1.241542
444.10 1.240983
444.20 1.240759
444.30 1.240209
444.40 1.239778
444.50 1.239348
444.60 1.23886
444.70 1.238303
444.80 1.237789
444.90 1.237314
445.00 1.23684
445.10 1.236366
445.20 1.235906
445.30 1.235463
445.40 1.235021
445.50 1.234578
445.60 1.234136
445.70 1.233694
445.80 1.233237
445.90 1.232765
446.00 1.232294
446.10 1.231823
446.20 1.231315
446.30 1.230763
446.40 1.230298
446.50 1.229912
446.60 1.229527
446.70 1.229141
446.80 1.22867
446.90 1.228121
447.00 1.227571
447.10 1.227022
447.20 1.226803
447.30 1.226254
447.40 1.225792
447.50 1.225409
447.60 1.22494
447.70 1.224393
447.80 1.223923
447.90 1.223546
448.00 1.22311
448.10 1.222619
448.20 1.222128
448.30 1.221638
448.40 1.221148
448.50 1.220658
448.60 1.220209
448.70 1.219799
448.80 1.219385
448.90 1.218912
449.00 1.21844
449.10 1.217968
449.20 1.217497
449.30 1.216993
449.40 1.216583
449.50 1.216174
449.60 1.215741
449.70 1.215287
449.80 1.214833
449.90 1.21438
450.00 1.213927
450.10 1.213474
450.20 1.213021
450.30 1.212569
450.40 1.212085
450.50 1.211601
450.60 1.211117
450.70 1.210634
450.80 1.210151
450.90 1.209668
451.00 1.209262
451.10 1.208857
451.20 1.208384
451.30 1.207848
451.40 1.207475
451.50 1.207102
451.60 1.206567
451.70 1.206033
451.80 1.205499
451.90 1.205288
452.00 1.204755
452.10 1.204222
452.20 1.20377
452.30 1.203318
452.40 1.202867
452.50 1.202416
452.60 1.201884
452.70 1.201427
452.80 1.201039
452.90 1.200651
453.00 1.200263
453.10 1.199875
453.20 1.199395
453.30 1.198914
453.40 1.198435
453.50 1.197955
453.60 1.197476
453.70 1.196997
453.80 1.196538
453.90 1.196103
454.00 1.195669
454.10 1.195235
454.20 1.194767
454.30 1.1943
454.40 1.193832
454.50 1.193365
454.60 1.192898
454.70 1.192433
454.80 1.191969
454.90 1.191506
455.00 1.191043
455.10 1.19058
455.20 1.190117
455.30 1.189655
455.40 1.189193
455.50 1.188731
455.60 1.18827
455.70 1.187809
455.80 1.187373
455.90 1.186937
456.00 1.186501
456.10 1.186067
456.20 1.185635
456.30 1.185204
456.40 1.184773
456.50 1.184342
456.60 1.183911
456.70 1.183481
456.80 1.183051
456.90 1.182621
457.00 1.182192
457.10 1.181763
457.20 1.181288
457.30 1.180838
457.40 1.180388
457.50 1.179938
457.60 1.179488
457.70 1.179039
457.80 1.17859
457.90 1.178141
458.00 1.177692
458.10 1.177244
458.20 1.176796
458.30 1.176349
458.40 1.175901
458.50 1.175454
458.60 1.175007
458.70 1.174553
458.80 1.174096
458.90 1.173639
459.00 1.173183
459.10 1.172726
459.20 1.17227
459.30 1.171825
459.40 1.171381
459.50 1.170936
459.60 1.170492
459.70 1.170048
459.80 1.169604
459.90 1.169161
460.00 1.168718
460.10 1.168275
460.20 1.167833
460.30 1.16739
460.40 1.166948
460.50 1.166507
460.60 1.166065
460.70 1.165622
460.80 1.165179
460.90 1.164736
461.00 1.164293
461.10 1.163851
461.20 1.163364
461.30 1.16286
461.40 1.162421
461.50 1.161999
461.60 1.161577
461.70 1.161155
461.80 1.160695
461.90 1.160236
462.00 1.159777
462.10 1.159318
462.20 1.15886
462.30 1.158402
462.40 1.157944
462.50 1.157486
462.60 1.157029
462.70 1.156572
462.80 1.156115
462.90 1.155659
463.00 1.155203
463.10 1.154747
463.20 1.154324
463.30 1.153914
463.40 1.153505
463.50 1.153096
463.60 1.152688
463.70 1.152279
463.80 1.151871
463.90 1.151423
464.00 1.150964
464.10 1.150506
464.20 1.150048
464.30 1.149591
464.40 1.149133
464.50 1.148676
464.60 1.14822
464.70 1.147772
464.80 1.147328
464.90 1.146884
465.00 1.146441
465.10 1.145998
465.20 1.145555
465.30 1.145114
465.40 1.144674
465.50 1.144235
465.60 1.143796
465.70 1.143357
465.80 1.142919
465.90 1.142498
466.00 1.142082
466.10 1.141666
466.20 1.14125
466.30 1.140826
466.40 1.140397
466.50 1.139969
466.60 1.139541
466.70 1.139113
466.80 1.138685
466.90 1.138258
467.00 1.137831
467.10 1.137404
467.20 1.136978
467.30 1.136509
467.40 1.136022
467.50 1.135536
467.60 1.135051
467.70 1.134566
467.80 1.134081
467.90 1.133649
468.00 1.13324
468.10 1.132831
468.20 1.132422
468.30 1.131961
468.40 1.131477
468.50 1.131227
468.60 1.130812
468.70 1.130329
468.80 1.129847
468.90 1.129365
469.00 1.128884
469.10 1.128455
469.20 1.128049
469.30 1.127643
469.40 1.127238
469.50 1.126825
469.60 1.12641
469.70 1.125995
469.80 1.12558
469.90 1.12516
470.00 1.124681
470.10 1.124246
470.20 1.123829
470.30 1.123411
470.40 1.122994
470.50 1.122578
470.60 1.122113
470.70 1.121636
470.80 1.12116
470.90 1.120684
471.00 1.120208
471.10 1.119732
471.20 1.119554
471.30 1.119079
471.40 1.118604
471.50 1.11813
471.60 1.117655
471.70 1.117182
471.80 1.116767
471.90 1.116368
472.00 1.115969
472.10 1.11557
472.20 1.115112
472.30 1.11464
472.40 1.114168
472.50 1.113697
472.60 1.113226
472.70 1.112985
472.80 1.112602
472.90 1.112161
473.00 1.11172
473.10 1.11128
473.20 1.11084
473.30 1.1104
473.40 1.10996
473.50 1.109521
473.60 1.109082
473.70 1.108643
473.80 1.108181
473.90 1.107713
474.00 1.107246
474.10 1.106779
474.20 1.106357
474.30 1.105954
474.40 1.105551
474.50 1.105148
474.60 1.104744
474.70 1.104319
474.80 1.103894
474.90 1.103469
475.00 1.103044
475.10 1.10262
475.20 1.102196
475.30 1.101772
475.40 1.101346
475.50 1.100919
475.60 1.100492
475.70 1.100065
475.80 1.099639
475.90 1.099212
476.00 1.098787
476.10 1.098361
476.20 1.09794
476.30 1.097521
476.40 1.097102
476.50 1.096684
476.60 1.096266
476.70 1.095848
476.80 1.09543
476.90 1.095005
477.00 1.094578
477.10 1.094151
477.20 1.093724
477.30 1.093298
477.40 1.092872
477.50 1.092446
477.60 1.092021
477.70 1.091596
477.80 1.091171
477.90 1.090746
478.00 1.090321
478.10 1.089897
478.20 1.089473
478.30 1.08905
478.40 1.088626
478.50 1.088203
478.60 1.08778
478.70 1.087335
478.80 1.086881
478.90 1.086427
479.00 1.085973
479.10 1.08552
479.20 1.085067
479.30 1.084614
479.40 1.084182
479.50 1.083763
479.60 1.083343
479.70 1.082924
479.80 1.082505
479.90 1.082087
480.00 1.081668
480.10 1.08125
480.20 1.080832
480.30 1.080415
480.40 1.079997
480.50 1.07958
480.60 1.079163
480.70 1.078747
480.80 1.07833
480.90 1.077914
481.00 1.077498
481.10 1.077083
481.20 1.076661
481.30 1.07624
481.40 1.075819
481.50 1.075398
481.60 1.074978
481.70 1.074557
481.80 1.074137
481.90 1.073717
482.00 1.073298
482.10 1.072879
482.20 1.072459
482.30 1.072035
482.40 1.07161
482.50 1.071186
482.60 1.070762
482.70 1.070339
482.80 1.069916
482.90 1.069493
483.00 1.06907
483.10 1.068647
483.20 1.068225
483.30 1.067803
483.40 1.067382
483.50 1.06696
483.60 1.066539
483.70 1.066151
483.80 1.065764
483.90 1.065376
484.00 1.064989
484.10 1.064602
484.20 1.064178
484.30 1.063739
484.40 1.0633
484.50 1.062861
484.60 1.062422
484.70 1.061986
484.80 1.061579
484.90 1.061172
485.00 1.060765
485.10 1.060359
485.20 1.059953
485.30 1.059547
485.40 1.059141
485.50 1.058736
485.60 1.058331
485.70 1.05792
485.80 1.05751
485.90 1.057101
486.00 1.056691
486.10 1.056282
486.20 1.055873
486.30 1.055464
486.40 1.055056
486.50 1.054648
486.60 1.05424
486.70 1.05383
486.80 1.053397
486.90 1.052965
487.00 1.052532
487.10 1.0521
487.20 1.051694
487.30 1.051287
487.40 1.050881
487.50 1.050476
487.60 1.05007
487.70 1.049665
487.80 1.04926
487.90 1.048855
488.00 1.048451
488.10 1.048046
488.20 1.047641
488.30 1.047212
488.40 1.046783
488.50 1.046354
488.60 1.045926
488.70 1.045498
488.80 1.04507
488.90 1.044643
489.00 1.044226
489.10 1.043837
489.20 1.043448
489.30 1.04306
489.40 1.042671
489.50 1.042283
489.60 1.041895
489.70 1.041507
489.80 1.041082
489.90 1.040657
490.00 1.040232
490.10 1.039808
490.20 1.039384
490.30 1.03896
490.40 1.038536
490.50 1.038113
490.60 1.037689
490.70 1.037267
490.80 1.036844
490.90 1.036422
491.00 1.035999
491.10 1.035851
491.20 1.035429
491.30 1.035008
491.40 1.034586
491.50 1.034165
491.60 1.033745
491.70 1.033324
491.80 1.032904
491.90 1.032484
492.00 1.032064
492.10 1.031645
492.20 1.031226
492.30 1.030807
492.40 1.030388
492.50 1.02997
492.60 1.029552
492.70 1.029134
492.80 1.028716
492.90 1.028299
493.00 1.027886
493.10 1.027522
493.20 1.027159
493.30 1.026796
493.40 1.026433
493.50 1.026071
493.60 1.025655
493.70 1.025239
493.80 1.024824
493.90 1.024409
494.00 1.023995
494.10 1.02358
494.20 1.023166
494.30 1.022752
494.40 1.022338
494.50 1.021925
494.60 1.021512
494.70 1.021099
494.80 1.020686
494.90 1.020274
495.00 1.019861
495.10 1.019449
495.20 1.019066
495.30 1.018682
495.40 1.018298
495.50 1.017915
495.60 1.017532
495.70 1.017149
495.80 1.016767
495.90 1.016384
496.00 1.016002
496.10 1.015611
496.20 1.015202
496.30 1.014793
496.40 1.014384
496.50 1.013976
496.60 1.013567
496.70 1.013159
496.80 1.012751
496.90 1.012344
497.00 1.011936
497.10 1.011529
497.20 1.011123
497.30 1.010716
497.40 1.01031
497.50 1.009903
497.60 1.009498
497.70 1.009092
497.80 1.008687
497.90 1.008281
498.00 1.007877
498.10 1.007472
498.20 1.007068
498.30 1.006663
498.40 1.006259
498.50 1.005856
498.60 1.005452
498.70 1.005049
498.80 1.004646
498.90 1.004243
499.00 1.003841
499.10 1.003439
499.20 1.003037
499.30 1.002635
499.40 1.002234
499.50 1.001832
499.60 1.001431
499.70 1.001034
499.80 1.000689
499.90 1.000345
500.00 1
500.10 0.9996556
500.20 0.9992936
500.30 0.9988942
500.40 0.998495
500.50 0.998096
500.60 0.9976973
500.70 0.9972988
500.80 0.9969006
500.90 0.9965026
501.00 0.9961048
501.10 0.9957073
501.20 0.99531
501.30 0.9949129
501.40 0.9945161
501.50 0.9941195
501.60 0.9937232
501.70 0.9933271
501.80 0.9929312
501.90 0.9925356
502.00 0.9921402
502.10 0.9917451
502.20 0.9913501
502.30 0.9909554
502.40 0.990561
502.50 0.9901668
502.60 0.9897728
502.70 0.9893791
502.80 0.9889856
502.90 0.9885923
503.00 0.9881992
503.10 0.9878064
503.20 0.9874139
503.30 0.9870215
503.40 0.9866294
503.50 0.9862376
503.60 0.9858459
503.70 0.9854545
503.80 0.9850633
503.90 0.9846724
504.00 0.9842817
504.10 0.9838912
504.20 0.983501
504.30 0.983111
504.40 0.9827212
504.50 0.9823317
504.60 0.9819424
504.70 0.9815533
504.80 0.9811644
504.90 0.9807758
505.00 0.9803874
505.10 0.9799993
505.20 0.9796113
505.30 0.9792236
505.40 0.9788362
505.50 0.9784489
505.60 0.9780619
505.70 0.9776752
505.80 0.9772886
505.90 0.9769023
506.00 0.9765162
506.10 0.9761303
506.20 0.9757447
506.30 0.9753593
506.40 0.9749741
506.50 0.9745892
506.60 0.9742045
506.70 0.97382
506.80 0.9734357
506.90 0.9730517
507.00 0.9726679
507.10 0.9722843
507.20 0.9719009
507.30 0.9715178
507.40 0.9711349
507.50 0.9707522
507.60 0.9703698
507.70 0.9699875
507.80 0.9696055
507.90 0.9692238
508.00 0.9688422
508.10 0.9684609
508.20 0.9680798
508.30 0.9676989
508.40 0.9673183
508.50 0.9669379
508.60 0.9665577
508.70 0.9661777
508.80 0.965798
508.90 0.9653406
509.00 0.9648563
509.10 0.9644059
509.20 0.9640271
509.30 0.9636486
509.40 0.9632703
509.50 0.9628922
509.60 0.9625143
509.70 0.9621367
509.80 0.9617592
509.90 0.961382
510.00 0.9610051
510.10 0.9606283
510.20 0.9602518
510.30 0.9598755
510.40 0.9594994
510.50 0.9591235
510.60 0.9587479
510.70 0.9583724
510.80 0.9579972
510.90 0.9576222
511.00 0.9572475
511.10 0.9568729
511.20 0.9564986
511.30 0.9561245
511.40 0.9557506
511.50 0.9553769
511.60 0.9550035
511.70 0.9546303
511.80 0.9542573
511.90 0.9538845
512.00 0.9535119
512.10 0.9531395
512.20 0.9527674
512.30 0.9523915
512.40 0.9520045
512.50 0.9516177
512.60 0.9512312
512.70 0.9508449
512.80 0.9504588
512.90 0.9500729
513.00 0.9496873
513.10 0.9493019
513.20 0.9489167
513.30 0.9485318
513.40 0.9481471
513.50 0.9477626
513.60 0.9473783
513.70 0.9469943
513.80 0.9466105
513.90 0.9462269
514.00 0.9458483
514.10 0.9454707
514.20 0.9450933
514.30 0.9447161
514.40 0.9443391
514.50 0.9439624
514.60 0.9435859
514.70 0.9432096
514.80 0.9428335
514.90 0.9424576
515.00 0.942082
515.10 0.9417066
515.20 0.9413314
515.30 0.9409564
515.40 0.9405817
515.50 0.9402071
515.60 0.9398328
515.70 0.9394587
515.80 0.9390849
515.90 0.9387112
516.00 0.9383378
516.10 0.9379646
516.20 0.9375916
516.30 0.9372188
516.40 0.9368462
516.50 0.9364739
516.60 0.9361018
516.70 0.9357298
516.80 0.9353582
516.90 0.9349867
517.00 0.9346154
517.10 0.9342444
517.20 0.9338736
517.30 0.933503
517.40 0.9331326
517.50 0.9327624
517.60 0.9323924
517.70 0.9320227
517.80 0.9316532
517.90 0.9312839
518.00 0.9309148
518.10 0.9305459
518.20 0.9301772
518.30 0.9298088
518.40 0.9294406
518.50 0.9290725
518.60 0.9287047
518.70 0.9283372
518.80 0.9279698
518.90 0.9276026
519.00 0.9272357
519.10 0.9268668
519.20 0.9264957
519.30 0.9261248
519.40 0.9257541
519.50 0.9253836
519.60 0.9250133
519.70 0.9246433
519.80 0.9242735
519.90 0.9239038
520.00 0.9235345
520.10 0.9231653
520.20 0.9227963
520.30 0.9224276
520.40 0.922059
520.50 0.9216907
520.60 0.9213226
520.70 0.9209547
520.80 0.920587
520.90 0.9202196
521.00 0.9198523
521.10 0.9194853
521.20 0.9191185
521.30 0.9187519
521.40 0.9183855
521.50 0.9180193
521.60 0.9176534
521.70 0.9172876
521.80 0.9169221
521.90 0.9165568
522.00 0.9161917
522.10 0.9158268
522.20 0.9154621
522.30 0.9150976
522.40 0.9147333
522.50 0.9143693
522.60 0.9140054
522.70 0.9136418
522.80 0.9132784
522.90 0.9129152
523.00 0.9125522
523.10 0.9121894
523.20 0.9118268
523.30 0.9114645
523.40 0.9111023
523.50 0.9107404
523.60 0.9103787
523.70 0.9100171
523.80 0.9096558
523.90 0.9092947
524.00 0.9089338
524.10 0.9085731
524.20 0.9082127
524.30 0.9078499
524.40 0.9074854
524.50 0.9071212
524.60 0.9067571
524.70 0.9063932
524.80 0.9060296
524.90 0.9056661
525.00 0.9053029
525.10 0.9049399
525.20 0.9045771
525.30 0.9042145
525.40 0.9038521
525.50 0.90349
525.60 0.903128
525.70 0.9027663
525.80 0.9024047
525.90 0.9020434
526.00 0.9016823
526.10 0.9013214
526.20 0.9009607
526.30 0.9006002
526.40 0.9002399
526.50 0.8998798
526.60 0.89952
526.70 0.8991603
526.80 0.8988008
526.90 0.8984416
527.00 0.8980826
527.10 0.8977237
527.20 0.8973651
527.30 0.8970067
527.40 0.8966485
527.50 0.8962905
527.60 0.8959327
527.70 0.8955751
527.80 0.8952178
527.90 0.8948606
528.00 0.8945036
528.10 0.8941469
528.20 0.8937903
528.30 0.893434
528.40 0.8930778
528.50 0.8927219
528.60 0.8923662
528.70 0.8920107
528.80 0.8916553
528.90 0.8913002
529.00 0.8909453
529.10 0.8905906
529.20 0.8902361
529.30 0.8898818
529.40 0.8895277
529.50 0.8891739
529.60 0.8888204
529.70 0.8884671
529.80 0.888114
529.90 0.8877611
530.00 0.8874084
530.10 0.8870559
530.20 0.8867036
530.30 0.8863516
530.40 0.8859997
530.50 0.885648
530.60 0.8852965
530.70 0.8849453
530.80 0.8845942
530.90 0.8842433
531.00 0.8838927
531.10 0.8835422
531.20 0.8831919
531.30 0.8828419
531.40 0.882492
531.50 0.8821424
531.60 0.8817929
531.70 0.8814436
531.80 0.8810946
531.90 0.8807457
532.00 0.8803971
532.10 0.8800486
532.20 0.8796945
532.30 0.8793377
532.40 0.8789811
532.50 0.8786246
532.60 0.8782684
532.70 0.8779124
532.80 0.8775565
532.90 0.8772009
533.00 0.8768455
533.10 0.8764903
533.20 0.8761353
533.30 0.8757805
533.40 0.8754259
533.50 0.8750716
533.60 0.8747174
533.70 0.8743634
533.80 0.8740096
533.90 0.8736561
534.00 0.8733027
534.10 0.8729495
534.20 0.8725966
534.30 0.8722438
534.40 0.8718913
534.50 0.8715389
534.60 0.8711868
534.70 0.8708348
534.80 0.8704831
534.90 0.8701318
535.00 0.8697808
535.10 0.8694299
535.20 0.8690792
535.30 0.8687287
535.40 0.8683785
535.50 0.8680284
535.60 0.8676785
535.70 0.8673289
535.80 0.8669794
535.90 0.8666301
536.00 0.8662811
536.10 0.8659322
536.20 0.8655835
536.30 0.8652351
536.40 0.8648868
536.50 0.8645387
536.60 0.8641909
536.70 0.8638432
536.80 0.8634957
536.90 0.8631484
537.00 0.8628014
537.10 0.8624545
537.20 0.8621078
537.30 0.8617613
537.40 0.8614151
537.50 0.861069
537.60 0.8607231
537.70 0.8603774
537.80 0.8600319
537.90 0.8596866
538.00 0.8593415
538.10 0.8589967
538.20 0.858652
538.30 0.8583074
538.40 0.8579631
538.50 0.857619
538.60 0.8572751
538.70 0.8569314
538.80 0.8565879
538.90 0.8562446
539.00 0.8559014
539.10 0.8555585
539.20 0.8552158
539.30 0.8548732
539.40 0.8545309
539.50 0.8541887
539.60 0.8538468
539.70 0.853505
539.80 0.8531634
539.90 0.8528221
540.00 0.8524809
540.10 0.8521399
540.20 0.8517993
540.30 0.8514589
540.40 0.8511188
540.50 0.8507788
540.60 0.8504391
540.70 0.8500995
540.80 0.8497601
540.90 0.8494209
541.00 0.8490819
541.10 0.8487431
541.20 0.8484045
541.30 0.8480661
541.40 0.8477279
541.50 0.8473898
541.60 0.847052
541.70 0.8467143
541.80 0.8463769
541.90 0.8460396
542.00 0.8457025
542.10 0.8453656
542.20 0.8450289
542.30 0.8446924
542.40 0.8443561
542.50 0.84402
542.60 0.8436841
542.70 0.8433483
542.80 0.8430128
542.90 0.8426774
543.00 0.8423422
543.10 0.8420073
543.20 0.8416725
543.30 0.8413379
543.40 0.8410034
543.50 0.8406692
543.60 0.8403352
543.70 0.8400013
543.80 0.8396677
543.90 0.8393342
544.00 0.8390009
544.10 0.8386678
544.20 0.8383349
544.30 0.8380022
544.40 0.8376697
544.50 0.8373373
544.60 0.8370052
544.70 0.8366732
544.80 0.8363414
544.90 0.8360098
545.00 0.8356784
545.10 0.8353472
545.20 0.8350162
545.30 0.8346853
545.40 0.8343547
545.50 0.8340242
545.60 0.8336884
545.70 0.8333505
545.80 0.8330127
545.90 0.8326751
546.00 0.8323377
546.10 0.8320005
546.20 0.8316635
546.30 0.8313267
546.40 0.8309901
546.50 0.8306537
546.60 0.8303174
546.70 0.8299814
546.80 0.8296455
546.90 0.8293099
547.00 0.8289744
547.10 0.8286391
547.20 0.828304
547.30 0.8279691
547.40 0.8276344
547.50 0.8272998
547.60 0.8269655
547.70 0.8266313
547.80 0.8262974
547.90 0.8259636
548.00 0.82563
548.10 0.8252966
548.20 0.8249634
548.30 0.8246304
548.40 0.8242975
548.50 0.8239649
548.60 0.8236324
548.70 0.8233001
548.80 0.822968
548.90 0.8226361
549.00 0.8223044
549.10 0.8219728
549.20 0.8216415
549.30 0.8213103
549.40 0.8209794
549.50 0.8206486
549.60 0.820318
549.70 0.8199876
549.80 0.8196573
549.90 0.8193273
550.00 0.8189974
550.10 0.8186678
550.20 0.8183383
550.30 0.818009
550.40 0.8176799
550.50 0.8173509
550.60 0.8170222
550.70 0.8166936
550.80 0.8163653
550.90 0.8160371
551.00 0.8157091
551.10 0.8153816
551.20 0.8150543
551.30 0.8147272
551.40 0.8144002
551.50 0.8140735
551.60 0.8137469
551.70 0.8134205
551.80 0.8130943
551.90 0.8127682
552.00 0.8124424
552.10 0.8121167
552.20 0.8117913
552.30 0.811466
552.40 0.8111408
552.50 0.8108159
552.60 0.8104911
552.70 0.8101666
552.80 0.8098422
552.90 0.809518
553.00 0.809194
553.10 0.8088701
553.20 0.8085464
553.30 0.808223
553.40 0.8078997
553.50 0.8075765
553.60 0.8072536
553.70 0.8069308
553.80 0.8066083
553.90 0.8062859
554.00 0.8059636
554.10 0.8056416
554.20 0.8053198
554.30 0.8049981
554.40 0.8046766
554.50 0.8043553
554.60 0.8040341
554.70 0.8037132
554.80 0.8033924
554.90 0.8030718
555.00 0.8027514
555.10 0.8024311
555.20 0.802111
555.30 0.8017912
555.40 0.8014714
555.50 0.8011519
555.60 0.8008326
555.70 0.8005134
555.80 0.8001944
555.90 0.7998756
556.00 0.7995569
556.10 0.7992385
556.20 0.7989202
556.30 0.7986021
556.40 0.7982841
556.50 0.7979662
556.60 0.7976451
556.70 0.7973242
556.80 0.7970035
556.90 0.7966829
557.00 0.7963625
557.10 0.7960423
557.20 0.7957223
557.30 0.7954024
557.40 0.7950828
557.50 0.7947633
557.60 0.794444
557.70 0.7941249
557.80 0.7938059
557.90 0.7934871
558.00 0.7931685
558.10 0.7928501
558.20 0.7925319
558.30 0.7922138
558.40 0.7918959
558.50 0.7915782
558.60 0.7912607
558.70 0.7909433
558.80 0.7906261
558.90 0.7903091
559.00 0.7899923
559.10 0.7896756
559.20 0.7893591
559.30 0.7890428
559.40 0.7887267
559.50 0.7884108
559.60 0.788095
559.70 0.7877794
559.80 0.787464
559.90 0.7871487
560.00 0.7868336
560.10 0.7865187
560.20 0.786204
560.30 0.7858895
560.40 0.7855751
560.50 0.7852609
560.60 0.7849469
560.70 0.784633
560.80 0.7843193
560.90 0.7840058
561.00 0.7836925
561.10 0.7833793
561.20 0.7830663
561.30 0.7827535
561.40 0.7824409
561.50 0.7821284
561.60 0.7818161
561.70 0.781504
561.80 0.7811921
561.90 0.7808803
562.00 0.7805687
562.10 0.7802559
562.20 0.7799413
562.30 0.7796268
562.40 0.7793125
562.50 0.7789984
562.60 0.7786845
562.70 0.7783708
562.80 0.7780572
562.90 0.7777438
563.00 0.7774306
563.10 0.7771175
563.20 0.7768046
563.30 0.7764919
563.40 0.7761794
563.50 0.775867
563.60 0.7755548
563.70 0.7752428
563.80 0.7749309
563.90 0.7746193
564.00 0.7743078
564.10 0.7739964
564.20 0.7736853
564.30 0.7733743
564.40 0.7730635
564.50 0.7727528
564.60 0.7724423
564.70 0.772132
564.80 0.7718219
564.90 0.7715119
565.00 0.7712021
565.10 0.7708925
565.20 0.7705831
565.30 0.7702738
565.40 0.7699647
565.50 0.7696557
565.60 0.7693469
565.70 0.7690383
565.80 0.7687299
565.90 0.7684216
566.00 0.7681135
566.10 0.7678056
566.20 0.7674978
566.30 0.7671903
566.40 0.7668828
566.50 0.7665756
566.60 0.7662685
566.70 0.7659616
566.80 0.7656549
566.90 0.7653483
567.00 0.7650419
567.10 0.7647356
567.20 0.7644296
567.30 0.7641237
567.40 0.7638179
567.50 0.7635124
567.60 0.763207
567.70 0.7629018
567.80 0.7625971
567.90 0.7622926
568.00 0.7619882
568.10 0.7616841
568.20 0.76138
568.30 0.7610762
568.40 0.7607725
568.50 0.760469
568.60 0.7601656
568.70 0.7598624
568.80 0.7595594
568.90 0.7592565
569.00 0.7589538
569.10 0.7586513
569.20 0.7583489
569.30 0.7580467
569.40 0.7577447
569.50 0.7574428
569.60 0.7571411
569.70 0.7568396
569.80 0.7565382
569.90 0.756237
570.00 0.755936
570.10 0.7556351
570.20 0.7553344
570.30 0.7550338
570.40 0.7547334
570.50 0.7544332
570.60 0.7541332
570.70 0.7538333
570.80 0.7535335
570.90 0.753234
571.00 0.7529346
571.10 0.7526353
571.20 0.7523363
571.30 0.7520374
571.40 0.7517386
571.50 0.75144
571.60 0.7511416
571.70 0.7508433
571.80 0.7505452
571.90 0.7502473
572.00 0.7499495
572.10 0.7496519
572.20 0.7493545
572.30 0.7490572
572.40 0.7487601
572.50 0.7484631
572.60 0.7481663
572.70 0.7478697
572.80 0.7475732
572.90 0.7472769
573.00 0.7469807
573.10 0.7466848
573.20 0.7463889
573.30 0.7460933
573.40 0.7457946
573.50 0.7454916
573.60 0.7451888
573.70 0.7448862
573.80 0.7445838
573.90 0.7442815
574.00 0.7439794
574.10 0.7436774
574.20 0.7433756
574.30 0.743074
574.40 0.7427725
574.50 0.7424713
574.60 0.7421701
574.70 0.7418692
574.80 0.7415684
574.90 0.7412677
575.00 0.7409673
575.10 0.740667
575.20 0.7403668
575.30 0.7400668
575.40 0.739767
575.50 0.7394674
575.60 0.7391679
575.70 0.7388686
575.80 0.7385694
575.90 0.7382704
576.00 0.7379716
576.10 0.7376729
576.20 0.7373744
576.30 0.7370761
576.40 0.7367779
576.50 0.7364799
576.60 0.736182
576.70 0.7358843
576.80 0.7355868
576.90 0.7352894
577.00 0.7349922
577.10 0.7346952
577.20 0.7343983
577.30 0.7341015
577.40 0.733805
577.50 0.7335086
577.60 0.7332137
577.70 0.7329211
577.80 0.7326287
577.90 0.7323365
578.00 0.7320444
578.10 0.7317525
578.20 0.7314608
578.30 0.7311692
578.40 0.7308777
578.50 0.7305864
578.60 0.7302953
578.70 0.7300043
578.80 0.7297135
578.90 0.7294229
579.00 0.7291324
579.10 0.7288419
579.20 0.7285498
579.30 0.7282578
579.40 0.727966
579.50 0.7276744
579.60 0.727383
579.70 0.7270916
579.80 0.7268005
579.90 0.7265095
580.00 0.7262187
580.10 0.7259284
580.20 0.7256391
580.30 0.7253499
580.40 0.7250608
580.50 0.7247719
580.60 0.7244832
580.70 0.7241946
580.80 0.7239062
580.90 0.723618
581.00 0.7233298
581.10 0.7230419
581.20 0.7227541
581.30 0.7224665
581.40 0.722179
581.50 0.7218916
581.60 0.7216045
581.70 0.7213174
581.80 0.7210306
581.90 0.7207439
582.00 0.7204573
582.10 0.7201709
582.20 0.7198847
582.30 0.7195986
582.40 0.7193126
582.50 0.7190268
582.60 0.7187412
582.70 0.7184557
582.80 0.7181704
582.90 0.7178852
583.00 0.7176002
583.10 0.7173153
583.20 0.7170306
583.30 0.7167461
583.40 0.7164617
583.50 0.7161774
583.60 0.7158913
583.70 0.7156021
583.80 0.715313
583.90 0.7150241
584.00 0.7147354
584.10 0.7144468
584.20 0.7141583
584.30 0.71387
584.40 0.7135819
584.50 0.7132939
584.60 0.7130061
584.70 0.7127184
584.80 0.7124309
584.90 0.7121515
585.00 0.711908
585.10 0.7116647
585.20 0.7113996
585.30 0.7110988
585.40 0.7107982
585.50 0.7104978
585.60 0.7101975
585.70 0.7098974
585.80 0.7095974
585.90 0.7092977
586.00 0.708998
586.10 0.7086986
586.20 0.708409
586.30 0.7081354
586.40 0.707862
586.50 0.7075887
586.60 0.7073156
586.70 0.7070426
586.80 0.7067637
586.90 0.706475
587.00 0.7061865
587.10 0.7058982
587.20 0.7056282
587.30 0.7053879
587.40 0.7051478
587.50 0.7048218
587.60 0.704477
587.70 0.7042373
587.80 0.7039615
587.90 0.7036267
588.00 0.7033283
588.10 0.7030891
588.20 0.7028501
588.30 0.7026112
588.40 0.7023483
588.50 0.7020462
588.60 0.7017443
588.70 0.7014425
588.80 0.7011409
588.90 0.7008395
589.00 0.7005479
589.10 0.7002721
589.20 0.6999965
589.30 0.699721
589.40 0.6994456
589.50 0.6991704
589.60 0.6988954
589.70 0.6986205
589.80 0.6983457
589.90 0.6980711
590.00 0.6977923
590.10 0.6975066
590.20 0.6972211
590.30 0.6969357
590.40 0.6966505
590.50 0.6963654
590.60 0.6960805
590.70 0.6957957
590.80 0.6955136
590.90 0.6952328
591.00 0.6949522
591.10 0.6946717
591.20 0.6943913
591.30 0.6941111
591.40 0.6938311
591.50 0.6935512
591.60 0.6932743
591.70 0.6930024
591.80 0.6927306
591.90 0.6924589
592.00 0.6921874
592.10 0.691916
592.20 0.6916448
592.30 0.6913737
592.40 0.6911028
592.50 0.690832
592.60 0.6905613
592.70 0.6902908
592.80 0.6900205
592.90 0.6897502
593.00 0.6894802
593.10 0.6892067
593.20 0.6889275
593.30 0.6886485
593.40 0.6883696
593.50 0.6880909
593.60 0.6878124
593.70 0.687534
593.80 0.6872557
593.90 0.6869776
594.00 0.6866996
594.10 0.6864218
594.20 0.6861441
594.30 0.6858666
594.40 0.6855892
594.50 0.685312
594.60 0.6850349
594.70 0.684758
594.80 0.6844812
594.90 0.6842046
595.00 0.6839281
595.10 0.683656
595.20 0.6833908
595.30 0.6831259
595.40 0.6828611
595.50 0.6825964
595.60 0.6823318
595.70 0.6820674
595.80 0.6818032
595.90 0.681539
596.00 0.681275
596.10 0.6810112
596.20 0.6807475
596.30 0.6804839
596.40 0.6802205
596.50 0.6799572
596.60 0.679694
596.70 0.679428
596.80 0.6791603
596.90 0.6788927
597.00 0.6786253
597.10 0.678358
597.20 0.6780908
597.30 0.6778238
597.40 0.677557
597.50 0.6772903
597.60 0.6770227
597.70 0.6767538
597.80 0.6764849
597.90 0.6762162
598.00 0.6759477
598.10 0.6756793
598.20 0.675411
598.30 0.6751429
598.40 0.674875
598.50 0.6746071
598.60 0.6743394
598.70 0.6740719
598.80 0.6738045
598.90 0.6735372
599.00 0.6732701
599.10 0.6730031
599.20 0.6727362
599.30 0.6724695
599.40 0.6721993
599.50 0.6719293
599.60 0.6716593
599.70 0.6713896
599.80 0.6711199
599.90 0.6708504
600.00 0.6705811
600.10 0.6703119
600.20 0.6700428
600.30 0.6697739
600.40 0.6695051
600.50 0.6692365
600.60 0.668968
600.70 0.6686996
600.80 0.6684314
600.90 0.6681633
601.00 0.6678954
601.10 0.6676276
601.20 0.66736
601.30 0.6670925
601.40 0.6668287
601.50 0.6665652
601.60 0.6663018
601.70 0.6660385
601.80 0.6657753
601.90 0.6655123
602.00 0.6652494
602.10 0.6649867
602.20 0.6647241
602.30 0.6644616
602.40 0.6641993
602.50 0.6639371
602.60 0.6636751
602.70 0.6633644
602.80 0.6630514
602.90 0.6627861
603.00 0.662521
603.10 0.662256
603.20 0.6619912
603.30 0.6617265
603.40 0.661462
603.50 0.6611976
603.60 0.6609333
603.70 0.6606692
603.80 0.6604052
603.90 0.6601413
604.00 0.6598776
604.10 0.659614
604.20 0.6593506
604.30 0.6590872
604.40 0.6588241
604.50 0.6585701
604.60 0.6583162
604.70 0.6580624
604.80 0.6578088
604.90 0.6575553
605.00 0.657302
605.10 0.6570488
605.20 0.6567957
605.30 0.6565427
605.40 0.6562899
605.50 0.6560132
605.60 0.6557367
605.70 0.6554603
605.80 0.6551841
605.90 0.6549081
606.00 0.6546321
606.10 0.6543713
606.20 0.6541106
606.30 0.65385
606.40 0.6535896
606.50 0.6533741
606.60 0.6531587
606.70 0.6528539
606.80 0.6525493
606.90 0.6523343
607.00 0.6521193
607.10 0.6518152
607.20 0.6515111
607.30 0.6512519
607.40 0.6509929
607.50 0.6507339
607.60 0.6504751
607.70 0.6502314
607.80 0.6499877
607.90 0.6497441
608.00 0.6495007
608.10 0.6492574
608.20 0.6490143
608.30 0.6487596
608.40 0.648505
608.50 0.6482506
608.60 0.6479963
608.70 0.6477275
608.80 0.6474523
608.90 0.6471772
609.00 0.6469022
609.10 0.6466274
609.20 0.6463527
609.30 0.6460962
609.40 0.6458399
609.50 0.6455836
609.60 0.6453275
609.70 0.6450715
609.80 0.6448157
609.90 0.64456
610.00 0.6443044
610.10 0.6440489
610.20 0.6437936
610.30 0.6435385
610.40 0.6432834
610.50 0.6430285
610.60 0.6427737
610.70 0.6425191
610.80 0.6422645
610.90 0.6420072
611.00 0.64175
611.10 0.641493
611.20 0.641236
611.30 0.6409793
611.40 0.6407226
611.50 0.6404661
611.60 0.6402097
611.70 0.6399534
611.80 0.6396973
611.90 0.6394413
612.00 0.6391855
612.10 0.6389297
612.20 0.6386741
612.30 0.6384187
612.40 0.6381663
612.50 0.637914
612.60 0.6376619
612.70 0.6374099
612.80 0.637158
612.90 0.6369063
613.00 0.6366546
613.10 0.6364032
613.20 0.6361518
613.30 0.6359006
613.40 0.6356495
613.50 0.6353985
613.60 0.6351477
613.70 0.634897
613.80 0.6346464
613.90 0.634396
614.00 0.6341456
614.10 0.6338955
614.20 0.6336454
614.30 0.6333955
614.40 0.6331475
614.50 0.6328996
614.60 0.6326518
614.70 0.6324042
614.80 0.6321566
614.90 0.6319092
615.00 0.6316619
615.10 0.6314147
615.20 0.6311677
615.30 0.6309208
615.40 0.630674
615.50 0.6304273
615.60 0.6301808
615.70 0.6299344
615.80 0.6296881
615.90 0.629442
616.00 0.629196
616.10 0.6289501
616.20 0.6287043
616.30 0.6284586
616.40 0.6282131
616.50 0.6279677
616.60 0.6277225
616.70 0.6274773
616.80 0.6272323
616.90 0.6269821
617.00 0.6267321
617.10 0.6264821
617.20 0.6262323
617.30 0.6259826
617.40 0.6257331
617.50 0.6254837
617.60 0.6252344
617.70 0.6249852
617.80 0.6247362
617.90 0.6244873
618.00 0.6242385
618.10 0.6239899
618.20 0.6237414
618.30 0.623493
618.40 0.6232447
618.50 0.6229966
618.60 0.6227486
618.70 0.6225007
618.80 0.622253
618.90 0.6220053
619.00 0.6217578
619.10 0.6215105
619.20 0.6212632
619.30 0.6210161
619.40 0.6207691
619.50 0.6205223
619.60 0.6202755
619.70 0.6200289
619.80 0.6197825
619.90 0.6195361
620.00 0.6192899
620.10 0.6190438
620.20 0.6187978
620.30 0.618552
620.40 0.6183063
620.50 0.6180607
620.60 0.6178152
620.70 0.6175699
620.80 0.6173246
620.90 0.6170794
621.00 0.6168339
621.10 0.6165885
621.20 0.6163432
621.30 0.6160981
621.40 0.6158531
621.50 0.6156083
621.60 0.6153635
621.70 0.6151189
621.80 0.6148744
621.90 0.6146301
622.00 0.6143858
622.10 0.6141417
622.20 0.6138977
622.30 0.6136539
622.40 0.6134101
622.50 0.6131665
622.60 0.612923
622.70 0.6126797
622.80 0.6124364
622.90 0.6121933
623.00 0.6119503
623.10 0.6117074
623.20 0.6114647
623.30 0.6112221
623.40 0.6109796
623.50 0.6107372
623.60 0.610495
623.70 0.6102529
623.80 0.6100109
623.90 0.609769
624.00 0.6095272
624.10 0.6092856
624.20 0.6090441
624.30 0.6088027
624.40 0.6085615
624.50 0.6083203
624.60 0.6080793
624.70 0.6078385
624.80 0.6075977
624.90 0.607357
625.00 0.6071165
625.10 0.6068761
625.20 0.6066359
625.30 0.6063957
625.40 0.6061557
625.50 0.6059158
625.60 0.605676
625.70 0.6054363
625.80 0.6051968
625.90 0.6049574
626.00 0.6047181
626.10 0.6044789
626.20 0.6042399
626.30 0.604001
626.40 0.6037622
626.50 0.6035235
626.60 0.6032849
626.70 0.6030465
626.80 0.6028082
626.90 0.60257
627.00 0.6023319
627.10 0.6020933
627.20 0.6018533
627.30 0.6016133
627.40 0.6013735
627.50 0.6011338
627.60 0.6008943
627.70 0.6006548
627.80 0.6004155
627.90 0.6001763
628.00 0.5999372
628.10 0.5996982
628.20 0.5994594
628.30 0.5992207
628.40 0.5989821
628.50 0.5987436
628.60 0.5985053
628.70 0.598267
628.80 0.5980289
628.90 0.5977909
629.00 0.5975531
629.10 0.5973153
629.20 0.5970777
629.30 0.5968402
629.40 0.5966028
629.50 0.5963656
629.60 0.5961284
629.70 0.5958914
629.80 0.5956545
629.90 0.5954177
630.00 0.5951811
630.10 0.5949445
630.20 0.5947081
630.30 0.5944767
630.40 0.5942458
630.50 0.594015
630.60 0.5937844
630.70 0.5935539
630.80 0.5933234
630.90 0.5930931
631.00 0.592863
631.10 0.5926329
631.20 0.592403
631.30 0.5921731
631.40 0.5919434
631.50 0.5917138
631.60 0.5914843
631.70 0.5912549
631.80 0.5910257
631.90 0.5907966
632.00 0.5905675
632.10 0.5903386
632.20 0.5901098
632.30 0.5898811
632.40 0.5896526
632.50 0.5894241
632.60 0.5891958
632.70 0.5889676
632.80 0.5887395
632.90 0.5885115
633.00 0.5882836
633.10 0.5880559
633.20 0.5878282
633.30 0.5876007
633.40 0.5873706
633.50 0.5871385
633.60 0.5869065
633.70 0.5866747
633.80 0.5864429
633.90 0.5862113
634.00 0.5859798
634.10 0.5857484
634.20 0.5855172
634.30 0.585286
634.40 0.585055
634.50 0.5848241
634.60 0.5845932
634.70 0.5843626
634.80 0.584132
634.90 0.5839015
635.00 0.5836712
635.10 0.583441
635.20 0.5832109
635.30 0.5829809
635.40 0.582751
635.50 0.5825213
635.60 0.5822916
635.70 0.5820621
635.80 0.5818327
635.90 0.5816034
636.00 0.5813742
636.10 0.5811451
636.20 0.5809162
636.30 0.5806873
636.40 0.5804586
636.50 0.58023
636.60 0.5800015
636.70 0.5797732
636.80 0.5795449
636.90 0.5793168
637.00 0.5790888
637.10 0.5788609
637.20 0.5786331
637.30 0.5784054
637.40 0.5781779
637.50 0.5779504
637.60 0.5777231
637.70 0.5774959
637.80 0.5772688
637.90 0.5770418
638.00 0.5768149
638.10 0.5765882
638.20 0.5763615
638.30 0.576135
638.40 0.5759086
638.50 0.5756823
638.60 0.5754561
638.70 0.57523
638.80 0.575004
638.90 0.5747782
639.00 0.5745525
639.10 0.5743268
639.20 0.5741013
639.30 0.5738759
639.40 0.5736506
639.50 0.5734255
639.60 0.5732004
639.70 0.5729756
639.80 0.5727512
639.90 0.5725269
640.00 0.5723028
640.10 0.5720787
640.20 0.5718548
640.30 0.571631
640.40 0.5714073
640.50 0.5711837
640.60 0.5709602
640.70 0.5707368
640.80 0.5705136
640.90 0.5702904
641.00 0.5700674
641.10 0.5698445
641.20 0.5696217
641.30 0.569399
641.40 0.5691764
641.50 0.5689539
641.60 0.5687315
641.70 0.5685093
641.80 0.5682871
641.90 0.5680651
642.00 0.5678432
642.10 0.5676213
642.20 0.5673996
642.30 0.5671781
642.40 0.5669566
642.50 0.5667352
642.60 0.5665139
642.70 0.5662928
642.80 0.5660717
642.90 0.5658496
643.00 0.5656238
643.10 0.5653981
643.20 0.5651725
643.30 0.564947
643.40 0.5647217
643.50 0.5644964
643.60 0.5642713
643.70 0.5640462
643.80 0.5638213
643.90 0.5635965
644.00 0.5633718
644.10 0.5631473
644.20 0.5629228
644.30 0.5626984
644.40 0.5624742
644.50 0.5622501
644.60 0.5620261
644.70 0.5618022
644.80 0.5615784
644.90 0.5613547
645.00 0.5611311
645.10 0.5609077
645.20 0.5606843
645.30 0.5604611
645.40 0.560238
645.50 0.5600149
645.60 0.559792
645.70 0.5595693
645.80 0.5593466
645.90 0.559124
646.00 0.5589016
646.10 0.5586806
646.20 0.5584637
646.30 0.558247
646.40 0.5580303
646.50 0.5578138
646.60 0.5575974
646.70 0.5573811
646.80 0.5571648
646.90 0.5569487
647.00 0.5567327
647.10 0.5565168
647.20 0.556301
647.30 0.5560854
647.40 0.5558698
647.50 0.5556543
647.60 0.5554389
647.70 0.5552237
647.80 0.5550085
647.90 0.5547935
648.00 0.5545786
648.10 0.5543637
648.20 0.554149
648.30 0.5539344
648.40 0.5537199
648.50 0.5535055
648.60 0.5532912
648.70 0.553077
648.80 0.5528629
648.90 0.5526489
649.00 0.552435
649.10 0.5522212
649.20 0.5520076
649.30 0.551794
649.40 0.5515759
649.50 0.5513578
649.60 0.5511397
649.70 0.5509217
649.80 0.5507039
649.90 0.5504862
650.00 0.5502685
650.10 0.550051
650.20 0.5498336
650.30 0.5496163
650.40 0.5493991
650.50 0.549182
650.60 0.548965
650.70 0.5487481
650.80 0.5485314
650.90 0.5483147
651.00 0.5480982
651.10 0.5478817
651.20 0.5476654
651.30 0.5474491
651.40 0.547233
651.50 0.547017
651.60 0.5468011
651.70 0.5465853
651.80 0.5463696
651.90 0.546154
652.00 0.5459385
652.10 0.5457231
652.20 0.5455079
652.30 0.5452927
652.40 0.5450776
652.50 0.5448627
652.60 0.5446504
652.70 0.5444395
652.80 0.5442288
652.90 0.5440181
653.00 0.5438076
653.10 0.5435971
653.20 0.5433868
653.30 0.5431766
653.40 0.5429664
653.50 0.5427564
653.60 0.5425465
653.70 0.5423367
653.80 0.5421269
653.90 0.5419173
654.00 0.5417078
654.10 0.5414984
654.20 0.5412891
654.30 0.5410799
654.40 0.5408708
654.50 0.5406618
654.60 0.5404529
654.70 0.5402441
654.80 0.5400354
654.90 0.5398268
655.00 0.5396183
655.10 0.5394099
655.20 0.5392017
655.30 0.5389935
655.40 0.5387854
655.50 0.5385774
655.60 0.5383695
655.70 0.5381618
655.80 0.5379517
655.90 0.5377417
656.00 0.5375319
656.10 0.5373221
656.20 0.5371125
656.30 0.5369029
656.40 0.5366935
656.50 0.5364841
656.60 0.5362749
656.70 0.5360657
656.80 0.5358567
656.90 0.5356477
657.00 0.5354389
657.10 0.5352302
657.20 0.5350216
657.30 0.534813
657.40 0.5346046
657.50 0.5343963
657.60 0.534188
657.70 0.5339799
657.80 0.5336852
657.90 0.5334719
658.00 0.5332731
658.10 0.5330744
658.20 0.5328758
658.30 0.5326773
658.40 0.5324789
658.50 0.5322806
658.60 0.5320823
658.70 0.5318842
658.80 0.5316862
658.90 0.5314882
659.00 0.5312904
659.10 0.5310639
659.20 0.5307945
659.30 0.5305927
659.40 0.530391
659.50 0.5301894
659.60 0.529988
659.70 0.5297866
659.80 0.5295853
659.90 0.5293841
660.00 0.529183
660.10 0.528982
660.20 0.5287811
660.30 0.5285802
660.40 0.5283611
660.50 0.5281389
660.60 0.5279167
660.70 0.5276947
660.80 0.5274728
660.90 0.5272679
661.00 0.5270632
661.10 0.5268585
661.20 0.5266539
661.30 0.5264495
661.40 0.5262451
661.50 0.5260409
661.60 0.5258367
661.70 0.5256326
661.80 0.5254287
661.90 0.5252407
662.00 0.5250529
662.10 0.5248651
662.20 0.5246774
662.30 0.5244898
662.40 0.5241769
662.50 0.5239812
662.60 0.5237855
662.70 0.5235899
662.80 0.5233945
662.90 0.5232366
663.00 0.5230787
663.10 0.5227712
663.20 0.5226135
663.30 0.522456
663.40 0.5221488
663.50 0.5219914
663.60 0.5218341
663.70 0.5216073
663.80 0.5213806
663.90 0.5212131
664.00 0.5210561
664.10 0.5208494
664.20 0.5206428
664.30 0.5204363
664.40 0.5202299
664.50 0.5200236
664.60 0.5198174
664.70 0.5196061
664.80 0.5193949
664.90 0.5191839
665.00 0.5189729
665.10 0.518762
665.20 0.5185513
665.30 0.5183406
665.40 0.51813
665.50 0.5179661
665.60 0.5178105
665.70 0.5174872
665.80 0.5172929
665.90 0.5170986
666.00 0.5169045
666.10 0.5167104
666.20 0.5165164
666.30 0.5163225
666.40 0.5161288
666.50 0.515926
666.60 0.5157218
666.70 0.5155177
666.80 0.5153137
666.90 0.5151098
667.00 0.514906
667.10 0.5147443
667.20 0.51459
667.30 0.5143669
667.40 0.514144
667.50 0.5139168
667.60 0.513689
667.70 0.513524
667.80 0.5133702
667.90 0.5131981
668.00 0.5129152
668.10 0.5127617
668.20 0.5126082
668.30 0.5123921
668.40 0.5121651
668.50 0.5119382
668.60 0.5117114
668.70 0.5115473
668.80 0.5113657
668.90 0.5111842
669.00 0.5110028
669.10 0.5108215
669.20 0.5106403
669.30 0.5104334
669.40 0.5102221
669.50 0.5100109
669.60 0.5097998
669.70 0.5095889
669.80 0.509378
669.90 0.5091672
670.00 0.5089565
670.10 0.5087459
670.20 0.5085354
670.30 0.5083492
670.40 0.5081673
670.50 0.5079856
670.60 0.5078039
670.70 0.5076223
670.80 0.5074184
670.90 0.5072146
671.00 0.507011
671.10 0.5068074
671.20 0.5066039
671.30 0.5064006
671.40 0.5061973
671.50 0.5059941
671.60 0.505791
671.70 0.5055881
671.80 0.5053852
671.90 0.5052017
672.00 0.5050217
672.10 0.5048418
672.20 0.504662
672.30 0.5044822
672.40 0.5042846
672.50 0.5040857
672.60 0.5038869
672.70 0.5036882
672.80 0.5034896
672.90 0.503291
673.00 0.5030926
673.10 0.5028943
673.20 0.5026961
673.30 0.5025467
673.40 0.5023605
673.50 0.5021677
673.60 0.5019751
673.70 0.5017825
673.80 0.50159
673.90 0.5013977
674.00 0.5012054
674.10 0.5010132
674.20 0.5008211
674.30 0.5006291
674.40 0.5004372
674.50 0.5002454
674.60 0.5000536
674.70 0.499862
674.80 0.4996705
674.90 0.499479
675.00 0.4992876
675.10 0.4990964
675.20 0.4989052
675.30 0.4987141
675.40 0.4985207
675.50 0.4983269
675.60 0.4981332
675.70 0.4979396
675.80 0.497746
675.90 0.4975526
676.00 0.4973593
676.10 0.4971661
676.20 0.4969729
676.30 0.4967799
676.40 0.4965869
676.50 0.496394
676.60 0.4962013
676.70 0.4960086
676.80 0.495816
676.90 0.4956235
677.00 0.4954311
677.10 0.4952388
677.20 0.4950466
677.30 0.4948544
677.40 0.4946624
677.50 0.4944704
677.60 0.4942786
677.70 0.4940868
677.80 0.4938952
677.90 0.4937025
678.00 0.4935097
678.10 0.4933169
678.20 0.4931243
678.30 0.4929318
678.40 0.4927393
678.50 0.492547
678.60 0.4923547
678.70 0.4921626
678.80 0.4919705
678.90 0.4917785
679.00 0.4915866
679.10 0.4913954
679.20 0.4912044
679.30 0.4910135
679.40 0.4908228
679.50 0.4906321
679.60 0.4904415
679.70 0.490251
679.80 0.4900605
679.90 0.4898702
680.00 0.48968
680.10 0.4894899
680.20 0.4892998
680.30 0.4891098
680.40 0.48892
680.50 0.4887302
680.60 0.4885405
680.70 0.4883509
680.80 0.4881614
680.90 0.487972
681.00 0.4877826
681.10 0.4875934
681.20 0.4874043
681.30 0.4872152
681.40 0.4870262
681.50 0.4868374
681.60 0.4866486
681.70 0.4864599
681.80 0.4862713
681.90 0.4860827
682.00 0.4858943
682.10 0.485706
682.20 0.4855177
682.30 0.4853296
682.40 0.4851415
682.50 0.4849535
682.60 0.4847656
682.70 0.4845778
682.80 0.4843901
682.90 0.4842025
683.00 0.4840149
683.10 0.4838275
683.20 0.4836401
683.30 0.4834529
683.40 0.4832657
683.50 0.4830786
683.60 0.4828916
683.70 0.4827047
683.80 0.4825178
683.90 0.4823311
684.00 0.4821445
684.10 0.4819579
684.20 0.4817714
684.30 0.481585
684.40 0.4813988
684.50 0.4812125
684.60 0.4810264
684.70 0.4808404
684.80 0.4806545
684.90 0.4804686
685.00 0.4802828
685.10 0.4800972
685.20 0.4799116
685.30 0.4797261
685.40 0.4795407
685.50 0.4793553
685.60 0.4791701
685.70 0.4789849
685.80 0.4787999
685.90 0.4786153
686.00 0.4784308
686.10 0.4782465
686.20 0.4780622
686.30 0.4778781
686.40 0.477694
686.50 0.47751
686.60 0.4773261
686.70 0.4771423
686.80 0.4769585
686.90 0.4767749
687.00 0.4765913
687.10 0.4764078
687.20 0.4762244
687.30 0.4760411
687.40 0.4758579
687.50 0.4756748
687.60 0.4754918
687.70 0.4753088
687.80 0.4751259
687.90 0.4749431
688.00 0.4747604
688.10 0.4745778
688.20 0.4743953
688.30 0.4742129
688.40 0.4740305
688.50 0.4738483
688.60 0.4736661
688.70 0.473484
688.80 0.473302
688.90 0.47312
689.00 0.4729382
689.10 0.4727564
689.20 0.4725748
689.30 0.4723932
689.40 0.4722117
689.50 0.4720303
689.60 0.471849
689.70 0.4716677
689.80 0.4714866
689.90 0.4713055
690.00 0.4711245
690.10 0.4709436
690.20 0.4707628
690.30 0.4705821
690.40 0.4704014
690.50 0.4702209
690.60 0.4700404
690.70 0.46986
690.80 0.4696797
690.90 0.4694995
691.00 0.4693193
691.10 0.4691393
691.20 0.4689593
691.30 0.4687794
691.40 0.4685996
691.50 0.4684199
691.60 0.4682403
691.70 0.4680607
691.80 0.4678813
691.90 0.4677019
692.00 0.4675226
692.10 0.4673434
692.20 0.4671643
692.30 0.4669852
692.40 0.4668063
692.50 0.4666274
692.60 0.4664486
692.70 0.4662702
692.80 0.4660927
692.90 0.4659153
693.00 0.4657379
693.10 0.4655607
693.20 0.4653835
693.30 0.4652065
693.40 0.4650295
693.50 0.4648526
693.60 0.4646757
693.70 0.464499
693.80 0.4643223
693.90 0.4641458
694.00 0.4639693
694.10 0.4637928
694.20 0.4636165
694.30 0.4634403
694.40 0.4632641
694.50 0.463088
694.60 0.462912
694.70 0.4627361
694.80 0.4625602
694.90 0.4623845
695.00 0.4622088
695.10 0.4620332
695.20 0.4618577
695.30 0.4616823
695.40 0.4615069
695.50 0.4613317
695.60 0.4611565
695.70 0.4609814
695.80 0.4608064
695.90 0.4606314
696.00 0.4604566
696.10 0.4602818
696.20 0.4601071
696.30 0.4599325
696.40 0.459758
696.50 0.4595835
696.60 0.4594083
696.70 0.459233
696.80 0.4590578
696.90 0.4588826
697.00 0.4587076
697.10 0.4585326
697.20 0.4583577
697.30 0.4581829
697.40 0.4580082
697.50 0.4578335
697.60 0.4576589
697.70 0.4574844
697.80 0.45731
697.90 0.4571357
698.00 0.4569615
698.10 0.4567873
698.20 0.4566132
698.30 0.4564392
698.40 0.4562653
698.50 0.4560914
698.60 0.4559177
698.70 0.455744
698.80 0.4555704
698.90 0.4553969
699.00 0.4552234
699.10 0.4550478
699.20 0.4548716
699.30 0.4546955
699.40 0.4545196
699.50 0.4543437
699.60 0.4541678
699.70 0.4539905
699.80 0.4538132
699.90 0.453636
700.00 0.4534588
700.10 0.4532818
700.20 0.4531048
700.30 0.4529279
700.40 0.4527511
700.50 0.4525744
700.60 0.4523977
700.70 0.4522211
700.80 0.4520447
700.90 0.4518683
701.00 0.4516919
701.10 0.4515251
701.20 0.4513606
701.30 0.4511962
701.40 0.4510318
701.50 0.4508676
701.60 0.4507034
701.70 0.4505392
701.80 0.4503752
701.90 0.4502112
702.00 0.4500473
702.10 0.4498834
702.20 0.4497197
702.30 0.449556
702.40 0.4493924
702.50 0.4492289
702.60 0.4490537
702.70 0.4488759
702.80 0.4486981
702.90 0.4485205
703.00 0.4483429
703.10 0.4481654
703.20 0.4479879
703.30 0.4478106
703.40 0.4476334
703.50 0.4474562
703.60 0.4472791
703.70 0.4471021
703.80 0.4469252
703.90 0.4467483
704.00 0.4465716
704.10 0.4463949
704.20 0.4462264
704.30 0.4460598
704.40 0.4458934
704.50 0.445727
704.60 0.4455606
704.70 0.4453944
704.80 0.4452282
704.90 0.4450621
705.00 0.4448961
705.10 0.4447302
705.20 0.4445607
705.30 0.4443905
705.40 0.4442204
705.50 0.4440504
705.60 0.4438804
705.70 0.4437105
705.80 0.4435496
705.90 0.4433909
706.00 0.4432323
706.10 0.4430737
706.20 0.4428885
706.30 0.442697
706.40 0.4425592
706.50 0.4423992
706.60 0.4421767
706.70 0.4420516
706.80 0.4418731
706.90 0.4416822
707.00 0.441518
707.10 0.4413602
707.20 0.4412025
707.30 0.4410448
707.40 0.4408783
707.50 0.4407098
707.60 0.4405414
707.70 0.4403731
707.80 0.4402048
707.90 0.4400366
708.00 0.4398721
708.10 0.4397084
708.20 0.4395448
708.30 0.4393813
708.40 0.4392179
708.50 0.4390546
708.60 0.4388913
708.70 0.4387281
708.80 0.4385649
708.90 0.4384019
709.00 0.4382376
709.10 0.4380731
709.20 0.4379086
709.30 0.4377442
709.40 0.4375799
709.50 0.4374156
709.60 0.4372515
709.70 0.4370874
709.80 0.4369234
709.90 0.4367594
710.00 0.4365956
710.10 0.4364318
710.20 0.4362681
710.30 0.4361044
710.40 0.4359409
710.50 0.4357774
710.60 0.4356118
710.70 0.4354457
710.80 0.4352797
710.90 0.4351138
711.00 0.434948
711.10 0.4347822
711.20 0.4346166
711.30 0.434451
711.40 0.4342854
711.50 0.43412
711.60 0.4339546
711.70 0.4337893
711.80 0.4336241
711.90 0.433459
712.00 0.4332939
712.10 0.4331257
712.20 0.4329567
712.30 0.4327879
712.40 0.4326192
712.50 0.4324505
712.60 0.4322819
712.70 0.4321134
712.80 0.4319449
712.90 0.4317765
713.00 0.4316083
713.10 0.43144
713.20 0.4312719
713.30 0.4311039
713.40 0.4309359
713.50 0.430768
713.60 0.4306001
713.70 0.4304358
713.80 0.4302785
713.90 0.4301212
714.00 0.429964
714.10 0.4298032
714.20 0.4296415
714.30 0.4294799
714.40 0.4293183
714.50 0.4291569
714.60 0.4289955
714.70 0.4288342
714.80 0.4286729
714.90 0.4285118
715.00 0.4283507
715.10 0.4281896
715.20 0.4280287
715.30 0.4278678
715.40 0.427707
715.50 0.4275463
715.60 0.4273856
715.70 0.4272251
715.80 0.4270646
715.90 0.4269041
716.00 0.4267438
716.10 0.4265835
716.20 0.4264233
716.30 0.4262631
716.40 0.426103
716.50 0.425943
716.60 0.4257842
716.70 0.4256257
716.80 0.4254673
716.90 0.4253089
717.00 0.4251507
717.10 0.4249925
717.20 0.4248343
717.30 0.4246763
717.40 0.4245183
717.50 0.4243603
717.60 0.4242025
717.70 0.4240447
717.80 0.423887
717.90 0.4237294
718.00 0.4235718
718.10 0.4234143
718.20 0.4232527
718.30 0.4230889
718.40 0.4229252
718.50 0.4227615
718.60 0.4225979
718.70 0.4224344
718.80 0.422271
718.90 0.4221076
719.00 0.4219443
719.10 0.4217811
719.20 0.421618
719.30 0.4214549
719.40 0.4212919
719.50 0.421129
719.60 0.4209662
719.70 0.4208034
719.80 0.4206407
719.90 0.4204781
720.00 0.4203156
720.10 0.4201531
720.20 0.4199907
720.30 0.4198284
720.40 0.4196661
720.50 0.419504
720.60 0.4193419
720.70 0.4192095
720.80 0.4190932
720.90 0.4189371
721.00 0.4187793
721.10 0.4186217
721.20 0.4184641
721.30 0.4183066
721.40 0.4181491
721.50 0.4179917
721.60 0.4178344
721.70 0.4176772
721.80 0.41752
721.90 0.4173629
722.00 0.4172059
722.10 0.417049
722.20 0.4168921
722.30 0.4167353
722.40 0.4165786
722.50 0.4164219
722.60 0.4162653
722.70 0.4161083
722.80 0.4159511
722.90 0.415794
723.00 0.415637
723.10 0.4154801
723.20 0.4153232
723.30 0.4151664
723.40 0.4150096
723.50 0.414853
723.60 0.4146964
723.70 0.4145399
723.80 0.4143834
723.90 0.414227
724.00 0.4140707
724.10 0.4139144
724.20 0.41376
724.30 0.4136065
724.40 0.4134531
724.50 0.4132997
724.60 0.4131464
724.70 0.4129932
724.80 0.4128401
724.90 0.412687
725.00 0.412534
725.10 0.4123811
725.20 0.4122282
725.30 0.4120754
725.40 0.4119227
725.50 0.41177
725.60 0.4116174
725.70 0.4114649
725.80 0.4113053
725.90 0.411142
726.00 0.4109787
726.10 0.4108156
726.20 0.4106524
726.30 0.4104894
726.40 0.4103265
726.50 0.4101636
726.60 0.4100008
726.70 0.409838
726.80 0.4096808
726.90 0.4095265
727.00 0.4093723
727.10 0.4092182
727.20 0.4090641
727.30 0.4089101
727.40 0.4087629
727.50 0.4086194
727.60 0.408476
727.70 0.4083327
727.80 0.4081691
727.90 0.4079948
728.00 0.407861
728.10 0.4077412
728.20 0.4075127
728.30 0.4074008
728.40 0.4072486
728.50 0.4070748
728.60 0.4069212
728.70 0.4067785
728.80 0.4066358
728.90 0.4064933
729.00 0.406344
729.10 0.4061913
729.20 0.4060386
729.30 0.4058859
729.40 0.4057334
729.50 0.4055809
729.60 0.4054311
729.70 0.4052829
729.80 0.4051347
729.90 0.4049866
730.00 0.4048386
730.10 0.4046906
730.20 0.4045427
730.30 0.4043949
730.40 0.4042471
730.50 0.4040994
730.60 0.4039457
730.70 0.4037889
730.80 0.4036322
730.90 0.4034755
731.00 0.4033188
731.10 0.4031623
731.20 0.4030058
731.30 0.4028494
731.40 0.4026931
731.50 0.4025368
731.60 0.4023806
731.70 0.4022245
731.80 0.4020684
731.90 0.4019125
732.00 0.4017566
732.10 0.4016007
732.20 0.4014483
732.30 0.4012977
732.40 0.4011472
732.50 0.4009967
732.60 0.4008463
732.70 0.400696
732.80 0.4005458
732.90 0.4003956
733.00 0.4002455
733.10 0.4000954
733.20 0.3999454
733.30 0.3997955
733.40 0.3996457
733.50 0.3994959
733.60 0.3993462
733.70 0.3991991
733.80 0.3990533
733.90 0.3989077
734.00 0.3987621
734.10 0.3986166
734.20 0.3984711
734.30 0.3983257
734.40 0.3981804
734.50 0.3980351
734.60 0.3978899
734.70 0.3977448
734.80 0.3975997
734.90 0.3974547
735.00 0.3973098
735.10 0.3971649
735.20 0.3970201
735.30 0.3968754
735.40 0.396732
735.50 0.3965886
735.60 0.3964453
735.70 0.3962966
735.80 0.3961451
735.90 0.3959937
736.00 0.3958423
736.10 0.395691
736.20 0.3955397
736.30 0.3953885
736.40 0.3952374
736.50 0.3950864
736.60 0.3949354
736.70 0.3947845
736.80 0.3946336
736.90 0.3944829
737.00 0.3943322
737.10 0.3941815
737.20 0.3940309
737.30 0.3938804
737.40 0.39373
737.50 0.3935796
737.60 0.3934293
737.70 0.3932791
737.80 0.3931289
737.90 0.3929788
738.00 0.3928288
738.10 0.3926788
738.20 0.392531
738.30 0.3923845
738.40 0.392238
738.50 0.3920916
738.60 0.3919453
738.70 0.3917991
738.80 0.3916529
738.90 0.3915067
739.00 0.3913606
739.10 0.3912146
739.20 0.3910687
739.30 0.3909228
739.40 0.390777
739.50 0.3906313
739.60 0.3904856
739.70 0.39034
739.80 0.3901944
739.90 0.3900489
740.00 0.3899035
740.10 0.3897581
740.20 0.3896128
740.30 0.3894676
740.40 0.3893224
740.50 0.3891773
740.60 0.3890323
740.70 0.3888873
740.80 0.3887424
740.90 0.3885975
741.00 0.3884527
741.10 0.388308
741.20 0.3881634
741.30 0.3880188
741.40 0.3878743
741.50 0.3877298
741.60 0.3875854
741.70 0.387441
741.80 0.3872968
741.90 0.3871526
742.00 0.3870084
742.10 0.3868643
742.20 0.3867203
742.30 0.3865764
742.40 0.3864325
742.50 0.3862886
742.60 0.3861449
742.70 0.386004
742.80 0.3858654
742.90 0.385727
743.00 0.3855886
743.10 0.3854502
743.20 0.3853119
743.30 0.3851737
743.40 0.3850355
743.50 0.3848974
743.60 0.3847593
743.70 0.3846204
743.80 0.3844779
743.90 0.3843354
744.00 0.384193
744.10 0.3840507
744.20 0.3839084
744.30 0.3837661
744.40 0.383624
744.50 0.3834819
744.60 0.3833399
744.70 0.3831979
744.80 0.383056
744.90 0.3829141
745.00 0.3827723
745.10 0.3826306
745.20 0.3824889
745.30 0.3823473
745.40 0.3822058
745.50 0.3820643
745.60 0.3819229
745.70 0.3817816
745.80 0.3816403
745.90 0.3814991
746.00 0.3813579
746.10 0.3812168
746.20 0.3810757
746.30 0.3809348
746.40 0.3807938
746.50 0.380653
746.60 0.3805122
746.70 0.3803715
746.80 0.3802308
746.90 0.3800902
747.00 0.3799496
747.10 0.3798092
747.20 0.3796687
747.30 0.3795284
747.40 0.3793881
747.50 0.3792478
747.60 0.3791077
747.70 0.3789675
747.80 0.3788275
747.90 0.3786875
748.00 0.3785476
748.10 0.3784077
748.20 0.3782679
748.30 0.3781281
748.40 0.3779884
748.50 0.3778488
748.60 0.3777093
748.70 0.3775697
748.80 0.3774303
748.90 0.3772909
749.00 0.3771516
749.10 0.3770123
749.20 0.3768731
749.30 0.376734
749.40 0.3765949
749.50 0.3764559
749.60 0.376317
749.70 0.3761781
749.80 0.3760392
749.90 0.3759005
750.00 0.3757617
750.10 0.3756225
750.20 0.3754818
750.30 0.3753411
750.40 0.3752005
750.50 0.37506
750.60 0.3749195
750.70 0.3747791
750.80 0.3746388
750.90 0.3744985
751.00 0.3743583
751.10 0.3742181
751.20 0.374078
751.30 0.373938
751.40 0.373798
751.50 0.3736581
751.60 0.3735182
751.70 0.3733785
751.80 0.3732387
751.90 0.3730991
752.00 0.3729594
752.10 0.3728199
752.20 0.3726804
752.30 0.372541
752.40 0.3724016
752.50 0.3722623
752.60 0.3721231
752.70 0.3719839
752.80 0.3718448
752.90 0.3717057
753.00 0.3715667
753.10 0.3714278
753.20 0.3712889
753.30 0.3711501
753.40 0.3710113
753.50 0.3708726
753.60 0.370734
753.70 0.3705954
753.80 0.3704569
753.90 0.3703208
754.00 0.3701855
754.10 0.3700503
754.20 0.3699151
754.30 0.36978
754.40 0.3696449
754.50 0.3695099
754.60 0.3693749
754.70 0.36924
754.80 0.3691052
754.90 0.3689704
755.00 0.3688357
755.10 0.368701
755.20 0.3685664
755.30 0.3684319
755.40 0.3682974
755.50 0.368163
755.60 0.3680286
755.70 0.3678943
755.80 0.3677601
755.90 0.3676259
756.00 0.3674917
756.10 0.3673577
756.20 0.3672236
756.30 0.3670897
756.40 0.3669558
756.50 0.3668219
756.60 0.3666881
756.70 0.3665544
756.80 0.3664207
756.90 0.3662871
757.00 0.3661536
757.10 0.3660201
757.20 0.3658866
757.30 0.3657532
757.40 0.3656199
757.50 0.3654866
757.60 0.3653527
757.70 0.3652169
757.80 0.3650811
757.90 0.3649454
758.00 0.3648098
758.10 0.3646742
758.20 0.3645387
758.30 0.3644032
758.40 0.3642678
758.50 0.3641325
758.60 0.3639972
758.70 0.363862
758.80 0.3637268
758.90 0.3635917
759.00 0.3634566
759.10 0.3633217
759.20 0.3631867
759.30 0.3630518
759.40 0.362917
759.50 0.3627823
759.60 0.3626476
759.70 0.3625129
759.80 0.3623783
759.90 0.3622438
760.00 0.3621094
760.10 0.361975
760.20 0.3618406
760.30 0.3617063
760.40 0.3615721
760.50 0.3614379
760.60 0.3613038
760.70 0.3611697
760.80 0.3610357
760.90 0.3609018
761.00 0.3607679
761.10 0.3606341
761.20 0.3605003
761.30 0.3603666
761.40 0.3602329
761.50 0.3600993
761.60 0.3599658
761.70 0.3598323
761.80 0.3596989
761.90 0.3595655
762.00 0.3594322
762.10 0.359299
762.20 0.3591658
762.30 0.3590326
762.40 0.3588996
762.50 0.3587665
762.60 0.3586336
762.70 0.3585007
762.80 0.3583678
762.90 0.358235
763.00 0.3581023
763.10 0.3579696
763.20 0.357837
763.30 0.3577045
763.40 0.3575719
763.50 0.3574395
763.60 0.3573071
763.70 0.3571748
763.80 0.3570425
763.90 0.3569103
764.00 0.3567781
764.10 0.356646
764.20 0.356514
764.30 0.356382
764.40 0.35625
764.50 0.3561182
764.60 0.3559863
764.70 0.3558546
764.80 0.3557229
764.90 0.3555912
765.00 0.3554596
765.10 0.3553281
765.20 0.3551976
765.30 0.355068
765.40 0.3549385
765.50 0.354809
765.60 0.3546796
765.70 0.3545503
765.80 0.354421
765.90 0.3542917
766.00 0.3541626
766.10 0.3540334
766.20 0.3539044
766.30 0.3537753
766.40 0.3536464
766.50 0.3535175
766.60 0.3533886
766.70 0.3532598
766.80 0.3531311
766.90 0.3530024
767.00 0.3528738
767.10 0.3527452
767.20 0.3526167
767.30 0.3524882
767.40 0.3523598
767.50 0.3522315
767.60 0.3521032
767.70 0.3519749
767.80 0.3518467
767.90 0.3517186
768.00 0.3515905
768.10 0.3514625
768.20 0.3513345
768.30 0.3512066
768.40 0.3510787
768.50 0.3509509
768.60 0.3508232
768.70 0.3506955
768.80 0.3505678
768.90 0.3504402
769.00 0.3503127
769.10 0.3501852
769.20 0.3500578
769.30 0.3499304
769.40 0.3498031
769.50 0.3496759
769.60 0.3495486
769.70 0.3494215
769.80 0.3492944
769.90 0.3491673
770.00 0.3490404
770.10 0.3489134
770.20 0.3487865
770.30 0.3486597
770.40 0.3485329
770.50 0.3484062
770.60 0.3482796
770.70 0.3481529
770.80 0.3480264
770.90 0.3478999
771.00 0.3477734
771.10 0.347647
771.20 0.3475207
771.30 0.3473944
771.40 0.3472682
771.50 0.347142
771.60 0.3470159
771.70 0.3468898
771.80 0.3467638
771.90 0.3466378
772.00 0.3465119
772.10 0.346386
772.20 0.3462602
772.30 0.3461345
772.40 0.3460088
772.50 0.3458831
772.60 0.3457575
772.70 0.345632
772.80 0.3455065
772.90 0.34538
773.00 0.3452536
773.10 0.3451272
773.20 0.3450008
773.30 0.3448745
773.40 0.3447483
773.50 0.3446221
773.60 0.344496
773.70 0.3443699
773.80 0.3442439
773.90 0.3441179
774.00 0.343992
774.10 0.3438661
774.20 0.3437403
774.30 0.3436146
774.40 0.3434889
774.50 0.3433632
774.60 0.3432377
774.70 0.3431121
774.80 0.3429866
774.90 0.3428612
775.00 0.3427358
775.10 0.3426105
775.20 0.3424852
775.30 0.34236
775.40 0.3422348
775.50 0.3421097
775.60 0.3419847
775.70 0.3418597
775.80 0.3417347
775.90 0.3416098
776.00 0.341485
776.10 0.3413602
776.20 0.3412354
776.30 0.3411107
776.40 0.3409861
776.50 0.3408615
776.60 0.340737
776.70 0.3406125
776.80 0.3404881
776.90 0.3403637
777.00 0.3402394
777.10 0.3401151
777.20 0.3399909
777.30 0.3398668
777.40 0.3397427
777.50 0.3396186
777.60 0.3394946
777.70 0.3393707
777.80 0.3392468
777.90 0.3391229
778.00 0.3389991
778.10 0.3388754
778.20 0.3387517
778.30 0.3386281
778.40 0.3385045
778.50 0.3383809
778.60 0.3382575
778.70 0.338134
778.80 0.3380107
778.90 0.3378873
779.00 0.3377641
779.10 0.3376409
779.20 0.3375177
779.30 0.3373946
779.40 0.3372715
779.50 0.3371485
779.60 0.3370256
779.70 0.3369026
779.80 0.3367798
779.90 0.336657
780.00 0.3365342
780.10 0.3364115
780.20 0.3362889
780.30 0.3361663
780.40 0.3360438
780.50 0.3359213
780.60 0.3357981
780.70 0.3356746
780.80 0.3355512
780.90 0.3354278
781.00 0.3353045
781.10 0.3351813
781.20 0.3350581
781.30 0.3349349
781.40 0.3348119
781.50 0.3346888
781.60 0.3345658
781.70 0.3344429
781.80 0.33432
781.90 0.3341972
782.00 0.3340744
782.10 0.3339517
782.20 0.333829
782.30 0.3337063
782.40 0.3335838
782.50 0.3334612
782.60 0.3333388
782.70 0.3332164
782.80 0.333094
782.90 0.3329717
783.00 0.3328494
783.10 0.3327272
783.20 0.332605
783.30 0.3324829
783.40 0.3323609
783.50 0.3322389
783.60 0.3321169
783.70 0.331995
783.80 0.3318731
783.90 0.3317513
784.00 0.3316296
784.10 0.3315079
784.20 0.3313862
784.30 0.3312647
784.40 0.3311431
784.50 0.3310216
784.60 0.3309011
784.70 0.3307826
784.80 0.3306642
784.90 0.3305458
785.00 0.3304275
785.10 0.3303093
785.20 0.3301911
785.30 0.3300729
785.40 0.3299548
785.50 0.3298368
785.60 0.3297188
785.70 0.3296008
785.80 0.3294829
785.90 0.329365
786.00 0.3292472
786.10 0.3291295
786.20 0.3290117
786.30 0.3288941
786.40 0.3287765
786.50 0.3286589
786.60 0.3285414
786.70 0.3284239
786.80 0.3283065
786.90 0.3281891
787.00 0.3280718
787.10 0.3279546
787.20 0.3278373
787.30 0.3277202
787.40 0.327603
787.50 0.327486
787.60 0.3273689
787.70 0.327252
787.80 0.327135
787.90 0.3270182
788.00 0.3269013
788.10 0.3267846
788.20 0.3266678
788.30 0.3265511
788.40 0.3264337
788.50 0.326316
788.60 0.3261983
788.70 0.3260807
788.80 0.3259631
788.90 0.3258455
789.00 0.325728
789.10 0.3256106
789.20 0.3254932
789.30 0.3253759
789.40 0.3252586
789.50 0.3251413
789.60 0.3250241
789.70 0.324907
789.80 0.3247899
789.90 0.3246728
790.00 0.3245558
790.10 0.3244388
790.20 0.3243219
790.30 0.3242051
790.40 0.3240883
790.50 0.3239715
790.60 0.3238548
790.70 0.3237381
790.80 0.3236215
790.90 0.323505
791.00 0.3233885
791.10 0.323272
791.20 0.3231556
791.30 0.3230392
791.40 0.3229229
791.50 0.3228066
791.60 0.3226904
791.70 0.3225742
791.80 0.3224581
791.90 0.322342
792.00 0.322226
792.10 0.32211
792.20 0.321994
792.30 0.3218775
792.40 0.321759
792.50 0.3216405
792.60 0.3215221
792.70 0.3214037
792.80 0.3212854
792.90 0.3211672
793.00 0.321049
793.10 0.3209308
793.20 0.3208127
793.30 0.3206946
793.40 0.3205766
793.50 0.3204586
793.60 0.3203407
793.70 0.3202228
793.80 0.320105
793.90 0.3199873
794.00 0.3198695
794.10 0.3197519
794.20 0.3196342
794.30 0.3195167
794.40 0.3193992
794.50 0.3192817
794.60 0.3191643
794.70 0.3190469
794.80 0.3189295
794.90 0.3188123
795.00 0.318695
795.10 0.3185779
795.20 0.3184607
795.30 0.3183436
795.40 0.3182266
795.50 0.3181096
795.60 0.3179927
795.70 0.3178758
795.80 0.317759
795.90 0.3176422
796.00 0.3175254
796.10 0.3174087
796.20 0.3172921
796.30 0.317178
796.40 0.3170644
796.50 0.3169509
796.60 0.3168374
796.70 0.316724
796.80 0.3166106
796.90 0.3164973
797.00 0.316384
797.10 0.3162708
797.20 0.3161576
797.30 0.3160444
797.40 0.3159313
797.50 0.3158183
797.60 0.3157053
797.70 0.3155923
797.80 0.3154794
797.90 0.3153665
798.00 0.3152537
798.10 0.315141
798.20 0.3150282
798.30 0.3149155
798.40 0.3148029
798.50 0.3146903
798.60 0.3145778
798.70 0.3144653
798.80 0.3143529
798.90 0.3142405
799.00 0.3141281
799.10 0.3140158
799.20 0.3139035
799.30 0.3137913
799.40 0.3136791
799.50 0.313567
799.60 0.313455
799.70 0.3133429
799.80 0.3132309
799.90 0.313119
800.00 0.3130071
800.10 0.3128953
800.20 0.3127835
800.30 0.3126717
800.40 0.31256
800.50 0.3124484
800.60 0.3123367
800.70 0.3122252
800.80 0.3121137
800.90 0.3120022
801.00 0.3118907
801.10 0.3117794
801.20 0.311668
801.30 0.3115567
801.40 0.3114455
801.50 0.3113343
801.60 0.3112231
801.70 0.311112
801.80 0.311001
801.90 0.3108899
802.00 0.310779
802.10 0.310668
802.20 0.3105572
802.30 0.3104463
802.40 0.3103355
802.50 0.3102248
802.60 0.3101141
802.70 0.3100034
802.80 0.3098928
802.90 0.3097823
803.00 0.3096718
803.10 0.3095613
803.20 0.3094509
803.30 0.3093405
803.40 0.3092301
803.50 0.3091199
803.60 0.3090096
803.70 0.3088994
803.80 0.3087893
803.90 0.3086792
804.00 0.3085691
804.10 0.3084591
804.20 0.3083492
804.30 0.3082396
804.40 0.30813
804.50 0.3080205
804.60 0.3079111
804.70 0.3078016
804.80 0.3076923
804.90 0.3075829
805.00 0.3074737
805.10 0.3073644
805.20 0.3072552
805.30 0.3071461
805.40 0.307037
805.50 0.3069279
805.60 0.3068189
805.70 0.3067099
805.80 0.306601
805.90 0.3064921
806.00 0.3063833
806.10 0.3062745
806.20 0.3061658
806.30 0.3060571
806.40 0.3059484
806.50 0.3058398
806.60 0.3057312
806.70 0.3056227
806.80 0.3055142
806.90 0.3054058
807.00 0.3052974
807.10 0.305189
807.20 0.3050807
807.30 0.3049725
807.40 0.3048643
807.50 0.3047561
807.60 0.304648
807.70 0.3045399
807.80 0.3044319
807.90 0.3043239
808.00 0.3042159
808.10 0.304108
808.20 0.3040001
808.30 0.3038898
808.40 0.3037795
808.50 0.3036693
808.60 0.3035591
808.70 0.303449
808.80 0.3033389
808.90 0.3032288
809.00 0.3031188
809.10 0.3030088
809.20 0.3028989
809.30 0.302789
809.40 0.3026792
809.50 0.3025694
809.60 0.3024597
809.70 0.30235
809.80 0.3022404
809.90 0.3021308
810.00 0.3020212
810.10 0.3019117
810.20 0.3018022
810.30 0.3016928
810.40 0.3015834
810.50 0.3014741
810.60 0.3013648
810.70 0.3012556
810.80 0.3011464
810.90 0.3010372
811.00 0.3009281
811.10 0.300819
811.20 0.30071
811.30 0.300601
811.40 0.3004921
811.50 0.3003832
811.60 0.3002744
811.70 0.3001656
811.80 0.3000568
811.90 0.2999481
812.00 0.2998395
812.10 0.2997308
812.20 0.2996223
812.30 0.2995154
812.40 0.2994089
812.50 0.2993025
812.60 0.2991962
812.70 0.2990899
812.80 0.2989836
812.90 0.2988774
813.00 0.2987712
813.10 0.2986651
813.20 0.298559
813.30 0.2984529
813.40 0.2983469
813.50 0.298241
813.60 0.2981351
813.70 0.2980292
813.80 0.2979234
813.90 0.2978176
814.00 0.2977118
814.10 0.2976061
814.20 0.2975005
814.30 0.2973948
814.40 0.2972893
814.50 0.2971837
814.60 0.2970782
814.70 0.2969728
814.80 0.2968674
814.90 0.296762
815.00 0.2966567
815.10 0.2965514
815.20 0.2964462
815.30 0.296341
815.40 0.2962359
815.50 0.2961308
815.60 0.2960257
815.70 0.2959207
815.80 0.2958157
815.90 0.2957108
816.00 0.2956059
816.10 0.295501
816.20 0.2953962
816.30 0.2952915
816.40 0.2951867
816.50 0.2950821
816.60 0.2949774
816.70 0.2948728
816.80 0.2947683
816.90 0.2946638
817.00 0.2945593
817.10 0.2944549
817.20 0.2943505
817.30 0.2942462
817.40 0.2941419
817.50 0.2940376
817.60 0.2939334
817.70 0.2938292
817.80 0.2937251
817.90 0.293621
818.00 0.293517
818.10 0.293413
818.20 0.293309
818.30 0.2932051
818.40 0.2931012
818.50 0.2929974
818.60 0.2928936
818.70 0.2927898
818.80 0.2926861
818.90 0.2925825
819.00 0.2924788
819.10 0.2923752
819.20 0.2922717
819.30 0.2921667
819.40 0.2920608
819.50 0.291955
819.60 0.2918492
819.70 0.2917434
819.80 0.2916377
819.90 0.291532
820.00 0.2914263
820.10 0.2913239
820.20 0.2912528
820.30 0.2911818
820.40 0.2910916
820.50 0.2909874
820.60 0.2908834
820.70 0.2907793
820.80 0.2906753
820.90 0.2905713
821.00 0.2904674
821.10 0.2903635
821.20 0.2902597
821.30 0.2901559
821.40 0.2900521
821.50 0.2899484
821.60 0.2898447
821.70 0.2897411
821.80 0.2896375
821.90 0.289534
822.00 0.2894305
822.10 0.289327
822.20 0.2892236
822.30 0.2891202
822.40 0.2890169
822.50 0.2889136
822.60 0.2888103
822.70 0.2887071
822.80 0.2886039
822.90 0.2885008
823.00 0.2883977
823.10 0.2882947
823.20 0.2881916
823.30 0.2880887
823.40 0.2879858
823.50 0.2878829
823.60 0.28778
823.70 0.2876772
823.80 0.2875745
823.90 0.2874718
824.00 0.2873691
824.10 0.2872665
824.20 0.2871639
824.30 0.2870613
824.40 0.2869588
824.50 0.2868564
824.60 0.2867539
824.70 0.2866515
824.80 0.2865492
824.90 0.2864469
825.00 0.2863446
825.10 0.2862424
825.20 0.2861402
825.30 0.2860381
825.40 0.285936
825.50 0.2858339
825.60 0.2857319
825.70 0.28563
825.80 0.285528
825.90 0.2854261
826.00 0.2853243
826.10 0.2852225
826.20 0.2851207
826.30 0.285021
826.40 0.2849228
826.50 0.2848246
826.60 0.2847264
826.70 0.2846282
826.80 0.2845301
826.90 0.2844321
827.00 0.284334
827.10 0.2842361
827.20 0.2841381
827.30 0.2840402
827.40 0.2839423
827.50 0.2838445
827.60 0.2837467
827.70 0.283649
827.80 0.2835513
827.90 0.2834536
828.00 0.283356
828.10 0.2832584
828.20 0.2831608
828.30 0.2830633
828.40 0.2829658
828.50 0.2828684
828.60 0.2827692
828.70 0.2826685
828.80 0.2825679
828.90 0.2824673
829.00 0.2823668
829.10 0.2822663
829.20 0.2821658
829.30 0.2820654
829.40 0.281965
829.50 0.2818647
829.60 0.2817644
829.70 0.2816641
829.80 0.2815639
829.90 0.2814637
830.00 0.2813636
830.10 0.2812635
830.20 0.2811634
830.30 0.2810634
830.40 0.2809634
830.50 0.2808635
830.60 0.2807636
830.70 0.2806637
830.80 0.2805639
830.90 0.2804641
831.00 0.2803644
831.10 0.2802647
831.20 0.280165
831.30 0.2800654
831.40 0.2799658
831.50 0.2798663
831.60 0.2797668
831.70 0.2796673
831.80 0.2795679
831.90 0.2794685
832.00 0.2793692
832.10 0.2792699
832.20 0.2791706
832.30 0.2790714
832.40 0.2789722
832.50 0.2788731
832.60 0.278774
832.70 0.2786749
832.80 0.2785759
832.90 0.2784769
833.00 0.278378
833.10 0.2782791
833.20 0.2781802
833.30 0.2780814
833.40 0.2779826
833.50 0.2778838
833.60 0.2777851
833.70 0.2776865
833.80 0.2775878
833.90 0.2774892
834.00 0.2773907
834.10 0.2772922
834.20 0.2771937
834.30 0.2770953
834.40 0.2769969
834.50 0.2768985
834.60 0.2768002
834.70 0.2767019
834.80 0.2766037
834.90 0.2765055
835.00 0.2764073
835.10 0.2763092
835.20 0.2762111
835.30 0.2761131
835.40 0.2760151
835.50 0.2759171
835.60 0.2758192
835.70 0.2757213
835.80 0.2756235
835.90 0.2755256
836.00 0.2754279
836.10 0.2753301
836.20 0.2752325
836.30 0.2751348
836.40 0.2750372
836.50 0.2749396
836.60 0.2748421
836.70 0.2747446
836.80 0.2746471
836.90 0.2745515
837.00 0.2744566
837.10 0.2743619
837.20 0.2742671
837.30 0.2741724
837.40 0.2740777
837.50 0.2739831
837.60 0.2738885
837.70 0.273794
837.80 0.2736994
837.90 0.273605
838.00 0.2735105
838.10 0.2734161
838.20 0.2733217
838.30 0.2732274
838.40 0.2731331
838.50 0.2730388
838.60 0.2729446
838.70 0.2728504
838.80 0.2727563
838.90 0.2726622
839.00 0.2725681
839.10 0.2724741
839.20 0.2723801
839.30 0.2722861
839.40 0.2721922
839.50 0.2720983
839.60 0.2720044
839.70 0.2719106
839.80 0.2718169
839.90 0.2717231
840.00 0.2716294
840.10 0.2715357
840.20 0.2714421
840.30 0.2713485
840.40 0.271255
840.50 0.2711615
840.60 0.271068
840.70 0.2709745
840.80 0.2708811
840.90 0.2707877
841.00 0.2706944
841.10 0.2705992
841.20 0.2705037
841.30 0.2704083
841.40 0.2703129
841.50 0.2702175
841.60 0.2701222
841.70 0.2700269
841.80 0.2699317
841.90 0.2698365
842.00 0.2697413
842.10 0.2696461
842.20 0.269551
842.30 0.269456
842.40 0.2693609
842.50 0.269266
842.60 0.269171
842.70 0.2690761
842.80 0.2689812
842.90 0.2688864
843.00 0.2687916
843.10 0.2686968
843.20 0.2686021
843.30 0.2685074
843.40 0.2684127
843.50 0.2683181
843.60 0.2682235
843.70 0.268129
843.80 0.2680345
843.90 0.26794
844.00 0.2678456
844.10 0.2677512
844.20 0.2676569
844.30 0.2675625
844.40 0.2674683
844.50 0.267374
844.60 0.2672798
844.70 0.2671856
844.80 0.2670915
844.90 0.2669974
845.00 0.2669034
845.10 0.2668093
845.20 0.2667154
845.30 0.2666228
845.40 0.2665303
845.50 0.2664378
845.60 0.2663453
845.70 0.2662529
845.80 0.2661606
845.90 0.2660682
846.00 0.2659759
846.10 0.2658837
846.20 0.2657914
846.30 0.2656992
846.40 0.2656071
846.50 0.265515
846.60 0.2654229
846.70 0.2653308
846.80 0.2652388
846.90 0.2651468
847.00 0.2650549
847.10 0.264963
847.20 0.2648711
847.30 0.2647793
847.40 0.2646875
847.50 0.2645957
847.60 0.264504
847.70 0.2644123
847.80 0.2643207
847.90 0.264229
848.00 0.2641375
848.10 0.2640459
848.20 0.2639544
848.30 0.2638629
848.40 0.2637715
848.50 0.2636801
848.60 0.2635887
848.70 0.2634974
848.80 0.2634061
848.90 0.2633148
849.00 0.2632236
849.10 0.2631324
849.20 0.2630413
849.30 0.2629501
849.40 0.2628591
849.50 0.262768
849.60 0.262677
849.70 0.262586
849.80 0.2624951
849.90 0.2624042
850.00 0.2623133
850.10 0.2622225
850.20 0.2621317
850.30 0.2620409
850.40 0.2619502
850.50 0.2618595
850.60 0.2617689
850.70 0.2616782
850.80 0.2615877
850.90 0.2614971
851.00 0.2614066
851.10 0.2613161
851.20 0.2612257
851.30 0.2611353
851.40 0.2610449
851.50 0.2609545
851.60 0.2608642
851.70 0.260774
851.80 0.2606837
851.90 0.2605936
852.00 0.2605034
852.10 0.2604133
852.20 0.2603232
852.30 0.2602331
852.40 0.2601431
852.50 0.2600531
852.60 0.2599632
852.70 0.2598732
852.80 0.2597834
852.90 0.2596935
853.00 0.2596037
853.10 0.2595139
853.20 0.2594242
853.30 0.2593345
853.40 0.2592448
853.50 0.2591552
853.60 0.2590656
853.70 0.2589756
853.80 0.2588853
853.90 0.2587951
854.00 0.2587048
854.10 0.2586146
854.20 0.2585245
854.30 0.2584343
854.40 0.2583442
854.50 0.2582542
854.60 0.2581641
854.70 0.2580742
854.80 0.2579842
854.90 0.2578943
855.00 0.2578044
855.10 0.2577145
855.20 0.2576247
855.30 0.2575349
855.40 0.2574452
855.50 0.2573555
855.60 0.2572658
855.70 0.2571762
855.80 0.2570866
855.90 0.256997
856.00 0.2569075
856.10 0.256818
856.20 0.2567285
856.30 0.2566391
856.40 0.2565497
856.50 0.2564603
856.60 0.256371
856.70 0.2562817
856.80 0.2561924
856.90 0.2561032
857.00 0.256014
857.10 0.2559249
857.20 0.2558357
857.30 0.2557467
857.40 0.2556576
857.50 0.2555686
857.60 0.2554796
857.70 0.2553907
857.80 0.2553018
857.90 0.2552129
858.00 0.255124
858.10 0.2550352
858.20 0.2549465
858.30 0.2548577
858.40 0.254769
858.50 0.2546803
858.60 0.2545917
858.70 0.2545031
858.80 0.2544145
858.90 0.254326
859.00 0.2542375
859.10 0.254149
859.20 0.2540606
859.30 0.2539722
859.40 0.2538838
859.50 0.2537955
859.60 0.2537072
859.70 0.253619
859.80 0.2535307
859.90 0.2534426
860.00 0.2533544
860.10 0.2532663
860.20 0.2531782
860.30 0.2530901
860.40 0.2530021
860.50 0.2529141
860.60 0.2528262
860.70 0.2527383
860.80 0.2526504
860.90 0.2525625
861.00 0.2524747
861.10 0.2523869
861.20 0.2522992
861.30 0.2522115
861.40 0.2521238
861.50 0.2520361
861.60 0.2519485
861.70 0.2518609
861.80 0.2517734
861.90 0.2516859
862.00 0.2515984
862.10 0.251511
862.20 0.2514237
862.30 0.2513377
862.40 0.2512516
862.50 0.2511656
862.60 0.2510797
862.70 0.2509938
862.80 0.2509079
862.90 0.250822
863.00 0.2507362
863.10 0.2506504
863.20 0.2505646
863.30 0.2504789
863.40 0.2503932
863.50 0.2503076
863.60 0.2502219
863.70 0.2501363
863.80 0.2500508
863.90 0.2499652
864.00 0.2498797
864.10 0.2497943
864.20 0.2497088
864.30 0.2496234
864.40 0.2495381
864.50 0.2494528
864.60 0.2493675
864.70 0.2492822
864.80 0.249197
864.90 0.2491118
865.00 0.2490266
865.10 0.2489414
865.20 0.2488563
865.30 0.2487713
865.40 0.2486862
865.50 0.2486012
865.60 0.2485163
865.70 0.2484313
865.80 0.2483464
865.90 0.2482615
866.00 0.2481767
866.10 0.2480919
866.20 0.2480071
866.30 0.2479224
866.40 0.2478377
866.50 0.247753
866.60 0.2476683
866.70 0.2475837
866.80 0.2474991
866.90 0.2474146
867.00 0.2473301
867.10 0.2472456
867.20 0.2471611
867.30 0.2470767
867.40 0.2469923
867.50 0.246908
867.60 0.2468236
867.70 0.2467394
867.80 0.2466551
867.90 0.2465709
868.00 0.2464867
868.10 0.2464025
868.20 0.2463184
868.30 0.2462343
868.40 0.2461502
868.50 0.2460662
868.60 0.2459822
868.70 0.2458982
868.80 0.2458143
868.90 0.2457304
869.00 0.2456465
869.10 0.2455627
869.20 0.2454789
869.30 0.2453951
869.40 0.2453113
869.50 0.2452276
869.60 0.245144
869.70 0.2450603
869.80 0.2449767
869.90 0.2448931
870.00 0.2448096
870.10 0.244726
870.20 0.2446426
870.30 0.2445591
870.40 0.2444757
870.50 0.2443923
870.60 0.2443089
870.70 0.2442256
870.80 0.2441423
870.90 0.2440584
871.00 0.2439744
871.10 0.2438905
871.20 0.2438066
871.30 0.2437227
871.40 0.2436389
871.50 0.2435551
871.60 0.2434713
871.70 0.2433876
871.80 0.2433039
871.90 0.2432202
872.00 0.2431366
872.10 0.243053
872.20 0.2429694
872.30 0.2428858
872.40 0.2428023
872.50 0.2427188
872.60 0.2426354
872.70 0.242552
872.80 0.2424686
872.90 0.2423852
873.00 0.2423019
873.10 0.2422186
873.20 0.2421354
873.30 0.2420521
873.40 0.2419689
873.50 0.2418858
873.60 0.2418026
873.70 0.2417195
873.80 0.2416365
873.90 0.2415534
874.00 0.2414704
874.10 0.2413875
874.20 0.2413045
874.30 0.2412216
874.40 0.2411387
874.50 0.2410559
874.60 0.2409731
874.70 0.2408903
874.80 0.2408075
874.90 0.2407248
875.00 0.2406421
875.10 0.2405595
875.20 0.2404768
875.30 0.2403943
875.40 0.2403117
875.50 0.2402292
875.60 0.2401467
875.70 0.2400642
875.80 0.2399818
875.90 0.2398994
876.00 0.239817
876.10 0.2397346
876.20 0.2396523
876.30 0.23957
876.40 0.2394878
876.50 0.2394056
876.60 0.2393234
876.70 0.2392412
876.80 0.2391591
876.90 0.239077
877.00 0.238995
877.10 0.2389129
877.20 0.2388309
877.30 0.238749
877.40 0.238667
877.50 0.2385851
877.60 0.2385032
877.70 0.2384214
877.80 0.2383396
877.90 0.2382578
878.00 0.2381761
878.10 0.2380943
878.20 0.2380127
878.30 0.237931
878.40 0.2378494
878.50 0.2377678
878.60 0.2376862
878.70 0.2376047
878.80 0.2375232
878.90 0.2374417
879.00 0.2373603
879.10 0.2372789
879.20 0.2371975
879.30 0.2371161
879.40 0.2370348
879.50 0.2369535
879.60 0.2368725
879.70 0.2367915
879.80 0.2367106
879.90 0.2366297
880.00 0.2365489
880.10 0.2364681
880.20 0.2363873
880.30 0.2363065
880.40 0.2362258
880.50 0.236145
880.60 0.2360644
880.70 0.2359837
880.80 0.2359031
880.90 0.2358225
881.00 0.235742
881.10 0.2356615
881.20 0.235581
881.30 0.2355005
881.40 0.2354201
881.50 0.2353397
881.60 0.2352593
881.70 0.235179
881.80 0.2350987
881.90 0.2350184
882.00 0.2349381
882.10 0.2348579
882.20 0.2347777
882.30 0.2346976
882.40 0.2346174
882.50 0.2345373
882.60 0.2344573
882.70 0.2343772
882.80 0.2342972
882.90 0.2342173
883.00 0.2341373
883.10 0.2340574
883.20 0.2339775
883.30 0.2338977
883.40 0.2338178
883.50 0.233738
883.60 0.2336583
883.70 0.2335785
883.80 0.2334988
883.90 0.2334192
884.00 0.2333411
884.10 0.2332634
884.20 0.2331858
884.30 0.2331081
884.40 0.2330305
884.50 0.2329529
884.60 0.2328753
884.70 0.2327978
884.80 0.2327203
884.90 0.2326428
885.00 0.2325654
885.10 0.232488
885.20 0.2324106
885.30 0.2323333
885.40 0.2322559
885.50 0.2321786
885.60 0.2321014
885.70 0.2320241
885.80 0.2319469
885.90 0.2318697
886.00 0.2317926
886.10 0.2317155
886.20 0.2316384
886.30 0.2315613
886.40 0.2314843
886.50 0.2314073
886.60 0.2313303
886.70 0.2312533
886.80 0.2311764
886.90 0.2310995
887.00 0.2310227
887.10 0.2309458
887.20 0.230869
887.30 0.2307922
887.40 0.2307155
887.50 0.2306388
887.60 0.2305621
887.70 0.2304854
887.80 0.2304088
887.90 0.2303322
888.00 0.2302556
888.10 0.2301791
888.20 0.2301026
888.30 0.2300261
888.40 0.2299482
888.50 0.2298701
888.60 0.2297921
888.70 0.2297141
888.80 0.2296361
888.90 0.2295582
889.00 0.2294802
889.10 0.2294023
889.20 0.2293245
889.30 0.2292467
889.40 0.2291689
889.50 0.2290911
889.60 0.2290133
889.70 0.2289356
889.80 0.2288579
889.90 0.2287803
890.00 0.2287027
890.10 0.2286251
890.20 0.2285475
890.30 0.22847
890.40 0.2283925
890.50 0.228315
890.60 0.2282375
890.70 0.2281601
890.80 0.2280827
890.90 0.2280053
891.00 0.227928
891.10 0.2278507
891.20 0.2277734
891.30 0.2276962
891.40 0.227619
891.50 0.2275418
891.60 0.2274646
891.70 0.2273875
891.80 0.2273104
891.90 0.2272333
892.00 0.2271562
892.10 0.2270792
892.20 0.2270022
892.30 0.2269253
892.40 0.2268484
892.50 0.2267715
892.60 0.2266946
892.70 0.2266177
892.80 0.2265409
892.90 0.2264641
893.00 0.2263874
893.10 0.2263106
893.20 0.2262339
893.30 0.2261573
893.40 0.2260806
893.50 0.226004
893.60 0.2259274
893.70 0.2258509
893.80 0.2257743
893.90 0.2256978
894.00 0.2256214
894.10 0.2255449
894.20 0.2254685
894.30 0.2253921
894.40 0.2253158
894.50 0.2252394
894.60 0.2251631
894.70 0.2250869
894.80 0.2250106
894.90 0.2249344
895.00 0.2248582
895.10 0.2247821
895.20 0.2247059
895.30 0.2246298
895.40 0.2245537
895.50 0.2244777
895.60 0.2244017
895.70 0.2243257
895.80 0.2242497
895.90 0.2241738
896.00 0.2240979
896.10 0.224022
896.20 0.2239462
896.30 0.2238704
896.40 0.2237946
896.50 0.2237188
896.60 0.2236431
896.70 0.2235674
896.80 0.2234917
896.90 0.223416
897.00 0.2233404
897.10 0.2232648
897.20 0.2231893
897.30 0.223114
897.40 0.2230387
897.50 0.2229635
897.60 0.2228883
897.70 0.2228132
897.80 0.222738
897.90 0.2226629
898.00 0.2225878
898.10 0.2225128
898.20 0.2224377
898.30 0.2223627
898.40 0.2222878
898.50 0.2222128
898.60 0.2221379
898.70 0.222063
898.80 0.2219881
898.90 0.2219133
899.00 0.2218385
899.10 0.2217637
899.20 0.221689
899.30 0.2216142
899.40 0.2215396
899.50 0.2214649
899.60 0.2213902
899.70 0.2213156
899.80 0.2212411
899.90 0.2211665
900.00 0.221092
900.10 0.2210175
900.20 0.220943
900.30 0.2208685
900.40 0.2207941
900.50 0.2207197
900.60 0.2206454
900.70 0.220571
900.80 0.2204967
900.90 0.2204224
901.00 0.2203482
901.10 0.220274
901.20 0.2201998
901.30 0.2201256
901.40 0.2200515
901.50 0.2199773
901.60 0.2199033
901.70 0.2198292
901.80 0.2197552
901.90 0.2196812
902.00 0.2196072
902.10 0.2195332
902.20 0.2194593
902.30 0.2193854
902.40 0.2193115
902.50 0.2192377
902.60 0.2191639
902.70 0.2190901
902.80 0.2190163
902.90 0.2189426
903.00 0.2188689
903.10 0.2187952
903.20 0.2187216
903.30 0.2186479
903.40 0.2185744
903.50 0.2185008
903.60 0.2184272
903.70 0.2183537
903.80 0.2182802
903.90 0.2182068
904.00 0.2181334
904.10 0.2180599
904.20 0.2179866
904.30 0.2179132
904.40 0.2178399
904.50 0.2177666
904.60 0.2176933
904.70 0.2176201
904.80 0.2175469
904.90 0.2174737
905.00 0.2174005
905.10 0.2173274
905.20 0.2172543
905.30 0.2171812
905.40 0.2171081
905.50 0.2170351
905.60 0.2169621
905.70 0.2168891
905.80 0.2168162
905.90 0.2167433
906.00 0.2166704
906.10 0.2165975
906.20 0.2165248
906.30 0.2164522
906.40 0.2163797
906.50 0.2163072
906.60 0.2162347
906.70 0.2161622
906.80 0.2160898
906.90 0.2160174
907.00 0.215945
907.10 0.2158727
907.20 0.2158003
907.30 0.215728
907.40 0.2156558
907.50 0.2155835
907.60 0.2155113
907.70 0.2154391
907.80 0.215367
907.90 0.2152948
908.00 0.2152227
908.10 0.2151506
908.20 0.2150786
908.30 0.2150065
908.40 0.2149345
908.50 0.2148626
908.60 0.2147906
908.70 0.2147187
908.80 0.2146468
908.90 0.2145749
909.00 0.2145031
909.10 0.2144313
909.20 0.2143595
909.30 0.2142877
909.40 0.214216
909.50 0.2141442
909.60 0.2140726
909.70 0.2140009
909.80 0.2139293
909.90 0.2138577
910.00 0.2137861
910.10 0.2137145
910.20 0.213643
910.30 0.2135715
910.40 0.2135
910.50 0.2134286
910.60 0.2133571
910.70 0.2132857
910.80 0.2132144
910.90 0.213143
911.00 0.2130717
911.10 0.2130004
911.20 0.2129291
911.30 0.2128579
911.40 0.2127867
911.50 0.2127155
911.60 0.2126443
911.70 0.2125732
911.80 0.2125021
911.90 0.212431
912.00 0.21236
912.10 0.2122889
912.20 0.2122179
912.30 0.2121469
912.40 0.212076
912.50 0.2120051
912.60 0.2119342
912.70 0.2118633
912.80 0.2117924
912.90 0.2117216
913.00 0.2116508
913.10 0.21158
913.20 0.2115093
913.30 0.2114386
913.40 0.2113679
913.50 0.2112972
913.60 0.2112266
913.70 0.211156
913.80 0.2110854
913.90 0.2110148
914.00 0.2109443
914.10 0.2108737
914.20 0.2108033
914.30 0.2107328
914.40 0.2106624
914.50 0.210592
914.60 0.2105216
914.70 0.2104512
914.80 0.2103809
914.90 0.2103106
915.00 0.2102403
915.10 0.21017
915.20 0.2100998
915.30 0.2100298
915.40 0.2099598
915.50 0.2098899
915.60 0.20982
915.70 0.2097502
915.80 0.2096803
915.90 0.2096105
916.00 0.2095407
916.10 0.209471
916.20 0.2094012
916.30 0.2093315
916.40 0.2092618
916.50 0.2091922
916.60 0.2091225
916.70 0.2090529
916.80 0.2089833
916.90 0.2089138
917.00 0.2088443
917.10 0.2087747
917.20 0.2087053
917.30 0.2086358
917.40 0.2085664
917.50 0.208497
917.60 0.2084276
917.70 0.2083582
917.80 0.2082889
917.90 0.2082196
918.00 0.2081503
918.10 0.2080811
918.20 0.2080118
918.30 0.2079426
918.40 0.2078735
918.50 0.2078043
918.60 0.2077352
918.70 0.2076661
918.80 0.207597
918.90 0.2075279
919.00 0.2074589
919.10 0.2073899
919.20 0.2073209
919.30 0.207252
919.40 0.2071831
919.50 0.2071142
919.60 0.2070453
919.70 0.2069764
919.80 0.2069076
919.90 0.2068388
920.00 0.20677
920.10 0.2067013
920.20 0.2066325
920.30 0.2065638
920.40 0.2064952
920.50 0.2064265
920.60 0.2063579
920.70 0.2062893
920.80 0.2062207
920.90 0.2061522
921.00 0.2060836
921.10 0.2060151
921.20 0.2059467
921.30 0.2058782
921.40 0.2058098
921.50 0.2057414
921.60 0.205673
921.70 0.2056046
921.80 0.2055363
921.90 0.205468
922.00 0.2053997
922.10 0.2053315
922.20 0.2052632
922.30 0.205195
922.40 0.2051269
922.50 0.2050587
922.60 0.2049906
922.70 0.2049225
922.80 0.2048544
922.90 0.2047863
923.00 0.2047183
923.10 0.2046503
923.20 0.2045823
923.30 0.2045144
923.40 0.2044464
923.50 0.2043785
923.60 0.2043106
923.70 0.2042428
923.80 0.2041749
923.90 0.2041071
924.00 0.2040393
924.10 0.2039716
924.20 0.2039039
924.30 0.2038361
924.40 0.2037685
924.50 0.2037011
924.60 0.2036337
924.70 0.2035663
924.80 0.2034989
924.90 0.2034316
925.00 0.2033643
925.10 0.203297
925.20 0.2032298
925.30 0.2031625
925.40 0.2030953
925.50 0.2030281
925.60 0.202961
925.70 0.2028938
925.80 0.2028267
925.90 0.2027596
926.00 0.2026926
926.10 0.2026255
926.20 0.2025585
926.30 0.2024915
926.40 0.2024246
926.50 0.2023576
926.60 0.2022907
926.70 0.2022238
926.80 0.2021569
926.90 0.2020901
927.00 0.2020233
927.10 0.2019565
927.20 0.2018897
927.30 0.201823
927.40 0.2017562
927.50 0.2016895
927.60 0.2016229
927.70 0.2015562
927.80 0.2014896
927.90 0.201423
928.00 0.2013564
928.10 0.2012898
928.20 0.2012233
928.30 0.2011568
928.40 0.2010903
928.50 0.2010239
928.60 0.2009574
928.70 0.200891
928.80 0.2008246
928.90 0.2007582
929.00 0.2006919
929.10 0.2006256
929.20 0.2005593
929.30 0.200493
929.40 0.2004268
929.50 0.2003606
929.60 0.2002944
929.70 0.2002282
929.80 0.200162
929.90 0.2000959
930.00 0.2000298
930.10 0.1999637
930.20 0.1998977
930.30 0.1998317
930.40 0.1997656
930.50 0.1996997
930.60 0.1996337
930.70 0.1995678
930.80 0.1995019
930.90 0.199436
931.00 0.1993701
931.10 0.1993043
931.20 0.1992384
931.30 0.1991727
931.40 0.1991069
931.50 0.1990411
931.60 0.1989754
931.70 0.1989097
931.80 0.198844
931.90 0.1987784
932.00 0.1987128
932.10 0.1986472
932.20 0.1985816
932.30 0.198516
932.40 0.1984505
932.50 0.198385
932.60 0.1983195
932.70 0.198254
932.80 0.1981886
932.90 0.1981232
933.00 0.1980578
933.10 0.1979924
933.20 0.1979271
933.30 0.1978617
933.40 0.1977964
933.50 0.1977312
933.60 0.1976659
933.70 0.1976009
933.80 0.1975359
933.90 0.1974709
934.00 0.197406
934.10 0.1973411
934.20 0.1972762
934.30 0.1972113
934.40 0.1971465
934.50 0.1970817
934.60 0.1970169
934.70 0.1969521
934.80 0.1968874
934.90 0.1968226
935.00 0.1967579
935.10 0.1966933
935.20 0.1966286
935.30 0.196564
935.40 0.1964994
935.50 0.1964348
935.60 0.1963702
935.70 0.1963057
935.80 0.1962412
935.90 0.1961767
936.00 0.1961122
936.10 0.1960478
936.20 0.1959833
936.30 0.1959189
936.40 0.1958546
936.50 0.1957902
936.60 0.1957259
936.70 0.1956616
936.80 0.1955973
936.90 0.195533
937.00 0.1954688
937.10 0.1954046
937.20 0.1953404
937.30 0.1952762
937.40 0.195212
937.50 0.1951479
937.60 0.1950838
937.70 0.1950197
937.80 0.1949557
937.90 0.1948917
938.00 0.1948276
938.10 0.1947637
938.20 0.1946997
938.30 0.1946358
938.40 0.1945718
938.50 0.1945079
938.60 0.1944441
938.70 0.1943802
938.80 0.1943164
938.90 0.1942526
939.00 0.1941888
939.10 0.194125
939.20 0.1940613
939.30 0.1939976
939.40 0.1939339
939.50 0.1938702
939.60 0.1938066
939.70 0.193743
939.80 0.1936794
939.90 0.1936158
940.00 0.1935522
940.10 0.1934887
940.20 0.1934252
940.30 0.1933617
940.40 0.1932982
940.50 0.1932348
940.60 0.1931714
940.70 0.193108
940.80 0.1930446
940.90 0.1929813
941.00 0.1929179
941.10 0.1928546
941.20 0.1927913
941.30 0.1927281
941.40 0.1926648
941.50 0.1926016
941.60 0.1925384
941.70 0.1924753
941.80 0.1924121
941.90 0.192349
942.00 0.1922859
942.10 0.1922228
942.20 0.1921597
942.30 0.1920967
942.40 0.1920337
942.50 0.1919707
942.60 0.1919077
942.70 0.1918448
942.80 0.1917819
942.90 0.191719
943.00 0.1916562
943.10 0.1915935
943.20 0.1915309
943.30 0.1914683
943.40 0.1914058
943.50 0.1913432
943.60 0.1912807
943.70 0.1912182
943.80 0.1911557
943.90 0.1910933
944.00 0.1910308
944.10 0.1909684
944.20 0.190906
944.30 0.1908436
944.40 0.1907813
944.50 0.190719
944.60 0.1906567
944.70 0.1905944
944.80 0.1905321
944.90 0.1904699
945.00 0.1904077
945.10 0.1903455
945.20 0.1902833
945.30 0.1902212
945.40 0.190159
945.50 0.1900969
945.60 0.1900349
945.70 0.1899728
945.80 0.1899108
945.90 0.1898487
946.00 0.1897867
946.10 0.1897248
946.20 0.1896628
946.30 0.1896009
946.40 0.189539
946.50 0.1894771
946.60 0.1894152
946.70 0.1893534
946.80 0.1892916
946.90 0.1892298
947.00 0.189168
947.10 0.1891063
947.20 0.1890445
947.30 0.1889828
947.40 0.1889211
947.50 0.1888595
947.60 0.1887978
947.70 0.1887362
947.80 0.1886746
947.90 0.188613
948.00 0.1885515
948.10 0.1884899
948.20 0.1884284
948.30 0.1883669
948.40 0.1883055
948.50 0.188244
948.60 0.1881826
948.70 0.1881212
948.80 0.1880598
948.90 0.1879984
949.00 0.1879371
949.10 0.1878758
949.20 0.1878145
949.30 0.1877532
949.40 0.187692
949.50 0.1876307
949.60 0.1875695
949.70 0.1875083
949.80 0.1874472
949.90 0.187386
950.00 0.1873249
950.10 0.1872638
950.20 0.1872027
950.30 0.1871416
950.40 0.1870806
950.50 0.1870196
950.60 0.1869586
950.70 0.1868976
950.80 0.1868367
950.90 0.1867758
951.00 0.1867148
951.10 0.186654
951.20 0.1865931
951.30 0.1865322
951.40 0.1864714
951.50 0.1864106
951.60 0.1863498
951.70 0.1862891
951.80 0.1862284
951.90 0.1861676
952.00 0.1861069
952.10 0.1860463
952.20 0.1859856
952.30 0.185925
952.40 0.1858645
952.50 0.1858057
952.60 0.1857469
952.70 0.185688
952.80 0.1856293
952.90 0.1855705
953.00 0.1855117
953.10 0.185453
953.20 0.1853943
953.30 0.1853356
953.40 0.185277
953.50 0.1852183
953.60 0.1851597
953.70 0.1851011
953.80 0.1850425
953.90 0.184984
954.00 0.1849254
954.10 0.1848669
954.20 0.1848084
954.30 0.1847499
954.40 0.1846915
954.50 0.184633
954.60 0.1845746
954.70 0.1845162
954.80 0.1844578
954.90 0.1843995
955.00 0.1843411
955.10 0.1842828
955.20 0.1842245
955.30 0.1841663
955.40 0.184108
955.50 0.1840498
955.60 0.1839915
955.70 0.1839334
955.80 0.1838752
955.90 0.183817
956.00 0.1837589
956.10 0.1837008
956.20 0.1836427
956.30 0.1835846
956.40 0.1835266
956.50 0.1834685
956.60 0.1834105
956.70 0.1833525
956.80 0.1832946
956.90 0.1832366
957.00 0.1831787
957.10 0.1831208
957.20 0.1830622
957.30 0.1830028
957.40 0.1829435
957.50 0.1828841
957.60 0.1828248
957.70 0.1827655
957.80 0.1827062
957.90 0.182647
958.00 0.1825877
958.10 0.1825285
958.20 0.1824693
958.30 0.1824102
958.40 0.182351
958.50 0.1822919
958.60 0.1822328
958.70 0.1821737
958.80 0.1821146
958.90 0.1820556
959.00 0.1819965
959.10 0.1819375
959.20 0.1818786
959.30 0.1818196
959.40 0.1817606
959.50 0.1817017
959.60 0.1816428
959.70 0.1815839
959.80 0.1815251
959.90 0.1814662
960.00 0.1814074
960.10 0.1813486
960.20 0.1812898
960.30 0.1812311
960.40 0.1811723
960.50 0.1811136
960.60 0.1810549
960.70 0.1809963
960.80 0.1809376
960.90 0.180879
961.00 0.1808203
961.10 0.1807618
961.20 0.1807032
961.30 0.1806446
961.40 0.1805861
961.50 0.1805276
961.60 0.1804691
961.70 0.1804106
961.80 0.1803522
961.90 0.1802937
962.00 0.1802355
962.10 0.1801773
962.20 0.1801191
962.30 0.180061
962.40 0.1800029
962.50 0.1799448
962.60 0.1798867
962.70 0.1798286
962.80 0.1797706
962.90 0.1797126
963.00 0.1796546
963.10 0.1795966
963.20 0.1795386
963.30 0.1794807
963.40 0.1794228
963.50 0.1793649
963.60 0.179307
963.70 0.1792491
963.80 0.1791913
963.90 0.1791335
964.00 0.1790757
964.10 0.1790179
964.20 0.1789601
964.30 0.1789024
964.40 0.1788447
964.50 0.178787
964.60 0.1787293
964.70 0.1786716
964.80 0.178614
964.90 0.1785564
965.00 0.1784988
965.10 0.1784412
965.20 0.1783836
965.30 0.1783261
965.40 0.1782686
965.50 0.1782111
965.60 0.1781536
965.70 0.1780961
965.80 0.1780387
965.90 0.1779813
966.00 0.1779239
966.10 0.1778665
966.20 0.1778092
966.30 0.1777518
966.40 0.1776945
966.50 0.1776372
966.60 0.1775799
966.70 0.1775227
966.80 0.1774654
966.90 0.1774082
967.00 0.177351
967.10 0.1772938
967.20 0.1772367
967.30 0.1771795
967.40 0.1771224
967.50 0.1770653
967.60 0.1770082
967.70 0.1769512
967.80 0.1768941
967.90 0.1768371
968.00 0.1767801
968.10 0.1767231
968.20 0.1766662
968.30 0.1766092
968.40 0.1765523
968.50 0.1764954
968.60 0.1764385
968.70 0.1763816
968.80 0.1763248
968.90 0.176268
969.00 0.1762112
969.10 0.1761544
969.20 0.1760976
969.30 0.1760409
969.40 0.1759842
969.50 0.1759274
969.60 0.1758708
969.70 0.1758141
969.80 0.1757574
969.90 0.1757008
970.00 0.1756442
970.10 0.1755876
970.20 0.1755311
970.30 0.1754745
970.40 0.175418
970.50 0.1753615
970.60 0.175305
970.70 0.1752485
970.80 0.1751921
970.90 0.1751356
971.00 0.1750792
971.10 0.1750228
971.20 0.1749665
971.30 0.1749101
971.40 0.1748538
971.50 0.1747974
971.60 0.1747413
971.70 0.1746852
971.80 0.1746292
971.90 0.1745731
972.00 0.1745171
972.10 0.1744611
972.20 0.1744051
972.30 0.1743492
972.40 0.1742932
972.50 0.1742373
972.60 0.1741814
972.70 0.1741255
972.80 0.1740697
972.90 0.1740138
973.00 0.173958
973.10 0.1739022
973.20 0.1738464
973.30 0.1737906
973.40 0.1737349
973.50 0.1736792
973.60 0.1736235
973.70 0.1735678
973.80 0.1735121
973.90 0.1734565
974.00 0.1734008
974.10 0.1733452
974.20 0.1732896
974.30 0.173234
974.40 0.1731785
974.50 0.173123
974.60 0.1730674
974.70 0.1730119
974.80 0.1729565
974.90 0.172901
975.00 0.1728456
975.10 0.1727901
975.20 0.1727347
975.30 0.1726794
975.40 0.172624
975.50 0.1725687
975.60 0.1725133
975.70 0.172458
975.80 0.1724027
975.90 0.1723475
976.00 0.1722922
976.10 0.172237
976.20 0.1721818
976.30 0.1721266
976.40 0.1720714
976.50 0.1720163
976.60 0.1719611
976.70 0.171906
976.80 0.1718509
976.90 0.1717958
977.00 0.1717408
977.10 0.1716857
977.20 0.1716307
977.30 0.1715757
977.40 0.1715207
977.50 0.1714658
977.60 0.1714108
977.70 0.1713559
977.80 0.171301
977.90 0.1712461
978.00 0.1711912
978.10 0.1711364
978.20 0.1710815
978.30 0.1710267
978.40 0.1709719
978.50 0.1709172
978.60 0.1708624
978.70 0.1708077
978.80 0.170753
978.90 0.1706982
979.00 0.1706436
979.10 0.1705889
979.20 0.1705343
979.30 0.1704796
979.40 0.170425
979.50 0.1703704
979.60 0.1703159
979.70 0.1702613
979.80 0.1702068
979.90 0.1701523
980.00 0.1700978
980.10 0.1700433
980.20 0.1699888
980.30 0.1699344
980.40 0.16988
980.50 0.1698256
980.60 0.1697712
980.70 0.1697168
980.80 0.1696625
980.90 0.1696082
981.00 0.1695539
981.10 0.1694996
981.20 0.1694453
981.30 0.1693912
981.40 0.1693371
981.50 0.1692831
981.60 0.1692291
981.70 0.1691751
981.80 0.1691212
981.90 0.1690672
982.00 0.1690133
982.10 0.1689594
982.20 0.1689055
982.30 0.1688516
982.40 0.1687978
982.50 0.1687439
982.60 0.1686901
982.70 0.1686363
982.80 0.1685825
982.90 0.1685288
983.00 0.168475
983.10 0.1684213
983.20 0.1683676
983.30 0.1683139
983.40 0.1682603
983.50 0.1682066
983.60 0.168153
983.70 0.1680994
983.80 0.1680458
983.90 0.1679922
984.00 0.1679386
984.10 0.1678851
984.20 0.1678316
984.30 0.1677781
984.40 0.1677246
984.50 0.1676711
984.60 0.1676177
984.70 0.1675642
984.80 0.1675108
984.90 0.1674574
985.00 0.1674041
985.10 0.1673507
985.20 0.1672974
985.30 0.1672441
985.40 0.1671907
985.50 0.1671375
985.60 0.1670842
985.70 0.1670309
985.80 0.1669777
985.90 0.1669245
986.00 0.1668713
986.10 0.1668181
986.20 0.166765
986.30 0.1667118
986.40 0.1666587
986.50 0.1666056
986.60 0.1665525
986.70 0.1664995
986.80 0.1664464
986.90 0.1663934
987.00 0.1663404
987.10 0.1662874
987.20 0.1662344
987.30 0.1661814
987.40 0.1661285
987.50 0.1660756
987.60 0.1660227
987.70 0.1659698
987.80 0.1659169
987.90 0.1658641
988.00 0.1658112
988.10 0.1657584
988.20 0.1657056
988.30 0.1656529
988.40 0.1656001
988.50 0.1655474
988.60 0.1654946
988.70 0.1654419
988.80 0.1653892
988.90 0.1653366
989.00 0.1652839
989.10 0.1652313
989.20 0.1651787
989.30 0.1651261
989.40 0.1650735
989.50 0.1650209
989.60 0.1649684
989.70 0.1649158
989.80 0.1648633
989.90 0.1648108
990.00 0.1647584
990.10 0.1647059
990.20 0.1646535
990.30 0.1646011
990.40 0.1645487
990.50 0.1644963
990.60 0.1644439
990.70 0.1643916
990.80 0.1643392
990.90 0.1642869
991.00 0.1642346
991.10 0.1641824
991.20 0.1641303
991.30 0.1640783
991.40 0.1640262
991.50 0.1639742
991.60 0.1639222
991.70 0.1638702
991.80 0.1638183
991.90 0.1637663
992.00 0.1637144
992.10 0.1636625
992.20 0.1636106
992.30 0.1635587
992.40 0.1635068
992.50 0.163455
992.60 0.1634032
992.70 0.1633514
992.80 0.1632996
992.90 0.1632478
993.00 0.163196
993.10 0.1631443
993.20 0.1630926
993.30 0.1630409
993.40 0.1629892
993.50 0.1629375
993.60 0.1628859
993.70 0.1628342
993.80 0.1627826
993.90 0.162731
994.00 0.1626794
994.10 0.1626279
994.20 0.1625763
994.30 0.1625248
994.40 0.1624733
994.50 0.1624218
994.60 0.1623703
994.70 0.1623189
994.80 0.1622674
994.90 0.162216
995.00 0.1621646
995.10 0.1621132
995.20 0.1620618
995.30 0.1620105
995.40 0.1619591
995.50 0.1619078
995.60 0.1618565
995.70 0.1618052
995.80 0.161754
995.90 0.1617027
996.00 0.1616515
996.10 0.1616003
996.20 0.1615491
996.30 0.1614979
996.40 0.1614467
996.50 0.1613956
996.60 0.1613445
996.70 0.1612934
996.80 0.1612423
996.90 0.1611912
997.00 0.1611401
997.10 0.1610891
997.20 0.1610381
997.30 0.1609871
997.40 0.1609361
997.50 0.1608851
997.60 0.1608342
997.70 0.1607832
997.80 0.1607323
997.90 0.1606814
998.00 0.1606305
998.10 0.1605796
998.20 0.1605288
998.30 0.160478
998.40 0.1604271
998.50 0.1603763
998.60 0.1603256
998.70 0.1602748
998.80 0.1602241
998.90 0.1601733
999.00 0.1601226
999.10 0.1600719
999.20 0.1600212
999.30 0.1599706
999.40 0.1599199
999.50 0.1598693
999.60 0.1598187
999.70 0.1597681
999.80 0.1597175
999.90 0.159667
1000.00 0.1596164
1000.10 0.1595659
1000.20 0.1595154
1000.30 0.1594649
1000.40 0.1594144
1000.50 0.159364
1000.60 0.1593135
1000.70 0.1592631
1000.80 0.1592127
1000.90 0.1591623
1001.00 0.1591123
1001.10 0.1590635
1001.20 0.1590146
1001.30 0.1589658
1001.40 0.158917
1001.50 0.1588682
1001.60 0.1588194
1001.70 0.1587706
1001.80 0.1587219
1001.90 0.1586732
1002.00 0.1586244
1002.10 0.1585757
1002.20 0.1585271
1002.30 0.1584784
1002.40 0.1584298
1002.50 0.1583811
1002.60 0.1583325
1002.70 0.1582839
1002.80 0.1582353
1002.90 0.1581868
1003.00 0.1581382
1003.10 0.1580897
1003.20 0.1580411
1003.30 0.1579926
1003.40 0.1579442
1003.50 0.1578957
1003.60 0.1578472
1003.70 0.1577988
1003.80 0.1577504
1003.90 0.157702
1004.00 0.1576536
1004.10 0.1576052
1004.20 0.1575568
1004.30 0.1575085
1004.40 0.1574602
1004.50 0.1574119
1004.60 0.1573636
1004.70 0.1573153
1004.80 0.157267
1004.90 0.1572188
1005.00 0.1571706
1005.10 0.1571224
1005.20 0.1570742
1005.30 0.157026
1005.40 0.1569778
1005.50 0.1569297
1005.60 0.1568815
1005.70 0.1568334
1005.80 0.1567853
1005.90 0.1567372
1006.00 0.1566889
1006.10 0.1566395
1006.20 0.1565902
1006.30 0.1565409
1006.40 0.1564916
1006.50 0.1564423
1006.60 0.156393
1006.70 0.1563438
1006.80 0.1562945
1006.90 0.1562453
1007.00 0.1561961
1007.10 0.1561469
1007.20 0.1560977
1007.30 0.1560486
1007.40 0.1559994
1007.50 0.1559503
1007.60 0.1559012
1007.70 0.1558521
1007.80 0.155803
1007.90 0.155754
1008.00 0.1557049
1008.10 0.1556559
1008.20 0.1556069
1008.30 0.1555579
1008.40 0.1555089
1008.50 0.1554599
1008.60 0.155411
1008.70 0.1553621
1008.80 0.1553132
1008.90 0.1552643
1009.00 0.1552154
1009.10 0.1551665
1009.20 0.1551177
1009.30 0.1550688
1009.40 0.15502
1009.50 0.1549712
1009.60 0.1549225
1009.70 0.1548737
1009.80 0.1548249
1009.90 0.1547762
1010.00 0.1547275
1010.10 0.1546788
1010.20 0.1546301
1010.30 0.1545814
1010.40 0.1545328
1010.50 0.1544842
1010.60 0.1544355
1010.70 0.1543869
1010.80 0.1543383
1010.90 0.1542898
1011.00 0.1542413
1011.10 0.1541929
1011.20 0.1541446
1011.30 0.1540962
1011.40 0.1540479
1011.50 0.1539996
1011.60 0.1539514
1011.70 0.1539031
1011.80 0.1538549
1011.90 0.1538066
1012.00 0.1537584
1012.10 0.1537102
1012.20 0.153662
1012.30 0.1536139
1012.40 0.1535657
1012.50 0.1535176
1012.60 0.1534695
1012.70 0.1534214
1012.80 0.1533733
1012.90 0.1533252
1013.00 0.1532772
1013.10 0.1532292
1013.20 0.1531811
1013.30 0.1531331
1013.40 0.1530851
1013.50 0.1530372
1013.60 0.1529892
1013.70 0.1529413
1013.80 0.1528934
1013.90 0.1528454
1014.00 0.1527976
1014.10 0.1527497
1014.20 0.1527018
1014.30 0.152654
1014.40 0.1526061
1014.50 0.1525583
1014.60 0.1525105
1014.70 0.1524628
1014.80 0.152415
1014.90 0.1523672
1015.00 0.1523195
1015.10 0.1522718
1015.20 0.1522241
1015.30 0.1521764
1015.40 0.1521287
1015.50 0.1520811
1015.60 0.1520335
1015.70 0.1519858
1015.80 0.1519382
1015.90 0.1518906
1016.00 0.1518431
1016.10 0.1517955
1016.20 0.151748
1016.30 0.1517004
1016.40 0.1516529
1016.50 0.1516054
1016.60 0.1515579
1016.70 0.1515105
1016.80 0.151463
1016.90 0.1514156
1017.00 0.1513682
1017.10 0.1513208
1017.20 0.1512734
1017.30 0.151226
1017.40 0.1511787
1017.50 0.1511313
1017.60 0.151084
1017.70 0.1510367
1017.80 0.1509894
1017.90 0.1509421
1018.00 0.1508949
1018.10 0.1508476
1018.20 0.1508004
1018.30 0.1507532
1018.40 0.150706
1018.50 0.1506588
1018.60 0.1506116
1018.70 0.1505645
1018.80 0.1505174
1018.90 0.1504702
1019.00 0.1504231
1019.10 0.150376
1019.20 0.150329
1019.30 0.1502819
1019.40 0.1502349
1019.50 0.1501879
1019.60 0.1501408
1019.70 0.1500938
1019.80 0.1500469
1019.90 0.1499999
1020.00 0.149953
1020.10 0.149906
1020.20 0.1498591
1020.30 0.1498122
1020.40 0.1497653
1020.50 0.1497184
1020.60 0.1496716
1020.70 0.1496248
1020.80 0.1495779
1020.90 0.1495311
1021.00 0.1494843
1021.10 0.1494376
1021.20 0.149391
1021.30 0.1493444
1021.40 0.1492978
1021.50 0.1492513
1021.60 0.1492048
1021.70 0.1491583
1021.80 0.1491118
1021.90 0.1490653
1022.00 0.1490188
1022.10 0.1489724
1022.20 0.1489259
1022.30 0.1488795
1022.40 0.1488331
1022.50 0.1487867
1022.60 0.1487404
1022.70 0.148694
1022.80 0.1486477
1022.90 0.1486013
1023.00 0.148555
1023.10 0.1485087
1023.20 0.1484624
1023.30 0.1484162
1023.40 0.1483699
1023.50 0.1483237
1023.60 0.1482775
1023.70 0.1482313
1023.80 0.1481851
1023.90 0.1481389
1024.00 0.1480927
1024.10 0.1480466
1024.20 0.1480005
1024.30 0.1479544
1024.40 0.1479083
1024.50 0.1478622
1024.60 0.1478161
1024.70 0.1477701
1024.80 0.147724
1024.90 0.147678
1025.00 0.147632
1025.10 0.147586
1025.20 0.14754
1025.30 0.1474941
1025.40 0.1474481
1025.50 0.1474022
1025.60 0.1473563
1025.70 0.1473104
1025.80 0.1472645
1025.90 0.1472186
1026.00 0.1471727
1026.10 0.1471269
1026.20 0.1470811
1026.30 0.1470365
1026.40 0.1469919
1026.50 0.1469474
1026.60 0.1469028
1026.70 0.1468583
1026.80 0.1468138
1026.90 0.1467693
1027.00 0.1467248
1027.10 0.1466803
1027.20 0.1466359
1027.30 0.1465914
1027.40 0.146547
1027.50 0.1465026
1027.60 0.1464582
1027.70 0.1464138
1027.80 0.1463694
1027.90 0.1463251
1028.00 0.1462807
1028.10 0.1462364
1028.20 0.1461921
1028.30 0.1461478
1028.40 0.1461035
1028.50 0.1460592
1028.60 0.146015
1028.70 0.1459707
1028.80 0.1459265
1028.90 0.1458823
1029.00 0.1458381
1029.10 0.1457939
1029.20 0.1457497
1029.30 0.1457056
1029.40 0.1456614
1029.50 0.1456173
1029.60 0.1455732
1029.70 0.1455291
1029.80 0.145485
1029.90 0.145441
1030.00 0.1453969
1030.10 0.1453529
1030.20 0.1453088
1030.30 0.1452648
1030.40 0.1452208
1030.50 0.1451768
1030.60 0.1451329
1030.70 0.1450889
1030.80 0.145045
1030.90 0.1450011
1031.00 0.1449572
1031.10 0.1449133
1031.20 0.1448694
1031.30 0.1448255
1031.40 0.1447807
1031.50 0.1447358
1031.60 0.1446909
1031.70 0.1446461
1031.80 0.1446012
1031.90 0.1445564
1032.00 0.1445116
1032.10 0.1444668
1032.20 0.144422
1032.30 0.1443773
1032.40 0.1443325
1032.50 0.1442878
1032.60 0.1442431
1032.70 0.1441984
1032.80 0.1441537
1032.90 0.144109
1033.00 0.1440643
1033.10 0.1440197
1033.20 0.1439751
1033.30 0.1439304
1033.40 0.1438858
1033.50 0.1438412
1033.60 0.1437967
1033.70 0.1437521
1033.80 0.1437076
1033.90 0.143663
1034.00 0.1436185
1034.10 0.143574
1034.20 0.1435295
1034.30 0.1434851
1034.40 0.1434406
1034.50 0.1433962
1034.60 0.1433517
1034.70 0.1433073
1034.80 0.1432629
1034.90 0.1432185
1035.00 0.1431742
1035.10 0.1431298
1035.20 0.1430855
1035.30 0.1430412
1035.40 0.1429968
1035.50 0.1429525
1035.60 0.1429083
1035.70 0.142864
1035.80 0.1428197
1035.90 0.1427755
1036.00 0.1427313
1036.10 0.1426871
1036.20 0.1426429
1036.30 0.1425987
1036.40 0.1425545
1036.50 0.1425104
1036.60 0.1424662
1036.70 0.1424221
1036.80 0.142378
1036.90 0.1423339
1037.00 0.1422898
1037.10 0.1422457
1037.20 0.1422017
1037.30 0.1421576
1037.40 0.1421136
1037.50 0.1420696
1037.60 0.1420256
1037.70 0.1419816
1037.80 0.1419376
1037.90 0.1418937
1038.00 0.1418497
1038.10 0.1418058
1038.20 0.1417619
1038.30 0.141718
1038.40 0.1416741
1038.50 0.1416302
1038.60 0.1415864
1038.70 0.1415425
1038.80 0.1414987
1038.90 0.1414549
1039.00 0.1414111
1039.10 0.1413673
1039.20 0.1413235
1039.30 0.1412798
1039.40 0.141236
1039.50 0.1411923
1039.60 0.1411486
1039.70 0.1411049
1039.80 0.1410612
1039.90 0.1410175
1040.00 0.1409739
1040.10 0.1409302
1040.20 0.1408866
1040.30 0.140843
1040.40 0.1407994
1040.50 0.1407558
1040.60 0.1407122
1040.70 0.1406687
1040.80 0.1406251
1040.90 0.1405816
1041.00 0.1405381
1041.10 0.1404946
1041.20 0.1404511
1041.30 0.1404076
1041.40 0.1403642
1041.50 0.1403207
1041.60 0.1402773
1041.70 0.140235
1041.80 0.1401929
1041.90 0.1401509
1042.00 0.1401088
1042.10 0.1400668
1042.20 0.1400248
1042.30 0.1399828
1042.40 0.1399408
1042.50 0.1398988
1042.60 0.1398568
1042.70 0.1398149
1042.80 0.1397729
1042.90 0.139731
1043.00 0.1396891
1043.10 0.1396472
1043.20 0.1396053
1043.30 0.1395635
1043.40 0.1395216
1043.50 0.1394798
1043.60 0.1394379
1043.70 0.1393961
1043.80 0.1393543
1043.90 0.1393125
1044.00 0.1392708
1044.10 0.139229
1044.20 0.1391872
1044.30 0.1391455
1044.40 0.1391038
1044.50 0.1390621
1044.60 0.1390204
1044.70 0.1389787
1044.80 0.138937
1044.90 0.1388954
1045.00 0.1388537
1045.10 0.1388121
1045.20 0.1387705
1045.30 0.1387289
1045.40 0.1386873
1045.50 0.1386457
1045.60 0.1386042
1045.70 0.1385626
1045.80 0.1385211
1045.90 0.1384796
1046.00 0.1384381
1046.10 0.1383966
1046.20 0.1383551
1046.30 0.1383136
1046.40 0.1382722
1046.50 0.1382307
1046.60 0.1381893
1046.70 0.1381479
1046.80 0.1381065
1046.90 0.1380642
1047.00 0.1380217
1047.10 0.1379792
1047.20 0.1379367
1047.30 0.1378942
1047.40 0.1378517
1047.50 0.1378093
1047.60 0.1377668
1047.70 0.1377244
1047.80 0.137682
1047.90 0.1376396
1048.00 0.1375972
1048.10 0.1375548
1048.20 0.1375124
1048.30 0.1374701
1048.40 0.1374278
1048.50 0.1373854
1048.60 0.1373431
1048.70 0.1373008
1048.80 0.1372585
1048.90 0.1372163
1049.00 0.137174
1049.10 0.1371318
1049.20 0.1370896
1049.30 0.1370473
1049.40 0.1370051
1049.50 0.136963
1049.60 0.1369208
1049.70 0.1368786
1049.80 0.1368365
1049.90 0.1367943
1050.00 0.1367522
1050.10 0.1367101
1050.20 0.136668
1050.30 0.1366259
1050.40 0.1365839
1050.50 0.1365418
1050.60 0.1364998
1050.70 0.1364578
1050.80 0.1364158
1050.90 0.1363738
1051.00 0.1363318
1051.10 0.1362898
1051.20 0.1362479
1051.30 0.1362059
1051.40 0.136164
1051.50 0.1361221
1051.60 0.1360802
1051.70 0.1360383
1051.80 0.1359964
1051.90 0.1359545
1052.00 0.1359127
1052.10 0.1358713
1052.20 0.1358302
1052.30 0.1357892
1052.40 0.1357481
1052.50 0.135707
1052.60 0.135666
1052.70 0.135625
1052.80 0.1355839
1052.90 0.1355429
1053.00 0.1355019
1053.10 0.135461
1053.20 0.13542
1053.30 0.1353791
1053.40 0.1353381
1053.50 0.1352972
1053.60 0.1352563
1053.70 0.1352154
1053.80 0.1351745
1053.90 0.1351336
1054.00 0.1350928
1054.10 0.1350519
1054.20 0.1350111
1054.30 0.1349703
1054.40 0.1349294
1054.50 0.1348887
1054.60 0.1348479
1054.70 0.1348071
1054.80 0.1347663
1054.90 0.1347256
1055.00 0.1346849
1055.10 0.1346442
1055.20 0.1346035
1055.30 0.1345628
1055.40 0.1345221
1055.50 0.1344814
1055.60 0.1344408
1055.70 0.1344001
1055.80 0.1343595
1055.90 0.1343189
1056.00 0.1342783
1056.10 0.1342377
1056.20 0.1341971
1056.30 0.1341566
1056.40 0.134116
1056.50 0.1340755
1056.60 0.134035
1056.70 0.1339945
1056.80 0.133954
1056.90 0.1339135
1057.00 0.133873
1057.10 0.1338326
1057.20 0.1337921
1057.30 0.1337517
1057.40 0.1337113
1057.50 0.1336709
1057.60 0.1336305
1057.70 0.1335901
1057.80 0.1335497
1057.90 0.1335094
1058.00 0.133469
1058.10 0.1334287
1058.20 0.1333884
1058.30 0.1333481
1058.40 0.1333078
1058.50 0.1332675
1058.60 0.1332272
1058.70 0.133187
1058.80 0.1331467
1058.90 0.1331065
1059.00 0.1330663
1059.10 0.1330261
1059.20 0.1329859
1059.30 0.1329457
1059.40 0.1329056
1059.50 0.1328654
1059.60 0.1328253
1059.70 0.1327852
1059.80 0.1327451
1059.90 0.132705
1060.00 0.1326649
1060.10 0.1326248
1060.20 0.1325848
1060.30 0.1325447
1060.40 0.1325047
1060.50 0.1324647
1060.60 0.1324246
1060.70 0.1323846
1060.80 0.1323447
1060.90 0.1323047
1061.00 0.1322647
1061.10 0.1322248
1061.20 0.1321849
1061.30 0.1321449
1061.40 0.132105
1061.50 0.1320651
1061.60 0.1320253
1061.70 0.1319854
1061.80 0.1319455
1061.90 0.1319057
1062.00 0.1318659
1062.10 0.131826
1062.20 0.1317862
1062.30 0.1317464
1062.40 0.1317067
1062.50 0.1316669
1062.60 0.131627
1062.70 0.1315868
1062.80 0.1315467
1062.90 0.1315066
1063.00 0.1314665
1063.10 0.1314264
1063.20 0.1313863
1063.30 0.1313462
1063.40 0.1313062
1063.50 0.1312661
1063.60 0.1312261
1063.70 0.1311861
1063.80 0.1311461
1063.90 0.1311061
1064.00 0.1310661
1064.10 0.1310261
1064.20 0.1309862
1064.30 0.1309463
1064.40 0.1309063
1064.50 0.1308664
1064.60 0.1308265
1064.70 0.1307866
1064.80 0.1307468
1064.90 0.1307069
1065.00 0.130667
1065.10 0.1306272
1065.20 0.1305874
1065.30 0.1305476
1065.40 0.1305078
1065.50 0.130468
1065.60 0.1304282
1065.70 0.1303884
1065.80 0.1303487
1065.90 0.130309
1066.00 0.1302692
1066.10 0.1302295
1066.20 0.1301898
1066.30 0.1301501
1066.40 0.1301105
1066.50 0.1300708
1066.60 0.1300311
1066.70 0.1299915
1066.80 0.1299519
1066.90 0.1299123
1067.00 0.1298727
1067.10 0.1298331
1067.20 0.1297935
1067.30 0.129754
1067.40 0.1297144
1067.50 0.1296749
1067.60 0.1296354
1067.70 0.1295958
1067.80 0.1295563
1067.90 0.1295172
1068.00 0.1294788
1068.10 0.1294404
1068.20 0.1294021
1068.30 0.1293637
1068.40 0.1293254
1068.50 0.1292871
1068.60 0.1292487
1068.70 0.1292104
1068.80 0.1291722
1068.90 0.1291339
1069.00 0.1290956
1069.10 0.1290574
1069.20 0.1290191
1069.30 0.1289809
1069.40 0.1289427
1069.50 0.1289044
1069.60 0.1288663
1069.70 0.1288281
1069.80 0.1287899
1069.90 0.1287517
1070.00 0.1287136
1070.10 0.1286755
1070.20 0.1286373
1070.30 0.1285992
1070.40 0.1285611
1070.50 0.128523
1070.60 0.128485
1070.70 0.1284469
1070.80 0.1284088
1070.90 0.1283708
1071.00 0.1283328
1071.10 0.1282948
1071.20 0.1282568
1071.30 0.1282188
1071.40 0.1281808
1071.50 0.1281428
1071.60 0.1281049
1071.70 0.1280669
1071.80 0.128029
1071.90 0.1279911
1072.00 0.1279532
1072.10 0.1279153
1072.20 0.1278774
1072.30 0.1278395
1072.40 0.1278016
1072.50 0.1277638
1072.60 0.127726
1072.70 0.1276881
1072.80 0.1276503
1072.90 0.1276125
1073.00 0.1275747
1073.10 0.127537
1073.20 0.127499
1073.30 0.1274603
1073.40 0.1274217
1073.50 0.127383
1073.60 0.1273444
1073.70 0.1273057
1073.80 0.1272671
1073.90 0.1272285
1074.00 0.1271899
1074.10 0.1271513
1074.20 0.1271128
1074.30 0.1270742
1074.40 0.1270357
1074.50 0.1269971
1074.60 0.1269586
1074.70 0.1269201
1074.80 0.1268816
1074.90 0.1268431
1075.00 0.1268046
1075.10 0.1267662
1075.20 0.1267277
1075.30 0.1266893
1075.40 0.1266509
1075.50 0.1266125
1075.60 0.1265741
1075.70 0.1265357
1075.80 0.1264973
1075.90 0.1264589
1076.00 0.1264206
1076.10 0.1263823
1076.20 0.1263439
1076.30 0.1263056
1076.40 0.1262673
1076.50 0.126229
1076.60 0.1261907
1076.70 0.1261525
1076.80 0.1261142
1076.90 0.126076
1077.00 0.1260378
1077.10 0.1259995
1077.20 0.1259613
1077.30 0.1259231
1077.40 0.125885
1077.50 0.1258468
1077.60 0.1258086
1077.70 0.1257705
1077.80 0.1257323
1077.90 0.1256942
1078.00 0.1256561
1078.10 0.125618
1078.20 0.1255799
1078.30 0.1255419
1078.40 0.1255038
1078.50 0.1254657
1078.60 0.1254283
1078.70 0.1253913
1078.80 0.1253544
1078.90 0.1253174
1079.00 0.1252805
1079.10 0.1252435
1079.20 0.1252066
1079.30 0.1251697
1079.40 0.1251328
1079.50 0.125096
1079.60 0.1250591
1079.70 0.1250222
1079.80 0.1249854
1079.90 0.1249486
1080.00 0.1249117
1080.10 0.1248749
1080.20 0.1248381
1080.30 0.1248013
1080.40 0.1247646
1080.50 0.1247278
1080.60 0.124691
1080.70 0.1246543
1080.80 0.1246176
1080.90 0.1245809
1081.00 0.1245441
1081.10 0.1245075
1081.20 0.1244708
1081.30 0.1244341
1081.40 0.1243974
1081.50 0.1243608
1081.60 0.1243241
1081.70 0.1242875
1081.80 0.1242509
1081.90 0.1242143
1082.00 0.1241777
1082.10 0.1241411
1082.20 0.1241046
1082.30 0.124068
1082.40 0.1240315
1082.50 0.1239949
1082.60 0.1239584
1082.70 0.1239219
1082.80 0.1238854
1082.90 0.1238489
1083.00 0.1238124
1083.10 0.1237759
1083.20 0.1237395
1083.30 0.123703
1083.40 0.1236666
1083.50 0.1236302
1083.60 0.1235938
1083.70 0.1235574
1083.80 0.123521
1083.90 0.1234846
1084.00 0.1234474
1084.10 0.1234102
1084.20 0.123373
1084.30 0.1233357
1084.40 0.1232985
1084.50 0.1232613
1084.60 0.1232241
1084.70 0.1231869
1084.80 0.1231498
1084.90 0.1231126
1085.00 0.1230754
1085.10 0.1230383
1085.20 0.1230012
1085.30 0.1229641
1085.40 0.122927
1085.50 0.1228899
1085.60 0.1228528
1085.70 0.1228157
1085.80 0.1227787
1085.90 0.1227416
1086.00 0.1227046
1086.10 0.1226676
1086.20 0.1226306
1086.30 0.1225936
1086.40 0.1225566
1086.50 0.1225196
1086.60 0.1224826
1086.70 0.1224457
1086.80 0.1224088
1086.90 0.1223718
1087.00 0.1223349
1087.10 0.122298
1087.20 0.1222611
1087.30 0.1222242
1087.40 0.1221874
1087.50 0.1221505
1087.60 0.1221136
1087.70 0.1220768
1087.80 0.12204
1087.90 0.1220032
1088.00 0.1219664
1088.10 0.1219296
1088.20 0.1218928
1088.30 0.121856
1088.40 0.1218193
1088.50 0.1217825
1088.60 0.1217458
1088.70 0.1217091
1088.80 0.1216724
1088.90 0.1216357
1089.00 0.121599
1089.10 0.1215623
1089.20 0.1215256
1089.30 0.121489
1089.40 0.121453
1089.50 0.1214174
1089.60 0.1213818
1089.70 0.1213463
1089.80 0.1213107
1089.90 0.1212751
1090.00 0.1212396
1090.10 0.121204
1090.20 0.1211685
1090.30 0.121133
1090.40 0.1210975
1090.50 0.121062
1090.60 0.1210265
1090.70 0.120991
1090.80 0.1209555
1090.90 0.1209201
1091.00 0.1208846
1091.10 0.1208492
1091.20 0.1208138
1091.30 0.1207784
1091.40 0.120743
1091.50 0.1207076
1091.60 0.1206722
1091.70 0.1206368
1091.80 0.1206015
1091.90 0.1205661
1092.00 0.1205308
1092.10 0.1204955
1092.20 0.1204601
1092.30 0.1204248
1092.40 0.1203896
1092.50 0.1203543
1092.60 0.120319
1092.70 0.1202837
1092.80 0.1202485
1092.90 0.1202133
1093.00 0.120178
1093.10 0.1201428
1093.20 0.1201076
1093.30 0.1200724
1093.40 0.1200372
1093.50 0.1200021
1093.60 0.1199669
1093.70 0.1199318
1093.80 0.1198966
1093.90 0.1198615
1094.00 0.1198264
1094.10 0.1197913
1094.20 0.1197562
1094.30 0.1197211
1094.40 0.119686
1094.50 0.119651
1094.60 0.1196159
1094.70 0.1195809
1094.80 0.1195456
1094.90 0.1195103
1095.00 0.1194749
1095.10 0.1194395
1095.20 0.1194042
1095.30 0.1193688
1095.40 0.1193335
1095.50 0.1192982
1095.60 0.1192628
1095.70 0.1192275
1095.80 0.1191922
1095.90 0.119157
1096.00 0.1191217
1096.10 0.1190864
1096.20 0.1190512
1096.30 0.119016
1096.40 0.1189807
1096.50 0.1189455
1096.60 0.1189103
1096.70 0.1188751
1096.80 0.1188399
1096.90 0.1188048
1097.00 0.1187696
1097.10 0.1187345
1097.20 0.1186993
1097.30 0.1186642
1097.40 0.1186291
1097.50 0.118594
1097.60 0.1185589
1097.70 0.1185238
1097.80 0.1184887
1097.90 0.1184536
1098.00 0.1184186
1098.10 0.1183836
1098.20 0.1183485
1098.30 0.1183135
1098.40 0.1182785
1098.50 0.1182435
1098.60 0.1182085
1098.70 0.1181735
1098.80 0.1181386
1098.90 0.1181036
1099.00 0.1180687
1099.10 0.1180337
1099.20 0.1179988
1099.30 0.1179639
1099.40 0.117929
1099.50 0.1178941
1099.60 0.1178592
1099.70 0.1178244
1099.80 0.1177895
1099.90 0.1177546
1100.00 0.1177198
1100.10 0.117685
1100.20 0.1176502
1100.30 0.1176154
1100.40 0.1175806
1100.50 0.1175458
1100.60 0.117511
1100.70 0.1174763
1100.80 0.1174415
1100.90 0.1174068
1101.00 0.117372
1101.10 0.1173373
1101.20 0.1173026
1101.30 0.1172679
1101.40 0.1172332
1101.50 0.1171985
1101.60 0.1171639
1101.70 0.1171292
1101.80 0.1170946
1101.90 0.1170599
1102.00 0.1170253
1102.10 0.1169907
1102.20 0.1169561
1102.30 0.1169215
1102.40 0.1168869
1102.50 0.1168524
1102.60 0.1168178
1102.70 0.1167833
1102.80 0.1167487
1102.90 0.1167142
1103.00 0.1166797
1103.10 0.1166452
1103.20 0.1166107
1103.30 0.1165762
1103.40 0.1165417
1103.50 0.1165072
1103.60 0.1164728
1103.70 0.1164383
1103.80 0.1164039
1103.90 0.1163695
1104.00 0.1163351
1104.10 0.1163007
1104.20 0.1162663
1104.30 0.1162319
1104.40 0.1161975
1104.50 0.1161632
1104.60 0.1161288
1104.70 0.1160945
1104.80 0.1160602
1104.90 0.1160259
1105.00 0.1159915
1105.10 0.1159572
1105.20 0.115923
1105.30 0.1158887
1105.40 0.1158544
1105.50 0.1158202
1105.60 0.1157859
1105.70 0.1157517
1105.80 0.1157176
1105.90 0.1156835
1106.00 0.1156495
1106.10 0.1156154
1106.20 0.1155813
1106.30 0.1155473
1106.40 0.1155133
1106.50 0.1154793
1106.60 0.1154453
1106.70 0.1154113
1106.80 0.1153773
1106.90 0.1153433
1107.00 0.1153093
1107.10 0.1152754
1107.20 0.1152414
1107.30 0.1152075
1107.40 0.1151736
1107.50 0.1151397
1107.60 0.1151058
1107.70 0.1150719
1107.80 0.115038
1107.90 0.1150041
1108.00 0.1149702
1108.10 0.1149364
1108.20 0.1149025
1108.30 0.1148687
1108.40 0.1148349
1108.50 0.1148011
1108.60 0.1147673
1108.70 0.1147335
1108.80 0.1146997
1108.90 0.1146659
1109.00 0.1146322
1109.10 0.1145984
1109.20 0.1145647
1109.30 0.114531
1109.40 0.1144973
1109.50 0.1144635
1109.60 0.1144298
1109.70 0.1143962
1109.80 0.1143625
1109.90 0.1143288
1110.00 0.1142952
1110.10 0.1142615
1110.20 0.1142279
1110.30 0.1141943
1110.40 0.1141606
1110.50 0.114127
1110.60 0.1140934
1110.70 0.1140599
1110.80 0.1140263
1110.90 0.1139927
1111.00 0.1139592
1111.10 0.1139256
1111.20 0.1138921
1111.30 0.1138586
1111.40 0.1138251
1111.50 0.1137916
1111.60 0.1137581
1111.70 0.1137246
1111.80 0.1136911
1111.90 0.1136576
1112.00 0.1136242
1112.10 0.1135908
1112.20 0.1135573
1112.30 0.1135239
1112.40 0.1134905
1112.50 0.1134571
1112.60 0.1134237
1112.70 0.1133903
1112.80 0.1133569
1112.90 0.1133236
1113.00 0.1132902
1113.10 0.1132569
1113.20 0.1132236
1113.30 0.1131903
1113.40 0.1131569
1113.50 0.1131236
1113.60 0.1130904
1113.70 0.1130571
1113.80 0.1130238
1113.90 0.1129906
1114.00 0.1129573
1114.10 0.1129241
1114.20 0.1128908
1114.30 0.1128576
1114.40 0.1128244
1114.50 0.1127912
1114.60 0.112758
1114.70 0.1127248
1114.80 0.1126917
1114.90 0.1126585
1115.00 0.1126254
1115.10 0.1125922
1115.20 0.1125591
1115.30 0.112526
1115.40 0.1124929
1115.50 0.1124598
1115.60 0.1124267
1115.70 0.1123936
1115.80 0.1123606
1115.90 0.1123275
1116.00 0.1122945
1116.10 0.1122614
1116.20 0.1122284
1116.30 0.1121954
1116.40 0.1121624
1116.50 0.1121294
1116.60 0.1120964
1116.70 0.1120634
1116.80 0.1120307
1116.90 0.1119984
1117.00 0.111966
1117.10 0.1119337
1117.20 0.1119014
1117.30 0.111869
1117.40 0.1118367
1117.50 0.1118044
1117.60 0.1117721
1117.70 0.1117399
1117.80 0.1117076
1117.90 0.1116753
1118.00 0.1116431
1118.10 0.1116109
1118.20 0.1115786
1118.30 0.1115464
1118.40 0.1115142
1118.50 0.111482
1118.60 0.1114498
1118.70 0.1114176
1118.80 0.1113855
1118.90 0.1113533
1119.00 0.1113212
1119.10 0.111289
1119.20 0.1112569
1119.30 0.1112248
1119.40 0.1111926
1119.50 0.1111605
1119.60 0.1111285
1119.70 0.1110964
1119.80 0.1110643
1119.90 0.1110322
1120.00 0.1110002
1120.10 0.1109681
1120.20 0.1109361
1120.30 0.1109041
1120.40 0.1108721
1120.50 0.1108401
1120.60 0.1108081
1120.70 0.1107761
1120.80 0.1107441
1120.90 0.1107121
1121.00 0.1106802
1121.10 0.1106482
1121.20 0.1106163
1121.30 0.1105844
1121.40 0.1105524
1121.50 0.1105205
1121.60 0.1104886
1121.70 0.1104567
1121.80 0.1104249
1121.90 0.110393
1122.00 0.1103611
1122.10 0.1103293
1122.20 0.1102974
1122.30 0.1102656
1122.40 0.1102338
1122.50 0.110202
1122.60 0.1101702
1122.70 0.1101384
1122.80 0.1101066
1122.90 0.1100748
1123.00 0.110043
1123.10 0.1100113
1123.20 0.1099795
1123.30 0.1099478
1123.40 0.1099161
1123.50 0.1098844
1123.60 0.1098526
1123.70 0.1098209
1123.80 0.1097892
1123.90 0.1097576
1124.00 0.1097259
1124.10 0.1096942
1124.20 0.1096626
1124.30 0.1096309
1124.40 0.1095993
1124.50 0.1095677
1124.60 0.1095361
1124.70 0.1095045
1124.80 0.1094729
1124.90 0.1094413
1125.00 0.1094097
1125.10 0.1093781
1125.20 0.1093466
1125.30 0.109315
1125.40 0.1092835
1125.50 0.109252
1125.60 0.1092204
1125.70 0.1091889
1125.80 0.1091574
1125.90 0.1091259
1126.00 0.1090945
1126.10 0.109063
1126.20 0.1090315
1126.30 0.1090001
1126.40 0.1089686
1126.50 0.1089372
1126.60 0.1089058
1126.70 0.1088744
1126.80 0.108843
1126.90 0.1088116
1127.00 0.1087802
1127.10 0.1087488
1127.20 0.1087174
1127.30 0.1086861
1127.40 0.1086547
1127.50 0.1086234
1127.60 0.108592
1127.70 0.1085607
1127.80 0.1085294
1127.90 0.1084981
1128.00 0.1084669
1128.10 0.1084357
1128.20 0.1084046
1128.30 0.1083735
1128.40 0.1083423
1128.50 0.1083112
1128.60 0.1082801
1128.70 0.108249
1128.80 0.1082179
1128.90 0.1081868
1129.00 0.1081557
1129.10 0.1081246
1129.20 0.1080936
1129.30 0.1080625
1129.40 0.1080315
1129.50 0.1080005
1129.60 0.1079694
1129.70 0.1079384
1129.80 0.1079074
1129.90 0.1078764
1130.00 0.1078454
1130.10 0.1078145
1130.20 0.1077835
1130.30 0.1077525
1130.40 0.1077216
1130.50 0.1076907
1130.60 0.1076597
1130.70 0.1076288
1130.80 0.1075979
1130.90 0.107567
1131.00 0.1075361
1131.10 0.1075052
1131.20 0.1074743
1131.30 0.1074435
1131.40 0.1074126
1131.50 0.1073818
1131.60 0.1073509
1131.70 0.1073201
1131.80 0.1072893
1131.90 0.1072585
1132.00 0.1072277
1132.10 0.1071969
1132.20 0.1071661
1132.30 0.1071353
1132.40 0.1071046
1132.50 0.1070738
1132.60 0.1070431
1132.70 0.1070123
1132.80 0.1069816
1132.90 0.1069509
1133.00 0.1069202
1133.10 0.1068895
1133.20 0.1068588
1133.30 0.1068281
1133.40 0.1067975
1133.50 0.1067668
1133.60 0.1067361
1133.70 0.1067055
1133.80 0.1066749
1133.90 0.1066442
1134.00 0.1066136
1134.10 0.106583
1134.20 0.1065524
1134.30 0.1065218
1134.40 0.1064912
1134.50 0.1064607
1134.60 0.1064301
1134.70 0.1063996
1134.80 0.106369
1134.90 0.1063385
1135.00 0.106308
1135.10 0.1062774
1135.20 0.1062469
1135.30 0.1062164
1135.40 0.1061859
1135.50 0.1061555
1135.60 0.106125
1135.70 0.1060945
1135.80 0.1060641
1135.90 0.1060336
1136.00 0.1060032
1136.10 0.1059728
1136.20 0.1059424
1136.30 0.105912
1136.40 0.1058816
1136.50 0.1058512
1136.60 0.1058208
1136.70 0.1057904
1136.80 0.1057601
1136.90 0.1057297
1137.00 0.1056994
1137.10 0.105669
1137.20 0.1056387
1137.30 0.1056084
1137.40 0.1055781
1137.50 0.1055478
1137.60 0.1055175
1137.70 0.1054872
1137.80 0.1054569
1137.90 0.1054267
1138.00 0.1053964
1138.10 0.1053662
1138.20 0.1053359
1138.30 0.1053057
1138.40 0.1052755
1138.50 0.1052453
1138.60 0.1052151
1138.70 0.1051849
1138.80 0.1051547
1138.90 0.1051245
1139.00 0.1050944
1139.10 0.1050642
1139.20 0.1050341
1139.30 0.1050036
1139.40 0.1049732
1139.50 0.1049427
1139.60 0.1049123
1139.70 0.1048818
1139.80 0.1048514
1139.90 0.104821
1140.00 0.1047906
1140.10 0.1047602
1140.20 0.1047298
1140.30 0.1046994
1140.40 0.1046691
1140.50 0.1046387
1140.60 0.1046084
1140.70 0.104578
1140.80 0.1045477
1140.90 0.1045174
1141.00 0.1044871
1141.10 0.1044568
1141.20 0.1044265
1141.30 0.1043962
1141.40 0.1043659
1141.50 0.1043356
1141.60 0.1043054
1141.70 0.1042751
1141.80 0.1042449
1141.90 0.1042146
1142.00 0.1041844
1142.10 0.1041542
1142.20 0.104124
1142.30 0.1040938
1142.40 0.1040636
1142.50 0.1040334
1142.60 0.1040033
1142.70 0.1039731
1142.80 0.103943
1142.90 0.1039128
1143.00 0.1038827
1143.10 0.1038526
1143.20 0.1038224
1143.30 0.1037923
1143.40 0.1037622
1143.50 0.1037321
1143.60 0.1037021
1143.70 0.103672
1143.80 0.1036419
1143.90 0.1036119
1144.00 0.1035818
1144.10 0.1035518
1144.20 0.1035218
1144.30 0.1034918
1144.40 0.1034617
1144.50 0.1034317
1144.60 0.1034018
1144.70 0.1033718
1144.80 0.1033418
1144.90 0.1033118
1145.00 0.1032819
1145.10 0.1032519
1145.20 0.103222
1145.30 0.1031921
1145.40 0.1031621
1145.50 0.1031322
1145.60 0.1031023
1145.70 0.1030724
1145.80 0.1030426
1145.90 0.1030127
1146.00 0.1029828
1146.10 0.102953
1146.20 0.1029231
1146.30 0.1028933
1146.40 0.1028634
1146.50 0.1028336
1146.60 0.1028038
1146.70 0.102774
1146.80 0.1027442
1146.90 0.1027144
1147.00 0.1026846
1147.10 0.1026549
1147.20 0.1026251
1147.30 0.1025954
1147.40 0.1025656
1147.50 0.1025359
1147.60 0.1025062
1147.70 0.1024764
1147.80 0.1024467
1147.90 0.102417
1148.00 0.1023873
1148.10 0.1023577
1148.20 0.102328
1148.30 0.1022983
1148.40 0.1022687
1148.50 0.102239
1148.60 0.1022094
1148.70 0.1021798
1148.80 0.1021501
1148.90 0.1021205
1149.00 0.1020909
1149.10 0.1020613
1149.20 0.1020317
1149.30 0.1020022
1149.40 0.1019726
1149.50 0.101943
1149.60 0.1019135
1149.70 0.101884
1149.80 0.1018544
1149.90 0.1018249
1150.00 0.1017954
1150.10 0.1017659
1150.20 0.1017364
1150.30 0.1017069
1150.40 0.1016774
1150.50 0.1016479
1150.60 0.1016185
1150.70 0.1015896
1150.80 0.1015607
1150.90 0.1015318
1151.00 0.1015029
1151.10 0.1014741
1151.20 0.1014452
1151.30 0.1014163
1151.40 0.1013875
1151.50 0.1013587
1151.60 0.1013298
1151.70 0.101301
1151.80 0.1012722
1151.90 0.1012434
1152.00 0.1012146
1152.10 0.1011858
1152.20 0.101157
1152.30 0.1011283
1152.40 0.1010995
1152.50 0.1010707
1152.60 0.101042
1152.70 0.1010133
1152.80 0.1009845
1152.90 0.1009558
1153.00 0.1009271
1153.10 0.1008984
1153.20 0.1008697
1153.30 0.100841
1153.40 0.1008123
1153.50 0.1007837
1153.60 0.100755
1153.70 0.1007264
1153.80 0.1006977
1153.90 0.1006691
1154.00 0.1006404
1154.10 0.1006118
1154.20 0.1005832
1154.30 0.1005546
1154.40 0.100526
1154.50 0.1004974
1154.60 0.1004689
1154.70 0.1004403
1154.80 0.1004117
1154.90 0.1003832
1155.00 0.1003546
1155.10 0.1003261
1155.20 0.1002976
1155.30 0.1002691
1155.40 0.1002405
1155.50 0.100212
1155.60 0.1001836
1155.70 0.1001551
1155.80 0.1001266
1155.90 0.1000981
1156.00 0.1000697
1156.10 0.1000412
1156.20 0.1000128
1156.30 0.09998433
1156.40 0.09995591
1156.50 0.09992749
1156.60 0.09989909
1156.70 0.09987069
1156.80 0.0998423
1156.90 0.09981392
1157.00 0.09978555
1157.10 0.09975719
1157.20 0.09972883
1157.30 0.09970048
1157.40 0.09967214
1157.50 0.09964381
1157.60 0.09961549
1157.70 0.09958718
1157.80 0.09955887
1157.90 0.09953057
1158.00 0.09950228
1158.10 0.099474
1158.20 0.09944573
1158.30 0.09941746
1158.40 0.09938921
1158.50 0.09936096
1158.60 0.09933272
1158.70 0.09930449
1158.80 0.09927626
1158.90 0.09924805
1159.00 0.09921984
1159.10 0.09919164
1159.20 0.09916345
1159.30 0.09913527
1159.40 0.0991071
1159.50 0.09907893
1159.60 0.09905078
1159.70 0.09902263
1159.80 0.09899449
1159.90 0.09896635
1160.00 0.09893823
1160.10 0.09891011
1160.20 0.09888201
1160.30 0.09885391
1160.40 0.09882582
1160.50 0.09879773
1160.60 0.09876966
1160.70 0.09874159
1160.80 0.09871353
1160.90 0.09868548
1161.00 0.09865744
1161.10 0.09862941
1161.20 0.09860138
1161.30 0.09857336
1161.40 0.09854535
1161.50 0.09851735
1161.60 0.09848936
1161.70 0.09846137
1161.80 0.0984334
1161.90 0.09840543
1162.00 0.09837747
1162.10 0.09834952
1162.20 0.09832168
1162.30 0.09829385
1162.40 0.09826603
1162.50 0.09823821
1162.60 0.09821041
1162.70 0.09818261
1162.80 0.09815482
1162.90 0.09812704
1163.00 0.09809927
1163.10 0.0980715
1163.20 0.09804375
1163.30 0.098016
1163.40 0.09798826
1163.50 0.09796053
1163.60 0.0979328
1163.70 0.09790509
1163.80 0.09787738
1163.90 0.09784968
1164.00 0.09782199
1164.10 0.0977943
1164.20 0.09776663
1164.30 0.09773896
1164.40 0.0977113
1164.50 0.09768365
1164.60 0.097656
1164.70 0.09762837
1164.80 0.09760074
1164.90 0.09757312
1165.00 0.09754551
1165.10 0.09751791
1165.20 0.09749031
1165.30 0.09746272
1165.40 0.09743514
1165.50 0.09740757
1165.60 0.09738001
1165.70 0.09735246
1165.80 0.09732491
1165.90 0.09729737
1166.00 0.09726984
1166.10 0.09724231
1166.20 0.0972148
1166.30 0.09718729
1166.40 0.09715979
1166.50 0.0971323
1166.60 0.09710482
1166.70 0.09707734
1166.80 0.09704988
1166.90 0.09702242
1167.00 0.09699497
1167.10 0.09696752
1167.20 0.09694009
1167.30 0.09691266
1167.40 0.09688524
1167.50 0.09685783
1167.60 0.09683043
1167.70 0.09680303
1167.80 0.09677565
1167.90 0.09674827
1168.00 0.0967209
1168.10 0.09669353
1168.20 0.09666618
1168.30 0.09663884
1168.40 0.0966115
1168.50 0.09658417
1168.60 0.09655685
1168.70 0.09652953
1168.80 0.09650223
1168.90 0.09647493
1169.00 0.09644764
1169.10 0.09642036
1169.20 0.09639308
1169.30 0.09636581
1169.40 0.09633856
1169.50 0.09631131
1169.60 0.09628406
1169.70 0.09625683
1169.80 0.0962296
1169.90 0.09620238
1170.00 0.09617517
1170.10 0.09614797
1170.20 0.09612077
1170.30 0.09609359
1170.40 0.09606641
1170.50 0.09603923
1170.60 0.09601207
1170.70 0.09598492
1170.80 0.09595777
1170.90 0.09593063
1171.00 0.0959035
1171.10 0.09587637
1171.20 0.09584925
1171.30 0.09582215
1171.40 0.09579505
1171.50 0.09576795
1171.60 0.09574087
1171.70 0.09571379
1171.80 0.09568672
1171.90 0.09565966
1172.00 0.09563261
1172.10 0.09560556
1172.20 0.09557852
1172.30 0.09555149
1172.40 0.09552447
1172.50 0.09549746
1172.60 0.09547045
1172.70 0.09544345
1172.80 0.09541646
1172.90 0.09538948
1173.00 0.0953625
1173.10 0.09533553
1173.20 0.09530857
1173.30 0.09528162
1173.40 0.09525468
1173.50 0.09522774
1173.60 0.09520081
1173.70 0.09517389
1173.80 0.0951477
1173.90 0.09512172
1174.00 0.09509574
1174.10 0.09506977
1174.20 0.0950438
1174.30 0.09501785
1174.40 0.0949919
1174.50 0.09496595
1174.60 0.09494002
1174.70 0.09491409
1174.80 0.09488817
1174.90 0.09486226
1175.00 0.09483636
1175.10 0.09481046
1175.20 0.09478457
1175.30 0.09475869
1175.40 0.09473281
1175.50 0.09470695
1175.60 0.09468109
1175.70 0.09465523
1175.80 0.09462939
1175.90 0.09460355
1176.00 0.09457772
1176.10 0.0945519
1176.20 0.09452608
1176.30 0.09450027
1176.40 0.09447447
1176.50 0.09444868
1176.60 0.09442289
1176.70 0.09439712
1176.80 0.09437134
1176.90 0.09434558
1177.00 0.09431982
1177.10 0.09429408
1177.20 0.09426833
1177.30 0.0942426
1177.40 0.09421687
1177.50 0.09419115
1177.60 0.09416544
1177.70 0.09413974
1177.80 0.09411404
1177.90 0.09408835
1178.00 0.09406267
1178.10 0.09403699
1178.20 0.09401132
1178.30 0.09398566
1178.40 0.09396001
1178.50 0.09393437
1178.60 0.09390873
1178.70 0.0938831
1178.80 0.09385747
1178.90 0.09383186
1179.00 0.09380625
1179.10 0.09378065
1179.20 0.09375505
1179.30 0.09372946
1179.40 0.09370389
1179.50 0.09367831
1179.60 0.09365266
1179.70 0.0936263
1179.80 0.09359994
1179.90 0.09357359
1180.00 0.09354725
1180.10 0.09352092
1180.20 0.0934946
1180.30 0.09346828
1180.40 0.09344197
1180.50 0.09341567
1180.60 0.09338938
1180.70 0.09336309
1180.80 0.09333681
1180.90 0.09331054
1181.00 0.09328427
1181.10 0.09325802
1181.20 0.09323177
1181.30 0.09320553
1181.40 0.09317929
1181.50 0.09315307
1181.60 0.09312685
1181.70 0.09310064
1181.80 0.09307443
1181.90 0.09304824
1182.00 0.09302205
1182.10 0.09299587
1182.20 0.09296969
1182.30 0.09294353
1182.40 0.09291737
1182.50 0.09289122
1182.60 0.09286507
1182.70 0.09283894
1182.80 0.09281281
1182.90 0.09278669
1183.00 0.09276057
1183.10 0.09273447
1183.20 0.09270837
1183.30 0.09268228
1183.40 0.0926562
1183.50 0.09263012
1183.60 0.09260405
1183.70 0.09257799
1183.80 0.09255194
1183.90 0.09252589
1184.00 0.09249985
1184.10 0.09247382
1184.20 0.0924478
1184.30 0.09242178
1184.40 0.09239577
1184.50 0.09236977
1184.60 0.09234378
1184.70 0.09231779
1184.80 0.09229181
1184.90 0.09226584
1185.00 0.09223988
1185.10 0.09221392
1185.20 0.09218797
1185.30 0.09216203
1185.40 0.0921361
1185.50 0.09211021
1185.60 0.09208439
1185.70 0.09205858
1185.80 0.09203278
1185.90 0.09200699
1186.00 0.0919812
1186.10 0.09195542
1186.20 0.09192964
1186.30 0.09190388
1186.40 0.09187812
1186.50 0.09185237
1186.60 0.09182662
1186.70 0.09180089
1186.80 0.09177516
1186.90 0.09174944
1187.00 0.09172372
1187.10 0.09169802
1187.20 0.09167232
1187.30 0.09164662
1187.40 0.09162094
1187.50 0.09159526
1187.60 0.09156959
1187.70 0.09154393
1187.80 0.09151827
1187.90 0.09149262
1188.00 0.09146698
1188.10 0.09144135
1188.20 0.09141572
1188.30 0.09139011
1188.40 0.09136449
1188.50 0.09133889
1188.60 0.09131329
1188.70 0.0912877
1188.80 0.09126212
1188.90 0.09123655
1189.00 0.09121098
1189.10 0.09118542
1189.20 0.09115987
1189.30 0.09113432
1189.40 0.09110878
1189.50 0.09108325
1189.60 0.09105773
1189.70 0.09103221
1189.80 0.0910067
1189.90 0.0909812
1190.00 0.0909557
1190.10 0.09093022
1190.20 0.09090474
1190.30 0.09087926
1190.40 0.0908538
1190.50 0.09082834
1190.60 0.09080289
1190.70 0.09077745
1190.80 0.09075201
1190.90 0.09072658
1191.00 0.09070116
1191.10 0.09067574
1191.20 0.09065034
1191.30 0.09062494
1191.40 0.09059954
1191.50 0.09057416
1191.60 0.09054878
1191.70 0.09052341
1191.80 0.09049804
1191.90 0.09047269
1192.00 0.09044734
1192.10 0.090422
1192.20 0.09039666
1192.30 0.09037133
1192.40 0.09034601
1192.50 0.0903207
1192.60 0.09029539
1192.70 0.09027009
1192.80 0.0902448
1192.90 0.09021952
1193.00 0.09019424
1193.10 0.09016897
1193.20 0.09014371
1193.30 0.09011845
1193.40 0.0900932
1193.50 0.09006796
1193.60 0.09004273
1193.70 0.0900175
1193.80 0.08999228
1193.90 0.08996707
1194.00 0.08994186
1194.10 0.08991667
1194.20 0.08989148
1194.30 0.08986629
1194.40 0.08984112
1194.50 0.08981595
1194.60 0.08979078
1194.70 0.08976563
1194.80 0.08974048
1194.90 0.08971534
1195.00 0.08969021
1195.10 0.08966508
1195.20 0.08963996
1195.30 0.08961485
1195.40 0.08958974
1195.50 0.08956465
1195.60 0.08953956
1195.70 0.08951447
1195.80 0.0894894
1195.90 0.08946433
1196.00 0.08943926
1196.10 0.08941421
1196.20 0.08938916
1196.30 0.08936412
1196.40 0.08933909
1196.50 0.08931406
1196.60 0.08928904
1196.70 0.08926403
1196.80 0.08923902
1196.90 0.08921403
1197.00 0.08918903
1197.10 0.08916405
1197.20 0.08913907
1197.30 0.0891141
1197.40 0.08908923
1197.50 0.08906438
1197.60 0.08903953
1197.70 0.08901469
1197.80 0.08898985
1197.90 0.08896503
1198.00 0.08894021
1198.10 0.0889154
1198.20 0.08889059
1198.30 0.08886579
1198.40 0.088841
1198.50 0.08881622
1198.60 0.08879144
1198.70 0.08876667
1198.80 0.08874191
1198.90 0.08871715
1199.00 0.0886924
1199.10 0.08866766
1199.20 0.08864293
1199.30 0.0886182
1199.40 0.08859348
1199.50 0.08856877
1199.60 0.08854406
1199.70 0.08851936
1199.80 0.08849467
1199.90 0.08846998
1200.00 0.0884453
