# Version 2.1 - nm, norm@500 to 1, cut digits, bergeron_He_8500_70.dat_8500
# Wavelength(nm)  Flambda(ergs/cm^s/s/nm)
300.00 1.445629
300.10 1.44577
300.20 1.445905
300.30 1.446049
300.40 1.446262
300.50 1.446474
300.60 1.446686
300.70 1.446897
300.80 1.447107
300.90 1.447317
301.00 1.447526
301.10 1.447735
301.20 1.447943
301.30 1.44815
301.40 1.448357
301.50 1.448563
301.60 1.448769
301.70 1.448974
301.80 1.449178
301.90 1.449382
302.00 1.449585
302.10 1.449798
302.20 1.450011
302.30 1.450224
302.40 1.450435
302.50 1.450647
302.60 1.450858
302.70 1.451068
302.80 1.451277
302.90 1.451486
303.00 1.451695
303.10 1.451903
303.20 1.45211
303.30 1.452314
303.40 1.452496
303.50 1.452677
303.60 1.452858
303.70 1.453038
303.80 1.453218
303.90 1.453397
304.00 1.453576
304.10 1.453754
304.20 1.453931
304.30 1.454108
304.40 1.454285
304.50 1.45446
304.60 1.454645
304.70 1.454831
304.80 1.455015
304.90 1.4552
305.00 1.455383
305.10 1.455566
305.20 1.455749
305.30 1.455931
305.40 1.456112
305.50 1.456293
305.60 1.456474
305.70 1.456654
305.80 1.456833
305.90 1.457012
306.00 1.45719
306.10 1.457367
306.20 1.457545
306.30 1.457721
306.40 1.457855
306.50 1.457975
306.60 1.458095
306.70 1.458214
306.80 1.458333
306.90 1.458452
307.00 1.45857
307.10 1.458687
307.20 1.458804
307.30 1.458921
307.40 1.459037
307.50 1.459153
307.60 1.459268
307.70 1.459383
307.80 1.459497
307.90 1.459611
308.00 1.459724
308.10 1.459837
308.20 1.45995
308.30 1.460062
308.40 1.460174
308.50 1.460285
308.60 1.460395
308.70 1.460506
308.80 1.460737
308.90 1.461311
309.00 1.46135
309.10 1.461388
309.20 1.461426
309.30 1.461464
309.40 1.461516
309.50 1.461658
309.60 1.4618
309.70 1.461941
309.80 1.462081
309.90 1.462221
310.00 1.462361
310.10 1.4625
310.20 1.462638
310.30 1.462776
310.40 1.462894
310.50 1.46299
310.60 1.463085
310.70 1.463179
310.80 1.463274
310.90 1.463368
311.00 1.463437
311.10 1.463506
311.20 1.463575
311.30 1.463679
311.40 1.463883
311.50 1.464086
311.60 1.464289
311.70 1.464492
311.80 1.464694
311.90 1.464895
312.00 1.465096
312.10 1.465296
312.20 1.465268
312.30 1.465163
312.40 1.465265
312.50 1.465464
312.60 1.465532
312.70 1.4656
312.80 1.465667
312.90 1.465783
313.00 1.465952
313.10 1.46612
313.20 1.466288
313.30 1.466435
313.40 1.466524
313.50 1.466613
313.60 1.466702
313.70 1.46679
313.80 1.466878
313.90 1.466965
314.00 1.467052
314.10 1.467075
314.20 1.467098
314.30 1.467121
314.40 1.467143
314.50 1.467165
314.60 1.467187
314.70 1.467208
314.80 1.467289
314.90 1.467569
315.00 1.467882
315.10 1.467871
315.20 1.467859
315.30 1.467847
315.40 1.467835
315.50 1.467823
315.60 1.46781
315.70 1.468026
315.80 1.468242
315.90 1.468457
316.00 1.468672
316.10 1.468657
316.20 1.468642
316.30 1.468627
316.40 1.469068
316.50 1.469052
316.60 1.46858
316.70 1.469019
316.80 1.469458
316.90 1.46944
317.00 1.469423
317.10 1.469405
317.20 1.469387
317.30 1.469504
317.40 1.469626
317.50 1.469764
317.60 1.469902
317.70 1.47004
317.80 1.470177
317.90 1.469847
318.00 1.469525
318.10 1.46973
318.20 1.469935
318.30 1.470138
318.40 1.470283
318.50 1.470261
318.60 1.470004
318.70 1.470116
318.80 1.469958
318.90 1.47007
319.00 1.470145
319.10 1.470121
319.20 1.470172
319.30 1.470437
319.40 1.470701
319.50 1.470965
319.60 1.470906
319.70 1.470932
319.80 1.470957
319.90 1.470983
320.00 1.470983
320.10 1.470956
320.20 1.4709
320.30 1.471097
320.40 1.471336
320.50 1.47104
320.60 1.470816
320.70 1.470788
320.80 1.470865
320.90 1.471058
321.00 1.47125
321.10 1.471441
321.20 1.47134
321.30 1.471343
321.40 1.471346
321.50 1.471348
321.60 1.471351
321.70 1.471353
321.80 1.471487
321.90 1.471764
322.00 1.471363
322.10 1.471436
322.20 1.471508
322.30 1.47158
322.40 1.471651
322.50 1.471722
322.60 1.471792
322.70 1.471863
322.80 1.471704
322.90 1.471727
323.00 1.471749
323.10 1.471771
323.20 1.471793
323.30 1.471814
323.40 1.471835
323.50 1.471856
323.60 1.471876
323.70 1.471896
323.80 1.471916
323.90 1.471935
324.00 1.471958
324.10 1.47198
324.20 1.472002
324.30 1.472071
324.40 1.472203
324.50 1.472252
324.60 1.472302
324.70 1.472351
324.80 1.4724
324.90 1.472448
325.00 1.472497
325.10 1.472544
325.20 1.472576
325.30 1.472573
325.40 1.47257
325.50 1.472553
325.60 1.472517
325.70 1.47248
325.80 1.472444
325.90 1.472383
326.00 1.472294
326.10 1.472206
326.20 1.472117
326.30 1.472171
326.40 1.472631
326.50 1.472614
326.60 1.472598
326.70 1.472581
326.80 1.472564
326.90 1.472546
327.00 1.472528
327.10 1.47251
327.20 1.472492
327.30 1.472474
327.40 1.472455
327.50 1.472436
327.60 1.472417
327.70 1.472397
327.80 1.472378
327.90 1.472332
328.00 1.4723
328.10 1.472317
328.20 1.472334
328.30 1.472351
328.40 1.472368
328.50 1.472224
328.60 1.472043
328.70 1.471863
328.80 1.471738
328.90 1.471773
329.00 1.471808
329.10 1.471842
329.20 1.471876
329.30 1.47191
329.40 1.471943
329.50 1.471976
329.60 1.472009
329.70 1.472041
329.80 1.472074
329.90 1.472106
330.00 1.472102
330.10 1.472055
330.20 1.472008
330.30 1.471961
330.40 1.471909
330.50 1.471853
330.60 1.471796
330.70 1.471739
330.80 1.471682
330.90 1.471625
331.00 1.471568
331.10 1.47151
331.20 1.471453
331.30 1.471395
331.40 1.471337
331.50 1.471206
331.60 1.470986
331.70 1.470766
331.80 1.470732
331.90 1.470706
332.00 1.470679
332.10 1.470652
332.20 1.470625
332.30 1.470597
332.40 1.470569
332.50 1.470541
332.60 1.470513
332.70 1.470485
332.80 1.470456
332.90 1.470427
333.00 1.470398
333.10 1.470355
333.20 1.470296
333.30 1.470236
333.40 1.470177
333.50 1.470117
333.60 1.470057
333.70 1.469996
333.80 1.469936
333.90 1.469875
334.00 1.469814
334.10 1.469753
334.20 1.469691
334.30 1.46963
334.40 1.469568
334.50 1.469506
334.60 1.469444
334.70 1.469721
334.80 1.470023
334.90 1.469767
335.00 1.469511
335.10 1.469131
335.20 1.469068
335.30 1.469451
335.40 1.469388
335.50 1.469324
335.60 1.469259
335.70 1.46956
335.80 1.469495
335.90 1.46943
336.00 1.469365
336.10 1.4693
336.20 1.469234
336.30 1.469168
336.40 1.469102
336.50 1.469036
336.60 1.46897
336.70 1.468904
336.80 1.468837
336.90 1.468767
337.00 1.468692
337.10 1.468617
337.20 1.468541
337.30 1.468416
337.40 1.468219
337.50 1.468022
337.60 1.467825
337.70 1.467628
337.80 1.467431
337.90 1.467351
338.00 1.467413
338.10 1.467474
338.20 1.467535
338.30 1.467596
338.40 1.467596
338.50 1.467448
338.60 1.467299
338.70 1.46715
338.80 1.467002
338.90 1.466853
339.00 1.466704
339.10 1.466555
339.20 1.466406
339.30 1.466295
339.40 1.466241
339.50 1.466178
339.60 1.466104
339.70 1.466031
339.80 1.465957
339.90 1.465883
340.00 1.465809
340.10 1.465734
340.20 1.46566
340.30 1.465585
340.40 1.46551
340.50 1.465435
340.60 1.46536
340.70 1.465285
340.80 1.465217
340.90 1.46516
341.00 1.465095
341.10 1.465022
341.20 1.464948
341.30 1.464874
341.40 1.4648
341.50 1.464726
341.60 1.464651
341.70 1.464577
341.80 1.464481
341.90 1.464361
342.00 1.46424
342.10 1.464119
342.20 1.463851
342.30 1.463893
342.40 1.463968
342.50 1.463767
342.60 1.463565
342.70 1.463364
342.80 1.463163
342.90 1.462961
343.00 1.462813
343.10 1.462729
343.20 1.462645
343.30 1.46256
343.40 1.462479
343.50 1.462402
343.60 1.462325
343.70 1.462247
343.80 1.46217
343.90 1.462092
344.00 1.462015
344.10 1.461937
344.20 1.461859
344.30 1.46178
344.40 1.461702
344.50 1.461623
344.60 1.461229
344.70 1.46115
344.80 1.461072
344.90 1.460993
345.00 1.460461
345.10 1.460382
345.20 1.460307
345.30 1.460238
345.40 1.460169
345.50 1.460081
345.60 1.459984
345.70 1.459904
345.80 1.459824
345.90 1.459744
346.00 1.459663
346.10 1.459583
346.20 1.459471
346.30 1.459314
346.40 1.459157
346.50 1.459
346.60 1.458842
346.70 1.458685
346.80 1.458528
346.90 1.45837
347.00 1.458213
347.10 1.458055
347.20 1.457915
347.30 1.4578
347.40 1.457684
347.50 1.457568
347.60 1.457452
347.70 1.457337
347.80 1.45722
347.90 1.457104
348.00 1.456988
348.10 1.456872
348.20 1.456755
348.30 1.456639
348.40 1.456522
348.50 1.456405
348.60 1.456288
348.70 1.456049
348.80 1.455829
348.90 1.455696
349.00 1.455562
349.10 1.455428
349.20 1.455294
349.30 1.455159
349.40 1.455025
349.50 1.454891
349.60 1.454756
349.70 1.454622
349.80 1.454487
349.90 1.454353
350.00 1.454218
350.10 1.454083
350.20 1.453948
350.30 1.453804
350.40 1.453648
350.50 1.453492
350.60 1.453336
350.70 1.453179
350.80 1.453023
350.90 1.452866
351.00 1.45271
351.10 1.452553
351.20 1.452397
351.30 1.45224
351.40 1.452092
351.50 1.45196
351.60 1.451828
351.70 1.451695
351.80 1.451563
351.90 1.451431
352.00 1.451298
352.10 1.451165
352.20 1.4513
352.30 1.45132
352.40 1.45113
352.50 1.45094
352.60 1.45075
352.70 1.45056
352.80 1.45037
352.90 1.45018
353.00 1.449991
353.10 1.449801
353.20 1.449611
353.30 1.449421
353.40 1.449231
353.50 1.449064
353.60 1.448903
353.70 1.448742
353.80 1.44858
353.90 1.448417
354.00 1.448251
354.10 1.448084
354.20 1.447918
354.30 1.447751
354.40 1.447585
354.50 1.447418
354.60 1.447251
354.70 1.447085
354.80 1.446922
354.90 1.446764
355.00 1.446607
355.10 1.44645
355.20 1.446292
355.30 1.44615
355.40 1.446008
355.50 1.445865
355.60 1.445723
355.70 1.445546
355.80 1.445353
355.90 1.445401
356.00 1.445326
356.10 1.445113
356.20 1.4449
356.30 1.444687
356.40 1.444474
356.50 1.444262
356.60 1.444049
356.70 1.443836
356.80 1.443623
356.90 1.443411
357.00 1.443198
357.10 1.442985
357.20 1.442772
357.30 1.44256
357.40 1.442363
357.50 1.442195
357.60 1.442026
357.70 1.441858
357.80 1.441701
357.90 1.441544
358.00 1.44136
358.10 1.441169
358.20 1.440978
358.30 1.440788
358.40 1.440597
358.50 1.440406
358.60 1.440216
358.70 1.440025
358.80 1.439834
358.90 1.439644
359.00 1.439462
359.10 1.439296
359.20 1.439126
359.30 1.438933
359.40 1.438739
359.50 1.438666
359.60 1.438623
359.70 1.43858
359.80 1.438315
359.90 1.438051
360.00 1.43783
360.10 1.437688
360.20 1.437545
360.30 1.437403
360.40 1.43726
360.50 1.437118
360.60 1.43658
360.70 1.436486
360.80 1.436392
360.90 1.436297
361.00 1.43595
361.10 1.435545
361.20 1.435761
361.30 1.435247
361.40 1.435537
361.50 1.435058
361.60 1.434935
361.70 1.43484
361.80 1.43469
361.90 1.434442
362.00 1.434195
362.10 1.433899
362.20 1.433636
362.30 1.433456
362.40 1.433275
362.50 1.433094
362.60 1.432914
362.70 1.432631
362.80 1.43215
362.90 1.432051
363.00 1.431953
363.10 1.431797
363.20 1.431642
363.30 1.431672
363.40 1.431058
363.50 1.430789
363.60 1.430693
363.70 1.430674
363.80 1.430501
363.90 1.430208
364.00 1.429915
364.10 1.429622
364.20 1.429329
364.30 1.429255
364.40 1.429235
364.50 1.429143
364.60 1.428816
364.70 1.428489
364.80 1.428162
364.90 1.428066
365.00 1.427969
365.10 1.427873
365.20 1.427433
365.30 1.427337
365.40 1.426898
365.50 1.426801
365.60 1.426704
365.70 1.426545
365.80 1.426386
365.90 1.426034
366.00 1.425634
366.10 1.425525
366.20 1.425416
366.30 1.425308
366.40 1.425199
366.50 1.425141
366.60 1.424371
366.70 1.424366
366.80 1.424361
366.90 1.424254
367.00 1.423966
367.10 1.423679
367.20 1.423391
367.30 1.423103
367.40 1.422816
367.50 1.42274
367.60 1.422717
367.70 1.422477
367.80 1.422237
367.90 1.421997
368.00 1.42165
368.10 1.421544
368.20 1.421305
368.30 1.421063
368.40 1.420821
368.50 1.420579
368.60 1.420337
368.70 1.420096
368.80 1.419854
368.90 1.419854
369.00 1.419621
369.10 1.419222
369.20 1.419127
369.30 1.418806
369.40 1.418484
369.50 1.418162
369.60 1.418061
369.70 1.417959
369.80 1.417735
369.90 1.41751
370.00 1.417285
370.10 1.416903
370.20 1.416798
370.30 1.416699
370.40 1.416258
370.50 1.416167
370.60 1.415744
370.70 1.415645
370.80 1.415543
370.90 1.415441
371.00 1.415015
371.10 1.414586
371.20 1.414483
371.30 1.414381
371.40 1.413848
371.50 1.413703
371.60 1.413559
371.70 1.413414
371.80 1.413269
371.90 1.413125
372.00 1.41256
372.10 1.412272
372.20 1.412063
372.30 1.411854
372.40 1.411645
372.50 1.411436
372.60 1.411227
372.70 1.411018
372.80 1.410915
372.90 1.410812
373.00 1.410389
373.10 1.409963
373.20 1.409863
373.30 1.409764
373.40 1.409337
373.50 1.409237
373.60 1.40881
373.70 1.40871
373.80 1.4081
373.90 1.407857
374.00 1.407758
374.10 1.407658
374.20 1.407559
374.30 1.407459
374.40 1.407114
374.50 1.406607
374.60 1.406341
374.70 1.40608
374.80 1.405819
374.90 1.405558
375.00 1.405458
375.10 1.405358
375.20 1.405258
375.30 1.404973
375.40 1.404688
375.50 1.404402
375.60 1.404117
375.70 1.403832
375.80 1.403548
375.90 1.403263
376.00 1.403156
376.10 1.402835
376.20 1.402511
376.30 1.402187
376.40 1.401864
376.50 1.401639
376.60 1.401561
376.70 1.401483
376.80 1.401297
376.90 1.401004
377.00 1.40071
377.10 1.400417
377.20 1.400113
377.30 1.399771
377.40 1.399429
377.50 1.399087
377.60 1.398903
377.70 1.39872
377.80 1.398536
377.90 1.398352
378.00 1.397946
378.10 1.39772
378.20 1.397498
378.30 1.397277
378.40 1.397055
378.50 1.396834
378.60 1.396613
378.70 1.396391
378.80 1.39617
378.90 1.395933
379.00 1.395668
379.10 1.39544
379.20 1.395213
379.30 1.394936
379.40 1.394611
379.50 1.394285
379.60 1.394009
379.70 1.393793
379.80 1.393521
379.90 1.39325
380.00 1.392979
380.10 1.392707
380.20 1.392436
380.30 1.392165
380.40 1.391894
380.50 1.391623
380.60 1.3917
380.70 1.391399
380.80 1.391098
380.90 1.390797
381.00 1.390496
381.10 1.390159
381.20 1.389945
381.30 1.389683
381.40 1.389578
381.50 1.389171
381.60 1.388847
381.70 1.388699
381.80 1.388436
381.90 1.388022
382.00 1.387608
382.10 1.387508
382.20 1.387533
382.30 1.38712
382.40 1.386752
382.50 1.386454
382.60 1.386155
382.70 1.385959
382.80 1.385774
382.90 1.385486
383.00 1.385198
383.10 1.384911
383.20 1.384604
383.30 1.384225
383.40 1.383887
383.50 1.383609
383.60 1.383553
383.70 1.383322
383.80 1.383092
383.90 1.382862
384.00 1.382631
384.10 1.382401
384.20 1.382171
384.30 1.381941
384.40 1.381683
384.50 1.381396
384.60 1.38111
384.70 1.380824
384.80 1.380447
384.90 1.379915
385.00 1.379728
385.10 1.379529
385.20 1.379107
385.30 1.379016
385.40 1.378828
385.50 1.378543
385.60 1.378258
385.70 1.377973
385.80 1.377673
385.90 1.377318
386.00 1.377001
386.10 1.376726
386.20 1.376486
386.30 1.376246
386.40 1.37592
386.50 1.37567
386.60 1.37557
386.70 1.375317
386.80 1.374759
386.90 1.374659
387.00 1.374558
387.10 1.373863
387.20 1.373748
387.30 1.373648
387.40 1.373097
387.50 1.373109
387.60 1.372835
387.70 1.372583
387.80 1.37233
387.90 1.372078
388.00 1.371731
388.10 1.371117
388.20 1.371117
388.30 1.370795
388.40 1.370474
388.50 1.370204
388.60 1.369919
388.70 1.36976
388.80 1.369341
388.90 1.369014
389.00 1.368914
389.10 1.368459
389.20 1.368373
389.30 1.368119
389.40 1.367726
389.50 1.367411
389.60 1.367109
389.70 1.366587
389.80 1.366397
389.90 1.366207
390.00 1.366017
390.10 1.365828
390.20 1.365638
390.30 1.365379
390.40 1.365041
390.50 1.364704
390.60 1.364367
390.70 1.36403
390.80 1.363682
390.90 1.363322
391.00 1.363392
391.10 1.362985
391.20 1.362517
391.30 1.362054
391.40 1.361855
391.50 1.361657
391.60 1.361458
391.70 1.361259
391.80 1.36106
391.90 1.360628
392.00 1.36014
392.10 1.359961
392.20 1.359736
392.30 1.359245
392.40 1.358975
392.50 1.358844
392.60 1.358552
392.70 1.358157
392.80 1.357954
392.90 1.357483
393.00 1.357422
393.10 1.357266
393.20 1.356992
393.30 1.356597
393.40 1.356176
393.50 1.355965
393.60 1.35575
393.70 1.355289
393.80 1.355217
393.90 1.354823
394.00 1.354489
394.10 1.354445
394.20 1.354056
394.30 1.353774
394.40 1.353468
394.50 1.353321
394.60 1.352963
394.70 1.352593
394.80 1.352177
394.90 1.351771
395.00 1.351654
395.10 1.35138
395.20 1.351176
395.30 1.350874
395.40 1.350571
395.50 1.350164
395.60 1.349719
395.70 1.349309
395.80 1.348994
395.90 1.34868
396.00 1.348396
396.10 1.348312
396.20 1.347923
396.30 1.347848
396.40 1.347357
396.50 1.347164
396.60 1.346681
396.70 1.346481
396.80 1.346038
396.90 1.345762
397.00 1.345606
397.10 1.345412
397.20 1.34496
397.30 1.344831
397.40 1.344518
397.50 1.344206
397.60 1.343897
397.70 1.343631
397.80 1.343365
397.90 1.3431
398.00 1.342837
398.10 1.342575
398.20 1.34223
398.30 1.341792
398.40 1.34136
398.50 1.34113
398.60 1.341028
398.70 1.340667
398.80 1.340229
398.90 1.339858
399.00 1.339612
399.10 1.339538
399.20 1.33913
399.30 1.338722
399.40 1.338315
399.50 1.337907
399.60 1.337575
399.70 1.337271
399.80 1.336967
399.90 1.336663
400.00 1.336362
400.10 1.336133
400.20 1.336154
400.30 1.335848
400.40 1.335631
400.50 1.335293
400.60 1.334834
400.70 1.334452
400.80 1.334333
400.90 1.333859
401.00 1.33367
401.10 1.333189
401.20 1.332908
401.30 1.332668
401.40 1.332454
401.50 1.33221
401.60 1.331967
401.70 1.331739
401.80 1.331194
401.90 1.330827
402.00 1.330456
402.10 1.330339
402.20 1.329751
402.30 1.329581
402.40 1.329305
402.50 1.328824
402.60 1.328728
402.70 1.328631
402.80 1.327972
402.90 1.327763
403.00 1.327667
403.10 1.32712
403.20 1.327037
403.30 1.326811
403.40 1.32627
403.50 1.325875
403.60 1.325563
403.70 1.325421
403.80 1.324784
403.90 1.324764
404.00 1.324573
404.10 1.323918
404.20 1.323822
404.30 1.323726
404.40 1.323072
404.50 1.322976
404.60 1.322601
404.70 1.322226
404.80 1.322131
404.90 1.321478
405.00 1.321263
405.10 1.321048
405.20 1.320794
405.30 1.32054
405.40 1.320166
405.50 1.319793
405.60 1.31942
405.70 1.319047
405.80 1.318675
405.90 1.318302
406.00 1.317988
406.10 1.317673
406.20 1.317359
406.30 1.317044
406.40 1.316775
406.50 1.316765
406.60 1.31653
406.70 1.316056
406.80 1.315625
406.90 1.315152
407.00 1.314837
407.10 1.314521
407.20 1.314207
407.30 1.313892
407.40 1.313577
407.50 1.313263
407.60 1.312948
407.70 1.312634
407.80 1.31232
407.90 1.312014
408.00 1.311971
408.10 1.311808
408.20 1.311451
408.30 1.311166
408.40 1.310881
408.50 1.310335
408.60 1.310073
408.70 1.30981
408.80 1.309507
408.90 1.308942
409.00 1.308616
409.10 1.308291
409.20 1.307966
409.30 1.307641
409.40 1.307318
409.50 1.307065
409.60 1.306811
409.70 1.306532
409.80 1.306145
409.90 1.305766
410.00 1.305657
410.10 1.305473
410.20 1.305097
410.30 1.304673
410.40 1.304284
410.50 1.304005
410.60 1.303727
410.70 1.303421
410.80 1.303006
410.90 1.302591
411.00 1.30224
411.10 1.301913
411.20 1.301586
411.30 1.30129
411.40 1.301117
411.50 1.300866
411.60 1.300615
411.70 1.300342
411.80 1.29998
411.90 1.299564
412.00 1.299471
412.10 1.298841
412.20 1.298749
412.30 1.298211
412.40 1.298026
412.50 1.297474
412.60 1.297228
412.70 1.29701
412.80 1.296799
412.90 1.296493
413.00 1.295941
413.10 1.295633
413.20 1.295324
413.30 1.295016
413.40 1.294708
413.50 1.294447
413.60 1.294308
413.70 1.29395
413.80 1.293591
413.90 1.293233
414.00 1.292875
414.10 1.292517
414.20 1.292095
414.30 1.292004
414.40 1.29138
414.50 1.291289
414.60 1.29073
414.70 1.290373
414.80 1.290049
414.90 1.289825
415.00 1.289601
415.10 1.289378
415.20 1.289099
415.30 1.288643
415.40 1.288188
415.50 1.287739
415.60 1.287498
415.70 1.287258
415.80 1.28701
415.90 1.286739
416.00 1.286468
416.10 1.286178
416.20 1.285813
416.30 1.285448
416.40 1.285084
416.50 1.28472
416.60 1.284366
416.70 1.284005
416.80 1.283697
416.90 1.283299
417.00 1.283209
417.10 1.282602
417.20 1.28225
417.30 1.281901
417.40 1.281657
417.50 1.281414
417.60 1.281096
417.70 1.280494
417.80 1.28023
417.90 1.279966
418.00 1.279702
418.10 1.279438
418.20 1.279175
418.30 1.278901
418.40 1.278358
418.50 1.27803
418.60 1.277703
418.70 1.277376
418.80 1.277048
418.90 1.276721
419.00 1.276395
419.10 1.276068
419.20 1.275742
419.30 1.275418
419.40 1.275177
419.50 1.274936
419.60 1.274657
419.70 1.274225
419.80 1.273793
419.90 1.273392
420.00 1.27309
420.10 1.272789
420.20 1.272487
420.30 1.272186
420.40 1.271884
420.50 1.271583
420.60 1.271282
420.70 1.270981
420.80 1.27068
420.90 1.270376
421.00 1.269958
421.10 1.269541
421.20 1.26915
421.30 1.268842
421.40 1.268533
421.50 1.268225
421.60 1.267916
421.70 1.267608
421.80 1.2673
421.90 1.266983
422.00 1.266634
422.10 1.266267
422.20 1.265829
422.30 1.265391
422.40 1.264958
422.50 1.264643
422.60 1.264329
422.70 1.264015
422.80 1.263702
422.90 1.263388
423.00 1.263075
423.10 1.262761
423.20 1.262448
423.30 1.262135
423.40 1.261823
423.50 1.26151
423.60 1.261197
423.70 1.260885
423.80 1.260573
423.90 1.260261
424.00 1.259949
424.10 1.259637
424.20 1.259326
424.30 1.259014
424.40 1.258643
424.50 1.258306
424.60 1.25797
424.70 1.257633
424.80 1.257297
424.90 1.256961
425.00 1.256625
425.10 1.256289
425.20 1.255953
425.30 1.255618
425.40 1.25528
425.50 1.254924
425.60 1.254568
425.70 1.254213
425.80 1.253857
425.90 1.253502
426.00 1.253147
426.10 1.252792
426.20 1.252437
426.30 1.252083
426.40 1.251729
426.50 1.251375
426.60 1.251021
426.70 1.250667
426.80 1.250314
426.90 1.249962
427.00 1.24964
427.10 1.24932
427.20 1.248999
427.30 1.248678
427.40 1.248358
427.50 1.248038
427.60 1.247717
427.70 1.247397
427.80 1.247078
427.90 1.246758
428.00 1.246439
428.10 1.246119
428.20 1.2458
428.30 1.245481
428.40 1.245163
428.50 1.244844
428.60 1.244525
428.70 1.244207
428.80 1.243887
428.90 1.243546
429.00 1.243204
429.10 1.242863
429.20 1.242522
429.30 1.242181
429.40 1.241841
429.50 1.2415
429.60 1.24116
429.70 1.24082
429.80 1.24048
429.90 1.24014
430.00 1.239801
430.10 1.239462
430.20 1.239122
430.30 1.238783
430.40 1.238445
430.50 1.238106
430.60 1.237767
430.70 1.237429
430.80 1.237091
430.90 1.236753
431.00 1.236415
431.10 1.236078
431.20 1.235741
431.30 1.235402
431.40 1.235051
431.50 1.234699
431.60 1.234348
431.70 1.233997
431.80 1.233646
431.90 1.233295
432.00 1.232944
432.10 1.232594
432.20 1.232244
432.30 1.231894
432.40 1.231544
432.50 1.231194
432.60 1.230845
432.70 1.230496
432.80 1.230147
432.90 1.229798
433.00 1.229449
433.10 1.229101
433.20 1.228752
433.30 1.228404
433.40 1.228047
433.50 1.227691
433.60 1.227336
433.70 1.22698
433.80 1.226649
433.90 1.226349
434.00 1.226026
434.10 1.225688
434.20 1.22535
434.30 1.225012
434.40 1.224675
434.50 1.224338
434.60 1.224001
434.70 1.223664
434.80 1.223328
434.90 1.222996
435.00 1.222665
435.10 1.222334
435.20 1.222004
435.30 1.221673
435.40 1.221343
435.50 1.221013
435.60 1.220683
435.70 1.220353
435.80 1.220023
435.90 1.219694
436.00 1.219365
436.10 1.219035
436.20 1.218707
436.30 1.218274
436.40 1.217734
436.50 1.21743
436.60 1.217126
436.70 1.216823
436.80 1.21652
436.90 1.216216
437.00 1.215913
437.10 1.21561
437.20 1.215277
437.30 1.214917
437.40 1.214554
437.50 1.214158
437.60 1.213762
437.70 1.213366
437.80 1.212971
437.90 1.212576
438.00 1.212195
438.10 1.212005
438.20 1.211816
438.30 1.211462
438.40 1.210926
438.50 1.210612
438.60 1.210281
438.70 1.210049
438.80 1.209652
438.90 1.209421
439.00 1.209041
439.10 1.208727
439.20 1.208414
439.30 1.2081
439.40 1.207787
439.50 1.207474
439.60 1.207145
439.70 1.206596
439.80 1.206144
439.90 1.205812
440.00 1.205479
440.10 1.205147
440.20 1.204813
440.30 1.204454
440.40 1.204095
440.50 1.203737
440.60 1.203379
440.70 1.203021
440.80 1.202664
440.90 1.202306
441.00 1.201949
441.10 1.201592
441.20 1.201242
441.30 1.200987
441.40 1.200674
441.50 1.200291
441.60 1.199907
441.70 1.199909
441.80 1.199509
441.90 1.199109
442.00 1.198709
442.10 1.198309
442.20 1.19791
442.30 1.197511
442.40 1.197186
442.50 1.196951
442.60 1.196716
442.70 1.196359
442.80 1.195839
442.90 1.195586
443.00 1.195313
443.10 1.195015
443.20 1.194708
443.30 1.194394
443.40 1.193979
443.50 1.19344
443.60 1.193367
443.70 1.192829
443.80 1.192349
443.90 1.192218
444.00 1.191785
444.10 1.19148
444.20 1.191071
444.30 1.190548
444.40 1.190188
444.50 1.18983
444.60 1.189499
444.70 1.189204
444.80 1.188902
444.90 1.188594
445.00 1.188287
445.10 1.18798
445.20 1.187641
445.30 1.187263
445.40 1.186885
445.50 1.186507
445.60 1.18613
445.70 1.185753
445.80 1.185413
445.90 1.185107
446.00 1.184802
446.10 1.184496
446.20 1.184089
446.30 1.184018
446.40 1.183547
446.50 1.183131
446.60 1.182716
446.70 1.182301
446.80 1.181946
446.90 1.181646
447.00 1.181227
447.10 1.181156
447.20 1.180627
447.30 1.180465
447.40 1.180147
447.50 1.179848
447.60 1.17943
447.70 1.178903
447.80 1.178483
447.90 1.178193
448.00 1.177859
448.10 1.177485
448.20 1.177112
448.30 1.176738
448.40 1.176365
448.50 1.175992
448.60 1.175636
448.70 1.175298
448.80 1.17496
448.90 1.174633
449.00 1.174306
449.10 1.173979
449.20 1.173652
449.30 1.173238
449.40 1.172898
449.50 1.172559
449.60 1.172218
449.70 1.171877
449.80 1.171537
449.90 1.171196
450.00 1.170856
450.10 1.170515
450.20 1.170175
450.30 1.169835
450.40 1.169541
450.50 1.169247
450.60 1.168953
450.70 1.168659
450.80 1.168366
450.90 1.168072
451.00 1.167736
451.10 1.167399
451.20 1.166968
451.30 1.166451
451.40 1.166159
451.50 1.165866
451.60 1.16535
451.70 1.165282
451.80 1.164766
451.90 1.164251
452.00 1.163959
452.10 1.163668
452.20 1.163377
452.30 1.163086
452.40 1.162795
452.50 1.162504
452.60 1.16199
452.70 1.16158
452.80 1.161264
452.90 1.160948
453.00 1.160633
453.10 1.160317
453.20 1.159941
453.30 1.159565
453.40 1.15919
453.50 1.158814
453.60 1.158439
453.70 1.158064
453.80 1.157744
453.90 1.157491
454.00 1.157238
454.10 1.156985
454.20 1.156637
454.30 1.15629
454.40 1.155942
454.50 1.155595
454.60 1.155248
454.70 1.154905
454.80 1.154565
454.90 1.154226
455.00 1.153886
455.10 1.153547
455.20 1.153208
455.30 1.152869
455.40 1.15253
455.50 1.152191
455.60 1.151853
455.70 1.151515
455.80 1.151128
455.90 1.150741
456.00 1.150354
456.10 1.149979
456.20 1.149639
456.30 1.149298
456.40 1.148958
456.50 1.148618
456.60 1.148278
456.70 1.147938
456.80 1.147598
456.90 1.147259
457.00 1.14692
457.10 1.146581
457.20 1.146157
457.30 1.145809
457.40 1.145461
457.50 1.145113
457.60 1.144765
457.70 1.144417
457.80 1.14407
457.90 1.143723
458.00 1.143376
458.10 1.143029
458.20 1.142683
458.30 1.142336
458.40 1.14199
458.50 1.141644
458.60 1.141298
458.70 1.140953
458.80 1.140607
458.90 1.140262
459.00 1.139917
459.10 1.139573
459.20 1.139228
459.30 1.138883
459.40 1.138539
459.50 1.138194
459.60 1.13785
459.70 1.137506
459.80 1.137162
459.90 1.136818
460.00 1.136475
460.10 1.136131
460.20 1.135788
460.30 1.135445
460.40 1.135102
460.50 1.13476
460.60 1.134417
460.70 1.134091
460.80 1.133772
460.90 1.133454
461.00 1.133135
461.10 1.132817
461.20 1.132376
461.30 1.131885
461.40 1.131485
461.50 1.131108
461.60 1.13073
461.70 1.130354
461.80 1.130014
461.90 1.129675
462.00 1.129335
462.10 1.128996
462.20 1.128658
462.30 1.128319
462.40 1.12798
462.50 1.127642
462.60 1.127304
462.70 1.126966
462.80 1.126629
462.90 1.126291
463.00 1.125954
463.10 1.125617
463.20 1.125261
463.30 1.124899
463.40 1.124537
463.50 1.124174
463.60 1.123813
463.70 1.123451
463.80 1.12309
463.90 1.122756
464.00 1.122429
464.10 1.122103
464.20 1.121777
464.30 1.121451
464.40 1.121125
464.50 1.120799
464.60 1.120474
464.70 1.120136
464.80 1.119792
464.90 1.119449
465.00 1.119106
465.10 1.118763
465.20 1.11842
465.30 1.118082
465.40 1.117747
465.50 1.117412
465.60 1.117078
465.70 1.116743
465.80 1.116409
465.90 1.116041
466.00 1.115665
466.10 1.115289
466.20 1.114914
466.30 1.114555
466.40 1.114203
466.50 1.113851
466.60 1.1135
466.70 1.113149
466.80 1.112798
466.90 1.112447
467.00 1.112096
467.10 1.111746
467.20 1.111395
467.30 1.111283
467.40 1.110965
467.50 1.110572
467.60 1.110179
467.70 1.109786
467.80 1.109394
467.90 1.109017
468.00 1.108648
468.10 1.108279
468.20 1.107909
468.30 1.107614
468.40 1.10735
468.50 1.106937
468.60 1.106881
468.70 1.106409
468.80 1.105937
468.90 1.105789
469.00 1.105409
469.10 1.105012
469.20 1.104645
469.30 1.104278
469.40 1.103911
469.50 1.103534
469.60 1.103154
469.70 1.102774
469.80 1.102394
469.90 1.102125
470.00 1.101951
470.10 1.101542
470.20 1.101158
470.30 1.100774
470.40 1.10039
470.50 1.100006
470.60 1.099721
470.70 1.09946
470.80 1.099199
470.90 1.098938
471.00 1.098513
471.10 1.098046
471.20 1.09758
471.30 1.097526
471.40 1.097061
471.50 1.096595
471.60 1.096295
471.70 1.096035
471.80 1.095694
471.90 1.095332
472.00 1.09497
472.10 1.094609
472.20 1.094295
472.30 1.093992
472.40 1.09369
472.50 1.093388
472.60 1.093086
472.70 1.09267
472.80 1.092306
472.90 1.091967
473.00 1.091628
473.10 1.091289
473.20 1.09095
473.30 1.090612
473.40 1.090273
473.50 1.089935
473.60 1.089597
473.70 1.089259
473.80 1.088903
473.90 1.088543
474.00 1.088184
474.10 1.087824
474.20 1.087456
474.30 1.087086
474.40 1.086715
474.50 1.086345
474.60 1.085977
474.70 1.085631
474.80 1.085285
474.90 1.084939
475.00 1.084594
475.10 1.084248
475.20 1.083903
475.30 1.083558
475.40 1.083204
475.50 1.082849
475.60 1.082493
475.70 1.082138
475.80 1.081783
475.90 1.081428
476.00 1.081073
476.10 1.080719
476.20 1.080377
476.30 1.08004
476.40 1.079703
476.50 1.079366
476.60 1.07903
476.70 1.078693
476.80 1.078357
476.90 1.078017
477.00 1.077676
477.10 1.077336
477.20 1.076995
477.30 1.076655
477.40 1.076314
477.50 1.075974
477.60 1.075635
477.70 1.075295
477.80 1.074956
477.90 1.074616
478.00 1.074277
478.10 1.073938
478.20 1.0736
478.30 1.073261
478.40 1.072923
478.50 1.072585
478.60 1.072247
478.70 1.071979
478.80 1.07174
478.90 1.071396
479.00 1.071026
479.10 1.070656
479.20 1.070286
479.30 1.069916
479.40 1.069569
479.50 1.069236
479.60 1.068903
479.70 1.06857
479.80 1.068237
479.90 1.067904
480.00 1.067572
480.10 1.06724
480.20 1.066908
480.30 1.066576
480.40 1.066244
480.50 1.065913
480.60 1.065581
480.70 1.06525
480.80 1.064919
480.90 1.064588
481.00 1.064258
481.10 1.063927
481.20 1.063557
481.30 1.063188
481.40 1.062818
481.50 1.062449
481.60 1.06208
481.70 1.061711
481.80 1.061342
481.90 1.060974
482.00 1.060606
482.10 1.060238
482.20 1.059873
482.30 1.059545
482.40 1.059217
482.50 1.05889
482.60 1.058563
482.70 1.058235
482.80 1.057909
482.90 1.057582
483.00 1.057255
483.10 1.056929
483.20 1.056603
483.30 1.056277
483.40 1.055951
483.50 1.055625
483.60 1.0553
483.70 1.054937
483.80 1.054575
483.90 1.054213
484.00 1.053851
484.10 1.053489
484.20 1.053173
484.30 1.052876
484.40 1.05258
484.50 1.052284
484.60 1.051988
484.70 1.051688
484.80 1.05134
484.90 1.050992
485.00 1.050645
485.10 1.050297
485.20 1.04995
485.30 1.049603
485.40 1.049256
485.50 1.048909
485.60 1.048563
485.70 1.048202
485.80 1.047841
485.90 1.047481
486.00 1.04712
486.10 1.04676
486.20 1.046401
486.30 1.046041
486.40 1.045682
486.50 1.045322
486.60 1.044963
486.70 1.044606
486.80 1.044272
486.90 1.043938
487.00 1.043604
487.10 1.04327
487.20 1.042947
487.30 1.042625
487.40 1.042303
487.50 1.041981
487.60 1.041659
487.70 1.041337
487.80 1.041016
487.90 1.040694
488.00 1.040373
488.10 1.040052
488.20 1.039729
488.30 1.039379
488.40 1.039029
488.50 1.038679
488.60 1.03833
488.70 1.03798
488.80 1.037696
488.90 1.037412
489.00 1.037104
489.10 1.036732
489.20 1.036361
489.30 1.03599
489.40 1.035619
489.50 1.035248
489.60 1.034878
489.70 1.034507
489.80 1.03409
489.90 1.033743
490.00 1.033396
490.10 1.03305
490.20 1.032703
490.30 1.032357
490.40 1.032031
490.50 1.031705
490.60 1.03138
490.70 1.031054
490.80 1.031013
490.90 1.030593
491.00 1.030174
491.10 1.029754
491.20 1.029335
491.30 1.029294
491.40 1.028875
491.50 1.028457
491.60 1.028092
491.70 1.027842
491.80 1.02758
491.90 1.027163
492.00 1.026745
492.10 1.026328
492.20 1.026132
492.30 1.025871
492.40 1.025454
492.50 1.025038
492.60 1.024629
492.70 1.024307
492.80 1.023985
492.90 1.023664
493.00 1.023341
493.10 1.023
493.20 1.022659
493.30 1.022319
493.40 1.021979
493.50 1.021638
493.60 1.0216
493.70 1.021186
493.80 1.020772
493.90 1.020429
494.00 1.020197
494.10 1.01993
494.20 1.019589
494.30 1.019247
494.40 1.018906
494.50 1.018565
494.60 1.01822
494.70 1.017808
494.80 1.017427
494.90 1.01713
495.00 1.016833
495.10 1.016537
495.20 1.016203
495.30 1.01587
495.40 1.015537
495.50 1.015204
495.60 1.014871
495.70 1.014539
495.80 1.014206
495.90 1.013874
496.00 1.013542
496.10 1.013186
496.20 1.012784
496.30 1.012467
496.40 1.01215
496.50 1.011833
496.60 1.011517
496.70 1.011165
496.80 1.010812
496.90 1.010461
497.00 1.010109
497.10 1.009757
497.20 1.009406
497.30 1.009073
497.40 1.008793
497.50 1.008513
497.60 1.008193
497.70 1.007791
497.80 1.007427
497.90 1.007063
498.00 1.006699
498.10 1.006336
498.20 1.005972
498.30 1.005609
498.40 1.005246
498.50 1.004883
498.60 1.004521
498.70 1.004302
498.80 1.004083
498.90 1.00378
499.00 1.003478
499.10 1.003175
499.20 1.002841
499.30 1.002462
499.40 1.002148
499.50 1.001834
499.60 1.001521
499.70 1.001201
499.80 1.0008
499.90 1.0004
500.00 1
500.10 0.9996001
500.20 0.9992394
500.30 0.9989617
500.40 0.9986841
500.50 0.9984067
500.60 0.9981294
500.70 0.9978522
500.80 0.9975363
500.90 0.9971381
501.00 0.99674
501.10 0.9963423
501.20 0.9960029
501.30 0.9957874
501.40 0.9955138
501.50 0.9951168
501.60 0.9947201
501.70 0.9943236
501.80 0.9939854
501.90 0.9937707
502.00 0.9934981
502.10 0.9931024
502.20 0.9927069
502.30 0.9923117
502.40 0.991936
502.50 0.9916016
502.60 0.9912673
502.70 0.9909333
502.80 0.9905994
502.90 0.9902657
503.00 0.9899414
503.10 0.9896368
503.20 0.9893324
503.30 0.9890281
503.40 0.9887236
503.50 0.9884179
503.60 0.9881125
503.70 0.9878072
503.80 0.9874916
503.90 0.9870997
504.00 0.9867364
504.10 0.9864335
504.20 0.9861308
504.30 0.9858282
504.40 0.9855028
504.50 0.9851122
504.60 0.9847217
504.70 0.9843316
504.80 0.9842374
504.90 0.9839103
505.00 0.9835207
505.10 0.9831313
505.20 0.9827658
505.30 0.9824677
505.40 0.9821697
505.50 0.9818719
505.60 0.9815641
505.70 0.9812349
505.80 0.9809059
505.90 0.9805771
506.00 0.9802484
506.10 0.9799199
506.20 0.9795867
506.30 0.9792397
506.40 0.9788928
506.50 0.9785462
506.60 0.9781997
506.70 0.9778535
506.80 0.9775074
506.90 0.9771615
507.00 0.9768159
507.10 0.9765649
507.20 0.9764394
507.30 0.9760989
507.40 0.9757585
507.50 0.9754184
507.60 0.9750784
507.70 0.9747387
507.80 0.9743991
507.90 0.9740597
508.00 0.9737205
508.10 0.9733815
508.20 0.9730427
508.30 0.9727041
508.40 0.9723657
508.50 0.9720274
508.60 0.9716894
508.70 0.9713515
508.80 0.9710024
508.90 0.9707287
509.00 0.9704931
509.10 0.9702203
509.20 0.9698684
509.30 0.9695168
509.40 0.9691654
509.50 0.9688142
509.60 0.9684632
509.70 0.9681124
509.80 0.9677618
509.90 0.9674114
510.00 0.9670611
510.10 0.9667111
510.20 0.9663613
510.30 0.9660182
510.40 0.965694
510.50 0.9653699
510.60 0.9650459
510.70 0.9647222
510.80 0.9643986
510.90 0.9640752
511.00 0.963752
511.10 0.963429
511.20 0.9631062
511.30 0.9627835
511.40 0.962461
511.50 0.9621387
511.60 0.9618151
511.70 0.9614886
511.80 0.9611624
511.90 0.9608363
512.00 0.9605103
512.10 0.9601846
512.20 0.959859
512.30 0.9595374
512.40 0.9592266
512.50 0.9589159
512.60 0.9586054
512.70 0.9582951
512.80 0.957985
512.90 0.957675
513.00 0.9573652
513.10 0.9570555
513.20 0.9567461
513.30 0.9564367
513.40 0.9561276
513.50 0.9558186
513.60 0.9555098
513.70 0.9552012
513.80 0.9548927
513.90 0.9545844
514.00 0.9542566
514.10 0.9539258
514.20 0.9535951
514.30 0.9532646
514.40 0.9529344
514.50 0.9526043
514.60 0.9522743
514.70 0.9519446
514.80 0.9516151
514.90 0.9512857
515.00 0.9509565
515.10 0.9506275
515.20 0.9502987
515.30 0.9499701
515.40 0.9496416
515.50 0.9493134
515.60 0.9489853
515.70 0.9486574
515.80 0.9483297
515.90 0.9480022
516.00 0.9476748
516.10 0.9473477
516.20 0.9470207
516.30 0.9466939
516.40 0.9463673
516.50 0.9460408
516.60 0.9457146
516.70 0.9453885
516.80 0.9450626
516.90 0.944737
517.00 0.9444114
517.10 0.9440861
517.20 0.943761
517.30 0.943436
517.40 0.9431112
517.50 0.9427866
517.60 0.9424622
517.70 0.9421379
517.80 0.9418139
517.90 0.94149
518.00 0.9411663
518.10 0.9408427
518.20 0.9405194
518.30 0.9401962
518.40 0.9398732
518.50 0.9395504
518.60 0.9392278
518.70 0.9389053
518.80 0.9385831
518.90 0.938261
519.00 0.937939
519.10 0.9376171
519.20 0.9372952
519.30 0.9369734
519.40 0.9366518
519.50 0.9363303
519.60 0.9360091
519.70 0.935688
519.80 0.9353671
519.90 0.9350464
520.00 0.9347259
520.10 0.9344055
520.20 0.9340853
520.30 0.9337653
520.40 0.9334455
520.50 0.9331258
520.60 0.9328063
520.70 0.932487
520.80 0.9321679
520.90 0.931849
521.00 0.9315302
521.10 0.9312116
521.20 0.9308932
521.30 0.9305749
521.40 0.9302569
521.50 0.929939
521.60 0.9296212
521.70 0.9293037
521.80 0.9289863
521.90 0.9286691
522.00 0.9283521
522.10 0.9280353
522.20 0.9277186
522.30 0.9274021
522.40 0.9270858
522.50 0.9267697
522.60 0.9264537
522.70 0.9261379
522.80 0.9258223
522.90 0.9255068
523.00 0.9251915
523.10 0.9248764
523.20 0.9245615
523.30 0.9242467
523.40 0.9239322
523.50 0.9236177
523.60 0.9233035
523.70 0.9229894
523.80 0.9226756
523.90 0.9223618
524.00 0.9220483
524.10 0.9217349
524.20 0.9214217
524.30 0.9211049
524.40 0.9207853
524.50 0.9204659
524.60 0.9201467
524.70 0.9198277
524.80 0.9195088
524.90 0.9191901
525.00 0.9188716
525.10 0.9185533
525.20 0.9182351
525.30 0.9179171
525.40 0.9175993
525.50 0.9172817
525.60 0.9169642
525.70 0.9166469
525.80 0.9163298
525.90 0.9160129
526.00 0.9156961
526.10 0.9153796
526.20 0.9150631
526.30 0.9147469
526.40 0.9144308
526.50 0.914115
526.60 0.9137992
526.70 0.9134837
526.80 0.9131683
526.90 0.9128531
527.00 0.9125381
527.10 0.9122233
527.20 0.9119086
527.30 0.9115941
527.40 0.9112798
527.50 0.9109656
527.60 0.9106516
527.70 0.9103378
527.80 0.9100242
527.90 0.9097107
528.00 0.9093974
528.10 0.9090843
528.20 0.9087714
528.30 0.9084586
528.40 0.908146
528.50 0.9078336
528.60 0.9075213
528.70 0.9072092
528.80 0.9068973
528.90 0.9065855
529.00 0.906274
529.10 0.9059626
529.20 0.9056513
529.30 0.9053403
529.40 0.9050294
529.50 0.9047195
529.60 0.9044147
529.70 0.9041102
529.80 0.9038058
529.90 0.9035016
530.00 0.9031975
530.10 0.9028936
530.20 0.9025899
530.30 0.9022863
530.40 0.9019829
530.50 0.9016797
530.60 0.9013766
530.70 0.9010737
530.80 0.900771
530.90 0.9004684
531.00 0.900166
531.10 0.8998637
531.20 0.8995616
531.30 0.8992597
531.40 0.898958
531.50 0.8986564
531.60 0.8983549
531.70 0.8980537
531.80 0.8977526
531.90 0.8974516
532.00 0.8971508
532.10 0.8968502
532.20 0.8965417
532.30 0.8962293
532.40 0.895917
532.50 0.8956049
532.60 0.8952929
532.70 0.8949812
532.80 0.8946696
532.90 0.8943581
533.00 0.8940469
533.10 0.8937358
533.20 0.8934249
533.30 0.8931141
533.40 0.8928035
533.50 0.8924931
533.60 0.8921829
533.70 0.8918728
533.80 0.8915629
533.90 0.8912532
534.00 0.8909436
534.10 0.8906342
534.20 0.890325
534.30 0.890016
534.40 0.8897071
534.50 0.8893984
534.60 0.8890898
534.70 0.8887814
534.80 0.8884732
534.90 0.8881649
535.00 0.8878568
535.10 0.8875488
535.20 0.8872411
535.30 0.8869334
535.40 0.886626
535.50 0.8863187
535.60 0.8860116
535.70 0.8857047
535.80 0.8853979
535.90 0.8850913
536.00 0.8847849
536.10 0.8844786
536.20 0.8841725
536.30 0.8838665
536.40 0.8835608
536.50 0.8832552
536.60 0.8829497
536.70 0.8826445
536.80 0.8823394
536.90 0.8820344
537.00 0.8817296
537.10 0.881425
537.20 0.8811206
537.30 0.8808163
537.40 0.8805122
537.50 0.8802083
537.60 0.8799045
537.70 0.8796009
537.80 0.8792974
537.90 0.8789941
538.00 0.878691
538.10 0.878388
538.20 0.8780852
538.30 0.8777826
538.40 0.8774802
538.50 0.8771779
538.60 0.8768757
538.70 0.8765738
538.80 0.8762719
538.90 0.8759703
539.00 0.8756688
539.10 0.8753675
539.20 0.8750663
539.30 0.8747654
539.40 0.8744645
539.50 0.8741639
539.60 0.8738634
539.70 0.873563
539.80 0.8732628
539.90 0.8729628
540.00 0.872663
540.10 0.8723633
540.20 0.8720595
540.30 0.8717541
540.40 0.8714489
540.50 0.8711438
540.60 0.8708389
540.70 0.8705342
540.80 0.8702296
540.90 0.8699252
541.00 0.869621
541.10 0.8693169
541.20 0.869013
541.30 0.8687093
541.40 0.8684057
541.50 0.8681023
541.60 0.8677991
541.70 0.867496
541.80 0.8671931
541.90 0.8668904
542.00 0.8665878
542.10 0.8662854
542.20 0.8659831
542.30 0.8656811
542.40 0.8653791
542.50 0.8650774
542.60 0.8647758
542.70 0.8644743
542.80 0.8641731
542.90 0.863872
543.00 0.863571
543.10 0.8632702
543.20 0.8629696
543.30 0.8626692
543.40 0.8623689
543.50 0.8620688
543.60 0.8617688
543.70 0.861469
543.80 0.8611694
543.90 0.8608699
544.00 0.8605706
544.10 0.8602714
544.20 0.8599724
544.30 0.8596736
544.40 0.8593749
544.50 0.8590764
544.60 0.8587781
544.70 0.8584799
544.80 0.8581818
544.90 0.857884
545.00 0.8575863
545.10 0.8572887
545.20 0.8569913
545.30 0.8566941
545.40 0.8563971
545.50 0.8561002
545.60 0.8557994
545.70 0.855497
545.80 0.8551948
545.90 0.8548927
546.00 0.8545908
546.10 0.8542891
546.20 0.8539876
546.30 0.8536862
546.40 0.8533849
546.50 0.8530839
546.60 0.852783
546.70 0.8524822
546.80 0.8521817
546.90 0.8518813
547.00 0.851581
547.10 0.8512809
547.20 0.850981
547.30 0.8506812
547.40 0.8503816
547.50 0.8500822
547.60 0.8497829
547.70 0.8494838
547.80 0.8491848
547.90 0.848886
548.00 0.8485874
548.10 0.8482889
548.20 0.8479906
548.30 0.8476925
548.40 0.8473945
548.50 0.8470967
548.60 0.846799
548.70 0.8465015
548.80 0.8462042
548.90 0.845907
549.00 0.84561
549.10 0.8453131
549.20 0.8450164
549.30 0.8447199
549.40 0.8444235
549.50 0.8441273
549.60 0.8438313
549.70 0.8435354
549.80 0.8432396
549.90 0.842944
550.00 0.8426486
550.10 0.8423534
550.20 0.8420583
550.30 0.8417633
550.40 0.8414685
550.50 0.8411739
550.60 0.8408794
550.70 0.8405851
550.80 0.840291
550.90 0.839997
551.00 0.8397031
551.10 0.8394093
551.20 0.8391157
551.30 0.8388222
551.40 0.8385289
551.50 0.8382358
551.60 0.8379428
551.70 0.8376499
551.80 0.8373572
551.90 0.8370647
552.00 0.8367723
552.10 0.8364801
552.20 0.8361881
552.30 0.8358962
552.40 0.8356044
552.50 0.8353128
552.60 0.8350214
552.70 0.8347301
552.80 0.834439
552.90 0.834148
553.00 0.8338572
553.10 0.8335666
553.20 0.8332761
553.30 0.8329857
553.40 0.8326955
553.50 0.8324055
553.60 0.8321156
553.70 0.8318259
553.80 0.8315299
553.90 0.8312296
554.00 0.8309296
554.10 0.8306297
554.20 0.83033
554.30 0.8300304
554.40 0.829731
554.50 0.8294317
554.60 0.8291327
554.70 0.8288337
554.80 0.828535
554.90 0.8282364
555.00 0.8279379
555.10 0.8276397
555.20 0.8273416
555.30 0.8270436
555.40 0.8267458
555.50 0.8264482
555.60 0.8261507
555.70 0.8258534
555.80 0.8255562
555.90 0.8252593
556.00 0.8249624
556.10 0.8246658
556.20 0.8243692
556.30 0.8240729
556.40 0.8237767
556.50 0.8234809
556.60 0.8231904
556.70 0.8229
556.80 0.8226097
556.90 0.8223196
557.00 0.8220296
557.10 0.8217399
557.20 0.8214502
557.30 0.8211607
557.40 0.8208714
557.50 0.8205822
557.60 0.8202932
557.70 0.8200043
557.80 0.8197156
557.90 0.8194271
558.00 0.8191387
558.10 0.8188504
558.20 0.8185623
558.30 0.8182744
558.40 0.8179866
558.50 0.817699
558.60 0.8174115
558.70 0.8171242
558.80 0.816837
558.90 0.81655
559.00 0.8162631
559.10 0.8159764
559.20 0.8156898
559.30 0.8154034
559.40 0.8151172
559.50 0.8148311
559.60 0.8145451
559.70 0.8142593
559.80 0.8139737
559.90 0.8136882
560.00 0.8134029
560.10 0.8131177
560.20 0.8128326
560.30 0.8125477
560.40 0.812263
560.50 0.8119784
560.60 0.811694
560.70 0.8114097
560.80 0.8111256
560.90 0.8108416
561.00 0.8105578
561.10 0.8102741
561.20 0.8099906
561.30 0.8097072
561.40 0.809424
561.50 0.8091409
561.60 0.808858
561.70 0.8085752
561.80 0.8082926
561.90 0.8080101
562.00 0.8077278
562.10 0.8074435
562.20 0.8071563
562.30 0.8068692
562.40 0.8065823
562.50 0.8062956
562.60 0.806009
562.70 0.8057225
562.80 0.8054362
562.90 0.8051501
563.00 0.8048641
563.10 0.8045782
563.20 0.8042925
563.30 0.804007
563.40 0.8037216
563.50 0.8034364
563.60 0.8031513
563.70 0.8028664
563.80 0.8025816
563.90 0.8022969
564.00 0.8020125
564.10 0.8017281
564.20 0.801444
564.30 0.8011599
564.40 0.8008761
564.50 0.8005924
564.60 0.8003088
564.70 0.8000254
564.80 0.7997421
564.90 0.799459
565.00 0.799176
565.10 0.7988932
565.20 0.7986105
565.30 0.798328
565.40 0.7980456
565.50 0.7977634
565.60 0.7974813
565.70 0.7971994
565.80 0.7969176
565.90 0.796636
566.00 0.7963546
566.10 0.7960732
566.20 0.7957921
566.30 0.795511
566.40 0.7952302
566.50 0.7949494
566.60 0.7946688
566.70 0.7943884
566.80 0.7941081
566.90 0.793828
567.00 0.793548
567.10 0.7932682
567.20 0.7929885
567.30 0.792709
567.40 0.7924296
567.50 0.7921503
567.60 0.7918712
567.70 0.7915923
567.80 0.7913135
567.90 0.7910348
568.00 0.7907563
568.10 0.7904779
568.20 0.7901997
568.30 0.7899217
568.40 0.7896437
568.50 0.789366
568.60 0.7890883
568.70 0.7888108
568.80 0.7885335
568.90 0.7882563
569.00 0.7879793
569.10 0.7877024
569.20 0.7874256
569.30 0.787149
569.40 0.7868726
569.50 0.7865963
569.60 0.7863201
569.70 0.7860441
569.80 0.7857682
569.90 0.7854925
570.00 0.7852169
570.10 0.7849414
570.20 0.7846661
570.30 0.784391
570.40 0.784116
570.50 0.7838411
570.60 0.7835664
570.70 0.7832918
570.80 0.7830174
570.90 0.7827431
571.00 0.782469
571.10 0.782195
571.20 0.7819211
571.30 0.7816474
571.40 0.7813738
571.50 0.7811004
571.60 0.7808271
571.70 0.780554
571.80 0.780281
571.90 0.7800081
572.00 0.7797354
572.10 0.7794629
572.20 0.7791905
572.30 0.7789182
572.40 0.778646
572.50 0.778374
572.60 0.7781022
572.70 0.7778305
572.80 0.7775589
572.90 0.7772875
573.00 0.7770162
573.10 0.7767451
573.20 0.7764741
573.30 0.7762032
573.40 0.7759297
573.50 0.7756526
573.60 0.7753755
573.70 0.7750986
573.80 0.7748219
573.90 0.7745453
574.00 0.7742689
574.10 0.7739926
574.20 0.7737164
574.30 0.7734404
574.40 0.7731645
574.50 0.7728888
574.60 0.7726132
574.70 0.7723378
574.80 0.7720625
574.90 0.7717873
575.00 0.7715123
575.10 0.7712375
575.20 0.7709628
575.30 0.7706882
575.40 0.7704138
575.50 0.7701395
575.60 0.7698654
575.70 0.7695914
575.80 0.7693176
575.90 0.7690439
576.00 0.7687703
576.10 0.7684969
576.20 0.7682236
576.30 0.7679505
576.40 0.7676775
576.50 0.7674047
576.60 0.767132
576.70 0.7668594
576.80 0.766587
576.90 0.7663147
577.00 0.7660426
577.10 0.7657706
577.20 0.7654988
577.30 0.7652271
577.40 0.7649555
577.50 0.7646841
577.60 0.7644085
577.70 0.764126
577.80 0.7638436
577.90 0.7635614
578.00 0.7632793
578.10 0.7629974
578.20 0.7627156
578.30 0.762434
578.40 0.7621525
578.50 0.7618712
578.60 0.76159
578.70 0.761309
578.80 0.7610281
578.90 0.7607474
579.00 0.7604668
579.10 0.760188
579.20 0.7599255
579.30 0.7596632
579.40 0.759401
579.50 0.7591389
579.60 0.758877
579.70 0.7586152
579.80 0.7583535
579.90 0.758092
580.00 0.7578306
580.10 0.7575693
580.20 0.7573082
580.30 0.7570472
580.40 0.7567864
580.50 0.7565257
580.60 0.7562651
580.70 0.7560047
580.80 0.7557443
580.90 0.7554842
581.00 0.7552241
581.10 0.7549642
581.20 0.7547044
581.30 0.7544448
581.40 0.7541853
581.50 0.7539259
581.60 0.7536667
581.70 0.7534076
581.80 0.7531486
581.90 0.7528898
582.00 0.7526311
582.10 0.7523657
582.20 0.7520893
582.30 0.751813
582.40 0.7515369
582.50 0.7512609
582.60 0.7509851
582.70 0.7507094
582.80 0.7504339
582.90 0.7501585
583.00 0.7498833
583.10 0.7496082
583.20 0.7493332
583.30 0.7490584
583.40 0.7487837
583.50 0.7485092
583.60 0.7482416
583.70 0.7479853
583.80 0.747729
583.90 0.7474729
584.00 0.747217
584.10 0.7469612
584.20 0.7467055
584.30 0.7464499
584.40 0.7461945
584.50 0.7459391
584.60 0.745684
584.70 0.7454289
584.80 0.745174
584.90 0.7449021
585.00 0.7445521
585.10 0.7442023
585.20 0.7438889
585.30 0.7436347
585.40 0.7433806
585.50 0.7431267
585.60 0.742873
585.70 0.7426193
585.80 0.7423658
585.90 0.7421124
586.00 0.7418591
586.10 0.741606
586.20 0.741353
586.30 0.7411001
586.40 0.7408474
586.50 0.7405948
586.60 0.7403423
586.70 0.74009
586.80 0.7398377
586.90 0.7395856
587.00 0.7393337
587.10 0.7390818
587.20 0.7387798
587.30 0.7383957
587.40 0.7380623
587.50 0.737811
587.60 0.7375599
587.70 0.7373089
587.80 0.7370581
587.90 0.7368074
588.00 0.7365568
588.10 0.7363063
588.20 0.736056
588.30 0.7358058
588.40 0.7355557
588.50 0.7353057
588.60 0.7350559
588.70 0.7348062
588.80 0.7345566
588.90 0.7343072
589.00 0.7340479
589.10 0.7337723
589.20 0.733497
589.30 0.7332217
589.40 0.7329466
589.50 0.7326717
589.60 0.7323969
589.70 0.7321223
589.80 0.7318478
589.90 0.7315734
590.00 0.7313091
590.10 0.7310613
590.20 0.7308136
590.30 0.730566
590.40 0.7303185
590.50 0.7300712
590.60 0.729824
590.70 0.7295769
590.80 0.7293082
590.90 0.7290299
591.00 0.7287517
591.10 0.7284737
591.20 0.7281958
591.30 0.7279181
591.40 0.7276405
591.50 0.7273631
591.60 0.7270977
591.70 0.726852
591.80 0.7266064
591.90 0.7263609
592.00 0.7261155
592.10 0.7258702
592.20 0.7256251
592.30 0.7253801
592.40 0.7251352
592.50 0.7248905
592.60 0.7246459
592.70 0.7244014
592.80 0.724157
592.90 0.7239127
593.00 0.7236686
593.10 0.7234197
593.20 0.7231628
593.30 0.7229061
593.40 0.7226494
593.50 0.722393
593.60 0.7221366
593.70 0.7218804
593.80 0.7216244
593.90 0.7213684
594.00 0.7211126
594.10 0.7208569
594.20 0.7206014
594.30 0.7203459
594.40 0.7200907
594.50 0.7198355
594.60 0.7195805
594.70 0.7193256
594.80 0.7190708
594.90 0.7188162
595.00 0.7185617
595.10 0.718306
595.20 0.7180483
595.30 0.7177907
595.40 0.7175332
595.50 0.7172759
595.60 0.7170187
595.70 0.7167617
595.80 0.7165048
595.90 0.716248
596.00 0.7159913
596.10 0.7157348
596.20 0.7154784
596.30 0.7152222
596.40 0.714966
596.50 0.7147101
596.60 0.7144542
596.70 0.7141913
596.80 0.7139242
596.90 0.7136573
597.00 0.7133905
597.10 0.7131238
597.20 0.7128573
597.30 0.7125909
597.40 0.7123247
597.50 0.7120585
597.60 0.7117975
597.70 0.7115446
597.80 0.7112919
597.90 0.7110392
598.00 0.7107868
598.10 0.7105344
598.20 0.7102822
598.30 0.7100301
598.40 0.7097781
598.50 0.7095263
598.60 0.7092745
598.70 0.709023
598.80 0.7087715
598.90 0.7085202
599.00 0.708269
599.10 0.7080179
599.20 0.707767
599.30 0.7075161
599.40 0.7072674
599.50 0.7070187
599.60 0.7067702
599.70 0.7065218
599.80 0.7062735
599.90 0.7060254
600.00 0.7057774
600.10 0.7055295
600.20 0.7052817
600.30 0.7050341
600.40 0.7047866
600.50 0.7045392
600.60 0.704292
600.70 0.7040448
600.80 0.7037978
600.90 0.7035509
601.00 0.7033042
601.10 0.7030576
601.20 0.702811
601.30 0.7025647
601.40 0.7023117
601.50 0.7020588
601.60 0.7018061
601.70 0.7015535
601.80 0.701301
601.90 0.7010487
602.00 0.7007965
602.10 0.7005444
602.20 0.7002925
602.30 0.7000406
602.40 0.699789
602.50 0.6995374
602.60 0.699286
602.70 0.699053
602.80 0.698821
602.90 0.6985578
603.00 0.6982947
603.10 0.6980318
603.20 0.697769
603.30 0.6975063
603.40 0.6972437
603.50 0.6969813
603.60 0.6967191
603.70 0.6964569
603.80 0.6961949
603.90 0.6959331
604.00 0.6956713
604.10 0.6954097
604.20 0.6951483
604.30 0.6948869
604.40 0.6946258
604.50 0.694396
604.60 0.6941663
604.70 0.6939367
604.80 0.6937072
604.90 0.6934779
605.00 0.6932487
605.10 0.6930196
605.20 0.6927906
605.30 0.6925617
605.40 0.6923329
605.50 0.6920627
605.60 0.6917926
605.70 0.6915227
605.80 0.6912529
605.90 0.6909833
606.00 0.6907138
606.10 0.6904859
606.20 0.6902581
606.30 0.6900304
606.40 0.6898029
606.50 0.6895754
606.60 0.6893481
606.70 0.6891208
606.80 0.6887697
606.90 0.6884187
607.00 0.6881918
607.10 0.6879651
607.20 0.6877386
607.30 0.6875121
607.40 0.6872857
607.50 0.6870595
607.60 0.6868333
607.70 0.6865661
607.80 0.686299
607.90 0.686032
608.00 0.6857651
608.10 0.6854984
608.20 0.6852318
608.30 0.6850066
608.40 0.6847814
608.50 0.6845564
608.60 0.6843314
608.70 0.6841066
608.80 0.6838819
608.90 0.6836573
609.00 0.6834328
609.10 0.6832084
609.20 0.6829841
609.30 0.6827291
609.40 0.6824743
609.50 0.6822197
609.60 0.6819651
609.70 0.6817107
609.80 0.6814564
609.90 0.6812023
610.00 0.6809483
610.10 0.6806944
610.20 0.6804406
610.30 0.680187
610.40 0.6799335
610.50 0.6796801
610.60 0.6794269
610.70 0.6791737
610.80 0.6789208
610.90 0.6786822
611.00 0.6784437
611.10 0.6782054
611.20 0.6779672
611.30 0.6777291
611.40 0.6774911
611.50 0.6772533
611.60 0.6770155
611.70 0.6767779
611.80 0.6765404
611.90 0.676303
612.00 0.6760658
612.10 0.6758286
612.20 0.6755916
612.30 0.6753547
612.40 0.6751098
612.50 0.674865
612.60 0.6746203
612.70 0.6743758
612.80 0.6741314
612.90 0.6738871
613.00 0.6736429
613.10 0.6733989
613.20 0.673155
613.30 0.6729112
613.40 0.6726675
613.50 0.672424
613.60 0.6721806
613.70 0.6719373
613.80 0.6716941
613.90 0.671451
614.00 0.6712081
614.10 0.6709653
614.20 0.6707226
614.30 0.67048
614.40 0.6702618
614.50 0.6700437
614.60 0.6698256
614.70 0.6696077
614.80 0.6693706
614.90 0.6691297
615.00 0.6688889
615.10 0.6686483
615.20 0.6684077
615.30 0.6681673
615.40 0.667927
615.50 0.6676869
615.60 0.6674468
615.70 0.6672069
615.80 0.6669671
615.90 0.6667274
616.00 0.6664878
616.10 0.6662483
616.20 0.666009
616.30 0.6657698
616.40 0.6655307
616.50 0.6652917
616.60 0.6650529
616.70 0.6648141
616.80 0.6645755
616.90 0.6643365
617.00 0.6640975
617.10 0.6638587
617.20 0.66362
617.30 0.6633814
617.40 0.6631429
617.50 0.6629045
617.60 0.6626663
617.70 0.6624282
617.80 0.6621902
617.90 0.6619523
618.00 0.6617146
618.10 0.6614769
618.20 0.6612394
618.30 0.661002
618.40 0.6607648
618.50 0.6605276
618.60 0.6602906
618.70 0.6600536
618.80 0.6598168
618.90 0.6595801
619.00 0.6593436
619.10 0.6591071
619.20 0.6588708
619.30 0.6586346
619.40 0.6583985
619.50 0.6581625
619.60 0.6579267
619.70 0.6576909
619.80 0.6574553
619.90 0.6572198
620.00 0.6569844
620.10 0.6567491
620.20 0.656514
620.30 0.656279
620.40 0.656044
620.50 0.6558093
620.60 0.6555746
620.70 0.65534
620.80 0.6551056
620.90 0.65487
621.00 0.6546324
621.10 0.6543949
621.20 0.6541576
621.30 0.6539203
621.40 0.6536832
621.50 0.6534462
621.60 0.6532093
621.70 0.6529725
621.80 0.6527359
621.90 0.6524993
622.00 0.6522629
622.10 0.6520266
622.20 0.6517904
622.30 0.6515544
622.40 0.6513184
622.50 0.6510826
622.60 0.6508469
622.70 0.6506113
622.80 0.6503758
622.90 0.6501405
623.00 0.6499052
623.10 0.6496701
623.20 0.6494351
623.30 0.6492002
623.40 0.6489654
623.50 0.6487308
623.60 0.6484963
623.70 0.6482618
623.80 0.6480275
623.90 0.6477934
624.00 0.6475593
624.10 0.6473254
624.20 0.6470915
624.30 0.6468578
624.40 0.6466242
624.50 0.6463907
624.60 0.6461574
624.70 0.6459241
624.80 0.645691
624.90 0.645458
625.00 0.6452251
625.10 0.6449923
625.20 0.6447596
625.30 0.644527
625.40 0.6442946
625.50 0.6440623
625.60 0.6438301
625.70 0.643598
625.80 0.643366
625.90 0.6431341
626.00 0.6429024
626.10 0.6426708
626.20 0.6424393
626.30 0.6422079
626.40 0.6419766
626.50 0.6417454
626.60 0.6415143
626.70 0.6412834
626.80 0.6410526
626.90 0.6408219
627.00 0.6405913
627.10 0.6403619
627.20 0.6401354
627.30 0.6399092
627.40 0.639683
627.50 0.6394569
627.60 0.6392309
627.70 0.6390051
627.80 0.6387793
627.90 0.6385537
628.00 0.6383282
628.10 0.6381028
628.20 0.6378775
628.30 0.6376523
628.40 0.6374272
628.50 0.6372023
628.60 0.6369774
628.70 0.6367527
628.80 0.6365281
628.90 0.6363036
629.00 0.6360791
629.10 0.6358548
629.20 0.6356307
629.30 0.6354066
629.40 0.6351826
629.50 0.6349588
629.60 0.634735
629.70 0.6345114
629.80 0.6342879
629.90 0.6340644
630.00 0.6338411
630.10 0.6336179
630.20 0.6333949
630.30 0.6331651
630.40 0.632935
630.50 0.6327049
630.60 0.6324749
630.70 0.6322451
630.80 0.6320153
630.90 0.6317857
631.00 0.6315562
631.10 0.6313268
631.20 0.6310976
631.30 0.6308684
631.40 0.6306393
631.50 0.6304104
631.60 0.6301816
631.70 0.6299529
631.80 0.6297243
631.90 0.6294958
632.00 0.6292674
632.10 0.6290392
632.20 0.628811
632.30 0.628583
632.40 0.6283551
632.50 0.6281273
632.60 0.6278996
632.70 0.627672
632.80 0.6274445
632.90 0.6272171
633.00 0.6269899
633.10 0.6267628
633.20 0.6265358
633.30 0.6263088
633.40 0.6260862
633.50 0.625867
633.60 0.6256479
633.70 0.6254289
633.80 0.62521
633.90 0.6249912
634.00 0.6247725
634.10 0.624554
634.20 0.6243355
634.30 0.6241171
634.40 0.6238989
634.50 0.6236807
634.60 0.6234627
634.70 0.6232447
634.80 0.6230269
634.90 0.6228092
635.00 0.6225916
635.10 0.6223741
635.20 0.6221566
635.30 0.6219393
635.40 0.6217222
635.50 0.6215051
635.60 0.6212881
635.70 0.6210712
635.80 0.6208544
635.90 0.6206378
636.00 0.6204212
636.10 0.6202048
636.20 0.6199884
636.30 0.6197722
636.40 0.619556
636.50 0.61934
636.60 0.6191177
636.70 0.6188947
636.80 0.6186719
636.90 0.6184492
637.00 0.6182266
637.10 0.6180041
637.20 0.6177817
637.30 0.6175595
637.40 0.6173373
637.50 0.6171152
637.60 0.6168933
637.70 0.6166714
637.80 0.6164497
637.90 0.6162281
638.00 0.6160066
638.10 0.6157852
638.20 0.6155639
638.30 0.6153427
638.40 0.6151216
638.50 0.6149007
638.60 0.6146798
638.70 0.614459
638.80 0.6142384
638.90 0.6140179
639.00 0.6137974
639.10 0.6135771
639.20 0.6133569
639.30 0.6131368
639.40 0.6129168
639.50 0.6126969
639.60 0.6124771
639.70 0.6122575
639.80 0.6120382
639.90 0.611819
640.00 0.6116
640.10 0.611381
640.20 0.6111621
640.30 0.6109434
640.40 0.6107247
640.50 0.6105062
640.60 0.6102878
640.70 0.6100694
640.80 0.6098512
640.90 0.6096331
641.00 0.6094151
641.10 0.6091972
641.20 0.6089794
641.30 0.6087617
641.40 0.6085441
641.50 0.6083267
641.60 0.6081093
641.70 0.607892
641.80 0.6076749
641.90 0.6074578
642.00 0.6072409
642.10 0.6070241
642.20 0.6068073
642.30 0.6065907
642.40 0.6063742
642.50 0.6061578
642.60 0.6059414
642.70 0.6057252
642.80 0.6055091
642.90 0.6052931
643.00 0.6050772
643.10 0.6048614
643.20 0.6046457
643.30 0.6044302
643.40 0.6042147
643.50 0.6039993
643.60 0.603784
643.70 0.6035689
643.80 0.6033538
643.90 0.6031389
644.00 0.602924
644.10 0.6027092
644.20 0.6024946
644.30 0.6022801
644.40 0.6020656
644.50 0.6018513
644.60 0.6016371
644.70 0.6014229
644.80 0.6012089
644.90 0.600995
645.00 0.6007812
645.10 0.6005675
645.20 0.6003539
645.30 0.6001404
645.40 0.599927
645.50 0.5997137
645.60 0.5995005
645.70 0.5992874
645.80 0.5990744
645.90 0.5988615
646.00 0.5986488
646.10 0.5984344
646.20 0.5982153
646.30 0.5979964
646.40 0.5977775
646.50 0.5975587
646.60 0.5973401
646.70 0.5971216
646.80 0.5969031
646.90 0.5966848
647.00 0.5964666
647.10 0.5962484
647.20 0.5960304
647.30 0.5958125
647.40 0.5955947
647.50 0.595377
647.60 0.5951595
647.70 0.594942
647.80 0.5947246
647.90 0.5945073
648.00 0.5942902
648.10 0.5940731
648.20 0.5938562
648.30 0.5936393
648.40 0.5934226
648.50 0.593206
648.60 0.5929894
648.70 0.592773
648.80 0.5925567
648.90 0.5923405
649.00 0.5921244
649.10 0.5919084
649.20 0.5916925
649.30 0.5914767
649.40 0.5912674
649.50 0.5910586
649.60 0.5908498
649.70 0.5906411
649.80 0.5904326
649.90 0.5902241
650.00 0.5900157
650.10 0.5898075
650.20 0.5895993
650.30 0.5893912
650.40 0.5891833
650.50 0.5889754
650.60 0.5887676
650.70 0.58856
650.80 0.5883524
650.90 0.5881449
651.00 0.5879376
651.10 0.5877303
651.20 0.5875231
651.30 0.5873161
651.40 0.5871091
651.50 0.5869022
651.60 0.5866954
651.70 0.5864888
651.80 0.5862822
651.90 0.5860757
652.00 0.5858693
652.10 0.5856631
652.20 0.5854569
652.30 0.5852508
652.40 0.5850448
652.50 0.584839
652.60 0.5846284
652.70 0.5844154
652.80 0.5842025
652.90 0.5839897
653.00 0.583777
653.10 0.5835644
653.20 0.5833519
653.30 0.5831395
653.40 0.5829272
653.50 0.582715
653.60 0.5825029
653.70 0.5822909
653.80 0.5820791
653.90 0.5818673
654.00 0.5816556
654.10 0.581444
654.20 0.5812326
654.30 0.5810212
654.40 0.5808099
654.50 0.5805988
654.60 0.5803877
654.70 0.5801767
654.80 0.5799659
654.90 0.5797551
655.00 0.5795444
655.10 0.5793339
655.20 0.5791234
655.30 0.5789131
655.40 0.5787028
655.50 0.5784927
655.60 0.5782826
655.70 0.5780727
655.80 0.5778752
655.90 0.5776777
656.00 0.5774804
656.10 0.5772831
656.20 0.577086
656.30 0.5768889
656.40 0.576692
656.50 0.5764951
656.60 0.5762983
656.70 0.5761016
656.80 0.575905
656.90 0.5757085
657.00 0.5755121
657.10 0.5753158
657.20 0.5751196
657.30 0.5749234
657.40 0.5747274
657.50 0.5745315
657.60 0.5743356
657.70 0.5741398
657.80 0.5737817
657.90 0.5735653
658.00 0.573374
658.10 0.5731828
658.20 0.5729917
658.30 0.5728007
658.40 0.5726098
658.50 0.572419
658.60 0.5722283
658.70 0.5720376
658.80 0.5718471
658.90 0.5716566
659.00 0.5714662
659.10 0.5712226
659.20 0.5708991
659.30 0.5707071
659.40 0.5705151
659.50 0.5703233
659.60 0.5701315
659.70 0.5699399
659.80 0.5697483
659.90 0.5695568
660.00 0.5693654
660.10 0.5691741
660.20 0.5689829
660.30 0.5687918
660.40 0.56858
660.50 0.5683647
660.60 0.5681494
660.70 0.5679343
660.80 0.5677193
660.90 0.5675266
661.00 0.567334
661.10 0.5671414
661.20 0.566949
661.30 0.5667566
661.40 0.5665644
661.50 0.5663722
661.60 0.5661801
661.70 0.5659882
661.80 0.5657963
661.90 0.5655848
662.00 0.5653735
662.10 0.5651622
662.20 0.5649511
662.30 0.5647401
662.40 0.5645635
662.50 0.564341
662.60 0.5641187
662.70 0.5638964
662.80 0.5636743
662.90 0.5635042
663.00 0.5633342
663.10 0.5631643
663.20 0.5628907
663.30 0.5626171
663.40 0.5624475
663.50 0.562278
663.60 0.5621085
663.70 0.5619391
663.80 0.5617698
663.90 0.5615054
664.00 0.5612242
664.10 0.5610207
664.20 0.5608173
664.30 0.5606139
664.40 0.5604107
664.50 0.5602075
664.60 0.5600045
664.70 0.5598106
664.80 0.5596168
664.90 0.5594232
665.00 0.5592296
665.10 0.5590361
665.20 0.5588427
665.30 0.5586494
665.40 0.5584561
665.50 0.5582845
665.60 0.5581168
665.70 0.5579359
665.80 0.5577413
665.90 0.5575469
666.00 0.5573525
666.10 0.5571582
666.20 0.556964
666.30 0.5567699
666.40 0.5565759
666.50 0.5563757
666.60 0.5561745
666.70 0.5559734
666.80 0.5557724
666.90 0.5555715
667.00 0.5553707
667.10 0.5551047
667.20 0.5548274
667.30 0.5546611
667.40 0.5544949
667.50 0.5543288
667.60 0.5541627
667.70 0.5539967
667.80 0.5537668
667.90 0.5534602
668.00 0.5532945
668.10 0.5531289
668.20 0.5529633
668.30 0.5527544
668.40 0.5525379
668.50 0.5523214
668.60 0.5521051
668.70 0.5519324
668.80 0.5517276
668.90 0.551523
669.00 0.5513185
669.10 0.5511141
669.20 0.5509098
669.30 0.5507219
669.40 0.550537
669.50 0.5503522
669.60 0.5501674
669.70 0.5499827
669.80 0.5497982
669.90 0.5496137
670.00 0.5494293
670.10 0.5492449
670.20 0.5490607
670.30 0.5488582
670.40 0.5486526
670.50 0.548447
670.60 0.5482416
670.70 0.5480362
670.80 0.5478364
670.90 0.5476367
671.00 0.5474371
671.10 0.5472375
671.20 0.5470381
671.30 0.5468388
671.40 0.5466395
671.50 0.5464404
671.60 0.5462413
671.70 0.5460424
671.80 0.5458435
671.90 0.5456756
672.00 0.5455132
672.10 0.5453509
672.20 0.5451886
672.30 0.5450265
672.40 0.5448223
672.50 0.544615
672.60 0.5444078
672.70 0.5442008
672.80 0.5439938
672.90 0.5437869
673.00 0.5435801
673.10 0.5433735
673.20 0.5431669
673.30 0.5430056
673.40 0.5428186
673.50 0.5426272
673.60 0.5424359
673.70 0.5422447
673.80 0.5420536
673.90 0.5418625
674.00 0.5416716
674.10 0.5414807
674.20 0.5412899
674.30 0.5410993
674.40 0.5409087
674.50 0.5407182
674.60 0.5405277
674.70 0.5403374
674.80 0.5401472
674.90 0.539957
675.00 0.539767
675.10 0.539577
675.20 0.5393871
675.30 0.5391973
675.40 0.5390059
675.50 0.5388143
675.60 0.5386228
675.70 0.5384314
675.80 0.53824
675.90 0.5380488
676.00 0.5378576
676.10 0.5376665
676.20 0.5374755
676.30 0.5372846
676.40 0.5370938
676.50 0.5369031
676.60 0.5367125
676.70 0.5365219
676.80 0.5363315
676.90 0.5361411
677.00 0.5359508
677.10 0.5357607
677.20 0.5355706
677.30 0.5353806
677.40 0.5351906
677.50 0.5350008
677.60 0.5348111
677.70 0.5346214
677.80 0.5344318
677.90 0.5342416
678.00 0.5340513
678.10 0.5338611
678.20 0.533671
678.30 0.5334809
678.40 0.533291
678.50 0.5331011
678.60 0.5329113
678.70 0.5327217
678.80 0.5325321
678.90 0.5323426
679.00 0.5321532
679.10 0.5319622
679.20 0.5317705
679.30 0.531579
679.40 0.5313875
679.50 0.5311961
679.60 0.5310049
679.70 0.5308137
679.80 0.5306226
679.90 0.5304316
680.00 0.5302406
680.10 0.5300498
680.20 0.5298591
680.30 0.5296684
680.40 0.5294778
680.50 0.5292874
680.60 0.529097
680.70 0.5289067
680.80 0.5287165
680.90 0.5285264
681.00 0.5283363
681.10 0.5281464
681.20 0.5279565
681.30 0.5277668
681.40 0.5275771
681.50 0.5273875
681.60 0.527198
681.70 0.5270086
681.80 0.5268193
681.90 0.52663
682.00 0.5264409
682.10 0.5262518
682.20 0.5260629
682.30 0.525874
682.40 0.5256852
682.50 0.5254965
682.60 0.5253079
682.70 0.5251194
682.80 0.5249309
682.90 0.5247426
683.00 0.5245543
683.10 0.5243661
683.20 0.524178
683.30 0.52399
683.40 0.5238021
683.50 0.5236143
683.60 0.5234266
683.70 0.5232389
683.80 0.5230513
683.90 0.5228639
684.00 0.5226765
684.10 0.5224892
684.20 0.522302
684.30 0.5221148
684.40 0.5219278
684.50 0.5217408
684.60 0.521554
684.70 0.5213672
684.80 0.5211805
684.90 0.5209939
685.00 0.5208074
685.10 0.5206209
685.20 0.5204346
685.30 0.5202483
685.40 0.5200622
685.50 0.5198761
685.60 0.5196901
685.70 0.5195042
685.80 0.5193183
685.90 0.5191351
686.00 0.5189527
686.10 0.5187703
686.20 0.5185879
686.30 0.5184057
686.40 0.5182236
686.50 0.5180415
686.60 0.5178595
686.70 0.5176777
686.80 0.5174959
686.90 0.5173141
687.00 0.5171325
687.10 0.5169509
687.20 0.5167695
687.30 0.5165881
687.40 0.5164068
687.50 0.5162256
687.60 0.5160444
687.70 0.5158634
687.80 0.5156824
687.90 0.5155015
688.00 0.5153207
688.10 0.51514
688.20 0.5149594
688.30 0.5147788
688.40 0.5145983
688.50 0.5144179
688.60 0.5142376
688.70 0.5140574
688.80 0.5138773
688.90 0.5136972
689.00 0.5135173
689.10 0.5133374
689.20 0.5131576
689.30 0.5129778
689.40 0.5127982
689.50 0.5126186
689.60 0.5124392
689.70 0.5122598
689.80 0.5120805
689.90 0.5119012
690.00 0.5117221
690.10 0.511543
690.20 0.511364
690.30 0.5111851
690.40 0.5110063
690.50 0.5108276
690.60 0.5106489
690.70 0.5104704
690.80 0.5102919
690.90 0.5101135
691.00 0.5099351
691.10 0.5097569
691.20 0.5095787
691.30 0.5094007
691.40 0.5092227
691.50 0.5090448
691.60 0.5088669
691.70 0.5086892
691.80 0.5085115
691.90 0.5083339
692.00 0.5081564
692.10 0.507979
692.20 0.5078016
692.30 0.5076244
692.40 0.5074472
692.50 0.5072701
692.60 0.5070931
692.70 0.5069152
692.80 0.5067342
692.90 0.5065533
693.00 0.5063724
693.10 0.5061916
693.20 0.5060109
693.30 0.5058303
693.40 0.5056498
693.50 0.5054693
693.60 0.505289
693.70 0.5051087
693.80 0.5049285
693.90 0.5047484
694.00 0.5045683
694.10 0.5043884
694.20 0.5042085
694.30 0.5040287
694.40 0.503849
694.50 0.5036694
694.60 0.5034899
694.70 0.5033104
694.80 0.503131
694.90 0.5029517
695.00 0.5027725
695.10 0.5025934
695.20 0.5024144
695.30 0.5022354
695.40 0.5020565
695.50 0.5018777
695.60 0.501699
695.70 0.5015204
695.80 0.5013418
695.90 0.5011634
696.00 0.500985
696.10 0.5008067
696.20 0.5006284
696.30 0.5004503
696.40 0.5002722
696.50 0.5000943
696.60 0.4999198
696.70 0.4997461
696.80 0.4995726
696.90 0.4993991
697.00 0.4992258
697.10 0.4990524
697.20 0.4988792
697.30 0.4987061
697.40 0.498533
697.50 0.49836
697.60 0.4981871
697.70 0.4980143
697.80 0.4978415
697.90 0.4976688
698.00 0.4974963
698.10 0.4973237
698.20 0.4971513
698.30 0.4969789
698.40 0.4968067
698.50 0.4966344
698.60 0.4964623
698.70 0.4962903
698.80 0.4961183
698.90 0.4959464
699.00 0.4957746
699.10 0.4956013
699.20 0.4954276
699.30 0.495254
699.40 0.4950805
699.50 0.4949071
699.60 0.4947338
699.70 0.4945532
699.80 0.4943723
699.90 0.4941914
700.00 0.4940107
700.10 0.49383
700.20 0.4936494
700.30 0.4934689
700.40 0.4932885
700.50 0.4931082
700.60 0.4929279
700.70 0.4927478
700.80 0.4925677
700.90 0.4923877
701.00 0.4922077
701.10 0.4920297
701.20 0.4918522
701.30 0.4916748
701.40 0.4914975
701.50 0.4913202
701.60 0.4911431
701.70 0.490966
701.80 0.4907889
701.90 0.490612
702.00 0.4904352
702.10 0.4902584
702.20 0.4900817
702.30 0.4899051
702.40 0.4897286
702.50 0.4895521
702.60 0.4893776
702.70 0.4892037
702.80 0.4890298
702.90 0.488856
703.00 0.4886822
703.10 0.4885086
703.20 0.488335
703.30 0.4881615
703.40 0.4879881
703.50 0.4878148
703.60 0.4876415
703.70 0.4874683
703.80 0.4872952
703.90 0.4871222
704.00 0.4869492
704.10 0.4867764
704.20 0.4866166
704.30 0.48646
704.40 0.4863035
704.50 0.4861471
704.60 0.4859907
704.70 0.4858344
704.80 0.4856781
704.90 0.4855219
705.00 0.4853658
705.10 0.4852098
705.20 0.4850439
705.30 0.4848757
705.40 0.4847077
705.50 0.4845397
705.60 0.4843717
705.70 0.4842039
705.80 0.4840237
705.90 0.4838408
706.00 0.4836579
706.10 0.4834751
706.20 0.4832553
706.30 0.4830269
706.40 0.4828727
706.50 0.482736
706.60 0.4825994
706.70 0.4824628
706.80 0.4822522
706.90 0.4820244
707.00 0.4818707
707.10 0.4817344
707.20 0.4815982
707.30 0.481462
707.40 0.4813012
707.50 0.4811348
707.60 0.4809684
707.70 0.480802
707.80 0.4806358
707.90 0.4804696
708.00 0.4802986
708.10 0.4801265
708.20 0.4799545
708.30 0.4797825
708.40 0.4796107
708.50 0.4794389
708.60 0.4792672
708.70 0.4790956
708.80 0.478924
708.90 0.4787525
709.00 0.478583
709.10 0.4784139
709.20 0.478245
709.30 0.4780761
709.40 0.4779073
709.50 0.4777385
709.60 0.4775698
709.70 0.4774013
709.80 0.4772327
709.90 0.4770643
710.00 0.4768959
710.10 0.4767277
710.20 0.4765595
710.30 0.4763913
710.40 0.4762233
710.50 0.4760553
710.60 0.4758855
710.70 0.4757154
710.80 0.4755454
710.90 0.4753755
711.00 0.4752056
711.10 0.4750358
711.20 0.4748661
711.30 0.4746965
711.40 0.474527
711.50 0.4743575
711.60 0.4741881
711.70 0.4740187
711.80 0.4738495
711.90 0.4736803
712.00 0.4735112
712.10 0.4733448
712.20 0.4731791
712.30 0.4730135
712.40 0.4728479
712.50 0.4726824
712.60 0.472517
712.70 0.4723517
712.80 0.4721864
712.90 0.4720212
713.00 0.4718561
713.10 0.4716911
713.20 0.4715261
713.30 0.4713612
713.40 0.4711964
713.50 0.4710317
713.60 0.470867
713.70 0.4706964
713.80 0.4705135
713.90 0.4703308
714.00 0.4701481
714.10 0.4699836
714.20 0.4698233
714.30 0.4696631
714.40 0.469503
714.50 0.4693429
714.60 0.469183
714.70 0.4690231
714.80 0.4688632
714.90 0.4687035
715.00 0.4685438
715.10 0.4683841
715.20 0.4682246
715.30 0.4680651
715.40 0.4679057
715.50 0.4677464
715.60 0.4675871
715.70 0.4674279
715.80 0.4672688
715.90 0.4671097
716.00 0.4669507
716.10 0.4667918
716.20 0.466633
716.30 0.4664742
716.40 0.4663155
716.50 0.4661568
716.60 0.4659946
716.70 0.4658315
716.80 0.4656686
716.90 0.4655056
717.00 0.4653428
717.10 0.46518
717.20 0.4650174
717.30 0.4648547
717.40 0.4646922
717.50 0.4645297
717.60 0.4643673
717.70 0.464205
717.80 0.4640427
717.90 0.4638806
718.00 0.4637184
718.10 0.4635564
718.20 0.4633928
718.30 0.4632284
718.40 0.463064
718.50 0.4628997
718.60 0.4627355
718.70 0.4625713
718.80 0.4624073
718.90 0.4622433
719.00 0.4620794
719.10 0.4619155
719.20 0.4617517
719.30 0.461588
719.40 0.4614244
719.50 0.4612609
719.60 0.4610974
719.70 0.460934
719.80 0.4607706
719.90 0.4606074
720.00 0.4604442
720.10 0.4602811
720.20 0.460118
720.30 0.459955
720.40 0.4597921
720.50 0.4596293
720.60 0.4594666
720.70 0.4592591
720.80 0.4590276
720.90 0.4588685
721.00 0.4587124
721.10 0.4585564
721.20 0.4584004
721.30 0.4582446
721.40 0.4580888
721.50 0.457933
721.60 0.4577774
721.70 0.4576218
721.80 0.4574662
721.90 0.4573108
722.00 0.4571554
722.10 0.4570001
722.20 0.4568448
722.30 0.4566896
722.40 0.4565345
722.50 0.4563795
722.60 0.4562245
722.70 0.4560655
722.80 0.4559043
722.90 0.4557432
723.00 0.4555822
723.10 0.4554212
723.20 0.4552603
723.30 0.4550995
723.40 0.4549388
723.50 0.4547781
723.60 0.4546175
723.70 0.454457
723.80 0.4542966
723.90 0.4541362
724.00 0.4539759
724.10 0.4538157
724.20 0.4536569
724.30 0.453499
724.40 0.4533411
724.50 0.4531834
724.60 0.4530257
724.70 0.452868
724.80 0.4527105
724.90 0.452553
725.00 0.4523955
725.10 0.4522382
725.20 0.4520809
725.30 0.4519237
725.40 0.4517665
725.50 0.4516094
725.60 0.4514524
725.70 0.4512955
725.80 0.4511372
725.90 0.4509782
726.00 0.4508193
726.10 0.4506605
726.20 0.4505017
726.30 0.450343
726.40 0.4501844
726.50 0.4500259
726.60 0.4498674
726.70 0.449709
726.80 0.4495544
726.90 0.4494019
727.00 0.4492495
727.10 0.4490971
727.20 0.4489448
727.30 0.4487925
727.40 0.448631
727.50 0.4484645
727.60 0.4482981
727.70 0.4481318
727.80 0.4479936
727.90 0.4478705
728.00 0.4477474
728.10 0.4474521
728.20 0.4473292
728.30 0.4472064
728.40 0.4470836
728.50 0.4469609
728.60 0.4468102
728.70 0.4466446
728.80 0.446479
728.90 0.4463135
729.00 0.4461574
729.10 0.4460064
729.20 0.4458554
729.30 0.4457045
729.40 0.4455537
729.50 0.4454029
729.60 0.4452485
729.70 0.4450922
729.80 0.4449359
729.90 0.4447797
730.00 0.4446235
730.10 0.4444675
730.20 0.4443114
730.30 0.4441555
730.40 0.4439996
730.50 0.4438438
730.60 0.4436895
730.70 0.443536
730.80 0.4433825
730.90 0.4432291
731.00 0.4430758
731.10 0.4429226
731.20 0.4427694
731.30 0.4426163
731.40 0.4424632
731.50 0.4423102
731.60 0.4421573
731.70 0.4420045
731.80 0.4418517
731.90 0.441699
732.00 0.4415463
732.10 0.4413937
732.20 0.4412398
732.30 0.4410853
732.40 0.4409307
732.50 0.4407763
732.60 0.4406219
732.70 0.4404676
732.80 0.4403134
732.90 0.4401592
733.00 0.4400051
733.10 0.4398511
733.20 0.4396971
733.30 0.4395432
733.40 0.4393894
733.50 0.4392356
733.60 0.4390819
733.70 0.4389237
733.80 0.4387631
733.90 0.4386026
734.00 0.4384422
734.10 0.4382818
734.20 0.4381215
734.30 0.4379613
734.40 0.4378011
734.50 0.437641
734.60 0.437481
734.70 0.437321
734.80 0.4371612
734.90 0.4370014
735.00 0.4368416
735.10 0.436682
735.20 0.4365224
735.30 0.4363661
735.40 0.4362475
735.50 0.4361288
735.60 0.4360103
735.70 0.4358698
735.80 0.4357176
735.90 0.4355654
736.00 0.4354133
736.10 0.4352613
736.20 0.4351094
736.30 0.4349575
736.40 0.4348056
736.50 0.4346539
736.60 0.4345022
736.70 0.4343506
736.80 0.434199
736.90 0.4340475
737.00 0.4338961
737.10 0.4337447
737.20 0.4335934
737.30 0.4334422
737.40 0.4332911
737.50 0.43314
737.60 0.4329889
737.70 0.432838
737.80 0.4326871
737.90 0.4325363
738.00 0.4323855
738.10 0.4322348
738.20 0.4320842
738.30 0.4319337
738.40 0.4317833
738.50 0.4316329
738.60 0.4314826
738.70 0.4313324
738.80 0.4311822
738.90 0.4310321
739.00 0.4308821
739.10 0.4307321
739.20 0.4305822
739.30 0.4304324
739.40 0.4302826
739.50 0.4301329
739.60 0.4299833
739.70 0.4298337
739.80 0.4296842
739.90 0.4295347
740.00 0.4293854
740.10 0.429236
740.20 0.4290868
740.30 0.4289376
740.40 0.4287885
740.50 0.4286394
740.60 0.4284904
740.70 0.4283415
740.80 0.4281926
740.90 0.4280438
741.00 0.4278951
741.10 0.4277464
741.20 0.4275978
741.30 0.4274493
741.40 0.4273008
741.50 0.4271524
741.60 0.4270041
741.70 0.4268558
741.80 0.4267076
741.90 0.4265594
742.00 0.4264113
742.10 0.4262633
742.20 0.4261154
742.30 0.4259675
742.40 0.4258196
742.50 0.4256719
742.60 0.4255242
742.70 0.4253771
742.80 0.4252306
742.90 0.4250841
743.00 0.4249377
743.10 0.4247914
743.20 0.4246451
743.30 0.4244989
743.40 0.4243527
743.50 0.4242067
743.60 0.4240606
743.70 0.4239144
743.80 0.4237668
743.90 0.4236193
744.00 0.4234718
744.10 0.4233245
744.20 0.4231771
744.30 0.4230299
744.40 0.4228827
744.50 0.4227356
744.60 0.4225885
744.70 0.4224415
744.80 0.4222946
744.90 0.4221477
745.00 0.4220009
745.10 0.4218542
745.20 0.4217075
745.30 0.4215609
745.40 0.4214144
745.50 0.4212679
745.60 0.4211215
745.70 0.4209751
745.80 0.4208288
745.90 0.4206826
746.00 0.4205364
746.10 0.4203903
746.20 0.4202443
746.30 0.4200983
746.40 0.4199524
746.50 0.4198065
746.60 0.4196607
746.70 0.419515
746.80 0.4193693
746.90 0.4192237
747.00 0.4190782
747.10 0.4189327
747.20 0.4187873
747.30 0.4186419
747.40 0.4184967
747.50 0.4183514
747.60 0.4182063
747.70 0.4180612
747.80 0.4179161
747.90 0.4177712
748.00 0.4176263
748.10 0.4174814
748.20 0.4173366
748.30 0.4171919
748.40 0.4170472
748.50 0.4169026
748.60 0.4167581
748.70 0.4166136
748.80 0.4164692
748.90 0.4163249
749.00 0.4161806
749.10 0.4160364
749.20 0.4158922
749.30 0.4157481
749.40 0.4156041
749.50 0.4154601
749.60 0.4153162
749.70 0.4151723
749.80 0.4150285
749.90 0.4148848
750.00 0.4147411
750.10 0.4145971
750.20 0.4144519
750.30 0.4143068
750.40 0.4141618
750.50 0.4140168
750.60 0.4138719
750.70 0.4137271
750.80 0.4135823
750.90 0.4134376
751.00 0.4132929
751.10 0.4131483
751.20 0.4130038
751.30 0.4128593
751.40 0.4127149
751.50 0.4125705
751.60 0.4124263
751.70 0.412282
751.80 0.4121379
751.90 0.4119938
752.00 0.4118497
752.10 0.4117058
752.20 0.4115619
752.30 0.411418
752.40 0.4112742
752.50 0.4111305
752.60 0.4109868
752.70 0.4108432
752.80 0.4106997
752.90 0.4105562
753.00 0.4104128
753.10 0.4102694
753.20 0.4101261
753.30 0.4099829
753.40 0.4098397
753.50 0.4096966
753.60 0.4095536
753.70 0.4094106
753.80 0.4092677
753.90 0.4091248
754.00 0.408982
754.10 0.4088393
754.20 0.4086966
754.30 0.408554
754.40 0.4084114
754.50 0.4082689
754.60 0.4081265
754.70 0.4079841
754.80 0.4078418
754.90 0.4076996
755.00 0.4075574
755.10 0.4074152
755.20 0.4072732
755.30 0.4071312
755.40 0.4069892
755.50 0.4068473
755.60 0.4067055
755.70 0.4065637
755.80 0.406422
755.90 0.4062804
756.00 0.4061388
756.10 0.4059973
756.20 0.4058558
756.30 0.4057144
756.40 0.4055731
756.50 0.4054318
756.60 0.4052906
756.70 0.4051494
756.80 0.4050083
756.90 0.4048673
757.00 0.4047263
757.10 0.4045854
757.20 0.4044446
757.30 0.4043038
757.40 0.404163
757.50 0.4040224
757.60 0.403883
757.70 0.403747
757.80 0.4036111
757.90 0.4034752
758.00 0.4033393
758.10 0.4032035
758.20 0.4030678
758.30 0.4029321
758.40 0.4027965
758.50 0.402661
758.60 0.4025255
758.70 0.4023901
758.80 0.4022547
758.90 0.4021194
759.00 0.4019841
759.10 0.4018489
759.20 0.4017137
759.30 0.4015786
759.40 0.4014436
759.50 0.4013086
759.60 0.4011737
759.70 0.4010388
759.80 0.400904
759.90 0.4007693
760.00 0.4006346
760.10 0.4005
760.20 0.4003654
760.30 0.4002309
760.40 0.4000964
760.50 0.399962
760.60 0.3998276
760.70 0.3996933
760.80 0.3995591
760.90 0.3994249
761.00 0.3992908
761.10 0.3991567
761.20 0.3990227
761.30 0.3988888
761.40 0.3987532
761.50 0.3986152
761.60 0.3984773
761.70 0.3983394
761.80 0.3982016
761.90 0.3980638
762.00 0.3979261
762.10 0.3977884
762.20 0.3976509
762.30 0.3975133
762.40 0.3973758
762.50 0.3972384
762.60 0.3971011
762.70 0.3969638
762.80 0.3968265
762.90 0.3966894
763.00 0.3965522
763.10 0.3964152
763.20 0.3962782
763.30 0.3961412
763.40 0.3960043
763.50 0.3958675
763.60 0.3957307
763.70 0.395594
763.80 0.3954574
763.90 0.3953208
764.00 0.3951842
764.10 0.3950477
764.20 0.3949113
764.30 0.3947749
764.40 0.3946386
764.50 0.3945024
764.60 0.3943662
764.70 0.39423
764.80 0.394094
764.90 0.3939579
765.00 0.393822
765.10 0.3936861
765.20 0.3935504
765.30 0.3934149
765.40 0.3932795
765.50 0.3931442
765.60 0.3930089
765.70 0.3928736
765.80 0.3927385
765.90 0.3926034
766.00 0.3924683
766.10 0.3923333
766.20 0.3921983
766.30 0.3920634
766.40 0.3919286
766.50 0.3917938
766.60 0.3916591
766.70 0.3915244
766.80 0.3913898
766.90 0.3912553
767.00 0.3911208
767.10 0.3909864
767.20 0.390852
767.30 0.3907177
767.40 0.3905834
767.50 0.3904492
767.60 0.390315
767.70 0.3901809
767.80 0.3900469
767.90 0.3899129
768.00 0.389779
768.10 0.3896451
768.20 0.3895113
768.30 0.3893776
768.40 0.3892439
768.50 0.3891102
768.60 0.3889766
768.70 0.3888431
768.80 0.3887096
768.90 0.3885762
769.00 0.3884428
769.10 0.3883095
769.20 0.3881763
769.30 0.3880431
769.40 0.38791
769.50 0.3877769
769.60 0.3876438
769.70 0.3875109
769.80 0.387378
769.90 0.3872451
770.00 0.3871123
770.10 0.3869796
770.20 0.3868469
770.30 0.3867142
770.40 0.3865817
770.50 0.3864491
770.60 0.3863167
770.70 0.3861843
770.80 0.3860519
770.90 0.3859196
771.00 0.3857874
771.10 0.3856552
771.20 0.385523
771.30 0.385391
771.40 0.3852589
771.50 0.385127
771.60 0.3849951
771.70 0.3848632
771.80 0.3847314
771.90 0.3845997
772.00 0.384468
772.10 0.3843363
772.20 0.3842048
772.30 0.3840732
772.40 0.3839418
772.50 0.3838104
772.60 0.383679
772.70 0.3835477
772.80 0.3834165
772.90 0.3832836
773.00 0.3831508
773.10 0.3830181
773.20 0.3828854
773.30 0.3827527
773.40 0.3826202
773.50 0.3824876
773.60 0.3823552
773.70 0.3822228
773.80 0.3820904
773.90 0.3819581
774.00 0.3818259
774.10 0.3816937
774.20 0.3815615
774.30 0.3814295
774.40 0.3812974
774.50 0.3811655
774.60 0.3810336
774.70 0.3809017
774.80 0.3807699
774.90 0.3806382
775.00 0.3805065
775.10 0.3803749
775.20 0.3802433
775.30 0.3801118
775.40 0.3799803
775.50 0.3798489
775.60 0.3797175
775.70 0.3795862
775.80 0.379455
775.90 0.3793238
776.00 0.3791926
776.10 0.3790616
776.20 0.3789305
776.30 0.3787996
776.40 0.3786686
776.50 0.3785378
776.60 0.378407
776.70 0.3782762
776.80 0.3781455
776.90 0.3780149
777.00 0.3778843
777.10 0.3777537
777.20 0.3776233
777.30 0.3774928
777.40 0.3773625
777.50 0.3772322
777.60 0.3771019
777.70 0.3769717
777.80 0.3768415
777.90 0.3767114
778.00 0.3765814
778.10 0.3764514
778.20 0.3763215
778.30 0.3761916
778.40 0.3760618
778.50 0.375932
778.60 0.3758023
778.70 0.3756726
778.80 0.375543
778.90 0.3754135
779.00 0.375284
779.10 0.3751545
779.20 0.3750251
779.30 0.3748958
779.40 0.3747665
779.50 0.3746373
779.60 0.3745081
779.70 0.374379
779.80 0.3742499
779.90 0.3741209
780.00 0.3739919
780.10 0.373863
780.20 0.3737342
780.30 0.3736054
780.40 0.3734766
780.50 0.3733479
780.60 0.3732217
780.70 0.3730964
780.80 0.3729712
780.90 0.372846
781.00 0.3727209
781.10 0.3725958
781.20 0.3724708
781.30 0.3723458
781.40 0.3722209
781.50 0.372096
781.60 0.3719712
781.70 0.3718465
781.80 0.3717218
781.90 0.3715971
782.00 0.3714725
782.10 0.3713479
782.20 0.3712234
782.30 0.371099
782.40 0.3709746
782.50 0.3708502
782.60 0.3707259
782.70 0.3706017
782.80 0.3704775
782.90 0.3703534
783.00 0.3702293
783.10 0.3701052
783.20 0.3699812
783.30 0.3698573
783.40 0.3697334
783.50 0.3696096
783.60 0.3694858
783.70 0.3693621
783.80 0.3692384
783.90 0.3691148
784.00 0.3689912
784.10 0.3688677
784.20 0.3687442
784.30 0.3686208
784.40 0.3684974
784.50 0.3683741
784.60 0.3682501
784.70 0.3681247
784.80 0.3679994
784.90 0.3678741
785.00 0.3677488
785.10 0.3676237
785.20 0.3674985
785.30 0.3673734
785.40 0.3672484
785.50 0.3671234
785.60 0.3669985
785.70 0.3668736
785.80 0.3667488
785.90 0.366624
786.00 0.3664993
786.10 0.3663746
786.20 0.36625
786.30 0.3661254
786.40 0.3660009
786.50 0.3658764
786.60 0.365752
786.70 0.3656276
786.80 0.3655033
786.90 0.365379
787.00 0.3652548
787.10 0.3651307
787.20 0.3650066
787.30 0.3648825
787.40 0.3647585
787.50 0.3646345
787.60 0.3645106
787.70 0.3643868
787.80 0.364263
787.90 0.3641392
788.00 0.3640155
788.10 0.3638919
788.20 0.3637683
788.30 0.3636447
788.40 0.3635197
788.50 0.3633939
788.60 0.3632682
788.70 0.3631426
788.80 0.363017
788.90 0.3628914
789.00 0.3627659
789.10 0.3626405
789.20 0.3625151
789.30 0.3623898
789.40 0.3622645
789.50 0.3621393
789.60 0.3620141
789.70 0.3618889
789.80 0.3617639
789.90 0.3616388
790.00 0.3615139
790.10 0.3613889
790.20 0.3612641
790.30 0.3611392
790.40 0.3610145
790.50 0.3608898
790.60 0.3607651
790.70 0.3606405
790.80 0.3605159
790.90 0.3603914
791.00 0.360267
791.10 0.3601425
791.20 0.3600182
791.30 0.3598939
791.40 0.3597696
791.50 0.3596454
791.60 0.3595213
791.70 0.3593972
791.80 0.3592731
791.90 0.3591491
792.00 0.3590252
792.10 0.3589013
792.20 0.3587774
792.30 0.3586546
792.40 0.3585345
792.50 0.3584145
792.60 0.3582945
792.70 0.3581746
792.80 0.3580548
792.90 0.357935
793.00 0.3578152
793.10 0.3576955
793.20 0.3575758
793.30 0.3574562
793.40 0.3573366
793.50 0.3572171
793.60 0.3570976
793.70 0.3569782
793.80 0.3568588
793.90 0.3567395
794.00 0.3566202
794.10 0.356501
794.20 0.3563818
794.30 0.3562627
794.40 0.3561436
794.50 0.3560246
794.60 0.3559056
794.70 0.3557867
794.80 0.3556678
794.90 0.355549
795.00 0.3554302
795.10 0.3553114
795.20 0.3551927
795.30 0.3550741
795.40 0.3549555
795.50 0.354837
795.60 0.3547185
795.70 0.3546
795.80 0.3544816
795.90 0.3543633
796.00 0.354245
796.10 0.3541267
796.20 0.3540085
796.30 0.3538891
796.40 0.3537694
796.50 0.3536499
796.60 0.3535303
796.70 0.3534108
796.80 0.3532914
796.90 0.353172
797.00 0.3530527
797.10 0.3529334
797.20 0.3528142
797.30 0.352695
797.40 0.3525758
797.50 0.3524568
797.60 0.3523377
797.70 0.3522187
797.80 0.3520998
797.90 0.3519809
798.00 0.351862
798.10 0.3517432
798.20 0.3516245
798.30 0.3515058
798.40 0.3513871
798.50 0.3512685
798.60 0.35115
798.70 0.3510315
798.80 0.350913
798.90 0.3507946
799.00 0.3506762
799.10 0.3505579
799.20 0.3504396
799.30 0.3503214
799.40 0.3502033
799.50 0.3500851
799.60 0.3499671
799.70 0.349849
799.80 0.3497311
799.90 0.3496131
800.00 0.3494952
800.10 0.3493774
800.20 0.3492596
800.30 0.3491419
800.40 0.3490242
800.50 0.3489066
800.60 0.348789
800.70 0.3486714
800.80 0.3485539
800.90 0.3484365
801.00 0.3483191
801.10 0.3482017
801.20 0.3480844
801.30 0.3479671
801.40 0.3478499
801.50 0.3477328
801.60 0.3476157
801.70 0.3474986
801.80 0.3473816
801.90 0.3472646
802.00 0.3471477
802.10 0.3470308
802.20 0.3469139
802.30 0.3467972
802.40 0.3466804
802.50 0.3465637
802.60 0.3464471
802.70 0.3463305
802.80 0.346214
802.90 0.3460975
803.00 0.345981
803.10 0.3458646
803.20 0.3457482
803.30 0.3456319
803.40 0.3455157
803.50 0.3453995
803.60 0.3452833
803.70 0.3451672
803.80 0.3450511
803.90 0.3449351
804.00 0.3448191
804.10 0.3447031
804.20 0.3445869
804.30 0.3444696
804.40 0.3443524
804.50 0.3442352
804.60 0.344118
804.70 0.3440009
804.80 0.3438839
804.90 0.3437669
805.00 0.3436499
805.10 0.343533
805.20 0.3434161
805.30 0.3432993
805.40 0.3431825
805.50 0.3430658
805.60 0.3429491
805.70 0.3428325
805.80 0.3427159
805.90 0.3425994
806.00 0.3424829
806.10 0.3423664
806.20 0.34225
806.30 0.3421337
806.40 0.3420174
806.50 0.3419011
806.60 0.3417849
806.70 0.3416688
806.80 0.3415527
806.90 0.3414366
807.00 0.3413206
807.10 0.3412046
807.20 0.3410887
807.30 0.3409728
807.40 0.340857
807.50 0.3407412
807.60 0.3406255
807.70 0.3405098
807.80 0.3403941
807.90 0.3402785
808.00 0.340163
808.10 0.3400475
808.20 0.339932
808.30 0.3398166
808.40 0.3397013
808.50 0.339586
808.60 0.3394707
808.70 0.3393555
808.80 0.3392403
808.90 0.3391252
809.00 0.3390101
809.10 0.338895
809.20 0.3387801
809.30 0.3386651
809.40 0.3385502
809.50 0.3384354
809.60 0.3383206
809.70 0.3382058
809.80 0.3380911
809.90 0.3379764
810.00 0.3378618
810.10 0.3377472
810.20 0.3376327
810.30 0.3375182
810.40 0.3374038
810.50 0.3372894
810.60 0.3371751
810.70 0.3370608
810.80 0.3369465
810.90 0.3368323
811.00 0.3367182
811.10 0.3366041
811.20 0.33649
811.30 0.336376
811.40 0.336262
811.50 0.3361481
811.60 0.3360342
811.70 0.3359204
811.80 0.3358066
811.90 0.3356928
812.00 0.3355792
812.10 0.3354655
812.20 0.3353519
812.30 0.3352395
812.40 0.3351274
812.50 0.3350153
812.60 0.3349033
812.70 0.3347913
812.80 0.3346794
812.90 0.3345675
813.00 0.3344556
813.10 0.3343439
813.20 0.3342321
813.30 0.3341204
813.40 0.3340087
813.50 0.3338971
813.60 0.3337856
813.70 0.333674
813.80 0.3335626
813.90 0.3334511
814.00 0.3333397
814.10 0.3332284
814.20 0.3331171
814.30 0.3330058
814.40 0.3328946
814.50 0.3327834
814.60 0.3326723
814.70 0.3325612
814.80 0.3324502
814.90 0.3323392
815.00 0.3322283
815.10 0.3321174
815.20 0.3320065
815.30 0.3318957
815.40 0.3317849
815.50 0.3316742
815.60 0.3315635
815.70 0.3314529
815.80 0.3313423
815.90 0.3312318
816.00 0.3311213
816.10 0.3310108
816.20 0.3309004
816.30 0.33079
816.40 0.3306797
816.50 0.3305694
816.60 0.3304592
816.70 0.330349
816.80 0.3302388
816.90 0.3301287
817.00 0.3300187
817.10 0.3299087
817.20 0.3297987
817.30 0.3296888
817.40 0.3295789
817.50 0.329469
817.60 0.3293592
817.70 0.3292495
817.80 0.3291398
817.90 0.3290301
818.00 0.3289205
818.10 0.3288109
818.20 0.3287014
818.30 0.3285919
818.40 0.3284824
818.50 0.328373
818.60 0.3282637
818.70 0.3281544
818.80 0.3280451
818.90 0.3279359
819.00 0.3278267
819.10 0.3277175
819.20 0.3276084
819.30 0.3274976
819.40 0.3273857
819.50 0.3272739
819.60 0.327162
819.70 0.3270502
819.80 0.3269385
819.90 0.3268268
820.00 0.3267152
820.10 0.3266064
820.20 0.3264745
820.30 0.3263361
820.40 0.3262158
820.50 0.3261087
820.60 0.3260016
820.70 0.3258946
820.80 0.3257876
820.90 0.3256806
821.00 0.3255737
821.10 0.3254669
821.20 0.32536
821.30 0.3252532
821.40 0.3251465
821.50 0.3250398
821.60 0.3249331
821.70 0.3248265
821.80 0.3247199
821.90 0.3246134
822.00 0.3245069
822.10 0.3244005
822.20 0.3242941
822.30 0.3241877
822.40 0.3240814
822.50 0.3239751
822.60 0.3238689
822.70 0.3237627
822.80 0.3236565
822.90 0.3235504
823.00 0.3234443
823.10 0.3233383
823.20 0.3232323
823.30 0.3231264
823.40 0.3230205
823.50 0.3229146
823.60 0.3228088
823.70 0.322703
823.80 0.3225973
823.90 0.3224916
824.00 0.3223859
824.10 0.3222803
824.20 0.3221748
824.30 0.3220692
824.40 0.3219638
824.50 0.3218583
824.60 0.3217529
824.70 0.3216475
824.80 0.3215422
824.90 0.321437
825.00 0.3213317
825.10 0.3212265
825.20 0.3211214
825.30 0.3210163
825.40 0.3209112
825.50 0.3208062
825.60 0.3207012
825.70 0.3205962
825.80 0.3204913
825.90 0.3203865
826.00 0.3202817
826.10 0.3201769
826.20 0.3200722
826.30 0.3199629
826.40 0.3198507
826.50 0.3197385
826.60 0.3196263
826.70 0.3195142
826.80 0.3194021
826.90 0.3192901
827.00 0.3191781
827.10 0.3190662
827.20 0.3189543
827.30 0.3188425
827.40 0.3187307
827.50 0.3186189
827.60 0.3185072
827.70 0.3183956
827.80 0.318284
827.90 0.3181724
828.00 0.3180609
828.10 0.3179494
828.20 0.3178379
828.30 0.3177266
828.40 0.3176152
828.50 0.3175039
828.60 0.3173957
828.70 0.3172902
828.80 0.3171848
828.90 0.3170793
829.00 0.316974
829.10 0.3168686
829.20 0.3167633
829.30 0.3166581
829.40 0.3165529
829.50 0.3164477
829.60 0.3163426
829.70 0.3162375
829.80 0.3161324
829.90 0.3160274
830.00 0.3159225
830.10 0.3158175
830.20 0.3157127
830.30 0.3156078
830.40 0.315503
830.50 0.3153983
830.60 0.3152935
830.70 0.3151889
830.80 0.3150842
830.90 0.3149797
831.00 0.3148751
831.10 0.3147706
831.20 0.3146661
831.30 0.3145617
831.40 0.3144573
831.50 0.314353
831.60 0.3142487
831.70 0.3141444
831.80 0.3140402
831.90 0.313936
832.00 0.3138319
832.10 0.3137278
832.20 0.3136237
832.30 0.3135197
832.40 0.3134157
832.50 0.3133118
832.60 0.3132079
832.70 0.313104
832.80 0.3130002
832.90 0.3128964
833.00 0.3127927
833.10 0.312689
833.20 0.3125854
833.30 0.3124818
833.40 0.3123782
833.50 0.3122747
833.60 0.3121712
833.70 0.3120677
833.80 0.3119643
833.90 0.311861
834.00 0.3117577
834.10 0.3116544
834.20 0.3115511
834.30 0.3114479
834.40 0.3113448
834.50 0.3112416
834.60 0.3111386
834.70 0.3110355
834.80 0.3109325
834.90 0.3108296
835.00 0.3107266
835.10 0.3106238
835.20 0.3105209
835.30 0.3104181
835.40 0.3103154
835.50 0.3102127
835.60 0.31011
835.70 0.3100073
835.80 0.3099047
835.90 0.3098022
836.00 0.3096997
836.10 0.3095972
836.20 0.3094948
836.30 0.3093924
836.40 0.30929
836.50 0.3091877
836.60 0.3090854
836.70 0.3089832
836.80 0.308881
836.90 0.308779
837.00 0.3086772
837.10 0.3085754
837.20 0.3084737
837.30 0.3083719
837.40 0.3082703
837.50 0.3081686
837.60 0.308067
837.70 0.3079655
837.80 0.307864
837.90 0.3077625
838.00 0.3076611
838.10 0.3075597
838.20 0.3074583
838.30 0.307357
838.40 0.3072557
838.50 0.3071545
838.60 0.3070533
838.70 0.3069521
838.80 0.306851
838.90 0.3067499
839.00 0.3066489
839.10 0.3065479
839.20 0.3064469
839.30 0.306346
839.40 0.3062451
839.50 0.3061443
839.60 0.3060434
839.70 0.3059427
839.80 0.305842
839.90 0.3057413
840.00 0.3056406
840.10 0.30554
840.20 0.3054394
840.30 0.3053389
840.40 0.3052384
840.50 0.305138
840.60 0.3050376
840.70 0.3049372
840.80 0.3048369
840.90 0.3047366
841.00 0.3046363
841.10 0.3045361
841.20 0.3044359
841.30 0.3043358
841.40 0.3042357
841.50 0.3041357
841.60 0.3040356
841.70 0.3039357
841.80 0.3038357
841.90 0.3037358
842.00 0.303636
842.10 0.3035361
842.20 0.3034364
842.30 0.3033366
842.40 0.3032369
842.50 0.3031373
842.60 0.3030376
842.70 0.302938
842.80 0.3028385
842.90 0.302739
843.00 0.3026395
843.10 0.3025401
843.20 0.3024407
843.30 0.3023413
843.40 0.302242
843.50 0.3021427
843.60 0.3020435
843.70 0.3019443
843.80 0.3018451
843.90 0.301746
844.00 0.3016469
844.10 0.3015479
844.20 0.3014489
844.30 0.3013499
844.40 0.301251
844.50 0.3011521
844.60 0.3010532
844.70 0.3009544
844.80 0.3008556
844.90 0.3007569
845.00 0.3006582
845.10 0.3005595
845.20 0.3004609
845.30 0.3003611
845.40 0.3002613
845.50 0.3001615
845.60 0.3000618
845.70 0.2999621
845.80 0.2998625
845.90 0.2997629
846.00 0.2996633
846.10 0.2995638
846.20 0.2994643
846.30 0.2993649
846.40 0.2992655
846.50 0.2991661
846.60 0.2990668
846.70 0.2989675
846.80 0.2988682
846.90 0.298769
847.00 0.2986698
847.10 0.2985707
847.20 0.2984716
847.30 0.2983725
847.40 0.2982735
847.50 0.2981745
847.60 0.2980756
847.70 0.2979767
847.80 0.2978778
847.90 0.297779
848.00 0.2976802
848.10 0.2975814
848.20 0.2974827
848.30 0.297384
848.40 0.2972854
848.50 0.2971868
848.60 0.2970882
848.70 0.2969897
848.80 0.2968912
848.90 0.2967928
849.00 0.2966944
849.10 0.296596
849.20 0.2964977
849.30 0.2963994
849.40 0.2963011
849.50 0.2962029
849.60 0.2961047
849.70 0.2960066
849.80 0.2959085
849.90 0.2958104
850.00 0.2957124
850.10 0.2956144
850.20 0.2955164
850.30 0.2954185
850.40 0.2953206
850.50 0.2952228
850.60 0.295125
850.70 0.2950272
850.80 0.2949295
850.90 0.2948318
851.00 0.2947342
851.10 0.2946366
851.20 0.294539
851.30 0.2944415
851.40 0.294344
851.50 0.2942465
851.60 0.2941491
851.70 0.2940517
851.80 0.2939543
851.90 0.293857
852.00 0.2937598
852.10 0.2936625
852.20 0.2935653
852.30 0.2934682
852.40 0.293371
852.50 0.293274
852.60 0.2931769
852.70 0.2930799
852.80 0.2929829
852.90 0.292886
853.00 0.2927891
853.10 0.2926922
853.20 0.2925954
853.30 0.2924986
853.40 0.2924019
853.50 0.2923052
853.60 0.2922085
853.70 0.2921127
853.80 0.2920178
853.90 0.291923
854.00 0.2918282
854.10 0.2917335
854.20 0.2916388
854.30 0.2915441
854.40 0.2914495
854.50 0.2913549
854.60 0.2912603
854.70 0.2911658
854.80 0.2910713
854.90 0.2909768
855.00 0.2908824
855.10 0.290788
855.20 0.2906937
855.30 0.2905994
855.40 0.2905051
855.50 0.2904109
855.60 0.2903167
855.70 0.2902225
855.80 0.2901284
855.90 0.2900343
856.00 0.2899402
856.10 0.2898462
856.20 0.2897522
856.30 0.2896583
856.40 0.2895643
856.50 0.2894705
856.60 0.2893766
856.70 0.2892828
856.80 0.289189
856.90 0.2890953
857.00 0.2890016
857.10 0.288908
857.20 0.2888143
857.30 0.2887207
857.40 0.2886272
857.50 0.2885337
857.60 0.2884402
857.70 0.2883467
857.80 0.2882533
857.90 0.2881599
858.00 0.2880666
858.10 0.2879733
858.20 0.28788
858.30 0.2877868
858.40 0.2876936
858.50 0.2876004
858.60 0.2875073
858.70 0.2874142
858.80 0.2873212
858.90 0.2872281
859.00 0.2871352
859.10 0.2870422
859.20 0.2869493
859.30 0.2868564
859.40 0.2867636
859.50 0.2866708
859.60 0.286578
859.70 0.2864853
859.80 0.2863926
859.90 0.2862999
860.00 0.2862073
860.10 0.2861147
860.20 0.2860221
860.30 0.2859296
860.40 0.2858371
860.50 0.2857447
860.60 0.2856522
860.70 0.2855599
860.80 0.2854675
860.90 0.2853752
861.00 0.2852829
861.10 0.2851907
861.20 0.2850985
861.30 0.2850063
861.40 0.2849142
861.50 0.2848221
861.60 0.28473
861.70 0.284638
861.80 0.284546
861.90 0.284454
862.00 0.2843621
862.10 0.2842702
862.20 0.2841782
862.30 0.2840852
862.40 0.2839922
862.50 0.2838993
862.60 0.2838064
862.70 0.2837136
862.80 0.2836208
862.90 0.283528
863.00 0.2834353
863.10 0.2833426
863.20 0.2832499
863.30 0.2831573
863.40 0.2830647
863.50 0.2829721
863.60 0.2828796
863.70 0.2827871
863.80 0.2826946
863.90 0.2826022
864.00 0.2825098
864.10 0.2824175
864.20 0.2823251
864.30 0.2822329
864.40 0.2821406
864.50 0.2820484
864.60 0.2819562
864.70 0.2818641
864.80 0.281772
864.90 0.2816799
865.00 0.2815879
865.10 0.2814959
865.20 0.2814039
865.30 0.281312
865.40 0.2812201
865.50 0.2811282
865.60 0.2810364
865.70 0.2809446
865.80 0.2808529
865.90 0.2807611
866.00 0.2806694
866.10 0.2805778
866.20 0.2804862
866.30 0.2803946
866.40 0.280303
866.50 0.2802115
866.60 0.2801201
866.70 0.2800286
866.80 0.2799372
866.90 0.2798458
867.00 0.2797545
867.10 0.2796632
867.20 0.2795719
867.30 0.2794807
867.40 0.2793895
867.50 0.2792983
867.60 0.2792072
867.70 0.2791161
867.80 0.279025
867.90 0.278934
868.00 0.278843
868.10 0.2787521
868.20 0.2786611
868.30 0.2785702
868.40 0.2784794
868.50 0.2783886
868.60 0.2782978
868.70 0.278207
868.80 0.2781163
868.90 0.2780256
869.00 0.277935
869.10 0.2778444
869.20 0.2777538
869.30 0.2776632
869.40 0.2775727
869.50 0.2774823
869.60 0.2773918
869.70 0.2773014
869.80 0.277211
869.90 0.2771207
870.00 0.2770304
870.10 0.2769401
870.20 0.2768499
870.30 0.2767597
870.40 0.2766695
870.50 0.2765794
870.60 0.2764893
870.70 0.2763992
870.80 0.2763092
870.90 0.2762182
871.00 0.2761271
871.10 0.276036
871.20 0.275945
871.30 0.275854
871.40 0.2757631
871.50 0.2756722
871.60 0.2755813
871.70 0.2754905
871.80 0.2753996
871.90 0.2753089
872.00 0.2752181
872.10 0.2751274
872.20 0.2750368
872.30 0.2749461
872.40 0.2748555
872.50 0.2747649
872.60 0.2746744
872.70 0.2745839
872.80 0.2744934
872.90 0.274403
873.00 0.2743126
873.10 0.2742223
873.20 0.2741319
873.30 0.2740416
873.40 0.2739514
873.50 0.2738611
873.60 0.273771
873.70 0.2736808
873.80 0.2735907
873.90 0.2735006
874.00 0.2734105
874.10 0.2733205
874.20 0.2732305
874.30 0.2731406
874.40 0.2730506
874.50 0.2729608
874.60 0.2728709
874.70 0.2727811
874.80 0.2726913
874.90 0.2726016
875.00 0.2725118
875.10 0.2724222
875.20 0.2723325
875.30 0.2722429
875.40 0.2721533
875.50 0.2720638
875.60 0.2719742
875.70 0.2718848
875.80 0.2717953
875.90 0.2717059
876.00 0.2716165
876.10 0.2715272
876.20 0.2714379
876.30 0.2713486
876.40 0.2712594
876.50 0.2711702
876.60 0.271081
876.70 0.2709918
876.80 0.2709027
876.90 0.2708137
877.00 0.2707246
877.10 0.2706356
877.20 0.2705466
877.30 0.2704577
877.40 0.2703688
877.50 0.2702799
877.60 0.2701911
877.70 0.2701023
877.80 0.2700135
877.90 0.2699247
878.00 0.269836
878.10 0.2697474
878.20 0.2696587
878.30 0.2695701
878.40 0.2694815
878.50 0.269393
878.60 0.2693045
878.70 0.269216
878.80 0.2691276
878.90 0.2690392
879.00 0.2689508
879.10 0.2688625
879.20 0.2687742
879.30 0.2686859
879.40 0.2685976
879.50 0.2685094
879.60 0.2684237
879.70 0.2683385
879.80 0.2682534
879.90 0.2681682
880.00 0.2680831
880.10 0.2679981
880.20 0.2679131
880.30 0.2678281
880.40 0.2677431
880.50 0.2676582
880.60 0.2675733
880.70 0.2674884
880.80 0.2674036
880.90 0.2673188
881.00 0.267234
881.10 0.2671492
881.20 0.2670645
881.30 0.2669799
881.40 0.2668952
881.50 0.2668106
881.60 0.266726
881.70 0.2666415
881.80 0.2665569
881.90 0.2664724
882.00 0.266388
882.10 0.2663036
882.20 0.2662192
882.30 0.2661348
882.40 0.2660505
882.50 0.2659662
882.60 0.2658819
882.70 0.2657977
882.80 0.2657135
882.90 0.2656293
883.00 0.2655451
883.10 0.265461
883.20 0.2653769
883.30 0.2652929
883.40 0.2652089
883.50 0.2651249
883.60 0.2650409
883.70 0.264957
883.80 0.2648731
883.90 0.2647893
884.00 0.2647032
884.10 0.2646167
884.20 0.2645303
884.30 0.2644439
884.40 0.2643575
884.50 0.2642712
884.60 0.2641849
884.70 0.2640986
884.80 0.2640124
884.90 0.2639262
885.00 0.26384
885.10 0.2637539
885.20 0.2636677
885.30 0.2635817
885.40 0.2634956
885.50 0.2634096
885.60 0.2633236
885.70 0.2632377
885.80 0.2631518
885.90 0.2630659
886.00 0.26298
886.10 0.2628942
886.20 0.2628084
886.30 0.2627227
886.40 0.2626369
886.50 0.2625512
886.60 0.2624656
886.70 0.26238
886.80 0.2622944
886.90 0.2622088
887.00 0.2621233
887.10 0.2620378
887.20 0.2619523
887.30 0.2618669
887.40 0.2617815
887.50 0.2616961
887.60 0.2616107
887.70 0.2615254
887.80 0.2614402
887.90 0.2613549
888.00 0.2612697
888.10 0.2611845
888.20 0.2610994
888.30 0.2610142
888.40 0.2609305
888.50 0.260847
888.60 0.2607636
888.70 0.2606801
888.80 0.2605967
888.90 0.2605134
889.00 0.26043
889.10 0.2603467
889.20 0.2602635
889.30 0.2601802
889.40 0.260097
889.50 0.2600138
889.60 0.2599307
889.70 0.2598476
889.80 0.2597645
889.90 0.2596814
890.00 0.2595984
890.10 0.2595154
890.20 0.2594324
890.30 0.2593495
890.40 0.2592666
890.50 0.2591837
890.60 0.2591009
890.70 0.2590181
890.80 0.2589353
890.90 0.2588525
891.00 0.2587698
891.10 0.2586871
891.20 0.2586045
891.30 0.2585219
891.40 0.2584393
891.50 0.2583567
891.60 0.2582742
891.70 0.2581917
891.80 0.2581092
891.90 0.2580267
892.00 0.2579443
892.10 0.2578619
892.20 0.2577796
892.30 0.2576973
892.40 0.257615
892.50 0.2575327
892.60 0.2574505
892.70 0.2573683
892.80 0.2572861
892.90 0.257204
893.00 0.2571219
893.10 0.2570398
893.20 0.2569577
893.30 0.2568757
893.40 0.2567937
893.50 0.2567118
893.60 0.2566298
893.70 0.2565479
893.80 0.2564661
893.90 0.2563842
894.00 0.2563024
894.10 0.2562206
894.20 0.2561389
894.30 0.2560572
894.40 0.2559755
894.50 0.2558938
894.60 0.2558122
894.70 0.2557306
894.80 0.2556491
894.90 0.2555675
895.00 0.255486
895.10 0.2554045
895.20 0.2553231
895.30 0.2552417
895.40 0.2551603
895.50 0.2550789
895.60 0.2549976
895.70 0.2549163
895.80 0.254835
895.90 0.2547538
896.00 0.2546726
896.10 0.2545914
896.20 0.2545103
896.30 0.2544292
896.40 0.2543481
896.50 0.254267
896.60 0.254186
896.70 0.254105
896.80 0.254024
896.90 0.2539431
897.00 0.2538622
897.10 0.2537813
897.20 0.2537004
897.30 0.2536186
897.40 0.2535368
897.50 0.253455
897.60 0.2533732
897.70 0.2532915
897.80 0.2532098
897.90 0.2531282
898.00 0.2530465
898.10 0.2529649
898.20 0.2528833
898.30 0.2528018
898.40 0.2527203
898.50 0.2526388
898.60 0.2525574
898.70 0.2524759
898.80 0.2523945
898.90 0.2523132
899.00 0.2522319
899.10 0.2521506
899.20 0.2520693
899.30 0.251988
899.40 0.2519068
899.50 0.2518256
899.60 0.2517445
899.70 0.2516634
899.80 0.2515823
899.90 0.2515012
900.00 0.2514202
900.10 0.2513392
900.20 0.2512582
900.30 0.2511773
900.40 0.2510964
900.50 0.2510155
900.60 0.2509346
900.70 0.2508538
900.80 0.250773
900.90 0.2506922
901.00 0.2506115
901.10 0.2505308
901.20 0.2504501
901.30 0.2503695
901.40 0.2502889
901.50 0.2502083
901.60 0.2501277
901.70 0.2500472
901.80 0.2499667
901.90 0.2498862
902.00 0.2498058
902.10 0.2497254
902.20 0.249645
902.30 0.2495646
902.40 0.2494843
902.50 0.249404
902.60 0.2493238
902.70 0.2492435
902.80 0.2491633
902.90 0.2490831
903.00 0.249003
903.10 0.2489229
903.20 0.2488428
903.30 0.2487627
903.40 0.2486827
903.50 0.2486027
903.60 0.2485227
903.70 0.2484428
903.80 0.2483629
903.90 0.248283
904.00 0.2482032
904.10 0.2481233
904.20 0.2480436
904.30 0.2479638
904.40 0.2478841
904.50 0.2478044
904.60 0.2477247
904.70 0.247645
904.80 0.2475654
904.90 0.2474858
905.00 0.2474063
905.10 0.2473267
905.20 0.2472472
905.30 0.2471678
905.40 0.2470883
905.50 0.2470089
905.60 0.2469295
905.70 0.2468502
905.80 0.2467708
905.90 0.2466915
906.00 0.2466123
906.10 0.246533
906.20 0.2464539
906.30 0.246375
906.40 0.2462961
906.50 0.2462172
906.60 0.2461383
906.70 0.2460595
906.80 0.2459807
906.90 0.2459019
907.00 0.2458232
907.10 0.2457445
907.20 0.2456658
907.30 0.2455872
907.40 0.2455086
907.50 0.24543
907.60 0.2453514
907.70 0.2452729
907.80 0.2451944
907.90 0.2451159
908.00 0.2450374
908.10 0.244959
908.20 0.2448806
908.30 0.2448023
908.40 0.2447239
908.50 0.2446456
908.60 0.2445674
908.70 0.2444891
908.80 0.2444109
908.90 0.2443327
909.00 0.2442545
909.10 0.2441764
909.20 0.2440983
909.30 0.2440202
909.40 0.2439422
909.50 0.2438642
909.60 0.2437862
909.70 0.2437082
909.80 0.2436303
909.90 0.2435524
910.00 0.2434745
910.10 0.2433966
910.20 0.2433188
910.30 0.243241
910.40 0.2431633
910.50 0.2430855
910.60 0.2430078
910.70 0.2429301
910.80 0.2428525
910.90 0.2427749
911.00 0.2426973
911.10 0.2426197
911.20 0.2425422
911.30 0.2424647
911.40 0.2423872
911.50 0.2423097
911.60 0.2422323
911.70 0.2421549
911.80 0.2420775
911.90 0.2420002
912.00 0.2419229
912.10 0.2418456
912.20 0.2417683
912.30 0.2416911
912.40 0.2416139
912.50 0.2415367
912.60 0.2414596
912.70 0.2413825
912.80 0.2413054
912.90 0.2412283
913.00 0.2411513
913.10 0.2410743
913.20 0.2409973
913.30 0.2409204
913.40 0.2408434
913.50 0.2407665
913.60 0.2406897
913.70 0.2406128
913.80 0.240536
913.90 0.2404592
914.00 0.2403825
914.10 0.2403058
914.20 0.2402291
914.30 0.2401524
914.40 0.2400757
914.50 0.2399991
914.60 0.2399225
914.70 0.239846
914.80 0.2397695
914.90 0.239693
915.00 0.2396165
915.10 0.23954
915.20 0.2394636
915.30 0.2393874
915.40 0.2393112
915.50 0.2392351
915.60 0.2391591
915.70 0.239083
915.80 0.239007
915.90 0.238931
916.00 0.2388551
916.10 0.2387791
916.20 0.2387032
916.30 0.2386273
916.40 0.2385515
916.50 0.2384756
916.60 0.2383998
916.70 0.2383241
916.80 0.2382483
916.90 0.2381726
917.00 0.2380969
917.10 0.2380213
917.20 0.2379456
917.30 0.23787
917.40 0.2377944
917.50 0.2377189
917.60 0.2376434
917.70 0.2375679
917.80 0.2374924
917.90 0.2374169
918.00 0.2373415
918.10 0.2372661
918.20 0.2371908
918.30 0.2371154
918.40 0.2370401
918.50 0.2369649
918.60 0.2368896
918.70 0.2368144
918.80 0.2367392
918.90 0.236664
919.00 0.2365889
919.10 0.2365137
919.20 0.2364386
919.30 0.2363636
919.40 0.2362885
919.50 0.2362135
919.60 0.2361386
919.70 0.2360636
919.80 0.2359887
919.90 0.2359138
920.00 0.2358389
920.10 0.235764
920.20 0.2356892
920.30 0.2356144
920.40 0.2355397
920.50 0.2354649
920.60 0.2353902
920.70 0.2353155
920.80 0.2352409
920.90 0.2351662
921.00 0.2350916
921.10 0.235017
921.20 0.2349425
921.30 0.234868
921.40 0.2347935
921.50 0.234719
921.60 0.2346446
921.70 0.2345701
921.80 0.2344958
921.90 0.2344214
922.00 0.234347
922.10 0.2342727
922.20 0.2341985
922.30 0.2341242
922.40 0.23405
922.50 0.2339758
922.60 0.2339016
922.70 0.2338274
922.80 0.2337533
922.90 0.2336792
923.00 0.2336051
923.10 0.2335311
923.20 0.2334571
923.30 0.2333831
923.40 0.2333091
923.50 0.2332352
923.60 0.2331613
923.70 0.2330874
923.80 0.2330135
923.90 0.2329397
924.00 0.2328659
924.10 0.2327921
924.20 0.2327184
924.30 0.2326446
924.40 0.232571
924.50 0.2324975
924.60 0.2324241
924.70 0.2323507
924.80 0.2322774
924.90 0.232204
925.00 0.2321307
925.10 0.2320575
925.20 0.2319842
925.30 0.231911
925.40 0.2318378
925.50 0.2317646
925.60 0.2316914
925.70 0.2316183
925.80 0.2315452
925.90 0.2314721
926.00 0.2313991
926.10 0.2313261
926.20 0.2312531
926.30 0.2311801
926.40 0.2311072
926.50 0.2310342
926.60 0.2309614
926.70 0.2308885
926.80 0.2308157
926.90 0.2307428
927.00 0.2306701
927.10 0.2305973
927.20 0.2305246
927.30 0.2304519
927.40 0.2303792
927.50 0.2303065
927.60 0.2302339
927.70 0.2301613
927.80 0.2300887
927.90 0.2300162
928.00 0.2299436
928.10 0.2298711
928.20 0.2297987
928.30 0.2297262
928.40 0.2296538
928.50 0.2295814
928.60 0.229509
928.70 0.2294367
928.80 0.2293644
928.90 0.2292921
929.00 0.2292198
929.10 0.2291476
929.20 0.2290753
929.30 0.2290032
929.40 0.228931
929.50 0.2288588
929.60 0.2287867
929.70 0.2287146
929.80 0.2286426
929.90 0.2285706
930.00 0.2284985
930.10 0.2284266
930.20 0.2283546
930.30 0.2282827
930.40 0.2282108
930.50 0.2281389
930.60 0.228067
930.70 0.2279952
930.80 0.2279234
930.90 0.2278516
931.00 0.2277799
931.10 0.2277081
931.20 0.2276364
931.30 0.2275647
931.40 0.2274931
931.50 0.2274215
931.60 0.2273499
931.70 0.2272783
931.80 0.2272067
931.90 0.2271352
932.00 0.2270637
932.10 0.2269923
932.20 0.2269208
932.30 0.2268494
932.40 0.226778
932.50 0.2267066
932.60 0.2266353
932.70 0.2265639
932.80 0.2264927
932.90 0.2264214
933.00 0.2263501
933.10 0.2262789
933.20 0.2262077
933.30 0.2261366
933.40 0.2260654
933.50 0.2259943
933.60 0.2259232
933.70 0.2258523
933.80 0.2257815
933.90 0.2257107
934.00 0.2256399
934.10 0.2255692
934.20 0.2254985
934.30 0.2254278
934.40 0.2253571
934.50 0.2252865
934.60 0.2252158
934.70 0.2251452
934.80 0.2250747
934.90 0.2250041
935.00 0.2249336
935.10 0.2248631
935.20 0.2247927
935.30 0.2247222
935.40 0.2246518
935.50 0.2245814
935.60 0.224511
935.70 0.2244407
935.80 0.2243704
935.90 0.2243001
936.00 0.2242298
936.10 0.2241596
936.20 0.2240894
936.30 0.2240192
936.40 0.223949
936.50 0.2238789
936.60 0.2238087
936.70 0.2237386
936.80 0.2236686
936.90 0.2235985
937.00 0.2235285
937.10 0.2234585
937.20 0.2233885
937.30 0.2233186
937.40 0.2232487
937.50 0.2231788
937.60 0.2231089
937.70 0.2230391
937.80 0.2229692
937.90 0.2228995
938.00 0.2228297
938.10 0.2227599
938.20 0.2226902
938.30 0.2226205
938.40 0.2225508
938.50 0.2224812
938.60 0.2224116
938.70 0.222342
938.80 0.2222724
938.90 0.2222028
939.00 0.2221333
939.10 0.2220638
939.20 0.2219943
939.30 0.2219249
939.40 0.2218555
939.50 0.2217861
939.60 0.2217167
939.70 0.2216473
939.80 0.221578
939.90 0.2215087
940.00 0.2214394
940.10 0.2213702
940.20 0.2213009
940.30 0.2212317
940.40 0.2211625
940.50 0.2210934
940.60 0.2210242
940.70 0.2209551
940.80 0.220886
940.90 0.220817
941.00 0.220748
941.10 0.2206789
941.20 0.22061
941.30 0.220541
941.40 0.2204721
941.50 0.2204031
941.60 0.2203342
941.70 0.2202654
941.80 0.2201965
941.90 0.2201277
942.00 0.2200589
942.10 0.2199902
942.20 0.2199214
942.30 0.2198527
942.40 0.219784
942.50 0.2197153
942.60 0.2196467
942.70 0.2195781
942.80 0.2195095
942.90 0.2194409
943.00 0.2193724
943.10 0.2193041
943.20 0.2192358
943.30 0.2191676
943.40 0.2190993
943.50 0.2190311
943.60 0.2189629
943.70 0.2188948
943.80 0.2188266
943.90 0.2187585
944.00 0.2186904
944.10 0.2186224
944.20 0.2185543
944.30 0.2184863
944.40 0.2184183
944.50 0.2183503
944.60 0.2182824
944.70 0.2182144
944.80 0.2181465
944.90 0.2180787
945.00 0.2180108
945.10 0.217943
945.20 0.2178752
945.30 0.2178074
945.40 0.2177396
945.50 0.2176719
945.60 0.2176042
945.70 0.2175365
945.80 0.2174689
945.90 0.2174012
946.00 0.2173336
946.10 0.217266
946.20 0.2171984
946.30 0.2171309
946.40 0.2170634
946.50 0.2169959
946.60 0.2169284
946.70 0.216861
946.80 0.2167935
946.90 0.2167261
947.00 0.2166588
947.10 0.2165914
947.20 0.2165241
947.30 0.2164568
947.40 0.2163895
947.50 0.2163222
947.60 0.216255
947.70 0.2161878
947.80 0.2161206
947.90 0.2160534
948.00 0.2159863
948.10 0.2159192
948.20 0.2158521
948.30 0.215785
948.40 0.2157179
948.50 0.2156509
948.60 0.2155839
948.70 0.2155169
948.80 0.21545
948.90 0.215383
949.00 0.2153161
949.10 0.2152493
949.20 0.2151824
949.30 0.2151156
949.40 0.2150487
949.50 0.214982
949.60 0.2149152
949.70 0.2148484
949.80 0.2147817
949.90 0.214715
950.00 0.2146484
950.10 0.2145817
950.20 0.2145151
950.30 0.2144485
950.40 0.2143819
950.50 0.2143153
950.60 0.2142488
950.70 0.2141823
950.80 0.2141158
950.90 0.2140493
951.00 0.2139829
951.10 0.2139165
951.20 0.2138501
951.30 0.2137837
951.40 0.2137174
951.50 0.213651
951.60 0.2135847
951.70 0.2135185
951.80 0.2134522
951.90 0.213386
952.00 0.2133198
952.10 0.2132536
952.20 0.2131874
952.30 0.2131213
952.40 0.2130552
952.50 0.2129893
952.60 0.2129234
952.70 0.2128576
952.80 0.2127918
952.90 0.212726
953.00 0.2126602
953.10 0.2125945
953.20 0.2125287
953.30 0.212463
953.40 0.2123974
953.50 0.2123317
953.60 0.2122661
953.70 0.2122005
953.80 0.2121349
953.90 0.2120693
954.00 0.2120038
954.10 0.2119383
954.20 0.2118728
954.30 0.2118073
954.40 0.2117418
954.50 0.2116764
954.60 0.211611
954.70 0.2115456
954.80 0.2114803
954.90 0.2114149
955.00 0.2113496
955.10 0.2112843
955.20 0.2112191
955.30 0.2111538
955.40 0.2110886
955.50 0.2110234
955.60 0.2109582
955.70 0.2108931
955.80 0.210828
955.90 0.2107628
956.00 0.2106978
956.10 0.2106327
956.20 0.2105677
956.30 0.2105026
956.40 0.2104376
956.50 0.2103727
956.60 0.2103077
956.70 0.2102428
956.80 0.2101779
956.90 0.210113
957.00 0.2100481
957.10 0.2099833
957.20 0.2099185
957.30 0.2098537
957.40 0.2097889
957.50 0.2097242
957.60 0.2096595
957.70 0.2095948
957.80 0.2095301
957.90 0.2094654
958.00 0.2094008
958.10 0.2093362
958.20 0.2092716
958.30 0.209207
958.40 0.2091425
958.50 0.2090779
958.60 0.2090134
958.70 0.208949
958.80 0.2088845
958.90 0.2088201
959.00 0.2087557
959.10 0.2086913
959.20 0.2086269
959.30 0.2085626
959.40 0.2084982
959.50 0.2084339
959.60 0.2083697
959.70 0.2083054
959.80 0.2082412
959.90 0.208177
960.00 0.2081128
960.10 0.2080486
960.20 0.2079845
960.30 0.2079203
960.40 0.2078563
960.50 0.2077922
960.60 0.2077281
960.70 0.2076641
960.80 0.2076001
960.90 0.2075361
961.00 0.2074721
961.10 0.2074082
961.20 0.2073443
961.30 0.2072804
961.40 0.2072165
961.50 0.2071526
961.60 0.2070888
961.70 0.207025
961.80 0.2069612
961.90 0.2068974
962.00 0.2068338
962.10 0.2067703
962.20 0.2067068
962.30 0.2066433
962.40 0.2065799
962.50 0.2065165
962.60 0.2064531
962.70 0.2063897
962.80 0.2063263
962.90 0.206263
963.00 0.2061996
963.10 0.2061363
963.20 0.2060731
963.30 0.2060098
963.40 0.2059466
963.50 0.2058834
963.60 0.2058202
963.70 0.205757
963.80 0.2056938
963.90 0.2056307
964.00 0.2055676
964.10 0.2055045
964.20 0.2054415
964.30 0.2053784
964.40 0.2053154
964.50 0.2052524
964.60 0.2051894
964.70 0.2051265
964.80 0.2050636
964.90 0.2050007
965.00 0.2049378
965.10 0.2048749
965.20 0.2048121
965.30 0.2047492
965.40 0.2046864
965.50 0.2046237
965.60 0.2045609
965.70 0.2044982
965.80 0.2044355
965.90 0.2043728
966.00 0.2043101
966.10 0.2042474
966.20 0.2041848
966.30 0.2041222
966.40 0.2040596
966.50 0.2039971
966.60 0.2039345
966.70 0.203872
966.80 0.2038095
966.90 0.203747
967.00 0.2036846
967.10 0.2036221
967.20 0.2035597
967.30 0.2034973
967.40 0.203435
967.50 0.2033726
967.60 0.2033103
967.70 0.203248
967.80 0.2031857
967.90 0.2031234
968.00 0.2030612
968.10 0.202999
968.20 0.2029368
968.30 0.2028746
968.40 0.2028124
968.50 0.2027503
968.60 0.2026882
968.70 0.2026261
968.80 0.202564
968.90 0.202502
969.00 0.20244
969.10 0.202378
969.20 0.202316
969.30 0.202254
969.40 0.2021921
969.50 0.2021301
969.60 0.2020682
969.70 0.2020064
969.80 0.2019445
969.90 0.2018827
970.00 0.2018209
970.10 0.2017591
970.20 0.2016973
970.30 0.2016355
970.40 0.2015738
970.50 0.2015121
970.60 0.2014504
970.70 0.2013887
970.80 0.2013271
970.90 0.2012655
971.00 0.2012039
971.10 0.2011423
971.20 0.2010807
971.30 0.2010192
971.40 0.2009577
971.50 0.2008962
971.60 0.2008342
971.70 0.2007719
971.80 0.2007097
971.90 0.2006475
972.00 0.2005853
972.10 0.2005231
972.20 0.200461
972.30 0.2003988
972.40 0.2003367
972.50 0.2002747
972.60 0.2002126
972.70 0.2001506
972.80 0.2000885
972.90 0.2000265
973.00 0.1999646
973.10 0.1999026
973.20 0.1998407
973.30 0.1997788
973.40 0.1997169
973.50 0.199655
973.60 0.1995931
973.70 0.1995313
973.80 0.1994695
973.90 0.1994077
974.00 0.199346
974.10 0.1992842
974.20 0.1992225
974.30 0.1991608
974.40 0.1990991
974.50 0.1990375
974.60 0.1989758
974.70 0.1989142
974.80 0.1988526
974.90 0.198791
975.00 0.1987295
975.10 0.198668
975.20 0.1986064
975.30 0.198545
975.40 0.1984835
975.50 0.198422
975.60 0.1983606
975.70 0.1982992
975.80 0.1982378
975.90 0.1981765
976.00 0.1981151
976.10 0.1980538
976.20 0.1979925
976.30 0.1979312
976.40 0.19787
976.50 0.1978087
976.60 0.1977475
976.70 0.1976863
976.80 0.1976251
976.90 0.197564
977.00 0.1975028
977.10 0.1974417
977.20 0.1973806
977.30 0.1973196
977.40 0.1972585
977.50 0.1971975
977.60 0.1971365
977.70 0.1970755
977.80 0.1970145
977.90 0.1969536
978.00 0.1968927
978.10 0.1968317
978.20 0.1967709
978.30 0.19671
978.40 0.1966492
978.50 0.1965883
978.60 0.1965275
978.70 0.1964668
978.80 0.196406
978.90 0.1963453
979.00 0.1962845
979.10 0.1962239
979.20 0.1961632
979.30 0.1961025
979.40 0.1960419
979.50 0.1959813
979.60 0.1959207
979.70 0.1958601
979.80 0.1957996
979.90 0.195739
980.00 0.1956785
980.10 0.195618
980.20 0.1955576
980.30 0.1954971
980.40 0.1954367
980.50 0.1953763
980.60 0.1953159
980.70 0.1952555
980.80 0.1951952
980.90 0.1951348
981.00 0.1950745
981.10 0.1950143
981.20 0.194954
981.30 0.1948943
981.40 0.1948353
981.50 0.1947762
981.60 0.1947172
981.70 0.1946582
981.80 0.1945993
981.90 0.1945403
982.00 0.1944814
982.10 0.1944225
982.20 0.1943636
982.30 0.1943047
982.40 0.1942459
982.50 0.194187
982.60 0.1941282
982.70 0.1940694
982.80 0.1940107
982.90 0.1939519
983.00 0.1938932
983.10 0.1938345
983.20 0.1937758
983.30 0.1937171
983.40 0.1936584
983.50 0.1935998
983.60 0.1935412
983.70 0.1934826
983.80 0.193424
983.90 0.1933655
984.00 0.1933069
984.10 0.1932484
984.20 0.1931899
984.30 0.1931315
984.40 0.193073
984.50 0.1930146
984.60 0.1929562
984.70 0.1928978
984.80 0.1928394
984.90 0.192781
985.00 0.1927227
985.10 0.1926644
985.20 0.1926061
985.30 0.1925478
985.40 0.1924896
985.50 0.1924313
985.60 0.1923731
985.70 0.1923149
985.80 0.1922567
985.90 0.1921986
986.00 0.1921404
986.10 0.1920823
986.20 0.1920242
986.30 0.1919661
986.40 0.1919081
986.50 0.19185
986.60 0.191792
986.70 0.191734
986.80 0.191676
986.90 0.1916181
987.00 0.1915601
987.10 0.1915022
987.20 0.1914443
987.30 0.1913864
987.40 0.1913285
987.50 0.1912707
987.60 0.1912129
987.70 0.1911551
987.80 0.1910973
987.90 0.1910395
988.00 0.1909817
988.10 0.190924
988.20 0.1908663
988.30 0.1908086
988.40 0.190751
988.50 0.1906933
988.60 0.1906357
988.70 0.1905781
988.80 0.1905205
988.90 0.1904629
989.00 0.1904053
989.10 0.1903478
989.20 0.1902903
989.30 0.1902328
989.40 0.1901753
989.50 0.1901179
989.60 0.1900604
989.70 0.190003
989.80 0.1899456
989.90 0.1898882
990.00 0.1898309
990.10 0.1897735
990.20 0.1897162
990.30 0.1896589
990.40 0.1896016
990.50 0.1895443
990.60 0.1894871
990.70 0.1894299
990.80 0.1893727
990.90 0.1893155
991.00 0.1892583
991.10 0.1892012
991.20 0.1891443
991.30 0.1890874
991.40 0.1890305
991.50 0.1889736
991.60 0.1889167
991.70 0.1888599
991.80 0.188803
991.90 0.1887462
992.00 0.1886894
992.10 0.1886327
992.20 0.1885759
992.30 0.1885192
992.40 0.1884625
992.50 0.1884058
992.60 0.1883491
992.70 0.1882924
992.80 0.1882358
992.90 0.1881792
993.00 0.1881226
993.10 0.188066
993.20 0.1880094
993.30 0.1879529
993.40 0.1878963
993.50 0.1878398
993.60 0.1877834
993.70 0.1877269
993.80 0.1876704
993.90 0.187614
994.00 0.1875576
994.10 0.1875012
994.20 0.1874448
994.30 0.1873885
994.40 0.1873321
994.50 0.1872758
994.60 0.1872195
994.70 0.1871632
994.80 0.187107
994.90 0.1870507
995.00 0.1869945
995.10 0.1869383
995.20 0.1868821
995.30 0.186826
995.40 0.1867698
995.50 0.1867137
995.60 0.1866576
995.70 0.1866015
995.80 0.1865454
995.90 0.1864894
996.00 0.1864333
996.10 0.1863758
996.20 0.1863179
996.30 0.1862601
996.40 0.1862023
996.50 0.1861445
996.60 0.1860867
996.70 0.186029
996.80 0.1859712
996.90 0.1859135
997.00 0.1858558
997.10 0.1857981
997.20 0.1857405
997.30 0.1856829
997.40 0.1856252
997.50 0.1855676
997.60 0.1855101
997.70 0.1854525
997.80 0.185395
997.90 0.1853374
998.00 0.1852799
998.10 0.1852225
998.20 0.185165
998.30 0.1851075
998.40 0.1850501
998.50 0.1849927
998.60 0.1849353
998.70 0.184878
998.80 0.1848206
998.90 0.1847633
999.00 0.184706
999.10 0.1846487
999.20 0.1845914
999.30 0.1845342
999.40 0.1844769
999.50 0.1844197
999.60 0.1843625
999.70 0.1843053
999.80 0.1842482
999.90 0.1841911
1000.00 0.1841339
1000.10 0.1840768
1000.20 0.1840198
1000.30 0.1839627
1000.40 0.1839057
1000.50 0.1838486
1000.60 0.1837916
1000.70 0.1837347
1000.80 0.1836777
1000.90 0.1836207
1001.00 0.1835643
1001.10 0.1835095
1001.20 0.1834546
1001.30 0.1833997
1001.40 0.1833449
1001.50 0.1832901
1001.60 0.1832353
1001.70 0.1831805
1001.80 0.1831258
1001.90 0.183071
1002.00 0.1830163
1002.10 0.1829616
1002.20 0.1829069
1002.30 0.1828522
1002.40 0.1827976
1002.50 0.182743
1002.60 0.1826883
1002.70 0.1826337
1002.80 0.1825792
1002.90 0.1825246
1003.00 0.1824701
1003.10 0.1824155
1003.20 0.182361
1003.30 0.1823065
1003.40 0.1822521
1003.50 0.1821976
1003.60 0.1821432
1003.70 0.1820888
1003.80 0.1820344
1003.90 0.18198
1004.00 0.1819256
1004.10 0.1818713
1004.20 0.181817
1004.30 0.1817627
1004.40 0.1817084
1004.50 0.1816541
1004.60 0.1815999
1004.70 0.1815456
1004.80 0.1814914
1004.90 0.1814372
1005.00 0.181383
1005.10 0.1813289
1005.20 0.1812747
1005.30 0.1812206
1005.40 0.1811665
1005.50 0.1811124
1005.60 0.1810583
1005.70 0.1810043
1005.80 0.1809502
1005.90 0.1808962
1006.00 0.1808422
1006.10 0.1807882
1006.20 0.1807343
1006.30 0.1806803
1006.40 0.1806264
1006.50 0.1805725
1006.60 0.1805186
1006.70 0.1804647
1006.80 0.1804108
1006.90 0.180357
1007.00 0.1803031
1007.10 0.1802493
1007.20 0.1801955
1007.30 0.1801418
1007.40 0.180088
1007.50 0.1800343
1007.60 0.1799806
1007.70 0.1799269
1007.80 0.1798732
1007.90 0.1798195
1008.00 0.1797659
1008.10 0.1797122
1008.20 0.1796586
1008.30 0.179605
1008.40 0.1795514
1008.50 0.1794979
1008.60 0.1794443
1008.70 0.1793908
1008.80 0.1793373
1008.90 0.1792838
1009.00 0.1792304
1009.10 0.1791769
1009.20 0.1791235
1009.30 0.17907
1009.40 0.1790166
1009.50 0.1789633
1009.60 0.1789099
1009.70 0.1788566
1009.80 0.1788032
1009.90 0.1787499
1010.00 0.1786966
1010.10 0.1786433
1010.20 0.1785901
1010.30 0.1785368
1010.40 0.1784836
1010.50 0.1784304
1010.60 0.1783772
1010.70 0.178324
1010.80 0.1782709
1010.90 0.1782178
1011.00 0.1781647
1011.10 0.1781117
1011.20 0.1780588
1011.30 0.178006
1011.40 0.1779531
1011.50 0.1779002
1011.60 0.1778474
1011.70 0.1777946
1011.80 0.1777418
1011.90 0.177689
1012.00 0.1776362
1012.10 0.1775835
1012.20 0.1775308
1012.30 0.177478
1012.40 0.1774254
1012.50 0.1773727
1012.60 0.17732
1012.70 0.1772674
1012.80 0.1772147
1012.90 0.1771621
1013.00 0.1771095
1013.10 0.177057
1013.20 0.1770044
1013.30 0.1769519
1013.40 0.1768994
1013.50 0.1768468
1013.60 0.1767944
1013.70 0.1767419
1013.80 0.1766894
1013.90 0.176637
1014.00 0.1765846
1014.10 0.1765322
1014.20 0.1764798
1014.30 0.1764274
1014.40 0.1763751
1014.50 0.1763228
1014.60 0.1762704
1014.70 0.1762181
1014.80 0.1761659
1014.90 0.1761136
1015.00 0.1760614
1015.10 0.1760091
1015.20 0.1759569
1015.30 0.1759047
1015.40 0.1758525
1015.50 0.1758004
1015.60 0.1757482
1015.70 0.1756961
1015.80 0.175644
1015.90 0.1755919
1016.00 0.1755398
1016.10 0.1754867
1016.20 0.1754329
1016.30 0.1753791
1016.40 0.1753254
1016.50 0.1752716
1016.60 0.1752179
1016.70 0.1751642
1016.80 0.1751105
1016.90 0.1750569
1017.00 0.1750032
1017.10 0.1749496
1017.20 0.174896
1017.30 0.1748424
1017.40 0.1747888
1017.50 0.1747352
1017.60 0.1746817
1017.70 0.1746282
1017.80 0.1745747
1017.90 0.1745212
1018.00 0.1744677
1018.10 0.1744142
1018.20 0.1743608
1018.30 0.1743074
1018.40 0.174254
1018.50 0.1742006
1018.60 0.1741472
1018.70 0.1740939
1018.80 0.1740406
1018.90 0.1739872
1019.00 0.1739339
1019.10 0.1738807
1019.20 0.1738274
1019.30 0.1737742
1019.40 0.1737209
1019.50 0.1736677
1019.60 0.1736145
1019.70 0.1735614
1019.80 0.1735082
1019.90 0.1734551
1020.00 0.1734019
1020.10 0.1733488
1020.20 0.1732958
1020.30 0.1732427
1020.40 0.1731896
1020.50 0.1731366
1020.60 0.1730836
1020.70 0.1730306
1020.80 0.1729776
1020.90 0.1729246
1021.00 0.1728717
1021.10 0.1728189
1021.20 0.1727679
1021.30 0.1727169
1021.40 0.1726659
1021.50 0.172615
1021.60 0.1725641
1021.70 0.1725131
1021.80 0.1724622
1021.90 0.1724113
1022.00 0.1723605
1022.10 0.1723096
1022.20 0.1722588
1022.30 0.1722079
1022.40 0.1721571
1022.50 0.1721064
1022.60 0.1720556
1022.70 0.1720048
1022.80 0.1719541
1022.90 0.1719034
1023.00 0.1718527
1023.10 0.171802
1023.20 0.1717513
1023.30 0.1717006
1023.40 0.17165
1023.50 0.1715994
1023.60 0.1715488
1023.70 0.1714982
1023.80 0.1714476
1023.90 0.171397
1024.00 0.1713465
1024.10 0.171296
1024.20 0.1712455
1024.30 0.171195
1024.40 0.1711445
1024.50 0.1710941
1024.60 0.1710436
1024.70 0.1709932
1024.80 0.1709428
1024.90 0.1708924
1025.00 0.170842
1025.10 0.1707916
1025.20 0.1707413
1025.30 0.170691
1025.40 0.1706407
1025.50 0.1705904
1025.60 0.1705401
1025.70 0.1704898
1025.80 0.1704396
1025.90 0.1703894
1026.00 0.1703391
1026.10 0.1702889
1026.20 0.1702388
1026.30 0.1701886
1026.40 0.1701384
1026.50 0.1700883
1026.60 0.1700382
1026.70 0.1699881
1026.80 0.169938
1026.90 0.1698879
1027.00 0.1698379
1027.10 0.1697879
1027.20 0.1697378
1027.30 0.1696878
1027.40 0.1696378
1027.50 0.1695879
1027.60 0.1695379
1027.70 0.169488
1027.80 0.169438
1027.90 0.1693881
1028.00 0.1693383
1028.10 0.1692884
1028.20 0.1692385
1028.30 0.1691887
1028.40 0.1691389
1028.50 0.169089
1028.60 0.1690392
1028.70 0.1689895
1028.80 0.1689397
1028.90 0.16889
1029.00 0.1688402
1029.10 0.1687905
1029.20 0.1687408
1029.30 0.1686911
1029.40 0.1686415
1029.50 0.1685918
1029.60 0.1685422
1029.70 0.1684926
1029.80 0.168443
1029.90 0.1683934
1030.00 0.1683438
1030.10 0.1682943
1030.20 0.1682447
1030.30 0.1681952
1030.40 0.1681457
1030.50 0.1680962
1030.60 0.1680468
1030.70 0.1679973
1030.80 0.1679479
1030.90 0.1678984
1031.00 0.167849
1031.10 0.1677997
1031.20 0.1677503
1031.30 0.1677009
1031.40 0.1676517
1031.50 0.1676026
1031.60 0.1675534
1031.70 0.1675043
1031.80 0.1674552
1031.90 0.1674061
1032.00 0.167357
1032.10 0.167308
1032.20 0.1672589
1032.30 0.1672099
1032.40 0.1671609
1032.50 0.1671119
1032.60 0.1670629
1032.70 0.1670139
1032.80 0.166965
1032.90 0.166916
1033.00 0.1668671
1033.10 0.1668182
1033.20 0.1667693
1033.30 0.1667205
1033.40 0.1666716
1033.50 0.1666228
1033.60 0.1665739
1033.70 0.1665251
1033.80 0.1664763
1033.90 0.1664276
1034.00 0.1663788
1034.10 0.16633
1034.20 0.1662813
1034.30 0.1662326
1034.40 0.1661839
1034.50 0.1661352
1034.60 0.1660866
1034.70 0.1660379
1034.80 0.1659893
1034.90 0.1659406
1035.00 0.165892
1035.10 0.1658434
1035.20 0.1657949
1035.30 0.1657463
1035.40 0.1656978
1035.50 0.1656492
1035.60 0.1656007
1035.70 0.1655522
1035.80 0.1655038
1035.90 0.1654553
1036.00 0.1654069
1036.10 0.1653584
1036.20 0.16531
1036.30 0.1652616
1036.40 0.1652132
1036.50 0.1651642
1036.60 0.1651142
1036.70 0.1650642
1036.80 0.1650142
1036.90 0.1649643
1037.00 0.1649143
1037.10 0.1648644
1037.20 0.1648145
1037.30 0.1647646
1037.40 0.1647147
1037.50 0.1646649
1037.60 0.164615
1037.70 0.1645652
1037.80 0.1645154
1037.90 0.1644656
1038.00 0.1644158
1038.10 0.164366
1038.20 0.1643163
1038.30 0.1642666
1038.40 0.1642168
1038.50 0.1641671
1038.60 0.1641175
1038.70 0.1640678
1038.80 0.1640181
1038.90 0.1639685
1039.00 0.1639189
1039.10 0.1638693
1039.20 0.1638197
1039.30 0.1637701
1039.40 0.1637206
1039.50 0.163671
1039.60 0.1636215
1039.70 0.163572
1039.80 0.1635225
1039.90 0.163473
1040.00 0.1634236
1040.10 0.1633741
1040.20 0.1633247
1040.30 0.1632753
1040.40 0.1632259
1040.50 0.1631765
1040.60 0.1631272
1040.70 0.1630778
1040.80 0.1630285
1040.90 0.1629792
1041.00 0.1629299
1041.10 0.1628806
1041.20 0.1628313
1041.30 0.1627821
1041.40 0.1627328
1041.50 0.1626836
1041.60 0.1626344
1041.70 0.1625867
1041.80 0.1625393
1041.90 0.162492
1042.00 0.1624446
1042.10 0.1623973
1042.20 0.16235
1042.30 0.1623027
1042.40 0.1622554
1042.50 0.1622081
1042.60 0.1621609
1042.70 0.1621136
1042.80 0.1620664
1042.90 0.1620192
1043.00 0.161972
1043.10 0.1619248
1043.20 0.1618776
1043.30 0.1618305
1043.40 0.1617834
1043.50 0.1617362
1043.60 0.1616891
1043.70 0.1616421
1043.80 0.161595
1043.90 0.1615479
1044.00 0.1615009
1044.10 0.1614538
1044.20 0.1614068
1044.30 0.1613598
1044.40 0.1613128
1044.50 0.1612659
1044.60 0.1612189
1044.70 0.161172
1044.80 0.1611251
1044.90 0.1610782
1045.00 0.1610313
1045.10 0.1609844
1045.20 0.1609375
1045.30 0.1608907
1045.40 0.1608438
1045.50 0.160797
1045.60 0.1607502
1045.70 0.1607034
1045.80 0.1606567
1045.90 0.1606099
1046.00 0.1605632
1046.10 0.1605164
1046.20 0.1604697
1046.30 0.160423
1046.40 0.1603763
1046.50 0.1603297
1046.60 0.160283
1046.70 0.1602364
1046.80 0.1601897
1046.90 0.1601431
1047.00 0.1600965
1047.10 0.16005
1047.20 0.1600034
1047.30 0.1599568
1047.40 0.1599103
1047.50 0.1598638
1047.60 0.1598173
1047.70 0.1597708
1047.80 0.1597243
1047.90 0.1596779
1048.00 0.1596314
1048.10 0.159585
1048.20 0.1595386
1048.30 0.1594922
1048.40 0.1594458
1048.50 0.1593994
1048.60 0.159353
1048.70 0.1593067
1048.80 0.1592604
1048.90 0.1592141
1049.00 0.1591678
1049.10 0.1591215
1049.20 0.1590752
1049.30 0.159029
1049.40 0.1589827
1049.50 0.1589365
1049.60 0.1588903
1049.70 0.1588441
1049.80 0.1587979
1049.90 0.1587517
1050.00 0.1587056
1050.10 0.1586595
1050.20 0.1586133
1050.30 0.1585672
1050.40 0.1585211
1050.50 0.1584751
1050.60 0.158429
1050.70 0.1583829
1050.80 0.1583369
1050.90 0.1582909
1051.00 0.1582449
1051.10 0.1581989
1051.20 0.1581529
1051.30 0.158107
1051.40 0.158061
1051.50 0.1580151
1051.60 0.1579692
1051.70 0.1579233
1051.80 0.1578774
1051.90 0.1578315
1052.00 0.1577857
1052.10 0.1577394
1052.20 0.1576929
1052.30 0.1576465
1052.40 0.1576001
1052.50 0.1575537
1052.60 0.1575073
1052.70 0.1574609
1052.80 0.1574145
1052.90 0.1573682
1053.00 0.1573218
1053.10 0.1572755
1053.20 0.1572292
1053.30 0.1571829
1053.40 0.1571366
1053.50 0.1570904
1053.60 0.1570441
1053.70 0.1569979
1053.80 0.1569517
1053.90 0.1569055
1054.00 0.1568593
1054.10 0.1568131
1054.20 0.1567669
1054.30 0.1567208
1054.40 0.1566747
1054.50 0.1566285
1054.60 0.1565824
1054.70 0.1565364
1054.80 0.1564903
1054.90 0.1564442
1055.00 0.1563982
1055.10 0.1563522
1055.20 0.1563061
1055.30 0.1562602
1055.40 0.1562142
1055.50 0.1561682
1055.60 0.1561222
1055.70 0.1560763
1055.80 0.1560304
1055.90 0.1559845
1056.00 0.1559386
1056.10 0.1558927
1056.20 0.1558468
1056.30 0.155801
1056.40 0.1557551
1056.50 0.1557093
1056.60 0.1556635
1056.70 0.1556177
1056.80 0.1555719
1056.90 0.1555262
1057.00 0.1554804
1057.10 0.1554347
1057.20 0.1553889
1057.30 0.1553432
1057.40 0.1552975
1057.50 0.1552519
1057.60 0.1552062
1057.70 0.1551606
1057.80 0.1551149
1057.90 0.1550693
1058.00 0.1550237
1058.10 0.1549781
1058.20 0.1549325
1058.30 0.154887
1058.40 0.1548414
1058.50 0.1547959
1058.60 0.1547504
1058.70 0.1547049
1058.80 0.1546594
1058.90 0.1546139
1059.00 0.1545684
1059.10 0.154523
1059.20 0.1544776
1059.30 0.1544321
1059.40 0.1543867
1059.50 0.1543413
1059.60 0.154296
1059.70 0.1542506
1059.80 0.1542053
1059.90 0.1541599
1060.00 0.1541146
1060.10 0.1540693
1060.20 0.154024
1060.30 0.1539787
1060.40 0.1539335
1060.50 0.1538882
1060.60 0.153843
1060.70 0.1537978
1060.80 0.1537526
1060.90 0.1537074
1061.00 0.1536622
1061.10 0.1536171
1061.20 0.1535719
1061.30 0.1535268
1061.40 0.1534817
1061.50 0.1534366
1061.60 0.1533915
1061.70 0.1533464
1061.80 0.1533013
1061.90 0.1532563
1062.00 0.1532113
1062.10 0.1531663
1062.20 0.1531212
1062.30 0.1530763
1062.40 0.1530313
1062.50 0.1529863
1062.60 0.1529418
1062.70 0.1528978
1062.80 0.1528538
1062.90 0.1528098
1063.00 0.1527658
1063.10 0.1527219
1063.20 0.1526779
1063.30 0.152634
1063.40 0.1525901
1063.50 0.1525462
1063.60 0.1525023
1063.70 0.1524584
1063.80 0.1524146
1063.90 0.1523707
1064.00 0.1523269
1064.10 0.1522831
1064.20 0.1522393
1064.30 0.1521955
1064.40 0.1521517
1064.50 0.152108
1064.60 0.1520642
1064.70 0.1520205
1064.80 0.1519768
1064.90 0.151933
1065.00 0.1518894
1065.10 0.1518457
1065.20 0.151802
1065.30 0.1517584
1065.40 0.1517147
1065.50 0.1516711
1065.60 0.1516275
1065.70 0.1515839
1065.80 0.1515403
1065.90 0.1514967
1066.00 0.1514532
1066.10 0.1514096
1066.20 0.1513661
1066.30 0.1513226
1066.40 0.1512791
1066.50 0.1512356
1066.60 0.1511921
1066.70 0.1511487
1066.80 0.1511052
1066.90 0.1510618
1067.00 0.1510184
1067.10 0.1509749
1067.20 0.1509316
1067.30 0.1508882
1067.40 0.1508448
1067.50 0.1508015
1067.60 0.1507581
1067.70 0.1507148
1067.80 0.1506715
1067.90 0.1506282
1068.00 0.1505849
1068.10 0.1505416
1068.20 0.1504984
1068.30 0.1504551
1068.40 0.1504119
1068.50 0.1503687
1068.60 0.1503255
1068.70 0.1502823
1068.80 0.1502391
1068.90 0.1501959
1069.00 0.1501528
1069.10 0.1501096
1069.20 0.1500665
1069.30 0.1500234
1069.40 0.1499803
1069.50 0.1499372
1069.60 0.1498941
1069.70 0.1498511
1069.80 0.149808
1069.90 0.149765
1070.00 0.149722
1070.10 0.149679
1070.20 0.149636
1070.30 0.149593
1070.40 0.1495501
1070.50 0.1495071
1070.60 0.1494642
1070.70 0.1494213
1070.80 0.1493784
1070.90 0.1493355
1071.00 0.1492926
1071.10 0.1492497
1071.20 0.1492068
1071.30 0.149164
1071.40 0.1491212
1071.50 0.1490784
1071.60 0.1490356
1071.70 0.1489928
1071.80 0.14895
1071.90 0.1489072
1072.00 0.1488645
1072.10 0.1488218
1072.20 0.148779
1072.30 0.1487363
1072.40 0.1486936
1072.50 0.1486509
1072.60 0.1486083
1072.70 0.1485656
1072.80 0.148523
1072.90 0.1484804
1073.00 0.1484377
1073.10 0.1483951
1073.20 0.1483523
1073.30 0.1483084
1073.40 0.1482645
1073.50 0.1482206
1073.60 0.1481767
1073.70 0.1481329
1073.80 0.1480891
1073.90 0.1480452
1074.00 0.1480014
1074.10 0.1479576
1074.20 0.1479139
1074.30 0.1478701
1074.40 0.1478263
1074.50 0.1477826
1074.60 0.1477389
1074.70 0.1476952
1074.80 0.1476515
1074.90 0.1476078
1075.00 0.1475641
1075.10 0.1475205
1075.20 0.1474768
1075.30 0.1474332
1075.40 0.1473896
1075.50 0.147346
1075.60 0.1473024
1075.70 0.1472588
1075.80 0.1472153
1075.90 0.1471717
1076.00 0.1471282
1076.10 0.1470847
1076.20 0.1470412
1076.30 0.1469977
1076.40 0.1469542
1076.50 0.1469107
1076.60 0.1468673
1076.70 0.1468238
1076.80 0.1467804
1076.90 0.146737
1077.00 0.1466936
1077.10 0.1466502
1077.20 0.1466068
1077.30 0.1465635
1077.40 0.1465202
1077.50 0.1464768
1077.60 0.1464335
1077.70 0.1463902
1077.80 0.1463469
1077.90 0.1463036
1078.00 0.1462604
1078.10 0.1462171
1078.20 0.1461739
1078.30 0.1461307
1078.40 0.1460875
1078.50 0.1460443
1078.60 0.1460019
1078.70 0.1459602
1078.80 0.1459185
1078.90 0.1458768
1079.00 0.1458352
1079.10 0.1457935
1079.20 0.1457519
1079.30 0.1457103
1079.40 0.1456686
1079.50 0.145627
1079.60 0.1455855
1079.70 0.1455439
1079.80 0.1455023
1079.90 0.1454608
1080.00 0.1454192
1080.10 0.1453777
1080.20 0.1453362
1080.30 0.1452947
1080.40 0.1452532
1080.50 0.1452118
1080.60 0.1451703
1080.70 0.1451289
1080.80 0.1450874
1080.90 0.145046
1081.00 0.1450046
1081.10 0.1449632
1081.20 0.1449218
1081.30 0.1448805
1081.40 0.1448391
1081.50 0.1447978
1081.60 0.1447564
1081.70 0.1447151
1081.80 0.1446738
1081.90 0.1446325
1082.00 0.1445912
1082.10 0.14455
1082.20 0.1445087
1082.30 0.1444675
1082.40 0.1444263
1082.50 0.144385
1082.60 0.1443438
1082.70 0.1443027
1082.80 0.1442615
1082.90 0.1442203
1083.00 0.1441792
1083.10 0.144138
1083.20 0.1440969
1083.30 0.1440558
1083.40 0.1440147
1083.50 0.1439736
1083.60 0.1439325
1083.70 0.1438915
1083.80 0.1438504
1083.90 0.1438094
1084.00 0.1437685
1084.10 0.1437276
1084.20 0.1436868
1084.30 0.1436459
1084.40 0.1436051
1084.50 0.1435643
1084.60 0.1435235
1084.70 0.1434827
1084.80 0.1434419
1084.90 0.1434011
1085.00 0.1433604
1085.10 0.1433196
1085.20 0.1432789
1085.30 0.1432382
1085.40 0.1431975
1085.50 0.1431568
1085.60 0.1431161
1085.70 0.1430755
1085.80 0.1430348
1085.90 0.1429942
1086.00 0.1429535
1086.10 0.1429129
1086.20 0.1428723
1086.30 0.1428317
1086.40 0.1427912
1086.50 0.1427506
1086.60 0.14271
1086.70 0.1426695
1086.80 0.142629
1086.90 0.1425885
1087.00 0.142548
1087.10 0.1425075
1087.20 0.142467
1087.30 0.1424265
1087.40 0.1423861
1087.50 0.1423456
1087.60 0.1423052
1087.70 0.1422648
1087.80 0.1422244
1087.90 0.142184
1088.00 0.1421436
1088.10 0.1421033
1088.20 0.1420629
1088.30 0.1420226
1088.40 0.1419822
1088.50 0.1419419
1088.60 0.1419016
1088.70 0.1418613
1088.80 0.1418211
1088.90 0.1417808
1089.00 0.1417405
1089.10 0.1417003
1089.20 0.1416601
1089.30 0.1416199
1089.40 0.1415796
1089.50 0.1415395
1089.60 0.1414993
1089.70 0.1414591
1089.80 0.1414189
1089.90 0.1413788
1090.00 0.1413387
1090.10 0.1412986
1090.20 0.1412584
1090.30 0.1412183
1090.40 0.1411783
1090.50 0.1411382
1090.60 0.1410981
1090.70 0.1410581
1090.80 0.1410181
1090.90 0.140978
1091.00 0.140938
1091.10 0.140898
1091.20 0.140858
1091.30 0.1408181
1091.40 0.1407781
1091.50 0.1407382
1091.60 0.1406982
1091.70 0.1406583
1091.80 0.1406184
1091.90 0.1405785
1092.00 0.1405386
1092.10 0.1404987
1092.20 0.1404589
1092.30 0.140419
1092.40 0.1403792
1092.50 0.1403394
1092.60 0.1402996
1092.70 0.1402598
1092.80 0.14022
1092.90 0.1401802
1093.00 0.1401404
1093.10 0.1401007
1093.20 0.1400609
1093.30 0.1400212
1093.40 0.1399815
1093.50 0.1399418
1093.60 0.1399021
1093.70 0.1398624
1093.80 0.1398228
1093.90 0.1397831
1094.00 0.1397435
1094.10 0.1397038
1094.20 0.1396642
1094.30 0.1396246
1094.40 0.139585
1094.50 0.1395454
1094.60 0.1395059
1094.70 0.1394663
1094.80 0.1394265
1094.90 0.1393864
1095.00 0.1393463
1095.10 0.1393063
1095.20 0.1392662
1095.30 0.1392262
1095.40 0.1391861
1095.50 0.1391461
1095.60 0.1391061
1095.70 0.1390661
1095.80 0.1390262
1095.90 0.1389862
1096.00 0.1389462
1096.10 0.1389063
1096.20 0.1388664
1096.30 0.1388265
1096.40 0.1387866
1096.50 0.1387467
1096.60 0.1387068
1096.70 0.1386669
1096.80 0.1386271
1096.90 0.1385872
1097.00 0.1385474
1097.10 0.1385076
1097.20 0.1384678
1097.30 0.138428
1097.40 0.1383882
1097.50 0.1383484
1097.60 0.1383087
1097.70 0.1382689
1097.80 0.1382292
1097.90 0.1381895
1098.00 0.1381498
1098.10 0.1381101
1098.20 0.1380704
1098.30 0.1380307
1098.40 0.1379911
1098.50 0.1379514
1098.60 0.1379118
1098.70 0.1378722
1098.80 0.1378325
1098.90 0.1377929
1099.00 0.1377534
1099.10 0.1377138
1099.20 0.1376742
1099.30 0.1376347
1099.40 0.1375951
1099.50 0.1375556
1099.60 0.1375161
1099.70 0.1374766
1099.80 0.1374371
1099.90 0.1373976
1100.00 0.1373582
1100.10 0.1373187
1100.20 0.1372793
1100.30 0.1372398
1100.40 0.1372004
1100.50 0.137161
1100.60 0.1371216
1100.70 0.1370822
1100.80 0.1370429
1100.90 0.1370035
1101.00 0.1369642
1101.10 0.1369248
1101.20 0.1368855
1101.30 0.1368462
1101.40 0.1368069
1101.50 0.1367676
1101.60 0.1367283
1101.70 0.1366891
1101.80 0.1366498
1101.90 0.1366106
1102.00 0.1365714
1102.10 0.1365322
1102.20 0.136493
1102.30 0.1364538
1102.40 0.1364146
1102.50 0.1363754
1102.60 0.1363363
1102.70 0.1362971
1102.80 0.136258
1102.90 0.1362189
1103.00 0.1361798
1103.10 0.1361407
1103.20 0.1361016
1103.30 0.1360625
1103.40 0.1360235
1103.50 0.1359844
1103.60 0.1359454
1103.70 0.1359064
1103.80 0.1358674
1103.90 0.1358284
1104.00 0.1357894
1104.10 0.1357504
1104.20 0.1357115
1104.30 0.1356725
1104.40 0.1356336
1104.50 0.1355946
1104.60 0.1355557
1104.70 0.1355168
1104.80 0.1354779
1104.90 0.1354391
1105.00 0.1354002
1105.10 0.1353613
1105.20 0.1353225
1105.30 0.1352837
1105.40 0.1352448
1105.50 0.135206
1105.60 0.1351672
1105.70 0.1351285
1105.80 0.1350905
1105.90 0.1350526
1106.00 0.1350146
1106.10 0.1349767
1106.20 0.1349388
1106.30 0.1349009
1106.40 0.134863
1106.50 0.1348251
1106.60 0.1347873
1106.70 0.1347494
1106.80 0.1347116
1106.90 0.1346738
1107.00 0.1346359
1107.10 0.1345981
1107.20 0.1345603
1107.30 0.1345226
1107.40 0.1344848
1107.50 0.134447
1107.60 0.1344093
1107.70 0.1343715
1107.80 0.1343338
1107.90 0.1342961
1108.00 0.1342584
1108.10 0.1342207
1108.20 0.134183
1108.30 0.1341454
1108.40 0.1341077
1108.50 0.1340701
1108.60 0.1340324
1108.70 0.1339948
1108.80 0.1339572
1108.90 0.1339196
1109.00 0.133882
1109.10 0.1338444
1109.20 0.1338069
1109.30 0.1337693
1109.40 0.1337318
1109.50 0.1336942
1109.60 0.1336567
1109.70 0.1336192
1109.80 0.1335817
1109.90 0.1335442
1110.00 0.1335067
1110.10 0.1334693
1110.20 0.1334318
1110.30 0.1333944
1110.40 0.1333569
1110.50 0.1333195
1110.60 0.1332821
1110.70 0.1332447
1110.80 0.1332073
1110.90 0.13317
1111.00 0.1331326
1111.10 0.1330953
1111.20 0.1330579
1111.30 0.1330206
1111.40 0.1329833
1111.50 0.132946
1111.60 0.1329087
1111.70 0.1328714
1111.80 0.1328341
1111.90 0.1327969
1112.00 0.1327596
1112.10 0.1327224
1112.20 0.1326851
1112.30 0.1326479
1112.40 0.1326107
1112.50 0.1325735
1112.60 0.1325363
1112.70 0.1324992
1112.80 0.132462
1112.90 0.1324249
1113.00 0.1323877
1113.10 0.1323506
1113.20 0.1323135
1113.30 0.1322764
1113.40 0.1322393
1113.50 0.1322022
1113.60 0.1321651
1113.70 0.1321281
1113.80 0.132091
1113.90 0.132054
1114.00 0.132017
1114.10 0.13198
1114.20 0.131943
1114.30 0.131906
1114.40 0.131869
1114.50 0.131832
1114.60 0.1317951
1114.70 0.1317581
1114.80 0.1317212
1114.90 0.1316842
1115.00 0.1316473
1115.10 0.1316104
1115.20 0.1315735
1115.30 0.1315367
1115.40 0.1314998
1115.50 0.1314629
1115.60 0.1314261
1115.70 0.1313892
1115.80 0.1313524
1115.90 0.1313156
1116.00 0.1312788
1116.10 0.131242
1116.20 0.1312052
1116.30 0.1311685
1116.40 0.1311317
1116.50 0.131095
1116.60 0.1310582
1116.70 0.1310215
1116.80 0.1309848
1116.90 0.1309483
1117.00 0.1309117
1117.10 0.1308752
1117.20 0.1308386
1117.30 0.1308021
1117.40 0.1307656
1117.50 0.1307291
1117.60 0.1306926
1117.70 0.1306561
1117.80 0.1306196
1117.90 0.1305832
1118.00 0.1305467
1118.10 0.1305103
1118.20 0.1304738
1118.30 0.1304374
1118.40 0.130401
1118.50 0.1303646
1118.60 0.1303282
1118.70 0.1302919
1118.80 0.1302555
1118.90 0.1302191
1119.00 0.1301828
1119.10 0.1301465
1119.20 0.1301102
1119.30 0.1300738
1119.40 0.1300375
1119.50 0.1300013
1119.60 0.129965
1119.70 0.1299287
1119.80 0.1298925
1119.90 0.1298562
1120.00 0.12982
1120.10 0.1297838
1120.20 0.1297476
1120.30 0.1297114
1120.40 0.1296752
1120.50 0.129639
1120.60 0.1296028
1120.70 0.1295667
1120.80 0.1295305
1120.90 0.1294944
1121.00 0.1294583
1121.10 0.1294221
1121.20 0.129386
1121.30 0.12935
1121.40 0.1293139
1121.50 0.1292778
1121.60 0.1292417
1121.70 0.1292057
1121.80 0.1291697
1121.90 0.1291336
1122.00 0.1290976
1122.10 0.1290616
1122.20 0.1290256
1122.30 0.1289896
1122.40 0.1289529
1122.50 0.1289156
1122.60 0.1288784
1122.70 0.1288411
1122.80 0.1288039
1122.90 0.1287667
1123.00 0.1287295
1123.10 0.1286923
1123.20 0.1286551
1123.30 0.1286179
1123.40 0.1285807
1123.50 0.1285436
1123.60 0.1285064
1123.70 0.1284693
1123.80 0.1284322
1123.90 0.1283951
1124.00 0.128358
1124.10 0.1283209
1124.20 0.1282838
1124.30 0.1282468
1124.40 0.1282097
1124.50 0.1281727
1124.60 0.1281357
1124.70 0.1280986
1124.80 0.1280616
1124.90 0.1280246
1125.00 0.1279877
1125.10 0.1279507
1125.20 0.1279137
1125.30 0.1278768
1125.40 0.1278398
1125.50 0.1278029
1125.60 0.127766
1125.70 0.1277291
1125.80 0.1276922
1125.90 0.1276553
1126.00 0.1276184
1126.10 0.1275816
1126.20 0.1275447
1126.30 0.1275079
1126.40 0.1274711
1126.50 0.1274342
1126.60 0.1273974
1126.70 0.1273606
1126.80 0.1273239
1126.90 0.1272871
1127.00 0.1272503
1127.10 0.1272136
1127.20 0.1271768
1127.30 0.1271401
1127.40 0.1271034
1127.50 0.1270667
1127.60 0.12703
1127.70 0.1269933
1127.80 0.1269566
1127.90 0.12692
1128.00 0.1268844
1128.10 0.1268492
1128.20 0.126814
1128.30 0.1267788
1128.40 0.1267436
1128.50 0.1267084
1128.60 0.1266732
1128.70 0.1266381
1128.80 0.1266029
1128.90 0.1265678
1129.00 0.1265326
1129.10 0.1264975
1129.20 0.1264624
1129.30 0.1264273
1129.40 0.1263922
1129.50 0.1263571
1129.60 0.1263221
1129.70 0.126287
1129.80 0.126252
1129.90 0.1262169
1130.00 0.1261819
1130.10 0.1261469
1130.20 0.1261119
1130.30 0.1260769
1130.40 0.1260419
1130.50 0.1260069
1130.60 0.125972
1130.70 0.125937
1130.80 0.1259021
1130.90 0.1258671
1131.00 0.1258322
1131.10 0.1257973
1131.20 0.1257624
1131.30 0.1257275
1131.40 0.1256926
1131.50 0.1256578
1131.60 0.1256229
1131.70 0.1255881
1131.80 0.1255532
1131.90 0.1255184
1132.00 0.1254836
1132.10 0.1254488
1132.20 0.125414
1132.30 0.1253792
1132.40 0.1253444
1132.50 0.1253096
1132.60 0.1252749
1132.70 0.1252401
1132.80 0.1252054
1132.90 0.1251707
1133.00 0.1251359
1133.10 0.1251012
1133.20 0.1250665
1133.30 0.1250319
1133.40 0.1249972
1133.50 0.1249625
1133.60 0.1249279
1133.70 0.1248932
1133.80 0.1248586
1133.90 0.124824
1134.00 0.1247894
1134.10 0.1247548
1134.20 0.1247202
1134.30 0.1246856
1134.40 0.124651
1134.50 0.1246165
1134.60 0.1245819
1134.70 0.1245474
1134.80 0.1245128
1134.90 0.1244783
1135.00 0.1244438
1135.10 0.1244093
1135.20 0.1243748
1135.30 0.1243403
1135.40 0.1243059
1135.50 0.1242714
1135.60 0.124237
1135.70 0.1242025
1135.80 0.1241681
1135.90 0.1241337
1136.00 0.1240993
1136.10 0.1240649
1136.20 0.1240305
1136.30 0.1239961
1136.40 0.1239617
1136.50 0.1239274
1136.60 0.123893
1136.70 0.1238587
1136.80 0.1238244
1136.90 0.1237901
1137.00 0.1237557
1137.10 0.1237215
1137.20 0.1236872
1137.30 0.1236529
1137.40 0.1236186
1137.50 0.1235844
1137.60 0.1235501
1137.70 0.1235159
1137.80 0.1234817
1137.90 0.1234475
1138.00 0.1234132
1138.10 0.1233791
1138.20 0.1233449
1138.30 0.1233107
1138.40 0.1232765
1138.50 0.1232424
1138.60 0.1232082
1138.70 0.1231741
1138.80 0.12314
1138.90 0.1231059
1139.00 0.1230718
1139.10 0.1230377
1139.20 0.1230036
1139.30 0.1229696
1139.40 0.1229357
1139.50 0.1229018
1139.60 0.1228678
1139.70 0.1228339
1139.80 0.1228
1139.90 0.1227661
1140.00 0.1227323
1140.10 0.1226984
1140.20 0.1226645
1140.30 0.1226307
1140.40 0.1225968
1140.50 0.122563
1140.60 0.1225292
1140.70 0.1224954
1140.80 0.1224616
1140.90 0.1224278
1141.00 0.122394
1141.10 0.1223602
1141.20 0.1223265
1141.30 0.1222927
1141.40 0.122259
1141.50 0.1222252
1141.60 0.1221915
1141.70 0.1221578
1141.80 0.1221241
1141.90 0.1220904
1142.00 0.1220567
1142.10 0.1220231
1142.20 0.1219894
1142.30 0.1219557
1142.40 0.1219221
1142.50 0.1218885
1142.60 0.1218549
1142.70 0.1218212
1142.80 0.1217876
1142.90 0.121754
1143.00 0.1217205
1143.10 0.1216869
1143.20 0.1216533
1143.30 0.1216198
1143.40 0.1215862
1143.50 0.1215527
1143.60 0.1215192
1143.70 0.1214857
1143.80 0.1214522
1143.90 0.1214187
1144.00 0.1213852
1144.10 0.1213517
1144.20 0.1213182
1144.30 0.1212848
1144.40 0.1212513
1144.50 0.1212179
1144.60 0.1211845
1144.70 0.1211511
1144.80 0.1211177
1144.90 0.1210843
1145.00 0.1210509
1145.10 0.1210175
1145.20 0.1209841
1145.30 0.1209508
1145.40 0.1209174
1145.50 0.1208841
1145.60 0.1208508
1145.70 0.1208175
1145.80 0.1207842
1145.90 0.1207509
1146.00 0.1207176
1146.10 0.1206843
1146.20 0.120651
1146.30 0.1206178
1146.40 0.1205845
1146.50 0.1205513
1146.60 0.1205181
1146.70 0.1204848
1146.80 0.1204516
1146.90 0.1204184
1147.00 0.1203852
1147.10 0.1203521
1147.20 0.1203189
1147.30 0.1202857
1147.40 0.1202526
1147.50 0.1202194
1147.60 0.1201863
1147.70 0.1201532
1147.80 0.1201201
1147.90 0.120087
1148.00 0.1200539
1148.10 0.1200208
1148.20 0.1199877
1148.30 0.1199547
1148.40 0.1199216
1148.50 0.1198886
1148.60 0.1198555
1148.70 0.1198225
1148.80 0.1197895
1148.90 0.1197565
1149.00 0.1197235
1149.10 0.1196905
1149.20 0.1196575
1149.30 0.1196246
1149.40 0.1195916
1149.50 0.1195587
1149.60 0.1195257
1149.70 0.1194928
1149.80 0.1194599
1149.90 0.119427
1150.00 0.1193941
1150.10 0.1193612
1150.20 0.1193283
1150.30 0.1192954
1150.40 0.1192626
1150.50 0.1192297
1150.60 0.1191969
1150.70 0.1191642
1150.80 0.1191315
1150.90 0.1190988
1151.00 0.1190661
1151.10 0.1190334
1151.20 0.1190007
1151.30 0.1189681
1151.40 0.1189354
1151.50 0.1189028
1151.60 0.1188702
1151.70 0.1188376
1151.80 0.1188049
1151.90 0.1187723
1152.00 0.1187398
1152.10 0.1187072
1152.20 0.1186746
1152.30 0.118642
1152.40 0.1186095
1152.50 0.118577
1152.60 0.1185444
1152.70 0.1185119
1152.80 0.1184794
1152.90 0.1184469
1153.00 0.1184144
1153.10 0.1183819
1153.20 0.1183494
1153.30 0.118317
1153.40 0.1182845
1153.50 0.1182521
1153.60 0.1182196
1153.70 0.1181872
1153.80 0.1181548
1153.90 0.1181224
1154.00 0.11809
1154.10 0.1180576
1154.20 0.1180252
1154.30 0.1179928
1154.40 0.1179605
1154.50 0.1179281
1154.60 0.1178958
1154.70 0.1178634
1154.80 0.1178311
1154.90 0.1177988
1155.00 0.1177665
1155.10 0.1177342
1155.20 0.1177019
1155.30 0.1176696
1155.40 0.1176374
1155.50 0.1176051
1155.60 0.1175729
1155.70 0.1175406
1155.80 0.1175084
1155.90 0.1174762
1156.00 0.117444
1156.10 0.1174118
1156.20 0.1173796
1156.30 0.1173474
1156.40 0.1173152
1156.50 0.117283
1156.60 0.1172509
1156.70 0.1172188
1156.80 0.1171866
1156.90 0.1171545
1157.00 0.1171224
1157.10 0.1170903
1157.20 0.1170582
1157.30 0.1170261
1157.40 0.116994
1157.50 0.116962
1157.60 0.1169299
1157.70 0.1168979
1157.80 0.1168658
1157.90 0.1168338
1158.00 0.1168018
1158.10 0.1167698
1158.20 0.1167378
1158.30 0.1167058
1158.40 0.1166738
1158.50 0.1166418
1158.60 0.1166098
1158.70 0.1165779
1158.80 0.1165459
1158.90 0.116514
1159.00 0.1164821
1159.10 0.1164502
1159.20 0.1164183
1159.30 0.1163864
1159.40 0.1163545
1159.50 0.1163226
1159.60 0.1162907
1159.70 0.1162588
1159.80 0.116227
1159.90 0.1161952
1160.00 0.1161633
1160.10 0.1161315
1160.20 0.1160997
1160.30 0.1160679
1160.40 0.1160361
1160.50 0.1160043
1160.60 0.1159725
1160.70 0.1159407
1160.80 0.115909
1160.90 0.1158772
1161.00 0.1158455
1161.10 0.1158137
1161.20 0.115782
1161.30 0.1157503
1161.40 0.1157186
1161.50 0.1156869
1161.60 0.1156552
1161.70 0.1156235
1161.80 0.1155919
1161.90 0.1155602
1162.00 0.1155286
1162.10 0.1154969
1162.20 0.1154642
1162.30 0.1154316
1162.40 0.1153989
1162.50 0.1153663
1162.60 0.1153336
1162.70 0.115301
1162.80 0.1152684
1162.90 0.1152357
1163.00 0.1152031
1163.10 0.1151705
1163.20 0.1151379
1163.30 0.1151054
1163.40 0.1150728
1163.50 0.1150402
1163.60 0.1150077
1163.70 0.1149751
1163.80 0.1149426
1163.90 0.1149101
1164.00 0.1148776
1164.10 0.1148451
1164.20 0.1148126
1164.30 0.1147801
1164.40 0.1147476
1164.50 0.1147152
1164.60 0.1146827
1164.70 0.1146503
1164.80 0.1146178
1164.90 0.1145854
1165.00 0.114553
1165.10 0.1145206
1165.20 0.1144882
1165.30 0.1144558
1165.40 0.1144234
1165.50 0.114391
1165.60 0.1143587
1165.70 0.1143263
1165.80 0.114294
1165.90 0.1142617
1166.00 0.1142293
1166.10 0.114197
1166.20 0.1141647
1166.30 0.1141324
1166.40 0.1141001
1166.50 0.1140679
1166.60 0.1140356
1166.70 0.1140033
1166.80 0.1139711
1166.90 0.1139389
1167.00 0.1139066
1167.10 0.1138744
1167.20 0.1138422
1167.30 0.11381
1167.40 0.1137778
1167.50 0.1137456
1167.60 0.1137135
1167.70 0.1136813
1167.80 0.1136491
1167.90 0.113617
1168.00 0.1135859
1168.10 0.1135549
1168.20 0.113524
1168.30 0.113493
1168.40 0.1134621
1168.50 0.1134311
1168.60 0.1134002
1168.70 0.1133693
1168.80 0.1133384
1168.90 0.1133075
1169.00 0.1132766
1169.10 0.1132457
1169.20 0.1132148
1169.30 0.113184
1169.40 0.1131531
1169.50 0.1131223
1169.60 0.1130914
1169.70 0.1130606
1169.80 0.1130298
1169.90 0.112999
1170.00 0.1129682
1170.10 0.1129374
1170.20 0.1129066
1170.30 0.1128758
1170.40 0.112845
1170.50 0.1128143
1170.60 0.1127835
1170.70 0.1127528
1170.80 0.1127221
1170.90 0.1126913
1171.00 0.1126606
1171.10 0.1126299
1171.20 0.1125992
1171.30 0.1125685
1171.40 0.1125379
1171.50 0.1125072
1171.60 0.1124765
1171.70 0.1124459
1171.80 0.1124152
1171.90 0.1123846
1172.00 0.112354
1172.10 0.1123234
1172.20 0.1122928
1172.30 0.1122622
1172.40 0.1122316
1172.50 0.112201
1172.60 0.1121704
1172.70 0.1121399
1172.80 0.1121093
1172.90 0.1120788
1173.00 0.1120482
1173.10 0.1120177
1173.20 0.1119872
1173.30 0.1119567
1173.40 0.1119262
1173.50 0.1118957
1173.60 0.1118652
1173.70 0.1118347
1173.80 0.1118043
1173.90 0.111774
1174.00 0.1117436
1174.10 0.1117133
1174.20 0.111683
1174.30 0.1116527
1174.40 0.1116224
1174.50 0.1115921
1174.60 0.1115618
1174.70 0.1115315
1174.80 0.1115012
1174.90 0.111471
1175.00 0.1114407
1175.10 0.1114105
1175.20 0.1113803
1175.30 0.11135
1175.40 0.1113198
1175.50 0.1112896
1175.60 0.1112594
1175.70 0.1112292
1175.80 0.111199
1175.90 0.1111689
1176.00 0.1111387
1176.10 0.1111085
1176.20 0.1110784
1176.30 0.1110482
1176.40 0.1110181
1176.50 0.110988
1176.60 0.1109579
1176.70 0.1109278
1176.80 0.1108977
1176.90 0.1108676
1177.00 0.1108375
1177.10 0.1108074
1177.20 0.1107774
1177.30 0.1107473
1177.40 0.1107173
1177.50 0.1106873
1177.60 0.1106572
1177.70 0.1106272
1177.80 0.1105972
1177.90 0.1105672
1178.00 0.1105372
1178.10 0.1105072
1178.20 0.1104772
1178.30 0.1104473
1178.40 0.1104173
1178.50 0.1103874
1178.60 0.1103574
1178.70 0.1103275
1178.80 0.1102976
1178.90 0.1102677
1179.00 0.1102377
1179.10 0.1102079
1179.20 0.110178
1179.30 0.1101481
1179.40 0.1101182
1179.50 0.1100883
1179.60 0.1100585
1179.70 0.1100286
1179.80 0.1099988
1179.90 0.109969
1180.00 0.1099392
1180.10 0.1099093
1180.20 0.1098795
1180.30 0.1098498
1180.40 0.10982
1180.50 0.1097902
1180.60 0.1097604
1180.70 0.1097307
1180.80 0.1097009
1180.90 0.1096712
1181.00 0.1096414
1181.10 0.1096117
1181.20 0.109582
1181.30 0.1095523
1181.40 0.1095226
1181.50 0.1094929
1181.60 0.1094632
1181.70 0.1094335
1181.80 0.1094039
1181.90 0.1093742
1182.00 0.1093446
1182.10 0.1093149
1182.20 0.1092853
1182.30 0.1092557
1182.40 0.109226
1182.50 0.1091964
1182.60 0.1091668
1182.70 0.1091372
1182.80 0.1091077
1182.90 0.1090781
1183.00 0.1090485
1183.10 0.109019
1183.20 0.1089894
1183.30 0.1089599
1183.40 0.1089304
1183.50 0.1089008
1183.60 0.1088713
1183.70 0.1088418
1183.80 0.1088123
1183.90 0.1087828
1184.00 0.1087533
1184.10 0.1087239
1184.20 0.1086944
1184.30 0.108665
1184.40 0.1086355
1184.50 0.1086061
1184.60 0.1085766
1184.70 0.1085472
1184.80 0.1085178
1184.90 0.1084884
1185.00 0.108459
1185.10 0.1084296
1185.20 0.1084002
1185.30 0.1083709
1185.40 0.1083415
1185.50 0.1083122
1185.60 0.1082829
1185.70 0.1082537
1185.80 0.1082245
1185.90 0.1081953
1186.00 0.1081661
1186.10 0.1081369
1186.20 0.1081077
1186.30 0.1080785
1186.40 0.1080493
1186.50 0.1080202
1186.60 0.107991
1186.70 0.1079619
1186.80 0.1079327
1186.90 0.1079036
1187.00 0.1078745
1187.10 0.1078454
1187.20 0.1078163
1187.30 0.1077872
1187.40 0.1077581
1187.50 0.107729
1187.60 0.1076999
1187.70 0.1076709
1187.80 0.1076418
1187.90 0.1076128
1188.00 0.1075837
1188.10 0.1075547
1188.20 0.1075257
1188.30 0.1074967
1188.40 0.1074676
1188.50 0.1074387
1188.60 0.1074097
1188.70 0.1073807
1188.80 0.1073517
1188.90 0.1073227
1189.00 0.1072938
1189.10 0.1072648
1189.20 0.1072359
1189.30 0.107207
1189.40 0.107178
1189.50 0.1071491
1189.60 0.1071202
1189.70 0.1070913
1189.80 0.1070624
1189.90 0.1070335
1190.00 0.1070047
1190.10 0.1069758
1190.20 0.1069469
1190.30 0.1069181
1190.40 0.1068893
1190.50 0.1068604
1190.60 0.1068316
1190.70 0.1068028
1190.80 0.106774
1190.90 0.1067452
1191.00 0.1067164
1191.10 0.1066876
1191.20 0.1066588
1191.30 0.10663
1191.40 0.1066013
1191.50 0.1065725
1191.60 0.1065438
1191.70 0.106515
1191.80 0.1064863
1191.90 0.1064576
1192.00 0.1064289
1192.10 0.1064002
1192.20 0.1063715
1192.30 0.1063428
1192.40 0.1063141
1192.50 0.1062855
1192.60 0.1062568
1192.70 0.1062281
1192.80 0.1061995
1192.90 0.1061709
1193.00 0.1061422
1193.10 0.1061136
1193.20 0.106085
1193.30 0.1060564
1193.40 0.1060278
1193.50 0.1059992
1193.60 0.1059706
1193.70 0.105942
1193.80 0.1059135
1193.90 0.1058849
1194.00 0.1058564
1194.10 0.1058278
1194.20 0.1057993
1194.30 0.1057708
1194.40 0.1057422
1194.50 0.1057137
1194.60 0.1056852
1194.70 0.1056567
1194.80 0.1056283
1194.90 0.1055998
1195.00 0.1055713
1195.10 0.1055429
1195.20 0.1055144
1195.30 0.105486
1195.40 0.1054575
1195.50 0.1054291
1195.60 0.1054007
1195.70 0.1053723
1195.80 0.1053439
1195.90 0.1053155
1196.00 0.1052871
1196.10 0.1052587
1196.20 0.1052303
1196.30 0.105202
1196.40 0.1051736
1196.50 0.1051453
1196.60 0.1051169
1196.70 0.1050886
1196.80 0.1050603
1196.90 0.1050319
1197.00 0.1050036
1197.10 0.1049753
1197.20 0.104947
1197.30 0.1049188
1197.40 0.1048906
1197.50 0.1048624
1197.60 0.1048343
1197.70 0.1048061
1197.80 0.104778
1197.90 0.1047498
1198.00 0.1047217
1198.10 0.1046936
1198.20 0.1046655
1198.30 0.1046374
1198.40 0.1046093
1198.50 0.1045812
1198.60 0.1045532
1198.70 0.1045251
1198.80 0.104497
1198.90 0.104469
1199.00 0.104441
1199.10 0.1044129
1199.20 0.1043849
1199.30 0.1043569
1199.40 0.1043289
1199.50 0.1043009
1199.60 0.1042729
1199.70 0.1042449
1199.80 0.1042169
1199.90 0.1041889
1200.00 0.104161
