# Version 2.1 - nm, norm@500 to 1, cut digits, bergeron_He_3500_75.dat_3500
# Wavelength(nm)  Flambda(ergs/cm^s/s/nm)
300.00 0.01113058
300.10 0.0111756
300.20 0.01122078
300.30 0.01126612
300.40 0.01131287
300.50 0.01135956
300.60 0.01140618
300.70 0.01145274
300.80 0.01149923
300.90 0.01154566
301.00 0.01159203
301.10 0.01163833
301.20 0.01168456
301.30 0.01173074
301.40 0.01177685
301.50 0.01182289
301.60 0.01186887
301.70 0.01191479
301.80 0.01196065
301.90 0.01200644
302.00 0.01205217
302.10 0.01210096
302.20 0.01215003
302.30 0.01219903
302.40 0.01224797
302.50 0.01229684
302.60 0.01234564
302.70 0.01239437
302.80 0.01244304
302.90 0.01249164
303.00 0.01254017
303.10 0.01258864
303.20 0.01263704
303.30 0.01268565
303.40 0.0127367
303.50 0.01278768
303.60 0.01283859
303.70 0.01288943
303.80 0.0129402
303.90 0.01299091
304.00 0.01304154
304.10 0.0130921
304.20 0.0131426
304.30 0.01319302
304.40 0.01324338
304.50 0.01329366
304.60 0.01334687
304.70 0.01340035
304.80 0.01345375
304.90 0.01350707
305.00 0.01356032
305.10 0.01361351
305.20 0.01366661
305.30 0.01371965
305.40 0.01377261
305.50 0.0138255
305.60 0.01387832
305.70 0.01393107
305.80 0.01398374
305.90 0.01403635
306.00 0.01408888
306.10 0.01414134
306.20 0.01419372
306.30 0.01424604
306.40 0.01430249
306.50 0.01436013
306.60 0.01441768
306.70 0.01447516
306.80 0.01453255
306.90 0.01458987
307.00 0.01464712
307.10 0.01470428
307.20 0.01476137
307.30 0.01481838
307.40 0.01487531
307.50 0.01493217
307.60 0.01498895
307.70 0.01504565
307.80 0.01510227
307.90 0.01515882
308.00 0.01521529
308.10 0.01527169
308.20 0.015328
308.30 0.01538425
308.40 0.01544041
308.50 0.0154965
308.60 0.01555252
308.70 0.01560845
308.80 0.01566512
308.90 0.01572399
309.00 0.0157831
309.10 0.01584213
309.20 0.01590108
309.30 0.01595995
309.40 0.01601911
309.50 0.01608049
309.60 0.01614179
309.70 0.01620301
309.80 0.01626414
309.90 0.01632519
310.00 0.01638616
310.10 0.01644705
310.20 0.01650786
310.30 0.01656858
310.40 0.01662988
310.50 0.0166918
310.60 0.01675364
310.70 0.0168154
310.80 0.01687707
310.90 0.01693866
311.00 0.01700231
311.10 0.01706588
311.20 0.01712936
311.30 0.01719307
311.40 0.01725758
311.50 0.01732201
311.60 0.01738634
311.70 0.0174506
311.80 0.01751476
311.90 0.01757884
312.00 0.01764284
312.10 0.01770675
312.20 0.0177715
312.30 0.01783751
312.40 0.01790284
312.50 0.01796717
312.60 0.01803366
312.70 0.01810006
312.80 0.01816638
312.90 0.01823299
313.00 0.01829995
313.10 0.01836681
313.20 0.01843359
313.30 0.01850069
313.40 0.01856888
313.50 0.01863698
313.60 0.01870498
313.70 0.0187729
313.80 0.01884073
313.90 0.01890847
314.00 0.01897611
314.10 0.01904598
314.20 0.01911574
314.30 0.01918542
314.40 0.019255
314.50 0.0193245
314.60 0.0193939
314.70 0.0194632
314.80 0.0195333
314.90 0.01960463
315.00 0.01967458
315.10 0.01974624
315.20 0.0198178
315.30 0.01988927
315.40 0.01996065
315.50 0.02003193
315.60 0.02010311
315.70 0.02017623
315.80 0.02024925
315.90 0.02032217
316.00 0.020395
316.10 0.02046686
316.20 0.02053863
316.30 0.02061203
316.40 0.02068534
316.50 0.020762
316.60 0.02083511
316.70 0.02090985
316.80 0.02098449
316.90 0.02105903
317.00 0.02113347
317.10 0.02120781
317.20 0.02128206
317.30 0.02135745
317.40 0.02143312
317.50 0.02150979
317.60 0.02158635
317.70 0.02166281
317.80 0.02173918
317.90 0.02181552
318.00 0.02189288
318.10 0.0219705
318.20 0.02204803
318.30 0.02212546
318.40 0.022203
318.50 0.02228108
318.60 0.02235949
318.70 0.02243906
318.80 0.02251802
318.90 0.02259789
319.00 0.02267715
319.10 0.0227563
319.20 0.0228356
319.30 0.02291549
319.40 0.02299527
319.50 0.02307495
319.60 0.02315462
319.70 0.02323588
319.80 0.02331704
319.90 0.02339809
320.00 0.02347934
320.10 0.02356083
320.20 0.02364388
320.30 0.02372525
320.40 0.02380911
320.50 0.02389085
320.60 0.02397422
320.70 0.02405675
320.80 0.02413998
320.90 0.02422397
321.00 0.02430786
321.10 0.02439163
321.20 0.02447418
321.30 0.02455976
321.40 0.02464523
321.50 0.02473059
321.60 0.02481583
321.70 0.02490097
321.80 0.02498647
321.90 0.02507239
322.00 0.0251572
322.10 0.02524478
322.20 0.02533224
322.30 0.0254196
322.40 0.02550684
322.50 0.02559396
322.60 0.02568098
322.70 0.02576788
322.80 0.02585615
322.90 0.02594614
323.00 0.02603602
323.10 0.02612578
323.20 0.02621543
323.30 0.02630496
323.40 0.02639438
323.50 0.02648367
323.60 0.02657286
323.70 0.02666193
323.80 0.02675088
323.90 0.02683972
324.00 0.02693058
324.10 0.02702132
324.20 0.02711195
324.30 0.02720307
324.40 0.02729619
324.50 0.02738961
324.60 0.02748291
324.70 0.02757608
324.80 0.02766914
324.90 0.02776208
325.00 0.0278549
325.10 0.0279476
325.20 0.02804078
325.30 0.02813509
325.40 0.02822929
325.50 0.0283239
325.60 0.02841903
325.70 0.02851404
325.80 0.02860893
325.90 0.02870421
326.00 0.02879992
326.10 0.0288955
326.20 0.02899096
326.30 0.02908704
326.40 0.02918511
326.50 0.02928494
326.60 0.02938464
326.70 0.02948421
326.80 0.02958366
326.90 0.02968298
327.00 0.02978217
327.10 0.02988123
327.20 0.02998017
327.30 0.03007898
327.40 0.03017766
327.50 0.03027622
327.60 0.03037466
327.70 0.03047296
327.80 0.03057114
327.90 0.03067012
328.00 0.03077085
328.10 0.03087253
328.20 0.03097407
328.30 0.03107549
328.40 0.03117677
328.50 0.0312793
328.60 0.03138202
328.70 0.0314846
328.80 0.03158797
328.90 0.03169378
329.00 0.03179946
329.10 0.031905
329.20 0.03201041
329.30 0.03211569
329.40 0.03222083
329.50 0.03232584
329.60 0.03243072
329.70 0.03253546
329.80 0.03264007
329.90 0.03274454
330.00 0.03285058
330.10 0.03295854
330.20 0.03306637
330.30 0.03317406
330.40 0.03328236
330.50 0.03339135
330.60 0.0335002
330.70 0.03360891
330.80 0.03371748
330.90 0.03382591
331.00 0.03393421
331.10 0.03404237
331.20 0.0341504
331.30 0.03425828
331.40 0.03436603
331.50 0.03447843
331.60 0.03459653
331.70 0.03471448
331.80 0.03482853
331.90 0.03494227
332.00 0.03505588
332.10 0.03516934
332.20 0.03528265
332.30 0.03539583
332.40 0.03550886
332.50 0.03562175
332.60 0.0357345
332.70 0.0358471
332.80 0.03595956
332.90 0.03607189
333.00 0.03618407
333.10 0.03629761
333.20 0.03641283
333.30 0.03652791
333.40 0.03664285
333.50 0.03675764
333.60 0.03687229
333.70 0.03698679
333.80 0.03710115
333.90 0.03721537
334.00 0.03732944
334.10 0.03744709
334.20 0.03756913
334.30 0.03769101
334.40 0.03781274
334.50 0.03793433
334.60 0.03805575
334.70 0.03816564
334.80 0.03827557
334.90 0.03840566
335.00 0.03853558
335.10 0.03864472
335.20 0.0387755
335.30 0.03890228
335.40 0.03900586
335.50 0.03913617
335.60 0.03926633
335.70 0.03938942
335.80 0.03950392
335.90 0.03962173
336.00 0.03974361
336.10 0.03986533
336.20 0.0399869
336.30 0.04011175
336.40 0.04024065
336.50 0.04036939
336.60 0.04049797
336.70 0.04062639
336.80 0.04075465
336.90 0.04088208
337.00 0.04100851
337.10 0.04113479
337.20 0.04126091
337.30 0.04138791
337.40 0.04151624
337.50 0.04164441
337.60 0.04177243
337.70 0.04190028
337.80 0.04202797
337.90 0.04215822
338.00 0.04229162
338.10 0.04242485
338.20 0.04255792
338.30 0.04269082
338.40 0.0428231
338.50 0.04295409
338.60 0.04308492
338.70 0.04321559
338.80 0.0433461
338.90 0.04347645
339.00 0.04360663
339.10 0.04373666
339.20 0.04386652
339.30 0.04400154
339.40 0.04414405
339.50 0.04428412
339.60 0.04442126
339.70 0.04455822
339.80 0.04469502
339.90 0.04483165
340.00 0.04496811
340.10 0.0451044
340.20 0.04524053
340.30 0.04537649
340.40 0.04551228
340.50 0.0456479
340.60 0.04578335
340.70 0.04591864
340.80 0.04605581
340.90 0.04619574
341.00 0.04633568
341.10 0.04647565
341.20 0.04661545
341.30 0.04675508
341.40 0.04689453
341.50 0.04703381
341.60 0.04717293
341.70 0.04731187
341.80 0.04745407
341.90 0.04760028
342.00 0.04774631
342.10 0.04789216
342.20 0.04803262
342.30 0.04816992
342.40 0.04831292
342.50 0.04845777
342.60 0.04860245
342.70 0.04874696
342.80 0.04889128
342.90 0.04903543
343.00 0.04918358
343.10 0.04933664
343.20 0.04948952
343.30 0.04964221
343.40 0.04979245
343.50 0.04993926
343.60 0.05008589
343.70 0.05023234
343.80 0.05037861
343.90 0.0505247
344.00 0.05067361
344.10 0.05082664
344.20 0.05097949
344.30 0.05113215
344.40 0.05128164
344.50 0.05142665
344.60 0.05158865
344.70 0.0517333
344.80 0.05187849
344.90 0.05203732
345.00 0.05218404
345.10 0.05234248
345.20 0.05249977
345.30 0.05265548
345.40 0.052811
345.50 0.05295787
345.60 0.05310288
345.70 0.05326019
345.80 0.05341731
345.90 0.05357424
346.00 0.05373098
346.10 0.05388753
346.20 0.05404625
346.30 0.05420819
346.40 0.05436993
346.50 0.05453147
346.60 0.05469281
346.70 0.05485397
346.80 0.05501492
346.90 0.05517568
347.00 0.05533625
347.10 0.05549662
347.20 0.05565828
347.30 0.05582188
347.40 0.05598528
347.50 0.05614848
347.60 0.05631148
347.70 0.05647428
347.80 0.05663689
347.90 0.05679931
348.00 0.05696152
348.10 0.05712354
348.20 0.05728537
348.30 0.057447
348.40 0.05760844
348.50 0.05776968
348.60 0.05793072
348.70 0.05810414
348.80 0.0582789
348.90 0.05844997
349.00 0.05862083
349.10 0.0587915
349.20 0.05896195
349.30 0.0591322
349.40 0.05930225
349.50 0.05947209
349.60 0.05964173
349.70 0.05981117
349.80 0.0599804
349.90 0.06014943
350.00 0.06031825
350.10 0.06048687
350.20 0.06065529
350.30 0.06082606
350.40 0.06100029
350.50 0.06117432
350.60 0.06134813
350.70 0.06152174
350.80 0.06169514
350.90 0.06186833
351.00 0.06204131
351.10 0.06221409
351.20 0.06238666
351.30 0.06255902
351.40 0.0627334
351.50 0.0629115
351.60 0.06308939
351.70 0.06326707
351.80 0.06344453
351.90 0.06362179
352.00 0.06379883
352.10 0.06397566
352.20 0.06416264
352.30 0.06434808
352.40 0.06452977
352.50 0.06471123
352.60 0.06489248
352.70 0.06507351
352.80 0.06525433
352.90 0.06543493
353.00 0.06561531
353.10 0.06579549
353.20 0.06597544
353.30 0.06615519
353.40 0.06633471
353.50 0.06652001
353.60 0.06670657
353.70 0.06689291
353.80 0.06707903
353.90 0.06726653
354.00 0.06745662
354.10 0.06764649
354.20 0.06783613
354.30 0.06802555
354.40 0.06821474
354.50 0.06840371
354.60 0.06859246
354.70 0.06878098
354.80 0.06897065
354.90 0.06916207
355.00 0.06935327
355.10 0.06954423
355.20 0.06973497
355.30 0.06992447
355.40 0.07011373
355.50 0.07030278
355.60 0.0704916
355.70 0.07068455
355.80 0.07087923
355.90 0.07107707
356.00 0.07127778
356.10 0.07147753
356.20 0.07167704
356.30 0.07187632
356.40 0.07207536
356.50 0.07227416
356.60 0.07247274
356.70 0.07267107
356.80 0.07286918
356.90 0.07306705
357.00 0.07326469
357.10 0.07346209
357.20 0.07365926
357.30 0.07385621
357.40 0.07405422
357.50 0.0742543
357.60 0.07445416
357.70 0.07465378
357.80 0.07485754
357.90 0.07506107
358.00 0.07526662
358.10 0.07547248
358.20 0.07567811
358.30 0.07588349
358.40 0.07608863
358.50 0.07629353
358.60 0.07649819
358.70 0.07670261
358.80 0.0769068
358.90 0.07711074
359.00 0.07731658
359.10 0.07752599
359.20 0.07773374
359.30 0.07793183
359.40 0.07812969
359.50 0.0783408
359.60 0.07855503
359.70 0.07876901
359.80 0.07897811
359.90 0.07918698
360.00 0.07939764
360.10 0.07961172
360.20 0.07982554
360.30 0.08003911
360.40 0.08025243
360.50 0.0804655
360.60 0.08067629
360.70 0.08089063
360.80 0.08110473
360.90 0.08131857
361.00 0.08154138
361.10 0.08175924
361.20 0.08195835
361.30 0.08219371
361.40 0.08241292
361.50 0.08263187
361.60 0.08285057
361.70 0.08306901
361.80 0.08328868
361.90 0.08351074
362.00 0.08373254
362.10 0.08394493
362.20 0.08416033
362.30 0.08438534
362.40 0.08461008
362.50 0.08483457
362.60 0.08505879
362.70 0.08527046
362.80 0.08549195
362.90 0.0857191
363.00 0.08594598
363.10 0.08617402
363.20 0.0864018
363.30 0.0866188
363.40 0.0868591
363.50 0.08707295
363.60 0.08731271
363.70 0.08753476
363.80 0.08776526
363.90 0.08799053
364.00 0.08821553
364.10 0.08844028
364.20 0.08866476
364.30 0.08890221
364.40 0.0891427
364.50 0.08935685
364.60 0.08959296
364.70 0.08982879
364.80 0.09006436
364.90 0.0903006
365.00 0.09053657
365.10 0.09077226
365.20 0.09099472
365.30 0.09124284
365.40 0.09147772
365.50 0.09171233
365.60 0.09194667
365.70 0.09217839
365.80 0.09240984
365.90 0.0926452
366.00 0.09288134
366.10 0.09312212
366.20 0.09336264
366.30 0.09360287
366.40 0.09384283
366.50 0.09409209
366.60 0.09432673
366.70 0.09456744
366.80 0.09480787
366.90 0.09504939
367.00 0.09529304
367.10 0.09553642
367.20 0.09577952
367.30 0.09602234
367.40 0.09626488
367.50 0.09651034
367.60 0.09675631
367.70 0.09700648
367.80 0.09725637
367.90 0.09750598
368.00 0.09775865
368.10 0.09799612
368.20 0.09824682
368.30 0.09849744
368.40 0.09874777
368.50 0.09899782
368.60 0.09924758
368.70 0.09949706
368.80 0.09974625
368.90 0.1000004
369.00 0.1002566
369.10 0.1005107
369.20 0.1007637
369.30 0.1010133
369.40 0.1012626
369.50 0.1015117
369.60 0.1017715
369.70 0.1020311
369.80 0.1022902
369.90 0.102549
370.00 0.1028075
370.10 0.1030723
370.20 0.1033322
370.30 0.1035915
370.40 0.1038506
370.50 0.1041093
370.60 0.1043678
370.70 0.1046291
370.80 0.1048854
370.90 0.1051414
371.00 0.1054003
371.10 0.1056588
371.20 0.1059264
371.30 0.1061938
371.40 0.1064563
371.50 0.1067208
371.60 0.1069851
371.70 0.107249
371.80 0.1075127
371.90 0.107776
372.00 0.1080496
372.10 0.1083126
372.20 0.108583
372.30 0.1088531
372.40 0.1091228
372.50 0.1093923
372.60 0.1096614
372.70 0.1099303
372.80 0.1102055
372.90 0.1104803
373.00 0.1107458
373.10 0.1110109
373.20 0.1112865
373.30 0.1115618
373.40 0.1118368
373.50 0.1121115
373.60 0.1123859
373.70 0.1126599
373.80 0.1129391
373.90 0.1132071
374.00 0.1134864
374.10 0.1137654
374.20 0.1140441
374.30 0.1143224
374.40 0.1146005
374.50 0.1148869
374.60 0.1151654
374.70 0.1154434
374.80 0.115721
374.90 0.1159983
375.00 0.1162806
375.10 0.1165626
375.20 0.1168443
375.30 0.1171327
375.40 0.1174207
375.50 0.1177085
375.60 0.1179959
375.70 0.1182829
375.80 0.1185697
375.90 0.1188561
376.00 0.1191319
376.10 0.1194198
376.20 0.1197076
376.30 0.119995
376.40 0.1202822
376.50 0.1205733
376.60 0.1208707
376.70 0.1211678
376.80 0.1214628
376.90 0.1217557
377.00 0.1220484
377.10 0.1223406
377.20 0.1226324
377.30 0.122923
377.40 0.1232132
377.50 0.1235031
377.60 0.1238014
377.70 0.1240994
377.80 0.124397
377.90 0.1246943
378.00 0.1249877
378.10 0.1252881
378.20 0.1255883
378.30 0.1258882
378.40 0.1261877
378.50 0.126487
378.60 0.1267858
378.70 0.1270844
378.80 0.1273826
378.90 0.1276838
379.00 0.1279908
379.10 0.1282985
379.20 0.1286059
379.30 0.1289116
379.40 0.1292155
379.50 0.1295191
379.60 0.1298189
379.70 0.1301167
379.80 0.1304272
379.90 0.1307374
380.00 0.1310472
380.10 0.1313567
380.20 0.1316659
380.30 0.1319747
380.40 0.1322831
380.50 0.1325912
380.60 0.1329159
380.70 0.1332255
380.80 0.1335348
380.90 0.1338438
381.00 0.1341524
381.10 0.1344688
381.20 0.1347889
381.30 0.1350932
381.40 0.1354099
381.50 0.1357287
381.60 0.1360509
381.70 0.1363746
381.80 0.1366976
381.90 0.1370053
382.00 0.1373363
382.10 0.1376433
382.20 0.1379641
382.30 0.1382822
382.40 0.1386021
382.50 0.1389248
382.60 0.1392472
382.70 0.1395666
382.80 0.139889
382.90 0.1402172
383.00 0.140545
383.10 0.1408725
383.20 0.1412001
383.30 0.1415295
383.40 0.1418586
383.50 0.1421876
383.60 0.1425023
383.70 0.1428334
383.80 0.143164
383.90 0.1434943
384.00 0.1438242
384.10 0.1441538
384.20 0.144483
384.30 0.1448118
384.40 0.1451429
384.50 0.1454762
384.60 0.1458091
384.70 0.1461417
384.80 0.1464738
384.90 0.1468094
385.00 0.1471536
385.10 0.1474966
385.20 0.1478167
385.30 0.1481537
385.40 0.1484924
385.50 0.1488329
385.60 0.1491731
385.70 0.1495128
385.80 0.1498531
385.90 0.1501963
386.00 0.1505427
386.10 0.1508917
386.20 0.1512342
386.30 0.1515763
386.40 0.1519142
386.50 0.1522584
386.60 0.1526093
386.70 0.1529523
386.80 0.1532891
386.90 0.1536314
387.00 0.1539894
387.10 0.1543251
387.20 0.1546886
387.30 0.1550185
387.40 0.155375
387.50 0.1557314
387.60 0.1560842
387.70 0.156435
387.80 0.1567853
387.90 0.1571353
388.00 0.1574842
388.10 0.1578339
388.20 0.1581849
388.30 0.1585401
388.40 0.158895
388.50 0.1592515
388.60 0.1596096
388.70 0.1599637
388.80 0.1603293
388.90 0.1606898
389.00 0.1610456
389.10 0.1614057
389.20 0.1617658
389.30 0.1621349
389.40 0.1624959
389.50 0.1628551
389.60 0.1632138
389.70 0.1635797
389.80 0.1639446
389.90 0.1643092
390.00 0.1646733
390.10 0.1650371
390.20 0.1654004
390.30 0.1657654
390.40 0.1661323
390.50 0.1664989
390.60 0.166865
390.70 0.1672307
390.80 0.1676008
390.90 0.1679752
391.00 0.1683415
391.10 0.1687162
391.20 0.1690899
391.30 0.1694619
391.40 0.1698341
391.50 0.170206
391.60 0.1705775
391.70 0.1709485
391.80 0.1713192
391.90 0.1716919
392.00 0.1720688
392.10 0.1724483
392.20 0.1728265
392.30 0.1732037
392.40 0.1735891
392.50 0.1739665
392.60 0.1743489
392.70 0.1747309
392.80 0.1751125
392.90 0.1754947
393.00 0.1758816
393.10 0.1762654
393.20 0.1766456
393.30 0.1770251
393.40 0.1774067
393.50 0.1777973
393.60 0.1781729
393.70 0.1785756
393.80 0.1789622
393.90 0.1793503
394.00 0.179737
394.10 0.1801215
394.20 0.1805158
394.30 0.1809086
394.40 0.1812861
394.50 0.1816833
394.60 0.1820749
394.70 0.1824673
394.80 0.1828632
394.90 0.1832582
395.00 0.1836395
395.10 0.1840446
395.20 0.1844428
395.30 0.1848395
395.40 0.1852358
395.50 0.1856351
395.60 0.1860351
395.70 0.1864345
395.80 0.186833
395.90 0.1872311
396.00 0.187628
396.10 0.1880203
396.20 0.1884209
396.30 0.1888359
396.40 0.1892428
396.50 0.1896422
396.60 0.1900411
396.70 0.1904447
396.80 0.1908553
396.90 0.1912687
397.00 0.1916637
397.10 0.1920787
397.20 0.1924768
397.30 0.1928917
397.40 0.1933041
397.50 0.193716
397.60 0.194127
397.70 0.1945332
397.80 0.1949389
397.90 0.1953473
398.00 0.1957636
398.10 0.1961794
398.20 0.1965969
398.30 0.1970162
398.40 0.1974346
398.50 0.1978379
398.60 0.198267
398.70 0.198687
398.80 0.199102
398.90 0.1995167
399.00 0.1999315
399.10 0.2003558
399.20 0.2007779
399.30 0.2011995
399.40 0.2016207
399.50 0.2020414
399.60 0.2024644
399.70 0.202888
399.80 0.2033111
399.90 0.2037338
400.00 0.2041562
400.10 0.2045858
400.20 0.2050204
400.30 0.2054439
400.40 0.2058698
400.50 0.2063034
400.60 0.2067365
400.70 0.2071608
400.80 0.2075926
400.90 0.2080268
401.00 0.2084504
401.10 0.2088938
401.20 0.2093224
401.30 0.2097576
401.40 0.2101938
401.50 0.2106292
401.60 0.2110643
401.70 0.2115031
401.80 0.2119312
401.90 0.212368
402.00 0.212805
402.10 0.2132603
402.20 0.2136727
402.30 0.2141537
402.40 0.2146429
402.50 0.2150986
402.60 0.2154412
402.70 0.2159509
402.80 0.2163763
402.90 0.2168014
403.00 0.2172259
403.10 0.2176501
403.20 0.2181948
403.30 0.2185771
403.40 0.2189346
403.50 0.2194141
403.60 0.2199227
403.70 0.2203976
403.80 0.2207305
403.90 0.2212233
404.00 0.2216747
404.10 0.2220785
404.20 0.2226035
404.30 0.2231278
404.40 0.2235556
404.50 0.2239637
404.60 0.2243809
404.70 0.2247978
404.80 0.2253381
404.90 0.2258409
405.00 0.2262711
405.10 0.2267315
405.20 0.2272212
405.30 0.2277104
405.40 0.228159
405.50 0.2286071
405.60 0.2290548
405.70 0.229502
405.80 0.2299487
405.90 0.230395
406.00 0.2308723
406.10 0.2313491
406.20 0.2318254
406.30 0.2323012
406.40 0.2327798
406.50 0.2332211
406.60 0.23368
406.70 0.2341268
406.80 0.2345829
406.90 0.2351279
407.00 0.2355967
407.10 0.2360651
407.20 0.2365329
407.30 0.2370003
407.40 0.2374672
407.50 0.2379336
407.60 0.2383995
407.70 0.2388649
407.80 0.2393298
407.90 0.2397938
408.00 0.2402437
408.10 0.2407873
408.20 0.2413093
408.30 0.2417315
408.40 0.2421533
408.50 0.242802
408.60 0.2432564
408.70 0.2437103
408.80 0.2441792
408.90 0.2447445
409.00 0.2452198
409.10 0.2456946
409.20 0.246169
409.30 0.2466428
409.40 0.2471159
409.50 0.247578
409.60 0.2480396
409.70 0.2485172
409.80 0.24906
409.90 0.2496003
410.00 0.2500775
410.10 0.2504695
410.20 0.2509637
410.30 0.2514831
410.40 0.2519939
410.50 0.2524785
410.60 0.2529626
410.70 0.2534576
410.80 0.2539978
410.90 0.2545373
411.00 0.2550157
411.10 0.2554711
411.20 0.2559261
411.30 0.2564045
411.40 0.2569767
411.50 0.2575011
411.60 0.258025
411.70 0.2585409
411.80 0.2590269
411.90 0.2594921
412.00 0.260079
412.10 0.2604617
412.20 0.2610474
412.30 0.2614666
412.40 0.262036
412.50 0.2626125
412.60 0.2630654
412.70 0.2635594
412.80 0.2640633
412.90 0.2646396
413.00 0.2650558
413.10 0.2655706
413.20 0.2660849
413.30 0.2665986
413.40 0.2671119
413.50 0.2676226
413.60 0.2681308
413.70 0.2686576
413.80 0.269184
413.90 0.2697097
414.00 0.2702471
414.10 0.2708222
414.20 0.2713484
414.30 0.271741
414.40 0.2722944
414.50 0.2728626
414.60 0.2734637
414.70 0.2739349
414.80 0.2744176
414.90 0.2749381
415.00 0.275458
415.10 0.2759773
415.20 0.2765046
415.30 0.2770584
415.40 0.2776115
415.50 0.2781629
415.60 0.2786747
415.70 0.279186
415.80 0.2796998
415.90 0.2802228
416.00 0.2807452
416.10 0.2812698
416.20 0.2818047
416.30 0.282339
416.40 0.2828728
416.50 0.2834069
416.60 0.283968
416.70 0.2845226
416.80 0.2850847
416.90 0.28555
417.00 0.2860866
417.10 0.2867621
417.20 0.2872205
417.30 0.2876816
417.40 0.288245
417.50 0.2888077
417.60 0.2893654
417.70 0.2899047
417.80 0.2904592
417.90 0.291013
418.00 0.2915663
418.10 0.292119
418.20 0.2926712
418.30 0.2932245
418.40 0.293819
418.50 0.2943644
418.60 0.2949093
418.70 0.2954536
418.80 0.2959973
418.90 0.2965405
419.00 0.2970832
419.10 0.2976253
419.20 0.2981668
419.30 0.2987082
419.40 0.2992603
419.50 0.2998118
419.60 0.3003699
419.70 0.3009561
419.80 0.3015417
419.90 0.3021224
420.00 0.3026888
420.10 0.3032546
420.20 0.3038198
420.30 0.3043844
420.40 0.3049485
420.50 0.305512
420.60 0.3060749
420.70 0.3066373
420.80 0.307199
420.90 0.3077601
421.00 0.3083155
421.10 0.3088704
421.20 0.3094302
421.30 0.3100057
421.40 0.3105806
421.50 0.311155
421.60 0.3117288
421.70 0.312302
421.80 0.3128746
421.90 0.3134566
422.00 0.3140693
422.10 0.3146762
422.20 0.3152613
422.30 0.3158458
422.40 0.3164298
422.50 0.317014
422.60 0.3175976
422.70 0.3181806
422.80 0.318763
422.90 0.3193449
423.00 0.3199261
423.10 0.3205068
423.20 0.3210868
423.30 0.3216663
423.40 0.3222453
423.50 0.3228236
423.60 0.3234013
423.70 0.3239785
423.80 0.3245551
423.90 0.3251311
424.00 0.3257065
424.10 0.3262814
424.20 0.3268556
424.30 0.3274293
424.40 0.3280425
424.50 0.3286437
424.60 0.3292443
424.70 0.3298444
424.80 0.3304438
424.90 0.3310426
425.00 0.3316408
425.10 0.3322384
425.20 0.3328354
425.30 0.3334319
425.40 0.3340302
425.50 0.3346445
425.60 0.3352583
425.70 0.3358715
425.80 0.336484
425.90 0.3370959
426.00 0.3377073
426.10 0.338318
426.20 0.3389281
426.30 0.3395375
426.40 0.3401464
426.50 0.3407547
426.60 0.3413624
426.70 0.3419694
426.80 0.3425759
426.90 0.3431824
427.00 0.3438117
427.10 0.3444404
427.20 0.3450685
427.30 0.3456959
427.40 0.3463227
427.50 0.3469489
427.60 0.3475744
427.70 0.3481993
427.80 0.3488237
427.90 0.3494473
428.00 0.3500704
428.10 0.3506928
428.20 0.3513147
428.30 0.3519359
428.40 0.3525565
428.50 0.3531764
428.60 0.3537958
428.70 0.3544145
428.80 0.3550341
428.90 0.3556729
429.00 0.3563111
429.10 0.3569487
429.20 0.3575856
429.30 0.3582218
429.40 0.3588575
429.50 0.3594925
429.60 0.3601269
429.70 0.3607606
429.80 0.3613937
429.90 0.3620262
430.00 0.3626581
430.10 0.3632893
430.20 0.36392
430.30 0.3645499
430.40 0.3651793
430.50 0.365808
430.60 0.3664362
430.70 0.3670637
430.80 0.3676905
430.90 0.3683168
431.00 0.3689424
431.10 0.3695674
431.20 0.3701918
431.30 0.3708184
431.40 0.3714825
431.50 0.3721458
431.60 0.3728085
431.70 0.3734706
431.80 0.374132
431.90 0.3747927
432.00 0.3754528
432.10 0.3761123
432.20 0.3767711
432.30 0.3774292
432.40 0.3780867
432.50 0.3787436
432.60 0.3793998
432.70 0.3800553
432.80 0.3807102
432.90 0.3813645
433.00 0.3820181
433.10 0.3826711
433.20 0.3833234
433.30 0.3839757
433.40 0.3846351
433.50 0.3852939
433.60 0.385952
433.70 0.3866094
433.80 0.3872519
433.90 0.3878761
434.00 0.3885347
434.10 0.389214
434.20 0.3898926
434.30 0.3905705
434.40 0.3912478
434.50 0.3919244
434.60 0.3926004
434.70 0.3932757
434.80 0.3939508
434.90 0.3946323
435.00 0.3953131
435.10 0.3959933
435.20 0.3966728
435.30 0.3973516
435.40 0.3980298
435.50 0.3987073
435.60 0.3993841
435.70 0.4000603
435.80 0.4007358
435.90 0.4014106
436.00 0.4020848
436.10 0.4027584
436.20 0.4034312
436.30 0.404073
436.40 0.4046841
436.50 0.4053879
436.60 0.406091
436.70 0.4067935
436.80 0.4074952
436.90 0.4081962
437.00 0.4088966
437.10 0.4095963
437.20 0.410295
437.30 0.4109928
437.40 0.4116892
437.50 0.412374
437.60 0.4130581
437.70 0.4137415
437.80 0.4144243
437.90 0.4151064
438.00 0.4157895
438.10 0.4164934
438.20 0.4171967
438.30 0.4178915
438.40 0.4186291
438.50 0.4193371
438.60 0.4200445
438.70 0.4207511
438.80 0.4214571
438.90 0.4220413
439.00 0.4226939
439.10 0.4234876
439.20 0.4242742
439.30 0.4249767
439.40 0.4256786
439.50 0.4263798
439.60 0.4270632
439.70 0.4277025
439.80 0.4284632
439.90 0.4291657
440.00 0.4298676
440.10 0.4305688
440.20 0.4312702
440.30 0.4319838
440.40 0.4326967
440.50 0.4334089
440.60 0.4341204
440.70 0.4348312
440.80 0.4355413
440.90 0.4362508
441.00 0.4369595
441.10 0.4376676
441.20 0.4383806
441.30 0.4391682
441.40 0.4399201
441.50 0.4406289
441.60 0.4413369
441.70 0.4421041
441.80 0.4428233
441.90 0.4435419
442.00 0.4442598
442.10 0.444977
442.20 0.4456935
442.30 0.4464092
442.40 0.4471287
442.50 0.4478528
442.60 0.4485763
442.70 0.4493002
442.80 0.4500289
442.90 0.4508048
443.00 0.4515503
443.10 0.4522588
443.20 0.4529788
443.30 0.4537093
443.40 0.4544538
443.50 0.4552156
443.60 0.4559371
443.70 0.4567852
443.80 0.457457
443.90 0.4582378
444.00 0.4590134
444.10 0.4597708
444.20 0.4604442
444.30 0.4611781
444.40 0.461906
444.50 0.4626331
444.60 0.4633876
444.70 0.4641756
444.80 0.464936
444.90 0.4656711
445.00 0.4664055
445.10 0.4671392
445.20 0.4678847
445.30 0.4686448
445.40 0.4694042
445.50 0.4701628
445.60 0.4709207
445.70 0.4716779
445.80 0.4724421
445.90 0.4732128
446.00 0.4739828
446.10 0.474752
446.20 0.4754262
446.30 0.4763208
446.40 0.4770578
446.50 0.4777979
446.60 0.4785372
446.70 0.4792759
446.80 0.4800588
446.90 0.4808826
447.00 0.4816156
447.10 0.4824033
447.20 0.4830864
447.30 0.4839072
447.40 0.4846442
447.50 0.4854635
447.60 0.4862158
447.70 0.4869064
447.80 0.4878207
447.90 0.4885851
448.00 0.4893458
448.10 0.490103
448.20 0.4908595
448.30 0.4916153
448.40 0.4923704
448.50 0.4931248
448.60 0.4939191
448.70 0.4947503
448.80 0.4955773
448.90 0.4963591
449.00 0.4971402
449.10 0.4979206
449.20 0.4987002
449.30 0.4993712
449.40 0.5001843
449.50 0.5009966
449.60 0.5018025
449.70 0.5026023
449.80 0.5034013
449.90 0.5041996
450.00 0.5049972
450.10 0.5057939
450.20 0.50659
450.30 0.5073852
450.40 0.5081824
450.50 0.5089789
450.60 0.5097746
450.70 0.5105696
450.80 0.5113637
450.90 0.5121572
451.00 0.5129581
451.10 0.5137582
451.20 0.5145187
451.30 0.5153234
451.40 0.5161131
451.50 0.516902
451.60 0.5176902
451.70 0.5185623
451.80 0.5192643
451.90 0.5200502
452.00 0.52092
452.10 0.521789
452.20 0.5225726
452.30 0.5233555
452.40 0.5241376
452.50 0.524919
452.60 0.5257134
452.70 0.5265169
452.80 0.5273289
452.90 0.5281401
453.00 0.5289506
453.10 0.5297602
453.20 0.5305801
453.30 0.5313991
453.40 0.5322174
453.50 0.5330349
453.60 0.5338517
453.70 0.5346676
453.80 0.5354917
453.90 0.5363258
454.00 0.5371591
454.10 0.5379916
454.20 0.538825
454.30 0.5396576
454.40 0.5404895
454.50 0.5413206
454.60 0.5421508
454.70 0.542987
454.80 0.5438286
454.90 0.5446694
455.00 0.5455094
455.10 0.5463486
455.20 0.5471871
455.30 0.5480247
455.40 0.5488615
455.50 0.5496976
455.60 0.5505329
455.70 0.5513673
455.80 0.5521961
455.90 0.5530241
456.00 0.5538513
456.10 0.5546813
456.20 0.5555198
456.30 0.5563575
456.40 0.5571944
456.50 0.5580306
456.60 0.5588659
456.70 0.5597005
456.80 0.5605343
456.90 0.5613673
457.00 0.5621995
457.10 0.5630309
457.20 0.5639631
457.30 0.5648155
457.40 0.5656671
457.50 0.5665179
457.60 0.5673678
457.70 0.568217
457.80 0.5690654
457.90 0.569913
458.00 0.5707598
458.10 0.5716058
458.20 0.572451
458.30 0.5732955
458.40 0.5741391
458.50 0.5749819
458.60 0.575824
458.70 0.5766865
458.80 0.5775569
458.90 0.5784264
459.00 0.5792952
459.10 0.5801631
459.20 0.5810302
459.30 0.5819094
459.40 0.5827878
459.50 0.5836653
459.60 0.584542
459.70 0.5854179
459.80 0.586293
459.90 0.5871672
460.00 0.5880407
460.10 0.5889133
460.20 0.5897851
460.30 0.5906561
460.40 0.5915263
460.50 0.5923957
460.60 0.5932643
460.70 0.5941262
460.80 0.5949844
460.90 0.5958418
461.00 0.5966984
461.10 0.5975542
461.20 0.598464
461.30 0.5993954
461.40 0.6002625
461.50 0.601113
461.60 0.6019627
461.70 0.6028116
461.80 0.6037076
461.90 0.6046029
462.00 0.6054972
462.10 0.6063908
462.20 0.6072835
462.30 0.6081754
462.40 0.6090665
462.50 0.6099567
462.60 0.6108462
462.70 0.6117347
462.80 0.6126225
462.90 0.6135095
463.00 0.6143956
463.10 0.6152809
463.20 0.6161766
463.30 0.617076
463.40 0.6179746
463.50 0.6188724
463.60 0.6197693
463.70 0.6206654
463.80 0.6215607
463.90 0.6224625
464.00 0.6233652
464.10 0.6242672
464.20 0.6251683
464.30 0.6260686
464.40 0.626968
464.50 0.6278666
464.60 0.6287644
464.70 0.6296881
464.80 0.6306219
464.90 0.6315549
465.00 0.632487
465.10 0.6334182
465.20 0.6343486
465.30 0.6352671
465.40 0.6361775
465.50 0.637087
465.60 0.6379956
465.70 0.6389034
465.80 0.6398104
465.90 0.6407377
466.00 0.6416693
466.10 0.6426001
466.20 0.6435301
466.30 0.6444502
466.40 0.6453658
466.50 0.6462806
466.60 0.6471945
466.70 0.6481076
466.80 0.6490199
466.90 0.6499313
467.00 0.6508418
467.10 0.6517515
467.20 0.6526604
467.30 0.6535901
467.40 0.6545239
467.50 0.6554559
467.60 0.656387
467.70 0.6573173
467.80 0.6582467
467.90 0.6591851
468.00 0.6601267
468.10 0.6610674
468.20 0.6620073
468.30 0.6629743
468.40 0.6639518
468.50 0.6648725
468.60 0.6657592
468.70 0.6666657
468.80 0.6677096
468.90 0.6686344
469.00 0.6695139
469.10 0.6704552
469.20 0.6714257
469.30 0.6723953
469.40 0.6733641
469.50 0.6743069
469.60 0.6752387
469.70 0.6761696
469.80 0.6770996
469.90 0.6780209
470.00 0.6789898
470.10 0.6799577
470.20 0.6809105
470.30 0.6818625
470.40 0.6828136
470.50 0.6837638
470.60 0.6847202
470.70 0.6856776
470.80 0.6866341
470.90 0.6875897
471.00 0.6885765
471.10 0.6895079
471.20 0.6905448
471.30 0.691419
471.40 0.6924481
471.50 0.6933207
471.60 0.6943168
471.70 0.6953431
471.80 0.6963064
471.90 0.6972533
472.00 0.6981993
472.10 0.6991444
472.20 0.7001198
472.30 0.7011022
472.40 0.7020837
472.50 0.7030643
472.60 0.7040439
472.70 0.7049613
472.80 0.7059279
472.90 0.7069125
473.00 0.7078961
473.10 0.7088789
473.20 0.7098607
473.30 0.7108417
473.40 0.7118218
473.50 0.712801
473.60 0.7137792
473.70 0.7147567
473.80 0.7157348
473.90 0.7167124
474.00 0.7176891
474.10 0.718665
474.20 0.7196539
474.30 0.7206478
474.40 0.7216407
474.50 0.7226327
474.60 0.7236228
474.70 0.7246017
474.80 0.7255797
474.90 0.7265568
475.00 0.727533
475.10 0.7285084
475.20 0.7294828
475.30 0.7304564
475.40 0.7314639
475.50 0.7324793
475.60 0.7334937
475.70 0.7345073
475.80 0.7355199
475.90 0.7365316
476.00 0.7375424
476.10 0.7385522
476.20 0.7395488
476.30 0.7405394
476.40 0.7415292
476.50 0.742518
476.60 0.7435059
476.70 0.744493
476.80 0.7454791
476.90 0.7464949
477.00 0.7475174
477.10 0.748539
477.20 0.7495596
477.30 0.7505794
477.40 0.7515982
477.50 0.7526161
477.60 0.753633
477.70 0.7546491
477.80 0.7556642
477.90 0.7566785
478.00 0.7576918
478.10 0.7587042
478.20 0.7597156
478.30 0.7607262
478.40 0.7617359
478.50 0.7627446
478.60 0.7637524
478.70 0.7647713
478.80 0.7657941
478.90 0.7668155
479.00 0.767836
479.10 0.7688556
479.20 0.7698742
479.30 0.770892
479.40 0.7719256
479.50 0.7729683
479.60 0.77401
479.70 0.7750507
479.80 0.7760906
479.90 0.7771295
480.00 0.7781675
480.10 0.7792045
480.20 0.7802406
480.30 0.7812758
480.40 0.78231
480.50 0.7833433
480.60 0.7843757
480.70 0.7854072
480.80 0.7864377
480.90 0.7874673
481.00 0.788496
481.10 0.7895238
481.20 0.7905616
481.30 0.7915985
481.40 0.7926345
481.50 0.7936696
481.60 0.7947037
481.70 0.7957369
481.80 0.7967692
481.90 0.7978005
482.00 0.798831
482.10 0.7998605
482.20 0.8008915
482.30 0.8019537
482.40 0.8030149
482.50 0.8040753
482.60 0.8051346
482.70 0.806193
482.80 0.8072505
482.90 0.808307
483.00 0.8093626
483.10 0.8104173
483.20 0.811471
483.30 0.8125237
483.40 0.8135756
483.50 0.8146264
483.60 0.8156764
483.70 0.8167331
483.80 0.8177889
483.90 0.8188437
484.00 0.8198976
484.10 0.8209506
484.20 0.8220189
484.30 0.8230932
484.40 0.8241665
484.50 0.8252389
484.60 0.8263103
484.70 0.8273819
484.80 0.8284678
484.90 0.8295526
485.00 0.8306365
485.10 0.8317194
485.20 0.8328014
485.30 0.8338824
485.40 0.8349624
485.50 0.8360415
485.60 0.8371196
485.70 0.8381962
485.80 0.8392717
485.90 0.8403464
486.00 0.84142
486.10 0.8424928
486.20 0.8435645
486.30 0.8446353
486.40 0.8457052
486.50 0.8467741
486.60 0.8478421
486.70 0.8489104
486.80 0.8499954
486.90 0.8510795
487.00 0.8521625
487.10 0.8532447
487.20 0.8543469
487.30 0.8554481
487.40 0.8565484
487.50 0.8576477
487.60 0.858746
487.70 0.8598434
487.80 0.8609397
487.90 0.8620351
488.00 0.8631296
488.10 0.864223
488.20 0.8653164
488.30 0.8664205
488.40 0.8675236
488.50 0.8686257
488.60 0.8697269
488.70 0.8708271
488.80 0.8719071
488.90 0.8729861
489.00 0.8740739
489.10 0.8751855
489.20 0.8762961
489.30 0.8774057
489.40 0.8785144
489.50 0.879622
489.60 0.8807287
489.70 0.8818344
489.80 0.8828748
489.90 0.8839917
490.00 0.8851077
490.10 0.8862227
490.20 0.8873368
490.30 0.8884498
490.40 0.8895609
490.50 0.8906711
490.60 0.8917803
490.70 0.8928885
490.80 0.8940631
490.90 0.8951737
491.00 0.8962431
491.10 0.8973832
491.20 0.8985223
491.30 0.8995888
491.40 0.9007574
491.50 0.9018621
491.60 0.9029848
491.70 0.9041428
491.80 0.9052959
491.90 0.9063967
492.00 0.9074386
492.10 0.9086152
492.20 0.9097568
492.30 0.9108725
492.40 0.9119406
492.50 0.9131687
492.60 0.9141874
492.70 0.9153473
492.80 0.9165061
492.90 0.917664
493.00 0.9188198
493.10 0.9199615
493.20 0.9211022
493.30 0.9222419
493.40 0.9233806
493.50 0.9245184
493.60 0.9255283
493.70 0.9266882
493.80 0.927847
493.90 0.9289942
494.00 0.9301238
494.10 0.9312627
494.20 0.9324226
494.30 0.9335816
494.40 0.9347395
494.50 0.9358964
494.60 0.9370488
494.70 0.9381529
494.80 0.939276
494.90 0.9404551
495.00 0.9416332
495.10 0.9428103
495.20 0.9439588
495.30 0.9451062
495.40 0.9462527
495.50 0.9473981
495.60 0.9485425
495.70 0.949686
495.80 0.9508284
495.90 0.9519699
496.00 0.9531103
496.10 0.9542656
496.20 0.9554522
496.30 0.956619
496.40 0.9577848
496.50 0.9589496
496.60 0.9601134
496.70 0.9612861
496.80 0.9624578
496.90 0.9636284
497.00 0.9647981
497.10 0.9659667
497.20 0.9671343
497.30 0.9682921
497.40 0.9694237
497.50 0.9705543
497.60 0.971698
497.70 0.9728711
497.80 0.9740492
497.90 0.9752262
498.00 0.9764022
498.10 0.9775772
498.20 0.9787512
498.30 0.9799241
498.40 0.9810961
498.50 0.982267
498.60 0.9834368
498.70 0.984641
498.80 0.9858442
498.90 0.9870342
499.00 0.9882232
499.10 0.9894112
499.20 0.990594
499.30 0.9917634
499.40 0.9929211
499.50 0.9940779
499.60 0.9952336
499.70 0.9963918
499.80 0.9975956
499.90 0.9987983
500.00 1
500.10 1.001201
500.20 1.002397
500.30 1.003584
500.40 1.004771
500.50 1.005957
500.60 1.007141
500.70 1.008325
500.80 1.009518
500.90 1.010734
501.00 1.011948
501.10 1.013162
501.20 1.014365
501.30 1.015542
501.40 1.016653
501.50 1.017897
501.60 1.019112
501.70 1.020285
501.80 1.021551
501.90 1.022722
502.00 1.023895
502.10 1.025072
502.20 1.026252
502.30 1.027487
502.40 1.028715
502.50 1.029925
502.60 1.031135
502.70 1.032344
502.80 1.033551
502.90 1.034758
503.00 1.035963
503.10 1.037166
503.20 1.038368
503.30 1.039569
503.40 1.040778
503.50 1.042011
503.60 1.043244
503.70 1.044475
503.80 1.045699
503.90 1.046872
504.00 1.048062
504.10 1.049288
504.20 1.050513
504.30 1.051737
504.40 1.052958
504.50 1.05417
504.60 1.0554
504.70 1.056678
504.80 1.057843
504.90 1.059096
505.00 1.060353
505.10 1.061559
505.20 1.062771
505.30 1.064
505.40 1.065228
505.50 1.066454
505.60 1.067681
505.70 1.06891
505.80 1.070137
505.90 1.071364
506.00 1.072589
506.10 1.073814
506.20 1.075044
506.30 1.076294
506.40 1.077543
506.50 1.07879
506.60 1.080037
506.70 1.081283
506.80 1.082527
506.90 1.083771
507.00 1.085013
507.10 1.086248
507.20 1.087476
507.30 1.088726
507.40 1.089976
507.50 1.091224
507.60 1.092471
507.70 1.093717
507.80 1.094962
507.90 1.096207
508.00 1.09745
508.10 1.098691
508.20 1.099932
508.30 1.101172
508.40 1.102411
508.50 1.103649
508.60 1.104885
508.70 1.106121
508.80 1.107389
508.90 1.108645
509.00 1.109864
509.10 1.111097
509.20 1.112363
509.30 1.113629
509.40 1.114893
509.50 1.116156
509.60 1.117417
509.70 1.118678
509.80 1.119938
509.90 1.121197
510.00 1.122454
510.10 1.123711
510.20 1.124966
510.30 1.126228
510.40 1.12751
510.50 1.12879
510.60 1.13007
510.70 1.131348
510.80 1.132625
510.90 1.133902
511.00 1.135177
511.10 1.136451
511.20 1.137724
511.30 1.138995
511.40 1.140266
511.50 1.141536
511.60 1.142807
511.70 1.144081
511.80 1.145353
511.90 1.146625
512.00 1.147896
512.10 1.149165
512.20 1.150434
512.30 1.151708
512.40 1.153001
512.50 1.154292
512.60 1.155583
512.70 1.156872
512.80 1.158161
512.90 1.159448
513.00 1.160734
513.10 1.162019
513.20 1.163303
513.30 1.164586
513.40 1.165868
513.50 1.167149
513.60 1.168428
513.70 1.169707
513.80 1.170985
513.90 1.172261
514.00 1.173567
514.10 1.174876
514.20 1.176185
514.30 1.177492
514.40 1.178798
514.50 1.180103
514.60 1.181407
514.70 1.18271
514.80 1.184012
514.90 1.185313
515.00 1.186613
515.10 1.187911
515.20 1.189209
515.30 1.190505
515.40 1.1918
515.50 1.193094
515.60 1.194387
515.70 1.195679
515.80 1.19697
515.90 1.19826
516.00 1.199549
516.10 1.200836
516.20 1.202123
516.30 1.203408
516.40 1.204693
516.50 1.205984
516.60 1.207317
516.70 1.20865
516.80 1.209981
516.90 1.211311
517.00 1.212639
517.10 1.213967
517.20 1.215294
517.30 1.216619
517.40 1.217943
517.50 1.219267
517.60 1.220589
517.70 1.22191
517.80 1.22323
517.90 1.224548
518.00 1.225866
518.10 1.227183
518.20 1.228498
518.30 1.229812
518.40 1.231126
518.50 1.232438
518.60 1.233749
518.70 1.235059
518.80 1.236367
518.90 1.237675
519.00 1.238982
519.10 1.240319
519.20 1.241692
519.30 1.243064
519.40 1.244434
519.50 1.245803
519.60 1.247171
519.70 1.248538
519.80 1.249904
519.90 1.251269
520.00 1.252632
520.10 1.253995
520.20 1.255356
520.30 1.256716
520.40 1.258075
520.50 1.259433
520.60 1.260789
520.70 1.262145
520.80 1.263499
520.90 1.264853
521.00 1.266205
521.10 1.267556
521.20 1.268906
521.30 1.270255
521.40 1.271602
521.50 1.272949
521.60 1.274294
521.70 1.275638
521.80 1.276981
521.90 1.278324
522.00 1.279664
522.10 1.281004
522.20 1.282343
522.30 1.28368
522.40 1.285017
522.50 1.286352
522.60 1.287686
522.70 1.289019
522.80 1.290351
522.90 1.291682
523.00 1.293012
523.10 1.29434
523.20 1.295668
523.30 1.296994
523.40 1.29832
523.50 1.299644
523.60 1.300967
523.70 1.302289
523.80 1.30361
523.90 1.304929
524.00 1.306248
524.10 1.307566
524.20 1.308882
524.30 1.310243
524.40 1.311638
524.50 1.313031
524.60 1.314424
524.70 1.315815
524.80 1.317206
524.90 1.318595
525.00 1.319983
525.10 1.32137
525.20 1.322755
525.30 1.32414
525.40 1.325523
525.50 1.326905
525.60 1.328286
525.70 1.329666
525.80 1.331045
525.90 1.332423
526.00 1.333799
526.10 1.335175
526.20 1.336549
526.30 1.337922
526.40 1.339294
526.50 1.340665
526.60 1.342034
526.70 1.343403
526.80 1.34477
526.90 1.346137
527.00 1.347502
527.10 1.348866
527.20 1.350228
527.30 1.35159
527.40 1.352951
527.50 1.35431
527.60 1.355669
527.70 1.357026
527.80 1.358382
527.90 1.359737
528.00 1.361091
528.10 1.362443
528.20 1.363795
528.30 1.365145
528.40 1.366495
528.50 1.367843
528.60 1.36919
528.70 1.370536
528.80 1.371881
528.90 1.373225
529.00 1.374567
529.10 1.375909
529.20 1.377249
529.30 1.378589
529.40 1.379927
529.50 1.381278
529.60 1.382711
529.70 1.384143
529.80 1.385574
529.90 1.387004
530.00 1.388433
530.10 1.38986
530.20 1.391287
530.30 1.392712
530.40 1.394136
530.50 1.395559
530.60 1.39698
530.70 1.398401
530.80 1.39982
530.90 1.401238
531.00 1.402655
531.10 1.404071
531.20 1.405486
531.30 1.406899
531.40 1.408311
531.50 1.409723
531.60 1.411133
531.70 1.412541
531.80 1.413949
531.90 1.415356
532.00 1.416761
532.10 1.418165
532.20 1.419599
532.30 1.421048
532.40 1.422495
532.50 1.423942
532.60 1.425387
532.70 1.426831
532.80 1.428273
532.90 1.429715
533.00 1.431155
533.10 1.432595
533.20 1.434033
533.30 1.43547
533.40 1.436905
533.50 1.43834
533.60 1.439773
533.70 1.441205
533.80 1.442636
533.90 1.444066
534.00 1.445495
534.10 1.446922
534.20 1.448348
534.30 1.449773
534.40 1.451197
534.50 1.45262
534.60 1.454042
534.70 1.455462
534.80 1.456891
534.90 1.458357
535.00 1.459822
535.10 1.461285
535.20 1.462748
535.30 1.464209
535.40 1.465669
535.50 1.467128
535.60 1.468586
535.70 1.470042
535.80 1.471498
535.90 1.472952
536.00 1.474405
536.10 1.475857
536.20 1.477307
536.30 1.478757
536.40 1.480205
536.50 1.481652
536.60 1.483098
536.70 1.484542
536.80 1.485986
536.90 1.487428
537.00 1.488869
537.10 1.490309
537.20 1.491748
537.30 1.493186
537.40 1.494622
537.50 1.496058
537.60 1.497492
537.70 1.498925
537.80 1.500356
537.90 1.501787
538.00 1.503216
538.10 1.504645
538.20 1.506072
538.30 1.507498
538.40 1.508922
538.50 1.510346
538.60 1.511769
538.70 1.51319
538.80 1.51461
538.90 1.516029
539.00 1.517447
539.10 1.518863
539.20 1.520279
539.30 1.521693
539.40 1.523106
539.50 1.524518
539.60 1.525929
539.70 1.527339
539.80 1.528748
539.90 1.530155
540.00 1.531561
540.10 1.532967
540.20 1.53445
540.30 1.535965
540.40 1.537479
540.50 1.538992
540.60 1.540503
540.70 1.542013
540.80 1.543522
540.90 1.54503
541.00 1.546536
541.10 1.548042
541.20 1.549546
541.30 1.551049
541.40 1.55255
541.50 1.554051
541.60 1.55555
541.70 1.557048
541.80 1.558544
541.90 1.56004
542.00 1.561534
542.10 1.563028
542.20 1.564519
542.30 1.56601
542.40 1.5675
542.50 1.568988
542.60 1.570475
542.70 1.571961
542.80 1.573446
542.90 1.574929
543.00 1.576411
543.10 1.577893
543.20 1.579372
543.30 1.580851
543.40 1.582329
543.50 1.583805
543.60 1.58528
543.70 1.586754
543.80 1.588227
543.90 1.589698
544.00 1.591169
544.10 1.592638
544.20 1.594106
544.30 1.595573
544.40 1.597038
544.50 1.598503
544.60 1.599966
544.70 1.601428
544.80 1.602889
544.90 1.604349
545.00 1.605807
545.10 1.607265
545.20 1.608721
545.30 1.610176
545.40 1.61163
545.50 1.613082
545.60 1.614594
545.70 1.61613
545.80 1.617665
545.90 1.619198
546.00 1.620731
546.10 1.622262
546.20 1.623792
546.30 1.62532
546.40 1.626848
546.50 1.628374
546.60 1.629899
546.70 1.631423
546.80 1.632945
546.90 1.634467
547.00 1.635987
547.10 1.637506
547.20 1.639024
547.30 1.64054
547.40 1.642055
547.50 1.643569
547.60 1.645082
547.70 1.646594
547.80 1.648104
547.90 1.649613
548.00 1.651121
548.10 1.652628
548.20 1.654133
548.30 1.655638
548.40 1.657142
548.50 1.658645
548.60 1.660146
548.70 1.661647
548.80 1.663146
548.90 1.664643
549.00 1.66614
549.10 1.667636
549.20 1.66913
549.30 1.670623
549.40 1.672115
549.50 1.673606
549.60 1.675095
549.70 1.676583
549.80 1.67807
549.90 1.679556
550.00 1.681041
550.10 1.682525
550.20 1.684007
550.30 1.685488
550.40 1.686968
550.50 1.688447
550.60 1.689924
550.70 1.691401
550.80 1.692876
550.90 1.69435
551.00 1.695838
551.10 1.697413
551.20 1.698986
551.30 1.700558
551.40 1.702128
551.50 1.703698
551.60 1.705266
551.70 1.706833
551.80 1.708398
551.90 1.709963
552.00 1.711526
552.10 1.713088
552.20 1.714649
552.30 1.716208
552.40 1.717766
552.50 1.719323
552.60 1.720879
552.70 1.722433
552.80 1.723987
552.90 1.725539
553.00 1.727089
553.10 1.728639
553.20 1.730187
553.30 1.731734
553.40 1.73328
553.50 1.734825
553.60 1.736368
553.70 1.73791
553.80 1.739451
553.90 1.740991
554.00 1.742529
554.10 1.744066
554.20 1.745602
554.30 1.747137
554.40 1.748671
554.50 1.750203
554.60 1.751734
554.70 1.753264
554.80 1.754793
554.90 1.75632
555.00 1.757847
555.10 1.759372
555.20 1.760896
555.30 1.762418
555.40 1.76394
555.50 1.76546
555.60 1.766979
555.70 1.768497
555.80 1.770013
555.90 1.771529
556.00 1.773043
556.10 1.774556
556.20 1.776068
556.30 1.777578
556.40 1.779088
556.50 1.780601
556.60 1.782207
556.70 1.783811
556.80 1.785415
556.90 1.787017
557.00 1.788618
557.10 1.790218
557.20 1.791816
557.30 1.793414
557.40 1.79501
557.50 1.796604
557.60 1.798198
557.70 1.79979
557.80 1.801381
557.90 1.80297
558.00 1.804559
558.10 1.806146
558.20 1.807732
558.30 1.809317
558.40 1.8109
558.50 1.812482
558.60 1.814063
558.70 1.815643
558.80 1.817221
558.90 1.818798
559.00 1.820374
559.10 1.821949
559.20 1.823522
559.30 1.825094
559.40 1.826665
559.50 1.828235
559.60 1.829803
559.70 1.831371
559.80 1.832937
559.90 1.834501
560.00 1.836065
560.10 1.837627
560.20 1.839188
560.30 1.840748
560.40 1.842307
560.50 1.843864
560.60 1.84542
560.70 1.846975
560.80 1.848529
560.90 1.850081
561.00 1.851632
561.10 1.853182
561.20 1.854731
561.30 1.856279
561.40 1.857825
561.50 1.85937
561.60 1.860914
561.70 1.862457
561.80 1.863998
561.90 1.865538
562.00 1.867077
562.10 1.868637
562.20 1.87023
562.30 1.87182
562.40 1.87341
562.50 1.874998
562.60 1.876586
562.70 1.878171
562.80 1.879756
562.90 1.881339
563.00 1.882921
563.10 1.884502
563.20 1.886082
563.30 1.88766
563.40 1.889238
563.50 1.890814
563.60 1.892388
563.70 1.893962
563.80 1.895534
563.90 1.897105
564.00 1.898675
564.10 1.900243
564.20 1.90181
564.30 1.903376
564.40 1.904941
564.50 1.906505
564.60 1.908067
564.70 1.909628
564.80 1.911188
564.90 1.912758
565.00 1.914355
565.10 1.915951
565.20 1.917545
565.30 1.919138
565.40 1.92073
565.50 1.922321
565.60 1.92391
565.70 1.925498
565.80 1.927085
565.90 1.92867
566.00 1.930255
566.10 1.931838
566.20 1.93342
566.30 1.935
566.40 1.93658
566.50 1.938158
566.60 1.939735
566.70 1.941311
566.80 1.942885
566.90 1.944458
567.00 1.94603
567.10 1.947601
567.20 1.949171
567.30 1.950739
567.40 1.952306
567.50 1.953872
567.60 1.955436
567.70 1.957017
567.80 1.95867
567.90 1.960322
568.00 1.961972
568.10 1.963621
568.20 1.965269
568.30 1.966915
568.40 1.968561
568.50 1.970204
568.60 1.971847
568.70 1.973488
568.80 1.975129
568.90 1.976767
569.00 1.978405
569.10 1.980041
569.20 1.981676
569.30 1.98331
569.40 1.984942
569.50 1.986574
569.60 1.988204
569.70 1.989832
569.80 1.99146
569.90 1.993086
570.00 1.994711
570.10 1.996334
570.20 1.997957
570.30 1.999578
570.40 2.001198
570.50 2.002816
570.60 2.004433
570.70 2.006049
570.80 2.007664
570.90 2.009278
571.00 2.01089
571.10 2.012501
571.20 2.014111
571.30 2.015719
571.40 2.017327
571.50 2.018933
571.60 2.020538
571.70 2.022141
571.80 2.023743
571.90 2.025344
572.00 2.026944
572.10 2.028543
572.20 2.03014
572.30 2.031736
572.40 2.033331
572.50 2.034925
572.60 2.036517
572.70 2.038108
572.80 2.039698
572.90 2.041287
573.00 2.042874
573.10 2.04446
573.20 2.046045
573.30 2.047629
573.40 2.049245
573.50 2.050906
573.60 2.052565
573.70 2.054223
573.80 2.05588
573.90 2.057535
574.00 2.05919
574.10 2.060843
574.20 2.062494
574.30 2.064145
574.40 2.065794
574.50 2.067442
574.60 2.069088
574.70 2.070734
574.80 2.072378
574.90 2.07402
575.00 2.075662
575.10 2.077302
575.20 2.078941
575.30 2.080579
575.40 2.082215
575.50 2.08385
575.60 2.085484
575.70 2.087117
575.80 2.088748
575.90 2.090378
576.00 2.092007
576.10 2.093635
576.20 2.095261
576.30 2.096886
576.40 2.09851
576.50 2.100133
576.60 2.101754
576.70 2.103374
576.80 2.104993
576.90 2.106611
577.00 2.108227
577.10 2.109842
577.20 2.111456
577.30 2.113069
577.40 2.11468
577.50 2.11629
577.60 2.117911
577.70 2.119549
577.80 2.121185
577.90 2.122821
578.00 2.124455
578.10 2.126088
578.20 2.12772
578.30 2.12935
578.40 2.13098
578.50 2.132608
578.60 2.134234
578.70 2.13586
578.80 2.137484
578.90 2.139107
579.00 2.140729
579.10 2.142356
579.20 2.144058
579.30 2.145758
579.40 2.147456
579.50 2.149154
579.60 2.15085
579.70 2.152545
579.80 2.154238
579.90 2.15593
580.00 2.157621
580.10 2.159303
580.20 2.160972
580.30 2.16264
580.40 2.164307
580.50 2.165972
580.60 2.167636
580.70 2.169299
580.80 2.17096
580.90 2.17262
581.00 2.174279
581.10 2.175937
581.20 2.177593
581.30 2.179248
581.40 2.180902
581.50 2.182555
581.60 2.184206
581.70 2.185856
581.80 2.187505
581.90 2.189152
582.00 2.190798
582.10 2.192463
582.20 2.194157
582.30 2.195851
582.40 2.197543
582.50 2.199234
582.60 2.200923
582.70 2.202611
582.80 2.204298
582.90 2.205984
583.00 2.207668
583.10 2.209352
583.20 2.211033
583.30 2.212714
583.40 2.214393
583.50 2.216071
583.60 2.217728
583.70 2.219351
583.80 2.220973
583.90 2.222594
584.00 2.224213
584.10 2.225831
584.20 2.227448
584.30 2.229064
584.40 2.230678
584.50 2.232292
584.60 2.233904
584.70 2.235514
584.80 2.237124
584.90 2.23876
585.00 2.24052
585.10 2.242279
585.20 2.243998
585.30 2.245653
585.40 2.247307
585.50 2.24896
585.60 2.250611
585.70 2.252261
585.80 2.25391
585.90 2.255558
586.00 2.257204
586.10 2.258849
586.20 2.260531
586.30 2.262275
586.40 2.264017
586.50 2.265757
586.60 2.267496
586.70 2.269234
586.80 2.270875
586.90 2.27236
587.00 2.273843
587.10 2.275325
587.20 2.276902
587.30 2.278632
587.40 2.280361
587.50 2.282089
587.60 2.283815
587.70 2.28554
587.80 2.287264
587.90 2.288987
588.00 2.290708
588.10 2.292428
588.20 2.294147
588.30 2.295864
588.40 2.29758
588.50 2.299295
588.60 2.301008
588.70 2.30272
588.80 2.304431
588.90 2.306141
589.00 2.307811
589.10 2.309418
589.20 2.311024
589.30 2.312629
589.40 2.314233
589.50 2.315836
589.60 2.317437
589.70 2.319037
589.80 2.320636
589.90 2.322233
590.00 2.323905
590.10 2.3257
590.20 2.327493
590.30 2.329285
590.40 2.331075
590.50 2.332864
590.60 2.334652
590.70 2.336438
590.80 2.338091
590.90 2.339682
591.00 2.341273
591.10 2.342862
591.20 2.34445
591.30 2.346037
591.40 2.347622
591.50 2.349207
591.60 2.350837
591.70 2.352544
591.80 2.35425
591.90 2.355954
592.00 2.357657
592.10 2.359359
592.20 2.36106
592.30 2.362759
592.40 2.364457
592.50 2.366154
592.60 2.367849
592.70 2.369543
592.80 2.371236
592.90 2.372928
593.00 2.374618
593.10 2.376313
593.20 2.378017
593.30 2.37972
593.40 2.381422
593.50 2.383122
593.60 2.384821
593.70 2.386518
593.80 2.388215
593.90 2.38991
594.00 2.391604
594.10 2.393296
594.20 2.394988
594.30 2.396678
594.40 2.398367
594.50 2.400054
594.60 2.40174
594.70 2.403425
594.80 2.405109
594.90 2.406791
595.00 2.408473
595.10 2.410172
595.20 2.4119
595.30 2.413628
595.40 2.415354
595.50 2.417079
595.60 2.418803
595.70 2.420525
595.80 2.422247
595.90 2.423966
596.00 2.425685
596.10 2.427402
596.20 2.429118
596.30 2.430833
596.40 2.432546
596.50 2.434258
596.60 2.435969
596.70 2.437676
596.80 2.43938
596.90 2.441083
597.00 2.442785
597.10 2.444486
597.20 2.446185
597.30 2.447883
597.40 2.449579
597.50 2.451275
597.60 2.452966
597.70 2.45465
597.80 2.456334
597.90 2.458016
598.00 2.459697
598.10 2.461377
598.20 2.463056
598.30 2.464733
598.40 2.466409
598.50 2.468084
598.60 2.469757
598.70 2.471429
598.80 2.4731
598.90 2.47477
599.00 2.476438
599.10 2.478106
599.20 2.479772
599.30 2.481436
599.40 2.483158
599.50 2.484879
599.60 2.486598
599.70 2.488317
599.80 2.490033
599.90 2.491749
600.00 2.493463
600.10 2.495176
600.20 2.496888
600.30 2.498598
600.40 2.500308
600.50 2.502015
600.60 2.503722
600.70 2.505427
600.80 2.507131
600.90 2.508834
601.00 2.510536
601.10 2.512236
601.20 2.513935
601.30 2.515633
601.40 2.51736
601.50 2.519085
601.60 2.52081
601.70 2.522533
601.80 2.524255
601.90 2.525975
602.00 2.527695
602.10 2.529413
602.20 2.531129
602.30 2.532845
602.40 2.534559
602.50 2.536272
602.60 2.537984
602.70 2.539587
602.80 2.541184
602.90 2.542957
603.00 2.544728
603.10 2.546498
603.20 2.548267
603.30 2.550034
603.40 2.5518
603.50 2.553565
603.60 2.555328
603.70 2.55709
603.80 2.558851
603.90 2.56061
604.00 2.562368
604.10 2.564125
604.20 2.565881
604.30 2.567635
604.40 2.569388
604.50 2.571092
604.60 2.572795
604.70 2.574497
604.80 2.576198
604.90 2.577897
605.00 2.579595
605.10 2.581292
605.20 2.582987
605.30 2.584681
605.40 2.586374
605.50 2.588035
605.60 2.589694
605.70 2.591351
605.80 2.593008
605.90 2.594663
606.00 2.596317
606.10 2.598049
606.20 2.599779
606.30 2.601507
606.40 2.603235
606.50 2.604726
606.60 2.606216
606.70 2.608644
606.80 2.610132
606.90 2.611618
607.00 2.613103
607.10 2.615057
607.20 2.617008
607.30 2.618724
607.40 2.620439
607.50 2.622152
607.60 2.623864
607.70 2.625653
607.80 2.627441
607.90 2.629227
608.00 2.631012
608.10 2.632795
608.20 2.634578
608.30 2.636096
608.40 2.637613
608.50 2.639129
608.60 2.640644
608.70 2.642325
608.80 2.64408
608.90 2.645834
609.00 2.647586
609.10 2.649337
609.20 2.651086
609.30 2.652835
609.40 2.654583
609.50 2.656329
609.60 2.658074
609.70 2.659818
609.80 2.66156
609.90 2.663302
610.00 2.665041
610.10 2.66678
610.20 2.668517
610.30 2.670253
610.40 2.671988
610.50 2.673722
610.60 2.675454
610.70 2.677185
610.80 2.678914
610.90 2.680631
611.00 2.682347
611.10 2.684061
611.20 2.685774
611.30 2.687485
611.40 2.689196
611.50 2.690905
611.60 2.692613
611.70 2.69432
611.80 2.696025
611.90 2.697729
612.00 2.699432
612.10 2.701134
612.20 2.702834
612.30 2.704533
612.40 2.706277
612.50 2.70802
612.60 2.709761
612.70 2.711501
612.80 2.71324
612.90 2.714978
613.00 2.716714
613.10 2.718449
613.20 2.720183
613.30 2.721915
613.40 2.723646
613.50 2.725376
613.60 2.727105
613.70 2.728832
613.80 2.730558
613.90 2.732283
614.00 2.734007
614.10 2.735729
614.20 2.73745
614.30 2.73917
614.40 2.740913
614.50 2.742656
614.60 2.744397
614.70 2.746137
614.80 2.747878
614.90 2.749618
615.00 2.751357
615.10 2.753094
615.20 2.75483
615.30 2.756565
615.40 2.758299
615.50 2.760031
615.60 2.761762
615.70 2.763492
615.80 2.765221
615.90 2.766948
616.00 2.768674
616.10 2.770399
616.20 2.772122
616.30 2.773844
616.40 2.775565
616.50 2.777285
616.60 2.779003
616.70 2.78072
616.80 2.782436
616.90 2.784194
617.00 2.785951
617.10 2.787706
617.20 2.78946
617.30 2.791213
617.40 2.792965
617.50 2.794715
617.60 2.796464
617.70 2.798212
617.80 2.799958
617.90 2.801703
618.00 2.803447
618.10 2.80519
618.20 2.806931
618.30 2.808671
618.40 2.81041
618.50 2.812147
618.60 2.813883
618.70 2.815618
618.80 2.817352
618.90 2.819084
619.00 2.820816
619.10 2.822545
619.20 2.824274
619.30 2.826001
619.40 2.827728
619.50 2.829452
619.60 2.831176
619.70 2.832898
619.80 2.834619
619.90 2.836339
620.00 2.838058
620.10 2.839775
620.20 2.841491
620.30 2.843206
620.40 2.844919
620.50 2.846632
620.60 2.848343
620.70 2.850052
620.80 2.851761
620.90 2.85349
621.00 2.855256
621.10 2.857022
621.20 2.858786
621.30 2.860548
621.40 2.86231
621.50 2.86407
621.60 2.865829
621.70 2.867586
621.80 2.869342
621.90 2.871097
622.00 2.872851
622.10 2.874604
622.20 2.876355
622.30 2.878105
622.40 2.879853
622.50 2.881601
622.60 2.883347
622.70 2.885091
622.80 2.886835
622.90 2.888577
623.00 2.890318
623.10 2.892058
623.20 2.893796
623.30 2.895534
623.40 2.89727
623.50 2.899004
623.60 2.900738
623.70 2.90247
623.80 2.904201
623.90 2.90593
624.00 2.907659
624.10 2.909386
624.20 2.911112
624.30 2.912836
624.40 2.91456
624.50 2.916282
624.60 2.918003
624.70 2.919722
624.80 2.921441
624.90 2.923158
625.00 2.924873
625.10 2.926588
625.20 2.928301
625.30 2.930014
625.40 2.931724
625.50 2.933434
625.60 2.935142
625.70 2.93685
625.80 2.938555
625.90 2.94026
626.00 2.941963
626.10 2.943666
626.20 2.945367
626.30 2.947066
626.40 2.948765
626.50 2.950462
626.60 2.952158
626.70 2.953853
626.80 2.955546
626.90 2.957239
627.00 2.95893
627.10 2.960635
627.20 2.962382
627.30 2.964128
627.40 2.965873
627.50 2.967616
627.60 2.969358
627.70 2.971099
627.80 2.972839
627.90 2.974577
628.00 2.976314
628.10 2.97805
628.20 2.979784
628.30 2.981517
628.40 2.983249
628.50 2.98498
628.60 2.986709
628.70 2.988438
628.80 2.990165
628.90 2.99189
629.00 2.993615
629.10 2.995338
629.20 2.99706
629.30 2.998781
629.40 3.0005
629.50 3.002219
629.60 3.003936
629.70 3.005651
629.80 3.007366
629.90 3.009079
630.00 3.010791
630.10 3.012502
630.20 3.014212
630.30 3.01597
630.40 3.017732
630.50 3.019492
630.60 3.021252
630.70 3.02301
630.80 3.024766
630.90 3.026522
631.00 3.028276
631.10 3.030028
631.20 3.03178
631.30 3.03353
631.40 3.035279
631.50 3.037027
631.60 3.038774
631.70 3.040519
631.80 3.042263
631.90 3.044006
632.00 3.045747
632.10 3.047488
632.20 3.049227
632.30 3.050964
632.40 3.052701
632.50 3.054436
632.60 3.05617
632.70 3.057903
632.80 3.059634
632.90 3.061365
633.00 3.063094
633.10 3.064822
633.20 3.066548
633.30 3.068273
633.40 3.070014
633.50 3.071765
633.60 3.073516
633.70 3.075265
633.80 3.077013
633.90 3.07876
634.00 3.080505
634.10 3.082249
634.20 3.083992
634.30 3.085734
634.40 3.087474
634.50 3.089213
634.60 3.090951
634.70 3.092688
634.80 3.094423
634.90 3.096157
635.00 3.09789
635.10 3.099622
635.20 3.101352
635.30 3.103082
635.40 3.10481
635.50 3.106536
635.60 3.108262
635.70 3.109986
635.80 3.111709
635.90 3.113431
636.00 3.115151
636.10 3.11687
636.20 3.118589
636.30 3.120305
636.40 3.122021
636.50 3.123735
636.60 3.125472
636.70 3.12721
636.80 3.128946
636.90 3.130682
637.00 3.132416
637.10 3.134149
637.20 3.135881
637.30 3.137611
637.40 3.139341
637.50 3.141069
637.60 3.142795
637.70 3.144521
637.80 3.146245
637.90 3.147968
638.00 3.14969
638.10 3.151411
638.20 3.15313
638.30 3.154848
638.40 3.156565
638.50 3.158281
638.60 3.159995
638.70 3.161708
638.80 3.16342
638.90 3.165131
639.00 3.166841
639.10 3.168549
639.20 3.170256
639.30 3.171962
639.40 3.173667
639.50 3.17537
639.60 3.177072
639.70 3.178785
639.80 3.180537
639.90 3.182288
640.00 3.184037
640.10 3.185786
640.20 3.187533
640.30 3.189278
640.40 3.191023
640.50 3.192766
640.60 3.194508
640.70 3.196249
640.80 3.197989
640.90 3.199727
641.00 3.201464
641.10 3.2032
641.20 3.204934
641.30 3.206668
641.40 3.2084
641.50 3.210131
641.60 3.21186
641.70 3.213589
641.80 3.215316
641.90 3.217042
642.00 3.218767
642.10 3.22049
642.20 3.222212
642.30 3.223933
642.40 3.225653
642.50 3.227372
642.60 3.229089
642.70 3.230805
642.80 3.23252
642.90 3.23424
643.00 3.23598
643.10 3.237718
643.20 3.239455
643.30 3.241191
643.40 3.242925
643.50 3.244658
643.60 3.24639
643.70 3.248121
643.80 3.249851
643.90 3.251579
644.00 3.253306
644.10 3.255032
644.20 3.256757
644.30 3.25848
644.40 3.260202
644.50 3.261923
644.60 3.263643
644.70 3.265362
644.80 3.267079
644.90 3.268795
645.00 3.27051
645.10 3.272223
645.20 3.273936
645.30 3.275647
645.40 3.277357
645.50 3.279066
645.60 3.280773
645.70 3.28248
645.80 3.284185
645.90 3.285889
646.00 3.287591
646.10 3.289306
646.20 3.291056
646.30 3.292805
646.40 3.294553
646.50 3.296299
646.60 3.298044
646.70 3.299789
646.80 3.301531
646.90 3.303273
647.00 3.305013
647.10 3.306752
647.20 3.30849
647.30 3.310227
647.40 3.311962
647.50 3.313696
647.60 3.315429
647.70 3.317161
647.80 3.318891
647.90 3.320621
648.00 3.322349
648.10 3.324076
648.20 3.325801
648.30 3.327525
648.40 3.329249
648.50 3.330971
648.60 3.332691
648.70 3.334411
648.80 3.336129
648.90 3.337846
649.00 3.339562
649.10 3.341276
649.20 3.34299
649.30 3.344702
649.40 3.346437
649.50 3.348171
649.60 3.349904
649.70 3.351636
649.80 3.353366
649.90 3.355096
650.00 3.356824
650.10 3.358551
650.20 3.360276
650.30 3.362001
650.40 3.363724
650.50 3.365446
650.60 3.367167
650.70 3.368887
650.80 3.370605
650.90 3.372322
651.00 3.374038
651.10 3.375753
651.20 3.377466
651.30 3.379179
651.40 3.38089
651.50 3.3826
651.60 3.384308
651.70 3.386016
651.80 3.387722
651.90 3.389427
652.00 3.391131
652.10 3.392834
652.20 3.394535
652.30 3.396235
652.40 3.397935
652.50 3.399632
652.60 3.401349
652.70 3.403076
652.80 3.404802
652.90 3.406526
653.00 3.40825
653.10 3.409972
653.20 3.411693
653.30 3.413412
653.40 3.415131
653.50 3.416848
653.60 3.418564
653.70 3.420278
653.80 3.421992
653.90 3.423704
654.00 3.425415
654.10 3.427125
654.20 3.428834
654.30 3.430542
654.40 3.432248
654.50 3.433953
654.60 3.435657
654.70 3.43736
654.80 3.439061
654.90 3.440762
655.00 3.442461
655.10 3.444159
655.20 3.445855
655.30 3.447551
655.40 3.449245
655.50 3.450938
655.60 3.45263
655.70 3.454321
655.80 3.456041
655.90 3.457759
656.00 3.459477
656.10 3.461193
656.20 3.462908
656.30 3.464622
656.40 3.466334
656.50 3.468046
656.60 3.469756
656.70 3.471465
656.80 3.473173
656.90 3.474879
657.00 3.476585
657.10 3.478289
657.20 3.479992
657.30 3.481694
657.40 3.483394
657.50 3.485094
657.60 3.486792
657.70 3.488489
657.80 3.489512
657.90 3.491164
658.00 3.492924
658.10 3.494684
658.20 3.496442
658.30 3.4982
658.40 3.499955
658.50 3.50171
658.60 3.503464
658.70 3.505216
658.80 3.506967
658.90 3.508717
659.00 3.510465
659.10 3.512224
659.20 3.514
659.30 3.515645
659.40 3.517288
659.50 3.518931
659.60 3.520572
659.70 3.522212
659.80 3.52385
659.90 3.525488
660.00 3.527125
660.10 3.52876
660.20 3.530394
660.30 3.532027
660.40 3.533725
660.50 3.535432
660.60 3.537139
660.70 3.538844
660.80 3.540548
660.90 3.542247
661.00 3.543945
661.10 3.545641
661.20 3.547336
661.30 3.54903
661.40 3.550723
661.50 3.552415
661.60 3.554105
661.70 3.555795
661.80 3.557483
661.90 3.559166
662.00 3.560848
662.10 3.562529
662.20 3.564208
662.30 3.565887
662.40 3.567587
662.50 3.569267
662.60 3.570945
662.70 3.572623
662.80 3.574299
662.90 3.576368
663.00 3.578435
663.10 3.579714
663.20 3.581386
663.30 3.583056
663.40 3.585118
663.50 3.586786
663.60 3.588453
663.70 3.589927
663.80 3.5914
663.90 3.593223
664.00 3.595108
664.10 3.596769
664.20 3.598429
664.30 3.600087
664.40 3.601745
664.50 3.603401
664.60 3.605056
664.70 3.606756
664.80 3.608454
664.90 3.610151
665.00 3.611847
665.10 3.613542
665.20 3.615236
665.30 3.616928
665.40 3.618619
665.50 3.620459
665.60 3.622324
665.70 3.623417
665.80 3.625187
665.90 3.626955
666.00 3.628722
666.10 3.630489
666.20 3.632253
666.30 3.634017
666.40 3.63578
666.50 3.637432
666.60 3.639063
666.70 3.640694
666.80 3.642324
666.90 3.643952
667.00 3.645579
667.10 3.647392
667.20 3.649238
667.30 3.650672
667.40 3.652105
667.50 3.653698
667.60 3.655318
667.70 3.657151
667.80 3.658914
667.90 3.660385
668.00 3.662389
668.10 3.664177
668.20 3.665791
668.30 3.667403
668.40 3.669014
668.50 3.670624
668.60 3.672233
668.70 3.67386
668.80 3.675613
668.90 3.677364
669.00 3.679115
669.10 3.680864
669.20 3.682612
669.30 3.6843
669.40 3.685977
669.50 3.687652
669.60 3.689327
669.70 3.691
669.80 3.692672
669.90 3.694343
670.00 3.696013
670.10 3.697681
670.20 3.699349
670.30 3.700953
670.40 3.702545
670.50 3.704136
670.60 3.705726
670.70 3.707315
670.80 3.709035
670.90 3.710753
671.00 3.712471
671.10 3.714187
671.20 3.715902
671.30 3.717616
671.40 3.719329
671.50 3.72104
671.60 3.72275
671.70 3.72446
671.80 3.726168
671.90 3.727862
672.00 3.729554
672.10 3.731244
672.20 3.732933
672.30 3.734621
672.40 3.736254
672.50 3.737882
672.60 3.739509
672.70 3.741135
672.80 3.74276
672.90 3.744383
673.00 3.746006
673.10 3.747627
673.20 3.749247
673.30 3.750786
673.40 3.752435
673.50 3.754103
673.60 3.755769
673.70 3.757434
673.80 3.759099
673.90 3.760762
674.00 3.762423
674.10 3.764084
674.20 3.765744
674.30 3.767402
674.40 3.769059
674.50 3.770715
674.60 3.77237
674.70 3.774024
674.80 3.775676
674.90 3.777328
675.00 3.778978
675.10 3.780627
675.20 3.782275
675.30 3.783922
675.40 3.785587
675.50 3.787255
675.60 3.788921
675.70 3.790586
675.80 3.79225
675.90 3.793913
676.00 3.795574
676.10 3.797235
676.20 3.798894
676.30 3.800552
676.40 3.802209
676.50 3.803865
676.60 3.80552
676.70 3.807173
676.80 3.808826
676.90 3.810477
677.00 3.812127
677.10 3.813776
677.20 3.815424
677.30 3.817071
677.40 3.818716
677.50 3.820361
677.60 3.822004
677.70 3.823646
677.80 3.825287
677.90 3.826942
678.00 3.828599
678.10 3.830254
678.20 3.831908
678.30 3.833562
678.40 3.835214
678.50 3.836864
678.60 3.838514
678.70 3.840163
678.80 3.84181
678.90 3.843457
679.00 3.845102
679.10 3.846773
679.20 3.848455
679.30 3.850135
679.40 3.851815
679.50 3.853493
679.60 3.85517
679.70 3.856846
679.80 3.858521
679.90 3.860194
680.00 3.861867
680.10 3.863538
680.20 3.865209
680.30 3.866878
680.40 3.868545
680.50 3.870212
680.60 3.871878
680.70 3.873542
680.80 3.875206
680.90 3.876868
681.00 3.878529
681.10 3.880189
681.20 3.881847
681.30 3.883505
681.40 3.885162
681.50 3.886817
681.60 3.888471
681.70 3.890124
681.80 3.891776
681.90 3.893427
682.00 3.895076
682.10 3.896725
682.20 3.898372
682.30 3.900019
682.40 3.901664
682.50 3.903308
682.60 3.90495
682.70 3.906592
682.80 3.908233
682.90 3.909872
683.00 3.911511
683.10 3.913148
683.20 3.914784
683.30 3.916419
683.40 3.918053
683.50 3.919685
683.60 3.921317
683.70 3.922947
683.80 3.924577
683.90 3.926205
684.00 3.927832
684.10 3.929458
684.20 3.931083
684.30 3.932707
684.40 3.934329
684.50 3.935951
684.60 3.937571
684.70 3.93919
684.80 3.940809
684.90 3.942426
685.00 3.944042
685.10 3.945656
685.20 3.94727
685.30 3.948883
685.40 3.950494
685.50 3.952105
685.60 3.953714
685.70 3.955322
685.80 3.956929
685.90 3.958564
686.00 3.960206
686.10 3.961846
686.20 3.963485
686.30 3.965123
686.40 3.96676
686.50 3.968396
686.60 3.97003
686.70 3.971664
686.80 3.973296
686.90 3.974927
687.00 3.976558
687.10 3.978187
687.20 3.979814
687.30 3.981441
687.40 3.983067
687.50 3.984691
687.60 3.986315
687.70 3.987937
687.80 3.989559
687.90 3.991179
688.00 3.992798
688.10 3.994416
688.20 3.996032
688.30 3.997648
688.40 3.999263
688.50 4.000876
688.60 4.002488
688.70 4.0041
688.80 4.00571
688.90 4.007319
689.00 4.008927
689.10 4.010534
689.20 4.012139
689.30 4.013744
689.40 4.015348
689.50 4.01695
689.60 4.018551
689.70 4.020152
689.80 4.021751
689.90 4.023349
690.00 4.024946
690.10 4.026542
690.20 4.028136
690.30 4.02973
690.40 4.031323
690.50 4.032914
690.60 4.034505
690.70 4.036094
690.80 4.037682
690.90 4.039269
691.00 4.040855
691.10 4.04244
691.20 4.044024
691.30 4.045607
691.40 4.047189
691.50 4.048769
691.60 4.050349
691.70 4.051927
691.80 4.053504
691.90 4.055081
692.00 4.056656
692.10 4.05823
692.20 4.059803
692.30 4.061375
692.40 4.062946
692.50 4.064516
692.60 4.066085
692.70 4.067664
692.80 4.069284
692.90 4.070904
693.00 4.072522
693.10 4.074139
693.20 4.075756
693.30 4.077371
693.40 4.078985
693.50 4.080598
693.60 4.082209
693.70 4.08382
693.80 4.08543
693.90 4.087038
694.00 4.088645
694.10 4.090252
694.20 4.091857
694.30 4.093461
694.40 4.095064
694.50 4.096666
694.60 4.098267
694.70 4.099867
694.80 4.101465
694.90 4.103063
695.00 4.104659
695.10 4.106255
695.20 4.107849
695.30 4.109442
695.40 4.111034
695.50 4.112625
695.60 4.114215
695.70 4.115804
695.80 4.117392
695.90 4.118978
696.00 4.120564
696.10 4.122149
696.20 4.123732
696.30 4.125314
696.40 4.126896
696.50 4.128476
696.60 4.130055
696.70 4.131633
696.80 4.13321
696.90 4.134785
697.00 4.13636
697.10 4.137934
697.20 4.139506
697.30 4.141078
697.40 4.142648
697.50 4.144218
697.60 4.145786
697.70 4.147353
697.80 4.148919
697.90 4.150484
698.00 4.152048
698.10 4.153611
698.20 4.155173
698.30 4.156734
698.40 4.158293
698.50 4.159852
698.60 4.16141
698.70 4.162966
698.80 4.164522
698.90 4.166076
699.00 4.167629
699.10 4.169207
699.20 4.17079
699.30 4.172372
699.40 4.173953
699.50 4.175533
699.60 4.177112
699.70 4.178666
699.80 4.180217
699.90 4.181768
700.00 4.183317
700.10 4.184866
700.20 4.186413
700.30 4.18796
700.40 4.189505
700.50 4.191049
700.60 4.192593
700.70 4.194135
700.80 4.195676
700.90 4.197216
701.00 4.198755
701.10 4.200318
701.20 4.201886
701.30 4.203452
701.40 4.205018
701.50 4.206582
701.60 4.208145
701.70 4.209708
701.80 4.211269
701.90 4.212829
702.00 4.214388
702.10 4.215946
702.20 4.217503
702.30 4.219059
702.40 4.220614
702.50 4.222168
702.60 4.223723
702.70 4.225278
702.80 4.226831
702.90 4.228384
703.00 4.229935
703.10 4.231486
703.20 4.233035
703.30 4.234584
703.40 4.236131
703.50 4.237677
703.60 4.239222
703.70 4.240766
703.80 4.242309
703.90 4.243851
704.00 4.245392
704.10 4.246932
704.20 4.248506
704.30 4.250088
704.40 4.251668
704.50 4.253247
704.60 4.254826
704.70 4.256403
704.80 4.257979
704.90 4.259554
705.00 4.261128
705.10 4.262701
705.20 4.264272
705.30 4.265843
705.40 4.267413
705.50 4.268981
705.60 4.270549
705.70 4.272115
705.80 4.273681
705.90 4.275245
706.00 4.276808
706.10 4.278371
706.20 4.279651
706.30 4.280865
706.40 4.282902
706.50 4.284296
706.60 4.286017
706.70 4.287227
706.80 4.288585
706.90 4.290139
707.00 4.291692
707.10 4.293244
707.20 4.294795
707.30 4.296344
707.40 4.297893
707.50 4.299441
707.60 4.300988
707.70 4.302533
707.80 4.304078
707.90 4.305621
708.00 4.307164
708.10 4.308705
708.20 4.310246
708.30 4.311785
708.40 4.313323
708.50 4.314861
708.60 4.316397
708.70 4.317932
708.80 4.319466
708.90 4.320999
709.00 4.322532
709.10 4.324063
709.20 4.325593
709.30 4.327122
709.40 4.32865
709.50 4.330176
709.60 4.331702
709.70 4.333227
709.80 4.334751
709.90 4.336274
710.00 4.337796
710.10 4.339316
710.20 4.340836
710.30 4.342355
710.40 4.343872
710.50 4.345389
710.60 4.346905
710.70 4.348419
710.80 4.349933
710.90 4.351445
711.00 4.352957
711.10 4.354467
711.20 4.355977
711.30 4.357485
711.40 4.358993
711.50 4.360499
711.60 4.362004
711.70 4.363509
711.80 4.365012
711.90 4.366514
712.00 4.368016
712.10 4.369519
712.20 4.371021
712.30 4.372523
712.40 4.374023
712.50 4.375523
712.60 4.377022
712.70 4.378519
712.80 4.380016
712.90 4.381511
713.00 4.383006
713.10 4.384499
713.20 4.385991
713.30 4.387483
713.40 4.388973
713.50 4.390463
713.60 4.391951
713.70 4.393496
713.80 4.395157
713.90 4.396816
714.00 4.398474
714.10 4.40001
714.20 4.401516
714.30 4.403021
714.40 4.404525
714.50 4.406028
714.60 4.40753
714.70 4.409031
714.80 4.410531
714.90 4.41203
715.00 4.413528
715.10 4.415024
715.20 4.41652
715.30 4.418015
715.40 4.419509
715.50 4.421002
715.60 4.422494
715.70 4.423985
715.80 4.425475
715.90 4.426964
716.00 4.428451
716.10 4.429938
716.20 4.431424
716.30 4.432909
716.40 4.434393
716.50 4.435876
716.60 4.437348
716.70 4.438817
716.80 4.440285
716.90 4.441752
717.00 4.443218
717.10 4.444683
717.20 4.446147
717.30 4.44761
717.40 4.449072
717.50 4.450533
717.60 4.451993
717.70 4.453452
717.80 4.45491
717.90 4.456367
718.00 4.457823
718.10 4.459278
718.20 4.460757
718.30 4.462249
718.40 4.46374
718.50 4.46523
718.60 4.466718
718.70 4.468206
718.80 4.469693
718.90 4.471179
719.00 4.472663
719.10 4.474147
719.20 4.47563
719.30 4.477112
719.40 4.478593
719.50 4.480072
719.60 4.481551
719.70 4.483029
719.80 4.484506
719.90 4.485982
720.00 4.487456
720.10 4.48893
720.20 4.490403
720.30 4.491875
720.40 4.493346
720.50 4.494816
720.60 4.496285
720.70 4.497779
720.80 4.499287
720.90 4.500765
721.00 4.502241
721.10 4.503716
721.20 4.505189
721.30 4.506662
721.40 4.508134
721.50 4.509604
721.60 4.511074
721.70 4.512543
721.80 4.51401
721.90 4.515477
722.00 4.516943
722.10 4.518408
722.20 4.519871
722.30 4.521334
722.40 4.522796
722.50 4.524257
722.60 4.525717
722.70 4.527163
722.80 4.528601
722.90 4.530039
723.00 4.531475
723.10 4.532911
723.20 4.534345
723.30 4.535779
723.40 4.537211
723.50 4.538643
723.60 4.540074
723.70 4.541503
723.80 4.542932
723.90 4.54436
724.00 4.545787
724.10 4.547212
724.20 4.548662
724.30 4.550125
724.40 4.551586
724.50 4.553046
724.60 4.554506
724.70 4.555964
724.80 4.557422
724.90 4.558878
725.00 4.560334
725.10 4.561788
725.20 4.563242
725.30 4.564694
725.40 4.566146
725.50 4.567597
725.60 4.569046
725.70 4.570495
725.80 4.571932
725.90 4.573362
726.00 4.574792
726.10 4.57622
726.20 4.577648
726.30 4.579074
726.40 4.5805
726.50 4.581924
726.60 4.583348
726.70 4.584771
726.80 4.586221
726.90 4.587685
727.00 4.589148
727.10 4.590611
727.20 4.592072
727.30 4.593533
727.40 4.595028
727.50 4.596541
727.60 4.598053
727.70 4.599563
727.80 4.600967
727.90 4.602313
728.00 4.603707
728.10 4.605385
728.20 4.606769
728.30 4.608029
728.40 4.60924
728.50 4.610906
728.60 4.61236
728.70 4.613698
728.80 4.615035
728.90 4.616372
729.00 4.617778
729.10 4.619221
729.20 4.620663
729.30 4.622104
729.40 4.623545
729.50 4.624984
729.60 4.626436
729.70 4.627895
729.80 4.629353
729.90 4.63081
730.00 4.632266
730.10 4.633721
730.20 4.635175
730.30 4.636628
730.40 4.638081
730.50 4.639532
730.60 4.64095
730.70 4.642351
730.80 4.643751
730.90 4.64515
731.00 4.646547
731.10 4.647944
731.20 4.64934
731.30 4.650735
731.40 4.65213
731.50 4.653523
731.60 4.654915
731.70 4.656306
731.80 4.657697
731.90 4.659086
732.00 4.660475
732.10 4.661862
732.20 4.663252
732.30 4.664644
732.40 4.666034
732.50 4.667423
732.60 4.668811
732.70 4.670199
732.80 4.671585
732.90 4.67297
733.00 4.674355
733.10 4.675739
733.20 4.677121
733.30 4.678503
733.40 4.679884
733.50 4.681264
733.60 4.682643
733.70 4.684059
733.80 4.685495
733.90 4.686929
734.00 4.688363
734.10 4.689796
734.20 4.691228
734.30 4.692659
734.40 4.694089
734.50 4.695518
734.60 4.696946
734.70 4.698373
734.80 4.699799
734.90 4.701224
735.00 4.702648
735.10 4.704072
735.20 4.705494
735.30 4.706908
735.40 4.708237
735.50 4.709565
735.60 4.710893
735.70 4.712268
735.80 4.71367
735.90 4.71507
736.00 4.716469
736.10 4.717867
736.20 4.719265
736.30 4.720661
736.40 4.722057
736.50 4.723451
736.60 4.724845
736.70 4.726237
736.80 4.727629
736.90 4.72902
737.00 4.73041
737.10 4.731799
737.20 4.733187
737.30 4.734574
737.40 4.73596
737.50 4.737346
737.60 4.73873
737.70 4.740113
737.80 4.741496
737.90 4.742878
738.00 4.744258
738.10 4.745638
738.20 4.747013
738.30 4.748385
738.40 4.749756
738.50 4.751126
738.60 4.752495
738.70 4.753864
738.80 4.755231
738.90 4.756598
739.00 4.757963
739.10 4.759328
739.20 4.760692
739.30 4.762055
739.40 4.763416
739.50 4.764777
739.60 4.766138
739.70 4.767497
739.80 4.768855
739.90 4.770212
740.00 4.771569
740.10 4.772925
740.20 4.774279
740.30 4.775633
740.40 4.776986
740.50 4.778338
740.60 4.779689
740.70 4.781039
740.80 4.782388
740.90 4.783737
741.00 4.785084
741.10 4.78643
741.20 4.787776
741.30 4.789121
741.40 4.790465
741.50 4.791808
741.60 4.79315
741.70 4.794491
741.80 4.795831
741.90 4.79717
742.00 4.798509
742.10 4.799846
742.20 4.801183
742.30 4.802519
742.40 4.803854
742.50 4.805188
742.60 4.806521
742.70 4.807874
742.80 4.809243
742.90 4.810611
743.00 4.811979
743.10 4.813345
743.20 4.814711
743.30 4.816075
743.40 4.817439
743.50 4.818802
743.60 4.820164
743.70 4.821521
743.80 4.822865
743.90 4.824207
744.00 4.825548
744.10 4.826889
744.20 4.828228
744.30 4.829567
744.40 4.830905
744.50 4.832242
744.60 4.833578
744.70 4.834913
744.80 4.836247
744.90 4.83758
745.00 4.838913
745.10 4.840244
745.20 4.841575
745.30 4.842905
745.40 4.844233
745.50 4.845561
745.60 4.846888
745.70 4.848215
745.80 4.84954
745.90 4.850864
746.00 4.852188
746.10 4.853511
746.20 4.854832
746.30 4.856153
746.40 4.857473
746.50 4.858792
746.60 4.860111
746.70 4.861428
746.80 4.862745
746.90 4.86406
747.00 4.865375
747.10 4.866689
747.20 4.868002
747.30 4.869314
747.40 4.870625
747.50 4.871936
747.60 4.873245
747.70 4.874554
747.80 4.875861
747.90 4.877168
748.00 4.878474
748.10 4.879779
748.20 4.881084
748.30 4.882387
748.40 4.883689
748.50 4.884991
748.60 4.886292
748.70 4.887592
748.80 4.888891
748.90 4.890189
749.00 4.891486
749.10 4.892783
749.20 4.894078
749.30 4.895373
749.40 4.896667
749.50 4.89796
749.60 4.899252
749.70 4.900543
749.80 4.901833
749.90 4.903123
750.00 4.904411
750.10 4.905706
750.20 4.90702
750.30 4.908332
750.40 4.909643
750.50 4.910954
750.60 4.912263
750.70 4.913572
750.80 4.91488
750.90 4.916187
751.00 4.917493
751.10 4.918798
751.20 4.920103
751.30 4.921406
751.40 4.922709
751.50 4.924011
751.60 4.925312
751.70 4.926612
751.80 4.927911
751.90 4.929209
752.00 4.930507
752.10 4.931803
752.20 4.933099
752.30 4.934394
752.40 4.935688
752.50 4.936981
752.60 4.938273
752.70 4.939565
752.80 4.940855
752.90 4.942145
753.00 4.943434
753.10 4.944722
753.20 4.946009
753.30 4.947295
753.40 4.94858
753.50 4.949865
753.60 4.951149
753.70 4.952431
753.80 4.953713
753.90 4.954995
754.00 4.956275
754.10 4.957554
754.20 4.958833
754.30 4.96011
754.40 4.961387
754.50 4.962663
754.60 4.963939
754.70 4.965213
754.80 4.966486
754.90 4.967759
755.00 4.969031
755.10 4.970302
755.20 4.971572
755.30 4.972841
755.40 4.974109
755.50 4.975377
755.60 4.976643
755.70 4.977909
755.80 4.979174
755.90 4.980438
756.00 4.981702
756.10 4.982964
756.20 4.984226
756.30 4.985487
756.40 4.986747
756.50 4.988006
756.60 4.989264
756.70 4.990521
756.80 4.991778
756.90 4.993034
757.00 4.994289
757.10 4.995543
757.20 4.996796
757.30 4.998048
757.40 4.9993
757.50 5.000551
757.60 5.001807
757.70 5.003078
757.80 5.004348
757.90 5.005617
758.00 5.006885
758.10 5.008153
758.20 5.00942
758.30 5.010686
758.40 5.011951
758.50 5.013215
758.60 5.014478
758.70 5.015741
758.80 5.017003
758.90 5.018263
759.00 5.019524
759.10 5.020783
759.20 5.022041
759.30 5.023299
759.40 5.024555
759.50 5.025811
759.60 5.027066
759.70 5.02832
759.80 5.029574
759.90 5.030826
760.00 5.032078
760.10 5.033329
760.20 5.034579
760.30 5.035828
760.40 5.037076
760.50 5.038324
760.60 5.03957
760.70 5.040816
760.80 5.042061
760.90 5.043305
761.00 5.044549
761.10 5.045791
761.20 5.047033
761.30 5.048274
761.40 5.049514
761.50 5.050753
761.60 5.051992
761.70 5.053229
761.80 5.054466
761.90 5.055702
762.00 5.056937
762.10 5.058171
762.20 5.059405
762.30 5.060637
762.40 5.061869
762.50 5.0631
762.60 5.06433
762.70 5.06556
762.80 5.066788
762.90 5.068016
763.00 5.069243
763.10 5.070469
763.20 5.071694
763.30 5.072919
763.40 5.074143
763.50 5.075365
763.60 5.076587
763.70 5.077809
763.80 5.079029
763.90 5.080249
764.00 5.081467
764.10 5.082685
764.20 5.083902
764.30 5.085119
764.40 5.086334
764.50 5.087549
764.60 5.088763
764.70 5.089976
764.80 5.091188
764.90 5.0924
765.00 5.09361
765.10 5.09482
765.20 5.096032
765.30 5.097246
765.40 5.098459
765.50 5.099672
765.60 5.100883
765.70 5.102094
765.80 5.103303
765.90 5.104512
766.00 5.105721
766.10 5.106928
766.20 5.108135
766.30 5.109341
766.40 5.110546
766.50 5.11175
766.60 5.112953
766.70 5.114156
766.80 5.115358
766.90 5.116559
767.00 5.117759
767.10 5.118958
767.20 5.120157
767.30 5.121355
767.40 5.122552
767.50 5.123748
767.60 5.124943
767.70 5.126138
767.80 5.127332
767.90 5.128525
768.00 5.129717
768.10 5.130908
768.20 5.132099
768.30 5.133289
768.40 5.134478
768.50 5.135666
768.60 5.136854
768.70 5.13804
768.80 5.139226
768.90 5.140411
769.00 5.141596
769.10 5.142779
769.20 5.143962
769.30 5.145144
769.40 5.146325
769.50 5.147505
769.60 5.148685
769.70 5.149864
769.80 5.151042
769.90 5.152219
770.00 5.153395
770.10 5.154571
770.20 5.155746
770.30 5.15692
770.40 5.158093
770.50 5.159266
770.60 5.160438
770.70 5.161609
770.80 5.162779
770.90 5.163948
771.00 5.165117
771.10 5.166285
771.20 5.167452
771.30 5.168618
771.40 5.169783
771.50 5.170948
771.60 5.172112
771.70 5.173275
771.80 5.174438
771.90 5.175599
772.00 5.17676
772.10 5.17792
772.20 5.179079
772.30 5.180238
772.40 5.181396
772.50 5.182553
772.60 5.183709
772.70 5.184864
772.80 5.186019
772.90 5.187178
773.00 5.188337
773.10 5.189494
773.20 5.190651
773.30 5.191807
773.40 5.192963
773.50 5.194118
773.60 5.195271
773.70 5.196425
773.80 5.197577
773.90 5.198728
774.00 5.199879
774.10 5.201029
774.20 5.202179
774.30 5.203327
774.40 5.204475
774.50 5.205622
774.60 5.206768
774.70 5.207913
774.80 5.209058
774.90 5.210202
775.00 5.211345
775.10 5.212487
775.20 5.213629
775.30 5.21477
775.40 5.21591
775.50 5.217049
775.60 5.218188
775.70 5.219326
775.80 5.220463
775.90 5.221599
776.00 5.222735
776.10 5.223869
776.20 5.225003
776.30 5.226137
776.40 5.227269
776.50 5.228401
776.60 5.229532
776.70 5.230662
776.80 5.231792
776.90 5.23292
777.00 5.234048
777.10 5.235175
777.20 5.236302
777.30 5.237428
777.40 5.238553
777.50 5.239677
777.60 5.2408
777.70 5.241923
777.80 5.243045
777.90 5.244166
778.00 5.245287
778.10 5.246406
778.20 5.247525
778.30 5.248643
778.40 5.249761
778.50 5.250878
778.60 5.251993
778.70 5.253109
778.80 5.254223
778.90 5.255337
779.00 5.25645
779.10 5.257562
779.20 5.258674
779.30 5.259784
779.40 5.260894
779.50 5.262004
779.60 5.263112
779.70 5.26422
779.80 5.265327
779.90 5.266433
780.00 5.267539
780.10 5.268644
780.20 5.269748
780.30 5.270851
780.40 5.271954
780.50 5.273055
780.60 5.27417
780.70 5.275288
780.80 5.276406
780.90 5.277524
781.00 5.27864
781.10 5.279756
781.20 5.280871
781.30 5.281985
781.40 5.283099
781.50 5.284211
781.60 5.285323
781.70 5.286435
781.80 5.287545
781.90 5.288655
782.00 5.289764
782.10 5.290872
782.20 5.29198
782.30 5.293087
782.40 5.294193
782.50 5.295298
782.60 5.296403
782.70 5.297507
782.80 5.29861
782.90 5.299712
783.00 5.300814
783.10 5.301915
783.20 5.303015
783.30 5.304115
783.40 5.305213
783.50 5.306311
783.60 5.307409
783.70 5.308505
783.80 5.309601
783.90 5.310696
784.00 5.31179
784.10 5.312884
784.20 5.313977
784.30 5.315069
784.40 5.31616
784.50 5.317251
784.60 5.318337
784.70 5.319414
784.80 5.32049
784.90 5.321565
785.00 5.322639
785.10 5.323713
785.20 5.324786
785.30 5.325858
785.40 5.326929
785.50 5.328
785.60 5.32907
785.70 5.33014
785.80 5.331208
785.90 5.332276
786.00 5.333343
786.10 5.33441
786.20 5.335475
786.30 5.336541
786.40 5.337605
786.50 5.338668
786.60 5.339731
786.70 5.340794
786.80 5.341855
786.90 5.342916
787.00 5.343976
787.10 5.345035
787.20 5.346094
787.30 5.347152
787.40 5.348209
787.50 5.349265
787.60 5.350321
787.70 5.351376
787.80 5.352431
787.90 5.353484
788.00 5.354537
788.10 5.35559
788.20 5.356641
788.30 5.357692
788.40 5.358754
788.50 5.359821
788.60 5.360887
788.70 5.361953
788.80 5.363018
788.90 5.364082
789.00 5.365145
789.10 5.366208
789.20 5.36727
789.30 5.368331
789.40 5.369392
789.50 5.370452
789.60 5.371511
789.70 5.372569
789.80 5.373627
789.90 5.374684
790.00 5.375741
790.10 5.376796
790.20 5.377851
790.30 5.378905
790.40 5.379959
790.50 5.381012
790.60 5.382064
790.70 5.383115
790.80 5.384166
790.90 5.385216
791.00 5.386265
791.10 5.387314
791.20 5.388362
791.30 5.389409
791.40 5.390455
791.50 5.391501
791.60 5.392546
791.70 5.393591
791.80 5.394634
791.90 5.395677
792.00 5.39672
792.10 5.397761
792.20 5.398802
792.30 5.399839
792.40 5.400865
792.50 5.401891
792.60 5.402915
792.70 5.403939
792.80 5.404963
792.90 5.405986
793.00 5.407008
793.10 5.408029
793.20 5.40905
793.30 5.410069
793.40 5.411089
793.50 5.412107
793.60 5.413125
793.70 5.414142
793.80 5.415159
793.90 5.416175
794.00 5.41719
794.10 5.418204
794.20 5.419218
794.30 5.420231
794.40 5.421244
794.50 5.422255
794.60 5.423267
794.70 5.424277
794.80 5.425287
794.90 5.426296
795.00 5.427304
795.10 5.428312
795.20 5.429319
795.30 5.430325
795.40 5.431331
795.50 5.432336
795.60 5.43334
795.70 5.434343
795.80 5.435346
795.90 5.436349
796.00 5.43735
796.10 5.438351
796.20 5.439351
796.30 5.440348
796.40 5.441344
796.50 5.442339
796.60 5.443333
796.70 5.444327
796.80 5.44532
796.90 5.446312
797.00 5.447304
797.10 5.448295
797.20 5.449285
797.30 5.450274
797.40 5.451263
797.50 5.452252
797.60 5.453239
797.70 5.454226
797.80 5.455213
797.90 5.456198
798.00 5.457183
798.10 5.458167
798.20 5.459151
798.30 5.460134
798.40 5.461116
798.50 5.462098
798.60 5.463079
798.70 5.464059
798.80 5.465039
798.90 5.466018
799.00 5.466996
799.10 5.467974
799.20 5.468951
799.30 5.469927
799.40 5.470903
799.50 5.471878
799.60 5.472852
799.70 5.473826
799.80 5.474799
799.90 5.475771
800.00 5.476743
800.10 5.477714
800.20 5.478685
800.30 5.479654
800.40 5.480624
800.50 5.481592
800.60 5.48256
800.70 5.483527
800.80 5.484493
800.90 5.485459
801.00 5.486424
801.10 5.487389
801.20 5.488353
801.30 5.489316
801.40 5.490279
801.50 5.491241
801.60 5.492202
801.70 5.493162
801.80 5.494122
801.90 5.495082
802.00 5.49604
802.10 5.496998
802.20 5.497956
802.30 5.498913
802.40 5.499869
802.50 5.500824
802.60 5.501779
802.70 5.502733
802.80 5.503686
802.90 5.504639
803.00 5.505592
803.10 5.506543
803.20 5.507494
803.30 5.508444
803.40 5.509394
803.50 5.510343
803.60 5.511291
803.70 5.512239
803.80 5.513186
803.90 5.514132
804.00 5.515078
804.10 5.516023
804.20 5.516985
804.30 5.518005
804.40 5.519025
804.50 5.520044
804.60 5.521063
804.70 5.52208
804.80 5.523097
804.90 5.524114
805.00 5.52513
805.10 5.526145
805.20 5.527159
805.30 5.528173
805.40 5.529186
805.50 5.530198
805.60 5.53121
805.70 5.532221
805.80 5.533231
805.90 5.534241
806.00 5.53525
806.10 5.536258
806.20 5.537266
806.30 5.538273
806.40 5.539279
806.50 5.540285
806.60 5.54129
806.70 5.542294
806.80 5.543298
806.90 5.544301
807.00 5.545303
807.10 5.546305
807.20 5.547306
807.30 5.548306
807.40 5.549306
807.50 5.550305
807.60 5.551303
807.70 5.552301
807.80 5.553298
807.90 5.554294
808.00 5.55529
808.10 5.556285
808.20 5.557278
808.30 5.55814
808.40 5.559002
808.50 5.559863
808.60 5.560723
808.70 5.561583
808.80 5.562442
808.90 5.5633
809.00 5.564158
809.10 5.565015
809.20 5.565872
809.30 5.566728
809.40 5.567584
809.50 5.568439
809.60 5.569293
809.70 5.570147
809.80 5.571
809.90 5.571853
810.00 5.572705
810.10 5.573556
810.20 5.574407
810.30 5.575257
810.40 5.576107
810.50 5.576956
810.60 5.577804
810.70 5.578652
810.80 5.5795
810.90 5.580346
811.00 5.581192
811.10 5.582038
811.20 5.582883
811.30 5.583727
811.40 5.584571
811.50 5.585414
811.60 5.586257
811.70 5.587099
811.80 5.58794
811.90 5.588781
812.00 5.589621
812.10 5.590461
812.20 5.5913
812.30 5.592218
812.40 5.593154
812.50 5.59409
812.60 5.595025
812.70 5.59596
812.80 5.596894
812.90 5.597827
813.00 5.59876
813.10 5.599692
813.20 5.600623
813.30 5.601554
813.40 5.602484
813.50 5.603414
813.60 5.604342
813.70 5.605271
813.80 5.606198
813.90 5.607126
814.00 5.608052
814.10 5.608978
814.20 5.609903
814.30 5.610827
814.40 5.611751
814.50 5.612675
814.60 5.613597
814.70 5.614519
814.80 5.615441
814.90 5.616362
815.00 5.617282
815.10 5.618201
815.20 5.61912
815.30 5.620039
815.40 5.620956
815.50 5.621874
815.60 5.62279
815.70 5.623706
815.80 5.624621
815.90 5.625536
816.00 5.62645
816.10 5.627363
816.20 5.628276
816.30 5.629188
816.40 5.6301
816.50 5.631011
816.60 5.631921
816.70 5.632831
816.80 5.63374
816.90 5.634648
817.00 5.635556
817.10 5.636463
817.20 5.63737
817.30 5.638276
817.40 5.639181
817.50 5.640086
817.60 5.64099
817.70 5.641894
817.80 5.642797
817.90 5.643699
818.00 5.644601
818.10 5.645502
818.20 5.646403
818.30 5.647302
818.40 5.648202
818.50 5.6491
818.60 5.649999
818.70 5.650896
818.80 5.651793
818.90 5.652689
819.00 5.653585
819.10 5.65448
819.20 5.655374
819.30 5.655993
819.40 5.656428
819.50 5.656862
819.60 5.657296
819.70 5.657729
819.80 5.658163
819.90 5.658595
820.00 5.659028
820.10 5.659297
820.20 5.659897
820.30 5.660741
820.40 5.661608
820.50 5.662492
820.60 5.663375
820.70 5.664258
820.80 5.66514
820.90 5.666021
821.00 5.666902
821.10 5.667782
821.20 5.668662
821.30 5.66954
821.40 5.670419
821.50 5.671297
821.60 5.672174
821.70 5.67305
821.80 5.673926
821.90 5.674802
822.00 5.675677
822.10 5.676551
822.20 5.677424
822.30 5.678297
822.40 5.67917
822.50 5.680042
822.60 5.680913
822.70 5.681784
822.80 5.682654
822.90 5.683523
823.00 5.684392
823.10 5.68526
823.20 5.686128
823.30 5.686995
823.40 5.687862
823.50 5.688728
823.60 5.689593
823.70 5.690458
823.80 5.691322
823.90 5.692186
824.00 5.693049
824.10 5.693911
824.20 5.694773
824.30 5.695634
824.40 5.696495
824.50 5.697355
824.60 5.698214
824.70 5.699073
824.80 5.699932
824.90 5.700789
825.00 5.701646
825.10 5.702503
825.20 5.703359
825.30 5.704214
825.40 5.705069
825.50 5.705923
825.60 5.706777
825.70 5.70763
825.80 5.708483
825.90 5.709335
826.00 5.710186
826.10 5.711037
826.20 5.711887
826.30 5.712715
826.40 5.713527
826.50 5.71434
826.60 5.715151
826.70 5.715962
826.80 5.716773
826.90 5.717582
827.00 5.718392
827.10 5.719201
827.20 5.720009
827.30 5.720817
827.40 5.721624
827.50 5.72243
827.60 5.723236
827.70 5.724042
827.80 5.724847
827.90 5.725651
828.00 5.726455
828.10 5.727258
828.20 5.72806
828.30 5.728863
828.40 5.729664
828.50 5.730465
828.60 5.731235
828.70 5.731979
828.80 5.732722
828.90 5.733464
829.00 5.734206
829.10 5.734947
829.20 5.735688
829.30 5.736429
829.40 5.737169
829.50 5.737908
829.60 5.738647
829.70 5.739385
829.80 5.740123
829.90 5.74086
830.00 5.741597
830.10 5.742333
830.20 5.743068
830.30 5.743804
830.40 5.744538
830.50 5.745272
830.60 5.746006
830.70 5.746739
830.80 5.747472
830.90 5.748204
831.00 5.748935
831.10 5.749666
831.20 5.750397
831.30 5.751126
831.40 5.751856
831.50 5.752585
831.60 5.753313
831.70 5.754041
831.80 5.754768
831.90 5.755495
832.00 5.756222
832.10 5.756947
832.20 5.757673
832.30 5.758398
832.40 5.759122
832.50 5.759846
832.60 5.760569
832.70 5.761292
832.80 5.762014
832.90 5.762735
833.00 5.763457
833.10 5.764177
833.20 5.764898
833.30 5.765617
833.40 5.766336
833.50 5.767055
833.60 5.767773
833.70 5.768491
833.80 5.769208
833.90 5.769924
834.00 5.77064
834.10 5.771356
834.20 5.772071
834.30 5.772786
834.40 5.7735
834.50 5.774213
834.60 5.774926
834.70 5.775639
834.80 5.776351
834.90 5.777062
835.00 5.777773
835.10 5.778484
835.20 5.779194
835.30 5.779903
835.40 5.780612
835.50 5.781321
835.60 5.782029
835.70 5.782736
835.80 5.783443
835.90 5.78415
836.00 5.784856
836.10 5.785561
836.20 5.786266
836.30 5.78697
836.40 5.787674
836.50 5.788378
836.60 5.789081
836.70 5.789783
836.80 5.790485
836.90 5.791213
837.00 5.791952
837.10 5.792691
837.20 5.793429
837.30 5.794167
837.40 5.794904
837.50 5.795641
837.60 5.796377
837.70 5.797112
837.80 5.797847
837.90 5.798582
838.00 5.799316
838.10 5.80005
838.20 5.800783
838.30 5.801515
838.40 5.802247
838.50 5.802979
838.60 5.80371
838.70 5.80444
838.80 5.80517
838.90 5.805899
839.00 5.806628
839.10 5.807357
839.20 5.808085
839.30 5.808812
839.40 5.809539
839.50 5.810265
839.60 5.810991
839.70 5.811716
839.80 5.812441
839.90 5.813165
840.00 5.813889
840.10 5.814613
840.20 5.815335
840.30 5.816058
840.40 5.816779
840.50 5.817501
840.60 5.818221
840.70 5.818942
840.80 5.819661
840.90 5.820381
841.00 5.821099
841.10 5.821817
841.20 5.822534
841.30 5.823251
841.40 5.823967
841.50 5.824683
841.60 5.825398
841.70 5.826113
841.80 5.826827
841.90 5.827541
842.00 5.828254
842.10 5.828967
842.20 5.829679
842.30 5.83039
842.40 5.831102
842.50 5.831812
842.60 5.832522
842.70 5.833232
842.80 5.833941
842.90 5.83465
843.00 5.835358
843.10 5.836066
843.20 5.836773
843.30 5.837479
843.40 5.838186
843.50 5.838891
843.60 5.839596
843.70 5.840301
843.80 5.841005
843.90 5.841709
844.00 5.842412
844.10 5.843115
844.20 5.843817
844.30 5.844519
844.40 5.84522
844.50 5.84592
844.60 5.846621
844.70 5.84732
844.80 5.84802
844.90 5.848718
845.00 5.849416
845.10 5.850114
845.20 5.850811
845.30 5.851488
845.40 5.852164
845.50 5.85284
845.60 5.853515
845.70 5.854189
845.80 5.854863
845.90 5.855537
846.00 5.85621
846.10 5.856883
846.20 5.857555
846.30 5.858227
846.40 5.858898
846.50 5.859569
846.60 5.860239
846.70 5.860909
846.80 5.861578
846.90 5.862247
847.00 5.862915
847.10 5.863583
847.20 5.864251
847.30 5.864917
847.40 5.865584
847.50 5.86625
847.60 5.866915
847.70 5.86758
847.80 5.868245
847.90 5.868909
848.00 5.869573
848.10 5.870236
848.20 5.870898
848.30 5.87156
848.40 5.872222
848.50 5.872883
848.60 5.873544
848.70 5.874204
848.80 5.874864
848.90 5.875523
849.00 5.876182
849.10 5.87684
849.20 5.877498
849.30 5.878156
849.40 5.878813
849.50 5.879469
849.60 5.880125
849.70 5.880781
849.80 5.881436
849.90 5.88209
850.00 5.882744
850.10 5.883398
850.20 5.884051
850.30 5.884704
850.40 5.885356
850.50 5.886008
850.60 5.886659
850.70 5.88731
850.80 5.88796
850.90 5.88861
851.00 5.88926
851.10 5.889909
851.20 5.890557
851.30 5.891205
851.40 5.891853
851.50 5.8925
851.60 5.893146
851.70 5.893792
851.80 5.894438
851.90 5.895083
852.00 5.895728
852.10 5.896372
852.20 5.897016
852.30 5.89766
852.40 5.898302
852.50 5.898945
852.60 5.899587
852.70 5.900228
852.80 5.900869
852.90 5.90151
853.00 5.90215
853.10 5.90279
853.20 5.903429
853.30 5.904068
853.40 5.904706
853.50 5.905344
853.60 5.905981
853.70 5.906608
853.80 5.907225
853.90 5.907841
854.00 5.908457
854.10 5.909072
854.20 5.909687
854.30 5.910301
854.40 5.910915
854.50 5.911528
854.60 5.912141
854.70 5.912753
854.80 5.913366
854.90 5.913977
855.00 5.914588
855.10 5.915199
855.20 5.915809
855.30 5.916419
855.40 5.917028
855.50 5.917637
855.60 5.918246
855.70 5.918854
855.80 5.919461
855.90 5.920069
856.00 5.920675
856.10 5.921281
856.20 5.921887
856.30 5.922493
856.40 5.923098
856.50 5.923702
856.60 5.924306
856.70 5.92491
856.80 5.925513
856.90 5.926115
857.00 5.926718
857.10 5.927319
857.20 5.927921
857.30 5.928522
857.40 5.929122
857.50 5.929722
857.60 5.930322
857.70 5.930921
857.80 5.93152
857.90 5.932118
858.00 5.932716
858.10 5.933313
858.20 5.93391
858.30 5.934507
858.40 5.935103
858.50 5.935698
858.60 5.936294
858.70 5.936888
858.80 5.937483
858.90 5.938077
859.00 5.93867
859.10 5.939263
859.20 5.939856
859.30 5.940448
859.40 5.94104
859.50 5.941631
859.60 5.942222
859.70 5.942812
859.80 5.943402
859.90 5.943991
860.00 5.944581
860.10 5.945169
860.20 5.945757
860.30 5.946345
860.40 5.946933
860.50 5.94752
860.60 5.948106
860.70 5.948692
860.80 5.949278
860.90 5.949863
861.00 5.950448
861.10 5.951032
861.20 5.951616
861.30 5.952199
861.40 5.952782
861.50 5.953365
861.60 5.953947
861.70 5.954529
861.80 5.95511
861.90 5.955691
862.00 5.956271
862.10 5.956851
862.20 5.957429
862.30 5.957988
862.40 5.958547
862.50 5.959106
862.60 5.959665
862.70 5.960222
862.80 5.96078
862.90 5.961337
863.00 5.961894
863.10 5.96245
863.20 5.963006
863.30 5.963561
863.40 5.964116
863.50 5.964671
863.60 5.965225
863.70 5.965779
863.80 5.966332
863.90 5.966885
864.00 5.967437
864.10 5.96799
864.20 5.968541
864.30 5.969092
864.40 5.969643
864.50 5.970194
864.60 5.970744
864.70 5.971293
864.80 5.971842
864.90 5.972391
865.00 5.97294
865.10 5.973488
865.20 5.974035
865.30 5.974582
865.40 5.975129
865.50 5.975675
865.60 5.976221
865.70 5.976767
865.80 5.977312
865.90 5.977856
866.00 5.9784
866.10 5.978944
866.20 5.979488
866.30 5.980031
866.40 5.980573
866.50 5.981115
866.60 5.981657
866.70 5.982199
866.80 5.98274
866.90 5.98328
867.00 5.98382
867.10 5.98436
867.20 5.984899
867.30 5.985438
867.40 5.985977
867.50 5.986515
867.60 5.987052
867.70 5.98759
867.80 5.988127
867.90 5.988663
868.00 5.989199
868.10 5.989735
868.20 5.99027
868.30 5.990805
868.40 5.991339
868.50 5.991873
868.60 5.992407
868.70 5.99294
868.80 5.993473
868.90 5.994006
869.00 5.994538
869.10 5.995069
869.20 5.9956
869.30 5.996131
869.40 5.996662
869.50 5.997192
869.60 5.997721
869.70 5.99825
869.80 5.998779
869.90 5.999308
870.00 5.999836
870.10 6.000363
870.20 6.00089
870.30 6.001417
870.40 6.001943
870.50 6.002469
870.60 6.002995
870.70 6.00352
870.80 6.004045
870.90 6.004552
871.00 6.005058
871.10 6.005562
871.20 6.006067
871.30 6.006571
871.40 6.007075
871.50 6.007578
871.60 6.008081
871.70 6.008583
871.80 6.009085
871.90 6.009587
872.00 6.010088
872.10 6.010589
872.20 6.01109
872.30 6.01159
872.40 6.01209
872.50 6.012589
872.60 6.013088
872.70 6.013587
872.80 6.014085
872.90 6.014583
873.00 6.01508
873.10 6.015577
873.20 6.016074
873.30 6.01657
873.40 6.017066
873.50 6.017561
873.60 6.018057
873.70 6.018551
873.80 6.019046
873.90 6.01954
874.00 6.020033
874.10 6.020526
874.20 6.021019
874.30 6.021512
874.40 6.022004
874.50 6.022496
874.60 6.022987
874.70 6.023478
874.80 6.023968
874.90 6.024458
875.00 6.024948
875.10 6.025438
875.20 6.025927
875.30 6.026415
875.40 6.026903
875.50 6.027391
875.60 6.027879
875.70 6.028366
875.80 6.028853
875.90 6.029339
876.00 6.029825
876.10 6.030311
876.20 6.030796
876.30 6.031281
876.40 6.031765
876.50 6.032249
876.60 6.032733
876.70 6.033216
876.80 6.033699
876.90 6.034182
877.00 6.034664
877.10 6.035146
877.20 6.035627
877.30 6.036108
877.40 6.036589
877.50 6.037069
877.60 6.037549
877.70 6.038029
877.80 6.038508
877.90 6.038987
878.00 6.039465
878.10 6.039943
878.20 6.040421
878.30 6.040898
878.40 6.041375
878.50 6.041852
878.60 6.042328
878.70 6.042804
878.80 6.043279
878.90 6.043754
879.00 6.044229
879.10 6.044703
879.20 6.045177
879.30 6.045651
879.40 6.046124
879.50 6.046597
879.60 6.047054
879.70 6.047508
879.80 6.047961
879.90 6.048414
880.00 6.048866
880.10 6.049318
880.20 6.04977
880.30 6.050222
880.40 6.050673
880.50 6.051123
880.60 6.051574
880.70 6.052024
880.80 6.052473
880.90 6.052923
881.00 6.053372
881.10 6.05382
881.20 6.054268
881.30 6.054716
881.40 6.055164
881.50 6.055611
881.60 6.056058
881.70 6.056504
881.80 6.05695
881.90 6.057396
882.00 6.057841
882.10 6.058286
882.20 6.058731
882.30 6.059175
882.40 6.059619
882.50 6.060062
882.60 6.060506
882.70 6.060948
882.80 6.061391
882.90 6.061833
883.00 6.062275
883.10 6.062716
883.20 6.063157
883.30 6.063598
883.40 6.064038
883.50 6.064478
883.60 6.064918
883.70 6.065357
883.80 6.065796
883.90 6.066235
884.00 6.066673
884.10 6.067112
884.20 6.06755
884.30 6.067987
884.40 6.068424
884.50 6.068861
884.60 6.069298
884.70 6.069734
884.80 6.07017
884.90 6.070605
885.00 6.07104
885.10 6.071475
885.20 6.071909
885.30 6.072344
885.40 6.072777
885.50 6.073211
885.60 6.073644
885.70 6.074076
885.80 6.074509
885.90 6.07494
886.00 6.075372
886.10 6.075803
886.20 6.076234
886.30 6.076665
886.40 6.077095
886.50 6.077525
886.60 6.077954
886.70 6.078383
886.80 6.078812
886.90 6.079241
887.00 6.079669
887.10 6.080097
887.20 6.080524
887.30 6.080951
887.40 6.081378
887.50 6.081804
887.60 6.08223
887.70 6.082656
887.80 6.083081
887.90 6.083506
888.00 6.083931
888.10 6.084355
888.20 6.084779
888.30 6.085203
888.40 6.085568
888.50 6.085923
888.60 6.086279
888.70 6.086634
888.80 6.086988
888.90 6.087343
889.00 6.087697
889.10 6.088051
889.20 6.088404
889.30 6.088757
889.40 6.08911
889.50 6.089463
889.60 6.089815
889.70 6.090167
889.80 6.090518
889.90 6.09087
890.00 6.091221
890.10 6.091571
890.20 6.091922
890.30 6.092272
890.40 6.092622
890.50 6.092971
890.60 6.09332
890.70 6.093669
890.80 6.094017
890.90 6.094366
891.00 6.094713
891.10 6.095061
891.20 6.095408
891.30 6.095755
891.40 6.096102
891.50 6.096448
891.60 6.096794
891.70 6.09714
891.80 6.097485
891.90 6.09783
892.00 6.098175
892.10 6.09852
892.20 6.098864
892.30 6.099208
892.40 6.099551
892.50 6.099894
892.60 6.100237
892.70 6.10058
892.80 6.100922
892.90 6.101264
893.00 6.101606
893.10 6.101948
893.20 6.102289
893.30 6.102629
893.40 6.10297
893.50 6.10331
893.60 6.10365
893.70 6.10399
893.80 6.104329
893.90 6.104668
894.00 6.105006
894.10 6.105345
894.20 6.105683
894.30 6.106021
894.40 6.106358
894.50 6.106695
894.60 6.107032
894.70 6.107369
894.80 6.107705
894.90 6.108041
895.00 6.108376
895.10 6.108712
895.20 6.109047
895.30 6.109381
895.40 6.109716
895.50 6.11005
895.60 6.110384
895.70 6.110717
895.80 6.111051
895.90 6.111383
896.00 6.111716
896.10 6.112048
896.20 6.11238
896.30 6.112712
896.40 6.113044
896.50 6.113375
896.60 6.113705
896.70 6.114036
896.80 6.114366
896.90 6.114696
897.00 6.115026
897.10 6.115355
897.20 6.115685
897.30 6.116045
897.40 6.116405
897.50 6.116764
897.60 6.117123
897.70 6.117481
897.80 6.117839
897.90 6.118197
898.00 6.118555
898.10 6.118912
898.20 6.119269
898.30 6.119626
898.40 6.119982
898.50 6.120338
898.60 6.120694
898.70 6.121049
898.80 6.121405
898.90 6.121759
899.00 6.122114
899.10 6.122468
899.20 6.122822
899.30 6.123176
899.40 6.123529
899.50 6.123882
899.60 6.124234
899.70 6.124587
899.80 6.124939
899.90 6.125291
900.00 6.125642
900.10 6.125993
900.20 6.126344
900.30 6.126694
900.40 6.127045
900.50 6.127395
900.60 6.127744
900.70 6.128093
900.80 6.128442
900.90 6.128791
901.00 6.129139
901.10 6.129487
901.20 6.129835
901.30 6.130183
901.40 6.13053
901.50 6.130877
901.60 6.131223
901.70 6.131569
901.80 6.131915
901.90 6.132261
902.00 6.132606
902.10 6.132951
902.20 6.133296
902.30 6.13364
902.40 6.133984
902.50 6.134328
902.60 6.134672
902.70 6.135015
902.80 6.135358
902.90 6.1357
903.00 6.136043
903.10 6.136385
903.20 6.136726
903.30 6.137068
903.40 6.137409
903.50 6.13775
903.60 6.13809
903.70 6.13843
903.80 6.13877
903.90 6.13911
904.00 6.139449
904.10 6.139788
904.20 6.140127
904.30 6.140465
904.40 6.140803
904.50 6.141141
904.60 6.141478
904.70 6.141815
904.80 6.142152
904.90 6.142489
905.00 6.142825
905.10 6.143161
905.20 6.143497
905.30 6.143832
905.40 6.144167
905.50 6.144502
905.60 6.144836
905.70 6.145171
905.80 6.145505
905.90 6.145838
906.00 6.146171
906.10 6.146504
906.20 6.146832
906.30 6.147147
906.40 6.147463
906.50 6.147778
906.60 6.148093
906.70 6.148407
906.80 6.148721
906.90 6.149035
907.00 6.149349
907.10 6.149662
907.20 6.149975
907.30 6.150288
907.40 6.1506
907.50 6.150913
907.60 6.151224
907.70 6.151536
907.80 6.151847
907.90 6.152158
908.00 6.152469
908.10 6.15278
908.20 6.15309
908.30 6.1534
908.40 6.153709
908.50 6.154019
908.60 6.154328
908.70 6.154636
908.80 6.154945
908.90 6.155253
909.00 6.155561
909.10 6.155868
909.20 6.156176
909.30 6.156483
909.40 6.15679
909.50 6.157096
909.60 6.157402
909.70 6.157708
909.80 6.158014
909.90 6.158319
910.00 6.158624
910.10 6.158929
910.20 6.159233
910.30 6.159538
910.40 6.159842
910.50 6.160145
910.60 6.160449
910.70 6.160751
910.80 6.160962
910.90 6.161172
911.00 6.161382
911.10 6.161593
911.20 6.161802
911.30 6.162012
911.40 6.162221
911.50 6.162431
911.60 6.162639
911.70 6.162848
911.80 6.163057
911.90 6.163265
912.00 6.163473
912.10 6.16368
912.20 6.163888
912.30 6.164095
912.40 6.164302
912.50 6.164509
912.60 6.164715
912.70 6.164922
912.80 6.165128
912.90 6.165333
913.00 6.165539
913.10 6.165744
913.20 6.165949
913.30 6.166154
913.40 6.166359
913.50 6.166563
913.60 6.166767
913.70 6.166971
913.80 6.167175
913.90 6.167378
914.00 6.167581
914.10 6.167784
914.20 6.167987
914.30 6.16819
914.40 6.168392
914.50 6.168594
914.60 6.168796
914.70 6.168997
914.80 6.169198
914.90 6.169399
915.00 6.1696
915.10 6.169801
915.20 6.170001
915.30 6.170254
915.40 6.170529
915.50 6.170803
915.60 6.171077
915.70 6.171351
915.80 6.171625
915.90 6.171899
916.00 6.172172
916.10 6.172445
916.20 6.172717
916.30 6.17299
916.40 6.173262
916.50 6.173534
916.60 6.173805
916.70 6.174077
916.80 6.174348
916.90 6.174619
917.00 6.174889
917.10 6.175159
917.20 6.175429
917.30 6.175699
917.40 6.175969
917.50 6.176238
917.60 6.176507
917.70 6.176776
917.80 6.177044
917.90 6.177312
918.00 6.17758
918.10 6.177848
918.20 6.178115
918.30 6.178382
918.40 6.178649
918.50 6.178916
918.60 6.179182
918.70 6.179448
918.80 6.179714
918.90 6.179979
919.00 6.180245
919.10 6.18051
919.20 6.180774
919.30 6.181039
919.40 6.181303
919.50 6.181567
919.60 6.181831
919.70 6.182094
919.80 6.182358
919.90 6.182537
920.00 6.18271
920.10 6.182883
920.20 6.183056
920.30 6.183229
920.40 6.183401
920.50 6.183574
920.60 6.183746
920.70 6.183918
920.80 6.184089
920.90 6.184261
921.00 6.184432
921.10 6.184603
921.20 6.184774
921.30 6.184944
921.40 6.185115
921.50 6.185285
921.60 6.185455
921.70 6.185624
921.80 6.185794
921.90 6.185963
922.00 6.186132
922.10 6.186301
922.20 6.18647
922.30 6.186638
922.40 6.186806
922.50 6.186974
922.60 6.187142
922.70 6.187309
922.80 6.187477
922.90 6.187644
923.00 6.18781
923.10 6.187977
923.20 6.188143
923.30 6.18831
923.40 6.188476
923.50 6.188641
923.60 6.188807
923.70 6.188972
923.80 6.189137
923.90 6.189302
924.00 6.189467
924.10 6.189631
924.20 6.189796
924.30 6.18996
924.40 6.190137
924.50 6.190373
924.60 6.190609
924.70 6.190844
924.80 6.19108
924.90 6.191315
925.00 6.19155
925.10 6.191784
925.20 6.192019
925.30 6.192253
925.40 6.192487
925.50 6.192721
925.60 6.192954
925.70 6.193187
925.80 6.19342
925.90 6.193653
926.00 6.193885
926.10 6.194118
926.20 6.19435
926.30 6.194581
926.40 6.194813
926.50 6.195044
926.60 6.195275
926.70 6.195506
926.80 6.195736
926.90 6.195966
927.00 6.196196
927.10 6.196426
927.20 6.196656
927.30 6.196885
927.40 6.197114
927.50 6.197343
927.60 6.197571
927.70 6.1978
927.80 6.198028
927.90 6.198256
928.00 6.198483
928.10 6.198711
928.20 6.198938
928.30 6.199165
928.40 6.199391
928.50 6.199618
928.60 6.199844
928.70 6.20007
928.80 6.200295
928.90 6.200521
929.00 6.200746
929.10 6.200888
929.20 6.201026
929.30 6.201164
929.40 6.201301
929.50 6.201439
929.60 6.201576
929.70 6.201713
929.80 6.20185
929.90 6.201987
930.00 6.202123
930.10 6.202259
930.20 6.202395
930.30 6.202531
930.40 6.202667
930.50 6.202802
930.60 6.202938
930.70 6.203073
930.80 6.203207
930.90 6.203342
931.00 6.203477
931.10 6.203611
931.20 6.203745
931.30 6.203879
931.40 6.204012
931.50 6.204146
931.60 6.204279
931.70 6.204412
931.80 6.204545
931.90 6.204678
932.00 6.20481
932.10 6.204942
932.20 6.205074
932.30 6.205206
932.40 6.205338
932.50 6.205469
932.60 6.2056
932.70 6.205732
932.80 6.205862
932.90 6.205993
933.00 6.206123
933.10 6.206254
933.20 6.206384
933.30 6.206514
933.40 6.206643
933.50 6.206773
933.60 6.206902
933.70 6.207052
933.80 6.207209
933.90 6.207366
934.00 6.207522
934.10 6.207678
934.20 6.207835
934.30 6.207991
934.40 6.208146
934.50 6.208302
934.60 6.208457
934.70 6.208612
934.80 6.208767
934.90 6.208922
935.00 6.209076
935.10 6.20923
935.20 6.209384
935.30 6.209538
935.40 6.209692
935.50 6.209845
935.60 6.209998
935.70 6.210151
935.80 6.210304
935.90 6.210457
936.00 6.210609
936.10 6.210761
936.20 6.210913
936.30 6.211065
936.40 6.211217
936.50 6.211368
936.60 6.211519
936.70 6.21167
936.80 6.211821
936.90 6.211971
937.00 6.212122
937.10 6.212272
937.20 6.212422
937.30 6.212571
937.40 6.212721
937.50 6.21287
937.60 6.213019
937.70 6.213168
937.80 6.213317
937.90 6.213465
938.00 6.213613
938.10 6.213761
938.20 6.213909
938.30 6.214057
938.40 6.214204
938.50 6.214352
938.60 6.214499
938.70 6.214646
938.80 6.214792
938.90 6.214939
939.00 6.215085
939.10 6.215231
939.20 6.215377
939.30 6.215522
939.40 6.215668
939.50 6.215813
939.60 6.215958
939.70 6.216103
939.80 6.216247
939.90 6.216392
940.00 6.216536
940.10 6.21668
940.20 6.216824
940.30 6.216967
940.40 6.217111
940.50 6.217254
940.60 6.217397
940.70 6.21754
940.80 6.217682
940.90 6.217825
941.00 6.217967
941.10 6.218109
941.20 6.218251
941.30 6.218392
941.40 6.218534
941.50 6.218675
941.60 6.218816
941.70 6.218956
941.80 6.219097
941.90 6.219237
942.00 6.219378
942.10 6.219518
942.20 6.219657
942.30 6.219797
942.40 6.219936
942.50 6.220076
942.60 6.220215
942.70 6.220353
942.80 6.220492
942.90 6.22063
943.00 6.220747
943.10 6.22083
943.20 6.220912
943.30 6.220994
943.40 6.221075
943.50 6.221157
943.60 6.221238
943.70 6.221319
943.80 6.2214
943.90 6.221481
944.00 6.221562
944.10 6.221642
944.20 6.221723
944.30 6.221803
944.40 6.221883
944.50 6.221963
944.60 6.222042
944.70 6.222122
944.80 6.222201
944.90 6.22228
945.00 6.222359
945.10 6.222438
945.20 6.222517
945.30 6.222595
945.40 6.222673
945.50 6.222751
945.60 6.222829
945.70 6.222907
945.80 6.222985
945.90 6.223062
946.00 6.223139
946.10 6.223216
946.20 6.223293
946.30 6.22337
946.40 6.223446
946.50 6.223523
946.60 6.223599
946.70 6.223675
946.80 6.223751
946.90 6.223827
947.00 6.223902
947.10 6.223977
947.20 6.224053
947.30 6.224128
947.40 6.224202
947.50 6.224277
947.60 6.224352
947.70 6.224426
947.80 6.2245
947.90 6.224574
948.00 6.224648
948.10 6.224722
948.20 6.224795
948.30 6.224868
948.40 6.224941
948.50 6.225014
948.60 6.225087
948.70 6.22516
948.80 6.225232
948.90 6.225305
949.00 6.225377
949.10 6.225449
949.20 6.22552
949.30 6.225592
949.40 6.225664
949.50 6.225735
949.60 6.225806
949.70 6.225877
949.80 6.225948
949.90 6.226018
950.00 6.226089
950.10 6.226159
950.20 6.226229
950.30 6.226299
950.40 6.226369
950.50 6.226438
950.60 6.226508
950.70 6.226577
950.80 6.226646
950.90 6.226715
951.00 6.226784
951.10 6.226852
951.20 6.226921
951.30 6.226989
951.40 6.227057
951.50 6.227125
951.60 6.227193
951.70 6.227261
951.80 6.227328
951.90 6.227395
952.00 6.227462
952.10 6.227529
952.20 6.227596
952.30 6.227663
952.40 6.227728
952.50 6.227781
952.60 6.227833
952.70 6.227886
952.80 6.227938
952.90 6.22799
953.00 6.228042
953.10 6.228094
953.20 6.228145
953.30 6.228197
953.40 6.228248
953.50 6.228299
953.60 6.22835
953.70 6.228401
953.80 6.228452
953.90 6.228502
954.00 6.228553
954.10 6.228603
954.20 6.228653
954.30 6.228703
954.40 6.228752
954.50 6.228802
954.60 6.228851
954.70 6.228901
954.80 6.22895
954.90 6.228999
955.00 6.229047
955.10 6.229096
955.20 6.229144
955.30 6.229193
955.40 6.229241
955.50 6.229289
955.60 6.229337
955.70 6.229384
955.80 6.229432
955.90 6.229479
956.00 6.229526
956.10 6.229573
956.20 6.22962
956.30 6.229667
956.40 6.229714
956.50 6.22976
956.60 6.229806
956.70 6.229852
956.80 6.229898
956.90 6.229944
957.00 6.22999
957.10 6.230035
957.20 6.230044
957.30 6.23001
957.40 6.229976
957.50 6.229942
957.60 6.229907
957.70 6.229873
957.80 6.229838
957.90 6.229803
958.00 6.229768
958.10 6.229733
958.20 6.229698
958.30 6.229663
958.40 6.229628
958.50 6.229592
958.60 6.229557
958.70 6.229521
958.80 6.229485
958.90 6.229449
959.00 6.229413
959.10 6.229377
959.20 6.22934
959.30 6.229304
959.40 6.229267
959.50 6.229231
959.60 6.229194
959.70 6.229157
959.80 6.22912
959.90 6.229083
960.00 6.229045
960.10 6.229008
960.20 6.228971
960.30 6.228933
960.40 6.228895
960.50 6.228857
960.60 6.228819
960.70 6.228781
960.80 6.228743
960.90 6.228704
961.00 6.228666
961.10 6.228627
961.20 6.228589
961.30 6.22855
961.40 6.228511
961.50 6.228472
961.60 6.228433
961.70 6.228393
961.80 6.228354
961.90 6.228314
962.00 6.228329
962.10 6.228355
962.20 6.22838
962.30 6.228405
962.40 6.22843
962.50 6.228455
962.60 6.22848
962.70 6.228505
962.80 6.228529
962.90 6.228553
963.00 6.228578
963.10 6.228602
963.20 6.228625
963.30 6.228649
963.40 6.228673
963.50 6.228696
963.60 6.228719
963.70 6.228743
963.80 6.228766
963.90 6.228788
964.00 6.228811
964.10 6.228834
964.20 6.228856
964.30 6.228879
964.40 6.228901
964.50 6.228923
964.60 6.228945
964.70 6.228966
964.80 6.228988
964.90 6.229009
965.00 6.229031
965.10 6.229052
965.20 6.229073
965.30 6.229094
965.40 6.229114
965.50 6.229135
965.60 6.229155
965.70 6.229176
965.80 6.229196
965.90 6.229216
966.00 6.229236
966.10 6.229255
966.20 6.229275
966.30 6.229294
966.40 6.229314
966.50 6.229333
966.60 6.229352
966.70 6.229371
966.80 6.229389
966.90 6.229408
967.00 6.229427
967.10 6.229445
967.20 6.229463
967.30 6.229481
967.40 6.229499
967.50 6.229517
967.60 6.229534
967.70 6.229552
967.80 6.229569
967.90 6.229586
968.00 6.229603
968.10 6.22962
968.20 6.229637
968.30 6.229654
968.40 6.22967
968.50 6.229686
968.60 6.229703
968.70 6.229719
968.80 6.229735
968.90 6.22975
969.00 6.229766
969.10 6.229782
969.20 6.229797
969.30 6.229812
969.40 6.229827
969.50 6.229842
969.60 6.229857
969.70 6.229872
969.80 6.229886
969.90 6.229901
970.00 6.229915
970.10 6.229929
970.20 6.229943
970.30 6.229957
970.40 6.229971
970.50 6.229984
970.60 6.229998
970.70 6.230011
970.80 6.230024
970.90 6.230037
971.00 6.23005
971.10 6.230063
971.20 6.230075
971.30 6.230088
971.40 6.2301
971.50 6.230113
971.60 6.230067
971.70 6.229991
971.80 6.229915
971.90 6.229838
972.00 6.229762
972.10 6.229685
972.20 6.229608
972.30 6.229532
972.40 6.229455
972.50 6.229378
972.60 6.2293
972.70 6.229223
972.80 6.229146
972.90 6.229069
973.00 6.228991
973.10 6.228913
973.20 6.228836
973.30 6.228758
973.40 6.22868
973.50 6.228602
973.60 6.228524
973.70 6.228446
973.80 6.228367
973.90 6.228289
974.00 6.22821
974.10 6.228132
974.20 6.228053
974.30 6.227974
974.40 6.227895
974.50 6.227816
974.60 6.227737
974.70 6.227658
974.80 6.227579
974.90 6.227499
975.00 6.22742
975.10 6.22734
975.20 6.22726
975.30 6.22718
975.40 6.227101
975.50 6.227021
975.60 6.22694
975.70 6.22686
975.80 6.22678
975.90 6.2267
976.00 6.226619
976.10 6.226539
976.20 6.226458
976.30 6.226377
976.40 6.226296
976.50 6.226215
976.60 6.226134
976.70 6.226053
976.80 6.225972
976.90 6.22589
977.00 6.225809
977.10 6.225727
977.20 6.225646
977.30 6.225564
977.40 6.225482
977.50 6.2254
977.60 6.225318
977.70 6.225236
977.80 6.225154
977.90 6.225071
978.00 6.224989
978.10 6.224906
978.20 6.224824
978.30 6.224741
978.40 6.224658
978.50 6.224575
978.60 6.224492
978.70 6.224409
978.80 6.224326
978.90 6.224243
979.00 6.224159
979.10 6.224076
979.20 6.223992
979.30 6.223909
979.40 6.223825
979.50 6.223741
979.60 6.223657
979.70 6.223573
979.80 6.223489
979.90 6.223404
980.00 6.22332
980.10 6.223236
980.20 6.223151
980.30 6.223066
980.40 6.222982
980.50 6.222897
980.60 6.222812
980.70 6.222727
980.80 6.222642
980.90 6.222557
981.00 6.222471
981.10 6.222386
981.20 6.222301
981.30 6.222227
981.40 6.222166
981.50 6.222105
981.60 6.222044
981.70 6.221983
981.80 6.221922
981.90 6.22186
982.00 6.221799
982.10 6.221737
982.20 6.221675
982.30 6.221614
982.40 6.221552
982.50 6.22149
982.60 6.221427
982.70 6.221365
982.80 6.221303
982.90 6.22124
983.00 6.221178
983.10 6.221115
983.20 6.221052
983.30 6.220989
983.40 6.220926
983.50 6.220863
983.60 6.2208
983.70 6.220737
983.80 6.220674
983.90 6.22061
984.00 6.220546
984.10 6.220483
984.20 6.220419
984.30 6.220355
984.40 6.220291
984.50 6.220227
984.60 6.220163
984.70 6.220098
984.80 6.220034
984.90 6.219969
985.00 6.219905
985.10 6.21984
985.20 6.219775
985.30 6.21971
985.40 6.219645
985.50 6.21958
985.60 6.219515
985.70 6.21945
985.80 6.219384
985.90 6.219319
986.00 6.219253
986.10 6.219187
986.20 6.219121
986.30 6.219055
986.40 6.218989
986.50 6.218923
986.60 6.218857
986.70 6.218791
986.80 6.218724
986.90 6.218658
987.00 6.218591
987.10 6.218524
987.20 6.218457
987.30 6.218391
987.40 6.218323
987.50 6.218256
987.60 6.218189
987.70 6.218122
987.80 6.218054
987.90 6.217987
988.00 6.217919
988.10 6.217851
988.20 6.217783
988.30 6.217716
988.40 6.217647
988.50 6.217579
988.60 6.217511
988.70 6.217443
988.80 6.217374
988.90 6.217306
989.00 6.217237
989.10 6.217168
989.20 6.217099
989.30 6.217031
989.40 6.216961
989.50 6.216892
989.60 6.216823
989.70 6.216754
989.80 6.216684
989.90 6.216615
990.00 6.216545
990.10 6.216475
990.20 6.216406
990.30 6.216336
990.40 6.216266
990.50 6.216195
990.60 6.216125
990.70 6.216055
990.80 6.215984
990.90 6.215914
991.00 6.215843
991.10 6.215729
991.20 6.21554
991.30 6.215351
991.40 6.215162
991.50 6.214973
991.60 6.214784
991.70 6.214595
991.80 6.214405
991.90 6.214216
992.00 6.214027
992.10 6.213838
992.20 6.213648
992.30 6.213459
992.40 6.213269
992.50 6.21308
992.60 6.21289
992.70 6.2127
992.80 6.212511
992.90 6.212321
993.00 6.212131
993.10 6.211941
993.20 6.211751
993.30 6.211561
993.40 6.211371
993.50 6.211181
993.60 6.210991
993.70 6.210801
993.80 6.210611
993.90 6.21042
994.00 6.21023
994.10 6.21004
994.20 6.209849
994.30 6.209659
994.40 6.209468
994.50 6.209278
994.60 6.209087
994.70 6.208897
994.80 6.208706
994.90 6.208515
995.00 6.208324
995.10 6.208134
995.20 6.207943
995.30 6.207752
995.40 6.207561
995.50 6.20737
995.60 6.207179
995.70 6.206988
995.80 6.206796
995.90 6.206605
996.00 6.206414
996.10 6.20628
996.20 6.206159
996.30 6.206037
996.40 6.205916
996.50 6.205794
996.60 6.205673
996.70 6.205551
996.80 6.205429
996.90 6.205307
997.00 6.205185
997.10 6.205063
997.20 6.204941
997.30 6.204819
997.40 6.204697
997.50 6.204575
997.60 6.204452
997.70 6.20433
997.80 6.204207
997.90 6.204085
998.00 6.203962
998.10 6.203839
998.20 6.203716
998.30 6.203594
998.40 6.203471
998.50 6.203348
998.60 6.203224
998.70 6.203101
998.80 6.202978
998.90 6.202855
999.00 6.202731
999.10 6.202608
999.20 6.202484
999.30 6.20236
999.40 6.202237
999.50 6.202113
999.60 6.201989
999.70 6.201865
999.80 6.201741
999.90 6.201617
1000.00 6.201493
1000.10 6.201368
1000.20 6.201244
1000.30 6.20112
1000.40 6.200995
1000.50 6.200871
1000.60 6.200746
1000.70 6.200621
1000.80 6.200497
1000.90 6.200372
1001.00 6.200244
1001.10 6.200108
1001.20 6.199972
1001.30 6.199836
1001.40 6.1997
1001.50 6.199564
1001.60 6.199428
1001.70 6.199291
1001.80 6.199155
1001.90 6.199018
1002.00 6.198882
1002.10 6.198745
1002.20 6.198609
1002.30 6.198472
1002.40 6.198335
1002.50 6.198198
1002.60 6.198061
1002.70 6.197924
1002.80 6.197787
1002.90 6.19765
1003.00 6.197513
1003.10 6.197376
1003.20 6.197238
1003.30 6.197101
1003.40 6.196964
1003.50 6.196826
1003.60 6.196688
1003.70 6.196551
1003.80 6.196413
1003.90 6.196275
1004.00 6.196137
1004.10 6.195999
1004.20 6.195861
1004.30 6.195723
1004.40 6.195585
1004.50 6.195447
1004.60 6.195308
1004.70 6.19517
1004.80 6.195032
1004.90 6.194893
1005.00 6.194755
1005.10 6.194616
1005.20 6.194477
1005.30 6.194339
1005.40 6.1942
1005.50 6.194061
1005.60 6.193922
1005.70 6.193783
1005.80 6.193644
1005.90 6.193505
1006.00 6.193351
1006.10 6.193144
1006.20 6.192936
1006.30 6.192729
1006.40 6.192521
1006.50 6.192314
1006.60 6.192106
1006.70 6.191899
1006.80 6.191691
1006.90 6.191484
1007.00 6.191276
1007.10 6.191068
1007.20 6.19086
1007.30 6.190653
1007.40 6.190445
1007.50 6.190237
1007.60 6.190029
1007.70 6.189821
1007.80 6.189613
1007.90 6.189405
1008.00 6.189197
1008.10 6.188989
1008.20 6.188781
1008.30 6.188572
1008.40 6.188364
1008.50 6.188156
1008.60 6.187947
1008.70 6.187739
1008.80 6.187531
1008.90 6.187322
1009.00 6.187114
1009.10 6.186905
1009.20 6.186697
1009.30 6.186488
1009.40 6.186279
1009.50 6.186071
1009.60 6.185862
1009.70 6.185653
1009.80 6.185445
1009.90 6.185236
1010.00 6.185027
1010.10 6.184818
1010.20 6.184609
1010.30 6.1844
1010.40 6.184191
1010.50 6.183982
1010.60 6.183773
1010.70 6.183564
1010.80 6.183355
1010.90 6.183145
1011.00 6.182946
1011.10 6.182793
1011.20 6.18264
1011.30 6.182488
1011.40 6.182335
1011.50 6.182182
1011.60 6.182029
1011.70 6.181876
1011.80 6.181723
1011.90 6.18157
1012.00 6.181417
1012.10 6.181264
1012.20 6.18111
1012.30 6.180957
1012.40 6.180804
1012.50 6.18065
1012.60 6.180497
1012.70 6.180343
1012.80 6.180189
1012.90 6.180036
1013.00 6.179882
1013.10 6.179728
1013.20 6.179574
1013.30 6.17942
1013.40 6.179266
1013.50 6.179112
1013.60 6.178958
1013.70 6.178804
1013.80 6.17865
1013.90 6.178495
1014.00 6.178341
1014.10 6.178187
1014.20 6.178032
1014.30 6.177878
1014.40 6.177723
1014.50 6.177568
1014.60 6.177414
1014.70 6.177259
1014.80 6.177104
1014.90 6.176949
1015.00 6.176794
1015.10 6.176639
1015.20 6.176484
1015.30 6.176329
1015.40 6.176174
1015.50 6.176019
1015.60 6.175863
1015.70 6.175708
1015.80 6.175553
1015.90 6.175397
1016.00 6.175241
1016.10 6.175045
1016.20 6.174823
1016.30 6.174601
1016.40 6.174379
1016.50 6.174157
1016.60 6.173935
1016.70 6.173713
1016.80 6.173491
1016.90 6.173269
1017.00 6.173047
1017.10 6.172825
1017.20 6.172602
1017.30 6.17238
1017.40 6.172158
1017.50 6.171936
1017.60 6.171713
1017.70 6.171491
1017.80 6.171269
1017.90 6.171046
1018.00 6.170824
1018.10 6.170601
1018.20 6.170379
1018.30 6.170156
1018.40 6.169934
1018.50 6.169711
1018.60 6.169488
1018.70 6.169266
1018.80 6.169043
1018.90 6.16882
1019.00 6.168598
1019.10 6.168375
1019.20 6.168152
1019.30 6.167929
1019.40 6.167706
1019.50 6.167483
1019.60 6.16726
1019.70 6.167037
1019.80 6.166814
1019.90 6.166591
1020.00 6.166368
1020.10 6.166145
1020.20 6.165922
1020.30 6.165699
1020.40 6.165476
1020.50 6.165252
1020.60 6.165029
1020.70 6.164806
1020.80 6.164583
1020.90 6.164359
1021.00 6.164136
1021.10 6.163912
1021.20 6.163679
1021.30 6.163445
1021.40 6.163212
1021.50 6.162979
1021.60 6.162745
1021.70 6.162512
1021.80 6.162278
1021.90 6.162045
1022.00 6.161811
1022.10 6.161578
1022.20 6.161344
1022.30 6.161111
1022.40 6.160877
1022.50 6.160644
1022.60 6.16041
1022.70 6.160176
1022.80 6.159943
1022.90 6.159709
1023.00 6.159475
1023.10 6.159241
1023.20 6.159008
1023.30 6.158774
1023.40 6.15854
1023.50 6.158306
1023.60 6.158072
1023.70 6.157838
1023.80 6.157604
1023.90 6.15737
1024.00 6.157136
1024.10 6.156902
1024.20 6.156668
1024.30 6.156434
1024.40 6.1562
1024.50 6.155966
1024.60 6.155732
1024.70 6.155497
1024.80 6.155263
1024.90 6.155029
1025.00 6.154795
1025.10 6.15456
1025.20 6.154326
1025.30 6.154092
1025.40 6.153857
1025.50 6.153623
1025.60 6.153389
1025.70 6.153154
1025.80 6.15292
1025.90 6.152685
1026.00 6.152451
1026.10 6.152216
1026.20 6.151981
1026.30 6.151747
1026.40 6.151513
1026.50 6.151278
1026.60 6.151044
1026.70 6.150809
1026.80 6.150575
1026.90 6.15034
1027.00 6.150105
1027.10 6.149871
1027.20 6.149636
1027.30 6.149402
1027.40 6.149167
1027.50 6.148932
1027.60 6.148697
1027.70 6.148463
1027.80 6.148228
1027.90 6.147993
1028.00 6.147758
1028.10 6.147523
1028.20 6.147288
1028.30 6.147054
1028.40 6.146819
1028.50 6.146584
1028.60 6.146349
1028.70 6.146114
1028.80 6.145879
1028.90 6.145644
1029.00 6.145408
1029.10 6.145173
1029.20 6.144938
1029.30 6.144703
1029.40 6.144468
1029.50 6.144233
1029.60 6.143997
1029.70 6.143762
1029.80 6.143527
1029.90 6.143292
1030.00 6.143056
1030.10 6.142821
1030.20 6.142585
1030.30 6.14235
1030.40 6.142115
1030.50 6.141879
1030.60 6.141644
1030.70 6.141408
1030.80 6.141173
1030.90 6.140937
1031.00 6.140702
1031.10 6.140466
1031.20 6.14023
1031.30 6.139995
1031.40 6.139689
1031.50 6.139381
1031.60 6.139073
1031.70 6.138764
1031.80 6.138456
1031.90 6.138148
1032.00 6.137839
1032.10 6.137531
1032.20 6.137223
1032.30 6.136915
1032.40 6.136606
1032.50 6.136298
1032.60 6.13599
1032.70 6.135681
1032.80 6.135373
1032.90 6.135065
1033.00 6.134757
1033.10 6.134448
1033.20 6.13414
1033.30 6.133832
1033.40 6.133524
1033.50 6.133216
1033.60 6.132907
1033.70 6.132599
1033.80 6.132291
1033.90 6.131983
1034.00 6.131674
1034.10 6.131366
1034.20 6.131058
1034.30 6.13075
1034.40 6.130442
1034.50 6.130133
1034.60 6.129825
1034.70 6.129517
1034.80 6.129209
1034.90 6.128901
1035.00 6.128593
1035.10 6.128284
1035.20 6.127976
1035.30 6.127668
1035.40 6.12736
1035.50 6.127052
1035.60 6.126744
1035.70 6.126436
1035.80 6.126128
1035.90 6.125819
1036.00 6.125511
1036.10 6.125203
1036.20 6.124895
1036.30 6.124587
1036.40 6.124279
1036.50 6.123995
1036.60 6.12375
1036.70 6.123504
1036.80 6.123259
1036.90 6.123013
1037.00 6.122767
1037.10 6.122522
1037.20 6.122276
1037.30 6.12203
1037.40 6.121785
1037.50 6.121539
1037.60 6.121293
1037.70 6.121048
1037.80 6.120802
1037.90 6.120556
1038.00 6.12031
1038.10 6.120065
1038.20 6.119819
1038.30 6.119573
1038.40 6.119327
1038.50 6.119081
1038.60 6.118835
1038.70 6.118589
1038.80 6.118343
1038.90 6.118097
1039.00 6.117851
1039.10 6.117605
1039.20 6.117359
1039.30 6.117113
1039.40 6.116867
1039.50 6.116621
1039.60 6.116375
1039.70 6.116129
1039.80 6.115883
1039.90 6.115637
1040.00 6.115391
1040.10 6.115144
1040.20 6.114898
1040.30 6.114652
1040.40 6.114406
1040.50 6.11416
1040.60 6.113913
1040.70 6.113667
1040.80 6.113421
1040.90 6.113174
1041.00 6.112928
1041.10 6.112682
1041.20 6.112435
1041.30 6.112189
1041.40 6.111942
1041.50 6.111696
1041.60 6.11145
1041.70 6.111145
1041.80 6.110828
1041.90 6.110511
1042.00 6.110194
1042.10 6.109877
1042.20 6.10956
1042.30 6.109243
1042.40 6.108927
1042.50 6.10861
1042.60 6.108293
1042.70 6.107976
1042.80 6.107659
1042.90 6.107343
1043.00 6.107026
1043.10 6.106709
1043.20 6.106392
1043.30 6.106076
1043.40 6.105759
1043.50 6.105442
1043.60 6.105125
1043.70 6.104809
1043.80 6.104492
1043.90 6.104175
1044.00 6.103859
1044.10 6.103542
1044.20 6.103225
1044.30 6.102909
1044.40 6.102592
1044.50 6.102275
1044.60 6.101959
1044.70 6.101642
1044.80 6.101325
1044.90 6.101009
1045.00 6.100692
1045.10 6.100376
1045.20 6.100059
1045.30 6.099742
1045.40 6.099426
1045.50 6.099109
1045.60 6.098793
1045.70 6.098476
1045.80 6.09816
1045.90 6.097843
1046.00 6.097527
1046.10 6.09721
1046.20 6.096894
1046.30 6.096577
1046.40 6.096261
1046.50 6.095944
1046.60 6.095628
1046.70 6.095312
1046.80 6.094995
1046.90 6.094679
1047.00 6.094362
1047.10 6.094046
1047.20 6.09373
1047.30 6.093413
1047.40 6.093097
1047.50 6.09278
1047.60 6.092464
1047.70 6.092148
1047.80 6.091831
1047.90 6.091515
1048.00 6.091199
1048.10 6.090882
1048.20 6.090566
1048.30 6.09025
1048.40 6.089934
1048.50 6.089617
1048.60 6.089301
1048.70 6.088985
1048.80 6.088669
1048.90 6.088352
1049.00 6.088036
1049.10 6.08772
1049.20 6.087404
1049.30 6.087088
1049.40 6.086772
1049.50 6.086455
1049.60 6.086139
1049.70 6.085823
1049.80 6.085507
1049.90 6.085191
1050.00 6.084875
1050.10 6.084559
1050.20 6.084243
1050.30 6.083926
1050.40 6.08361
1050.50 6.083294
1050.60 6.082978
1050.70 6.082662
1050.80 6.082346
1050.90 6.08203
1051.00 6.081714
1051.10 6.081398
1051.20 6.081082
1051.30 6.080766
1051.40 6.08045
1051.50 6.080134
1051.60 6.079818
1051.70 6.079502
1051.80 6.079187
1051.90 6.078871
1052.00 6.078555
1052.10 6.078233
1052.20 6.077909
1052.30 6.077585
1052.40 6.07726
1052.50 6.076936
1052.60 6.076612
1052.70 6.076288
1052.80 6.075964
1052.90 6.07564
1053.00 6.075315
1053.10 6.074991
1053.20 6.074667
1053.30 6.074343
1053.40 6.074019
1053.50 6.073695
1053.60 6.073371
1053.70 6.073047
1053.80 6.072723
1053.90 6.072399
1054.00 6.072075
1054.10 6.071751
1054.20 6.071427
1054.30 6.071103
1054.40 6.070779
1054.50 6.070455
1054.60 6.070131
1054.70 6.069807
1054.80 6.069483
1054.90 6.069159
1055.00 6.068835
1055.10 6.068511
1055.20 6.068187
1055.30 6.067864
1055.40 6.06754
1055.50 6.067216
1055.60 6.066892
1055.70 6.066568
1055.80 6.066245
1055.90 6.065921
1056.00 6.065597
1056.10 6.065273
1056.20 6.06495
1056.30 6.064626
1056.40 6.064302
1056.50 6.063979
1056.60 6.063655
1056.70 6.063331
1056.80 6.063008
1056.90 6.062684
1057.00 6.062361
1057.10 6.062037
1057.20 6.061713
1057.30 6.06139
1057.40 6.061066
1057.50 6.060743
1057.60 6.060419
1057.70 6.060096
1057.80 6.059772
1057.90 6.059449
1058.00 6.059125
1058.10 6.058802
1058.20 6.058478
1058.30 6.058155
1058.40 6.057832
1058.50 6.057508
1058.60 6.057185
1058.70 6.056861
1058.80 6.056538
1058.90 6.056215
1059.00 6.055891
1059.10 6.055568
1059.20 6.055245
1059.30 6.054922
1059.40 6.054598
1059.50 6.054275
1059.60 6.053952
1059.70 6.053629
1059.80 6.053305
1059.90 6.052982
1060.00 6.052659
1060.10 6.052336
1060.20 6.052013
1060.30 6.05169
1060.40 6.051366
1060.50 6.051043
1060.60 6.05072
1060.70 6.050397
1060.80 6.050074
1060.90 6.049751
1061.00 6.049428
1061.10 6.049105
1061.20 6.048782
1061.30 6.048459
1061.40 6.048136
1061.50 6.047813
1061.60 6.04749
1061.70 6.047167
1061.80 6.046844
1061.90 6.046521
1062.00 6.046198
1062.10 6.045875
1062.20 6.045553
1062.30 6.04523
1062.40 6.044907
1062.50 6.044584
1062.60 6.044231
1062.70 6.043843
1062.80 6.043454
1062.90 6.043066
1063.00 6.042678
1063.10 6.042289
1063.20 6.041901
1063.30 6.041513
1063.40 6.041125
1063.50 6.040736
1063.60 6.040348
1063.70 6.03996
1063.80 6.039572
1063.90 6.039184
1064.00 6.038796
1064.10 6.038408
1064.20 6.038021
1064.30 6.037633
1064.40 6.037245
1064.50 6.036857
1064.60 6.036469
1064.70 6.036082
1064.80 6.035694
1064.90 6.035307
1065.00 6.034919
1065.10 6.034531
1065.20 6.034144
1065.30 6.033757
1065.40 6.033369
1065.50 6.032982
1065.60 6.032594
1065.70 6.032207
1065.80 6.03182
1065.90 6.031433
1066.00 6.031046
1066.10 6.030658
1066.20 6.030271
1066.30 6.029884
1066.40 6.029497
1066.50 6.02911
1066.60 6.028723
1066.70 6.028337
1066.80 6.02795
1066.90 6.027563
1067.00 6.027176
1067.10 6.026789
1067.20 6.026403
1067.30 6.026016
1067.40 6.025629
1067.50 6.025243
1067.60 6.024856
1067.70 6.02447
1067.80 6.024083
1067.90 6.023716
1068.00 6.023387
1068.10 6.023057
1068.20 6.022728
1068.30 6.022399
1068.40 6.02207
1068.50 6.021741
1068.60 6.021412
1068.70 6.021083
1068.80 6.020754
1068.90 6.020425
1069.00 6.020096
1069.10 6.019767
1069.20 6.019438
1069.30 6.019109
1069.40 6.01878
1069.50 6.018451
1069.60 6.018122
1069.70 6.017793
1069.80 6.017464
1069.90 6.017135
1070.00 6.016807
1070.10 6.016478
1070.20 6.016149
1070.30 6.01582
1070.40 6.015491
1070.50 6.015163
1070.60 6.014834
1070.70 6.014505
1070.80 6.014177
1070.90 6.013848
1071.00 6.013519
1071.10 6.013191
1071.20 6.012862
1071.30 6.012533
1071.40 6.012205
1071.50 6.011876
1071.60 6.011548
1071.70 6.011219
1071.80 6.010891
1071.90 6.010562
1072.00 6.010234
1072.10 6.009905
1072.20 6.009577
1072.30 6.009248
1072.40 6.00892
1072.50 6.008592
1072.60 6.008263
1072.70 6.007935
1072.80 6.007607
1072.90 6.007278
1073.00 6.00695
1073.10 6.006622
1073.20 6.00628
1073.30 6.005888
1073.40 6.005496
1073.50 6.005104
1073.60 6.004712
1073.70 6.00432
1073.80 6.003928
1073.90 6.003536
1074.00 6.003144
1074.10 6.002752
1074.20 6.002361
1074.30 6.001969
1074.40 6.001577
1074.50 6.001186
1074.60 6.000794
1074.70 6.000403
1074.80 6.000011
1074.90 5.99962
1075.00 5.999228
1075.10 5.998837
1075.20 5.998445
1075.30 5.998054
1075.40 5.997663
1075.50 5.997272
1075.60 5.996881
1075.70 5.996489
1075.80 5.996098
1075.90 5.995707
1076.00 5.995316
1076.10 5.994925
1076.20 5.994535
1076.30 5.994144
1076.40 5.993753
1076.50 5.993362
1076.60 5.992971
1076.70 5.992581
1076.80 5.99219
1076.90 5.991799
1077.00 5.991409
1077.10 5.991018
1077.20 5.990628
1077.30 5.990237
1077.40 5.989847
1077.50 5.989456
1077.60 5.989066
1077.70 5.988676
1077.80 5.988286
1077.90 5.987895
1078.00 5.987505
1078.10 5.987115
1078.20 5.986725
1078.30 5.986335
1078.40 5.985945
1078.50 5.985555
1078.60 5.985165
1078.70 5.984775
1078.80 5.984385
1078.90 5.983996
1079.00 5.983606
1079.10 5.983216
1079.20 5.982827
1079.30 5.982437
1079.40 5.982047
1079.50 5.981658
1079.60 5.981268
1079.70 5.980879
1079.80 5.98049
1079.90 5.9801
1080.00 5.979711
1080.10 5.979322
1080.20 5.978932
1080.30 5.978543
1080.40 5.978154
1080.50 5.977765
1080.60 5.977376
1080.70 5.976987
1080.80 5.976598
1080.90 5.976209
1081.00 5.97582
1081.10 5.975431
1081.20 5.975042
1081.30 5.974653
1081.40 5.974265
1081.50 5.973876
1081.60 5.973487
1081.70 5.973099
1081.80 5.97271
1081.90 5.972322
1082.00 5.971933
1082.10 5.971545
1082.20 5.971156
1082.30 5.970768
1082.40 5.970379
1082.50 5.969991
1082.60 5.969603
1082.70 5.969215
1082.80 5.968827
1082.90 5.968438
1083.00 5.96805
1083.10 5.967662
1083.20 5.967274
1083.30 5.966886
1083.40 5.966498
1083.50 5.966111
1083.60 5.965723
1083.70 5.965335
1083.80 5.964947
1083.90 5.96456
1084.00 5.964166
1084.10 5.963771
1084.20 5.963376
1084.30 5.962982
1084.40 5.962587
1084.50 5.962192
1084.60 5.961798
1084.70 5.961403
1084.80 5.961009
1084.90 5.960615
1085.00 5.96022
1085.10 5.959826
1085.20 5.959432
1085.30 5.959038
1085.40 5.958644
1085.50 5.958249
1085.60 5.957855
1085.70 5.957461
1085.80 5.957067
1085.90 5.956673
1086.00 5.95628
1086.10 5.955886
1086.20 5.955492
1086.30 5.955098
1086.40 5.954704
1086.50 5.954311
1086.60 5.953917
1086.70 5.953524
1086.80 5.95313
1086.90 5.952737
1087.00 5.952343
1087.10 5.95195
1087.20 5.951556
1087.30 5.951163
1087.40 5.95077
1087.50 5.950377
1087.60 5.949983
1087.70 5.94959
1087.80 5.949197
1087.90 5.948804
1088.00 5.948411
1088.10 5.948018
1088.20 5.947625
1088.30 5.947232
1088.40 5.94684
1088.50 5.946447
1088.60 5.946054
1088.70 5.945661
1088.80 5.945269
1088.90 5.944876
1089.00 5.944484
1089.10 5.944091
1089.20 5.943699
1089.30 5.943306
1089.40 5.942877
1089.50 5.942431
1089.60 5.941985
1089.70 5.941539
1089.80 5.941093
1089.90 5.940648
1090.00 5.940202
1090.10 5.939756
1090.20 5.939311
1090.30 5.938866
1090.40 5.93842
1090.50 5.937975
1090.60 5.93753
1090.70 5.937084
1090.80 5.936639
1090.90 5.936194
1091.00 5.935749
1091.10 5.935304
1091.20 5.934859
1091.30 5.934415
1091.40 5.93397
1091.50 5.933525
1091.60 5.933081
1091.70 5.932636
1091.80 5.932191
1091.90 5.931747
1092.00 5.931303
1092.10 5.930858
1092.20 5.930414
1092.30 5.92997
1092.40 5.929526
1092.50 5.929082
1092.60 5.928638
1092.70 5.928194
1092.80 5.92775
1092.90 5.927306
1093.00 5.926863
1093.10 5.926419
1093.20 5.925975
1093.30 5.925532
1093.40 5.925088
1093.50 5.924645
1093.60 5.924201
1093.70 5.923758
1093.80 5.923315
1093.90 5.922872
1094.00 5.922429
1094.10 5.921986
1094.20 5.921543
1094.30 5.9211
1094.40 5.920657
1094.50 5.920214
1094.60 5.919771
1094.70 5.919329
1094.80 5.918896
1094.90 5.918473
1095.00 5.918051
1095.10 5.917628
1095.20 5.917206
1095.30 5.916784
1095.40 5.916361
1095.50 5.915939
1095.60 5.915517
1095.70 5.915095
1095.80 5.914672
1095.90 5.91425
1096.00 5.913828
1096.10 5.913406
1096.20 5.912985
1096.30 5.912563
1096.40 5.912141
1096.50 5.911719
1096.60 5.911298
1096.70 5.910876
1096.80 5.910454
1096.90 5.910033
1097.00 5.909611
1097.10 5.90919
1097.20 5.908769
1097.30 5.908347
1097.40 5.907926
1097.50 5.907505
1097.60 5.907084
1097.70 5.906663
1097.80 5.906242
1097.90 5.905821
1098.00 5.9054
1098.10 5.904979
1098.20 5.904558
1098.30 5.904138
1098.40 5.903717
1098.50 5.903296
1098.60 5.902876
1098.70 5.902455
1098.80 5.902035
1098.90 5.901615
1099.00 5.901194
1099.10 5.900774
1099.20 5.900354
1099.30 5.899934
1099.40 5.899513
1099.50 5.899093
1099.60 5.898673
1099.70 5.898253
1099.80 5.897833
1099.90 5.897414
1100.00 5.896994
1100.10 5.896574
1100.20 5.896154
1100.30 5.895735
1100.40 5.895315
1100.50 5.894896
1100.60 5.894476
1100.70 5.894057
1100.80 5.893638
1100.90 5.893218
1101.00 5.892799
1101.10 5.89238
1101.20 5.891961
1101.30 5.891542
1101.40 5.891123
1101.50 5.890704
1101.60 5.890285
1101.70 5.889866
1101.80 5.889447
1101.90 5.889028
1102.00 5.88861
1102.10 5.888191
1102.20 5.887772
1102.30 5.887354
1102.40 5.886936
1102.50 5.886517
1102.60 5.886099
1102.70 5.88568
1102.80 5.885262
1102.90 5.884844
1103.00 5.884426
1103.10 5.884008
1103.20 5.88359
1103.30 5.883172
1103.40 5.882754
1103.50 5.882336
1103.60 5.881918
1103.70 5.8815
1103.80 5.881083
1103.90 5.880665
1104.00 5.880248
1104.10 5.87983
1104.20 5.879413
1104.30 5.878995
1104.40 5.878578
1104.50 5.87816
1104.60 5.877743
1104.70 5.877326
1104.80 5.876909
1104.90 5.876492
1105.00 5.876075
1105.10 5.875658
1105.20 5.875241
1105.30 5.874824
1105.40 5.874407
1105.50 5.87399
1105.60 5.873574
1105.70 5.873156
1105.80 5.872708
1105.90 5.872259
1106.00 5.871811
1106.10 5.871363
1106.20 5.870914
1106.30 5.870466
1106.40 5.870018
1106.50 5.86957
1106.60 5.869122
1106.70 5.868674
1106.80 5.868226
1106.90 5.867778
1107.00 5.86733
1107.10 5.866883
1107.20 5.866435
1107.30 5.865988
1107.40 5.86554
1107.50 5.865093
1107.60 5.864645
1107.70 5.864198
1107.80 5.863751
1107.90 5.863304
1108.00 5.862857
1108.10 5.86241
1108.20 5.861963
1108.30 5.861516
1108.40 5.861069
1108.50 5.860622
1108.60 5.860176
1108.70 5.859729
1108.80 5.859282
1108.90 5.858836
1109.00 5.85839
1109.10 5.857943
1109.20 5.857497
1109.30 5.857051
1109.40 5.856604
1109.50 5.856158
1109.60 5.855712
1109.70 5.855266
1109.80 5.85482
1109.90 5.854375
1110.00 5.853929
1110.10 5.853483
1110.20 5.853038
1110.30 5.852592
1110.40 5.852146
1110.50 5.851701
1110.60 5.851256
1110.70 5.85081
1110.80 5.850365
1110.90 5.84992
1111.00 5.849475
1111.10 5.84903
1111.20 5.848585
1111.30 5.84814
1111.40 5.847695
1111.50 5.84725
1111.60 5.846806
1111.70 5.846361
1111.80 5.845916
1111.90 5.845472
1112.00 5.845027
1112.10 5.844583
1112.20 5.844139
1112.30 5.843694
1112.40 5.84325
1112.50 5.842806
1112.60 5.842362
1112.70 5.841918
1112.80 5.841474
1112.90 5.84103
1113.00 5.840586
1113.10 5.840143
1113.20 5.839699
1113.30 5.839255
1113.40 5.838812
1113.50 5.838368
1113.60 5.837925
1113.70 5.837481
1113.80 5.837038
1113.90 5.836595
1114.00 5.836152
1114.10 5.835709
1114.20 5.835266
1114.30 5.834823
1114.40 5.83438
1114.50 5.833937
1114.60 5.833494
1114.70 5.833052
1114.80 5.832609
1114.90 5.832166
1115.00 5.831724
1115.10 5.831281
1115.20 5.830839
1115.30 5.830397
1115.40 5.829954
1115.50 5.829512
1115.60 5.82907
1115.70 5.828628
1115.80 5.828186
1115.90 5.827744
1116.00 5.827302
1116.10 5.826861
1116.20 5.826419
1116.30 5.825977
1116.40 5.825536
1116.50 5.825094
1116.60 5.824653
1116.70 5.824211
1116.80 5.823745
1116.90 5.823248
1117.00 5.822751
1117.10 5.822254
1117.20 5.821758
1117.30 5.821261
1117.40 5.820765
1117.50 5.820268
1117.60 5.819772
1117.70 5.819276
1117.80 5.81878
1117.90 5.818284
1118.00 5.817788
1118.10 5.817292
1118.20 5.816796
1118.30 5.816301
1118.40 5.815805
1118.50 5.815309
1118.60 5.814814
1118.70 5.814319
1118.80 5.813823
1118.90 5.813328
1119.00 5.812833
1119.10 5.812338
1119.20 5.811843
1119.30 5.811348
1119.40 5.810853
1119.50 5.810359
1119.60 5.809864
1119.70 5.80937
1119.80 5.808875
1119.90 5.808381
1120.00 5.807887
1120.10 5.807392
1120.20 5.806898
1120.30 5.806404
1120.40 5.80591
1120.50 5.805417
1120.60 5.804923
1120.70 5.804429
1120.80 5.803936
1120.90 5.803442
1121.00 5.802949
1121.10 5.802455
1121.20 5.801962
1121.30 5.801469
1121.40 5.800976
1121.50 5.800483
1121.60 5.79999
1121.70 5.799497
1121.80 5.799004
1121.90 5.798512
1122.00 5.798019
1122.10 5.797526
1122.20 5.797034
1122.30 5.796542
1122.40 5.796079
1122.50 5.795637
1122.60 5.795194
1122.70 5.794751
1122.80 5.794308
1122.90 5.793865
1123.00 5.793423
1123.10 5.79298
1123.20 5.792538
1123.30 5.792095
1123.40 5.791653
1123.50 5.791211
1123.60 5.790769
1123.70 5.790326
1123.80 5.789884
1123.90 5.789442
1124.00 5.789
1124.10 5.788558
1124.20 5.788117
1124.30 5.787675
1124.40 5.787233
1124.50 5.786792
1124.60 5.78635
1124.70 5.785909
1124.80 5.785467
1124.90 5.785026
1125.00 5.784584
1125.10 5.784143
1125.20 5.783702
1125.30 5.783261
1125.40 5.78282
1125.50 5.782379
1125.60 5.781938
1125.70 5.781497
1125.80 5.781056
1125.90 5.780616
1126.00 5.780175
1126.10 5.779735
1126.20 5.779294
1126.30 5.778854
1126.40 5.778413
1126.50 5.777973
1126.60 5.777533
1126.70 5.777092
1126.80 5.776652
1126.90 5.776212
1127.00 5.775772
1127.10 5.775332
1127.20 5.774892
1127.30 5.774453
1127.40 5.774013
1127.50 5.773573
1127.60 5.773134
1127.70 5.772694
1127.80 5.772255
1127.90 5.771815
1128.00 5.771334
1128.10 5.77084
1128.20 5.770347
1128.30 5.769854
1128.40 5.769361
1128.50 5.768868
1128.60 5.768375
1128.70 5.767882
1128.80 5.767389
1128.90 5.766897
1129.00 5.766404
1129.10 5.765912
1129.20 5.765419
1129.30 5.764927
1129.40 5.764435
1129.50 5.763943
1129.60 5.763451
1129.70 5.762959
1129.80 5.762467
1129.90 5.761975
1130.00 5.761483
1130.10 5.760991
1130.20 5.7605
1130.30 5.760008
1130.40 5.759517
1130.50 5.759026
1130.60 5.758534
1130.70 5.758043
1130.80 5.757552
1130.90 5.757061
1131.00 5.75657
1131.10 5.75608
1131.20 5.755589
1131.30 5.755098
1131.40 5.754608
1131.50 5.754117
1131.60 5.753627
1131.70 5.753136
1131.80 5.752646
1131.90 5.752156
1132.00 5.751666
1132.10 5.751176
1132.20 5.750686
1132.30 5.750196
1132.40 5.749707
1132.50 5.749217
1132.60 5.748727
1132.70 5.748238
1132.80 5.747748
1132.90 5.747259
1133.00 5.74677
1133.10 5.746281
1133.20 5.745792
1133.30 5.745303
1133.40 5.744814
1133.50 5.744325
1133.60 5.743836
1133.70 5.743348
1133.80 5.742859
1133.90 5.742371
1134.00 5.741882
1134.10 5.741394
1134.20 5.740906
1134.30 5.740418
1134.40 5.739929
1134.50 5.739441
1134.60 5.738954
1134.70 5.738466
1134.80 5.737978
1134.90 5.73749
1135.00 5.737003
1135.10 5.736515
1135.20 5.736028
1135.30 5.735541
1135.40 5.735053
1135.50 5.734566
1135.60 5.734079
1135.70 5.733592
1135.80 5.733105
1135.90 5.732618
1136.00 5.732132
1136.10 5.731645
1136.20 5.731158
1136.30 5.730672
1136.40 5.730185
1136.50 5.729699
1136.60 5.729213
1136.70 5.728727
1136.80 5.728241
1136.90 5.727755
1137.00 5.727269
1137.10 5.726783
1137.20 5.726297
1137.30 5.725811
1137.40 5.725326
1137.50 5.72484
1137.60 5.724355
1137.70 5.72387
1137.80 5.723384
1137.90 5.722899
1138.00 5.722414
1138.10 5.721929
1138.20 5.721444
1138.30 5.720959
1138.40 5.720474
1138.50 5.71999
1138.60 5.719505
1138.70 5.719021
1138.80 5.718536
1138.90 5.718052
1139.00 5.717568
1139.10 5.717083
1139.20 5.716599
1139.30 5.716087
1139.40 5.715575
1139.50 5.715063
1139.60 5.71455
1139.70 5.714038
1139.80 5.713526
1139.90 5.713014
1140.00 5.712502
1140.10 5.71199
1140.20 5.711479
1140.30 5.710967
1140.40 5.710456
1140.50 5.709944
1140.60 5.709433
1140.70 5.708922
1140.80 5.708411
1140.90 5.7079
1141.00 5.707389
1141.10 5.706878
1141.20 5.706367
1141.30 5.705856
1141.40 5.705346
1141.50 5.704835
1141.60 5.704325
1141.70 5.703814
1141.80 5.703304
1141.90 5.702794
1142.00 5.702284
1142.10 5.701774
1142.20 5.701264
1142.30 5.700754
1142.40 5.700245
1142.50 5.699735
1142.60 5.699226
1142.70 5.698716
1142.80 5.698207
1142.90 5.697698
1143.00 5.697189
1143.10 5.696679
1143.20 5.696171
1143.30 5.695662
1143.40 5.695153
1143.50 5.694644
1143.60 5.694136
1143.70 5.693627
1143.80 5.693119
1143.90 5.69261
1144.00 5.692102
1144.10 5.691594
1144.20 5.691086
1144.30 5.690578
1144.40 5.69007
1144.50 5.689562
1144.60 5.689055
1144.70 5.688547
1144.80 5.68804
1144.90 5.687532
1145.00 5.687025
1145.10 5.686518
1145.20 5.68601
1145.30 5.685503
1145.40 5.684996
1145.50 5.68449
1145.60 5.683983
1145.70 5.683476
1145.80 5.68297
1145.90 5.682463
1146.00 5.681957
1146.10 5.68145
1146.20 5.680944
1146.30 5.680438
1146.40 5.679932
1146.50 5.679426
1146.60 5.67892
1146.70 5.678414
1146.80 5.677909
1146.90 5.677403
1147.00 5.676897
1147.10 5.676392
1147.20 5.675887
1147.30 5.675381
1147.40 5.674876
1147.50 5.674371
1147.60 5.673866
1147.70 5.673361
1147.80 5.672857
1147.90 5.672352
1148.00 5.671847
1148.10 5.671343
1148.20 5.670838
1148.30 5.670334
1148.40 5.66983
1148.50 5.669325
1148.60 5.668821
1148.70 5.668317
1148.80 5.667813
1148.90 5.66731
1149.00 5.666806
1149.10 5.666302
1149.20 5.665799
1149.30 5.665295
1149.40 5.664792
1149.50 5.664289
1149.60 5.663785
1149.70 5.663282
1149.80 5.662779
1149.90 5.662276
1150.00 5.661774
1150.10 5.661271
1150.20 5.660768
1150.30 5.660266
1150.40 5.659763
1150.50 5.659261
1150.60 5.658757
1150.70 5.658227
1150.80 5.657698
1150.90 5.657168
1151.00 5.656639
1151.10 5.65611
1151.20 5.655581
1151.30 5.655052
1151.40 5.654523
1151.50 5.653994
1151.60 5.653465
1151.70 5.652937
1151.80 5.652408
1151.90 5.65188
1152.00 5.651352
1152.10 5.650823
1152.20 5.650295
1152.30 5.649767
1152.40 5.649239
1152.50 5.648712
1152.60 5.648184
1152.70 5.647656
1152.80 5.647129
1152.90 5.646601
1153.00 5.646074
1153.10 5.645547
1153.20 5.64502
1153.30 5.644493
1153.40 5.643966
1153.50 5.643439
1153.60 5.642912
1153.70 5.642385
1153.80 5.641859
1153.90 5.641333
1154.00 5.640806
1154.10 5.64028
1154.20 5.639754
1154.30 5.639228
1154.40 5.638702
1154.50 5.638176
1154.60 5.63765
1154.70 5.637124
1154.80 5.636599
1154.90 5.636073
1155.00 5.635548
1155.10 5.635023
1155.20 5.634498
1155.30 5.633973
1155.40 5.633448
1155.50 5.632923
1155.60 5.632398
1155.70 5.631873
1155.80 5.631349
1155.90 5.630824
1156.00 5.6303
1156.10 5.629775
1156.20 5.629251
1156.30 5.628727
1156.40 5.628203
1156.50 5.627679
1156.60 5.627155
1156.70 5.626631
1156.80 5.626107
1156.90 5.625584
1157.00 5.62506
1157.10 5.624537
1157.20 5.624013
1157.30 5.62349
1157.40 5.622967
1157.50 5.622444
1157.60 5.621921
1157.70 5.621398
1157.80 5.620875
1157.90 5.620352
1158.00 5.61983
1158.10 5.619307
1158.20 5.618785
1158.30 5.618262
1158.40 5.61774
1158.50 5.617218
1158.60 5.616696
1158.70 5.616174
1158.80 5.615652
1158.90 5.61513
1159.00 5.614609
1159.10 5.614087
1159.20 5.613566
1159.30 5.613044
1159.40 5.612523
1159.50 5.612002
1159.60 5.611481
1159.70 5.61096
1159.80 5.610439
1159.90 5.609918
1160.00 5.609398
1160.10 5.608877
1160.20 5.608357
1160.30 5.607836
1160.40 5.607316
1160.50 5.606796
1160.60 5.606276
1160.70 5.605756
1160.80 5.605236
1160.90 5.604716
1161.00 5.604196
1161.10 5.603676
1161.20 5.603157
1161.30 5.602637
1161.40 5.602118
1161.50 5.601599
1161.60 5.60108
1161.70 5.600561
1161.80 5.600042
1161.90 5.599523
1162.00 5.599004
1162.10 5.598485
1162.20 5.597963
1162.30 5.59744
1162.40 5.596917
1162.50 5.596395
1162.60 5.595872
1162.70 5.59535
1162.80 5.594827
1162.90 5.594305
1163.00 5.593783
1163.10 5.593261
1163.20 5.592739
1163.30 5.592218
1163.40 5.591696
1163.50 5.591174
1163.60 5.590653
1163.70 5.590131
1163.80 5.58961
1163.90 5.589089
1164.00 5.588568
1164.10 5.588047
1164.20 5.587526
1164.30 5.587005
1164.40 5.586484
1164.50 5.585963
1164.60 5.585443
1164.70 5.584923
1164.80 5.584402
1164.90 5.583882
1165.00 5.583362
1165.10 5.582842
1165.20 5.582322
1165.30 5.581802
1165.40 5.581282
1165.50 5.580762
1165.60 5.580243
1165.70 5.579723
1165.80 5.579204
1165.90 5.578685
1166.00 5.578165
1166.10 5.577646
1166.20 5.577127
1166.30 5.576608
1166.40 5.57609
1166.50 5.575571
1166.60 5.575052
1166.70 5.574534
1166.80 5.574015
1166.90 5.573497
1167.00 5.572979
1167.10 5.572461
1167.20 5.571943
1167.30 5.571425
1167.40 5.570907
1167.50 5.570389
1167.60 5.569871
1167.70 5.569354
1167.80 5.568836
1167.90 5.568319
1168.00 5.567802
1168.10 5.567284
1168.20 5.566767
1168.30 5.56625
1168.40 5.565733
1168.50 5.565216
1168.60 5.5647
1168.70 5.564183
1168.80 5.563666
1168.90 5.56315
1169.00 5.562633
1169.10 5.562117
1169.20 5.561601
1169.30 5.561085
1169.40 5.560569
1169.50 5.560053
1169.60 5.559537
1169.70 5.559021
1169.80 5.558506
1169.90 5.55799
1170.00 5.557475
1170.10 5.556959
1170.20 5.556444
1170.30 5.555929
1170.40 5.555414
1170.50 5.554899
1170.60 5.554384
1170.70 5.553869
1170.80 5.553355
1170.90 5.55284
1171.00 5.552325
1171.10 5.551811
1171.20 5.551297
1171.30 5.550783
1171.40 5.550268
1171.50 5.549754
1171.60 5.54924
1171.70 5.548727
1171.80 5.548213
1171.90 5.547699
1172.00 5.547186
1172.10 5.546672
1172.20 5.546159
1172.30 5.545646
1172.40 5.545132
1172.50 5.544619
1172.60 5.544106
1172.70 5.543593
1172.80 5.543081
1172.90 5.542568
1173.00 5.542055
1173.10 5.541543
1173.20 5.54103
1173.30 5.540518
1173.40 5.540006
1173.50 5.539494
1173.60 5.538982
1173.70 5.53847
1173.80 5.537921
1173.90 5.537362
1174.00 5.536803
1174.10 5.536245
1174.20 5.535687
1174.30 5.535128
1174.40 5.53457
1174.50 5.534012
1174.60 5.533454
1174.70 5.532896
1174.80 5.532339
1174.90 5.531781
1175.00 5.531224
1175.10 5.530666
1175.20 5.530109
1175.30 5.529552
1175.40 5.528995
1175.50 5.528438
1175.60 5.527881
1175.70 5.527324
1175.80 5.526768
1175.90 5.526211
1176.00 5.525655
1176.10 5.525098
1176.20 5.524542
1176.30 5.523986
1176.40 5.52343
1176.50 5.522874
1176.60 5.522319
1176.70 5.521763
1176.80 5.521207
1176.90 5.520652
1177.00 5.520097
1177.10 5.519542
1177.20 5.518986
1177.30 5.518432
1177.40 5.517877
1177.50 5.517322
1177.60 5.516767
1177.70 5.516213
1177.80 5.515658
1177.90 5.515104
1178.00 5.51455
1178.10 5.513996
1178.20 5.513442
1178.30 5.512888
1178.40 5.512334
1178.50 5.51178
1178.60 5.511227
1178.70 5.510673
1178.80 5.51012
1178.90 5.509567
1179.00 5.509014
1179.10 5.508461
1179.20 5.507908
1179.30 5.507355
1179.40 5.506802
1179.50 5.506249
1179.60 5.505697
1179.70 5.505145
1179.80 5.504592
1179.90 5.50404
1180.00 5.503488
1180.10 5.502936
1180.20 5.502384
1180.30 5.501832
1180.40 5.501281
1180.50 5.500729
1180.60 5.500177
1180.70 5.499626
1180.80 5.499075
1180.90 5.498524
1181.00 5.497973
1181.10 5.497422
1181.20 5.496871
1181.30 5.49632
1181.40 5.49577
1181.50 5.495219
1181.60 5.494669
1181.70 5.494118
1181.80 5.493568
1181.90 5.493018
1182.00 5.492468
1182.10 5.491918
1182.20 5.491369
1182.30 5.490819
1182.40 5.49027
1182.50 5.48972
1182.60 5.489171
1182.70 5.488622
1182.80 5.488073
1182.90 5.487524
1183.00 5.486975
1183.10 5.486426
1183.20 5.485877
1183.30 5.485329
1183.40 5.48478
1183.50 5.484232
1183.60 5.483684
1183.70 5.483135
1183.80 5.482587
1183.90 5.482039
1184.00 5.481492
1184.10 5.480944
1184.20 5.480396
1184.30 5.479849
1184.40 5.479301
1184.50 5.478754
1184.60 5.478207
1184.70 5.47766
1184.80 5.477113
1184.90 5.476566
1185.00 5.476019
1185.10 5.475473
1185.20 5.474926
1185.30 5.47438
1185.40 5.473833
1185.50 5.473286
1185.60 5.472736
1185.70 5.472186
1185.80 5.471637
1185.90 5.471087
1186.00 5.470538
1186.10 5.469989
1186.20 5.469439
1186.30 5.46889
1186.40 5.468341
1186.50 5.467793
1186.60 5.467244
1186.70 5.466695
1186.80 5.466147
1186.90 5.465598
1187.00 5.46505
1187.10 5.464502
1187.20 5.463954
1187.30 5.463406
1187.40 5.462858
1187.50 5.46231
1187.60 5.461763
1187.70 5.461215
1187.80 5.460668
1187.90 5.46012
1188.00 5.459573
1188.10 5.459026
1188.20 5.458479
1188.30 5.457932
1188.40 5.457385
1188.50 5.456838
1188.60 5.456292
1188.70 5.455745
1188.80 5.455199
1188.90 5.454653
1189.00 5.454107
1189.10 5.453561
1189.20 5.453015
1189.30 5.452469
1189.40 5.451923
1189.50 5.451377
1189.60 5.450832
1189.70 5.450286
1189.80 5.449741
1189.90 5.449196
1190.00 5.448651
1190.10 5.448106
1190.20 5.447561
1190.30 5.447016
1190.40 5.446472
1190.50 5.445927
1190.60 5.445383
1190.70 5.444838
1190.80 5.444294
1190.90 5.44375
1191.00 5.443206
1191.10 5.442662
1191.20 5.442118
1191.30 5.441574
1191.40 5.441031
1191.50 5.440487
1191.60 5.439944
1191.70 5.439401
1191.80 5.438857
1191.90 5.438314
1192.00 5.437771
1192.10 5.437228
1192.20 5.436686
1192.30 5.436143
1192.40 5.4356
1192.50 5.435058
1192.60 5.434516
1192.70 5.433973
1192.80 5.433431
1192.90 5.432889
1193.00 5.432347
1193.10 5.431806
1193.20 5.431264
1193.30 5.430722
1193.40 5.430181
1193.50 5.429639
1193.60 5.429098
1193.70 5.428557
1193.80 5.428016
1193.90 5.427475
1194.00 5.426934
1194.10 5.426393
1194.20 5.425853
1194.30 5.425312
1194.40 5.424772
1194.50 5.424231
1194.60 5.423691
1194.70 5.423151
1194.80 5.422611
1194.90 5.422071
1195.00 5.421531
1195.10 5.420991
1195.20 5.420452
1195.30 5.419912
1195.40 5.419373
1195.50 5.418834
1195.60 5.418294
1195.70 5.417755
1195.80 5.417216
1195.90 5.416677
1196.00 5.416139
1196.10 5.4156
1196.20 5.415061
1196.30 5.414523
1196.40 5.413985
1196.50 5.413446
1196.60 5.412908
1196.70 5.41237
1196.80 5.411832
1196.90 5.411294
1197.00 5.410757
1197.10 5.410219
1197.20 5.409682
1197.30 5.409144
1197.40 5.408604
1197.50 5.408063
1197.60 5.407522
1197.70 5.406981
1197.80 5.406441
1197.90 5.4059
1198.00 5.40536
1198.10 5.40482
1198.20 5.40428
1198.30 5.403739
1198.40 5.4032
1198.50 5.40266
1198.60 5.40212
1198.70 5.40158
1198.80 5.401041
1198.90 5.400501
1199.00 5.399962
1199.10 5.399423
1199.20 5.398884
1199.30 5.398345
1199.40 5.397806
1199.50 5.397267
1199.60 5.396729
1199.70 5.39619
1199.80 5.395652
1199.90 5.395113
1200.00 5.394575
