# Version 2.1 - nm, norm@500 to 1, cut digits, bergeron_He_4000_75.dat_4000
# Wavelength(nm)  Flambda(ergs/cm^s/s/nm)
300.00 0.0238758
300.10 0.0239608
300.20 0.02404622
300.30 0.02413165
300.40 0.02421783
300.50 0.02430389
300.60 0.02438983
300.70 0.02447566
300.80 0.02456136
300.90 0.02464694
301.00 0.0247324
301.10 0.02481774
301.20 0.02490297
301.30 0.02498807
301.40 0.02507306
301.50 0.02515793
301.60 0.02524268
301.70 0.02532732
301.80 0.02541183
301.90 0.02549623
302.00 0.02558051
302.10 0.02566936
302.20 0.0257586
302.30 0.02584771
302.40 0.0259367
302.50 0.02602557
302.60 0.02611432
302.70 0.02620294
302.80 0.02629144
302.90 0.02637982
303.00 0.02646807
303.10 0.02655621
303.20 0.02664422
303.30 0.02673263
303.40 0.02682558
303.50 0.0269184
303.60 0.02701109
303.70 0.02710366
303.80 0.02719609
303.90 0.02728841
304.00 0.02738059
304.10 0.02747264
304.20 0.02756457
304.30 0.02765638
304.40 0.02774805
304.50 0.0278396
304.60 0.02793555
304.70 0.02803186
304.80 0.02812805
304.90 0.0282241
305.00 0.02832002
305.10 0.02841581
305.20 0.02851146
305.30 0.02860699
305.40 0.02870238
305.50 0.02879764
305.60 0.02889278
305.70 0.02898778
305.80 0.02908265
305.90 0.02917739
306.00 0.029272
306.10 0.02936648
306.20 0.02946083
306.30 0.02955505
306.40 0.02965553
306.50 0.02975778
306.60 0.02985989
306.70 0.02996186
306.80 0.03006369
306.90 0.03016539
307.00 0.03026694
307.10 0.03036835
307.20 0.03046963
307.30 0.03057077
307.40 0.03067177
307.50 0.03077263
307.60 0.03087335
307.70 0.03097394
307.80 0.03107439
307.90 0.0311747
308.00 0.03127488
308.10 0.03137492
308.20 0.03147482
308.30 0.03157459
308.40 0.03167422
308.50 0.03177371
308.60 0.03187307
308.70 0.0319723
308.80 0.03207276
308.90 0.03217699
309.00 0.03228229
309.10 0.03238745
309.20 0.03249246
309.30 0.03259734
309.40 0.03270242
309.50 0.0328095
309.60 0.03291643
309.70 0.03302322
309.80 0.03312987
309.90 0.03323637
310.00 0.03334273
310.10 0.03344894
310.20 0.03355501
310.30 0.03366093
310.40 0.0337688
310.50 0.03387879
310.60 0.03398863
310.70 0.03409832
310.80 0.03420787
310.90 0.03431726
311.00 0.03442638
311.10 0.03453535
311.20 0.03464418
311.30 0.03475395
311.40 0.03486667
311.50 0.03497923
311.60 0.03509165
311.70 0.03520391
311.80 0.03531602
311.90 0.03542799
312.00 0.0355398
312.10 0.03565146
312.20 0.0357645
312.30 0.03587811
312.40 0.03599021
312.50 0.03610033
312.60 0.03621648
312.70 0.03633248
312.80 0.03644832
312.90 0.03656346
313.00 0.03667784
313.10 0.03679206
313.20 0.03690614
313.30 0.03702125
313.40 0.0371396
313.50 0.03725779
313.60 0.03737582
313.70 0.0374937
313.80 0.03761141
313.90 0.03772897
314.00 0.03784637
314.10 0.03796521
314.20 0.03808389
314.30 0.03820241
314.40 0.03832077
314.50 0.03843897
314.60 0.03855702
314.70 0.0386749
314.80 0.03879554
314.90 0.03892051
315.00 0.03904121
315.10 0.03916248
315.20 0.03928358
315.30 0.03940452
315.40 0.0395253
315.50 0.03964591
315.60 0.03976637
315.70 0.03988997
315.80 0.04001341
315.90 0.04013669
316.00 0.0402598
316.10 0.04038472
316.20 0.04050948
316.30 0.04063407
316.40 0.0407585
316.50 0.04088276
316.60 0.04100686
316.70 0.04113474
316.80 0.04126244
316.90 0.04138801
317.00 0.04151341
317.10 0.04163864
317.20 0.04176371
317.30 0.04189541
317.40 0.04202612
317.50 0.04215436
317.60 0.04228243
317.70 0.04241032
317.80 0.04253805
317.90 0.04266576
318.00 0.04279166
318.10 0.04292304
318.20 0.04305425
318.30 0.04318528
318.40 0.04331664
318.50 0.04344928
318.60 0.04358072
318.70 0.04370912
318.80 0.04384356
318.90 0.04397317
319.00 0.04410983
319.10 0.04424142
319.20 0.04437364
319.30 0.04450798
319.40 0.04464214
319.50 0.04477613
319.60 0.04490584
319.70 0.04504153
319.80 0.04517703
319.90 0.04531236
320.00 0.04544875
320.10 0.04558632
320.20 0.0457199
320.30 0.04585689
320.40 0.04599546
320.50 0.04613076
320.60 0.04626558
320.70 0.04640591
320.80 0.04654514
320.90 0.04668318
321.00 0.04682105
321.10 0.04695873
321.20 0.04709867
321.30 0.04723902
321.40 0.04737919
321.50 0.04751917
321.60 0.04765897
321.70 0.04779858
321.80 0.04793857
321.90 0.04807899
322.00 0.04822332
322.10 0.0483669
322.20 0.04851029
322.30 0.04865349
322.40 0.04879651
322.50 0.04893933
322.60 0.04908198
322.70 0.04922443
322.80 0.049368
322.90 0.04951528
323.00 0.04966236
323.10 0.04980926
323.20 0.04995596
323.30 0.05010247
323.40 0.05024879
323.50 0.05039492
323.60 0.05054086
323.70 0.05068661
323.80 0.05083217
323.90 0.05097754
324.00 0.05112537
324.10 0.051273
324.20 0.05142045
324.30 0.0515688
324.40 0.05172018
324.50 0.05187148
324.60 0.05202259
324.70 0.05217349
324.80 0.05232421
324.90 0.05247472
325.00 0.05262505
325.10 0.05277517
325.20 0.05292595
325.30 0.05307831
325.40 0.05323048
325.50 0.05338311
325.60 0.05353636
325.70 0.05368942
325.80 0.05384228
325.90 0.05399643
326.00 0.054152
326.10 0.05430738
326.20 0.05446255
326.30 0.0546176
326.40 0.05477268
326.50 0.05493279
326.60 0.05509269
326.70 0.05525239
326.80 0.05541188
326.90 0.05557117
327.00 0.05573025
327.10 0.05588913
327.20 0.0560478
327.30 0.05620627
327.40 0.05636453
327.50 0.05652259
327.60 0.05668045
327.70 0.0568381
327.80 0.05699555
327.90 0.05715319
328.00 0.05731346
328.10 0.05747646
328.20 0.05763924
328.30 0.05780182
328.40 0.05796419
328.50 0.05812696
328.60 0.05828966
328.70 0.05845216
328.80 0.05861583
328.90 0.05878325
329.00 0.05895046
329.10 0.05911745
329.20 0.05928423
329.30 0.0594508
329.40 0.05961715
329.50 0.05978329
329.60 0.05994921
329.70 0.06011493
329.80 0.06028043
329.90 0.06044572
330.00 0.06061306
330.10 0.06078293
330.20 0.06095259
330.30 0.06112204
330.40 0.06129286
330.50 0.06146518
330.60 0.06163729
330.70 0.06180917
330.80 0.06198084
330.90 0.06215229
331.00 0.06232352
331.10 0.06249453
331.20 0.06266532
331.30 0.0628359
331.40 0.06300626
331.50 0.06317768
331.60 0.06335046
331.70 0.06352301
331.80 0.06370092
331.90 0.06387884
332.00 0.06405653
332.10 0.06423399
332.20 0.06441123
332.30 0.06458825
332.40 0.06476504
332.50 0.06494161
332.60 0.06511795
332.70 0.06529407
332.80 0.06546996
332.90 0.06564563
333.00 0.06582108
333.10 0.06599944
333.20 0.06618138
333.30 0.06636309
333.40 0.06654457
333.50 0.06672583
333.60 0.06690685
333.70 0.06708764
333.80 0.06726821
333.90 0.06744855
334.00 0.06762866
334.10 0.06781088
334.20 0.06799572
334.30 0.06818034
334.40 0.06836472
334.50 0.06854887
334.60 0.06873278
334.70 0.06891614
334.80 0.06909982
334.90 0.06928465
335.00 0.06946924
335.10 0.06965569
335.20 0.06984291
335.30 0.07002989
335.40 0.07021663
335.50 0.07041456
335.60 0.07059205
335.70 0.07078336
335.80 0.07098669
335.90 0.07118189
336.00 0.07136721
336.10 0.0715523
336.20 0.07173715
336.30 0.07192439
336.40 0.0721146
336.50 0.07230458
336.60 0.07249431
336.70 0.0726838
336.80 0.07287306
336.90 0.07306622
337.00 0.0732642
337.10 0.07346192
337.20 0.0736594
337.30 0.07385829
337.40 0.07405932
337.50 0.07426009
337.60 0.07446061
337.70 0.07466088
337.80 0.0748609
337.90 0.07505958
338.00 0.07525667
338.10 0.07545352
338.20 0.07565012
338.30 0.07584647
338.40 0.07604263
338.50 0.07623867
338.60 0.07643447
338.70 0.07663003
338.80 0.07682534
338.90 0.07702041
339.00 0.07721523
339.10 0.07740981
339.20 0.07760415
339.30 0.07780051
339.40 0.07799988
339.50 0.07820239
339.60 0.07840878
339.70 0.07861491
339.80 0.07882079
339.90 0.07902641
340.00 0.07923177
340.10 0.07943688
340.20 0.07964174
340.30 0.07984634
340.40 0.08005068
340.50 0.08025477
340.60 0.08045861
340.70 0.0806622
340.80 0.08087672
340.90 0.08110706
341.00 0.08132697
341.10 0.0815342
341.20 0.08174118
341.30 0.0819479
341.40 0.08215437
341.50 0.08236058
341.60 0.08256653
341.70 0.08277223
341.80 0.08298529
341.90 0.08320739
342.00 0.08342922
342.10 0.08365077
342.20 0.08385179
342.30 0.08406965
342.40 0.0842991
342.50 0.08451007
342.60 0.08472078
342.70 0.08493123
342.80 0.08514142
342.90 0.08535134
343.00 0.08556408
343.10 0.0857803
343.20 0.08599625
343.30 0.08621193
343.40 0.08642844
343.50 0.08664624
343.60 0.08686378
343.70 0.08708105
343.80 0.08729806
343.90 0.08751479
344.00 0.08773811
344.10 0.08797101
344.20 0.08820363
344.30 0.08843595
344.40 0.08866116
344.50 0.08887627
344.60 0.08911675
344.70 0.08933297
344.80 0.0895456
344.90 0.08976129
345.00 0.08996144
345.10 0.09020816
345.20 0.09044244
345.30 0.09065898
345.40 0.09087526
345.50 0.09111374
345.60 0.09136197
345.70 0.09158487
345.80 0.0918075
345.90 0.09202986
346.00 0.09225194
346.10 0.09247375
346.20 0.0927016
346.30 0.09293826
346.40 0.09317462
346.50 0.0934107
346.60 0.09364649
346.70 0.09388199
346.80 0.0941172
346.90 0.09435213
347.00 0.09458677
347.10 0.09482112
347.20 0.09505618
347.30 0.09529238
347.40 0.0955283
347.50 0.09576392
347.60 0.09599926
347.70 0.09623431
347.80 0.09646908
347.90 0.09670355
348.00 0.09693775
348.10 0.09717166
348.20 0.09740528
348.30 0.09763862
348.40 0.09787168
348.50 0.09810445
348.60 0.09833694
348.70 0.09856952
348.80 0.09880786
348.90 0.09905443
349.00 0.0993007
349.10 0.09954668
349.20 0.09979235
349.30 0.1000377
349.40 0.1002828
349.50 0.1005276
349.60 0.1007721
349.70 0.1010163
349.80 0.1012602
349.90 0.1015038
350.00 0.1017471
350.10 0.1019901
350.20 0.1022328
350.30 0.1024786
350.40 0.1027291
350.50 0.1029793
350.60 0.1032292
350.70 0.1034788
350.80 0.103728
350.90 0.103977
351.00 0.1042257
351.10 0.104474
351.20 0.1047221
351.30 0.1049699
351.40 0.105218
351.50 0.1054671
351.60 0.1057159
351.70 0.1059643
351.80 0.1062125
351.90 0.1064603
352.00 0.1067079
352.10 0.1069551
352.20 0.1072333
352.30 0.1075048
352.40 0.107762
352.50 0.1080188
352.60 0.1082753
352.70 0.1085316
352.80 0.1087875
352.90 0.1090431
353.00 0.1092984
353.10 0.1095534
353.20 0.1098081
353.30 0.1100625
353.40 0.1103166
353.50 0.1105797
353.60 0.1108449
353.70 0.1111097
353.80 0.1113742
353.90 0.1116375
354.00 0.1118988
354.10 0.1121598
354.20 0.1124205
354.30 0.1126809
354.40 0.1129409
354.50 0.1132007
354.60 0.1134601
354.70 0.1137193
354.80 0.1139859
354.90 0.1142634
355.00 0.1145406
355.10 0.1148174
355.20 0.1150939
355.30 0.1153635
355.40 0.1156327
355.50 0.1159016
355.60 0.1161702
355.70 0.1164305
355.80 0.1166868
355.90 0.1169475
356.00 0.1172218
356.10 0.1174972
356.20 0.1177723
356.30 0.118047
356.40 0.1183214
356.50 0.1185955
356.60 0.1188693
356.70 0.1191427
356.80 0.1194158
356.90 0.1196886
357.00 0.1199611
357.10 0.1202332
357.20 0.120505
357.30 0.1207765
357.40 0.1210518
357.50 0.121334
357.60 0.1216159
357.70 0.1218975
357.80 0.1221663
357.90 0.1224348
358.00 0.1227175
358.10 0.1230034
358.20 0.123289
358.30 0.1235743
358.40 0.1238592
358.50 0.1241438
358.60 0.124428
358.70 0.1247119
358.80 0.1249955
358.90 0.1252787
359.00 0.1255635
359.10 0.1258511
359.20 0.1261364
359.30 0.126408
359.40 0.1266793
359.50 0.1269744
359.60 0.1272751
359.70 0.1275755
359.80 0.1278517
359.90 0.1281276
360.00 0.1284093
360.10 0.1287014
360.20 0.1289932
360.30 0.1292847
360.40 0.1295758
360.50 0.1298666
360.60 0.1301729
360.70 0.1304654
360.80 0.1307577
360.90 0.1310495
361.00 0.131327
361.10 0.1316226
361.20 0.1319134
361.30 0.1322161
361.40 0.1325396
361.50 0.1328324
361.60 0.133094
361.70 0.1334134
361.80 0.1337185
361.90 0.1339984
362.00 0.134278
362.10 0.1345762
362.20 0.134881
362.30 0.1351898
362.40 0.1354982
362.50 0.1358062
362.60 0.1361139
362.70 0.1364159
362.80 0.1367012
362.90 0.1370143
363.00 0.1373271
363.10 0.137635
363.20 0.1379425
363.30 0.1382428
363.40 0.138541
363.50 0.138809
363.60 0.1391215
363.70 0.1394336
363.80 0.1397753
363.90 0.1400825
364.00 0.1403892
364.10 0.1406957
364.20 0.1410017
364.30 0.1412923
364.40 0.1415788
364.50 0.1419215
364.60 0.1422193
364.70 0.1425166
364.80 0.1428137
364.90 0.1431215
365.00 0.143429
365.10 0.1437657
365.20 0.1440725
365.30 0.1444085
365.40 0.1447145
365.50 0.1450201
365.60 0.1453254
365.70 0.1456492
365.80 0.1459726
365.90 0.1462884
366.00 0.1466021
366.10 0.1469135
366.20 0.1472245
366.30 0.1475352
366.40 0.1478455
366.50 0.1481999
366.60 0.1485354
366.70 0.1488555
366.80 0.1491751
366.90 0.1494947
367.00 0.1498146
367.10 0.1501341
367.20 0.1504532
367.30 0.150772
367.40 0.1510904
367.50 0.1514006
367.60 0.1517084
367.70 0.1520415
367.80 0.1523743
367.90 0.1527067
368.00 0.1530432
368.10 0.1533359
368.20 0.153665
368.30 0.1539942
368.40 0.1543231
368.50 0.1546515
368.60 0.1549796
368.70 0.1553073
368.80 0.1556346
368.90 0.155963
369.00 0.1562952
369.10 0.1566275
369.20 0.157011
369.30 0.1573319
369.40 0.1576525
369.50 0.1579726
369.60 0.1583192
369.70 0.1586654
369.80 0.1590018
369.90 0.1593376
370.00 0.1596731
370.10 0.1599976
370.20 0.1603435
370.30 0.1606895
370.40 0.1609775
370.50 0.1613227
370.60 0.1616676
370.70 0.1620164
370.80 0.1623583
370.90 0.1626998
371.00 0.1630452
371.10 0.1633902
371.20 0.1637305
371.30 0.1640705
371.40 0.1644269
371.50 0.1647652
371.60 0.1651032
371.70 0.1654408
371.80 0.165778
371.90 0.1661148
372.00 0.1664788
372.10 0.1667974
372.20 0.1671454
372.30 0.1674931
372.40 0.1678404
372.50 0.1681873
372.60 0.1685338
372.70 0.1688799
372.80 0.1692423
372.90 0.1696043
373.00 0.1699421
373.10 0.1702793
373.20 0.1706424
373.30 0.171005
373.40 0.1713389
373.50 0.1717007
373.60 0.1720621
373.70 0.1723948
373.80 0.172766
373.90 0.1731156
374.00 0.1734754
374.10 0.1738347
374.20 0.1741937
374.30 0.1745523
374.40 0.1748822
374.50 0.1752626
374.60 0.1756221
374.70 0.1759802
374.80 0.1763378
374.90 0.1766951
375.00 0.1770508
375.10 0.1774061
375.20 0.177761
375.30 0.1781235
375.40 0.1784856
375.50 0.1788473
375.60 0.1792086
375.70 0.1795695
375.80 0.17993
375.90 0.18029
376.00 0.1806927
376.10 0.1810598
376.20 0.1814262
376.30 0.1817922
376.40 0.1821578
376.50 0.1825229
376.60 0.1828875
376.70 0.1832517
376.80 0.1836187
376.90 0.1839885
377.00 0.1843578
377.10 0.1847268
377.20 0.1850956
377.30 0.1854648
377.40 0.1858336
377.50 0.186202
377.60 0.1865736
377.70 0.1869449
377.80 0.1873157
377.90 0.1876862
378.00 0.1880845
378.10 0.1884595
378.20 0.1888334
378.30 0.189207
378.40 0.18958
378.50 0.1899527
378.60 0.190325
378.70 0.1906968
378.80 0.1910682
378.90 0.1914455
379.00 0.1918339
379.10 0.192217
379.20 0.1925997
379.30 0.1929794
379.40 0.1933562
379.50 0.1937327
379.60 0.1941204
379.70 0.1945211
379.80 0.1949056
379.90 0.1952897
380.00 0.1956733
380.10 0.1960565
380.20 0.1964393
380.30 0.1968217
380.40 0.1972036
380.50 0.1975851
380.60 0.1979577
380.70 0.1983498
380.80 0.1987415
380.90 0.1991327
381.00 0.1995235
381.10 0.1999293
381.20 0.2003241
381.30 0.2006954
381.40 0.2010751
381.50 0.2014713
381.60 0.2018674
381.70 0.2022706
381.80 0.202649
381.90 0.203058
382.00 0.2034666
382.10 0.2038477
382.20 0.2042608
382.30 0.204641
382.40 0.2050328
382.50 0.2054422
382.60 0.2058511
382.70 0.2062526
382.80 0.2066469
382.90 0.2070419
383.00 0.2074365
383.10 0.2078307
383.20 0.2082252
383.30 0.2086222
383.40 0.2090165
383.50 0.2094068
383.60 0.2098279
383.70 0.2102353
383.80 0.2106421
383.90 0.2110485
384.00 0.2114545
384.10 0.21186
384.20 0.2122651
384.30 0.2126697
384.40 0.2130785
384.50 0.2134914
384.60 0.2139039
384.70 0.2143159
384.80 0.214722
384.90 0.2151177
385.00 0.2155327
385.10 0.2159464
385.20 0.2163327
385.30 0.2167342
385.40 0.2171454
385.50 0.2175662
385.60 0.2179866
385.70 0.2184064
385.80 0.2188249
385.90 0.2192395
386.00 0.2196533
386.10 0.2200669
386.20 0.2204852
386.30 0.2209032
386.40 0.2213171
386.50 0.2217189
386.60 0.222149
386.70 0.222563
386.80 0.2229766
386.90 0.2233897
387.00 0.2238076
387.10 0.2242198
387.20 0.2246829
387.30 0.2250956
387.40 0.225505
387.50 0.2259115
387.60 0.2263322
387.70 0.2267679
387.80 0.2272032
387.90 0.227638
388.00 0.2280591
388.10 0.2284646
388.20 0.2288887
388.30 0.2293204
388.40 0.2297515
388.50 0.2301832
388.60 0.2306192
388.70 0.231037
388.80 0.23146
388.90 0.2318966
389.00 0.2323322
389.10 0.2327661
389.20 0.2331953
389.30 0.2336168
389.40 0.2340318
389.50 0.2344603
389.60 0.2349042
389.70 0.2353332
389.80 0.2357701
389.90 0.2362066
390.00 0.2366427
390.10 0.2370782
390.20 0.2375133
390.30 0.2379515
390.40 0.2383935
390.50 0.2388349
390.60 0.2392759
390.70 0.2397164
390.80 0.240153
390.90 0.2405858
391.00 0.2410273
391.10 0.2414813
391.20 0.2419311
391.30 0.2423705
391.40 0.2428145
391.50 0.2432581
391.60 0.2437012
391.70 0.2441438
391.80 0.244586
391.90 0.2450102
392.00 0.2454344
392.10 0.2458883
392.20 0.2463444
392.30 0.2468034
392.40 0.2472365
392.50 0.2476947
392.60 0.2481329
392.70 0.2485797
392.80 0.2490426
392.90 0.2495069
393.00 0.2499519
393.10 0.2503892
393.20 0.2508208
393.30 0.2512813
393.40 0.2517395
393.50 0.2522078
393.60 0.252633
393.70 0.2531228
393.80 0.2535761
393.90 0.2540336
394.00 0.2544896
394.10 0.2549325
394.20 0.2553716
394.30 0.2558357
394.40 0.2563113
394.50 0.2567408
394.60 0.2572066
394.70 0.2576691
394.80 0.2581205
394.90 0.2585718
395.00 0.2590395
395.10 0.2595037
395.20 0.2599533
395.30 0.2604153
395.40 0.2608768
395.50 0.2613401
395.60 0.2618038
395.70 0.2622691
395.80 0.2627399
395.90 0.2632102
396.00 0.2636811
396.10 0.26416
396.20 0.2646313
396.30 0.2651089
396.40 0.265554
396.50 0.2660068
396.60 0.266493
396.70 0.2669759
396.80 0.2674412
396.90 0.2679191
397.00 0.2683713
397.10 0.2688631
397.20 0.2693272
397.30 0.2697855
397.40 0.270264
397.50 0.2707419
397.60 0.2712184
397.70 0.2716849
397.80 0.2721509
397.90 0.2726224
398.00 0.2731096
398.10 0.2735962
398.20 0.2740775
398.30 0.2745528
398.40 0.2750277
398.50 0.2755027
398.60 0.2759988
398.70 0.2764761
398.80 0.2769464
398.90 0.2774222
399.00 0.2779088
399.10 0.2783721
399.20 0.2788588
399.30 0.2793448
399.40 0.2798304
399.50 0.2803155
399.60 0.2808055
399.70 0.281297
399.80 0.281788
399.90 0.2822784
400.00 0.2827676
400.10 0.2832344
400.20 0.2837169
400.30 0.2842072
400.40 0.2846892
400.50 0.2851996
400.60 0.2856728
400.70 0.2861706
400.80 0.2866499
400.90 0.28713
401.00 0.2876544
401.10 0.2881139
401.20 0.288599
401.30 0.289096
401.40 0.2896032
401.50 0.2901131
401.60 0.290621
401.70 0.2910795
401.80 0.2915974
401.90 0.2921012
402.00 0.2925892
402.10 0.2930602
402.20 0.2935692
402.30 0.2940822
402.40 0.2945841
402.50 0.2950654
402.60 0.2955715
402.70 0.2960892
402.80 0.2965759
402.90 0.2970816
403.00 0.2975673
403.10 0.2980816
403.20 0.2985853
403.30 0.2990732
403.40 0.2995925
403.50 0.3001025
403.60 0.3006082
403.70 0.3011272
403.80 0.3016284
403.90 0.3021402
404.00 0.3026401
404.10 0.3031467
404.20 0.3036503
404.30 0.3041533
404.40 0.3046448
404.50 0.3051819
404.60 0.3056833
404.70 0.3062083
404.80 0.3067042
404.90 0.3072084
405.00 0.3077417
405.10 0.3082477
405.20 0.3087494
405.30 0.3092505
405.40 0.3097716
405.50 0.3102923
405.60 0.3108124
405.70 0.3113319
405.80 0.3118509
405.90 0.3123693
406.00 0.3128912
406.10 0.3134126
406.20 0.3139335
406.30 0.3144537
406.40 0.3149724
406.50 0.3154581
406.60 0.315983
406.70 0.316509
406.80 0.3170255
406.90 0.317544
407.00 0.3180708
407.10 0.318597
407.20 0.3191226
407.30 0.3196477
407.40 0.3201722
407.50 0.3206962
407.60 0.3212196
407.70 0.3217425
407.80 0.3222648
407.90 0.3227872
408.00 0.32333
408.10 0.3238745
408.20 0.3244025
408.30 0.3249236
408.40 0.3254441
408.50 0.3259896
408.60 0.3265185
408.70 0.3270468
408.80 0.3275768
408.90 0.3281194
409.00 0.3286486
409.10 0.3291773
409.20 0.3297055
409.30 0.3302331
409.40 0.3307605
409.50 0.3312989
409.60 0.3318368
409.70 0.3323776
409.80 0.3329316
409.90 0.3334841
410.00 0.3340066
410.10 0.3345492
410.20 0.3350853
410.30 0.3356193
410.40 0.3361561
410.50 0.3367025
410.60 0.3372484
410.70 0.3377923
410.80 0.3383299
410.90 0.3388669
411.00 0.3394143
411.10 0.3399651
411.20 0.3405153
411.30 0.3410577
411.40 0.3415724
411.50 0.3421326
411.60 0.3426922
411.70 0.3432461
411.80 0.343779
411.90 0.3443114
412.00 0.3448897
412.10 0.345421
412.20 0.3459516
412.30 0.3465318
412.40 0.3470796
412.50 0.3476332
412.60 0.3481616
412.70 0.3487104
412.80 0.3492639
412.90 0.3498128
413.00 0.3503977
413.10 0.3509546
413.20 0.3515108
413.30 0.3520665
413.40 0.3526216
413.50 0.3531757
413.60 0.3537287
413.70 0.3542855
413.80 0.3548418
413.90 0.3553975
414.00 0.3559554
414.10 0.3565215
414.20 0.3570759
414.30 0.3576408
414.40 0.3581959
414.50 0.3587624
414.60 0.359297
414.70 0.3598595
414.80 0.3604243
414.90 0.3609972
415.00 0.3615695
415.10 0.3621412
415.20 0.3627083
415.30 0.3632622
415.40 0.3638155
415.50 0.3643691
415.60 0.3649488
415.70 0.3655278
415.80 0.3661022
415.90 0.3666632
416.00 0.3672236
416.10 0.3677873
416.20 0.3683661
416.30 0.3689443
416.40 0.3695219
416.50 0.3700981
416.60 0.3706496
416.70 0.3712025
416.80 0.3717978
416.90 0.3723692
417.00 0.3729319
417.10 0.3735355
417.20 0.3741062
417.30 0.3746765
417.40 0.3752509
417.50 0.3758247
417.60 0.3764024
417.70 0.3769965
417.80 0.3775712
417.90 0.3781453
418.00 0.3787188
418.10 0.3792918
418.20 0.3798641
418.30 0.3804373
418.40 0.3810476
418.50 0.3816304
418.60 0.3822126
418.70 0.3827942
418.80 0.3833753
418.90 0.3839557
419.00 0.3845355
419.10 0.3851147
419.20 0.3856933
419.30 0.3862719
419.40 0.3868662
419.50 0.38746
419.60 0.3880523
419.70 0.3886411
419.80 0.3892292
419.90 0.3898178
420.00 0.3904095
420.10 0.3910006
420.20 0.391591
420.30 0.3921809
420.40 0.3927701
420.50 0.3933587
420.60 0.3939468
420.70 0.3945342
420.80 0.395121
420.90 0.3957076
421.00 0.3963062
421.10 0.3969042
421.20 0.3975022
421.30 0.3981017
421.40 0.3987007
421.50 0.399299
421.60 0.3998967
421.70 0.4004938
421.80 0.4010902
421.90 0.4016857
422.00 0.402279
422.10 0.4028748
422.20 0.4034818
422.30 0.4040882
422.40 0.4046941
422.50 0.4053063
422.60 0.4059179
422.70 0.4065289
422.80 0.4071392
422.90 0.4077489
423.00 0.408358
423.10 0.4089665
423.20 0.4095743
423.30 0.4101815
423.40 0.4107881
423.50 0.4113941
423.60 0.4119995
423.70 0.4126042
423.80 0.4132084
423.90 0.4138119
424.00 0.4144148
424.10 0.4150171
424.20 0.4156187
424.30 0.4162198
424.40 0.4168291
424.50 0.417444
424.60 0.4180583
424.70 0.418672
424.80 0.4192851
424.90 0.4198975
425.00 0.4205094
425.10 0.4211206
425.20 0.4217312
425.30 0.4223411
425.40 0.4229527
425.50 0.4235784
425.60 0.4242035
425.70 0.4248279
425.80 0.4254518
425.90 0.426075
426.00 0.4266975
426.10 0.4273195
426.20 0.4279408
426.30 0.4285614
426.40 0.4291815
426.50 0.4298009
426.60 0.4304197
426.70 0.4310378
426.80 0.4316553
426.90 0.4322731
427.00 0.4329171
427.10 0.4335606
427.20 0.4342033
427.30 0.4348454
427.40 0.4354869
427.50 0.4361277
427.60 0.4367679
427.70 0.4374074
427.80 0.4380463
427.90 0.4386846
428.00 0.4393221
428.10 0.4399591
428.20 0.4405954
428.30 0.4412311
428.40 0.4418661
428.50 0.4425005
428.60 0.4431342
428.70 0.4437673
428.80 0.4444
428.90 0.4450355
429.00 0.4456704
429.10 0.4463046
429.20 0.4469382
429.30 0.4475711
429.40 0.4482034
429.50 0.448835
429.60 0.449466
429.70 0.4500964
429.80 0.4507262
429.90 0.4513553
430.00 0.4519838
430.10 0.4526116
430.20 0.4532388
430.30 0.4538654
430.40 0.4544914
430.50 0.4551167
430.60 0.4557414
430.70 0.4563654
430.80 0.4569889
430.90 0.4576117
431.00 0.4582338
431.10 0.4588554
431.20 0.4594763
431.30 0.4600993
431.40 0.4607572
431.50 0.4614145
431.60 0.4620711
431.70 0.462727
431.80 0.4633823
431.90 0.464037
432.00 0.4646909
432.10 0.4653443
432.20 0.4659969
432.30 0.4666489
432.40 0.4673003
432.50 0.467951
432.60 0.4686011
432.70 0.4692505
432.80 0.4698992
432.90 0.4705473
433.00 0.4711948
433.10 0.4718416
433.20 0.4724878
433.30 0.4731367
433.40 0.4738297
433.50 0.4745221
433.60 0.4752138
433.70 0.4759049
433.80 0.4765992
433.90 0.4772978
434.00 0.4779747
434.10 0.4786381
434.20 0.4793009
434.30 0.4799629
434.40 0.4806244
434.50 0.4812851
434.60 0.4819452
434.70 0.4826047
434.80 0.4832639
434.90 0.4839284
435.00 0.4845921
435.10 0.4852553
435.20 0.4859177
435.30 0.4865796
435.40 0.4872407
435.50 0.4879012
435.60 0.488561
435.70 0.4892202
435.80 0.4898787
435.90 0.4905366
436.00 0.4911938
436.10 0.4918503
436.20 0.4925062
436.30 0.4931715
436.40 0.4938467
436.50 0.4945002
436.60 0.495153
436.70 0.4958051
436.80 0.4964566
436.90 0.4971074
437.00 0.4977576
437.10 0.4984072
437.20 0.4990392
437.30 0.4996551
437.40 0.5002788
437.50 0.5010142
437.60 0.501749
437.70 0.502483
437.80 0.5032163
437.90 0.5039489
438.00 0.5046685
438.10 0.5052246
438.20 0.5057801
438.30 0.5065564
438.40 0.5070572
438.50 0.5078543
438.60 0.5086505
438.70 0.5091687
438.80 0.50983
438.90 0.5106242
439.00 0.5114032
439.10 0.5119907
439.20 0.5125848
439.30 0.5132736
439.40 0.5139617
439.50 0.5146491
439.60 0.5153234
439.70 0.5160425
439.80 0.5168585
439.90 0.5175567
440.00 0.5182542
440.10 0.518951
440.20 0.5196447
440.30 0.5203062
440.40 0.5209671
440.50 0.5216273
440.60 0.5222869
440.70 0.5229458
440.80 0.523604
440.90 0.5242616
441.00 0.5249186
441.10 0.5255749
441.20 0.5262382
441.30 0.5270025
441.40 0.5277514
441.50 0.5284818
441.60 0.5292114
441.70 0.5298421
441.80 0.5305302
441.90 0.5312176
442.00 0.5319044
442.10 0.5325905
442.20 0.5332759
442.30 0.5339606
442.40 0.5346456
442.50 0.535331
442.60 0.5360158
442.70 0.5366935
442.80 0.537367
442.90 0.5381199
443.00 0.5388941
443.10 0.5396945
443.20 0.5404574
443.30 0.5411858
443.40 0.5418382
443.50 0.5423981
443.60 0.5430478
443.70 0.5438074
443.80 0.5445663
443.90 0.5453244
444.00 0.5459915
444.10 0.5465477
444.20 0.5475443
444.30 0.5481634
444.40 0.5488338
444.50 0.5495036
444.60 0.5502269
444.70 0.5510155
444.80 0.5517246
444.90 0.5523602
445.00 0.5529951
445.10 0.5536295
445.20 0.5543203
445.30 0.5550803
445.40 0.5558396
445.50 0.5565981
445.60 0.5573558
445.70 0.5581129
445.80 0.5588542
445.90 0.5595809
446.00 0.5603069
446.10 0.5610322
446.20 0.5617149
446.30 0.5623079
446.40 0.5629183
446.50 0.563658
446.60 0.5643969
446.70 0.5651352
446.80 0.5658727
446.90 0.5666095
447.00 0.5673456
447.10 0.568081
447.20 0.5688156
447.30 0.5695496
447.40 0.5702828
447.50 0.5710153
447.60 0.5716391
447.70 0.5721626
447.80 0.5731557
447.90 0.5739212
448.00 0.5746673
448.10 0.5753956
448.20 0.5761231
448.30 0.57685
448.40 0.5775761
448.50 0.5783016
448.60 0.5790159
448.70 0.5797199
448.80 0.5804213
448.90 0.5810972
449.00 0.5817725
449.10 0.5824471
449.20 0.5831211
449.30 0.5837664
449.40 0.584612
449.50 0.5854567
449.60 0.5862405
449.70 0.5869679
449.80 0.5876947
449.90 0.5884207
450.00 0.589146
450.10 0.5898706
450.20 0.5905946
450.30 0.5913178
450.40 0.5920299
450.50 0.5927414
450.60 0.5934522
450.70 0.5941622
450.80 0.5948716
450.90 0.5955803
451.00 0.5964138
451.10 0.5972464
451.20 0.5978857
451.30 0.5984083
451.40 0.5993077
451.50 0.6002061
451.60 0.6009099
451.70 0.6016129
451.80 0.6023153
451.90 0.603017
452.00 0.603718
452.10 0.6044184
452.20 0.6052147
452.30 0.6060103
452.40 0.6068051
452.50 0.6075992
452.60 0.6083742
452.70 0.6090945
452.80 0.6097643
452.90 0.6104335
453.00 0.6111019
453.10 0.6117698
453.20 0.612558
453.30 0.6133456
453.40 0.6141323
453.50 0.6149183
453.60 0.6157036
453.70 0.6164881
453.80 0.6172478
453.90 0.6179773
454.00 0.6187061
454.10 0.6194342
454.20 0.6202108
454.30 0.6209868
454.40 0.621762
454.50 0.6225364
454.60 0.6233101
454.70 0.624068
454.80 0.6248113
454.90 0.6255539
455.00 0.6262958
455.10 0.627037
455.20 0.6277775
455.30 0.6285172
455.40 0.6292562
455.50 0.6299946
455.60 0.6307322
455.70 0.6314691
455.80 0.6322127
455.90 0.6329555
456.00 0.6336977
456.10 0.6344409
456.20 0.6351879
456.30 0.6359343
456.40 0.6366799
456.50 0.6374249
456.60 0.6381691
456.70 0.6389126
456.80 0.6396554
456.90 0.6403975
457.00 0.6411389
457.10 0.6418795
457.20 0.6428454
457.30 0.643623
457.40 0.6443998
457.50 0.6451758
457.60 0.6459511
457.70 0.6467257
457.80 0.6474995
457.90 0.6482726
458.00 0.649045
458.10 0.6498166
458.20 0.6505875
458.30 0.6513576
458.40 0.652127
458.50 0.6528957
458.60 0.6536637
458.70 0.6544317
458.80 0.6551993
458.90 0.6559661
459.00 0.6567323
459.10 0.6574977
459.20 0.6582623
459.30 0.6590222
459.40 0.6597814
459.50 0.6605399
459.60 0.6612976
459.70 0.6620546
459.80 0.6628109
459.90 0.6635665
460.00 0.6643214
460.10 0.6650755
460.20 0.6658289
460.30 0.6665817
460.40 0.6673336
460.50 0.6680849
460.60 0.6688355
460.70 0.6695931
460.80 0.6703539
460.90 0.6711139
461.00 0.6718732
461.10 0.6726318
461.20 0.6734738
461.30 0.6743494
461.40 0.6751509
461.50 0.6759333
461.60 0.676715
461.70 0.6774959
461.80 0.6782925
461.90 0.6790884
462.00 0.6798835
462.10 0.6806779
462.20 0.6814715
462.30 0.6822644
462.40 0.6830566
462.50 0.6838479
462.60 0.6846386
462.70 0.6854284
462.80 0.6862176
462.90 0.687006
463.00 0.6877936
463.10 0.6885805
463.20 0.689355
463.30 0.6901239
463.40 0.6908921
463.50 0.6916596
463.60 0.6924263
463.70 0.6931923
463.80 0.6939576
463.90 0.6947435
464.00 0.6955338
464.10 0.6963235
464.20 0.6971124
464.30 0.6979005
464.40 0.6986879
464.50 0.6994746
464.60 0.7002605
464.70 0.7010404
464.80 0.7018173
464.90 0.7025934
465.00 0.7033688
465.10 0.7041435
465.20 0.7049175
465.30 0.7057252
465.40 0.7065552
465.50 0.7073844
465.60 0.7082129
465.70 0.7090405
465.80 0.7098674
465.90 0.7106441
466.00 0.7114077
466.10 0.7121706
466.20 0.7129328
466.30 0.7137113
466.40 0.7144961
466.50 0.7152801
466.60 0.7160633
466.70 0.7168459
466.80 0.7176277
466.90 0.7184087
467.00 0.719189
467.10 0.7199686
467.20 0.7207475
467.30 0.7216019
467.40 0.7224423
467.50 0.7232708
467.60 0.7240985
467.70 0.7249255
467.80 0.7257516
467.90 0.7265403
468.00 0.7273131
468.10 0.7280853
468.20 0.7288567
468.30 0.7296274
468.40 0.7303973
468.50 0.731399
468.60 0.732025
468.70 0.7329351
468.80 0.7338753
468.90 0.7346718
469.00 0.7353873
469.10 0.7361262
469.20 0.7368903
469.30 0.7376536
469.40 0.7384162
469.50 0.7392391
469.60 0.7400863
469.70 0.7409326
469.80 0.7417781
469.90 0.7426324
470.00 0.7433605
470.10 0.744158
470.20 0.7450072
470.30 0.7458557
470.40 0.7467033
470.50 0.7475502
470.60 0.7483224
470.70 0.7490754
470.80 0.7498277
470.90 0.7505792
471.00 0.7515211
471.10 0.7524155
471.20 0.7530435
471.30 0.7539702
471.40 0.754896
471.50 0.7556432
471.60 0.7565318
471.70 0.7572775
471.80 0.7580935
471.90 0.7589265
472.00 0.7597587
472.10 0.7605902
472.20 0.7613907
472.30 0.7621828
472.40 0.7629742
472.50 0.7637649
472.60 0.7645548
472.70 0.7653825
472.80 0.7662261
472.90 0.7670692
473.00 0.7679115
473.10 0.768753
473.20 0.7695937
473.30 0.7704336
473.40 0.7712728
473.50 0.7721112
473.60 0.7729488
473.70 0.7737856
473.80 0.7745874
473.90 0.7753799
474.00 0.7761717
474.10 0.7769627
474.20 0.7777701
474.30 0.7785836
474.40 0.7793964
474.50 0.7802085
474.60 0.7810212
474.70 0.7818477
474.80 0.7826734
474.90 0.7834983
475.00 0.7843225
475.10 0.7851459
475.20 0.7859686
475.30 0.7867905
475.40 0.7876243
475.50 0.7884605
475.60 0.7892959
475.70 0.7901306
475.80 0.7909645
475.90 0.7917976
476.00 0.7926299
476.10 0.7934615
476.20 0.7942901
476.30 0.795117
476.40 0.7959432
476.50 0.7967686
476.60 0.7975932
476.70 0.7984171
476.80 0.7992402
476.90 0.8000747
477.00 0.8009114
477.10 0.8017474
477.20 0.8025825
477.30 0.8034169
477.40 0.8042506
477.50 0.8050834
477.60 0.8059155
477.70 0.8067469
477.80 0.8075774
477.90 0.8084072
478.00 0.8092362
478.10 0.8100645
478.20 0.810892
478.30 0.8117188
478.40 0.8125447
478.50 0.81337
478.60 0.8141944
478.70 0.8150899
478.80 0.8160138
478.90 0.8168864
479.00 0.8177455
479.10 0.8186038
479.20 0.8194614
479.30 0.8203181
479.40 0.8211694
479.50 0.8220171
479.60 0.8228641
479.70 0.8237103
479.80 0.8245557
479.90 0.8254003
480.00 0.8262442
480.10 0.8270872
480.20 0.8279296
480.30 0.8287711
480.40 0.8296119
480.50 0.8304518
480.60 0.8312911
480.70 0.8321295
480.80 0.8329672
480.90 0.8338041
481.00 0.8346403
481.10 0.8354756
481.20 0.8363159
481.30 0.8371555
481.40 0.8379942
481.50 0.8388322
481.60 0.8396694
481.70 0.8405059
481.80 0.8413416
481.90 0.8421765
482.00 0.8430107
482.10 0.8438441
482.20 0.8446785
482.30 0.8455366
482.40 0.8463938
482.50 0.8472503
482.60 0.848106
482.70 0.8489609
482.80 0.849815
482.90 0.8506684
483.00 0.851521
483.10 0.8523728
483.20 0.8532238
483.30 0.854074
483.40 0.8549235
483.50 0.8557722
483.60 0.8566201
483.70 0.8574778
483.80 0.8583347
483.90 0.8591908
484.00 0.8600462
484.10 0.8609007
484.20 0.8617469
484.30 0.8625889
484.40 0.8634302
484.50 0.8642707
484.60 0.8651105
484.70 0.8659515
484.80 0.8668186
484.90 0.867685
485.00 0.8685506
485.10 0.8694154
485.20 0.8702794
485.30 0.8711426
485.40 0.872005
485.50 0.8728666
485.60 0.8737275
485.70 0.8745947
485.80 0.8754611
485.90 0.8763268
486.00 0.8771916
486.10 0.8780557
486.20 0.878919
486.30 0.8797815
486.40 0.8806432
486.50 0.8815041
486.60 0.8823643
486.70 0.8832242
486.80 0.8840915
486.90 0.8849579
487.00 0.8858235
487.10 0.8866884
487.20 0.8875438
487.30 0.8883985
487.40 0.8892524
487.50 0.8901055
487.60 0.8909579
487.70 0.8918095
487.80 0.8926603
487.90 0.8935103
488.00 0.8943596
488.10 0.8952081
488.20 0.8960578
488.30 0.8969339
488.40 0.8978093
488.50 0.8986838
488.60 0.8995575
488.70 0.9004304
488.80 0.9012791
488.90 0.9021269
489.00 0.9029897
489.10 0.9038921
489.20 0.9047937
489.30 0.9056945
489.40 0.9065945
489.50 0.9074936
489.60 0.908392
489.70 0.9092895
489.80 0.9099938
489.90 0.9108573
490.00 0.91172
490.10 0.912582
490.20 0.9134431
490.30 0.9143035
490.40 0.915164
490.50 0.9160236
490.60 0.9168825
490.70 0.9177406
490.80 0.9187659
490.90 0.9196185
491.00 0.9205562
491.10 0.9213291
491.20 0.9222652
491.30 0.9230367
491.40 0.9240569
491.50 0.9249048
491.60 0.925602
491.70 0.9265341
491.80 0.9274594
491.90 0.9283042
492.00 0.929291
492.10 0.9300565
492.20 0.9310131
492.30 0.9319117
492.40 0.9327032
492.50 0.9335434
492.60 0.9345537
492.70 0.9353962
492.80 0.9362379
492.90 0.9370788
493.00 0.9379234
493.10 0.9388262
493.20 0.9397282
493.30 0.9406293
493.40 0.9415297
493.50 0.9424292
493.60 0.9434306
493.70 0.9442593
493.80 0.9450872
493.90 0.9459312
494.00 0.9468008
494.10 0.9476836
494.20 0.9485955
494.30 0.9495065
494.40 0.9504167
494.50 0.9513261
494.60 0.9522317
494.70 0.9530966
494.80 0.9539451
494.90 0.9547483
495.00 0.9555507
495.10 0.9563525
495.20 0.9572657
495.30 0.9581781
495.40 0.9590897
495.50 0.9600005
495.60 0.9609104
495.70 0.9618196
495.80 0.9627279
495.90 0.9636355
496.00 0.9645422
496.10 0.9654451
496.20 0.9663394
496.30 0.9672123
496.40 0.9680844
496.50 0.9689558
496.60 0.9698264
496.70 0.9707201
496.80 0.9716131
496.90 0.9725053
497.00 0.9733966
497.10 0.9742872
497.20 0.975177
497.30 0.976044
497.40 0.9768476
497.50 0.9776505
497.60 0.978561
497.70 0.9796818
497.80 0.980555
497.90 0.9814275
498.00 0.9822992
498.10 0.9831701
498.20 0.9840402
498.30 0.9849096
498.40 0.9857781
498.50 0.9866459
498.60 0.987513
498.70 0.988389
498.80 0.9892643
498.90 0.990163
499.00 0.9910609
499.10 0.9919579
499.20 0.9928235
499.30 0.9936464
499.40 0.9945352
499.50 0.9954231
499.60 0.9963103
499.70 0.9972001
499.80 0.9981342
499.90 0.9990675
500.00 1
500.10 1.000932
500.20 1.001841
500.30 1.002705
500.40 1.003567
500.50 1.004429
500.60 1.00529
500.70 1.006151
500.80 1.007032
500.90 1.00796
501.00 1.008886
501.10 1.009812
501.20 1.010756
501.30 1.011612
501.40 1.012568
501.50 1.013422
501.60 1.014306
501.70 1.015128
501.80 1.016193
501.90 1.017044
502.00 1.017894
502.10 1.018744
502.20 1.019605
502.30 1.020632
502.40 1.021618
502.50 1.022516
502.60 1.023414
502.70 1.024311
502.80 1.025207
502.90 1.026102
503.00 1.026999
503.10 1.027899
503.20 1.028798
503.30 1.029697
503.40 1.030588
503.50 1.03146
503.60 1.032331
503.70 1.033201
503.80 1.034083
503.90 1.035057
504.00 1.036005
504.10 1.036897
504.20 1.037788
504.30 1.038679
504.40 1.039554
504.50 1.040385
504.60 1.041296
504.70 1.042125
504.80 1.043008
504.90 1.044092
505.00 1.044879
505.10 1.04586
505.20 1.046805
505.30 1.047649
505.40 1.048491
505.50 1.049334
505.60 1.050198
505.70 1.051109
505.80 1.05202
505.90 1.05293
506.00 1.053839
506.10 1.054748
506.20 1.055661
506.30 1.05659
506.40 1.057518
506.50 1.058446
506.60 1.059372
506.70 1.060298
506.80 1.061223
506.90 1.062147
507.00 1.06307
507.10 1.063935
507.20 1.064724
507.30 1.065648
507.40 1.066572
507.50 1.067496
507.60 1.068418
507.70 1.06934
507.80 1.07026
507.90 1.07118
508.00 1.072099
508.10 1.073018
508.20 1.073935
508.30 1.074852
508.40 1.075768
508.50 1.076683
508.60 1.077598
508.70 1.078511
508.80 1.079382
508.90 1.08029
509.00 1.081253
509.10 1.082201
509.20 1.083117
509.30 1.084031
509.40 1.084945
509.50 1.085858
509.60 1.086771
509.70 1.087682
509.80 1.088593
509.90 1.089503
510.00 1.090412
510.10 1.09132
510.20 1.092228
510.30 1.093135
510.40 1.094044
510.50 1.094952
510.60 1.09586
510.70 1.096767
510.80 1.097672
510.90 1.098578
511.00 1.099482
511.10 1.100385
511.20 1.101288
511.30 1.10219
511.40 1.103091
511.50 1.103991
511.60 1.10489
511.70 1.105784
511.80 1.106678
511.90 1.107571
512.00 1.108463
512.10 1.109354
512.20 1.110245
512.30 1.111144
512.40 1.11207
512.50 1.112995
512.60 1.113919
512.70 1.114842
512.80 1.115764
512.90 1.116686
513.00 1.117606
513.10 1.118526
513.20 1.119446
513.30 1.120364
513.40 1.121281
513.50 1.122198
513.60 1.123114
513.70 1.124029
513.80 1.124944
513.90 1.125857
514.00 1.12678
514.10 1.127704
514.20 1.128627
514.30 1.12955
514.40 1.130472
514.50 1.131392
514.60 1.132312
514.70 1.133232
514.80 1.13415
514.90 1.135068
515.00 1.135984
515.10 1.1369
515.20 1.137816
515.30 1.13873
515.40 1.139644
515.50 1.140557
515.60 1.141469
515.70 1.14238
515.80 1.14329
515.90 1.1442
516.00 1.145109
516.10 1.146017
516.20 1.146924
516.30 1.147831
516.40 1.148736
516.50 1.149647
516.60 1.150586
516.70 1.151525
516.80 1.152462
516.90 1.153399
517.00 1.154335
517.10 1.15527
517.20 1.156205
517.30 1.157138
517.40 1.158071
517.50 1.159003
517.60 1.159934
517.70 1.160865
517.80 1.161794
517.90 1.162723
518.00 1.163651
518.10 1.164578
518.20 1.165505
518.30 1.16643
518.40 1.167355
518.50 1.168279
518.60 1.169202
518.70 1.170124
518.80 1.171046
518.90 1.171967
519.00 1.172887
519.10 1.173818
519.20 1.174762
519.30 1.175705
519.40 1.176647
519.50 1.177589
519.60 1.178529
519.70 1.179469
519.80 1.180408
519.90 1.181346
520.00 1.182284
520.10 1.18322
520.20 1.184156
520.30 1.185091
520.40 1.186026
520.50 1.186959
520.60 1.187892
520.70 1.188823
520.80 1.189754
520.90 1.190685
521.00 1.191614
521.10 1.192543
521.20 1.19347
521.30 1.194397
521.40 1.195323
521.50 1.196249
521.60 1.197173
521.70 1.198097
521.80 1.19902
521.90 1.199942
522.00 1.200864
522.10 1.201785
522.20 1.202704
522.30 1.203623
522.40 1.204542
522.50 1.205459
522.60 1.206376
522.70 1.207292
522.80 1.208207
522.90 1.209121
523.00 1.210034
523.10 1.210947
523.20 1.211859
523.30 1.21277
523.40 1.213681
523.50 1.21459
523.60 1.215499
523.70 1.216407
523.80 1.217314
523.90 1.218221
524.00 1.219126
524.10 1.220031
524.20 1.220935
524.30 1.221862
524.40 1.222806
524.50 1.223749
524.60 1.224692
524.70 1.225634
524.80 1.226574
524.90 1.227514
525.00 1.228454
525.10 1.229392
525.20 1.23033
525.30 1.231267
525.40 1.232203
525.50 1.233138
525.60 1.234072
525.70 1.235006
525.80 1.235939
525.90 1.236871
526.00 1.237802
526.10 1.238733
526.20 1.239662
526.30 1.240591
526.40 1.241519
526.50 1.242446
526.60 1.243373
526.70 1.244299
526.80 1.245223
526.90 1.246148
527.00 1.247071
527.10 1.247993
527.20 1.248915
527.30 1.249836
527.40 1.250756
527.50 1.251675
527.60 1.252594
527.70 1.253512
527.80 1.254429
527.90 1.255345
528.00 1.25626
528.10 1.257175
528.20 1.258089
528.30 1.259002
528.40 1.259914
528.50 1.260826
528.60 1.261737
528.70 1.262647
528.80 1.263556
528.90 1.264464
529.00 1.265372
529.10 1.266279
529.20 1.267185
529.30 1.26809
529.40 1.268995
529.50 1.269903
529.60 1.27084
529.70 1.271776
529.80 1.272711
529.90 1.273645
530.00 1.274579
530.10 1.275512
530.20 1.276444
530.30 1.277375
530.40 1.278306
530.50 1.279235
530.60 1.280164
530.70 1.281092
530.80 1.282019
530.90 1.282946
531.00 1.283872
531.10 1.284797
531.20 1.285721
531.30 1.286644
531.40 1.287567
531.50 1.288488
531.60 1.289409
531.70 1.290329
531.80 1.291249
531.90 1.292167
532.00 1.293085
532.10 1.294002
532.20 1.29494
532.30 1.295888
532.40 1.296834
532.50 1.29778
532.60 1.298726
532.70 1.29967
532.80 1.300614
532.90 1.301557
533.00 1.302499
533.10 1.30344
533.20 1.30438
533.30 1.30532
533.40 1.306259
533.50 1.307197
533.60 1.308134
533.70 1.309071
533.80 1.310006
533.90 1.310941
534.00 1.311875
534.10 1.312809
534.20 1.313741
534.30 1.314673
534.40 1.315604
534.50 1.316534
534.60 1.317463
534.70 1.318392
534.80 1.319324
534.90 1.320273
535.00 1.321221
535.10 1.322168
535.20 1.323115
535.30 1.32406
535.40 1.325005
535.50 1.325949
535.60 1.326892
535.70 1.327835
535.80 1.328776
535.90 1.329717
536.00 1.330657
536.10 1.331597
536.20 1.332535
536.30 1.333473
536.40 1.33441
536.50 1.335346
536.60 1.336281
536.70 1.337216
536.80 1.338149
536.90 1.339082
537.00 1.340014
537.10 1.340946
537.20 1.341876
537.30 1.342806
537.40 1.343735
537.50 1.344663
537.60 1.345591
537.70 1.346518
537.80 1.347443
537.90 1.348368
538.00 1.349293
538.10 1.350216
538.20 1.351139
538.30 1.352061
538.40 1.352982
538.50 1.353903
538.60 1.354822
538.70 1.355741
538.80 1.356659
538.90 1.357577
539.00 1.358493
539.10 1.359409
539.20 1.360324
539.30 1.361238
539.40 1.362152
539.50 1.363064
539.60 1.363976
539.70 1.364887
539.80 1.365798
539.90 1.366707
540.00 1.367616
540.10 1.368524
540.20 1.369464
540.30 1.370417
540.40 1.371369
540.50 1.372321
540.60 1.373271
540.70 1.374221
540.80 1.37517
540.90 1.376118
541.00 1.377065
541.10 1.378011
541.20 1.378957
541.30 1.379902
541.40 1.380846
541.50 1.381789
541.60 1.382732
541.70 1.383674
541.80 1.384615
541.90 1.385555
542.00 1.386494
542.10 1.387433
542.20 1.388371
542.30 1.389308
542.40 1.390244
542.50 1.391179
542.60 1.392114
542.70 1.393048
542.80 1.393981
542.90 1.394913
543.00 1.395845
543.10 1.396775
543.20 1.397705
543.30 1.398635
543.40 1.399563
543.50 1.400491
543.60 1.401417
543.70 1.402344
543.80 1.403269
543.90 1.404193
544.00 1.405117
544.10 1.40604
544.20 1.406962
544.30 1.407884
544.40 1.408804
544.50 1.409724
544.60 1.410643
544.70 1.411562
544.80 1.412479
544.90 1.413396
545.00 1.414312
545.10 1.415227
545.20 1.416142
545.30 1.417056
545.40 1.417969
545.50 1.418881
545.60 1.419806
545.70 1.420736
545.80 1.421666
545.90 1.422595
546.00 1.423523
546.10 1.42445
546.20 1.425376
546.30 1.426302
546.40 1.427227
546.50 1.428151
546.60 1.429074
546.70 1.429997
546.80 1.430919
546.90 1.43184
547.00 1.43276
547.10 1.43368
547.20 1.434598
547.30 1.435516
547.40 1.436434
547.50 1.43735
547.60 1.438266
547.70 1.439181
547.80 1.440095
547.90 1.441008
548.00 1.441921
548.10 1.442833
548.20 1.443744
548.30 1.444666
548.40 1.445605
548.50 1.446544
548.60 1.447481
548.70 1.448418
548.80 1.449354
548.90 1.450289
549.00 1.451223
549.10 1.452157
549.20 1.45309
549.30 1.454022
549.40 1.454953
549.50 1.455883
549.60 1.456813
549.70 1.457742
549.80 1.45867
549.90 1.459598
550.00 1.460524
550.10 1.46145
550.20 1.462375
550.30 1.463299
550.40 1.464223
550.50 1.465146
550.60 1.466068
550.70 1.466989
550.80 1.467909
550.90 1.468829
551.00 1.46975
551.10 1.470682
551.20 1.471613
551.30 1.472543
551.40 1.473473
551.50 1.474401
551.60 1.475329
551.70 1.476256
551.80 1.477183
551.90 1.478108
552.00 1.479033
552.10 1.479957
552.20 1.480881
552.30 1.481803
552.40 1.482725
552.50 1.483646
552.60 1.484566
552.70 1.485486
552.80 1.486405
552.90 1.487323
553.00 1.48824
553.10 1.489156
553.20 1.490072
553.30 1.490987
553.40 1.491901
553.50 1.492814
553.60 1.493727
553.70 1.494639
553.80 1.495567
553.90 1.496505
554.00 1.497443
554.10 1.49838
554.20 1.499316
554.30 1.500252
554.40 1.501186
554.50 1.50212
554.60 1.503053
554.70 1.503985
554.80 1.504917
554.90 1.505847
555.00 1.506777
555.10 1.507707
555.20 1.508635
555.30 1.509563
555.40 1.51049
555.50 1.511416
555.60 1.512341
555.70 1.513266
555.80 1.51419
555.90 1.515113
556.00 1.516035
556.10 1.516957
556.20 1.517877
556.30 1.518797
556.40 1.519717
556.50 1.520636
556.60 1.521572
556.70 1.522506
556.80 1.52344
556.90 1.524373
557.00 1.525305
557.10 1.526237
557.20 1.527168
557.30 1.528098
557.40 1.529027
557.50 1.529956
557.60 1.530883
557.70 1.53181
557.80 1.532736
557.90 1.533662
558.00 1.534587
558.10 1.53551
558.20 1.536434
558.30 1.537356
558.40 1.538278
558.50 1.539199
558.60 1.540119
558.70 1.541038
558.80 1.541957
558.90 1.542875
559.00 1.543792
559.10 1.544708
559.20 1.545624
559.30 1.546538
559.40 1.547452
559.50 1.548366
559.60 1.549278
559.70 1.55019
559.80 1.551101
559.90 1.552012
560.00 1.552921
560.10 1.55383
560.20 1.554738
560.30 1.555645
560.40 1.556552
560.50 1.557458
560.60 1.558363
560.70 1.559267
560.80 1.560171
560.90 1.561074
561.00 1.561976
561.10 1.562877
561.20 1.563778
561.30 1.564678
561.40 1.565577
561.50 1.566475
561.60 1.567373
561.70 1.56827
561.80 1.569166
561.90 1.570062
562.00 1.570956
562.10 1.571864
562.20 1.572792
562.30 1.573718
562.40 1.574644
562.50 1.575569
562.60 1.576494
562.70 1.577418
562.80 1.578341
562.90 1.579263
563.00 1.580184
563.10 1.581105
563.20 1.582025
563.30 1.582944
563.40 1.583862
563.50 1.58478
563.60 1.585697
563.70 1.586613
563.80 1.587528
563.90 1.588443
564.00 1.589357
564.10 1.59027
564.20 1.591183
564.30 1.592094
564.40 1.593005
564.50 1.593915
564.60 1.594825
564.70 1.595734
564.80 1.596642
564.90 1.597551
565.00 1.598467
565.10 1.599382
565.20 1.600297
565.30 1.60121
565.40 1.602123
565.50 1.603035
565.60 1.603946
565.70 1.604857
565.80 1.605767
565.90 1.606676
566.00 1.607584
566.10 1.608492
566.20 1.609399
566.30 1.610305
566.40 1.61121
566.50 1.612115
566.60 1.613019
566.70 1.613922
566.80 1.614824
566.90 1.615726
567.00 1.616627
567.10 1.617527
567.20 1.618427
567.30 1.619326
567.40 1.620224
567.50 1.621121
567.60 1.622017
567.70 1.622919
567.80 1.623842
567.90 1.624765
568.00 1.625687
568.10 1.626608
568.20 1.627529
568.30 1.628449
568.40 1.629368
568.50 1.630286
568.60 1.631204
568.70 1.632121
568.80 1.633037
568.90 1.633952
569.00 1.634867
569.10 1.635781
569.20 1.636694
569.30 1.637606
569.40 1.638518
569.50 1.639429
569.60 1.640339
569.70 1.641248
569.80 1.642157
569.90 1.643065
570.00 1.643972
570.10 1.644878
570.20 1.645784
570.30 1.646689
570.40 1.647593
570.50 1.648497
570.60 1.6494
570.70 1.650302
570.80 1.651203
570.90 1.652104
571.00 1.653003
571.10 1.653902
571.20 1.654801
571.30 1.655699
571.40 1.656595
571.50 1.657492
571.60 1.658387
571.70 1.659282
571.80 1.660176
571.90 1.661069
572.00 1.661962
572.10 1.662853
572.20 1.663745
572.30 1.664635
572.40 1.665525
572.50 1.666414
572.60 1.667302
572.70 1.668189
572.80 1.669076
572.90 1.669962
573.00 1.670847
573.10 1.671732
573.20 1.672616
573.30 1.673499
573.40 1.674391
573.50 1.675294
573.60 1.676197
573.70 1.677098
573.80 1.678
573.90 1.6789
574.00 1.6798
574.10 1.680699
574.20 1.681597
574.30 1.682494
574.40 1.683391
574.50 1.684287
574.60 1.685182
574.70 1.686077
574.80 1.686971
574.90 1.687864
575.00 1.688756
575.10 1.689648
575.20 1.690539
575.30 1.691429
575.40 1.692319
575.50 1.693208
575.60 1.694096
575.70 1.694983
575.80 1.69587
575.90 1.696756
576.00 1.697641
576.10 1.698525
576.20 1.699409
576.30 1.700292
576.40 1.701175
576.50 1.702056
576.60 1.702937
576.70 1.703817
576.80 1.704697
576.90 1.705576
577.00 1.706454
577.10 1.707331
577.20 1.708208
577.30 1.709084
577.40 1.709959
577.50 1.710834
577.60 1.711716
577.70 1.712611
577.80 1.713506
577.90 1.7144
578.00 1.715293
578.10 1.716186
578.20 1.717077
578.30 1.717968
578.40 1.718859
578.50 1.719748
578.60 1.720637
578.70 1.721526
578.80 1.722413
578.90 1.7233
579.00 1.724186
579.10 1.725071
579.20 1.725957
579.30 1.726841
579.40 1.727725
579.50 1.728609
579.60 1.729491
579.70 1.730373
579.80 1.731254
579.90 1.732135
580.00 1.733015
580.10 1.7339
580.20 1.734794
580.30 1.735688
580.40 1.73658
580.50 1.737473
580.60 1.738364
580.70 1.739255
580.80 1.740145
580.90 1.741034
581.00 1.741922
581.10 1.74281
581.20 1.743697
581.30 1.744584
581.40 1.745469
581.50 1.746354
581.60 1.747239
581.70 1.748122
581.80 1.749005
581.90 1.749887
582.00 1.750769
582.10 1.751648
582.20 1.752524
582.30 1.753399
582.40 1.754274
582.50 1.755148
582.60 1.756021
582.70 1.756894
582.80 1.757766
582.90 1.758637
583.00 1.759508
583.10 1.760377
583.20 1.761246
583.30 1.762115
583.40 1.762982
583.50 1.763849
583.60 1.764725
583.70 1.765615
583.80 1.766505
583.90 1.767394
584.00 1.768282
584.10 1.769169
584.20 1.770056
584.30 1.770942
584.40 1.771827
584.50 1.772711
584.60 1.773595
584.70 1.774478
584.80 1.775361
584.90 1.776227
585.00 1.777023
585.10 1.777818
585.20 1.778651
585.30 1.779543
585.40 1.780436
585.50 1.781327
585.60 1.782218
585.70 1.783108
585.80 1.783997
585.90 1.784886
586.00 1.785774
586.10 1.786661
586.20 1.787533
586.30 1.788381
586.40 1.789228
586.50 1.790074
586.60 1.790919
586.70 1.791764
586.80 1.792622
586.90 1.793504
587.00 1.794385
587.10 1.795265
587.20 1.796145
587.30 1.797024
587.40 1.797989
587.50 1.798763
587.60 1.799743
587.70 1.800516
587.80 1.801407
587.90 1.802282
588.00 1.803156
588.10 1.804029
588.20 1.804902
588.30 1.805774
588.40 1.806645
588.50 1.807515
588.60 1.808385
588.70 1.809254
588.80 1.810122
588.90 1.81099
589.00 1.811857
589.10 1.812723
589.20 1.813589
589.30 1.814454
589.40 1.815318
589.50 1.816182
589.60 1.817044
589.70 1.817907
589.80 1.818768
589.90 1.819629
590.00 1.820489
590.10 1.821349
590.20 1.822208
590.30 1.823066
590.40 1.823924
590.50 1.824781
590.60 1.825638
590.70 1.826493
590.80 1.827348
590.90 1.828201
591.00 1.829054
591.10 1.829906
591.20 1.830758
591.30 1.831609
591.40 1.832459
591.50 1.833308
591.60 1.83416
591.70 1.835016
591.80 1.835871
591.90 1.836726
592.00 1.83758
592.10 1.838433
592.20 1.839286
592.30 1.840137
592.40 1.840989
592.50 1.841839
592.60 1.842689
592.70 1.843538
592.80 1.844387
592.90 1.845235
593.00 1.846082
593.10 1.846934
593.20 1.847795
593.30 1.848655
593.40 1.849514
593.50 1.850373
593.60 1.851231
593.70 1.852088
593.80 1.852945
593.90 1.853801
594.00 1.854656
594.10 1.855511
594.20 1.856365
594.30 1.857218
594.40 1.858071
594.50 1.858923
594.60 1.859774
594.70 1.860624
594.80 1.861474
594.90 1.862324
595.00 1.863172
595.10 1.86402
595.20 1.864867
595.30 1.865713
595.40 1.866559
595.50 1.867404
595.60 1.868248
595.70 1.869091
595.80 1.869934
595.90 1.870777
596.00 1.871618
596.10 1.872459
596.20 1.873299
596.30 1.874139
596.40 1.874978
596.50 1.875816
596.60 1.876654
596.70 1.877506
596.80 1.878367
596.90 1.879227
597.00 1.880086
597.10 1.880945
597.20 1.881803
597.30 1.882661
597.40 1.883518
597.50 1.884374
597.60 1.885221
597.70 1.886055
597.80 1.886889
597.90 1.887722
598.00 1.888554
598.10 1.889385
598.20 1.890216
598.30 1.891046
598.40 1.891876
598.50 1.892704
598.60 1.893533
598.70 1.89436
598.80 1.895187
598.90 1.896013
599.00 1.896839
599.10 1.897664
599.20 1.898488
599.30 1.899311
599.40 1.900153
599.50 1.900993
599.60 1.901833
599.70 1.902672
599.80 1.903511
599.90 1.904349
600.00 1.905186
600.10 1.906023
600.20 1.906859
600.30 1.907694
600.40 1.908528
600.50 1.909362
600.60 1.910196
600.70 1.911028
600.80 1.91186
600.90 1.912691
601.00 1.913522
601.10 1.914352
601.20 1.915181
601.30 1.91601
601.40 1.916847
601.50 1.917684
601.60 1.91852
601.70 1.919356
601.80 1.920191
601.90 1.921025
602.00 1.921858
602.10 1.922691
602.20 1.923523
602.30 1.924355
602.40 1.925186
602.50 1.926016
602.60 1.926845
602.70 1.927658
602.80 1.92847
602.90 1.929299
603.00 1.930127
603.10 1.930955
603.20 1.931782
603.30 1.932609
603.40 1.933434
603.50 1.934259
603.60 1.935084
603.70 1.935908
603.80 1.936731
603.90 1.937553
604.00 1.938375
604.10 1.939196
604.20 1.940017
604.30 1.940837
604.40 1.941656
604.50 1.942486
604.60 1.943314
604.70 1.944142
604.80 1.94497
604.90 1.945797
605.00 1.946623
605.10 1.947448
605.20 1.948273
605.30 1.949097
605.40 1.949921
605.50 1.950751
605.60 1.951581
605.70 1.952409
605.80 1.953237
605.90 1.954065
606.00 1.954892
606.10 1.9557
606.20 1.956508
606.30 1.957315
606.40 1.958121
606.50 1.95898
606.60 1.959839
606.70 1.96059
606.80 1.961447
606.90 1.962197
607.00 1.963053
607.10 1.963908
607.20 1.964763
607.30 1.965564
607.40 1.966363
607.50 1.967163
607.60 1.967961
607.70 1.968777
607.80 1.969592
607.90 1.970407
608.00 1.971221
608.10 1.972034
608.20 1.972847
608.30 1.973636
608.40 1.974425
608.50 1.975214
608.60 1.976001
608.70 1.976807
608.80 1.97762
608.90 1.978433
609.00 1.979245
609.10 1.980056
609.20 1.980867
609.30 1.981681
609.40 1.982495
609.50 1.983308
609.60 1.984121
609.70 1.984933
609.80 1.985744
609.90 1.986555
610.00 1.987365
610.10 1.988174
610.20 1.988983
610.30 1.989791
610.40 1.990598
610.50 1.991405
610.60 1.992211
610.70 1.993017
610.80 1.993822
610.90 1.994625
611.00 1.995426
611.10 1.996228
611.20 1.997028
611.30 1.997828
611.40 1.998628
611.50 1.999426
611.60 2.000225
611.70 2.001022
611.80 2.001819
611.90 2.002615
612.00 2.003411
612.10 2.004206
612.20 2.005
612.30 2.005794
612.40 2.006594
612.50 2.007393
612.60 2.008192
612.70 2.008991
612.80 2.009788
612.90 2.010585
613.00 2.011382
613.10 2.012177
613.20 2.012972
613.30 2.013767
613.40 2.014561
613.50 2.015354
613.60 2.016147
613.70 2.016939
613.80 2.01773
613.90 2.018521
614.00 2.019311
614.10 2.0201
614.20 2.020889
614.30 2.021677
614.40 2.022476
614.50 2.023275
614.60 2.024073
614.70 2.02487
614.80 2.025659
614.90 2.026446
615.00 2.027233
615.10 2.028019
615.20 2.028805
615.30 2.029589
615.40 2.030374
615.50 2.031157
615.60 2.03194
615.70 2.032722
615.80 2.033504
615.90 2.034285
616.00 2.035066
616.10 2.035846
616.20 2.036625
616.30 2.037403
616.40 2.038181
616.50 2.038959
616.60 2.039736
616.70 2.040512
616.80 2.041287
616.90 2.042063
617.00 2.042837
617.10 2.043611
617.20 2.044385
617.30 2.045158
617.40 2.04593
617.50 2.046701
617.60 2.047472
617.70 2.048243
617.80 2.049012
617.90 2.049782
618.00 2.05055
618.10 2.051318
618.20 2.052085
618.30 2.052852
618.40 2.053618
618.50 2.054384
618.60 2.055149
618.70 2.055913
618.80 2.056677
618.90 2.05744
619.00 2.058203
619.10 2.058964
619.20 2.059726
619.30 2.060487
619.40 2.061247
619.50 2.062006
619.60 2.062765
619.70 2.063523
619.80 2.064281
619.90 2.065038
620.00 2.065795
620.10 2.066551
620.20 2.067306
620.30 2.068061
620.40 2.068815
620.50 2.069569
620.60 2.070322
620.70 2.071074
620.80 2.071826
620.90 2.07259
621.00 2.073376
621.10 2.074161
621.20 2.074946
621.30 2.07573
621.40 2.076513
621.50 2.077296
621.60 2.078078
621.70 2.07886
621.80 2.079641
621.90 2.080421
622.00 2.081201
622.10 2.08198
622.20 2.082759
622.30 2.083537
622.40 2.084314
622.50 2.085091
622.60 2.085867
622.70 2.086643
622.80 2.087418
622.90 2.088192
623.00 2.088966
623.10 2.089739
623.20 2.090512
623.30 2.091283
623.40 2.092055
623.50 2.092825
623.60 2.093596
623.70 2.094365
623.80 2.095134
623.90 2.095902
624.00 2.09667
624.10 2.097437
624.20 2.098204
624.30 2.09897
624.40 2.099735
624.50 2.1005
624.60 2.101264
624.70 2.102027
624.80 2.10279
624.90 2.103552
625.00 2.104314
625.10 2.105075
625.20 2.105836
625.30 2.106596
625.40 2.107355
625.50 2.108114
625.60 2.108872
625.70 2.10963
625.80 2.110387
625.90 2.111143
626.00 2.111899
626.10 2.112654
626.20 2.113409
626.30 2.114163
626.40 2.114916
626.50 2.115669
626.60 2.116421
626.70 2.117173
626.80 2.117924
626.90 2.118675
627.00 2.119425
627.10 2.12017
627.20 2.120905
627.30 2.121639
627.40 2.122373
627.50 2.123106
627.60 2.123839
627.70 2.124571
627.80 2.125302
627.90 2.126033
628.00 2.126763
628.10 2.127493
628.20 2.128222
628.30 2.128951
628.40 2.129679
628.50 2.130406
628.60 2.131133
628.70 2.131859
628.80 2.132585
628.90 2.13331
629.00 2.134035
629.10 2.134759
629.20 2.135482
629.30 2.136205
629.40 2.136927
629.50 2.137649
629.60 2.13837
629.70 2.139091
629.80 2.139811
629.90 2.140531
630.00 2.141249
630.10 2.141968
630.20 2.142686
630.30 2.143461
630.40 2.14424
630.50 2.14502
630.60 2.145798
630.70 2.146576
630.80 2.147353
630.90 2.14813
631.00 2.148906
631.10 2.149681
631.20 2.150456
631.30 2.15123
631.40 2.152004
631.50 2.152777
631.60 2.15355
631.70 2.154321
631.80 2.155093
631.90 2.155863
632.00 2.156633
632.10 2.157403
632.20 2.158172
632.30 2.15894
632.40 2.159708
632.50 2.160475
632.60 2.161241
632.70 2.162007
632.80 2.162773
632.90 2.163537
633.00 2.164301
633.10 2.165065
633.20 2.165828
633.30 2.16659
633.40 2.16731
633.50 2.167995
633.60 2.16868
633.70 2.169364
633.80 2.170047
633.90 2.170731
634.00 2.171413
634.10 2.172095
634.20 2.172777
634.30 2.173458
634.40 2.174138
634.50 2.174818
634.60 2.175497
634.70 2.176176
634.80 2.176854
634.90 2.177532
635.00 2.178209
635.10 2.178886
635.20 2.179562
635.30 2.180238
635.40 2.180913
635.50 2.181587
635.60 2.182261
635.70 2.182935
635.80 2.183608
635.90 2.18428
636.00 2.184952
636.10 2.185623
636.20 2.186294
636.30 2.186964
636.40 2.187634
636.50 2.188303
636.60 2.189027
636.70 2.189756
636.80 2.190485
636.90 2.191213
637.00 2.191941
637.10 2.192668
637.20 2.193395
637.30 2.19412
637.40 2.194846
637.50 2.195571
637.60 2.196295
637.70 2.197019
637.80 2.197742
637.90 2.198464
638.00 2.199186
638.10 2.199908
638.20 2.200629
638.30 2.201349
638.40 2.202069
638.50 2.202788
638.60 2.203507
638.70 2.204225
638.80 2.204942
638.90 2.205659
639.00 2.206376
639.10 2.207091
639.20 2.207807
639.30 2.208521
639.40 2.209236
639.50 2.209949
639.60 2.210662
639.70 2.211372
639.80 2.21207
639.90 2.212767
640.00 2.213464
640.10 2.21416
640.20 2.214856
640.30 2.215551
640.40 2.216246
640.50 2.21694
640.60 2.217634
640.70 2.218327
640.80 2.219019
640.90 2.219711
641.00 2.220402
641.10 2.221093
641.20 2.221784
641.30 2.222474
641.40 2.223163
641.50 2.223852
641.60 2.22454
641.70 2.225227
641.80 2.225915
641.90 2.226601
642.00 2.227287
642.10 2.227973
642.20 2.228658
642.30 2.229342
642.40 2.230026
642.50 2.23071
642.60 2.231392
642.70 2.232075
642.80 2.232756
642.90 2.233438
643.00 2.234119
643.10 2.2348
643.20 2.23548
643.30 2.236159
643.40 2.236838
643.50 2.237517
643.60 2.238195
643.70 2.238872
643.80 2.239549
643.90 2.240226
644.00 2.240901
644.10 2.241577
644.20 2.242251
644.30 2.242926
644.40 2.2436
644.50 2.244273
644.60 2.244945
644.70 2.245618
644.80 2.246289
644.90 2.24696
645.00 2.247631
645.10 2.248301
645.20 2.248971
645.30 2.24964
645.40 2.250308
645.50 2.250976
645.60 2.251644
645.70 2.25231
645.80 2.252977
645.90 2.253643
646.00 2.254308
646.10 2.254985
646.20 2.255694
646.30 2.256403
646.40 2.257112
646.50 2.257819
646.60 2.258527
646.70 2.259233
646.80 2.25994
646.90 2.260645
647.00 2.26135
647.10 2.262055
647.20 2.262759
647.30 2.263462
647.40 2.264165
647.50 2.264868
647.60 2.26557
647.70 2.266271
647.80 2.266972
647.90 2.267672
648.00 2.268372
648.10 2.269071
648.20 2.269769
648.30 2.270468
648.40 2.271165
648.50 2.271862
648.60 2.272559
648.70 2.273254
648.80 2.27395
648.90 2.274645
649.00 2.275339
649.10 2.276033
649.20 2.276726
649.30 2.277419
649.40 2.278055
649.50 2.278688
649.60 2.279321
649.70 2.279953
649.80 2.280585
649.90 2.281216
650.00 2.281846
650.10 2.282477
650.20 2.283106
650.30 2.283736
650.40 2.284364
650.50 2.284993
650.60 2.28562
650.70 2.286248
650.80 2.286874
650.90 2.287501
651.00 2.288126
651.10 2.288752
651.20 2.289376
651.30 2.290001
651.40 2.290625
651.50 2.291248
651.60 2.291871
651.70 2.292493
651.80 2.293115
651.90 2.293736
652.00 2.294357
652.10 2.294977
652.20 2.295597
652.30 2.296217
652.40 2.296836
652.50 2.297454
652.60 2.298128
652.70 2.298832
652.80 2.299535
652.90 2.300237
653.00 2.300939
653.10 2.301641
653.20 2.302342
653.30 2.303042
653.40 2.303742
653.50 2.304441
653.60 2.30514
653.70 2.305839
653.80 2.306536
653.90 2.307233
654.00 2.30793
654.10 2.308626
654.20 2.309322
654.30 2.310017
654.40 2.310711
654.50 2.311405
654.60 2.312099
654.70 2.312792
654.80 2.313484
654.90 2.314176
655.00 2.314868
655.10 2.315558
655.20 2.316249
655.30 2.316938
655.40 2.317628
655.50 2.318316
655.60 2.319005
655.70 2.319692
655.80 2.320272
655.90 2.320852
656.00 2.321431
656.10 2.322009
656.20 2.322587
656.30 2.323165
656.40 2.323742
656.50 2.324319
656.60 2.324895
656.70 2.325471
656.80 2.326046
656.90 2.326621
657.00 2.327195
657.10 2.327769
657.20 2.328343
657.30 2.328916
657.40 2.329488
657.50 2.33006
657.60 2.330632
657.70 2.331203
657.80 2.332084
657.90 2.332736
658.00 2.333348
658.10 2.333959
658.20 2.334569
658.30 2.335179
658.40 2.335789
658.50 2.336398
658.60 2.337007
658.70 2.337615
658.80 2.338223
658.90 2.33883
659.00 2.339437
659.10 2.340037
659.20 2.340627
659.30 2.341222
659.40 2.341818
659.50 2.342412
659.60 2.343006
659.70 2.3436
659.80 2.344193
659.90 2.344786
660.00 2.345378
660.10 2.34597
660.20 2.346561
660.30 2.347152
660.40 2.347908
660.50 2.348692
660.60 2.349476
660.70 2.350259
660.80 2.351041
660.90 2.351597
661.00 2.352153
661.10 2.352708
661.20 2.353263
661.30 2.353817
661.40 2.354371
661.50 2.354925
661.60 2.355478
661.70 2.35603
661.80 2.356582
661.90 2.357272
662.00 2.357962
662.10 2.358651
662.20 2.35934
662.30 2.360028
662.40 2.361328
662.50 2.361967
662.60 2.362605
662.70 2.363242
662.80 2.36388
662.90 2.364066
663.00 2.364253
663.10 2.365339
663.20 2.365525
663.30 2.36571
663.40 2.366794
663.50 2.367877
663.60 2.36896
663.70 2.369081
663.80 2.369202
663.90 2.369438
664.00 2.369694
664.10 2.370475
664.20 2.371255
664.30 2.372035
664.40 2.372814
664.50 2.373593
664.60 2.37437
664.70 2.374974
664.80 2.375577
664.90 2.37618
665.00 2.376782
665.10 2.377383
665.20 2.377984
665.30 2.378585
665.40 2.379185
665.50 2.379488
665.60 2.379738
665.70 2.38138
665.80 2.381833
665.90 2.382285
666.00 2.382736
666.10 2.383187
666.20 2.383638
666.30 2.384089
666.40 2.384539
666.50 2.385259
666.60 2.386027
666.70 2.386794
666.80 2.38756
666.90 2.388326
667.00 2.389092
667.10 2.389414
667.20 2.389659
667.30 2.390595
667.40 2.39153
667.50 2.391816
667.60 2.391986
667.70 2.393177
667.80 2.393015
667.90 2.393517
668.00 2.394573
668.10 2.394609
668.20 2.394778
668.30 2.395323
668.40 2.395934
668.50 2.396545
668.60 2.397155
668.70 2.398406
668.80 2.399062
668.90 2.399718
669.00 2.400373
669.10 2.401028
669.20 2.401682
669.30 2.40222
669.40 2.402738
669.50 2.403256
669.60 2.403773
669.70 2.404289
669.80 2.404806
669.90 2.405321
670.00 2.405837
670.10 2.406352
670.20 2.406866
670.30 2.407567
670.40 2.4083
670.50 2.409033
670.60 2.409765
670.70 2.410496
670.80 2.411039
670.90 2.411581
671.00 2.412122
671.10 2.412664
671.20 2.413204
671.30 2.413745
671.40 2.414285
671.50 2.414824
671.60 2.415363
671.70 2.415902
671.80 2.41644
671.90 2.41712
672.00 2.417825
672.10 2.418529
672.20 2.419232
672.30 2.419935
672.40 2.420408
672.50 2.420863
672.60 2.421318
672.70 2.421773
672.80 2.422227
672.90 2.42268
673.00 2.423134
673.10 2.423587
673.20 2.424039
673.30 2.424836
673.40 2.425456
673.50 2.426043
673.60 2.42663
673.70 2.427217
673.80 2.427803
673.90 2.428389
674.00 2.428974
674.10 2.429559
674.20 2.430143
674.30 2.430727
674.40 2.43131
674.50 2.431893
674.60 2.432476
674.70 2.433058
674.80 2.433639
674.90 2.434221
675.00 2.434801
675.10 2.435382
675.20 2.435961
675.30 2.436541
675.40 2.437075
675.50 2.437602
675.60 2.438128
675.70 2.438654
675.80 2.439179
675.90 2.439704
676.00 2.440228
676.10 2.440752
676.20 2.441276
676.30 2.441799
676.40 2.442321
676.50 2.442844
676.60 2.443366
676.70 2.443887
676.80 2.444408
676.90 2.444929
677.00 2.445449
677.10 2.445969
677.20 2.446488
677.30 2.447007
677.40 2.447526
677.50 2.448044
677.60 2.448562
677.70 2.449079
677.80 2.449596
677.90 2.450143
678.00 2.450695
678.10 2.451246
678.20 2.451797
678.30 2.452347
678.40 2.452897
678.50 2.453447
678.60 2.453996
678.70 2.454545
678.80 2.455093
678.90 2.455641
679.00 2.456189
679.10 2.45673
679.20 2.45727
679.30 2.457808
679.40 2.458346
679.50 2.458884
679.60 2.459422
679.70 2.459959
679.80 2.460495
679.90 2.461032
680.00 2.461567
680.10 2.462103
680.20 2.462638
680.30 2.463172
680.40 2.463706
680.50 2.46424
680.60 2.464773
680.70 2.465306
680.80 2.465838
680.90 2.46637
681.00 2.466902
681.10 2.467433
681.20 2.467964
681.30 2.468494
681.40 2.469024
681.50 2.469553
681.60 2.470082
681.70 2.470611
681.80 2.471139
681.90 2.471667
682.00 2.472194
682.10 2.472721
682.20 2.473248
682.30 2.473774
682.40 2.4743
682.50 2.474825
682.60 2.47535
682.70 2.475874
682.80 2.476398
682.90 2.476922
683.00 2.477445
683.10 2.477968
683.20 2.47849
683.30 2.479012
683.40 2.479534
683.50 2.480055
683.60 2.480576
683.70 2.481096
683.80 2.481616
683.90 2.482136
684.00 2.482655
684.10 2.483174
684.20 2.483692
684.30 2.48421
684.40 2.484727
684.50 2.485244
684.60 2.485761
684.70 2.486277
684.80 2.486793
684.90 2.487309
685.00 2.487824
685.10 2.488338
685.20 2.488852
685.30 2.489366
685.40 2.48988
685.50 2.490393
685.60 2.490905
685.70 2.491418
685.80 2.491929
685.90 2.49245
686.00 2.492973
686.10 2.493496
686.20 2.494018
686.30 2.49454
686.40 2.495061
686.50 2.495582
686.60 2.496103
686.70 2.496623
686.80 2.497143
686.90 2.497662
687.00 2.498181
687.10 2.4987
687.20 2.499218
687.30 2.499736
687.40 2.500253
687.50 2.50077
687.60 2.501286
687.70 2.501802
687.80 2.502318
687.90 2.502833
688.00 2.503348
688.10 2.503863
688.20 2.504377
688.30 2.50489
688.40 2.505404
688.50 2.505917
688.60 2.506429
688.70 2.506941
688.80 2.507453
688.90 2.507964
689.00 2.508475
689.10 2.508985
689.20 2.509495
689.30 2.510005
689.40 2.510514
689.50 2.511023
689.60 2.511531
689.70 2.512039
689.80 2.512547
689.90 2.513054
690.00 2.513561
690.10 2.514067
690.20 2.514574
690.30 2.515079
690.40 2.515584
690.50 2.516089
690.60 2.516594
690.70 2.517098
690.80 2.517601
690.90 2.518105
691.00 2.518607
691.10 2.51911
691.20 2.519612
691.30 2.520114
691.40 2.520615
691.50 2.521116
691.60 2.521616
691.70 2.522116
691.80 2.522616
691.90 2.523115
692.00 2.523614
692.10 2.524113
692.20 2.524611
692.30 2.525109
692.40 2.525606
692.50 2.526103
692.60 2.526599
692.70 2.52709
692.80 2.527563
692.90 2.528034
693.00 2.528506
693.10 2.528976
693.20 2.529447
693.30 2.529917
693.40 2.530387
693.50 2.530856
693.60 2.531325
693.70 2.531794
693.80 2.532262
693.90 2.53273
694.00 2.533198
694.10 2.533665
694.20 2.534132
694.30 2.534598
694.40 2.535064
694.50 2.53553
694.60 2.535995
694.70 2.53646
694.80 2.536925
694.90 2.537389
695.00 2.537853
695.10 2.538316
695.20 2.538779
695.30 2.539242
695.40 2.539704
695.50 2.540166
695.60 2.540628
695.70 2.541089
695.80 2.54155
695.90 2.54201
696.00 2.54247
696.10 2.54293
696.20 2.54339
696.30 2.543849
696.40 2.544307
696.50 2.544765
696.60 2.545264
696.70 2.545772
696.80 2.546279
696.90 2.546786
697.00 2.547293
697.10 2.547799
697.20 2.548305
697.30 2.54881
697.40 2.549315
697.50 2.54982
697.60 2.550324
697.70 2.550828
697.80 2.551331
697.90 2.551834
698.00 2.552337
698.10 2.552839
698.20 2.553341
698.30 2.553842
698.40 2.554343
698.50 2.554844
698.60 2.555344
698.70 2.555844
698.80 2.556343
698.90 2.556843
699.00 2.557341
699.10 2.557738
699.20 2.558111
699.30 2.558483
699.40 2.558855
699.50 2.559227
699.60 2.559599
699.70 2.560007
699.80 2.560418
699.90 2.560828
700.00 2.561238
700.10 2.561648
700.20 2.562057
700.30 2.562466
700.40 2.562874
700.50 2.563283
700.60 2.56369
700.70 2.564098
700.80 2.564505
700.90 2.564912
701.00 2.565319
701.10 2.565759
701.20 2.566207
701.30 2.566654
701.40 2.567101
701.50 2.567548
701.60 2.567994
701.70 2.568441
701.80 2.568886
701.90 2.569332
702.00 2.569777
702.10 2.570221
702.20 2.570665
702.30 2.571109
702.40 2.571553
702.50 2.571996
702.60 2.572461
702.70 2.57293
702.80 2.573399
702.90 2.573867
703.00 2.574335
703.10 2.574803
703.20 2.57527
703.30 2.575737
703.40 2.576204
703.50 2.57667
703.60 2.577136
703.70 2.577601
703.80 2.578066
703.90 2.578531
704.00 2.578995
704.10 2.579459
704.20 2.579858
704.30 2.580242
704.40 2.580625
704.50 2.581008
704.60 2.581391
704.70 2.581773
704.80 2.582155
704.90 2.582537
705.00 2.582918
705.10 2.583299
705.20 2.583851
705.30 2.584444
705.40 2.585036
705.50 2.585627
705.60 2.586218
705.70 2.586808
705.80 2.587291
705.90 2.587749
706.00 2.588206
706.10 2.588663
706.20 2.588798
706.30 2.588857
706.40 2.58986
706.50 2.589543
706.60 2.589978
706.70 2.590829
706.80 2.590737
706.90 2.590796
707.00 2.591174
707.10 2.591628
707.20 2.592081
707.30 2.592534
707.40 2.593093
707.50 2.593677
707.60 2.59426
707.70 2.594843
707.80 2.595425
707.90 2.596007
708.00 2.596418
708.10 2.596789
708.20 2.59716
708.30 2.59753
708.40 2.5979
708.50 2.59827
708.60 2.598639
708.70 2.599008
708.80 2.599377
708.90 2.599745
709.00 2.600177
709.10 2.600623
709.20 2.601069
709.30 2.601515
709.40 2.60196
709.50 2.602405
709.60 2.60285
709.70 2.603294
709.80 2.603738
709.90 2.604181
710.00 2.604625
710.10 2.605068
710.20 2.60551
710.30 2.605952
710.40 2.606394
710.50 2.606835
710.60 2.607255
710.70 2.60767
710.80 2.608084
710.90 2.608498
711.00 2.608912
711.10 2.609325
711.20 2.609738
711.30 2.610151
711.40 2.610563
711.50 2.610975
711.60 2.611387
711.70 2.611798
711.80 2.612209
711.90 2.612619
712.00 2.61303
712.10 2.613433
712.20 2.613835
712.30 2.614236
712.40 2.614637
712.50 2.615037
712.60 2.615437
712.70 2.615837
712.80 2.616237
712.90 2.616636
713.00 2.617035
713.10 2.617434
713.20 2.617832
713.30 2.61823
713.40 2.618627
713.50 2.619025
713.60 2.619422
713.70 2.619736
713.80 2.619884
713.90 2.620032
714.00 2.62018
714.10 2.620518
714.20 2.620901
714.30 2.621283
714.40 2.621665
714.50 2.622047
714.60 2.622428
714.70 2.622809
714.80 2.62319
714.90 2.62357
715.00 2.62395
715.10 2.62433
715.20 2.624709
715.30 2.625089
715.40 2.625467
715.50 2.625846
715.60 2.626224
715.70 2.626602
715.80 2.62698
715.90 2.627357
716.00 2.627734
716.10 2.62811
716.20 2.628487
716.30 2.628863
716.40 2.629238
716.50 2.629614
716.60 2.630017
716.70 2.630426
716.80 2.630836
716.90 2.631245
717.00 2.631653
717.10 2.632061
717.20 2.632469
717.30 2.632877
717.40 2.633284
717.50 2.633691
717.60 2.634097
717.70 2.634503
717.80 2.634909
717.90 2.635315
718.00 2.63572
718.10 2.636125
718.20 2.636507
718.30 2.636877
718.40 2.637246
718.50 2.637615
718.60 2.637984
718.70 2.638352
718.80 2.63872
718.90 2.639088
719.00 2.639456
719.10 2.639823
719.20 2.64019
719.30 2.640556
719.40 2.640922
719.50 2.641288
719.60 2.641654
719.70 2.642019
719.80 2.642384
719.90 2.642749
720.00 2.643114
720.10 2.643478
720.20 2.643842
720.30 2.644205
720.40 2.644568
720.50 2.644931
720.60 2.645294
720.70 2.645529
720.80 2.645696
720.90 2.646115
721.00 2.646544
721.10 2.646973
721.20 2.647402
721.30 2.64783
721.40 2.648258
721.50 2.648686
721.60 2.649113
721.70 2.64954
721.80 2.649967
721.90 2.650393
722.00 2.650819
722.10 2.651245
722.20 2.65167
722.30 2.652095
722.40 2.65252
722.50 2.652944
722.60 2.653368
722.70 2.653695
722.80 2.65397
722.90 2.654245
723.00 2.654519
723.10 2.654794
723.20 2.655068
723.30 2.655341
723.40 2.655615
723.50 2.655888
723.60 2.656161
723.70 2.656434
723.80 2.656706
723.90 2.656979
724.00 2.657251
724.10 2.657522
724.20 2.657876
724.30 2.658272
724.40 2.658669
724.50 2.659065
724.60 2.659461
724.70 2.659857
724.80 2.660252
724.90 2.660647
725.00 2.661041
725.10 2.661436
725.20 2.66183
725.30 2.662223
725.40 2.662617
725.50 2.66301
725.60 2.663402
725.70 2.663795
725.80 2.664138
725.90 2.664455
726.00 2.664771
726.10 2.665087
726.20 2.665403
726.30 2.665719
726.40 2.666034
726.50 2.666349
726.60 2.666664
726.70 2.666978
726.80 2.66726
726.90 2.667524
727.00 2.667788
727.10 2.668052
727.20 2.668315
727.30 2.668578
727.40 2.668922
727.50 2.669309
727.60 2.669696
727.70 2.670082
727.80 2.670711
727.90 2.67147
728.00 2.671258
728.10 2.672017
728.20 2.672215
728.30 2.672227
728.40 2.673282
728.50 2.673293
728.60 2.673546
728.70 2.67393
728.80 2.674313
728.90 2.674696
729.00 2.674997
729.10 2.675256
729.20 2.675514
729.30 2.675771
729.40 2.676029
729.50 2.676286
729.60 2.676575
729.70 2.676881
729.80 2.677187
729.90 2.677493
730.00 2.677798
730.10 2.678103
730.20 2.678408
730.30 2.678713
730.40 2.679017
730.50 2.679321
730.60 2.679673
730.70 2.680051
730.80 2.680428
730.90 2.680805
731.00 2.681182
731.10 2.681558
731.20 2.681934
731.30 2.68231
731.40 2.682685
731.50 2.68306
731.60 2.683435
731.70 2.68381
731.80 2.684184
731.90 2.684558
732.00 2.684931
732.10 2.685305
732.20 2.685662
732.30 2.68601
732.40 2.686358
732.50 2.686705
732.60 2.687052
732.70 2.687399
732.80 2.687746
732.90 2.688092
733.00 2.688439
733.10 2.688784
733.20 2.68913
733.30 2.689475
733.40 2.68982
733.50 2.690165
733.60 2.690509
733.70 2.690787
733.80 2.691028
733.90 2.69127
734.00 2.691511
734.10 2.691752
734.20 2.691993
734.30 2.692234
734.40 2.692474
734.50 2.692714
734.60 2.692954
734.70 2.693194
734.80 2.693433
734.90 2.693672
735.00 2.693911
735.10 2.69415
735.20 2.694389
735.30 2.694652
735.40 2.695198
735.50 2.695744
735.60 2.696289
735.70 2.69665
735.80 2.69691
735.90 2.69717
736.00 2.69743
736.10 2.69769
736.20 2.697949
736.30 2.698209
736.40 2.698468
736.50 2.698726
736.60 2.698985
736.70 2.699243
736.80 2.699501
736.90 2.699759
737.00 2.700017
737.10 2.700274
737.20 2.700531
737.30 2.700788
737.40 2.701045
737.50 2.701301
737.60 2.701557
737.70 2.701813
737.80 2.702069
737.90 2.702324
738.00 2.702579
738.10 2.702834
738.20 2.703117
738.30 2.703414
738.40 2.703711
738.50 2.704008
738.60 2.704304
738.70 2.704601
738.80 2.704897
738.90 2.705192
739.00 2.705488
739.10 2.705783
739.20 2.706078
739.30 2.706373
739.40 2.706667
739.50 2.706961
739.60 2.707255
739.70 2.707549
739.80 2.707843
739.90 2.708136
740.00 2.708429
740.10 2.708721
740.20 2.709014
740.30 2.709306
740.40 2.709598
740.50 2.709889
740.60 2.710181
740.70 2.710472
740.80 2.710763
740.90 2.711053
741.00 2.711344
741.10 2.711634
741.20 2.711924
741.30 2.712213
741.40 2.712502
741.50 2.712792
741.60 2.71308
741.70 2.713369
741.80 2.713657
741.90 2.713945
742.00 2.714233
742.10 2.714521
742.20 2.714808
742.30 2.715095
742.40 2.715382
742.50 2.715668
742.60 2.715955
742.70 2.716291
742.80 2.716667
742.90 2.717044
743.00 2.71742
743.10 2.717795
743.20 2.718171
743.30 2.718546
743.40 2.718921
743.50 2.719295
743.60 2.71967
743.70 2.72002
743.80 2.720272
743.90 2.720525
744.00 2.720777
744.10 2.721029
744.20 2.721281
744.30 2.721532
744.40 2.721784
744.50 2.722035
744.60 2.722286
744.70 2.722536
744.80 2.722787
744.90 2.723037
745.00 2.723287
745.10 2.723537
745.20 2.723786
745.30 2.724035
745.40 2.724284
745.50 2.724533
745.60 2.724782
745.70 2.72503
745.80 2.725278
745.90 2.725526
746.00 2.725774
746.10 2.726021
746.20 2.726268
746.30 2.726515
746.40 2.726762
746.50 2.727008
746.60 2.727255
746.70 2.727501
746.80 2.727746
746.90 2.727992
747.00 2.728237
747.10 2.728482
747.20 2.728727
747.30 2.728972
747.40 2.729216
747.50 2.72946
747.60 2.729704
747.70 2.729948
747.80 2.730192
747.90 2.730435
748.00 2.730678
748.10 2.730921
748.20 2.731163
748.30 2.731406
748.40 2.731648
748.50 2.73189
748.60 2.732131
748.70 2.732373
748.80 2.732614
748.90 2.732855
749.00 2.733096
749.10 2.733336
749.20 2.733577
749.30 2.733817
749.40 2.734057
749.50 2.734296
749.60 2.734536
749.70 2.734775
749.80 2.735014
749.90 2.735253
750.00 2.735491
750.10 2.735731
750.20 2.735977
750.30 2.736221
750.40 2.736466
750.50 2.73671
750.60 2.736954
750.70 2.737198
750.80 2.737442
750.90 2.737686
751.00 2.737929
751.10 2.738172
751.20 2.738415
751.30 2.738657
751.40 2.7389
751.50 2.739142
751.60 2.739384
751.70 2.739625
751.80 2.739867
751.90 2.740108
752.00 2.740349
752.10 2.74059
752.20 2.74083
752.30 2.74107
752.40 2.741311
752.50 2.74155
752.60 2.74179
752.70 2.742029
752.80 2.742269
752.90 2.742508
753.00 2.742746
753.10 2.742985
753.20 2.743223
753.30 2.743461
753.40 2.743699
753.50 2.743937
753.60 2.744174
753.70 2.744411
753.80 2.744648
753.90 2.744885
754.00 2.745121
754.10 2.745358
754.20 2.745594
754.30 2.74583
754.40 2.746065
754.50 2.746301
754.60 2.746536
754.70 2.746771
754.80 2.747006
754.90 2.74724
755.00 2.747474
755.10 2.747708
755.20 2.747942
755.30 2.748176
755.40 2.748409
755.50 2.748643
755.60 2.748876
755.70 2.749108
755.80 2.749341
755.90 2.749573
756.00 2.749805
756.10 2.750037
756.20 2.750269
756.30 2.7505
756.40 2.750732
756.50 2.750963
756.60 2.751193
756.70 2.751424
756.80 2.751654
756.90 2.751884
757.00 2.752114
757.10 2.752344
757.20 2.752573
757.30 2.752803
757.40 2.753032
757.50 2.753261
757.60 2.753487
757.70 2.753705
757.80 2.753924
757.90 2.754142
758.00 2.754361
758.10 2.754579
758.20 2.754796
758.30 2.755014
758.40 2.755231
758.50 2.755448
758.60 2.755665
758.70 2.755882
758.80 2.756098
758.90 2.756315
759.00 2.756531
759.10 2.756747
759.20 2.756962
759.30 2.757178
759.40 2.757393
759.50 2.757608
759.60 2.757823
759.70 2.758038
759.80 2.758252
759.90 2.758466
760.00 2.75868
760.10 2.758894
760.20 2.759108
760.30 2.759321
760.40 2.759534
760.50 2.759747
760.60 2.75996
760.70 2.760172
760.80 2.760385
760.90 2.760597
761.00 2.760809
761.10 2.76102
761.20 2.761232
761.30 2.761443
761.40 2.761654
761.50 2.761865
761.60 2.762076
761.70 2.762286
761.80 2.762497
761.90 2.762707
762.00 2.762916
762.10 2.763126
762.20 2.763336
762.30 2.763545
762.40 2.763754
762.50 2.763963
762.60 2.764171
762.70 2.76438
762.80 2.764588
762.90 2.764796
763.00 2.765004
763.10 2.765211
763.20 2.765419
763.30 2.765626
763.40 2.765833
763.50 2.76604
763.60 2.766246
763.70 2.766453
763.80 2.766659
763.90 2.766865
764.00 2.767071
764.10 2.767276
764.20 2.767482
764.30 2.767687
764.40 2.767892
764.50 2.768097
764.60 2.768301
764.70 2.768506
764.80 2.76871
764.90 2.768914
765.00 2.769117
765.10 2.769321
765.20 2.76951
765.30 2.769687
765.40 2.769863
765.50 2.770039
765.60 2.770214
765.70 2.77039
765.80 2.770565
765.90 2.770741
766.00 2.770916
766.10 2.77109
766.20 2.771265
766.30 2.771439
766.40 2.771614
766.50 2.771788
766.60 2.771962
766.70 2.772135
766.80 2.772309
766.90 2.772482
767.00 2.772655
767.10 2.772828
767.20 2.773001
767.30 2.773174
767.40 2.773346
767.50 2.773518
767.60 2.77369
767.70 2.773862
767.80 2.774034
767.90 2.774205
768.00 2.774377
768.10 2.774548
768.20 2.774719
768.30 2.77489
768.40 2.77506
768.50 2.775231
768.60 2.775401
768.70 2.775571
768.80 2.775741
768.90 2.77591
769.00 2.77608
769.10 2.776249
769.20 2.776418
769.30 2.776587
769.40 2.776756
769.50 2.776925
769.60 2.777093
769.70 2.777261
769.80 2.777429
769.90 2.777597
770.00 2.777765
770.10 2.777932
770.20 2.7781
770.30 2.778267
770.40 2.778434
770.50 2.7786
770.60 2.778767
770.70 2.778933
770.80 2.7791
770.90 2.779266
771.00 2.779431
771.10 2.779597
771.20 2.779763
771.30 2.779928
771.40 2.780093
771.50 2.780258
771.60 2.780423
771.70 2.780588
771.80 2.780752
771.90 2.780916
772.00 2.78108
772.10 2.781244
772.20 2.781408
772.30 2.781571
772.40 2.781735
772.50 2.781898
772.60 2.782061
772.70 2.782224
772.80 2.782387
772.90 2.782557
773.00 2.782728
773.10 2.782899
773.20 2.783069
773.30 2.783239
773.40 2.783409
773.50 2.783579
773.60 2.783749
773.70 2.783918
773.80 2.784088
773.90 2.784257
774.00 2.784426
774.10 2.784595
774.20 2.784763
774.30 2.784932
774.40 2.7851
774.50 2.785268
774.60 2.785436
774.70 2.785603
774.80 2.785771
774.90 2.785938
775.00 2.786105
775.10 2.786272
775.20 2.786439
775.30 2.786606
775.40 2.786772
775.50 2.786938
775.60 2.787104
775.70 2.78727
775.80 2.787436
775.90 2.787602
776.00 2.787767
776.10 2.787932
776.20 2.788097
776.30 2.788262
776.40 2.788427
776.50 2.788591
776.60 2.788755
776.70 2.788919
776.80 2.789083
776.90 2.789247
777.00 2.789411
777.10 2.789574
777.20 2.789737
777.30 2.7899
777.40 2.790063
777.50 2.790226
777.60 2.790389
777.70 2.790551
777.80 2.790713
777.90 2.790875
778.00 2.791037
778.10 2.791199
778.20 2.79136
778.30 2.791521
778.40 2.791683
778.50 2.791843
778.60 2.792004
778.70 2.792165
778.80 2.792325
778.90 2.792486
779.00 2.792646
779.10 2.792806
779.20 2.792965
779.30 2.793125
779.40 2.793284
779.50 2.793443
779.60 2.793602
779.70 2.793761
779.80 2.79392
779.90 2.794078
780.00 2.794237
780.10 2.794395
780.20 2.794553
780.30 2.794711
780.40 2.794868
780.50 2.795026
780.60 2.795156
780.70 2.795274
780.80 2.795393
780.90 2.795511
781.00 2.795629
781.10 2.795747
781.20 2.795865
781.30 2.795983
781.40 2.796101
781.50 2.796218
781.60 2.796336
781.70 2.796453
781.80 2.79657
781.90 2.796687
782.00 2.796803
782.10 2.79692
782.20 2.797036
782.30 2.797153
782.40 2.797269
782.50 2.797385
782.60 2.797501
782.70 2.797616
782.80 2.797732
782.90 2.797847
783.00 2.797962
783.10 2.798077
783.20 2.798192
783.30 2.798307
783.40 2.798422
783.50 2.798536
783.60 2.79865
783.70 2.798765
783.80 2.798879
783.90 2.798992
784.00 2.799106
784.10 2.79922
784.20 2.799333
784.30 2.799446
784.40 2.799559
784.50 2.799672
784.60 2.799793
784.70 2.799933
784.80 2.800073
784.90 2.800212
785.00 2.800352
785.10 2.800491
785.20 2.80063
785.30 2.800769
785.40 2.800907
785.50 2.801046
785.60 2.801184
785.70 2.801322
785.80 2.80146
785.90 2.801598
786.00 2.801736
786.10 2.801873
786.20 2.802011
786.30 2.802148
786.40 2.802285
786.50 2.802422
786.60 2.802559
786.70 2.802695
786.80 2.802832
786.90 2.802968
787.00 2.803104
787.10 2.80324
787.20 2.803376
787.30 2.803511
787.40 2.803647
787.50 2.803782
787.60 2.803917
787.70 2.804052
787.80 2.804187
787.90 2.804322
788.00 2.804456
788.10 2.80459
788.20 2.804725
788.30 2.804859
788.40 2.804967
788.50 2.805062
788.60 2.805157
788.70 2.805252
788.80 2.805347
788.90 2.805442
789.00 2.805537
789.10 2.805631
789.20 2.805726
789.30 2.80582
789.40 2.805914
789.50 2.806008
789.60 2.806102
789.70 2.806195
789.80 2.806289
789.90 2.806382
790.00 2.806476
790.10 2.806569
790.20 2.806662
790.30 2.806755
790.40 2.806847
790.50 2.80694
790.60 2.807032
790.70 2.807125
790.80 2.807217
790.90 2.807309
791.00 2.807401
791.10 2.807493
791.20 2.807584
791.30 2.807676
791.40 2.807767
791.50 2.807858
791.60 2.807949
791.70 2.80804
791.80 2.808131
791.90 2.808222
792.00 2.808312
792.10 2.808403
792.20 2.808493
792.30 2.808583
792.40 2.808673
792.50 2.808763
792.60 2.808853
792.70 2.808943
792.80 2.809033
792.90 2.809122
793.00 2.809212
793.10 2.809301
793.20 2.80939
793.30 2.809479
793.40 2.809568
793.50 2.809657
793.60 2.809745
793.70 2.809834
793.80 2.809922
793.90 2.81001
794.00 2.810098
794.10 2.810186
794.20 2.810274
794.30 2.810362
794.40 2.810449
794.50 2.810537
794.60 2.810624
794.70 2.810711
794.80 2.810798
794.90 2.810885
795.00 2.810972
795.10 2.811058
795.20 2.811145
795.30 2.811231
795.40 2.811317
795.50 2.811403
795.60 2.811489
795.70 2.811575
795.80 2.811661
795.90 2.811746
796.00 2.811832
796.10 2.811917
796.20 2.812002
796.30 2.81208
796.40 2.812157
796.50 2.812234
796.60 2.812311
796.70 2.812387
796.80 2.812464
796.90 2.81254
797.00 2.812616
797.10 2.812692
797.20 2.812768
797.30 2.812844
797.40 2.81292
797.50 2.812995
797.60 2.813071
797.70 2.813146
797.80 2.813221
797.90 2.813296
798.00 2.813371
798.10 2.813446
798.20 2.813521
798.30 2.813595
798.40 2.813669
798.50 2.813744
798.60 2.813818
798.70 2.813892
798.80 2.813966
798.90 2.81404
799.00 2.814113
799.10 2.814187
799.20 2.81426
799.30 2.814334
799.40 2.814407
799.50 2.81448
799.60 2.814553
799.70 2.814625
799.80 2.814698
799.90 2.814771
800.00 2.814843
800.10 2.814915
800.20 2.814987
800.30 2.815059
800.40 2.815131
800.50 2.815203
800.60 2.815275
800.70 2.815346
800.80 2.815418
800.90 2.815489
801.00 2.81556
801.10 2.815631
801.20 2.815702
801.30 2.815773
801.40 2.815844
801.50 2.815914
801.60 2.815985
801.70 2.816055
801.80 2.816125
801.90 2.816195
802.00 2.816265
802.10 2.816335
802.20 2.816405
802.30 2.816474
802.40 2.816544
802.50 2.816613
802.60 2.816682
802.70 2.816751
802.80 2.81682
802.90 2.816889
803.00 2.816958
803.10 2.817026
803.20 2.817095
803.30 2.817163
803.40 2.817232
803.50 2.8173
803.60 2.817368
803.70 2.817436
803.80 2.817503
803.90 2.817571
804.00 2.817638
804.10 2.817706
804.20 2.817771
804.30 2.817831
804.40 2.81789
804.50 2.81795
804.60 2.818009
804.70 2.818068
804.80 2.818127
804.90 2.818186
805.00 2.818244
805.10 2.818303
805.20 2.818361
805.30 2.81842
805.40 2.818478
805.50 2.818536
805.60 2.818594
805.70 2.818652
805.80 2.81871
805.90 2.818767
806.00 2.818825
806.10 2.818882
806.20 2.81894
806.30 2.818997
806.40 2.819054
806.50 2.819111
806.60 2.819168
806.70 2.819224
806.80 2.819281
806.90 2.819337
807.00 2.819394
807.10 2.81945
807.20 2.819506
807.30 2.819562
807.40 2.819618
807.50 2.819674
807.60 2.81973
807.70 2.819785
807.80 2.819841
807.90 2.819896
808.00 2.819951
808.10 2.820007
808.20 2.820062
808.30 2.820116
808.40 2.820171
808.50 2.820226
808.60 2.820281
808.70 2.820335
808.80 2.820389
808.90 2.820444
809.00 2.820498
809.10 2.820552
809.20 2.820606
809.30 2.820659
809.40 2.820713
809.50 2.820767
809.60 2.82082
809.70 2.820873
809.80 2.820927
809.90 2.82098
810.00 2.821033
810.10 2.821085
810.20 2.821138
810.30 2.821191
810.40 2.821243
810.50 2.821296
810.60 2.821348
810.70 2.8214
810.80 2.821452
810.90 2.821504
811.00 2.821556
811.10 2.821608
811.20 2.82166
811.30 2.821711
811.40 2.821763
811.50 2.821814
811.60 2.821865
811.70 2.821916
811.80 2.821967
811.90 2.822018
812.00 2.822069
812.10 2.82212
812.20 2.82217
812.30 2.822198
812.40 2.82222
812.50 2.822242
812.60 2.822264
812.70 2.822286
812.80 2.822308
812.90 2.82233
813.00 2.822352
813.10 2.822373
813.20 2.822395
813.30 2.822416
813.40 2.822437
813.50 2.822458
813.60 2.822479
813.70 2.8225
813.80 2.822521
813.90 2.822542
814.00 2.822563
814.10 2.822583
814.20 2.822604
814.30 2.822624
814.40 2.822645
814.50 2.822665
814.60 2.822685
814.70 2.822705
814.80 2.822725
814.90 2.822745
815.00 2.822765
815.10 2.822784
815.20 2.822804
815.30 2.822823
815.40 2.822843
815.50 2.822862
815.60 2.822881
815.70 2.8229
815.80 2.822919
815.90 2.822938
816.00 2.822957
816.10 2.822975
816.20 2.822994
816.30 2.823013
816.40 2.823031
816.50 2.823049
816.60 2.823068
816.70 2.823086
816.80 2.823104
816.90 2.823122
817.00 2.82314
817.10 2.823157
817.20 2.823175
817.30 2.823193
817.40 2.82321
817.50 2.823227
817.60 2.823245
817.70 2.823262
817.80 2.823279
817.90 2.823296
818.00 2.823313
818.10 2.82333
818.20 2.823347
818.30 2.823363
818.40 2.82338
818.50 2.823396
818.60 2.823413
818.70 2.823429
818.80 2.823445
818.90 2.823461
819.00 2.823477
819.10 2.823493
819.20 2.823509
819.30 2.823517
819.40 2.82352
819.50 2.823523
819.60 2.823526
819.70 2.823529
819.80 2.823531
819.90 2.823534
820.00 2.823536
820.10 2.823476
820.20 2.823241
820.30 2.823062
820.40 2.822991
820.50 2.823001
820.60 2.82301
820.70 2.823018
820.80 2.823027
820.90 2.823036
821.00 2.823045
821.10 2.823053
821.20 2.823062
821.30 2.82307
821.40 2.823078
821.50 2.823087
821.60 2.823095
821.70 2.823103
821.80 2.823111
821.90 2.823118
822.00 2.823126
822.10 2.823134
822.20 2.823142
822.30 2.823149
822.40 2.823156
822.50 2.823164
822.60 2.823171
822.70 2.823178
822.80 2.823185
822.90 2.823192
823.00 2.823199
823.10 2.823206
823.20 2.823213
823.30 2.823219
823.40 2.823226
823.50 2.823232
823.60 2.823239
823.70 2.823245
823.80 2.823251
823.90 2.823257
824.00 2.823263
824.10 2.823269
824.20 2.823275
824.30 2.823281
824.40 2.823287
824.50 2.823292
824.60 2.823298
824.70 2.823303
824.80 2.823309
824.90 2.823314
825.00 2.823319
825.10 2.823324
825.20 2.823329
825.30 2.823334
825.40 2.823339
825.50 2.823344
825.60 2.823348
825.70 2.823353
825.80 2.823357
825.90 2.823362
826.00 2.823366
826.10 2.82337
826.20 2.823374
826.30 2.823388
826.40 2.823408
826.50 2.823428
826.60 2.823447
826.70 2.823467
826.80 2.823486
826.90 2.823506
827.00 2.823525
827.10 2.823544
827.20 2.823563
827.30 2.823582
827.40 2.823601
827.50 2.82362
827.60 2.823639
827.70 2.823657
827.80 2.823676
827.90 2.823694
828.00 2.823713
828.10 2.823731
828.20 2.823749
828.30 2.823767
828.40 2.823785
828.50 2.823803
828.60 2.823796
828.70 2.823768
828.80 2.82374
828.90 2.823712
829.00 2.823683
829.10 2.823655
829.20 2.823627
829.30 2.823598
829.40 2.823569
829.50 2.823541
829.60 2.823512
829.70 2.823483
829.80 2.823454
829.90 2.823425
830.00 2.823396
830.10 2.823367
830.20 2.823338
830.30 2.823309
830.40 2.82328
830.50 2.82325
830.60 2.823221
830.70 2.823191
830.80 2.823162
830.90 2.823132
831.00 2.823103
831.10 2.823073
831.20 2.823043
831.30 2.823013
831.40 2.822983
831.50 2.822953
831.60 2.822923
831.70 2.822893
831.80 2.822863
831.90 2.822832
832.00 2.822802
832.10 2.822771
832.20 2.822741
832.30 2.82271
832.40 2.82268
832.50 2.822649
832.60 2.822618
832.70 2.822588
832.80 2.822557
832.90 2.822526
833.00 2.822495
833.10 2.822464
833.20 2.822432
833.30 2.822401
833.40 2.82237
833.50 2.822338
833.60 2.822307
833.70 2.822276
833.80 2.822244
833.90 2.822212
834.00 2.822181
834.10 2.822149
834.20 2.822117
834.30 2.822085
834.40 2.822053
834.50 2.822021
834.60 2.821989
834.70 2.821957
834.80 2.821925
834.90 2.821893
835.00 2.82186
835.10 2.821828
835.20 2.821795
835.30 2.821763
835.40 2.82173
835.50 2.821697
835.60 2.821665
835.70 2.821632
835.80 2.821599
835.90 2.821566
836.00 2.821533
836.10 2.8215
836.20 2.821467
836.30 2.821434
836.40 2.8214
836.50 2.821367
836.60 2.821334
836.70 2.8213
836.80 2.821267
836.90 2.821238
837.00 2.821212
837.10 2.821185
837.20 2.821158
837.30 2.821132
837.40 2.821105
837.50 2.821078
837.60 2.821051
837.70 2.821024
837.80 2.820997
837.90 2.82097
838.00 2.820943
838.10 2.820916
838.20 2.820888
838.30 2.820861
838.40 2.820833
838.50 2.820806
838.60 2.820778
838.70 2.820751
838.80 2.820723
838.90 2.820695
839.00 2.820667
839.10 2.820639
839.20 2.820611
839.30 2.820583
839.40 2.820555
839.50 2.820527
839.60 2.820499
839.70 2.82047
839.80 2.820442
839.90 2.820414
840.00 2.820385
840.10 2.820356
840.20 2.820328
840.30 2.820299
840.40 2.82027
840.50 2.820241
840.60 2.820212
840.70 2.820183
840.80 2.820154
840.90 2.820125
841.00 2.820096
841.10 2.820044
841.20 2.819988
841.30 2.819932
841.40 2.819875
841.50 2.819819
841.60 2.819763
841.70 2.819706
841.80 2.81965
841.90 2.819593
842.00 2.819537
842.10 2.81948
842.20 2.819423
842.30 2.819366
842.40 2.81931
842.50 2.819253
842.60 2.819196
842.70 2.819139
842.80 2.819082
842.90 2.819025
843.00 2.818968
843.10 2.818911
843.20 2.818853
843.30 2.818796
843.40 2.818739
843.50 2.818681
843.60 2.818624
843.70 2.818566
843.80 2.818509
843.90 2.818451
844.00 2.818394
844.10 2.818336
844.20 2.818278
844.30 2.81822
844.40 2.818163
844.50 2.818105
844.60 2.818047
844.70 2.817989
844.80 2.817931
844.90 2.817873
845.00 2.817814
845.10 2.817756
845.20 2.817698
845.30 2.817634
845.40 2.81757
845.50 2.817505
845.60 2.817441
845.70 2.817376
845.80 2.817312
845.90 2.817248
846.00 2.817183
846.10 2.817118
846.20 2.817054
846.30 2.816989
846.40 2.816924
846.50 2.81686
846.60 2.816795
846.70 2.81673
846.80 2.816665
846.90 2.8166
847.00 2.816535
847.10 2.81647
847.20 2.816405
847.30 2.816339
847.40 2.816274
847.50 2.816209
847.60 2.816144
847.70 2.816078
847.80 2.816013
847.90 2.815947
848.00 2.815882
848.10 2.815816
848.20 2.815751
848.30 2.815685
848.40 2.815619
848.50 2.815554
848.60 2.815488
848.70 2.815422
848.80 2.815356
848.90 2.81529
849.00 2.815224
849.10 2.815158
849.20 2.815092
849.30 2.815026
849.40 2.81496
849.50 2.814894
849.60 2.814827
849.70 2.814761
849.80 2.814695
849.90 2.814628
850.00 2.814562
850.10 2.814495
850.20 2.814429
850.30 2.814362
850.40 2.814296
850.50 2.814229
850.60 2.814162
850.70 2.814095
850.80 2.814029
850.90 2.813962
851.00 2.813895
851.10 2.813828
851.20 2.813761
851.30 2.813694
851.40 2.813627
851.50 2.81356
851.60 2.813492
851.70 2.813425
851.80 2.813358
851.90 2.813291
852.00 2.813223
852.10 2.813156
852.20 2.813088
852.30 2.813021
852.40 2.812953
852.50 2.812886
852.60 2.812818
852.70 2.81275
852.80 2.812683
852.90 2.812615
853.00 2.812547
853.10 2.812479
853.20 2.812411
853.30 2.812343
853.40 2.812275
853.50 2.812207
853.60 2.812139
853.70 2.812068
853.80 2.811994
853.90 2.81192
854.00 2.811846
854.10 2.811772
854.20 2.811698
854.30 2.811624
854.40 2.811549
854.50 2.811475
854.60 2.811401
854.70 2.811326
854.80 2.811252
854.90 2.811177
855.00 2.811103
855.10 2.811028
855.20 2.810954
855.30 2.810879
855.40 2.810804
855.50 2.81073
855.60 2.810655
855.70 2.81058
855.80 2.810505
855.90 2.81043
856.00 2.810355
856.10 2.81028
856.20 2.810205
856.30 2.81013
856.40 2.810055
856.50 2.80998
856.60 2.809905
856.70 2.80983
856.80 2.809755
856.90 2.809679
857.00 2.809604
857.10 2.809528
857.20 2.809453
857.30 2.809378
857.40 2.809302
857.50 2.809227
857.60 2.809151
857.70 2.809075
857.80 2.809
857.90 2.808924
858.00 2.808848
858.10 2.808772
858.20 2.808697
858.30 2.808621
858.40 2.808545
858.50 2.808469
858.60 2.808393
858.70 2.808317
858.80 2.808241
858.90 2.808165
859.00 2.808088
859.10 2.808012
859.20 2.807936
859.30 2.80786
859.40 2.807783
859.50 2.807707
859.60 2.807631
859.70 2.807554
859.80 2.807478
859.90 2.807401
860.00 2.807325
860.10 2.807248
860.20 2.807171
860.30 2.807095
860.40 2.807018
860.50 2.806941
860.60 2.806864
860.70 2.806787
860.80 2.806711
860.90 2.806634
861.00 2.806557
861.10 2.80648
861.20 2.806403
861.30 2.806325
861.40 2.806248
861.50 2.806171
861.60 2.806094
861.70 2.806017
861.80 2.805939
861.90 2.805862
862.00 2.805785
862.10 2.805707
862.20 2.805626
862.30 2.805518
862.40 2.80541
862.50 2.805303
862.60 2.805195
862.70 2.805087
862.80 2.804979
862.90 2.804871
863.00 2.804763
863.10 2.804654
863.20 2.804546
863.30 2.804438
863.40 2.80433
863.50 2.804222
863.60 2.804114
863.70 2.804005
863.80 2.803897
863.90 2.803789
864.00 2.803681
864.10 2.803572
864.20 2.803464
864.30 2.803356
864.40 2.803247
864.50 2.803139
864.60 2.80303
864.70 2.802922
864.80 2.802813
864.90 2.802705
865.00 2.802596
865.10 2.802488
865.20 2.802379
865.30 2.80227
865.40 2.802162
865.50 2.802053
865.60 2.801944
865.70 2.801836
865.80 2.801727
865.90 2.801618
866.00 2.801509
866.10 2.8014
866.20 2.801292
866.30 2.801183
866.40 2.801074
866.50 2.800965
866.60 2.800856
866.70 2.800747
866.80 2.800638
866.90 2.800529
867.00 2.80042
867.10 2.800311
867.20 2.800202
867.30 2.800093
867.40 2.799984
867.50 2.799874
867.60 2.799765
867.70 2.799656
867.80 2.799547
867.90 2.799438
868.00 2.799328
868.10 2.799219
868.20 2.79911
868.30 2.799
868.40 2.798891
868.50 2.798781
868.60 2.798672
868.70 2.798563
868.80 2.798453
868.90 2.798344
869.00 2.798234
869.10 2.798125
869.20 2.798015
869.30 2.797905
869.40 2.797796
869.50 2.797686
869.60 2.797576
869.70 2.797467
869.80 2.797357
869.90 2.797247
870.00 2.797138
870.10 2.797028
870.20 2.796918
870.30 2.796808
870.40 2.796698
870.50 2.796588
870.60 2.796479
870.70 2.796369
870.80 2.796259
870.90 2.796144
871.00 2.796029
871.10 2.795913
871.20 2.795798
871.30 2.795683
871.40 2.795568
871.50 2.795452
871.60 2.795337
871.70 2.795221
871.80 2.795106
871.90 2.794991
872.00 2.794875
872.10 2.79476
872.20 2.794644
872.30 2.794529
872.40 2.794413
872.50 2.794298
872.60 2.794182
872.70 2.794066
872.80 2.793951
872.90 2.793835
873.00 2.79372
873.10 2.793604
873.20 2.793488
873.30 2.793372
873.40 2.793257
873.50 2.793141
873.60 2.793025
873.70 2.792909
873.80 2.792794
873.90 2.792678
874.00 2.792562
874.10 2.792446
874.20 2.79233
874.30 2.792214
874.40 2.792098
874.50 2.791982
874.60 2.791866
874.70 2.79175
874.80 2.791634
874.90 2.791518
875.00 2.791402
875.10 2.791286
875.20 2.79117
875.30 2.791054
875.40 2.790938
875.50 2.790822
875.60 2.790705
875.70 2.790589
875.80 2.790473
875.90 2.790357
876.00 2.790241
876.10 2.790124
876.20 2.790008
876.30 2.789892
876.40 2.789775
876.50 2.789659
876.60 2.789543
876.70 2.789426
876.80 2.78931
876.90 2.789193
877.00 2.789077
877.10 2.78896
877.20 2.788844
877.30 2.788727
877.40 2.788611
877.50 2.788494
877.60 2.788378
877.70 2.788261
877.80 2.788145
877.90 2.788028
878.00 2.787911
878.10 2.787795
878.20 2.787678
878.30 2.787561
878.40 2.787445
878.50 2.787328
878.60 2.787211
878.70 2.787094
878.80 2.786978
878.90 2.786861
879.00 2.786744
879.10 2.786627
879.20 2.78651
879.30 2.786393
879.40 2.786276
879.50 2.786159
879.60 2.786019
879.70 2.785874
879.80 2.785728
879.90 2.785583
880.00 2.785438
880.10 2.785292
880.20 2.785147
880.30 2.785001
880.40 2.784856
880.50 2.784711
880.60 2.784565
880.70 2.78442
880.80 2.784274
880.90 2.784129
881.00 2.783984
881.10 2.783838
881.20 2.783693
881.30 2.783547
881.40 2.783402
881.50 2.783256
881.60 2.783111
881.70 2.782965
881.80 2.78282
881.90 2.782674
882.00 2.782529
882.10 2.782383
882.20 2.782238
882.30 2.782092
882.40 2.781947
882.50 2.781801
882.60 2.781656
882.70 2.78151
882.80 2.781365
882.90 2.781219
883.00 2.781074
883.10 2.780928
883.20 2.780782
883.30 2.780637
883.40 2.780491
883.50 2.780346
883.60 2.7802
883.70 2.780055
883.80 2.779909
883.90 2.779763
884.00 2.779618
884.10 2.779472
884.20 2.779327
884.30 2.779181
884.40 2.779036
884.50 2.77889
884.60 2.778745
884.70 2.778599
884.80 2.778454
884.90 2.778308
885.00 2.778163
885.10 2.778017
885.20 2.777871
885.30 2.777726
885.40 2.77758
885.50 2.777435
885.60 2.777289
885.70 2.777144
885.80 2.776998
885.90 2.776852
886.00 2.776707
886.10 2.776561
886.20 2.776416
886.30 2.77627
886.40 2.776124
886.50 2.775979
886.60 2.775833
886.70 2.775687
886.80 2.775542
886.90 2.775396
887.00 2.775251
887.10 2.775105
887.20 2.774959
887.30 2.774814
887.40 2.774668
887.50 2.774522
887.60 2.774377
887.70 2.774231
887.80 2.774085
887.90 2.773939
888.00 2.773794
888.10 2.773648
888.20 2.773502
888.30 2.773357
888.40 2.773207
888.50 2.773056
888.60 2.772906
888.70 2.772755
888.80 2.772605
888.90 2.772454
889.00 2.772304
889.10 2.772153
889.20 2.772003
889.30 2.771852
889.40 2.771702
889.50 2.771551
889.60 2.7714
889.70 2.77125
889.80 2.771099
889.90 2.770949
890.00 2.770798
890.10 2.770648
890.20 2.770497
890.30 2.770347
890.40 2.770196
890.50 2.770046
890.60 2.769895
890.70 2.769744
890.80 2.769594
890.90 2.769443
891.00 2.769293
891.10 2.769142
891.20 2.768992
891.30 2.768841
891.40 2.76869
891.50 2.76854
891.60 2.768389
891.70 2.768239
891.80 2.768088
891.90 2.767937
892.00 2.767787
892.10 2.767636
892.20 2.767486
892.30 2.767335
892.40 2.767184
892.50 2.767034
892.60 2.766883
892.70 2.766733
892.80 2.766582
892.90 2.766431
893.00 2.766281
893.10 2.76613
893.20 2.76598
893.30 2.765829
893.40 2.765678
893.50 2.765528
893.60 2.765377
893.70 2.765226
893.80 2.765076
893.90 2.764925
894.00 2.764775
894.10 2.764624
894.20 2.764473
894.30 2.764323
894.40 2.764172
894.50 2.764021
894.60 2.763871
894.70 2.76372
894.80 2.763569
894.90 2.763419
895.00 2.763268
895.10 2.763118
895.20 2.762967
895.30 2.762816
895.40 2.762666
895.50 2.762515
895.60 2.762364
895.70 2.762214
895.80 2.762063
895.90 2.761912
896.00 2.761762
896.10 2.761611
896.20 2.76146
896.30 2.76131
896.40 2.761159
896.50 2.761008
896.60 2.760858
896.70 2.760707
896.80 2.760556
896.90 2.760406
897.00 2.760255
897.10 2.760104
897.20 2.759952
897.30 2.759775
897.40 2.759598
897.50 2.759421
897.60 2.759244
897.70 2.759067
897.80 2.75889
897.90 2.758712
898.00 2.758535
898.10 2.758358
898.20 2.758181
898.30 2.758004
898.40 2.757827
898.50 2.75765
898.60 2.757473
898.70 2.757296
898.80 2.757119
898.90 2.756942
899.00 2.756765
899.10 2.756588
899.20 2.756411
899.30 2.756234
899.40 2.756057
899.50 2.75588
899.60 2.755703
899.70 2.755526
899.80 2.755349
899.90 2.755172
900.00 2.754995
900.10 2.754818
900.20 2.754641
900.30 2.754465
900.40 2.754288
900.50 2.754111
900.60 2.753934
900.70 2.753757
900.80 2.75358
900.90 2.753404
901.00 2.753227
901.10 2.75305
901.20 2.752873
901.30 2.752696
901.40 2.75252
901.50 2.752343
901.60 2.752166
901.70 2.751989
901.80 2.751813
901.90 2.751636
902.00 2.751459
902.10 2.751283
902.20 2.751106
902.30 2.750929
902.40 2.750753
902.50 2.750576
902.60 2.750399
902.70 2.750223
902.80 2.750046
902.90 2.74987
903.00 2.749693
903.10 2.749516
903.20 2.74934
903.30 2.749163
903.40 2.748987
903.50 2.74881
903.60 2.748634
903.70 2.748457
903.80 2.748281
903.90 2.748104
904.00 2.747928
904.10 2.747751
904.20 2.747575
904.30 2.747398
904.40 2.747222
904.50 2.747046
904.60 2.746869
904.70 2.746693
904.80 2.746516
904.90 2.74634
905.00 2.746164
905.10 2.745987
905.20 2.745811
905.30 2.745635
905.40 2.745458
905.50 2.745282
905.60 2.745106
905.70 2.744929
905.80 2.744753
905.90 2.744577
906.00 2.744401
906.10 2.744224
906.20 2.744047
906.30 2.743866
906.40 2.743686
906.50 2.743505
906.60 2.743325
906.70 2.743144
906.80 2.742964
906.90 2.742784
907.00 2.742603
907.10 2.742423
907.20 2.742242
907.30 2.742062
907.40 2.741882
907.50 2.741701
907.60 2.741521
907.70 2.741341
907.80 2.74116
907.90 2.74098
908.00 2.7408
908.10 2.74062
908.20 2.740439
908.30 2.740259
908.40 2.740079
908.50 2.739899
908.60 2.739719
908.70 2.739538
908.80 2.739358
908.90 2.739178
909.00 2.738998
909.10 2.738818
909.20 2.738638
909.30 2.738458
909.40 2.738278
909.50 2.738097
909.60 2.737917
909.70 2.737737
909.80 2.737557
909.90 2.737377
910.00 2.737197
910.10 2.737017
910.20 2.736837
910.30 2.736657
910.40 2.736477
910.50 2.736297
910.60 2.736117
910.70 2.735938
910.80 2.735758
910.90 2.735578
911.00 2.735398
911.10 2.735218
911.20 2.735038
911.30 2.734858
911.40 2.734678
911.50 2.734499
911.60 2.734319
911.70 2.734139
911.80 2.733959
911.90 2.73378
912.00 2.7336
912.10 2.73342
912.20 2.73324
912.30 2.733061
912.40 2.732881
912.50 2.732701
912.60 2.732522
912.70 2.732342
912.80 2.732162
912.90 2.731983
913.00 2.731803
913.10 2.731623
913.20 2.731444
913.30 2.731264
913.40 2.731085
913.50 2.730905
913.60 2.730726
913.70 2.730546
913.80 2.730367
913.90 2.730187
914.00 2.730008
914.10 2.729828
914.20 2.729649
914.30 2.729469
914.40 2.72929
914.50 2.72911
914.60 2.728931
914.70 2.728752
914.80 2.728572
914.90 2.728393
915.00 2.728213
915.10 2.728034
915.20 2.727855
915.30 2.727658
915.40 2.727454
915.50 2.72725
915.60 2.727046
915.70 2.726842
915.80 2.726638
915.90 2.726434
916.00 2.726231
916.10 2.726027
916.20 2.725823
916.30 2.725619
916.40 2.725415
916.50 2.725212
916.60 2.725008
916.70 2.724804
916.80 2.7246
916.90 2.724397
917.00 2.724193
917.10 2.723989
917.20 2.723786
917.30 2.723582
917.40 2.723379
917.50 2.723175
917.60 2.722972
917.70 2.722768
917.80 2.722565
917.90 2.722361
918.00 2.722158
918.10 2.721955
918.20 2.721751
918.30 2.721548
918.40 2.721345
918.50 2.721141
918.60 2.720938
918.70 2.720735
918.80 2.720532
918.90 2.720329
919.00 2.720125
919.10 2.719922
919.20 2.719719
919.30 2.719516
919.40 2.719313
919.50 2.71911
919.60 2.718907
919.70 2.718704
919.80 2.718501
919.90 2.718317
920.00 2.718135
920.10 2.717952
920.20 2.71777
920.30 2.717587
920.40 2.717405
920.50 2.717223
920.60 2.71704
920.70 2.716858
920.80 2.716675
920.90 2.716493
921.00 2.716311
921.10 2.716128
921.20 2.715946
921.30 2.715764
921.40 2.715581
921.50 2.715399
921.60 2.715217
921.70 2.715035
921.80 2.714852
921.90 2.71467
922.00 2.714488
922.10 2.714306
922.20 2.714124
922.30 2.713942
922.40 2.713759
922.50 2.713577
922.60 2.713395
922.70 2.713213
922.80 2.713031
922.90 2.712849
923.00 2.712667
923.10 2.712485
923.20 2.712303
923.30 2.712121
923.40 2.711939
923.50 2.711757
923.60 2.711575
923.70 2.711393
923.80 2.711211
923.90 2.711029
924.00 2.710847
924.10 2.710665
924.20 2.710484
924.30 2.710302
924.40 2.710112
924.50 2.709886
924.60 2.70966
924.70 2.709434
924.80 2.709209
924.90 2.708983
925.00 2.708757
925.10 2.708532
925.20 2.708306
925.30 2.70808
925.40 2.707855
925.50 2.707629
925.60 2.707404
925.70 2.707178
925.80 2.706953
925.90 2.706727
926.00 2.706502
926.10 2.706277
926.20 2.706051
926.30 2.705826
926.40 2.705601
926.50 2.705376
926.60 2.705151
926.70 2.704925
926.80 2.7047
926.90 2.704475
927.00 2.70425
927.10 2.704025
927.20 2.7038
927.30 2.703575
927.40 2.70335
927.50 2.703126
927.60 2.702901
927.70 2.702676
927.80 2.702451
927.90 2.702227
928.00 2.702002
928.10 2.701777
928.20 2.701553
928.30 2.701328
928.40 2.701103
928.50 2.700879
928.60 2.700654
928.70 2.70043
928.80 2.700206
928.90 2.699981
929.00 2.699757
929.10 2.699552
929.20 2.699347
929.30 2.699143
929.40 2.698938
929.50 2.698734
929.60 2.69853
929.70 2.698325
929.80 2.698121
929.90 2.697917
930.00 2.697712
930.10 2.697508
930.20 2.697304
930.30 2.6971
930.40 2.696896
930.50 2.696691
930.60 2.696487
930.70 2.696283
930.80 2.696079
930.90 2.695875
931.00 2.695671
931.10 2.695467
931.20 2.695263
931.30 2.695059
931.40 2.694855
931.50 2.694652
931.60 2.694448
931.70 2.694244
931.80 2.69404
931.90 2.693836
932.00 2.693633
932.10 2.693429
932.20 2.693225
932.30 2.693021
932.40 2.692818
932.50 2.692614
932.60 2.692411
932.70 2.692207
932.80 2.692004
932.90 2.6918
933.00 2.691597
933.10 2.691393
933.20 2.69119
933.30 2.690986
933.40 2.690783
933.50 2.690579
933.60 2.690376
933.70 2.690156
933.80 2.689929
933.90 2.689703
934.00 2.689477
934.10 2.68925
934.20 2.689024
934.30 2.688798
934.40 2.688572
934.50 2.688346
934.60 2.688119
934.70 2.687893
934.80 2.687667
934.90 2.687441
935.00 2.687215
935.10 2.686989
935.20 2.686763
935.30 2.686538
935.40 2.686312
935.50 2.686086
935.60 2.68586
935.70 2.685635
935.80 2.685409
935.90 2.685183
936.00 2.684958
936.10 2.684732
936.20 2.684506
936.30 2.684281
936.40 2.684055
936.50 2.68383
936.60 2.683605
936.70 2.683379
936.80 2.683154
936.90 2.682929
937.00 2.682703
937.10 2.682478
937.20 2.682253
937.30 2.682028
937.40 2.681803
937.50 2.681578
937.60 2.681352
937.70 2.681127
937.80 2.680902
937.90 2.680678
938.00 2.680453
938.10 2.680228
938.20 2.680003
938.30 2.679778
938.40 2.679553
938.50 2.679329
938.60 2.679104
938.70 2.678879
938.80 2.678655
938.90 2.67843
939.00 2.678205
939.10 2.677981
939.20 2.677756
939.30 2.677532
939.40 2.677307
939.50 2.677083
939.60 2.676859
939.70 2.676634
939.80 2.67641
939.90 2.676186
940.00 2.675962
940.10 2.675737
940.20 2.675513
940.30 2.675289
940.40 2.675065
940.50 2.674841
940.60 2.674617
940.70 2.674393
940.80 2.674169
940.90 2.673945
941.00 2.673721
941.10 2.673498
941.20 2.673274
941.30 2.67305
941.40 2.672826
941.50 2.672603
941.60 2.672379
941.70 2.672155
941.80 2.671932
941.90 2.671708
942.00 2.671485
942.10 2.671261
942.20 2.671038
942.30 2.670814
942.40 2.670591
942.50 2.670367
942.60 2.670144
942.70 2.669921
942.80 2.669698
942.90 2.669474
943.00 2.669246
943.10 2.66901
943.20 2.668774
943.30 2.668539
943.40 2.668303
943.50 2.668067
943.60 2.667831
943.70 2.667595
943.80 2.66736
943.90 2.667124
944.00 2.666888
944.10 2.666653
944.20 2.666417
944.30 2.666182
944.40 2.665946
944.50 2.665711
944.60 2.665475
944.70 2.66524
944.80 2.665005
944.90 2.664769
945.00 2.664534
945.10 2.664299
945.20 2.664064
945.30 2.663829
945.40 2.663594
945.50 2.663359
945.60 2.663124
945.70 2.662889
945.80 2.662654
945.90 2.662419
946.00 2.662184
946.10 2.661949
946.20 2.661715
946.30 2.66148
946.40 2.661245
946.50 2.661011
946.60 2.660776
946.70 2.660541
946.80 2.660307
946.90 2.660072
947.00 2.659838
947.10 2.659604
947.20 2.659369
947.30 2.659135
947.40 2.658901
947.50 2.658666
947.60 2.658432
947.70 2.658198
947.80 2.657964
947.90 2.65773
948.00 2.657496
948.10 2.657262
948.20 2.657028
948.30 2.656794
948.40 2.65656
948.50 2.656326
948.60 2.656092
948.70 2.655859
948.80 2.655625
948.90 2.655391
949.00 2.655158
949.10 2.654924
949.20 2.65469
949.30 2.654457
949.40 2.654223
949.50 2.65399
949.60 2.653757
949.70 2.653523
949.80 2.65329
949.90 2.653057
950.00 2.652823
950.10 2.65259
950.20 2.652357
950.30 2.652124
950.40 2.651891
950.50 2.651658
950.60 2.651425
950.70 2.651192
950.80 2.650959
950.90 2.650726
951.00 2.650493
951.10 2.65026
951.20 2.650028
951.30 2.649795
951.40 2.649562
951.50 2.649329
951.60 2.649097
951.70 2.648864
951.80 2.648632
951.90 2.648399
952.00 2.648167
952.10 2.647934
952.20 2.647702
952.30 2.64747
952.40 2.647236
952.50 2.646992
952.60 2.646747
952.70 2.646503
952.80 2.646258
952.90 2.646014
953.00 2.645769
953.10 2.645525
953.20 2.645281
953.30 2.645036
953.40 2.644792
953.50 2.644548
953.60 2.644304
953.70 2.64406
953.80 2.643816
953.90 2.643572
954.00 2.643328
954.10 2.643084
954.20 2.64284
954.30 2.642596
954.40 2.642353
954.50 2.642109
954.60 2.641865
954.70 2.641622
954.80 2.641378
954.90 2.641134
955.00 2.640891
955.10 2.640647
955.20 2.640404
955.30 2.640161
955.40 2.639917
955.50 2.639674
955.60 2.639431
955.70 2.639188
955.80 2.638944
955.90 2.638701
956.00 2.638458
956.10 2.638215
956.20 2.637972
956.30 2.637729
956.40 2.637486
956.50 2.637244
956.60 2.637001
956.70 2.636758
956.80 2.636515
956.90 2.636273
957.00 2.63603
957.10 2.635787
957.20 2.635545
957.30 2.635302
957.40 2.63506
957.50 2.634818
957.60 2.634575
957.70 2.634333
957.80 2.634091
957.90 2.633848
958.00 2.633606
958.10 2.633364
958.20 2.633122
958.30 2.63288
958.40 2.632638
958.50 2.632396
958.60 2.632154
958.70 2.631912
958.80 2.63167
958.90 2.631428
959.00 2.631187
959.10 2.630945
959.20 2.630703
959.30 2.630462
959.40 2.63022
959.50 2.629979
959.60 2.629737
959.70 2.629496
959.80 2.629254
959.90 2.629013
960.00 2.628772
960.10 2.62853
960.20 2.628289
960.30 2.628048
960.40 2.627807
960.50 2.627566
960.60 2.627325
960.70 2.627084
960.80 2.626843
960.90 2.626602
961.00 2.626361
961.10 2.62612
961.20 2.625879
961.30 2.625638
961.40 2.625398
961.50 2.625157
961.60 2.624916
961.70 2.624676
961.80 2.624435
961.90 2.624195
962.00 2.623944
962.10 2.623692
962.20 2.62344
962.30 2.623188
962.40 2.622936
962.50 2.622683
962.60 2.622431
962.70 2.622179
962.80 2.621927
962.90 2.621675
963.00 2.621424
963.10 2.621172
963.20 2.62092
963.30 2.620668
963.40 2.620417
963.50 2.620165
963.60 2.619913
963.70 2.619662
963.80 2.61941
963.90 2.619159
964.00 2.618908
964.10 2.618656
964.20 2.618405
964.30 2.618154
964.40 2.617903
964.50 2.617651
964.60 2.6174
964.70 2.617149
964.80 2.616898
964.90 2.616647
965.00 2.616396
965.10 2.616146
965.20 2.615895
965.30 2.615644
965.40 2.615393
965.50 2.615143
965.60 2.614892
965.70 2.614641
965.80 2.614391
965.90 2.61414
966.00 2.61389
966.10 2.61364
966.20 2.613389
966.30 2.613139
966.40 2.612889
966.50 2.612639
966.60 2.612388
966.70 2.612138
966.80 2.611888
966.90 2.611638
967.00 2.611388
967.10 2.611138
967.20 2.610889
967.30 2.610639
967.40 2.610389
967.50 2.610139
967.60 2.60989
967.70 2.60964
967.80 2.60939
967.90 2.609141
968.00 2.608891
968.10 2.608642
968.20 2.608393
968.30 2.608143
968.40 2.607894
968.50 2.607645
968.60 2.607396
968.70 2.607146
968.80 2.606897
968.90 2.606648
969.00 2.606399
969.10 2.60615
969.20 2.605901
969.30 2.605653
969.40 2.605404
969.50 2.605155
969.60 2.604906
969.70 2.604658
969.80 2.604409
969.90 2.60416
970.00 2.603912
970.10 2.603663
970.20 2.603415
970.30 2.603166
970.40 2.602918
970.50 2.60267
970.60 2.602422
970.70 2.602173
970.80 2.601925
970.90 2.601677
971.00 2.601429
971.10 2.601181
971.20 2.600933
971.30 2.600685
971.40 2.600437
971.50 2.600189
971.60 2.599934
971.70 2.599675
971.80 2.599416
971.90 2.599157
972.00 2.598898
972.10 2.598639
972.20 2.59838
972.30 2.598121
972.40 2.597862
972.50 2.597603
972.60 2.597345
972.70 2.597086
972.80 2.596827
972.90 2.596569
973.00 2.59631
973.10 2.596052
973.20 2.595793
973.30 2.595535
973.40 2.595277
973.50 2.595018
973.60 2.59476
973.70 2.594502
973.80 2.594244
973.90 2.593986
974.00 2.593728
974.10 2.59347
974.20 2.593212
974.30 2.592954
974.40 2.592696
974.50 2.592439
974.60 2.592181
974.70 2.591923
974.80 2.591666
974.90 2.591408
975.00 2.591151
975.10 2.590893
975.20 2.590636
975.30 2.590378
975.40 2.590121
975.50 2.589864
975.60 2.589607
975.70 2.58935
975.80 2.589092
975.90 2.588835
976.00 2.588578
976.10 2.588321
976.20 2.588065
976.30 2.587808
976.40 2.587551
976.50 2.587294
976.60 2.587038
976.70 2.586781
976.80 2.586524
976.90 2.586268
977.00 2.586011
977.10 2.585755
977.20 2.585499
977.30 2.585242
977.40 2.584986
977.50 2.58473
977.60 2.584474
977.70 2.584217
977.80 2.583961
977.90 2.583705
978.00 2.583449
978.10 2.583193
978.20 2.582938
978.30 2.582682
978.40 2.582426
978.50 2.58217
978.60 2.581915
978.70 2.581659
978.80 2.581403
978.90 2.581148
979.00 2.580892
979.10 2.580637
979.20 2.580382
979.30 2.580126
979.40 2.579871
979.50 2.579616
979.60 2.579361
979.70 2.579106
979.80 2.578851
979.90 2.578595
980.00 2.578341
980.10 2.578086
980.20 2.577831
980.30 2.577576
980.40 2.577321
980.50 2.577066
980.60 2.576812
980.70 2.576557
980.80 2.576303
980.90 2.576048
981.00 2.575794
981.10 2.575539
981.20 2.575285
981.30 2.575021
981.40 2.574747
981.50 2.574474
981.60 2.5742
981.70 2.573926
981.80 2.573653
981.90 2.57338
982.00 2.573106
982.10 2.572833
982.20 2.57256
982.30 2.572287
982.40 2.572013
982.50 2.57174
982.60 2.571467
982.70 2.571194
982.80 2.570922
982.90 2.570649
983.00 2.570376
983.10 2.570103
983.20 2.569831
983.30 2.569558
983.40 2.569286
983.50 2.569013
983.60 2.568741
983.70 2.568468
983.80 2.568196
983.90 2.567924
984.00 2.567652
984.10 2.567379
984.20 2.567107
984.30 2.566835
984.40 2.566563
984.50 2.566291
984.60 2.56602
984.70 2.565748
984.80 2.565476
984.90 2.565204
985.00 2.564933
985.10 2.564661
985.20 2.56439
985.30 2.564118
985.40 2.563847
985.50 2.563576
985.60 2.563304
985.70 2.563033
985.80 2.562762
985.90 2.562491
986.00 2.56222
986.10 2.561949
986.20 2.561678
986.30 2.561407
986.40 2.561136
986.50 2.560866
986.60 2.560595
986.70 2.560324
986.80 2.560054
986.90 2.559783
987.00 2.559513
987.10 2.559242
987.20 2.558972
987.30 2.558702
987.40 2.558431
987.50 2.558161
987.60 2.557891
987.70 2.557621
987.80 2.557351
987.90 2.557081
988.00 2.556811
988.10 2.556541
988.20 2.556271
988.30 2.556002
988.40 2.555732
988.50 2.555462
988.60 2.555193
988.70 2.554923
988.80 2.554654
988.90 2.554385
989.00 2.554115
989.10 2.553846
989.20 2.553577
989.30 2.553308
989.40 2.553038
989.50 2.552769
989.60 2.5525
989.70 2.552231
989.80 2.551963
989.90 2.551694
990.00 2.551425
990.10 2.551156
990.20 2.550888
990.30 2.550619
990.40 2.550351
990.50 2.550082
990.60 2.549814
990.70 2.549545
990.80 2.549277
990.90 2.549009
991.00 2.54874
991.10 2.548471
991.20 2.548201
991.30 2.54793
991.40 2.54766
991.50 2.54739
991.60 2.54712
991.70 2.546849
991.80 2.546579
991.90 2.546309
992.00 2.546039
992.10 2.545769
992.20 2.545499
992.30 2.545229
992.40 2.544959
992.50 2.54469
992.60 2.54442
992.70 2.54415
992.80 2.543881
992.90 2.543611
993.00 2.543342
993.10 2.543072
993.20 2.542803
993.30 2.542534
993.40 2.542264
993.50 2.541995
993.60 2.541726
993.70 2.541457
993.80 2.541188
993.90 2.540919
994.00 2.54065
994.10 2.540381
994.20 2.540113
994.30 2.539844
994.40 2.539575
994.50 2.539307
994.60 2.539038
994.70 2.53877
994.80 2.538501
994.90 2.538233
995.00 2.537964
995.10 2.537696
995.20 2.537428
995.30 2.53716
995.40 2.536892
995.50 2.536624
995.60 2.536356
995.70 2.536088
995.80 2.53582
995.90 2.535552
996.00 2.535284
996.10 2.535003
996.20 2.534719
996.30 2.534436
996.40 2.534152
996.50 2.533868
996.60 2.533585
996.70 2.533301
996.80 2.533018
996.90 2.532735
997.00 2.532451
997.10 2.532168
997.20 2.531885
997.30 2.531602
997.40 2.531319
997.50 2.531036
997.60 2.530753
997.70 2.53047
997.80 2.530187
997.90 2.529905
998.00 2.529622
998.10 2.529339
998.20 2.529057
998.30 2.528774
998.40 2.528492
998.50 2.52821
998.60 2.527927
998.70 2.527645
998.80 2.527363
998.90 2.527081
999.00 2.526799
999.10 2.526517
999.20 2.526235
999.30 2.525953
999.40 2.525671
999.50 2.52539
999.60 2.525108
999.70 2.524827
999.80 2.524545
999.90 2.524264
1000.00 2.523982
1000.10 2.523701
1000.20 2.523419
1000.30 2.523138
1000.40 2.522857
1000.50 2.522576
1000.60 2.522295
1000.70 2.522014
1000.80 2.521733
1000.90 2.521452
1001.00 2.521171
1001.10 2.520888
1001.20 2.520605
1001.30 2.520322
1001.40 2.52004
1001.50 2.519757
1001.60 2.519474
1001.70 2.519192
1001.80 2.518909
1001.90 2.518627
1002.00 2.518345
1002.10 2.518062
1002.20 2.51778
1002.30 2.517498
1002.40 2.517216
1002.50 2.516934
1002.60 2.516652
1002.70 2.51637
1002.80 2.516088
1002.90 2.515806
1003.00 2.515525
1003.10 2.515243
1003.20 2.514961
1003.30 2.51468
1003.40 2.514398
1003.50 2.514117
1003.60 2.513836
1003.70 2.513554
1003.80 2.513273
1003.90 2.512992
1004.00 2.512711
1004.10 2.51243
1004.20 2.512149
1004.30 2.511868
1004.40 2.511587
1004.50 2.511306
1004.60 2.511026
1004.70 2.510745
1004.80 2.510464
1004.90 2.510184
1005.00 2.509903
1005.10 2.509623
1005.20 2.509343
1005.30 2.509062
1005.40 2.508782
1005.50 2.508502
1005.60 2.508222
1005.70 2.507942
1005.80 2.507662
1005.90 2.507382
1006.00 2.507102
1006.10 2.506822
1006.20 2.506542
1006.30 2.506263
1006.40 2.505983
1006.50 2.505704
1006.60 2.505424
1006.70 2.505145
1006.80 2.504866
1006.90 2.504586
1007.00 2.504307
1007.10 2.504028
1007.20 2.503749
1007.30 2.50347
1007.40 2.503191
1007.50 2.502912
1007.60 2.502633
1007.70 2.502354
1007.80 2.502076
1007.90 2.501797
1008.00 2.501519
1008.10 2.50124
1008.20 2.500962
1008.30 2.500683
1008.40 2.500405
1008.50 2.500127
1008.60 2.499848
1008.70 2.49957
1008.80 2.499292
1008.90 2.499014
1009.00 2.498736
1009.10 2.498458
1009.20 2.49818
1009.30 2.497903
1009.40 2.497625
1009.50 2.497347
1009.60 2.49707
1009.70 2.496792
1009.80 2.496514
1009.90 2.496237
1010.00 2.49596
1010.10 2.495682
1010.20 2.495405
1010.30 2.495128
1010.40 2.494851
1010.50 2.494574
1010.60 2.494297
1010.70 2.49402
1010.80 2.493743
1010.90 2.493466
1011.00 2.493186
1011.10 2.492892
1011.20 2.492598
1011.30 2.492304
1011.40 2.49201
1011.50 2.491716
1011.60 2.491422
1011.70 2.491129
1011.80 2.490835
1011.90 2.490541
1012.00 2.490248
1012.10 2.489954
1012.20 2.489661
1012.30 2.489367
1012.40 2.489074
1012.50 2.488781
1012.60 2.488488
1012.70 2.488195
1012.80 2.487901
1012.90 2.487609
1013.00 2.487316
1013.10 2.487023
1013.20 2.48673
1013.30 2.486437
1013.40 2.486145
1013.50 2.485852
1013.60 2.48556
1013.70 2.485267
1013.80 2.484975
1013.90 2.484683
1014.00 2.48439
1014.10 2.484098
1014.20 2.483806
1014.30 2.483514
1014.40 2.483222
1014.50 2.48293
1014.60 2.482638
1014.70 2.482347
1014.80 2.482055
1014.90 2.481763
1015.00 2.481472
1015.10 2.48118
1015.20 2.480889
1015.30 2.480597
1015.40 2.480306
1015.50 2.480015
1015.60 2.479724
1015.70 2.479433
1015.80 2.479142
1015.90 2.478851
1016.00 2.47856
1016.10 2.478269
1016.20 2.477978
1016.30 2.477687
1016.40 2.477397
1016.50 2.477106
1016.60 2.476816
1016.70 2.476525
1016.80 2.476235
1016.90 2.475945
1017.00 2.475654
1017.10 2.475364
1017.20 2.475074
1017.30 2.474784
1017.40 2.474494
1017.50 2.474204
1017.60 2.473914
1017.70 2.473625
1017.80 2.473335
1017.90 2.473045
1018.00 2.472756
1018.10 2.472466
1018.20 2.472177
1018.30 2.471887
1018.40 2.471598
1018.50 2.471309
1018.60 2.47102
1018.70 2.470731
1018.80 2.470442
1018.90 2.470153
1019.00 2.469864
1019.10 2.469575
1019.20 2.469286
1019.30 2.468997
1019.40 2.468709
1019.50 2.46842
1019.60 2.468132
1019.70 2.467843
1019.80 2.467555
1019.90 2.467266
1020.00 2.466978
1020.10 2.46669
1020.20 2.466402
1020.30 2.466114
1020.40 2.465826
1020.50 2.465538
1020.60 2.46525
1020.70 2.464962
1020.80 2.464674
1020.90 2.464387
1021.00 2.464099
1021.10 2.463812
1021.20 2.463522
1021.30 2.463233
1021.40 2.462944
1021.50 2.462654
1021.60 2.462365
1021.70 2.462076
1021.80 2.461787
1021.90 2.461498
1022.00 2.461209
1022.10 2.46092
1022.20 2.460632
1022.30 2.460343
1022.40 2.460054
1022.50 2.459766
1022.60 2.459477
1022.70 2.459189
1022.80 2.4589
1022.90 2.458612
1023.00 2.458324
1023.10 2.458036
1023.20 2.457748
1023.30 2.45746
1023.40 2.457172
1023.50 2.456884
1023.60 2.456596
1023.70 2.456308
1023.80 2.45602
1023.90 2.455733
1024.00 2.455445
1024.10 2.455158
1024.20 2.45487
1024.30 2.454583
1024.40 2.454296
1024.50 2.454008
1024.60 2.453721
1024.70 2.453434
1024.80 2.453147
1024.90 2.45286
1025.00 2.452573
1025.10 2.452286
1025.20 2.451999
1025.30 2.451713
1025.40 2.451426
1025.50 2.451139
1025.60 2.450853
1025.70 2.450567
1025.80 2.45028
1025.90 2.449994
1026.00 2.449708
1026.10 2.449421
1026.20 2.449135
1026.30 2.448849
1026.40 2.448563
1026.50 2.448277
1026.60 2.447991
1026.70 2.447706
1026.80 2.44742
1026.90 2.447134
1027.00 2.446849
1027.10 2.446563
1027.20 2.446278
1027.30 2.445992
1027.40 2.445707
1027.50 2.445422
1027.60 2.445137
1027.70 2.444851
1027.80 2.444566
1027.90 2.444281
1028.00 2.443996
1028.10 2.443712
1028.20 2.443427
1028.30 2.443142
1028.40 2.442857
1028.50 2.442573
1028.60 2.442288
1028.70 2.442004
1028.80 2.441719
1028.90 2.441435
1029.00 2.441151
1029.10 2.440866
1029.20 2.440582
1029.30 2.440298
1029.40 2.440014
1029.50 2.43973
1029.60 2.439446
1029.70 2.439162
1029.80 2.438879
1029.90 2.438595
1030.00 2.438311
1030.10 2.438028
1030.20 2.437744
1030.30 2.437461
1030.40 2.437177
1030.50 2.436894
1030.60 2.436611
1030.70 2.436328
1030.80 2.436044
1030.90 2.435761
1031.00 2.435478
1031.10 2.435195
1031.20 2.434913
1031.30 2.43463
1031.40 2.434331
1031.50 2.434032
1031.60 2.433733
1031.70 2.433435
1031.80 2.433136
1031.90 2.432837
1032.00 2.432538
1032.10 2.43224
1032.20 2.431941
1032.30 2.431643
1032.40 2.431344
1032.50 2.431046
1032.60 2.430748
1032.70 2.43045
1032.80 2.430152
1032.90 2.429854
1033.00 2.429556
1033.10 2.429258
1033.20 2.42896
1033.30 2.428662
1033.40 2.428365
1033.50 2.428067
1033.60 2.427769
1033.70 2.427472
1033.80 2.427175
1033.90 2.426877
1034.00 2.42658
1034.10 2.426283
1034.20 2.425986
1034.30 2.425689
1034.40 2.425392
1034.50 2.425095
1034.60 2.424798
1034.70 2.424501
1034.80 2.424204
1034.90 2.423908
1035.00 2.423611
1035.10 2.423315
1035.20 2.423018
1035.30 2.422722
1035.40 2.422426
1035.50 2.422129
1035.60 2.421833
1035.70 2.421537
1035.80 2.421241
1035.90 2.420945
1036.00 2.420649
1036.10 2.420354
1036.20 2.420058
1036.30 2.419762
1036.40 2.419467
1036.50 2.419171
1036.60 2.418876
1036.70 2.41858
1036.80 2.418285
1036.90 2.41799
1037.00 2.417695
1037.10 2.4174
1037.20 2.417105
1037.30 2.41681
1037.40 2.416515
1037.50 2.41622
1037.60 2.415925
1037.70 2.415631
1037.80 2.415336
1037.90 2.415041
1038.00 2.414747
1038.10 2.414453
1038.20 2.414158
1038.30 2.413864
1038.40 2.41357
1038.50 2.413276
1038.60 2.412982
1038.70 2.412688
1038.80 2.412394
1038.90 2.4121
1039.00 2.411806
1039.10 2.411512
1039.20 2.411219
1039.30 2.410925
1039.40 2.410632
1039.50 2.410338
1039.60 2.410045
1039.70 2.409752
1039.80 2.409458
1039.90 2.409165
1040.00 2.408872
1040.10 2.408579
1040.20 2.408286
1040.30 2.407993
1040.40 2.4077
1040.50 2.407408
1040.60 2.407115
1040.70 2.406822
1040.80 2.40653
1040.90 2.406237
1041.00 2.405945
1041.10 2.405653
1041.20 2.40536
1041.30 2.405068
1041.40 2.404776
1041.50 2.404484
1041.60 2.404192
1041.70 2.403887
1041.80 2.403579
1041.90 2.403272
1042.00 2.402965
1042.10 2.402657
1042.20 2.40235
1042.30 2.402043
1042.40 2.401736
1042.50 2.401429
1042.60 2.401122
1042.70 2.400815
1042.80 2.400508
1042.90 2.400201
1043.00 2.399895
1043.10 2.399588
1043.20 2.399281
1043.30 2.398975
1043.40 2.398669
1043.50 2.398362
1043.60 2.398056
1043.70 2.39775
1043.80 2.397444
1043.90 2.397138
1044.00 2.396832
1044.10 2.396526
1044.20 2.39622
1044.30 2.395915
1044.40 2.395609
1044.50 2.395303
1044.60 2.394998
1044.70 2.394692
1044.80 2.394387
1044.90 2.394082
1045.00 2.393777
1045.10 2.393471
1045.20 2.393166
1045.30 2.392861
1045.40 2.392557
1045.50 2.392252
1045.60 2.391947
1045.70 2.391642
1045.80 2.391338
1045.90 2.391033
1046.00 2.390729
1046.10 2.390424
1046.20 2.39012
1046.30 2.389816
1046.40 2.389511
1046.50 2.389207
1046.60 2.388903
1046.70 2.388599
1046.80 2.388295
1046.90 2.387992
1047.00 2.387688
1047.10 2.387384
1047.20 2.387081
1047.30 2.386777
1047.40 2.386474
1047.50 2.38617
1047.60 2.385867
1047.70 2.385564
1047.80 2.38526
1047.90 2.384957
1048.00 2.384654
1048.10 2.384351
1048.20 2.384049
1048.30 2.383746
1048.40 2.383443
1048.50 2.38314
1048.60 2.382838
1048.70 2.382535
1048.80 2.382233
1048.90 2.38193
1049.00 2.381628
1049.10 2.381326
1049.20 2.381024
1049.30 2.380722
1049.40 2.38042
1049.50 2.380118
1049.60 2.379816
1049.70 2.379514
1049.80 2.379212
1049.90 2.378911
1050.00 2.378609
1050.10 2.378307
1050.20 2.378006
1050.30 2.377705
1050.40 2.377403
1050.50 2.377102
1050.60 2.376801
1050.70 2.3765
1050.80 2.376199
1050.90 2.375898
1051.00 2.375597
1051.10 2.375296
1051.20 2.374996
1051.30 2.374695
1051.40 2.374394
1051.50 2.374094
1051.60 2.373793
1051.70 2.373493
1051.80 2.373193
1051.90 2.372892
1052.00 2.372592
1052.10 2.372291
1052.20 2.37199
1052.30 2.371688
1052.40 2.371387
1052.50 2.371086
1052.60 2.370784
1052.70 2.370483
1052.80 2.370182
1052.90 2.369881
1053.00 2.36958
1053.10 2.369279
1053.20 2.368978
1053.30 2.368678
1053.40 2.368377
1053.50 2.368077
1053.60 2.367776
1053.70 2.367476
1053.80 2.367175
1053.90 2.366875
1054.00 2.366575
1054.10 2.366274
1054.20 2.365974
1054.30 2.365674
1054.40 2.365374
1054.50 2.365075
1054.60 2.364775
1054.70 2.364475
1054.80 2.364175
1054.90 2.363876
1055.00 2.363576
1055.10 2.363277
1055.20 2.362977
1055.30 2.362678
1055.40 2.362379
1055.50 2.36208
1055.60 2.361781
1055.70 2.361482
1055.80 2.361183
1055.90 2.360884
1056.00 2.360585
1056.10 2.360286
1056.20 2.359988
1056.30 2.359689
1056.40 2.35939
1056.50 2.359092
1056.60 2.358794
1056.70 2.358495
1056.80 2.358197
1056.90 2.357899
1057.00 2.357601
1057.10 2.357303
1057.20 2.357005
1057.30 2.356707
1057.40 2.356409
1057.50 2.356111
1057.60 2.355814
1057.70 2.355516
1057.80 2.355219
1057.90 2.354921
1058.00 2.354624
1058.10 2.354326
1058.20 2.354029
1058.30 2.353732
1058.40 2.353435
1058.50 2.353138
1058.60 2.352841
1058.70 2.352544
1058.80 2.352247
1058.90 2.35195
1059.00 2.351654
1059.10 2.351357
1059.20 2.35106
1059.30 2.350764
1059.40 2.350467
1059.50 2.350171
1059.60 2.349875
1059.70 2.349579
1059.80 2.349283
1059.90 2.348986
1060.00 2.34869
1060.10 2.348395
1060.20 2.348099
1060.30 2.347803
1060.40 2.347507
1060.50 2.347212
1060.60 2.346916
1060.70 2.34662
1060.80 2.346325
1060.90 2.34603
1061.00 2.345734
1061.10 2.345439
1061.20 2.345144
1061.30 2.344849
1061.40 2.344554
1061.50 2.344259
1061.60 2.343964
1061.70 2.343669
1061.80 2.343375
1061.90 2.34308
1062.00 2.342785
1062.10 2.342491
1062.20 2.342196
1062.30 2.341902
1062.40 2.341608
1062.50 2.341313
1062.60 2.341012
1062.70 2.340704
1062.80 2.340395
1062.90 2.340086
1063.00 2.339778
1063.10 2.339469
1063.20 2.339161
1063.30 2.338853
1063.40 2.338545
1063.50 2.338236
1063.60 2.337928
1063.70 2.33762
1063.80 2.337312
1063.90 2.337005
1064.00 2.336697
1064.10 2.336389
1064.20 2.336081
1064.30 2.335774
1064.40 2.335466
1064.50 2.335159
1064.60 2.334852
1064.70 2.334544
1064.80 2.334237
1064.90 2.33393
1065.00 2.333623
1065.10 2.333316
1065.20 2.333009
1065.30 2.332702
1065.40 2.332396
1065.50 2.332089
1065.60 2.331783
1065.70 2.331476
1065.80 2.33117
1065.90 2.330863
1066.00 2.330557
1066.10 2.330251
1066.20 2.329945
1066.30 2.329638
1066.40 2.329332
1066.50 2.329027
1066.60 2.328721
1066.70 2.328415
1066.80 2.328109
1066.90 2.327804
1067.00 2.327498
1067.10 2.327193
1067.20 2.326887
1067.30 2.326582
1067.40 2.326277
1067.50 2.325971
1067.60 2.325666
1067.70 2.325361
1067.80 2.325056
1067.90 2.324751
1068.00 2.324447
1068.10 2.324142
1068.20 2.323837
1068.30 2.323533
1068.40 2.323228
1068.50 2.322924
1068.60 2.322619
1068.70 2.322315
1068.80 2.322011
1068.90 2.321707
1069.00 2.321403
1069.10 2.321099
1069.20 2.320795
1069.30 2.320491
1069.40 2.320187
1069.50 2.319884
1069.60 2.31958
1069.70 2.319276
1069.80 2.318973
1069.90 2.318669
1070.00 2.318366
1070.10 2.318063
1070.20 2.31776
1070.30 2.317457
1070.40 2.317154
1070.50 2.316851
1070.60 2.316548
1070.70 2.316245
1070.80 2.315942
1070.90 2.315639
1071.00 2.315337
1071.10 2.315034
1071.20 2.314732
1071.30 2.31443
1071.40 2.314127
1071.50 2.313825
1071.60 2.313523
1071.70 2.313221
1071.80 2.312919
1071.90 2.312617
1072.00 2.312315
1072.10 2.312013
1072.20 2.311711
1072.30 2.31141
1072.40 2.311108
1072.50 2.310807
1072.60 2.310505
1072.70 2.310204
1072.80 2.309902
1072.90 2.309601
1073.00 2.3093
1073.10 2.308999
1073.20 2.308698
1073.30 2.308395
1073.40 2.308093
1073.50 2.307791
1073.60 2.307489
1073.70 2.307187
1073.80 2.306885
1073.90 2.306584
1074.00 2.306282
1074.10 2.30598
1074.20 2.305679
1074.30 2.305377
1074.40 2.305076
1074.50 2.304774
1074.60 2.304473
1074.70 2.304172
1074.80 2.303871
1074.90 2.30357
1075.00 2.303269
1075.10 2.302968
1075.20 2.302667
1075.30 2.302366
1075.40 2.302065
1075.50 2.301765
1075.60 2.301464
1075.70 2.301163
1075.80 2.300863
1075.90 2.300563
1076.00 2.300262
1076.10 2.299962
1076.20 2.299662
1076.30 2.299362
1076.40 2.299062
1076.50 2.298762
1076.60 2.298462
1076.70 2.298162
1076.80 2.297863
1076.90 2.297563
1077.00 2.297263
1077.10 2.296964
1077.20 2.296665
1077.30 2.296365
1077.40 2.296066
1077.50 2.295767
1077.60 2.295468
1077.70 2.295168
1077.80 2.294869
1077.90 2.294571
1078.00 2.294272
1078.10 2.293973
1078.20 2.293674
1078.30 2.293376
1078.40 2.293077
1078.50 2.292779
1078.60 2.292473
1078.70 2.292162
1078.80 2.291851
1078.90 2.29154
1079.00 2.291229
1079.10 2.290919
1079.20 2.290608
1079.30 2.290298
1079.40 2.289987
1079.50 2.289677
1079.60 2.289366
1079.70 2.289056
1079.80 2.288746
1079.90 2.288436
1080.00 2.288126
1080.10 2.287816
1080.20 2.287506
1080.30 2.287196
1080.40 2.286886
1080.50 2.286577
1080.60 2.286267
1080.70 2.285958
1080.80 2.285648
1080.90 2.285339
1081.00 2.28503
1081.10 2.28472
1081.20 2.284411
1081.30 2.284102
1081.40 2.283793
1081.50 2.283484
1081.60 2.283175
1081.70 2.282867
1081.80 2.282558
1081.90 2.282249
1082.00 2.281941
1082.10 2.281632
1082.20 2.281324
1082.30 2.281016
1082.40 2.280707
1082.50 2.280399
1082.60 2.280091
1082.70 2.279783
1082.80 2.279475
1082.90 2.279167
1083.00 2.27886
1083.10 2.278552
1083.20 2.278244
1083.30 2.277937
1083.40 2.277629
1083.50 2.277322
1083.60 2.277015
1083.70 2.276707
1083.80 2.2764
1083.90 2.276093
1084.00 2.275785
1084.10 2.275477
1084.20 2.275169
1084.30 2.274861
1084.40 2.274553
1084.50 2.274245
1084.60 2.273938
1084.70 2.27363
1084.80 2.273322
1084.90 2.273015
1085.00 2.272708
1085.10 2.2724
1085.20 2.272093
1085.30 2.271786
1085.40 2.271479
1085.50 2.271172
1085.60 2.270865
1085.70 2.270558
1085.80 2.270251
1085.90 2.269944
1086.00 2.269638
1086.10 2.269331
1086.20 2.269024
1086.30 2.268718
1086.40 2.268412
1086.50 2.268105
1086.60 2.267799
1086.70 2.267493
1086.80 2.267187
1086.90 2.266881
1087.00 2.266575
1087.10 2.266269
1087.20 2.265963
1087.30 2.265658
1087.40 2.265352
1087.50 2.265046
1087.60 2.264741
1087.70 2.264436
1087.80 2.26413
1087.90 2.263825
1088.00 2.26352
1088.10 2.263215
1088.20 2.26291
1088.30 2.262605
1088.40 2.2623
1088.50 2.261995
1088.60 2.26169
1088.70 2.261386
1088.80 2.261081
1088.90 2.260777
1089.00 2.260472
1089.10 2.260168
1089.20 2.259863
1089.30 2.259559
1089.40 2.259255
1089.50 2.258951
1089.60 2.258647
1089.70 2.258343
1089.80 2.258039
1089.90 2.257736
1090.00 2.257432
1090.10 2.257128
1090.20 2.256825
1090.30 2.256521
1090.40 2.256218
1090.50 2.255915
1090.60 2.255611
1090.70 2.255308
1090.80 2.255005
1090.90 2.254702
1091.00 2.254399
1091.10 2.254096
1091.20 2.253793
1091.30 2.253491
1091.40 2.253188
1091.50 2.252885
1091.60 2.252583
1091.70 2.25228
1091.80 2.251978
1091.90 2.251676
1092.00 2.251374
1092.10 2.251071
1092.20 2.250769
1092.30 2.250467
1092.40 2.250165
1092.50 2.249864
1092.60 2.249562
1092.70 2.24926
1092.80 2.248958
1092.90 2.248657
1093.00 2.248355
1093.10 2.248054
1093.20 2.247753
1093.30 2.247451
1093.40 2.24715
1093.50 2.246849
1093.60 2.246548
1093.70 2.246247
1093.80 2.245946
1093.90 2.245645
1094.00 2.245344
1094.10 2.245044
1094.20 2.244743
1094.30 2.244443
1094.40 2.244142
1094.50 2.243842
1094.60 2.243541
1094.70 2.243241
1094.80 2.242934
1094.90 2.242621
1095.00 2.242308
1095.10 2.241995
1095.20 2.241682
1095.30 2.241369
1095.40 2.241056
1095.50 2.240743
1095.60 2.24043
1095.70 2.240118
1095.80 2.239805
1095.90 2.239493
1096.00 2.23918
1096.10 2.238868
1096.20 2.238556
1096.30 2.238243
1096.40 2.237931
1096.50 2.237619
1096.60 2.237307
1096.70 2.236995
1096.80 2.236684
1096.90 2.236372
1097.00 2.23606
1097.10 2.235749
1097.20 2.235437
1097.30 2.235126
1097.40 2.234814
1097.50 2.234503
1097.60 2.234192
1097.70 2.233881
1097.80 2.23357
1097.90 2.233259
1098.00 2.232948
1098.10 2.232637
1098.20 2.232326
1098.30 2.232016
1098.40 2.231705
1098.50 2.231395
1098.60 2.231084
1098.70 2.230774
1098.80 2.230463
1098.90 2.230153
1099.00 2.229843
1099.10 2.229533
1099.20 2.229223
1099.30 2.228913
1099.40 2.228603
1099.50 2.228294
1099.60 2.227984
1099.70 2.227674
1099.80 2.227365
1099.90 2.227055
1100.00 2.226746
1100.10 2.226437
1100.20 2.226127
1100.30 2.225818
1100.40 2.225509
1100.50 2.2252
1100.60 2.224891
1100.70 2.224582
1100.80 2.224274
1100.90 2.223965
1101.00 2.223656
1101.10 2.223348
1101.20 2.223039
1101.30 2.222731
1101.40 2.222423
1101.50 2.222114
1101.60 2.221806
1101.70 2.221498
1101.80 2.22119
1101.90 2.220882
1102.00 2.220574
1102.10 2.220267
1102.20 2.219959
1102.30 2.219651
1102.40 2.219344
1102.50 2.219036
1102.60 2.218729
1102.70 2.218421
1102.80 2.218114
1102.90 2.217807
1103.00 2.2175
1103.10 2.217193
1103.20 2.216886
1103.30 2.216579
1103.40 2.216272
1103.50 2.215965
1103.60 2.215659
1103.70 2.215352
1103.80 2.215046
1103.90 2.214739
1104.00 2.214433
1104.10 2.214126
1104.20 2.21382
1104.30 2.213514
1104.40 2.213208
1104.50 2.212902
1104.60 2.212596
1104.70 2.21229
1104.80 2.211985
1104.90 2.211679
1105.00 2.211373
1105.10 2.211068
1105.20 2.210762
1105.30 2.210457
1105.40 2.210151
1105.50 2.209846
1105.60 2.209541
1105.70 2.209236
1105.80 2.208924
1105.90 2.208612
1106.00 2.208301
1106.10 2.207989
1106.20 2.207678
1106.30 2.207366
1106.40 2.207055
1106.50 2.206743
1106.60 2.206432
1106.70 2.206121
1106.80 2.20581
1106.90 2.205499
1107.00 2.205188
1107.10 2.204877
1107.20 2.204567
1107.30 2.204256
1107.40 2.203945
1107.50 2.203635
1107.60 2.203325
1107.70 2.203014
1107.80 2.202704
1107.90 2.202394
1108.00 2.202084
1108.10 2.201773
1108.20 2.201464
1108.30 2.201154
1108.40 2.200844
1108.50 2.200534
1108.60 2.200224
1108.70 2.199915
1108.80 2.199605
1108.90 2.199296
1109.00 2.198986
1109.10 2.198677
1109.20 2.198368
1109.30 2.198059
1109.40 2.19775
1109.50 2.197441
1109.60 2.197132
1109.70 2.196823
1109.80 2.196514
1109.90 2.196206
1110.00 2.195897
1110.10 2.195588
1110.20 2.19528
1110.30 2.194972
1110.40 2.194663
1110.50 2.194355
1110.60 2.194047
1110.70 2.193739
1110.80 2.193431
1110.90 2.193123
1111.00 2.192815
1111.10 2.192507
1111.20 2.192199
1111.30 2.191892
1111.40 2.191584
1111.50 2.191277
1111.60 2.190969
1111.70 2.190662
1111.80 2.190355
1111.90 2.190048
1112.00 2.189741
1112.10 2.189433
1112.20 2.189127
1112.30 2.18882
1112.40 2.188513
1112.50 2.188206
1112.60 2.187899
1112.70 2.187593
1112.80 2.187286
1112.90 2.18698
1113.00 2.186674
1113.10 2.186367
1113.20 2.186061
1113.30 2.185755
1113.40 2.185449
1113.50 2.185143
1113.60 2.184837
1113.70 2.184531
1113.80 2.184225
1113.90 2.18392
1114.00 2.183614
1114.10 2.183309
1114.20 2.183003
1114.30 2.182698
1114.40 2.182392
1114.50 2.182087
1114.60 2.181782
1114.70 2.181477
1114.80 2.181172
1114.90 2.180867
1115.00 2.180562
1115.10 2.180257
1115.20 2.179953
1115.30 2.179648
1115.40 2.179343
1115.50 2.179039
1115.60 2.178734
1115.70 2.17843
1115.80 2.178126
1115.90 2.177822
1116.00 2.177518
1116.10 2.177213
1116.20 2.17691
1116.30 2.176606
1116.40 2.176302
1116.50 2.175998
1116.60 2.175694
1116.70 2.175391
1116.80 2.175084
1116.90 2.174774
1117.00 2.174464
1117.10 2.174155
1117.20 2.173845
1117.30 2.173535
1117.40 2.173225
1117.50 2.172916
1117.60 2.172606
1117.70 2.172297
1117.80 2.171988
1117.90 2.171679
1118.00 2.171369
1118.10 2.17106
1118.20 2.170751
1118.30 2.170442
1118.40 2.170134
1118.50 2.169825
1118.60 2.169516
1118.70 2.169207
1118.80 2.168899
1118.90 2.16859
1119.00 2.168282
1119.10 2.167974
1119.20 2.167665
1119.30 2.167357
1119.40 2.167049
1119.50 2.166741
1119.60 2.166433
1119.70 2.166125
1119.80 2.165818
1119.90 2.16551
1120.00 2.165202
1120.10 2.164895
1120.20 2.164587
1120.30 2.16428
1120.40 2.163972
1120.50 2.163665
1120.60 2.163358
1120.70 2.163051
1120.80 2.162744
1120.90 2.162437
1121.00 2.16213
1121.10 2.161823
1121.20 2.161516
1121.30 2.16121
1121.40 2.160903
1121.50 2.160597
1121.60 2.16029
1121.70 2.159984
1121.80 2.159678
1121.90 2.159371
1122.00 2.159065
1122.10 2.158759
1122.20 2.158453
1122.30 2.158147
1122.40 2.157841
1122.50 2.157536
1122.60 2.15723
1122.70 2.156924
1122.80 2.156619
1122.90 2.156313
1123.00 2.156008
1123.10 2.155703
1123.20 2.155397
1123.30 2.155092
1123.40 2.154787
1123.50 2.154482
1123.60 2.154177
1123.70 2.153872
1123.80 2.153568
1123.90 2.153263
1124.00 2.152958
1124.10 2.152654
1124.20 2.152349
1124.30 2.152045
1124.40 2.151741
1124.50 2.151436
1124.60 2.151132
1124.70 2.150828
1124.80 2.150524
1124.90 2.15022
1125.00 2.149916
1125.10 2.149612
1125.20 2.149308
1125.30 2.149005
1125.40 2.148701
1125.50 2.148398
1125.60 2.148094
1125.70 2.147791
1125.80 2.147488
1125.90 2.147184
1126.00 2.146881
1126.10 2.146578
1126.20 2.146275
1126.30 2.145972
1126.40 2.145669
1126.50 2.145367
1126.60 2.145064
1126.70 2.144761
1126.80 2.144459
1126.90 2.144156
1127.00 2.143854
1127.10 2.143551
1127.20 2.143249
1127.30 2.142947
1127.40 2.142645
1127.50 2.142343
1127.60 2.142041
1127.70 2.141739
1127.80 2.141437
1127.90 2.141135
1128.00 2.140829
1128.10 2.140521
1128.20 2.140213
1128.30 2.139905
1128.40 2.139598
1128.50 2.13929
1128.60 2.138982
1128.70 2.138675
1128.80 2.138368
1128.90 2.13806
1129.00 2.137753
1129.10 2.137446
1129.20 2.137139
1129.30 2.136832
1129.40 2.136525
1129.50 2.136218
1129.60 2.135911
1129.70 2.135605
1129.80 2.135298
1129.90 2.134991
1130.00 2.134685
1130.10 2.134379
1130.20 2.134072
1130.30 2.133766
1130.40 2.13346
1130.50 2.133154
1130.60 2.132848
1130.70 2.132542
1130.80 2.132236
1130.90 2.13193
1131.00 2.131624
1131.10 2.131319
1131.20 2.131013
1131.30 2.130708
1131.40 2.130402
1131.50 2.130097
1131.60 2.129792
1131.70 2.129486
1131.80 2.129181
1131.90 2.128876
1132.00 2.128571
1132.10 2.128266
1132.20 2.127961
1132.30 2.127657
1132.40 2.127352
1132.50 2.127047
1132.60 2.126743
1132.70 2.126438
1132.80 2.126134
1132.90 2.12583
1133.00 2.125525
1133.10 2.125221
1133.20 2.124917
1133.30 2.124613
1133.40 2.124309
1133.50 2.124005
1133.60 2.123702
1133.70 2.123398
1133.80 2.123094
1133.90 2.122791
1134.00 2.122487
1134.10 2.122184
1134.20 2.12188
1134.30 2.121577
1134.40 2.121274
1134.50 2.120971
1134.60 2.120668
1134.70 2.120365
1134.80 2.120062
1134.90 2.119759
1135.00 2.119456
1135.10 2.119154
1135.20 2.118851
1135.30 2.118549
1135.40 2.118246
1135.50 2.117944
1135.60 2.117641
1135.70 2.117339
1135.80 2.117037
1135.90 2.116735
1136.00 2.116433
1136.10 2.116131
1136.20 2.115829
1136.30 2.115527
1136.40 2.115226
1136.50 2.114924
1136.60 2.114622
1136.70 2.114321
1136.80 2.114019
1136.90 2.113718
1137.00 2.113417
1137.10 2.113116
1137.20 2.112814
1137.30 2.112513
1137.40 2.112212
1137.50 2.111911
1137.60 2.111611
1137.70 2.11131
1137.80 2.111009
1137.90 2.110709
1138.00 2.110408
1138.10 2.110108
1138.20 2.109807
1138.30 2.109507
1138.40 2.109207
1138.50 2.108906
1138.60 2.108606
1138.70 2.108306
1138.80 2.108006
1138.90 2.107706
1139.00 2.107407
1139.10 2.107107
1139.20 2.106807
1139.30 2.106496
1139.40 2.106185
1139.50 2.105875
1139.60 2.105564
1139.70 2.105253
1139.80 2.104943
1139.90 2.104632
1140.00 2.104322
1140.10 2.104011
1140.20 2.103701
1140.30 2.103391
1140.40 2.103081
1140.50 2.10277
1140.60 2.10246
1140.70 2.102151
1140.80 2.101841
1140.90 2.101531
1141.00 2.101221
1141.10 2.100912
1141.20 2.100602
1141.30 2.100293
1141.40 2.099983
1141.50 2.099674
1141.60 2.099365
1141.70 2.099056
1141.80 2.098746
1141.90 2.098437
1142.00 2.098129
1142.10 2.09782
1142.20 2.097511
1142.30 2.097202
1142.40 2.096894
1142.50 2.096585
1142.60 2.096277
1142.70 2.095968
1142.80 2.09566
1142.90 2.095352
1143.00 2.095043
1143.10 2.094735
1143.20 2.094427
1143.30 2.094119
1143.40 2.093811
1143.50 2.093504
1143.60 2.093196
1143.70 2.092888
1143.80 2.092581
1143.90 2.092273
1144.00 2.091966
1144.10 2.091659
1144.20 2.091351
1144.30 2.091044
1144.40 2.090737
1144.50 2.09043
1144.60 2.090123
1144.70 2.089816
1144.80 2.089509
1144.90 2.089203
1145.00 2.088896
1145.10 2.088589
1145.20 2.088283
1145.30 2.087976
1145.40 2.08767
1145.50 2.087364
1145.60 2.087058
1145.70 2.086751
1145.80 2.086445
1145.90 2.086139
1146.00 2.085833
1146.10 2.085528
1146.20 2.085222
1146.30 2.084916
1146.40 2.084611
1146.50 2.084305
1146.60 2.084
1146.70 2.083694
1146.80 2.083389
1146.90 2.083084
1147.00 2.082778
1147.10 2.082473
1147.20 2.082168
1147.30 2.081863
1147.40 2.081559
1147.50 2.081254
1147.60 2.080949
1147.70 2.080644
1147.80 2.08034
1147.90 2.080035
1148.00 2.079731
1148.10 2.079427
1148.20 2.079122
1148.30 2.078818
1148.40 2.078514
1148.50 2.07821
1148.60 2.077906
1148.70 2.077602
1148.80 2.077298
1148.90 2.076995
1149.00 2.076691
1149.10 2.076387
1149.20 2.076084
1149.30 2.07578
1149.40 2.075477
1149.50 2.075174
1149.60 2.074871
1149.70 2.074567
1149.80 2.074264
1149.90 2.073961
1150.00 2.073658
1150.10 2.073356
1150.20 2.073053
1150.30 2.07275
1150.40 2.072447
1150.50 2.072145
1150.60 2.071842
1150.70 2.071534
1150.80 2.071226
1150.90 2.070918
1151.00 2.07061
1151.10 2.070302
1151.20 2.069994
1151.30 2.069686
1151.40 2.069379
1151.50 2.069071
1151.60 2.068764
1151.70 2.068456
1151.80 2.068149
1151.90 2.067842
1152.00 2.067535
1152.10 2.067228
1152.20 2.066921
1152.30 2.066614
1152.40 2.066307
1152.50 2.066
1152.60 2.065693
1152.70 2.065386
1152.80 2.06508
1152.90 2.064773
1153.00 2.064467
1153.10 2.064161
1153.20 2.063854
1153.30 2.063548
1153.40 2.063242
1153.50 2.062936
1153.60 2.06263
1153.70 2.062324
1153.80 2.062018
1153.90 2.061713
1154.00 2.061407
1154.10 2.061101
1154.20 2.060796
1154.30 2.06049
1154.40 2.060185
1154.50 2.05988
1154.60 2.059574
1154.70 2.059269
1154.80 2.058964
1154.90 2.058659
1155.00 2.058354
1155.10 2.058049
1155.20 2.057745
1155.30 2.05744
1155.40 2.057135
1155.50 2.056831
1155.60 2.056526
1155.70 2.056222
1155.80 2.055918
1155.90 2.055613
1156.00 2.055309
1156.10 2.055005
1156.20 2.054701
1156.30 2.054397
1156.40 2.054093
1156.50 2.053789
1156.60 2.053486
1156.70 2.053182
1156.80 2.052878
1156.90 2.052575
1157.00 2.052271
1157.10 2.051968
1157.20 2.051665
1157.30 2.051361
1157.40 2.051058
1157.50 2.050755
1157.60 2.050452
1157.70 2.050149
1157.80 2.049846
1157.90 2.049544
1158.00 2.049241
1158.10 2.048938
1158.20 2.048636
1158.30 2.048333
1158.40 2.048031
1158.50 2.047728
1158.60 2.047426
1158.70 2.047124
1158.80 2.046822
1158.90 2.04652
1159.00 2.046218
1159.10 2.045916
1159.20 2.045614
1159.30 2.045312
1159.40 2.045011
1159.50 2.044709
1159.60 2.044407
1159.70 2.044106
1159.80 2.043805
1159.90 2.043503
1160.00 2.043202
1160.10 2.042901
1160.20 2.0426
1160.30 2.042299
1160.40 2.041998
1160.50 2.041697
1160.60 2.041396
1160.70 2.041095
1160.80 2.040795
1160.90 2.040494
1161.00 2.040194
1161.10 2.039893
1161.20 2.039593
1161.30 2.039293
1161.40 2.038992
1161.50 2.038692
1161.60 2.038392
1161.70 2.038092
1161.80 2.037792
1161.90 2.037492
1162.00 2.037193
1162.10 2.036893
1162.20 2.036593
1162.30 2.036293
1162.40 2.035993
1162.50 2.035693
1162.60 2.035393
1162.70 2.035093
1162.80 2.034794
1162.90 2.034494
1163.00 2.034195
1163.10 2.033895
1163.20 2.033596
1163.30 2.033296
1163.40 2.032997
1163.50 2.032698
1163.60 2.032399
1163.70 2.0321
1163.80 2.031801
1163.90 2.031502
1164.00 2.031203
1164.10 2.030905
1164.20 2.030606
1164.30 2.030307
1164.40 2.030009
1164.50 2.02971
1164.60 2.029412
1164.70 2.029114
1164.80 2.028815
1164.90 2.028517
1165.00 2.028219
1165.10 2.027921
1165.20 2.027623
1165.30 2.027325
1165.40 2.027028
1165.50 2.02673
1165.60 2.026432
1165.70 2.026135
1165.80 2.025837
1165.90 2.02554
1166.00 2.025242
1166.10 2.024945
1166.20 2.024648
1166.30 2.024351
1166.40 2.024054
1166.50 2.023757
1166.60 2.02346
1166.70 2.023163
1166.80 2.022866
1166.90 2.022569
1167.00 2.022273
1167.10 2.021976
1167.20 2.02168
1167.30 2.021383
1167.40 2.021087
1167.50 2.020791
1167.60 2.020494
1167.70 2.020198
1167.80 2.019902
1167.90 2.019606
1168.00 2.019301
1168.10 2.018996
1168.20 2.01869
1168.30 2.018384
1168.40 2.018079
1168.50 2.017773
1168.60 2.017468
1168.70 2.017162
1168.80 2.016857
1168.90 2.016552
1169.00 2.016247
1169.10 2.015941
1169.20 2.015636
1169.30 2.015332
1169.40 2.015027
1169.50 2.014722
1169.60 2.014417
1169.70 2.014113
1169.80 2.013808
1169.90 2.013504
1170.00 2.013199
1170.10 2.012895
1170.20 2.012591
1170.30 2.012286
1170.40 2.011982
1170.50 2.011678
1170.60 2.011374
1170.70 2.01107
1170.80 2.010767
1170.90 2.010463
1171.00 2.010159
1171.10 2.009856
1171.20 2.009552
1171.30 2.009249
1171.40 2.008945
1171.50 2.008642
1171.60 2.008339
1171.70 2.008036
1171.80 2.007733
1171.90 2.00743
1172.00 2.007127
1172.10 2.006824
1172.20 2.006521
1172.30 2.006218
1172.40 2.005916
1172.50 2.005613
1172.60 2.005311
1172.70 2.005008
1172.80 2.004706
1172.90 2.004404
1173.00 2.004102
1173.10 2.0038
1173.20 2.003498
1173.30 2.003196
1173.40 2.002894
1173.50 2.002592
1173.60 2.00229
1173.70 2.001988
1173.80 2.001687
1173.90 2.001385
1174.00 2.001083
1174.10 2.000781
1174.20 2.000479
1174.30 2.000178
1174.40 1.999876
1174.50 1.999575
1174.60 1.999274
1174.70 1.998972
1174.80 1.998671
1174.90 1.99837
1175.00 1.998069
1175.10 1.997768
1175.20 1.997467
1175.30 1.997166
1175.40 1.996865
1175.50 1.996564
1175.60 1.996264
1175.70 1.995963
1175.80 1.995663
1175.90 1.995362
1176.00 1.995062
1176.10 1.994762
1176.20 1.994461
1176.30 1.994161
1176.40 1.993861
1176.50 1.993561
1176.60 1.993261
1176.70 1.992962
1176.80 1.992662
1176.90 1.992362
1177.00 1.992062
1177.10 1.991763
1177.20 1.991463
1177.30 1.991164
1177.40 1.990865
1177.50 1.990565
1177.60 1.990266
1177.70 1.989967
1177.80 1.989668
1177.90 1.989369
1178.00 1.98907
1178.10 1.988771
1178.20 1.988473
1178.30 1.988174
1178.40 1.987875
1178.50 1.987577
1178.60 1.987279
1178.70 1.98698
1178.80 1.986682
1178.90 1.986384
1179.00 1.986085
1179.10 1.985787
1179.20 1.985489
1179.30 1.985191
1179.40 1.984894
1179.50 1.984596
1179.60 1.984298
1179.70 1.984
1179.80 1.983703
1179.90 1.983405
1180.00 1.983108
1180.10 1.98281
1180.20 1.982513
1180.30 1.982216
1180.40 1.981919
1180.50 1.981622
1180.60 1.981325
1180.70 1.981028
1180.80 1.980731
1180.90 1.980434
1181.00 1.980137
1181.10 1.979841
1181.20 1.979544
1181.30 1.979248
1181.40 1.978951
1181.50 1.978655
1181.60 1.978359
1181.70 1.978062
1181.80 1.977766
1181.90 1.97747
1182.00 1.977174
1182.10 1.976878
1182.20 1.976582
1182.30 1.976286
1182.40 1.975991
1182.50 1.975695
1182.60 1.9754
1182.70 1.975104
1182.80 1.974809
1182.90 1.974513
1183.00 1.974218
1183.10 1.973923
1183.20 1.973628
1183.30 1.973333
1183.40 1.973038
1183.50 1.972743
1183.60 1.972448
1183.70 1.972153
1183.80 1.971858
1183.90 1.971564
1184.00 1.971269
1184.10 1.970975
1184.20 1.97068
1184.30 1.970386
1184.40 1.970092
1184.50 1.969797
1184.60 1.969503
1184.70 1.969209
1184.80 1.968915
1184.90 1.968621
1185.00 1.968327
1185.10 1.968034
1185.20 1.96774
1185.30 1.967446
1185.40 1.967153
1185.50 1.966855
1185.60 1.966552
1185.70 1.966248
1185.80 1.965945
1185.90 1.965642
1186.00 1.965339
1186.10 1.965036
1186.20 1.964733
1186.30 1.964431
1186.40 1.964128
1186.50 1.963825
1186.60 1.963523
1186.70 1.96322
1186.80 1.962918
1186.90 1.962616
1187.00 1.962313
1187.10 1.962011
1187.20 1.961709
1187.30 1.961407
1187.40 1.961105
1187.50 1.960803
1187.60 1.960501
1187.70 1.9602
1187.80 1.959898
1187.90 1.959596
1188.00 1.959295
1188.10 1.958993
1188.20 1.958692
1188.30 1.958391
1188.40 1.958089
1188.50 1.957788
1188.60 1.957487
1188.70 1.957186
1188.80 1.956885
1188.90 1.956584
1189.00 1.956284
1189.10 1.955983
1189.20 1.955682
1189.30 1.955382
1189.40 1.955081
1189.50 1.954781
1189.60 1.954481
1189.70 1.95418
1189.80 1.95388
1189.90 1.95358
1190.00 1.95328
1190.10 1.95298
1190.20 1.95268
1190.30 1.95238
1190.40 1.95208
1190.50 1.951781
1190.60 1.951481
1190.70 1.951182
1190.80 1.950882
1190.90 1.950583
1191.00 1.950283
1191.10 1.949984
1191.20 1.949685
1191.30 1.949386
1191.40 1.949087
1191.50 1.948788
1191.60 1.948489
1191.70 1.94819
1191.80 1.947891
1191.90 1.947593
1192.00 1.947294
1192.10 1.946996
1192.20 1.946697
1192.30 1.946399
1192.40 1.946101
1192.50 1.945802
1192.60 1.945504
1192.70 1.945206
1192.80 1.944908
1192.90 1.94461
1193.00 1.944312
1193.10 1.944015
1193.20 1.943717
1193.30 1.943419
1193.40 1.943122
1193.50 1.942824
1193.60 1.942527
1193.70 1.942229
1193.80 1.941932
1193.90 1.941635
1194.00 1.941338
1194.10 1.941041
1194.20 1.940744
1194.30 1.940447
1194.40 1.94015
1194.50 1.939853
1194.60 1.939556
1194.70 1.93926
1194.80 1.938963
1194.90 1.938667
1195.00 1.93837
1195.10 1.938074
1195.20 1.937778
1195.30 1.937481
1195.40 1.937185
1195.50 1.936889
1195.60 1.936593
1195.70 1.936297
1195.80 1.936002
1195.90 1.935706
1196.00 1.93541
1196.10 1.935114
1196.20 1.934819
1196.30 1.934523
1196.40 1.934228
1196.50 1.933933
1196.60 1.933637
1196.70 1.933342
1196.80 1.933047
1196.90 1.932752
1197.00 1.932457
1197.10 1.932162
1197.20 1.931867
1197.30 1.931573
1197.40 1.931278
1197.50 1.930983
1197.60 1.930688
1197.70 1.930393
1197.80 1.930098
1197.90 1.929804
1198.00 1.929509
1198.10 1.929215
1198.20 1.92892
1198.30 1.928626
1198.40 1.928332
1198.50 1.928038
1198.60 1.927744
1198.70 1.927449
1198.80 1.927156
1198.90 1.926862
1199.00 1.926568
1199.10 1.926274
1199.20 1.92598
1199.30 1.925687
1199.40 1.925393
1199.50 1.9251
1199.60 1.924806
1199.70 1.924513
1199.80 1.92422
1199.90 1.923927
1200.00 1.923633
