# Version 2.1 - nm, norm@500 to 1, cut digits, bergeron_He_8000_80.dat_8000
# Wavelength(nm)  Flambda(ergs/cm^s/s/nm)
300.00 1.307879
300.10 1.30836
300.20 1.308859
300.30 1.309332
300.40 1.309635
300.50 1.309936
300.60 1.310237
300.70 1.310537
300.80 1.310837
300.90 1.311135
301.00 1.311434
301.10 1.311731
301.20 1.312028
301.30 1.312324
301.40 1.312619
301.50 1.312914
301.60 1.313208
301.70 1.313501
301.80 1.313794
301.90 1.314086
302.00 1.314377
302.10 1.31459
302.20 1.314793
302.30 1.314996
302.40 1.315199
302.50 1.315401
302.60 1.315602
302.70 1.315803
302.80 1.316003
302.90 1.316203
303.00 1.316402
303.10 1.3166
303.20 1.316798
303.30 1.317011
303.40 1.317362
303.50 1.317712
303.60 1.318061
303.70 1.31841
303.80 1.318758
303.90 1.319105
304.00 1.319451
304.10 1.319797
304.20 1.320142
304.30 1.320486
304.40 1.32083
304.50 1.321172
304.60 1.321402
304.70 1.321619
304.80 1.321836
304.90 1.322052
305.00 1.322267
305.10 1.322482
305.20 1.322696
305.30 1.32291
305.40 1.323123
305.50 1.323336
305.60 1.323548
305.70 1.323759
305.80 1.32397
305.90 1.32418
306.00 1.32439
306.10 1.324599
306.20 1.324808
306.30 1.325016
306.40 1.325238
306.50 1.325463
306.60 1.325688
306.70 1.325912
306.80 1.326135
306.90 1.326358
307.00 1.326581
307.10 1.326803
307.20 1.327024
307.30 1.327245
307.40 1.327465
307.50 1.327684
307.60 1.327903
307.70 1.328122
307.80 1.32834
307.90 1.328557
308.00 1.328774
308.10 1.32899
308.20 1.329206
308.30 1.329421
308.40 1.329635
308.50 1.329849
308.60 1.330063
308.70 1.330275
308.80 1.330455
308.90 1.330543
309.00 1.330911
309.10 1.331278
309.20 1.331645
309.30 1.332011
309.40 1.332359
309.50 1.332608
309.60 1.332856
309.70 1.333103
309.80 1.33335
309.90 1.333597
310.00 1.333842
310.10 1.334087
310.20 1.334332
310.30 1.334576
310.40 1.334808
310.50 1.335028
310.60 1.335247
310.70 1.335466
310.80 1.335684
310.90 1.335902
311.00 1.335989
311.10 1.336075
311.20 1.336162
311.30 1.336272
311.40 1.336453
311.50 1.336633
311.60 1.336813
311.70 1.336992
311.80 1.33717
311.90 1.337348
312.00 1.337526
312.10 1.337703
312.20 1.337673
312.30 1.337856
312.40 1.338298
312.50 1.338799
312.60 1.338884
312.70 1.338968
312.80 1.339052
312.90 1.339215
313.00 1.339463
313.10 1.339711
313.20 1.339958
313.30 1.340167
313.40 1.340272
313.50 1.340376
313.60 1.34048
313.70 1.340584
313.80 1.340687
313.90 1.340789
314.00 1.340892
314.10 1.341084
314.20 1.341275
314.30 1.341466
314.40 1.341657
314.50 1.341846
314.60 1.342036
314.70 1.342225
314.80 1.342526
314.90 1.342814
315.00 1.342738
315.10 1.343035
315.20 1.343331
315.30 1.343626
315.40 1.343921
315.50 1.344215
315.60 1.344509
315.70 1.344516
315.80 1.344522
315.90 1.344528
316.00 1.344534
316.10 1.344825
316.20 1.345116
316.30 1.345405
316.40 1.345125
316.50 1.345414
316.60 1.346271
316.70 1.34599
316.80 1.345708
316.90 1.345995
317.00 1.346281
317.10 1.346566
317.20 1.346851
317.30 1.346654
317.40 1.346563
317.50 1.346778
317.60 1.346991
317.70 1.347205
317.80 1.347418
317.90 1.348055
318.00 1.348199
318.10 1.348197
318.20 1.348195
318.30 1.348192
318.40 1.348263
318.50 1.348541
318.60 1.348526
318.70 1.348803
318.80 1.349079
318.90 1.349355
319.00 1.349776
319.10 1.34949
319.20 1.349367
319.30 1.349706
319.40 1.350044
319.50 1.350381
319.60 1.350381
319.70 1.350422
319.80 1.350463
319.90 1.350504
320.00 1.350654
320.10 1.350924
320.20 1.351157
320.30 1.350927
320.40 1.351195
320.50 1.351463
320.60 1.351152
320.70 1.351419
320.80 1.351685
320.90 1.35195
321.00 1.352215
321.10 1.352479
321.20 1.352461
321.30 1.352575
321.40 1.352689
321.50 1.352802
321.60 1.352915
321.70 1.353028
321.80 1.35304
321.90 1.352943
322.00 1.353701
322.10 1.353818
322.20 1.353934
322.30 1.35405
322.40 1.354166
322.50 1.354281
322.60 1.354396
322.70 1.35451
322.80 1.35442
322.90 1.354552
323.00 1.354685
323.10 1.354817
323.20 1.354948
323.30 1.35508
323.40 1.35521
323.50 1.355341
323.60 1.355471
323.70 1.3556
323.80 1.355729
323.90 1.355858
324.00 1.355892
324.10 1.355927
324.20 1.355961
324.30 1.35613
324.40 1.356463
324.50 1.356557
324.60 1.35665
324.70 1.356742
324.80 1.356835
324.90 1.356927
325.00 1.357018
325.10 1.357109
325.20 1.357144
325.30 1.357061
325.40 1.356978
325.50 1.357045
325.60 1.357296
325.70 1.357546
325.80 1.357796
325.90 1.357892
326.00 1.357822
326.10 1.357752
326.20 1.357681
326.30 1.357634
326.40 1.357652
326.50 1.357779
326.60 1.357905
326.70 1.35803
326.80 1.358156
326.90 1.358281
327.00 1.358405
327.10 1.358529
327.20 1.358653
327.30 1.358776
327.40 1.358899
327.50 1.359021
327.60 1.359143
327.70 1.359265
327.80 1.359386
327.90 1.359546
328.00 1.359694
328.10 1.359779
328.20 1.359863
328.30 1.359948
328.40 1.360031
328.50 1.3601
328.60 1.360165
328.70 1.36023
328.80 1.360295
328.90 1.360361
329.00 1.360426
329.10 1.360491
329.20 1.360556
329.30 1.360621
329.40 1.360685
329.50 1.360749
329.60 1.360812
329.70 1.360875
329.80 1.360938
329.90 1.361001
330.00 1.36102
330.10 1.360987
330.20 1.360953
330.30 1.360919
330.40 1.360961
330.50 1.361084
330.60 1.361207
330.70 1.361329
330.80 1.361452
330.90 1.361573
331.00 1.361695
331.10 1.361816
331.20 1.361936
331.30 1.362056
331.40 1.362176
331.50 1.362247
331.60 1.362259
331.70 1.36227
331.80 1.362293
331.90 1.362315
332.00 1.362337
332.10 1.362359
332.20 1.36238
332.30 1.362402
332.40 1.362423
332.50 1.362443
332.60 1.362464
332.70 1.362484
332.80 1.362504
332.90 1.362523
333.00 1.362543
333.10 1.362555
333.20 1.36256
333.30 1.362563
333.40 1.362567
333.50 1.362571
333.60 1.362574
333.70 1.362577
333.80 1.36258
333.90 1.362582
334.00 1.362584
334.10 1.362602
334.20 1.362637
334.30 1.362673
334.40 1.362708
334.50 1.362743
334.60 1.362778
334.70 1.362871
334.80 1.362952
334.90 1.362915
335.00 1.362877
335.10 1.363471
335.20 1.363166
335.30 1.363646
335.40 1.363467
335.50 1.363161
335.60 1.363235
335.70 1.363663
335.80 1.363357
335.90 1.363278
336.00 1.363477
336.10 1.363675
336.20 1.363874
336.30 1.363996
336.40 1.364025
336.50 1.364054
336.60 1.364082
336.70 1.364111
336.80 1.364139
336.90 1.364125
337.00 1.364062
337.10 1.363998
337.20 1.363934
337.30 1.36391
337.40 1.363942
337.50 1.363974
337.60 1.364006
337.70 1.364037
337.80 1.364068
337.90 1.36407
338.00 1.364037
338.10 1.364004
338.20 1.363971
338.30 1.363937
338.40 1.36394
338.50 1.364031
338.60 1.364122
338.70 1.364212
338.80 1.364302
338.90 1.364392
339.00 1.364481
339.10 1.36457
339.20 1.364659
339.30 1.364589
339.40 1.36429
339.50 1.36414
339.60 1.364171
339.70 1.364202
339.80 1.364232
339.90 1.364262
340.00 1.364292
340.10 1.364322
340.20 1.364352
340.30 1.364381
340.40 1.36441
340.50 1.364438
340.60 1.364467
340.70 1.364495
340.80 1.364388
340.90 1.364089
341.00 1.36395
341.10 1.364009
341.20 1.364067
341.30 1.364124
341.40 1.364182
341.50 1.364239
341.60 1.364295
341.70 1.364352
341.80 1.364334
341.90 1.364224
342.00 1.364115
342.10 1.364006
342.20 1.364246
342.30 1.364496
342.40 1.364447
342.50 1.364466
342.60 1.364485
342.70 1.364503
342.80 1.364522
342.90 1.36454
343.00 1.364516
343.10 1.36444
343.20 1.364364
343.30 1.364288
343.40 1.364248
343.50 1.364259
343.60 1.364271
343.70 1.364281
343.80 1.364292
343.90 1.364303
344.00 1.36428
344.10 1.36421
344.20 1.364139
344.30 1.364068
344.40 1.364096
344.50 1.364266
344.60 1.364041
344.70 1.363753
344.80 1.363442
344.90 1.363587
345.00 1.363951
345.10 1.36364
345.20 1.36353
345.30 1.36371
345.40 1.363889
345.50 1.364046
345.60 1.36406
345.70 1.363907
345.80 1.363754
345.90 1.363601
346.00 1.363449
346.10 1.363296
346.20 1.363195
346.30 1.363168
346.40 1.363142
346.50 1.363115
346.60 1.363089
346.70 1.363062
346.80 1.363034
346.90 1.363007
347.00 1.362979
347.10 1.362952
347.20 1.362931
347.30 1.362921
347.40 1.362911
347.50 1.3629
347.60 1.362889
347.70 1.362878
347.80 1.362867
347.90 1.362856
348.00 1.362844
348.10 1.362832
348.20 1.36282
348.30 1.362808
348.40 1.362796
348.50 1.362783
348.60 1.36277
348.70 1.362701
348.80 1.362637
348.90 1.362606
349.00 1.362574
349.10 1.362543
349.20 1.362511
349.30 1.362479
349.40 1.362446
349.50 1.362414
349.60 1.362381
349.70 1.362348
349.80 1.362315
349.90 1.362282
350.00 1.362249
350.10 1.362215
350.20 1.362181
350.30 1.362118
350.40 1.362014
350.50 1.361909
350.60 1.361804
350.70 1.361699
350.80 1.361594
350.90 1.361489
351.00 1.361383
351.10 1.361278
351.20 1.361172
351.30 1.361067
351.40 1.360987
351.50 1.360956
351.60 1.360924
351.70 1.360892
351.80 1.36086
351.90 1.360827
352.00 1.360794
352.10 1.360762
352.20 1.360618
352.30 1.360502
352.40 1.360442
352.50 1.360382
352.60 1.360322
352.70 1.360261
352.80 1.360201
352.90 1.36014
353.00 1.360079
353.10 1.360018
353.20 1.359957
353.30 1.359896
353.40 1.359834
353.50 1.359864
353.60 1.359917
353.70 1.35997
353.80 1.360022
353.90 1.359998
354.00 1.35984
354.10 1.359682
354.20 1.359524
354.30 1.359366
354.40 1.359208
354.50 1.35905
354.60 1.358891
354.70 1.358733
354.80 1.358663
354.90 1.358719
355.00 1.358774
355.10 1.35883
355.20 1.358885
355.30 1.358749
355.40 1.358613
355.50 1.358477
355.60 1.358341
355.70 1.358306
355.80 1.358316
355.90 1.358047
356.00 1.357833
356.10 1.357756
356.20 1.357678
356.30 1.357601
356.40 1.357523
356.50 1.357445
356.60 1.357368
356.70 1.35729
356.80 1.357211
356.90 1.357133
357.00 1.357055
357.10 1.356976
357.20 1.356898
357.30 1.356819
357.40 1.356782
357.50 1.35682
357.60 1.356858
357.70 1.356895
357.80 1.356542
357.90 1.356189
358.00 1.356058
358.10 1.355982
358.20 1.355906
358.30 1.35583
358.40 1.355754
358.50 1.355678
358.60 1.355602
358.70 1.355526
358.80 1.355449
358.90 1.355373
359.00 1.355337
359.10 1.355376
359.20 1.35541
359.30 1.355414
359.40 1.355418
359.50 1.35532
359.60 1.355196
359.70 1.355072
359.80 1.354987
359.90 1.354901
360.00 1.354811
360.10 1.354714
360.20 1.354617
360.30 1.35452
360.40 1.354422
360.50 1.354325
360.60 1.353817
360.70 1.353724
360.80 1.353631
360.90 1.353538
361.00 1.353208
361.10 1.352945
361.20 1.353459
361.30 1.353059
361.40 1.352834
361.50 1.352959
361.60 1.352525
361.70 1.352649
361.80 1.352704
361.90 1.352637
362.00 1.35257
362.10 1.352442
362.20 1.352288
362.30 1.352113
362.40 1.351939
362.50 1.351764
362.60 1.351589
362.70 1.35144
362.80 1.35108
362.90 1.351197
363.00 1.351314
363.10 1.351361
363.20 1.351407
363.30 1.350821
363.40 1.350941
363.50 1.351061
363.60 1.350318
363.70 1.350534
363.80 1.350558
363.90 1.350431
364.00 1.350304
364.10 1.350177
364.20 1.35005
364.30 1.349814
364.40 1.34955
364.50 1.349674
364.60 1.349504
364.70 1.349334
364.80 1.349164
364.90 1.348853
365.00 1.348542
365.10 1.348659
365.20 1.348776
365.30 1.348892
365.40 1.348154
365.50 1.34827
365.60 1.348386
365.70 1.348036
365.80 1.347687
365.90 1.347785
366.00 1.347995
366.10 1.347886
366.20 1.347777
366.30 1.347668
366.40 1.347559
366.50 1.346867
366.60 1.346981
366.70 1.346889
366.80 1.346797
366.90 1.346694
367.00 1.346569
367.10 1.346445
367.20 1.34632
367.30 1.346195
367.40 1.34607
367.50 1.345835
367.60 1.345572
367.70 1.345506
367.80 1.34544
367.90 1.345374
368.00 1.345175
368.10 1.345276
368.20 1.345101
368.30 1.344922
368.40 1.344743
368.50 1.344564
368.60 1.344384
368.70 1.344205
368.80 1.344026
368.90 1.344188
369.00 1.344129
369.10 1.343863
369.20 1.343977
369.30 1.343806
369.40 1.343636
369.50 1.343466
369.60 1.343155
369.70 1.342843
369.80 1.342791
369.90 1.342741
370.00 1.342691
370.10 1.342445
370.20 1.342132
370.30 1.341823
370.40 1.341934
370.50 1.341615
370.60 1.341316
370.70 1.341423
370.80 1.341112
370.90 1.340802
371.00 1.340908
371.10 1.341018
371.20 1.340707
371.30 1.340397
371.40 1.340672
371.50 1.340412
371.60 1.340153
371.70 1.339893
371.80 1.339633
371.90 1.339374
372.00 1.339718
372.10 1.339586
372.20 1.339416
372.30 1.339245
372.40 1.339074
372.50 1.338903
372.60 1.338732
372.70 1.338562
372.80 1.338252
372.90 1.337942
373.00 1.338045
373.10 1.338151
373.20 1.337844
373.30 1.337536
373.40 1.337638
373.50 1.337331
373.60 1.337024
373.70 1.337125
373.80 1.336588
373.90 1.336511
374.00 1.336408
374.10 1.336305
374.20 1.336202
374.30 1.336098
374.40 1.335893
374.50 1.335485
374.60 1.335377
374.70 1.335275
374.80 1.335174
374.90 1.335072
375.00 1.3349
375.10 1.334729
375.20 1.334558
375.30 1.334425
375.40 1.334293
375.50 1.33416
375.60 1.334027
375.70 1.333894
375.80 1.333762
375.90 1.333629
376.00 1.333718
376.10 1.333539
376.20 1.333357
376.30 1.333175
376.40 1.332993
376.50 1.332822
376.60 1.332669
376.70 1.332516
376.80 1.332367
376.90 1.332222
377.00 1.332076
377.10 1.331931
377.20 1.331772
377.30 1.331566
377.40 1.331359
377.50 1.331153
377.60 1.330969
377.70 1.330786
377.80 1.330603
377.90 1.33042
378.00 1.330028
378.10 1.329874
378.20 1.329724
378.30 1.329575
378.40 1.329425
378.50 1.329276
378.60 1.329127
378.70 1.328977
378.80 1.328828
378.90 1.328691
379.00 1.328578
379.10 1.328195
379.20 1.327812
379.30 1.327526
379.40 1.327337
379.50 1.327149
379.60 1.327022
379.70 1.32697
379.80 1.326849
379.90 1.326727
380.00 1.326605
380.10 1.326484
380.20 1.326362
380.30 1.32624
380.40 1.326119
380.50 1.325997
380.60 1.325521
380.70 1.325361
380.80 1.325201
380.90 1.325042
381.00 1.324882
381.10 1.324678
381.20 1.324626
381.30 1.324367
381.40 1.323954
381.50 1.324064
381.60 1.323852
381.70 1.323362
381.80 1.323248
381.90 1.323337
382.00 1.323426
382.10 1.322734
382.20 1.322979
382.30 1.322677
382.40 1.322432
382.50 1.322273
382.60 1.322114
382.70 1.321705
382.80 1.321286
382.90 1.321141
383.00 1.320995
383.10 1.320848
383.20 1.320678
383.30 1.320418
383.40 1.320209
383.50 1.320074
383.60 1.320207
383.70 1.32003
383.80 1.319852
383.90 1.319674
384.00 1.319497
384.10 1.319319
384.20 1.319141
384.30 1.318964
384.40 1.318802
384.50 1.318656
384.60 1.318509
384.70 1.318363
384.80 1.318103
384.90 1.31765
385.00 1.317626
385.10 1.317589
385.20 1.317088
385.30 1.316795
385.40 1.316575
385.50 1.316429
385.60 1.316282
385.70 1.316136
385.80 1.315971
385.90 1.315737
386.00 1.315551
386.10 1.315417
386.20 1.315326
386.30 1.315236
386.40 1.31485
386.50 1.314484
386.60 1.314253
386.70 1.314336
386.80 1.313847
386.90 1.31374
387.00 1.313823
387.10 1.313163
387.20 1.313226
387.30 1.313309
387.40 1.312828
387.50 1.312713
387.60 1.312156
387.70 1.312048
387.80 1.31194
387.90 1.311832
388.00 1.311605
388.10 1.311687
388.20 1.311251
388.30 1.311056
388.40 1.310862
388.50 1.310731
388.60 1.31058
388.70 1.309905
388.80 1.309986
388.90 1.31002
389.00 1.309393
389.10 1.309474
389.20 1.309129
389.30 1.309017
389.40 1.30873
389.50 1.308542
389.60 1.30837
389.70 1.307877
389.80 1.307717
389.90 1.307556
390.00 1.307396
390.10 1.307236
390.20 1.307076
390.30 1.306888
390.40 1.306671
390.50 1.306453
390.60 1.306235
390.70 1.306018
390.80 1.305786
390.90 1.30554
391.00 1.30583
391.10 1.305524
391.20 1.305143
391.30 1.304709
391.40 1.304539
391.50 1.304369
391.60 1.304199
391.70 1.304028
391.80 1.303858
391.90 1.303782
392.00 1.303661
392.10 1.303318
392.20 1.302945
392.30 1.302533
392.40 1.302398
392.50 1.302435
392.60 1.302271
392.70 1.301848
392.80 1.301925
392.90 1.3014
393.00 1.30113
393.10 1.300928
393.20 1.300786
393.30 1.300494
393.40 1.300352
393.50 1.300244
393.60 1.300034
393.70 1.299659
393.80 1.299768
393.90 1.299475
394.00 1.29915
394.10 1.298666
394.20 1.29838
394.30 1.298227
394.40 1.298044
394.50 1.298058
394.60 1.297809
394.70 1.297546
394.80 1.297224
394.90 1.296916
395.00 1.296967
395.10 1.296823
395.20 1.296766
395.30 1.296585
395.40 1.296405
395.50 1.296094
395.60 1.295735
395.70 1.29542
395.80 1.295224
395.90 1.295027
396.00 1.29479
396.10 1.294332
396.20 1.294406
396.30 1.294283
396.40 1.293757
396.50 1.293703
396.60 1.293177
396.70 1.293123
396.80 1.292766
396.90 1.292545
397.00 1.292617
397.10 1.292569
397.20 1.2922
397.30 1.292173
397.40 1.29175
397.50 1.291327
397.60 1.29093
397.70 1.290792
397.80 1.290655
397.90 1.290518
398.00 1.290384
398.10 1.29025
398.20 1.290013
398.30 1.28966
398.40 1.289315
398.50 1.28922
398.60 1.288722
398.70 1.288545
398.80 1.288484
398.90 1.288404
399.00 1.288289
399.10 1.287688
399.20 1.287536
399.30 1.287383
399.40 1.287231
399.50 1.287078
399.60 1.286789
399.70 1.286449
399.80 1.286109
399.90 1.285769
400.00 1.285437
400.10 1.285343
400.20 1.285348
400.30 1.285144
400.40 1.284783
400.50 1.284347
400.60 1.284224
400.70 1.284294
400.80 1.283845
400.90 1.283914
401.00 1.283274
401.10 1.283343
401.20 1.282703
401.30 1.282594
401.40 1.282516
401.50 1.282402
401.60 1.282271
401.70 1.281633
401.80 1.28155
401.90 1.281433
402.00 1.281133
402.10 1.281201
402.20 1.280564
402.30 1.280632
402.40 1.279996
402.50 1.280064
402.60 1.279466
402.70 1.279496
402.80 1.279212
402.90 1.27921
403.00 1.278926
403.10 1.278362
403.20 1.27843
403.30 1.277796
403.40 1.277713
403.50 1.277558
403.60 1.277355
403.70 1.277365
403.80 1.276744
403.90 1.276509
404.00 1.276167
404.10 1.276234
404.20 1.275952
404.30 1.27567
404.40 1.275419
404.50 1.275106
404.60 1.275172
404.70 1.274542
404.80 1.274609
404.90 1.273979
405.00 1.273896
405.10 1.273814
405.20 1.273681
405.30 1.273549
405.40 1.273268
405.50 1.272987
405.60 1.272706
405.70 1.272425
405.80 1.272144
405.90 1.271864
406.00 1.271655
406.10 1.271446
406.20 1.271238
406.30 1.271029
406.40 1.270808
406.50 1.270357
406.60 1.270248
406.70 1.269839
406.80 1.269484
406.90 1.269077
407.00 1.268867
407.10 1.268656
407.20 1.268446
407.30 1.268236
407.40 1.268026
407.50 1.267816
407.60 1.267606
407.70 1.267396
407.80 1.267186
407.90 1.266975
408.00 1.266728
408.10 1.266407
408.20 1.266143
408.30 1.265969
408.40 1.265795
408.50 1.265295
408.60 1.265149
408.70 1.265002
408.80 1.264804
408.90 1.26428
409.00 1.264054
409.10 1.263829
409.20 1.263603
409.30 1.263378
409.40 1.263155
409.50 1.263019
409.60 1.262883
409.70 1.262714
409.80 1.26241
409.90 1.262098
410.00 1.261482
410.10 1.261433
410.20 1.261142
410.30 1.260792
410.40 1.260486
410.50 1.260317
410.60 1.260149
410.70 1.259946
410.80 1.259606
410.90 1.259267
411.00 1.259007
411.10 1.258777
411.20 1.258547
411.30 1.258356
411.40 1.25831
411.50 1.257937
411.60 1.257564
411.70 1.25721
411.80 1.256936
411.90 1.256931
412.00 1.256657
412.10 1.256551
412.20 1.256109
412.30 1.256171
412.40 1.255586
412.50 1.255623
412.60 1.255015
412.70 1.254824
412.80 1.254737
412.90 1.25453
413.00 1.254018
413.10 1.253809
413.20 1.2536
413.30 1.253391
413.40 1.253182
413.50 1.252893
413.60 1.252368
413.70 1.252095
413.80 1.251823
413.90 1.251552
414.00 1.25128
414.10 1.251008
414.20 1.251056
414.30 1.250718
414.40 1.250646
414.50 1.250175
414.60 1.250315
414.70 1.250044
414.80 1.249773
414.90 1.249502
415.00 1.249231
415.10 1.24896
415.20 1.248659
415.30 1.248264
415.40 1.247869
415.50 1.247482
415.60 1.247356
415.70 1.247229
415.80 1.24704
415.90 1.246658
416.00 1.246275
416.10 1.245913
416.20 1.24563
416.30 1.245347
416.40 1.245065
416.50 1.244783
416.60 1.244514
416.70 1.244285
416.80 1.244295
416.90 1.244051
417.00 1.243758
417.10 1.243827
417.20 1.243558
417.30 1.243287
417.40 1.242923
417.50 1.242559
417.60 1.24226
417.70 1.242217
417.80 1.24195
417.90 1.241682
418.00 1.241414
418.10 1.241147
418.20 1.240879
418.30 1.240602
418.40 1.240094
418.50 1.239855
418.60 1.239616
418.70 1.239378
418.80 1.239139
418.90 1.2389
419.00 1.238662
419.10 1.238423
419.20 1.238185
419.30 1.237943
419.40 1.237582
419.50 1.237221
419.60 1.236858
419.70 1.236488
419.80 1.236117
419.90 1.235786
420.00 1.235577
420.10 1.235369
420.20 1.235161
420.30 1.234953
420.40 1.234745
420.50 1.234536
420.60 1.234328
420.70 1.23412
420.80 1.233912
420.90 1.2337
421.00 1.233346
421.10 1.232991
421.20 1.232648
421.30 1.232338
421.40 1.232028
421.50 1.231719
421.60 1.231409
421.70 1.2311
421.80 1.23079
421.90 1.230491
422.00 1.230222
422.10 1.229971
422.20 1.229792
422.30 1.229613
422.40 1.229432
422.50 1.229173
422.60 1.228914
422.70 1.228655
422.80 1.228396
422.90 1.228138
423.00 1.227879
423.10 1.227621
423.20 1.227363
423.30 1.227105
423.40 1.226846
423.50 1.226589
423.60 1.226331
423.70 1.226073
423.80 1.225815
423.90 1.225558
424.00 1.2253
424.10 1.225043
424.20 1.224786
424.30 1.224529
424.40 1.224203
424.50 1.223882
424.60 1.223561
424.70 1.22324
424.80 1.22292
424.90 1.2226
425.00 1.22228
425.10 1.22196
425.20 1.22164
425.30 1.22132
425.40 1.221006
425.50 1.220724
425.60 1.220442
425.70 1.220161
425.80 1.219879
425.90 1.219598
426.00 1.219317
426.10 1.219036
426.20 1.218755
426.30 1.218474
426.40 1.218194
426.50 1.217913
426.60 1.217633
426.70 1.217353
426.80 1.217073
426.90 1.216793
427.00 1.21652
427.10 1.216247
427.20 1.215975
427.30 1.215702
427.40 1.21543
427.50 1.215157
427.60 1.214885
427.70 1.214613
427.80 1.214341
427.90 1.21407
428.00 1.213798
428.10 1.213526
428.20 1.213255
428.30 1.212984
428.40 1.212712
428.50 1.212441
428.60 1.21217
428.70 1.2119
428.80 1.211629
428.90 1.211362
429.00 1.211095
429.10 1.210828
429.20 1.210561
429.30 1.210294
429.40 1.210027
429.50 1.209761
429.60 1.209494
429.70 1.209228
429.80 1.208962
429.90 1.208695
430.00 1.208429
430.10 1.208164
430.20 1.207898
430.30 1.207632
430.40 1.207367
430.50 1.207101
430.60 1.206836
430.70 1.206571
430.80 1.206306
430.90 1.206041
431.00 1.205776
431.10 1.205511
431.20 1.205247
431.30 1.204981
431.40 1.204698
431.50 1.204415
431.60 1.204133
431.70 1.203851
431.80 1.203568
431.90 1.203286
432.00 1.203004
432.10 1.202723
432.20 1.202441
432.30 1.202159
432.40 1.201878
432.50 1.201597
432.60 1.201315
432.70 1.201034
432.80 1.200753
432.90 1.200473
433.00 1.200192
433.10 1.199911
433.20 1.199631
433.30 1.19935
433.40 1.19906
433.50 1.198769
433.60 1.198479
433.70 1.198189
433.80 1.19793
433.90 1.197709
434.00 1.197415
434.10 1.197075
434.20 1.196736
434.30 1.196397
434.40 1.196059
434.50 1.19572
434.60 1.195382
434.70 1.195044
434.80 1.194711
434.90 1.194451
435.00 1.19419
435.10 1.19393
435.20 1.19367
435.30 1.19341
435.40 1.19315
435.50 1.19289
435.60 1.19263
435.70 1.19237
435.80 1.192111
435.90 1.191851
436.00 1.191592
436.10 1.191333
436.20 1.191073
436.30 1.190685
436.40 1.190162
436.50 1.189934
436.60 1.189706
436.70 1.189478
436.80 1.18925
436.90 1.189022
437.00 1.188795
437.10 1.188567
437.20 1.188302
437.30 1.188002
437.40 1.187699
437.50 1.187355
437.60 1.187011
437.70 1.186667
437.80 1.186323
437.90 1.18598
438.00 1.185638
438.10 1.185324
438.20 1.18501
438.30 1.184712
438.40 1.184668
438.50 1.184424
438.60 1.18416
438.70 1.18362
438.80 1.183429
438.90 1.183134
439.00 1.182616
439.10 1.182373
439.20 1.18213
439.30 1.181888
439.40 1.181645
439.50 1.181403
439.60 1.18114
439.70 1.180889
439.80 1.180777
439.90 1.180509
440.00 1.180241
440.10 1.179974
440.20 1.179705
440.30 1.179404
440.40 1.179104
440.50 1.178804
440.60 1.178504
440.70 1.178204
440.80 1.177904
440.90 1.177605
441.00 1.177305
441.10 1.177006
441.20 1.17669
441.30 1.176157
441.40 1.175804
441.50 1.175671
441.60 1.175538
441.70 1.175197
441.80 1.174844
441.90 1.174491
442.00 1.174137
442.10 1.173785
442.20 1.173432
442.30 1.173079
442.40 1.172819
442.50 1.172671
442.60 1.172523
442.70 1.172222
442.80 1.171718
442.90 1.171548
443.00 1.171352
443.10 1.171124
443.20 1.170886
443.30 1.170638
443.40 1.170265
443.50 1.169737
443.60 1.169789
443.70 1.169262
443.80 1.168808
443.90 1.168788
444.00 1.168391
444.10 1.168154
444.20 1.167787
444.30 1.167277
444.40 1.166972
444.50 1.166668
444.60 1.166399
444.70 1.166173
444.80 1.165939
444.90 1.165699
445.00 1.165458
445.10 1.165217
445.20 1.164937
445.30 1.164607
445.40 1.164279
445.50 1.16395
445.60 1.163621
445.70 1.163293
445.80 1.16301
445.90 1.162771
446.00 1.162531
446.10 1.162292
446.20 1.161926
446.30 1.161478
446.40 1.161532
446.50 1.161154
446.60 1.160777
446.70 1.160401
446.80 1.160099
446.90 1.159865
447.00 1.159483
447.10 1.159421
447.20 1.159017
447.30 1.158498
447.40 1.15855
447.50 1.158033
447.60 1.15771
447.70 1.157567
447.80 1.157183
447.90 1.156961
448.00 1.156684
448.10 1.156358
448.20 1.156031
448.30 1.155705
448.40 1.155378
448.50 1.155052
448.60 1.154748
448.70 1.154465
448.80 1.154182
448.90 1.153913
449.00 1.153644
449.10 1.153376
449.20 1.153107
449.30 1.152728
449.40 1.152443
449.50 1.152158
449.60 1.151872
449.70 1.151584
449.80 1.151297
449.90 1.15101
450.00 1.150724
450.10 1.150437
450.20 1.150151
450.30 1.149864
450.40 1.149541
450.50 1.149218
450.60 1.148895
450.70 1.148573
450.80 1.14825
450.90 1.147928
451.00 1.147645
451.10 1.147363
451.20 1.147235
451.30 1.147014
451.40 1.146506
451.50 1.145998
451.60 1.14605
451.70 1.145543
451.80 1.145595
451.90 1.145088
452.00 1.14486
452.10 1.144633
452.20 1.144266
452.30 1.1439
452.40 1.143533
452.50 1.143167
452.60 1.143038
452.70 1.142778
452.80 1.142396
452.90 1.142015
453.00 1.141634
453.10 1.141253
453.20 1.141004
453.30 1.140754
453.40 1.140505
453.50 1.140257
453.60 1.140008
453.70 1.139759
453.80 1.139469
453.90 1.139127
454.00 1.138786
454.10 1.138445
454.20 1.138145
454.30 1.137846
454.40 1.137547
454.50 1.137248
454.60 1.136949
454.70 1.136655
454.80 1.136365
454.90 1.136075
455.00 1.135785
455.10 1.135495
455.20 1.135206
455.30 1.134916
455.40 1.134627
455.50 1.134338
455.60 1.134049
455.70 1.13376
455.80 1.13341
455.90 1.13306
456.00 1.13271
456.10 1.132376
456.20 1.132083
456.30 1.131791
456.40 1.131499
456.50 1.131207
456.60 1.130915
456.70 1.130623
456.80 1.130332
456.90 1.13004
457.00 1.129749
457.10 1.129458
457.20 1.129061
457.30 1.128759
457.40 1.128456
457.50 1.128153
457.60 1.127851
457.70 1.127549
457.80 1.127247
457.90 1.126945
458.00 1.126643
458.10 1.126341
458.20 1.12604
458.30 1.125738
458.40 1.125437
458.50 1.125136
458.60 1.124835
458.70 1.124535
458.80 1.124234
458.90 1.123934
459.00 1.123634
459.10 1.123334
459.20 1.123035
459.30 1.122734
459.40 1.122434
459.50 1.122134
459.60 1.121834
459.70 1.121535
459.80 1.121235
459.90 1.120936
460.00 1.120637
460.10 1.120337
460.20 1.120039
460.30 1.11974
460.40 1.119441
460.50 1.119143
460.60 1.118844
460.70 1.118566
460.80 1.118297
460.90 1.118028
461.00 1.11776
461.10 1.117491
461.20 1.117269
461.30 1.117065
461.40 1.11675
461.50 1.116407
461.60 1.116064
461.70 1.115722
461.80 1.115426
461.90 1.11513
462.00 1.114834
462.10 1.114539
462.20 1.114243
462.30 1.113948
462.40 1.113653
462.50 1.113358
462.60 1.113063
462.70 1.112768
462.80 1.112474
462.90 1.11218
463.00 1.111885
463.10 1.111591
463.20 1.111275
463.30 1.110949
463.40 1.110623
463.50 1.110298
463.60 1.109972
463.70 1.109647
463.80 1.109322
463.90 1.109032
464.00 1.10875
464.10 1.108469
464.20 1.108188
464.30 1.107907
464.40 1.107626
464.50 1.107345
464.60 1.107064
464.70 1.106767
464.80 1.106464
464.90 1.106161
465.00 1.105858
465.10 1.105555
465.20 1.105252
465.30 1.104955
465.40 1.104662
465.50 1.104369
465.60 1.104076
465.70 1.103783
465.80 1.103491
465.90 1.103156
466.00 1.102811
466.10 1.102466
466.20 1.102122
466.30 1.101798
466.40 1.101483
466.50 1.101168
466.60 1.100853
466.70 1.100539
466.80 1.100224
466.90 1.09991
467.00 1.099596
467.10 1.099282
467.20 1.098968
467.30 1.098951
467.40 1.098678
467.50 1.09831
467.60 1.097943
467.70 1.097576
467.80 1.097209
467.90 1.096955
468.00 1.096747
468.10 1.096538
468.20 1.09633
468.30 1.095937
468.40 1.09547
468.50 1.095002
468.60 1.095054
468.70 1.094587
468.80 1.094253
468.90 1.094172
469.00 1.093706
469.10 1.093331
469.20 1.092995
469.30 1.092659
469.40 1.092323
469.50 1.092054
469.60 1.091812
469.70 1.09157
469.80 1.091329
469.90 1.09107
470.00 1.090606
470.10 1.090291
470.20 1.090037
470.30 1.089784
470.40 1.089531
470.50 1.089277
470.60 1.08896
470.70 1.088626
470.80 1.088292
470.90 1.087958
471.00 1.087522
471.10 1.087461
471.20 1.087113
471.30 1.086652
471.40 1.086704
471.50 1.086243
471.60 1.085782
471.70 1.085322
471.80 1.085067
471.90 1.084863
472.00 1.08466
472.10 1.084456
472.20 1.084128
472.30 1.08377
472.40 1.083412
472.50 1.083053
472.60 1.082695
472.70 1.082665
472.80 1.082441
472.90 1.082137
473.00 1.081832
473.10 1.081528
473.20 1.081224
473.30 1.080919
473.40 1.080616
473.50 1.080312
473.60 1.080008
473.70 1.079705
473.80 1.079379
473.90 1.079048
474.00 1.078717
474.10 1.078386
474.20 1.078045
474.30 1.0777
474.40 1.077355
474.50 1.077011
474.60 1.076669
474.70 1.076355
474.80 1.07604
474.90 1.075726
475.00 1.075412
475.10 1.075098
475.20 1.074784
475.30 1.07447
475.40 1.074196
475.50 1.073931
475.60 1.073666
475.70 1.073402
475.80 1.073138
475.90 1.072873
476.00 1.072609
476.10 1.072345
476.20 1.072053
476.30 1.071748
476.40 1.071444
476.50 1.071139
476.60 1.070835
476.70 1.070531
476.80 1.070228
476.90 1.069919
477.00 1.069609
477.10 1.069299
477.20 1.068989
477.30 1.06868
477.40 1.06837
477.50 1.068061
477.60 1.067752
477.70 1.067443
477.80 1.067135
477.90 1.066826
478.00 1.066518
478.10 1.06621
478.20 1.065902
478.30 1.065594
478.40 1.065286
478.50 1.064979
478.60 1.064671
478.70 1.064266
478.80 1.063822
478.90 1.063532
479.00 1.06328
479.10 1.063028
479.20 1.062777
479.30 1.062526
479.40 1.062242
479.50 1.06194
479.60 1.061638
479.70 1.061336
479.80 1.061034
479.90 1.060732
480.00 1.060431
480.10 1.060129
480.20 1.059828
480.30 1.059527
480.40 1.059226
480.50 1.058925
480.60 1.058625
480.70 1.058324
480.80 1.058024
480.90 1.057724
481.00 1.057424
481.10 1.057124
481.20 1.05682
481.30 1.056516
481.40 1.056213
481.50 1.055909
481.60 1.055606
481.70 1.055302
481.80 1.054999
481.90 1.054696
482.00 1.054393
482.10 1.054091
482.20 1.053788
482.30 1.053491
482.40 1.053194
482.50 1.052896
482.60 1.052599
482.70 1.052302
482.80 1.052006
482.90 1.051709
483.00 1.051413
483.10 1.051116
483.20 1.05082
483.30 1.050524
483.40 1.050228
483.50 1.049933
483.60 1.049637
483.70 1.049295
483.80 1.048953
483.90 1.048612
484.00 1.048271
484.10 1.047929
484.20 1.047585
484.30 1.047238
484.40 1.046892
484.50 1.046547
484.60 1.046201
484.70 1.045861
484.80 1.04559
484.90 1.045319
485.00 1.045049
485.10 1.044778
485.20 1.044508
485.30 1.044237
485.40 1.043967
485.50 1.043697
485.60 1.043428
485.70 1.043131
485.80 1.042834
485.90 1.042537
486.00 1.042241
486.10 1.041945
486.20 1.041649
486.30 1.041353
486.40 1.041057
486.50 1.040761
486.60 1.040466
486.70 1.040169
486.80 1.03986
486.90 1.039551
487.00 1.039243
487.10 1.038934
487.20 1.03864
487.30 1.038345
487.40 1.038051
487.50 1.037757
487.60 1.037463
487.70 1.037169
487.80 1.036876
487.90 1.036582
488.00 1.036289
488.10 1.035996
488.20 1.0357
488.30 1.03537
488.40 1.035041
488.50 1.034711
488.60 1.034382
488.70 1.034053
488.80 1.03363
488.90 1.033207
489.00 1.032821
489.10 1.03253
489.20 1.032239
489.30 1.031948
489.40 1.031657
489.50 1.031366
489.60 1.031076
489.70 1.030785
489.80 1.030847
489.90 1.030519
490.00 1.030193
490.10 1.029866
490.20 1.029539
490.30 1.029213
490.40 1.028912
490.50 1.028611
490.60 1.02831
490.70 1.02801
490.80 1.027591
490.90 1.027172
491.00 1.02699
491.10 1.026809
491.20 1.026391
491.30 1.025973
491.40 1.025586
491.50 1.02561
491.60 1.025193
491.70 1.024776
491.80 1.02439
491.90 1.024414
492.00 1.023998
492.10 1.023582
492.20 1.023166
492.30 1.023221
492.40 1.022805
492.50 1.02239
492.60 1.021983
492.70 1.021686
492.80 1.021389
492.90 1.021092
493.00 1.0208
493.10 1.020571
493.20 1.020342
493.30 1.020113
493.40 1.019884
493.50 1.019656
493.60 1.019243
493.70 1.01883
493.80 1.018417
493.90 1.018093
494.00 1.017907
494.10 1.017677
494.20 1.017354
494.30 1.017031
494.40 1.016709
494.50 1.016386
494.60 1.016076
494.70 1.015923
494.80 1.015703
494.90 1.015292
495.00 1.014882
495.10 1.014472
495.20 1.014207
495.30 1.013941
495.40 1.013676
495.50 1.013411
495.60 1.013146
495.70 1.012881
495.80 1.012616
495.90 1.012352
496.00 1.012087
496.10 1.011777
496.20 1.011377
496.30 1.011084
496.40 1.01079
496.50 1.010496
496.60 1.010203
496.70 1.009865
496.80 1.009527
496.90 1.009189
497.00 1.008852
497.10 1.008514
497.20 1.008177
497.30 1.007863
497.40 1.007615
497.50 1.007367
497.60 1.007068
497.70 1.006671
497.80 1.006368
497.90 1.006065
498.00 1.005763
498.10 1.00546
498.20 1.005158
498.30 1.004856
498.40 1.004554
498.50 1.004252
498.60 1.003951
498.70 1.003777
498.80 1.003604
498.90 1.003202
499.00 1.0028
499.10 1.002398
499.20 1.002135
499.30 1.002081
499.40 1.001789
499.50 1.001497
499.60 1.001205
499.70 1.000913
499.80 1.000608
499.90 1.000304
500.00 1
500.10 0.9996961
500.20 0.999386
500.30 0.9990625
500.40 0.9987392
500.50 0.998416
500.60 0.998093
500.70 0.9977702
500.80 0.9974672
500.90 0.9972059
501.00 0.9969447
501.10 0.9966837
501.20 0.996286
501.30 0.9958886
501.40 0.9954914
501.50 0.9952305
501.60 0.9951511
501.70 0.9947544
501.80 0.9943579
501.90 0.9939618
502.00 0.9936302
502.10 0.9934355
502.20 0.9932269
502.30 0.9928314
502.40 0.9924844
502.50 0.99224
502.60 0.9919958
502.70 0.9917516
502.80 0.9915076
502.90 0.9912636
503.00 0.9909717
503.10 0.9905778
503.20 0.9901841
503.30 0.9897907
503.40 0.9894258
503.50 0.9891415
503.60 0.9888573
503.70 0.9885733
503.80 0.9883064
503.90 0.9881638
504.00 0.9879413
504.10 0.9875494
504.20 0.9871577
504.30 0.9867662
504.40 0.9864333
504.50 0.9862664
504.60 0.9860413
504.70 0.9856506
504.80 0.9852601
504.90 0.9853173
505.00 0.9849271
505.10 0.9845372
505.20 0.9841769
505.30 0.9839008
505.40 0.9836249
505.50 0.983349
505.60 0.9830607
505.70 0.9827455
505.80 0.9824305
505.90 0.9821157
506.00 0.9818011
506.10 0.9814866
506.20 0.9811791
506.30 0.9808911
506.40 0.9806033
506.50 0.9803156
506.60 0.9800281
506.70 0.9797407
506.80 0.9794534
506.90 0.9791663
507.00 0.9788794
507.10 0.9785608
507.20 0.9781966
507.30 0.9778941
507.40 0.9775918
507.50 0.9772896
507.60 0.9769876
507.70 0.9766857
507.80 0.976384
507.90 0.9760825
508.00 0.9757811
508.10 0.9754799
508.20 0.9751789
508.30 0.974878
508.40 0.9745773
508.50 0.9742767
508.60 0.9739763
508.70 0.9736761
508.80 0.9733545
508.90 0.9731067
509.00 0.9729063
509.10 0.9726712
509.20 0.9723621
509.30 0.9720533
509.40 0.9717446
509.50 0.971436
509.60 0.9711276
509.70 0.9708194
509.80 0.9705114
509.90 0.9702035
510.00 0.9698958
510.10 0.9695883
510.20 0.9692809
510.30 0.9689812
510.40 0.9687031
510.50 0.9684251
510.60 0.9681472
510.70 0.9678695
510.80 0.9675919
510.90 0.9673145
511.00 0.9670372
511.10 0.9667601
511.20 0.9664831
511.30 0.9662063
511.40 0.9659295
511.50 0.965653
511.60 0.965364
511.70 0.9650484
511.80 0.964733
511.90 0.9644178
512.00 0.9641027
512.10 0.9637878
512.20 0.9634731
512.30 0.9631633
512.40 0.9628668
512.50 0.9625705
512.60 0.9622744
512.70 0.9619785
512.80 0.9616827
512.90 0.961387
513.00 0.9610916
513.10 0.9607962
513.20 0.9605011
513.30 0.960206
513.40 0.9599112
513.50 0.9596165
513.60 0.9593219
513.70 0.9590276
513.80 0.9587333
513.90 0.9584393
514.00 0.9581352
514.10 0.9578297
514.20 0.9575243
514.30 0.9572191
514.40 0.9569141
514.50 0.9566092
514.60 0.9563045
514.70 0.9559999
514.80 0.9556956
514.90 0.9553914
515.00 0.9550873
515.10 0.9547834
515.20 0.9544797
515.30 0.9541761
515.40 0.9538727
515.50 0.9535695
515.60 0.9532664
515.70 0.9529635
515.80 0.9526608
515.90 0.9523582
516.00 0.9520558
516.10 0.9517536
516.20 0.9514515
516.30 0.9511495
516.40 0.9508478
516.50 0.9505488
516.60 0.9502641
516.70 0.9499794
516.80 0.949695
516.90 0.9494106
517.00 0.9491264
517.10 0.9488424
517.20 0.9485585
517.30 0.9482748
517.40 0.9479912
517.50 0.9477078
517.60 0.9474245
517.70 0.9471413
517.80 0.9468583
517.90 0.9465755
518.00 0.9462928
518.10 0.9460102
518.20 0.9457278
518.30 0.9454456
518.40 0.9451635
518.50 0.9448815
518.60 0.9445997
518.70 0.944318
518.80 0.9440365
518.90 0.9437552
519.00 0.9434739
519.10 0.9431848
519.20 0.9428867
519.30 0.9425888
519.40 0.942291
519.50 0.9419934
519.60 0.941696
519.70 0.9413987
519.80 0.9411016
519.90 0.9408047
520.00 0.9405079
520.10 0.9402112
520.20 0.9399147
520.30 0.9396184
520.40 0.9393222
520.50 0.9390262
520.60 0.9387304
520.70 0.9384347
520.80 0.9381392
520.90 0.9378438
521.00 0.9375486
521.10 0.9372535
521.20 0.9369586
521.30 0.9366639
521.40 0.9363693
521.50 0.9360748
521.60 0.9357806
521.70 0.9354864
521.80 0.9351925
521.90 0.9348987
522.00 0.934605
522.10 0.9343115
522.20 0.9340182
522.30 0.933725
522.40 0.933432
522.50 0.9331391
522.60 0.9328464
522.70 0.9325539
522.80 0.9322615
522.90 0.9319692
523.00 0.9316771
523.10 0.9313852
523.20 0.9310934
523.30 0.9308018
523.40 0.9305103
523.50 0.930219
523.60 0.9299278
523.70 0.9296368
523.80 0.929346
523.90 0.9290553
524.00 0.9287647
524.10 0.9284744
524.20 0.9281841
524.30 0.9278893
524.40 0.9275908
524.50 0.9272925
524.60 0.9269944
524.70 0.9266964
524.80 0.9263986
524.90 0.9261009
525.00 0.9258034
525.10 0.9255061
525.20 0.9252089
525.30 0.9249118
525.40 0.924615
525.50 0.9243183
525.60 0.9240217
525.70 0.9237253
525.80 0.9234291
525.90 0.923133
526.00 0.9228371
526.10 0.9225414
526.20 0.9222458
526.30 0.9219503
526.40 0.9216551
526.50 0.9213599
526.60 0.921065
526.70 0.9207702
526.80 0.9204755
526.90 0.920181
527.00 0.9198867
527.10 0.9195925
527.20 0.9192985
527.30 0.9190046
527.40 0.9187109
527.50 0.9184174
527.60 0.918124
527.70 0.9178307
527.80 0.9175377
527.90 0.9172447
528.00 0.916952
528.10 0.9166593
528.20 0.9163669
528.30 0.9160746
528.40 0.9157824
528.50 0.9154904
528.60 0.9151986
528.70 0.9149069
528.80 0.9146154
528.90 0.914324
529.00 0.9140328
529.10 0.9137418
529.20 0.9134509
529.30 0.9131601
529.40 0.9128695
529.50 0.9125801
529.60 0.9122969
529.70 0.9120139
529.80 0.911731
529.90 0.9114483
530.00 0.9111657
530.10 0.9108833
530.20 0.910601
530.30 0.9103189
530.40 0.910037
530.50 0.9097551
530.60 0.9094734
530.70 0.9091919
530.80 0.9089105
530.90 0.9086293
531.00 0.9083482
531.10 0.9080673
531.20 0.9077865
531.30 0.9075058
531.40 0.9072253
531.50 0.906945
531.60 0.9066648
531.70 0.9063847
531.80 0.9061048
531.90 0.905825
532.00 0.9055454
532.10 0.9052659
532.20 0.9049766
532.30 0.9046822
532.40 0.904388
532.50 0.9040939
532.60 0.9038
532.70 0.9035063
532.80 0.9032127
532.90 0.9029193
533.00 0.902626
533.10 0.9023329
533.20 0.90204
533.30 0.9017472
533.40 0.9014545
533.50 0.901162
533.60 0.9008697
533.70 0.9005775
533.80 0.9002855
533.90 0.8999936
534.00 0.8997019
534.10 0.8994104
534.20 0.899119
534.30 0.8988277
534.40 0.8985367
534.50 0.8982457
534.60 0.897955
534.70 0.8976643
534.80 0.8973752
534.90 0.8970919
535.00 0.8968087
535.10 0.8965257
535.20 0.8962428
535.30 0.8959601
535.40 0.8956775
535.50 0.8953951
535.60 0.8951128
535.70 0.8948307
535.80 0.8945487
535.90 0.8942669
536.00 0.8939852
536.10 0.8937037
536.20 0.8934223
536.30 0.8931411
536.40 0.89286
536.50 0.892579
536.60 0.8922982
536.70 0.8920176
536.80 0.8917371
536.90 0.8914567
537.00 0.8911765
537.10 0.8908965
537.20 0.8906166
537.30 0.8903368
537.40 0.8900572
537.50 0.8897777
537.60 0.8894984
537.70 0.8892192
537.80 0.8889402
537.90 0.8886613
538.00 0.8883825
538.10 0.8881039
538.20 0.8878255
538.30 0.8875472
538.40 0.887269
538.50 0.886991
538.60 0.8867131
538.70 0.8864354
538.80 0.8861578
538.90 0.8858804
539.00 0.8856031
539.10 0.8853259
539.20 0.8850489
539.30 0.8847721
539.40 0.8844954
539.50 0.8842188
539.60 0.8839424
539.70 0.8836661
539.80 0.88339
539.90 0.883114
540.00 0.8828381
540.10 0.8825624
540.20 0.8822762
540.30 0.8819859
540.40 0.8816956
540.50 0.8814056
540.60 0.8811156
540.70 0.8808259
540.80 0.8805363
540.90 0.8802468
541.00 0.8799575
541.10 0.8796683
541.20 0.8793793
541.30 0.8790905
541.40 0.8788018
541.50 0.8785133
541.60 0.8782249
541.70 0.8779367
541.80 0.8776486
541.90 0.8773607
542.00 0.8770729
542.10 0.8767853
542.20 0.8764978
542.30 0.8762105
542.40 0.8759233
542.50 0.8756363
542.60 0.8753495
542.70 0.8750628
542.80 0.8747762
542.90 0.8744898
543.00 0.8742035
543.10 0.8739174
543.20 0.8736315
543.30 0.8733457
543.40 0.8730601
543.50 0.8727746
543.60 0.8724892
543.70 0.872204
543.80 0.871919
543.90 0.8716341
544.00 0.8713493
544.10 0.8710648
544.20 0.8707803
544.30 0.870496
544.40 0.8702119
544.50 0.8699279
544.60 0.8696441
544.70 0.8693604
544.80 0.8690768
544.90 0.8687934
545.00 0.8685102
545.10 0.8682271
545.20 0.8679442
545.30 0.8676614
545.40 0.8673787
545.50 0.8670962
545.60 0.8668185
545.70 0.866543
545.80 0.8662676
545.90 0.8659924
546.00 0.8657173
546.10 0.8654423
546.20 0.8651675
546.30 0.8648928
546.40 0.8646183
546.50 0.8643439
546.60 0.8640696
546.70 0.8637955
546.80 0.8635216
546.90 0.8632478
547.00 0.8629741
547.10 0.8627005
547.20 0.8624272
547.30 0.8621539
547.40 0.8618808
547.50 0.8616078
547.60 0.861335
547.70 0.8610623
547.80 0.8607898
547.90 0.8605174
548.00 0.8602451
548.10 0.859973
548.20 0.859701
548.30 0.8594234
548.40 0.8591378
548.50 0.8588524
548.60 0.8585671
548.70 0.8582819
548.80 0.857997
548.90 0.8577121
549.00 0.8574275
549.10 0.8571429
549.20 0.8568586
549.30 0.8565743
549.40 0.8562902
549.50 0.8560063
549.60 0.8557225
549.70 0.8554389
549.80 0.8551554
549.90 0.8548721
550.00 0.8545889
550.10 0.8543059
550.20 0.854023
550.30 0.8537403
550.40 0.8534577
550.50 0.8531753
550.60 0.852893
550.70 0.8526109
550.80 0.8523289
550.90 0.852047
551.00 0.8517674
551.10 0.8514992
551.20 0.8512311
551.30 0.8509632
551.40 0.8506954
551.50 0.8504278
551.60 0.8501603
551.70 0.8498929
551.80 0.8496257
551.90 0.8493586
552.00 0.8490917
552.10 0.8488249
552.20 0.8485582
552.30 0.8482917
552.40 0.8480253
552.50 0.847759
552.60 0.8474929
552.70 0.8472269
552.80 0.8469611
552.90 0.8466954
553.00 0.8464298
553.10 0.8461644
553.20 0.8458991
553.30 0.8456339
553.40 0.8453689
553.50 0.845104
553.60 0.8448392
553.70 0.8445746
553.80 0.844302
553.90 0.8440242
554.00 0.8437465
554.10 0.8434689
554.20 0.8431915
554.30 0.8429143
554.40 0.8426372
554.50 0.8423602
554.60 0.8420834
554.70 0.8418067
554.80 0.8415302
554.90 0.8412538
555.00 0.8409775
555.10 0.8407014
555.20 0.8404255
555.30 0.8401497
555.40 0.839874
555.50 0.8395985
555.60 0.8393231
555.70 0.8390479
555.80 0.8387728
555.90 0.8384978
556.00 0.838223
556.10 0.8379484
556.20 0.8376739
556.30 0.8373995
556.40 0.8371252
556.50 0.8368511
556.60 0.8365769
556.70 0.8363029
556.80 0.8360289
556.90 0.8357552
557.00 0.8354815
557.10 0.835208
557.20 0.8349347
557.30 0.8346615
557.40 0.8343884
557.50 0.8341155
557.60 0.8338427
557.70 0.8335701
557.80 0.8332976
557.90 0.8330252
558.00 0.832753
558.10 0.8324809
558.20 0.832209
558.30 0.8319372
558.40 0.8316655
558.50 0.831394
558.60 0.8311227
558.70 0.8308514
558.80 0.8305803
558.90 0.8303094
559.00 0.8300386
559.10 0.8297679
559.20 0.8294974
559.30 0.829227
559.40 0.8289568
559.50 0.8286867
559.60 0.8284167
559.70 0.8281469
559.80 0.8278772
559.90 0.8276077
560.00 0.8273383
560.10 0.827069
560.20 0.8267999
560.30 0.8265309
560.40 0.8262621
560.50 0.8259933
560.60 0.8257248
560.70 0.8254564
560.80 0.8251881
560.90 0.8249199
561.00 0.8246519
561.10 0.824384
561.20 0.8241163
561.30 0.8238487
561.40 0.8235812
561.50 0.8233139
561.60 0.8230467
561.70 0.8227797
561.80 0.8225128
561.90 0.822246
562.00 0.8219794
562.10 0.8217128
562.20 0.8214462
562.30 0.8211797
562.40 0.8209134
562.50 0.8206472
562.60 0.8203811
562.70 0.8201152
562.80 0.8198494
562.90 0.8195837
563.00 0.8193182
563.10 0.8190528
563.20 0.8187876
563.30 0.8185225
563.40 0.8182575
563.50 0.8179927
563.60 0.817728
563.70 0.8174634
563.80 0.817199
563.90 0.8169347
564.00 0.8166705
564.10 0.8164065
564.20 0.8161426
564.30 0.8158789
564.40 0.8156153
564.50 0.8153518
564.60 0.8150885
564.70 0.8148253
564.80 0.8145622
564.90 0.8142956
565.00 0.8140201
565.10 0.8137447
565.20 0.8134695
565.30 0.8131944
565.40 0.8129195
565.50 0.8126447
565.60 0.8123701
565.70 0.8120956
565.80 0.8118212
565.90 0.811547
566.00 0.8112729
566.10 0.810999
566.20 0.8107252
566.30 0.8104516
566.40 0.8101781
566.50 0.8099047
566.60 0.8096315
566.70 0.8093585
566.80 0.8090855
566.90 0.8088127
567.00 0.8085401
567.10 0.8082676
567.20 0.8079952
567.30 0.807723
567.40 0.8074509
567.50 0.807179
567.60 0.8069072
567.70 0.8066367
567.80 0.8063713
567.90 0.806106
568.00 0.8058409
568.10 0.8055759
568.20 0.8053111
568.30 0.8050463
568.40 0.8047818
568.50 0.8045173
568.60 0.804253
568.70 0.8039888
568.80 0.8037248
568.90 0.8034609
569.00 0.8031971
569.10 0.8029335
569.20 0.80267
569.30 0.8024066
569.40 0.8021434
569.50 0.8018803
569.60 0.8016174
569.70 0.8013545
569.80 0.8010918
569.90 0.8008293
570.00 0.8005669
570.10 0.8003046
570.20 0.8000425
570.30 0.7997804
570.40 0.7995186
570.50 0.7992568
570.60 0.7989952
570.70 0.7987337
570.80 0.7984724
570.90 0.7982112
571.00 0.7979501
571.10 0.7976892
571.20 0.7974284
571.30 0.7971677
571.40 0.7969072
571.50 0.7966468
571.60 0.7963865
571.70 0.7961264
571.80 0.7958664
571.90 0.7956065
572.00 0.7953468
572.10 0.7950872
572.20 0.7948277
572.30 0.7945684
572.40 0.7943092
572.50 0.7940501
572.60 0.7937911
572.70 0.7935323
572.80 0.7932737
572.90 0.7930151
573.00 0.7927567
573.10 0.7924984
573.20 0.7922403
573.30 0.7919823
573.40 0.7917236
573.50 0.791464
573.60 0.7912046
573.70 0.7909453
573.80 0.7906861
573.90 0.7904271
574.00 0.7901681
574.10 0.7899094
574.20 0.7896507
574.30 0.7893922
574.40 0.7891338
574.50 0.7888756
574.60 0.7886174
574.70 0.7883594
574.80 0.7881016
574.90 0.7878439
575.00 0.7875863
575.10 0.7873288
575.20 0.7870715
575.30 0.7868143
575.40 0.7865572
575.50 0.7863003
575.60 0.7860434
575.70 0.7857868
575.80 0.7855302
575.90 0.7852738
576.00 0.7850175
576.10 0.7847614
576.20 0.7845053
576.30 0.7842495
576.40 0.7839937
576.50 0.7837381
576.60 0.7834826
576.70 0.7832272
576.80 0.7829719
576.90 0.7827168
577.00 0.7824618
577.10 0.782207
577.20 0.7819523
577.30 0.7816977
577.40 0.7814432
577.50 0.7811889
577.60 0.7809285
577.70 0.7806582
577.80 0.780388
577.90 0.7801179
578.00 0.779848
578.10 0.7795782
578.20 0.7793086
578.30 0.7790391
578.40 0.7787697
578.50 0.7785005
578.60 0.7782315
578.70 0.7779625
578.80 0.7776937
578.90 0.7774251
579.00 0.7771565
579.10 0.7768882
579.20 0.7766199
579.30 0.7763518
579.40 0.7760839
579.50 0.775816
579.60 0.7755484
579.70 0.7752808
579.80 0.7750134
579.90 0.7747461
580.00 0.774479
580.10 0.7742185
580.20 0.7739685
580.30 0.7737188
580.40 0.7734691
580.50 0.7732196
580.60 0.7729701
580.70 0.7727209
580.80 0.7724717
580.90 0.7722227
581.00 0.7719738
581.10 0.771725
581.20 0.7714763
581.30 0.7712278
581.40 0.7709794
581.50 0.7707311
581.60 0.770483
581.70 0.7702349
581.80 0.769987
581.90 0.7697393
582.00 0.7694916
582.10 0.7692377
582.20 0.7689734
582.30 0.7687093
582.40 0.7684454
582.50 0.7681816
582.60 0.7679179
582.70 0.7676543
582.80 0.7673909
582.90 0.7671276
583.00 0.7668645
583.10 0.7666015
583.20 0.7663386
583.30 0.7660759
583.40 0.7658133
583.50 0.7655508
583.60 0.7652981
583.70 0.7650613
583.80 0.7648246
583.90 0.764588
584.00 0.7643515
584.10 0.7641151
584.20 0.7638789
584.30 0.7636427
584.40 0.7634067
584.50 0.7631708
584.60 0.762935
584.70 0.7626994
584.80 0.7624638
584.90 0.7622238
585.00 0.7619633
585.10 0.7617028
585.20 0.7614425
585.30 0.7611824
585.40 0.7609223
585.50 0.7606624
585.60 0.7604027
585.70 0.760143
585.80 0.7598835
585.90 0.7596242
586.00 0.7593649
586.10 0.7591058
586.20 0.7588469
586.30 0.758588
586.40 0.7583293
586.50 0.7580707
586.60 0.7578123
586.70 0.757554
586.80 0.7572958
586.90 0.7570378
587.00 0.7567799
587.10 0.7565221
587.20 0.7562644
587.30 0.7560069
587.40 0.7557495
587.50 0.7554923
587.60 0.7552351
587.70 0.7549782
587.80 0.7547213
587.90 0.7544646
588.00 0.754208
588.10 0.7539515
588.20 0.7536952
588.30 0.753439
588.40 0.7531829
588.50 0.7529269
588.60 0.7526711
588.70 0.7524154
588.80 0.7521599
588.90 0.7519045
589.00 0.7516617
589.10 0.7514394
589.20 0.7512172
589.30 0.7509951
589.40 0.7507731
589.50 0.7505512
589.60 0.7503295
589.70 0.7501078
589.80 0.7498863
589.90 0.7496648
590.00 0.749431
590.10 0.7491771
590.20 0.7489232
590.30 0.7486695
590.40 0.7484159
590.50 0.7481624
590.60 0.7479091
590.70 0.7476559
590.80 0.7474028
590.90 0.7471499
591.00 0.746897
591.10 0.7466444
591.20 0.7463918
591.30 0.7461394
591.40 0.745887
591.50 0.7456349
591.60 0.7453828
591.70 0.7451309
591.80 0.7448791
591.90 0.7446274
592.00 0.7443759
592.10 0.7441245
592.20 0.7438732
592.30 0.743622
592.40 0.743371
592.50 0.7431201
592.60 0.7428693
592.70 0.7426186
592.80 0.7423681
592.90 0.7421177
593.00 0.7418675
593.10 0.7416173
593.20 0.7413673
593.30 0.7411174
593.40 0.7408676
593.50 0.740618
593.60 0.7403685
593.70 0.7401191
593.80 0.7398698
593.90 0.7396207
594.00 0.7393717
594.10 0.7391228
594.20 0.738874
594.30 0.7386254
594.40 0.7383769
594.50 0.7381285
594.60 0.7378803
594.70 0.7376321
594.80 0.7373841
594.90 0.7371362
595.00 0.7368885
595.10 0.7366409
595.20 0.7363934
595.30 0.736146
595.40 0.7358987
595.50 0.7356516
595.60 0.7354046
595.70 0.7351577
595.80 0.7349109
595.90 0.7346643
596.00 0.7344178
596.10 0.7341714
596.20 0.7339251
596.30 0.733679
596.40 0.733433
596.50 0.7331871
596.60 0.7329413
596.70 0.7326957
596.80 0.7324502
596.90 0.7322048
597.00 0.7319595
597.10 0.7317143
597.20 0.7314693
597.30 0.7312244
597.40 0.7309796
597.50 0.730735
597.60 0.7304904
597.70 0.730246
597.80 0.7300017
597.90 0.7297575
598.00 0.7295135
598.10 0.7292696
598.20 0.7290258
598.30 0.7287821
598.40 0.7285385
598.50 0.7282951
598.60 0.7280518
598.70 0.7278086
598.80 0.7275655
598.90 0.7273226
599.00 0.7270798
599.10 0.7268371
599.20 0.7265945
599.30 0.726352
599.40 0.7261097
599.50 0.7258675
599.60 0.7256254
599.70 0.7253834
599.80 0.7251415
599.90 0.7248998
600.00 0.7246582
600.10 0.7244167
600.20 0.7241753
600.30 0.7239341
600.40 0.7236929
600.50 0.7234519
600.60 0.723211
600.70 0.7229703
600.80 0.7227296
600.90 0.7224891
601.00 0.7222487
601.10 0.7220084
601.20 0.7217682
601.30 0.7215282
601.40 0.7212882
601.50 0.7210484
601.60 0.7208087
601.70 0.7205692
601.80 0.7203297
601.90 0.7200904
602.00 0.7198512
602.10 0.7196121
602.20 0.7193731
602.30 0.7191343
602.40 0.7188955
602.50 0.7186569
602.60 0.7184184
602.70 0.71818
602.80 0.7179418
602.90 0.7177036
603.00 0.7174656
603.10 0.7172277
603.20 0.7169899
603.30 0.7167522
603.40 0.7165147
603.50 0.7162772
603.60 0.7160399
603.70 0.7158027
603.80 0.7155657
603.90 0.7153287
604.00 0.7150918
604.10 0.7148551
604.20 0.7146185
604.30 0.714382
604.40 0.7141456
604.50 0.7139094
604.60 0.7136732
604.70 0.7134372
604.80 0.7132013
604.90 0.7129655
605.00 0.7127299
605.10 0.7124943
605.20 0.7122589
605.30 0.7120235
605.40 0.7117883
605.50 0.7115533
605.60 0.7113183
605.70 0.7110834
605.80 0.7108487
605.90 0.7106141
606.00 0.7103796
606.10 0.7101452
606.20 0.7099109
606.30 0.7096767
606.40 0.7094427
606.50 0.7090537
606.60 0.7086649
606.70 0.7084314
606.80 0.7081979
606.90 0.7079645
607.00 0.7077313
607.10 0.7074981
607.20 0.7072651
607.30 0.7070322
607.40 0.7067994
607.50 0.7065668
607.60 0.7063342
607.70 0.7061018
607.80 0.7058694
607.90 0.7056372
608.00 0.7054051
608.10 0.7051731
608.20 0.7049413
608.30 0.7047095
608.40 0.7044779
608.50 0.7042463
608.60 0.7040149
608.70 0.7037836
608.80 0.7035524
608.90 0.7033214
609.00 0.7030904
609.10 0.7028596
609.20 0.7026288
609.30 0.7023982
609.40 0.7021677
609.50 0.7019373
609.60 0.7017071
609.70 0.7014769
609.80 0.7012469
609.90 0.7010169
610.00 0.7007871
610.10 0.7005574
610.20 0.7003278
610.30 0.7000983
610.40 0.6998689
610.50 0.6996397
610.60 0.6994105
610.70 0.6991815
610.80 0.6989526
610.90 0.6987034
611.00 0.6984543
611.10 0.6982054
611.20 0.6979566
611.30 0.6977079
611.40 0.6974593
611.50 0.6972109
611.60 0.6969626
611.70 0.6967144
611.80 0.6964664
611.90 0.6962184
612.00 0.6959706
612.10 0.6957229
612.20 0.6954754
612.30 0.695228
612.40 0.6950009
612.50 0.694774
612.60 0.6945472
612.70 0.6943205
612.80 0.6940939
612.90 0.6938674
613.00 0.6936411
613.10 0.6934148
613.20 0.6931887
613.30 0.6929626
613.40 0.6927367
613.50 0.6925109
613.60 0.6922852
613.70 0.6920596
613.80 0.6918341
613.90 0.6916087
614.00 0.6913835
614.10 0.6911583
614.20 0.6909333
614.30 0.6907084
614.40 0.6904835
614.50 0.6902588
614.60 0.6900342
614.70 0.6898097
614.80 0.6895733
614.90 0.6893346
615.00 0.6890959
615.10 0.6888574
615.20 0.688619
615.30 0.6883807
615.40 0.6881426
615.50 0.6879045
615.60 0.6876666
615.70 0.6874288
615.80 0.6871911
615.90 0.6869536
616.00 0.6867161
616.10 0.6864788
616.20 0.6862416
616.30 0.6860045
616.40 0.6857675
616.50 0.6855306
616.60 0.6852939
616.70 0.6850573
616.80 0.6848207
616.90 0.6845914
617.00 0.6843621
617.10 0.684133
617.20 0.6839039
617.30 0.683675
617.40 0.6834462
617.50 0.6832175
617.60 0.6829889
617.70 0.6827604
617.80 0.682532
617.90 0.6823038
618.00 0.6820756
618.10 0.6818476
618.20 0.6816197
618.30 0.6813919
618.40 0.6811642
618.50 0.6809366
618.60 0.6807091
618.70 0.6804818
618.80 0.6802545
618.90 0.6800274
619.00 0.6798004
619.10 0.6795735
619.20 0.6793466
619.30 0.67912
619.40 0.6788934
619.50 0.6786669
619.60 0.6784405
619.70 0.6782143
619.80 0.6779882
619.90 0.6777621
620.00 0.6775362
620.10 0.6773104
620.20 0.6770847
620.30 0.6768591
620.40 0.6766336
620.50 0.6764083
620.60 0.676183
620.70 0.6759579
620.80 0.6757328
620.90 0.6755071
621.00 0.67528
621.10 0.6750531
621.20 0.6748262
621.30 0.6745995
621.40 0.6743729
621.50 0.6741464
621.60 0.67392
621.70 0.6736937
621.80 0.6734675
621.90 0.6732415
622.00 0.6730155
622.10 0.6727897
622.20 0.6725639
622.30 0.6723383
622.40 0.6721128
622.50 0.6718874
622.60 0.6716621
622.70 0.6714369
622.80 0.6712118
622.90 0.6709869
623.00 0.670762
623.10 0.6705373
623.20 0.6703126
623.30 0.6700881
623.40 0.6698637
623.50 0.6696394
623.60 0.6694152
623.70 0.6691911
623.80 0.6689671
623.90 0.6687432
624.00 0.6685195
624.10 0.6682958
624.20 0.6680723
624.30 0.6678489
624.40 0.6676255
624.50 0.6674023
624.60 0.6671792
624.70 0.6669562
624.80 0.6667333
624.90 0.6665105
625.00 0.6662879
625.10 0.6660653
625.20 0.6658428
625.30 0.6656205
625.40 0.6653983
625.50 0.6651761
625.60 0.6649541
625.70 0.6647322
625.80 0.6645104
625.90 0.6642887
626.00 0.6640671
626.10 0.6638456
626.20 0.6636242
626.30 0.663403
626.40 0.6631818
626.50 0.6629607
626.60 0.6627398
626.70 0.662519
626.80 0.6622982
626.90 0.6620776
627.00 0.6618571
627.10 0.6616342
627.20 0.6614047
627.30 0.6611754
627.40 0.6609461
627.50 0.660717
627.60 0.660488
627.70 0.6602591
627.80 0.6600303
627.90 0.6598016
628.00 0.6595731
628.10 0.6593446
628.20 0.6591163
628.30 0.6588881
628.40 0.65866
628.50 0.6584319
628.60 0.6582041
628.70 0.6579763
628.80 0.6577486
628.90 0.6575211
629.00 0.6572936
629.10 0.6570663
629.20 0.656839
629.30 0.6566119
629.40 0.6563849
629.50 0.656158
629.60 0.6559313
629.70 0.6557046
629.80 0.655478
629.90 0.6552516
630.00 0.6550253
630.10 0.654799
630.20 0.6545729
630.30 0.6543554
630.40 0.6541386
630.50 0.653922
630.60 0.6537055
630.70 0.653489
630.80 0.6532727
630.90 0.6530565
631.00 0.6528404
631.10 0.6526244
631.20 0.6524085
631.30 0.6521927
631.40 0.651977
631.50 0.6517614
631.60 0.6515459
631.70 0.6513305
631.80 0.6511153
631.90 0.6509001
632.00 0.650685
632.10 0.65047
632.20 0.6502552
632.30 0.6500404
632.40 0.6498258
632.50 0.6496112
632.60 0.6493968
632.70 0.6491824
632.80 0.6489682
632.90 0.648754
633.00 0.64854
633.10 0.648326
633.20 0.6481122
633.30 0.6478985
633.40 0.6476799
633.50 0.6474574
633.60 0.6472351
633.70 0.6470129
633.80 0.6467909
633.90 0.6465689
634.00 0.646347
634.10 0.6461252
634.20 0.6459036
634.30 0.645682
634.40 0.6454606
634.50 0.6452392
634.60 0.645018
634.70 0.6447969
634.80 0.6445759
634.90 0.6443549
635.00 0.6441341
635.10 0.6439135
635.20 0.6436929
635.30 0.6434724
635.40 0.643252
635.50 0.6430317
635.60 0.6428116
635.70 0.6425915
635.80 0.6423716
635.90 0.6421517
636.00 0.641932
636.10 0.6417124
636.20 0.6414929
636.30 0.6412735
636.40 0.6410541
636.50 0.6408349
636.60 0.6406239
636.70 0.6404138
636.80 0.6402038
636.90 0.6399938
637.00 0.639784
637.10 0.6395743
637.20 0.6393647
637.30 0.6391552
637.40 0.6389458
637.50 0.6387365
637.60 0.6385273
637.70 0.6383182
637.80 0.6381092
637.90 0.6379003
638.00 0.6376915
638.10 0.6374828
638.20 0.6372742
638.30 0.6370657
638.40 0.6368573
638.50 0.636649
638.60 0.6364408
638.70 0.6362327
638.80 0.6360247
638.90 0.6358168
639.00 0.635609
639.10 0.6354013
639.20 0.6351937
639.30 0.6349862
639.40 0.6347787
639.50 0.6345714
639.60 0.6343642
639.70 0.6341551
639.80 0.6339395
639.90 0.6337239
640.00 0.6335085
640.10 0.6332932
640.20 0.6330779
640.30 0.6328628
640.40 0.6326478
640.50 0.6324329
640.60 0.6322181
640.70 0.6320034
640.80 0.6317887
640.90 0.6315742
641.00 0.6313598
641.10 0.6311455
641.20 0.6309313
641.30 0.6307173
641.40 0.6305033
641.50 0.6302894
641.60 0.6300756
641.70 0.6298619
641.80 0.6296483
641.90 0.6294349
642.00 0.6292215
642.10 0.6290082
642.20 0.6287951
642.30 0.628582
642.40 0.628369
642.50 0.6281562
642.60 0.6279434
642.70 0.6277307
642.80 0.6275182
642.90 0.6273057
643.00 0.6270934
643.10 0.6268811
643.20 0.626669
643.30 0.6264569
643.40 0.626245
643.50 0.6260331
643.60 0.6258214
643.70 0.6256097
643.80 0.6253982
643.90 0.6251867
644.00 0.6249754
644.10 0.6247641
644.20 0.624553
644.30 0.624342
644.40 0.624131
644.50 0.6239202
644.60 0.6237094
644.70 0.6234988
644.80 0.6232883
644.90 0.6230778
645.00 0.6228675
645.10 0.6226573
645.20 0.6224471
645.30 0.6222371
645.40 0.6220272
645.50 0.6218173
645.60 0.6216076
645.70 0.621398
645.80 0.6211884
645.90 0.620979
646.00 0.6207697
646.10 0.6205605
646.20 0.6203515
646.30 0.6201426
646.40 0.6199339
646.50 0.6197252
646.60 0.6195167
646.70 0.6193082
646.80 0.6190998
646.90 0.6188915
647.00 0.6186834
647.10 0.6184753
647.20 0.6182673
647.30 0.6180595
647.40 0.6178517
647.50 0.617644
647.60 0.6174364
647.70 0.617229
647.80 0.6170216
647.90 0.6168143
648.00 0.6166071
648.10 0.6164
648.20 0.6161931
648.30 0.6159862
648.40 0.6157794
648.50 0.6155727
648.60 0.6153661
648.70 0.6151596
648.80 0.6149532
648.90 0.6147469
649.00 0.6145407
649.10 0.6143346
649.20 0.6141286
649.30 0.6139227
649.40 0.6137089
649.50 0.6134948
649.60 0.6132808
649.70 0.613067
649.80 0.6128532
649.90 0.6126395
650.00 0.612426
650.10 0.6122125
650.20 0.6119992
650.30 0.6117859
650.40 0.6115728
650.50 0.6113597
650.60 0.6111468
650.70 0.6109339
650.80 0.6107212
650.90 0.6105086
651.00 0.610296
651.10 0.6100836
651.20 0.6098713
651.30 0.609659
651.40 0.6094469
651.50 0.6092349
651.60 0.6090229
651.70 0.6088111
651.80 0.6085994
651.90 0.6083878
652.00 0.6081762
652.10 0.6079648
652.20 0.6077535
652.30 0.6075423
652.40 0.6073312
652.50 0.6071201
652.60 0.6069144
652.70 0.6067115
652.80 0.6065087
652.90 0.606306
653.00 0.6061035
653.10 0.605901
653.20 0.6056986
653.30 0.6054963
653.40 0.6052941
653.50 0.6050919
653.60 0.6048899
653.70 0.604688
653.80 0.6044862
653.90 0.6042845
654.00 0.6040828
654.10 0.6038813
654.20 0.6036798
654.30 0.6034785
654.40 0.6032772
654.50 0.6030761
654.60 0.602875
654.70 0.602674
654.80 0.6024732
654.90 0.6022724
655.00 0.6020717
655.10 0.6018711
655.20 0.6016706
655.30 0.6014702
655.40 0.6012699
655.50 0.6010697
655.60 0.6008695
655.70 0.6006695
655.80 0.6004731
655.90 0.6002767
656.00 0.6000805
656.10 0.5998843
656.20 0.5996883
656.30 0.5994923
656.40 0.5992964
656.50 0.5991006
656.60 0.5989049
656.70 0.5987093
656.80 0.5985138
656.90 0.5983184
657.00 0.598123
657.10 0.5979278
657.20 0.5977326
657.30 0.5975376
657.40 0.5973426
657.50 0.5971477
657.60 0.5969529
657.70 0.5967582
657.80 0.5963476
657.90 0.5961319
658.00 0.5959507
658.10 0.5957696
658.20 0.5955886
658.30 0.5954077
658.40 0.5952268
658.50 0.5950461
658.60 0.5948654
658.70 0.5946848
658.80 0.5945042
658.90 0.5943238
659.00 0.5941434
659.10 0.5938881
659.20 0.5935205
659.30 0.5933404
659.40 0.5931605
659.50 0.5929806
659.60 0.5928008
659.70 0.5926211
659.80 0.5924415
659.90 0.592262
660.00 0.5920825
660.10 0.5919031
660.20 0.5917238
660.30 0.5915446
660.40 0.5913196
660.50 0.5910867
660.60 0.5908539
660.70 0.5906211
660.80 0.5903885
660.90 0.5901838
661.00 0.5899791
661.10 0.5897745
661.20 0.5895701
661.30 0.5893657
661.40 0.5891614
661.50 0.5889572
661.60 0.5887531
661.70 0.5885491
661.80 0.5883452
661.90 0.5881675
662.00 0.5879898
662.10 0.5878122
662.20 0.5876347
662.30 0.5874572
662.40 0.5872799
662.50 0.5871026
662.60 0.5869254
662.70 0.5867483
662.80 0.5865712
662.90 0.5862645
663.00 0.5859579
663.10 0.5857812
663.20 0.5856045
663.30 0.585428
663.40 0.5852515
663.50 0.5850751
663.60 0.5848988
663.70 0.5847225
663.80 0.5845464
663.90 0.5843703
664.00 0.5841943
664.10 0.5839753
664.20 0.5837563
664.30 0.5835375
664.40 0.5833188
664.50 0.5831002
664.60 0.5828817
664.70 0.5826747
664.80 0.5824677
664.90 0.5822609
665.00 0.5820541
665.10 0.5818475
665.20 0.5816409
665.30 0.5814344
665.40 0.5812281
665.50 0.5810487
665.60 0.5808741
665.70 0.5806996
665.80 0.5805252
665.90 0.5803508
666.00 0.5801766
666.10 0.5800024
666.20 0.5798283
666.30 0.5796542
666.40 0.5794803
666.50 0.57927
666.60 0.5790535
666.70 0.578837
666.80 0.5786206
666.90 0.5784044
667.00 0.5781882
667.10 0.5780085
667.20 0.5778352
667.30 0.577662
667.40 0.577489
667.50 0.5773159
667.60 0.577143
667.70 0.5767143
667.80 0.5765416
667.90 0.5763689
668.00 0.5761964
668.10 0.5760239
668.20 0.5758515
668.30 0.5756792
668.40 0.5755069
668.50 0.5753348
668.60 0.5751627
668.70 0.5749907
668.80 0.5747692
668.90 0.5745479
669.00 0.5743266
669.10 0.5741055
669.20 0.5738845
669.30 0.5736839
669.40 0.5734871
669.50 0.5732903
669.60 0.5730937
669.70 0.5728971
669.80 0.5727006
669.90 0.5725042
670.00 0.572308
670.10 0.5721117
670.20 0.5719156
670.30 0.5717412
670.40 0.5715706
670.50 0.5714002
670.60 0.5712298
670.70 0.5710594
670.80 0.5708665
670.90 0.5706736
671.00 0.5704807
671.10 0.570288
671.20 0.5700954
671.30 0.5699029
671.40 0.5697104
671.50 0.5695181
671.60 0.5693258
671.70 0.5691336
671.80 0.5689415
671.90 0.5687251
672.00 0.5685045
672.10 0.5682841
672.20 0.5680637
672.30 0.5678434
672.40 0.5676709
672.50 0.5675021
672.60 0.5673334
672.70 0.5671647
672.80 0.5669961
672.90 0.5668276
673.00 0.5666592
673.10 0.5664908
673.20 0.5663225
673.30 0.5659355
673.40 0.5657239
673.50 0.5655434
673.60 0.5653629
673.70 0.5651825
673.80 0.5650022
673.90 0.564822
674.00 0.5646418
674.10 0.5644618
674.20 0.5642818
674.30 0.5641019
674.40 0.5639221
674.50 0.5637423
674.60 0.5635627
674.70 0.5633831
674.80 0.5632036
674.90 0.5630242
675.00 0.5628449
675.10 0.5626656
675.20 0.5624865
675.30 0.5623074
675.40 0.5621135
675.50 0.5619171
675.60 0.5617208
675.70 0.5615245
675.80 0.5613284
675.90 0.5611324
676.00 0.5609364
676.10 0.5607405
676.20 0.5605448
676.30 0.5603491
676.40 0.5601535
676.50 0.559958
676.60 0.5597626
676.70 0.5595673
676.80 0.559372
676.90 0.5591769
677.00 0.5589818
677.10 0.5587869
677.20 0.558592
677.30 0.5583972
677.40 0.5582026
677.50 0.558008
677.60 0.5578135
677.70 0.5576191
677.80 0.5574247
677.90 0.5572385
678.00 0.5570537
678.10 0.556869
678.20 0.5566843
678.30 0.5564998
678.40 0.5563154
678.50 0.556131
678.60 0.5559467
678.70 0.5557625
678.80 0.5555784
678.90 0.5553944
679.00 0.5552104
679.10 0.555023
679.20 0.5548341
679.30 0.5546452
679.40 0.5544565
679.50 0.5542678
679.60 0.5540793
679.70 0.5538908
679.80 0.5537024
679.90 0.5535141
680.00 0.5533259
680.10 0.5531378
680.20 0.5529497
680.30 0.5527618
680.40 0.5525739
680.50 0.5523861
680.60 0.5521984
680.70 0.5520108
680.80 0.5518233
680.90 0.5516358
681.00 0.5514485
681.10 0.5512612
681.20 0.551074
681.30 0.5508869
681.40 0.5506999
681.50 0.550513
681.60 0.5503262
681.70 0.5501394
681.80 0.5499527
681.90 0.5497662
682.00 0.5495797
682.10 0.5493933
682.20 0.5492069
682.30 0.5490207
682.40 0.5488346
682.50 0.5486485
682.60 0.5484625
682.70 0.5482766
682.80 0.5480908
682.90 0.5479051
683.00 0.5477194
683.10 0.5475339
683.20 0.5473484
683.30 0.547163
683.40 0.5469777
683.50 0.5467925
683.60 0.5466074
683.70 0.5464224
683.80 0.5462374
683.90 0.5460525
684.00 0.5458677
684.10 0.545683
684.20 0.5454984
684.30 0.5453139
684.40 0.5451294
684.50 0.5449451
684.60 0.5447608
684.70 0.5445766
684.80 0.5443925
684.90 0.5442085
685.00 0.5440245
685.10 0.5438407
685.20 0.5436569
685.30 0.5434732
685.40 0.5432896
685.50 0.5431061
685.60 0.5429226
685.70 0.5427393
685.80 0.542556
685.90 0.542373
686.00 0.5421902
686.10 0.5420074
686.20 0.5418247
686.30 0.5416421
686.40 0.5414596
686.50 0.5412771
686.60 0.5410948
686.70 0.5409125
686.80 0.5407303
686.90 0.5405482
687.00 0.5403662
687.10 0.5401843
687.20 0.5400024
687.30 0.5398207
687.40 0.539639
687.50 0.5394574
687.60 0.5392758
687.70 0.5390944
687.80 0.5389131
687.90 0.5387318
688.00 0.5385506
688.10 0.5383695
688.20 0.5381885
688.30 0.5380075
688.40 0.5378266
688.50 0.5376459
688.60 0.5374652
688.70 0.5372846
688.80 0.537104
688.90 0.5369236
689.00 0.5367432
689.10 0.5365629
689.20 0.5363827
689.30 0.5362026
689.40 0.5360226
689.50 0.5358426
689.60 0.5356627
689.70 0.5354829
689.80 0.5353032
689.90 0.5351236
690.00 0.534944
690.10 0.5347646
690.20 0.5345852
690.30 0.5344059
690.40 0.5342267
690.50 0.5340475
690.60 0.5338685
690.70 0.5336895
690.80 0.5335106
690.90 0.5333318
691.00 0.533153
691.10 0.5329744
691.20 0.5327958
691.30 0.5326173
691.40 0.5324389
691.50 0.5322606
691.60 0.5320823
691.70 0.5319042
691.80 0.5317261
691.90 0.5315481
692.00 0.5313701
692.10 0.5311923
692.20 0.5310145
692.30 0.5308368
692.40 0.5306592
692.50 0.5304817
692.60 0.5303043
692.70 0.5301268
692.80 0.529949
692.90 0.5297713
693.00 0.5295937
693.10 0.5294162
693.20 0.5292387
693.30 0.5290613
693.40 0.528884
693.50 0.5287068
693.60 0.5285296
693.70 0.5283526
693.80 0.5281756
693.90 0.5279987
694.00 0.5278219
694.10 0.5276451
694.20 0.5274685
694.30 0.5272919
694.40 0.5271154
694.50 0.526939
694.60 0.5267626
694.70 0.5265864
694.80 0.5264102
694.90 0.5262341
695.00 0.5260581
695.10 0.5258821
695.20 0.5257063
695.30 0.5255305
695.40 0.5253548
695.50 0.5251791
695.60 0.5250036
695.70 0.5248281
695.80 0.5246527
695.90 0.5244774
696.00 0.5243022
696.10 0.5241271
696.20 0.523952
696.30 0.523777
696.40 0.5236021
696.50 0.5234272
696.60 0.5232495
696.70 0.5230711
696.80 0.5228928
696.90 0.5227145
697.00 0.5225364
697.10 0.5223583
697.20 0.5221803
697.30 0.5220024
697.40 0.5218245
697.50 0.5216468
697.60 0.5214691
697.70 0.5212915
697.80 0.521114
697.90 0.5209366
698.00 0.5207592
698.10 0.520582
698.20 0.5204048
698.30 0.5202277
698.40 0.5200506
698.50 0.5198737
698.60 0.5196968
698.70 0.51952
698.80 0.5193433
698.90 0.5191667
699.00 0.5189901
699.10 0.5188364
699.20 0.518688
699.30 0.5185396
699.40 0.5183913
699.50 0.5182431
699.60 0.518095
699.70 0.5179156
699.80 0.5177347
699.90 0.5175538
700.00 0.517373
700.10 0.5171923
700.20 0.5170117
700.30 0.5168311
700.40 0.5166507
700.50 0.5164703
700.60 0.51629
700.70 0.5161098
700.80 0.5159296
700.90 0.5157496
701.00 0.5155696
701.10 0.5153913
701.20 0.5152133
701.30 0.5150355
701.40 0.5148577
701.50 0.51468
701.60 0.5145024
701.70 0.5143249
701.80 0.5141475
701.90 0.5139701
702.00 0.5137928
702.10 0.5136156
702.20 0.5134385
702.30 0.5132615
702.40 0.5130845
702.50 0.5129076
702.60 0.5127441
702.70 0.5125837
702.80 0.5124234
702.90 0.5122632
703.00 0.512103
703.10 0.511943
703.20 0.5117829
703.30 0.511623
703.40 0.5114631
703.50 0.5113033
703.60 0.5111436
703.70 0.5109839
703.80 0.5108244
703.90 0.5106648
704.00 0.5105054
704.10 0.510346
704.20 0.5101611
704.30 0.5099702
704.40 0.5097795
704.50 0.5095888
704.60 0.5093982
704.70 0.5092077
704.80 0.5090173
704.90 0.5088269
705.00 0.5086367
705.10 0.5084466
705.20 0.5082937
705.30 0.5081495
705.40 0.5080055
705.50 0.5078615
705.60 0.5077175
705.70 0.5075736
705.80 0.5073835
705.90 0.5071825
706.00 0.5069816
706.10 0.5067808
706.20 0.5066264
706.30 0.506483
706.40 0.5063396
706.50 0.5061963
706.60 0.506053
706.70 0.5059098
706.80 0.5056742
706.90 0.505417
707.00 0.5052523
707.10 0.5051094
707.20 0.5049666
707.30 0.5048238
707.40 0.5046503
707.50 0.5044697
707.60 0.5042892
707.70 0.5041087
707.80 0.5039283
707.90 0.503748
708.00 0.5035801
708.10 0.5034151
708.20 0.5032502
708.30 0.5030854
708.40 0.5029206
708.50 0.5027559
708.60 0.5025913
708.70 0.5024268
708.80 0.5022623
708.90 0.5020979
709.00 0.501929
709.10 0.5017591
709.20 0.5015893
709.30 0.5014195
709.40 0.5012498
709.50 0.5010802
709.60 0.5009107
709.70 0.5007412
709.80 0.5005718
709.90 0.5004025
710.00 0.5002333
710.10 0.5000641
710.20 0.499895
710.30 0.499726
710.40 0.4995571
710.50 0.4993882
710.60 0.4992179
710.70 0.4990474
710.80 0.4988768
710.90 0.4987064
711.00 0.498536
711.10 0.4983658
711.20 0.4981956
711.30 0.4980254
711.40 0.4978554
711.50 0.4976854
711.60 0.4975155
711.70 0.4973457
711.80 0.4971759
711.90 0.4970062
712.00 0.4968366
712.10 0.4966693
712.20 0.4965025
712.30 0.4963358
712.40 0.4961692
712.50 0.4960027
712.60 0.4958362
712.70 0.4956699
712.80 0.4955035
712.90 0.4953373
713.00 0.4951711
713.10 0.495005
713.20 0.494839
713.30 0.4946731
713.40 0.4945072
713.50 0.4943414
713.60 0.4941757
713.70 0.494019
713.80 0.4938806
713.90 0.4937422
714.00 0.4936039
714.10 0.493444
714.20 0.493279
714.30 0.493114
714.40 0.4929492
714.50 0.4927844
714.60 0.4926197
714.70 0.492455
714.80 0.4922905
714.90 0.492126
715.00 0.4919615
715.10 0.4917972
715.20 0.4916329
715.30 0.4914687
715.40 0.4913046
715.50 0.4911405
715.60 0.4909765
715.70 0.4908126
715.80 0.4906488
715.90 0.490485
716.00 0.4903213
716.10 0.4901577
716.20 0.4899941
716.30 0.4898306
716.40 0.4896672
716.50 0.4895039
716.60 0.4893399
716.70 0.4891759
716.80 0.489012
716.90 0.4888481
717.00 0.4886843
717.10 0.4885205
717.20 0.4883569
717.30 0.4881933
717.40 0.4880297
717.50 0.4878663
717.60 0.4877029
717.70 0.4875396
717.80 0.4873764
717.90 0.4872132
718.00 0.4870501
718.10 0.4868871
718.20 0.4867247
718.30 0.4865627
718.40 0.4864007
718.50 0.4862388
718.60 0.486077
718.70 0.4859152
718.80 0.4857535
718.90 0.4855919
719.00 0.4854304
719.10 0.4852689
719.20 0.4851075
719.30 0.4849462
719.40 0.4847849
719.50 0.4846237
719.60 0.4844626
719.70 0.4843015
719.80 0.4841406
719.90 0.4839797
720.00 0.4838188
720.10 0.4836581
720.20 0.4834974
720.30 0.4833368
720.40 0.4831762
720.50 0.4830157
720.60 0.4828553
720.70 0.4827121
720.80 0.4825782
720.90 0.4824098
721.00 0.48224
721.10 0.4820703
721.20 0.4819007
721.30 0.4817312
721.40 0.4815617
721.50 0.4813923
721.60 0.481223
721.70 0.4810538
721.80 0.4808846
721.90 0.4807156
722.00 0.4805466
722.10 0.4803776
722.20 0.4802088
722.30 0.48004
722.40 0.4798713
722.50 0.4797027
722.60 0.4795341
722.70 0.47937
722.80 0.4792082
722.90 0.4790465
723.00 0.4788849
723.10 0.4787234
723.20 0.4785619
723.30 0.4784005
723.40 0.4782392
723.50 0.478078
723.60 0.4779168
723.70 0.4777557
723.80 0.4775947
723.90 0.4774337
724.00 0.4772728
724.10 0.477112
724.20 0.4769524
724.30 0.4767935
724.40 0.4766347
724.50 0.476476
724.60 0.4763173
724.70 0.4761587
724.80 0.4760002
724.90 0.4758418
725.00 0.4756834
725.10 0.4755251
725.20 0.4753668
725.30 0.4752086
725.40 0.4750505
725.50 0.4748925
725.60 0.4747345
725.70 0.4745766
725.80 0.4744223
725.90 0.47427
726.00 0.4741177
726.10 0.4739655
726.20 0.4738133
726.30 0.4736612
726.40 0.4735092
726.50 0.4733572
726.60 0.4732053
726.70 0.4730535
726.80 0.4728924
726.90 0.4727263
727.00 0.4725603
727.10 0.4723944
727.20 0.4722285
727.30 0.4720627
727.40 0.4719204
727.50 0.4717906
727.60 0.4716609
727.70 0.4715313
727.80 0.4714018
727.90 0.4712722
728.00 0.4709275
728.10 0.4707982
728.20 0.4706689
728.30 0.4705397
728.40 0.4704105
728.50 0.4702813
728.60 0.4701173
728.70 0.4699346
728.80 0.469752
728.90 0.4695694
729.00 0.4693986
729.10 0.469234
729.20 0.4690696
729.30 0.4689052
729.40 0.4687409
729.50 0.4685767
729.60 0.4684218
729.70 0.468272
729.80 0.4681223
729.90 0.4679726
730.00 0.467823
730.10 0.4676735
730.20 0.467524
730.30 0.4673746
730.40 0.4672252
730.50 0.4670759
730.60 0.4669232
730.70 0.4667687
730.80 0.4666143
730.90 0.46646
731.00 0.4663057
731.10 0.4661514
731.20 0.4659973
731.30 0.4658432
731.40 0.4656891
731.50 0.4655352
731.60 0.4653813
731.70 0.4652274
731.80 0.4650737
731.90 0.46492
732.00 0.4647664
732.10 0.4646128
732.20 0.4644581
732.30 0.4643029
732.40 0.4641478
732.50 0.4639927
732.60 0.4638377
732.70 0.4636828
732.80 0.4635279
732.90 0.4633731
733.00 0.4632184
733.10 0.4630638
733.20 0.4629092
733.30 0.4627546
733.40 0.4626002
733.50 0.4624458
733.60 0.4622914
733.70 0.4621389
733.80 0.4619874
733.90 0.4618359
734.00 0.4616846
734.10 0.4615332
734.20 0.461382
734.30 0.4612308
734.40 0.4610797
734.50 0.4609286
734.60 0.4607776
734.70 0.4606267
734.80 0.4604758
734.90 0.460325
735.00 0.4601743
735.10 0.4600236
735.20 0.459873
735.30 0.4597196
735.40 0.4595331
735.50 0.4593466
735.60 0.4591603
735.70 0.4589975
735.80 0.4588475
735.90 0.4586975
736.00 0.4585476
736.10 0.4583978
736.20 0.458248
736.30 0.4580983
736.40 0.4579486
736.50 0.457799
736.60 0.4576495
736.70 0.4575001
736.80 0.4573507
736.90 0.4572014
737.00 0.4570521
737.10 0.4569029
737.20 0.4567538
737.30 0.4566047
737.40 0.4564557
737.50 0.4563067
737.60 0.4561579
737.70 0.456009
737.80 0.4558603
737.90 0.4557116
738.00 0.455563
738.10 0.4554144
738.20 0.4552641
738.30 0.455113
738.40 0.4549619
738.50 0.4548109
738.60 0.4546599
738.70 0.454509
738.80 0.4543582
738.90 0.4542074
739.00 0.4540567
739.10 0.4539061
739.20 0.4537555
739.30 0.453605
739.40 0.4534545
739.50 0.4533041
739.60 0.4531538
739.70 0.4530036
739.80 0.4528534
739.90 0.4527033
740.00 0.4525532
740.10 0.4524032
740.20 0.4522533
740.30 0.4521034
740.40 0.4519536
740.50 0.4518039
740.60 0.4516542
740.70 0.4515046
740.80 0.4513551
740.90 0.4512056
741.00 0.4510562
741.10 0.4509068
741.20 0.4507576
741.30 0.4506083
741.40 0.4504592
741.50 0.4503101
741.60 0.4501611
741.70 0.4500121
741.80 0.4498632
741.90 0.4497144
742.00 0.4495656
742.10 0.4494169
742.20 0.4492682
742.30 0.4491197
742.40 0.4489711
742.50 0.4488227
742.60 0.4486743
742.70 0.4485301
742.80 0.4483894
742.90 0.4482487
743.00 0.4481081
743.10 0.4479675
743.20 0.447827
743.30 0.4476866
743.40 0.4475462
743.50 0.4474059
743.60 0.4472656
743.70 0.4471236
743.80 0.4469744
743.90 0.4468252
744.00 0.4466761
744.10 0.446527
744.20 0.446378
744.30 0.4462291
744.40 0.4460802
744.50 0.4459314
744.60 0.4457827
744.70 0.445634
744.80 0.4454854
744.90 0.4453368
745.00 0.4451884
745.10 0.4450399
745.20 0.4448916
745.30 0.4447433
745.40 0.4445951
745.50 0.4444469
745.60 0.4442988
745.70 0.4441508
745.80 0.4440028
745.90 0.4438549
746.00 0.443707
746.10 0.4435592
746.20 0.4434115
746.30 0.4432639
746.40 0.4431163
746.50 0.4429687
746.60 0.4428213
746.70 0.4426739
746.80 0.4425265
746.90 0.4423792
747.00 0.442232
747.10 0.4420849
747.20 0.4419378
747.30 0.4417907
747.40 0.4416438
747.50 0.4414969
747.60 0.44135
747.70 0.4412033
747.80 0.4410566
747.90 0.4409099
748.00 0.4407633
748.10 0.4406168
748.20 0.4404703
748.30 0.4403239
748.40 0.4401776
748.50 0.4400313
748.60 0.4398851
748.70 0.4397389
748.80 0.4395929
748.90 0.4394468
749.00 0.4393009
749.10 0.439155
749.20 0.4390091
749.30 0.4388633
749.40 0.4387176
749.50 0.438572
749.60 0.4384264
749.70 0.4382809
749.80 0.4381354
749.90 0.43799
750.00 0.4378446
750.10 0.4376983
750.20 0.4375492
750.30 0.4374001
750.40 0.4372511
750.50 0.4371022
750.60 0.4369534
750.70 0.4368046
750.80 0.4366559
750.90 0.4365072
751.00 0.4363586
751.10 0.4362101
751.20 0.4360616
751.30 0.4359132
751.40 0.4357648
751.50 0.4356165
751.60 0.4354683
751.70 0.4353202
751.80 0.4351721
751.90 0.4350241
752.00 0.4348761
752.10 0.4347282
752.20 0.4345804
752.30 0.4344326
752.40 0.4342849
752.50 0.4341372
752.60 0.4339896
752.70 0.4338421
752.80 0.4336947
752.90 0.4335473
753.00 0.4333999
753.10 0.4332527
753.20 0.4331054
753.30 0.4329583
753.40 0.4328112
753.50 0.4326642
753.60 0.4325172
753.70 0.4323704
753.80 0.4322235
753.90 0.4320809
754.00 0.4319396
754.10 0.4317983
754.20 0.431657
754.30 0.4315159
754.40 0.4313748
754.50 0.4312337
754.60 0.4310927
754.70 0.4309518
754.80 0.4308109
754.90 0.4306701
755.00 0.4305293
755.10 0.4303886
755.20 0.430248
755.30 0.4301074
755.40 0.4299669
755.50 0.4298264
755.60 0.429686
755.70 0.4295457
755.80 0.4294054
755.90 0.4292651
756.00 0.429125
756.10 0.4289849
756.20 0.4288448
756.30 0.4287048
756.40 0.4285649
756.50 0.428425
756.60 0.4282852
756.70 0.4281455
756.80 0.4280058
756.90 0.4278661
757.00 0.4277266
757.10 0.4275871
757.20 0.4274476
757.30 0.4273082
757.40 0.4271689
757.50 0.4270296
757.60 0.4268904
757.70 0.4267515
757.80 0.4266127
757.90 0.4264739
758.00 0.4263352
758.10 0.4261965
758.20 0.4260579
758.30 0.4259194
758.40 0.4257809
758.50 0.4256424
758.60 0.4255041
758.70 0.4253657
758.80 0.4252275
758.90 0.4250893
759.00 0.4249511
759.10 0.4248131
759.20 0.424675
759.30 0.4245371
759.40 0.4243992
759.50 0.4242613
759.60 0.4241235
759.70 0.4239858
759.80 0.4238481
759.90 0.4237105
760.00 0.4235729
760.10 0.4234354
760.20 0.423298
760.30 0.4231606
760.40 0.4230232
760.50 0.422886
760.60 0.4227487
760.70 0.4226116
760.80 0.4224745
760.90 0.4223374
761.00 0.4222004
761.10 0.4220635
761.20 0.4219266
761.30 0.4217898
761.40 0.421651
761.50 0.4215091
761.60 0.4213673
761.70 0.4212255
761.80 0.4210838
761.90 0.4209421
762.00 0.4208005
762.10 0.420659
762.20 0.4205175
762.30 0.4203761
762.40 0.4202348
762.50 0.4200935
762.60 0.4199522
762.70 0.4198111
762.80 0.4196699
762.90 0.4195289
763.00 0.4193879
763.10 0.4192469
763.20 0.4191061
763.30 0.4189652
763.40 0.4188245
763.50 0.4186838
763.60 0.4185431
763.70 0.4184026
763.80 0.418262
763.90 0.4181216
764.00 0.4179812
764.10 0.4178408
764.20 0.4177006
764.30 0.4175603
764.40 0.4174202
764.50 0.4172801
764.60 0.41714
764.70 0.417
764.80 0.4168601
764.90 0.4167202
765.00 0.4165804
765.10 0.4164406
765.20 0.4163024
765.30 0.4161656
765.40 0.4160289
765.50 0.4158922
765.60 0.4157556
765.70 0.4156191
765.80 0.4154826
765.90 0.4153461
766.00 0.4152098
766.10 0.4150734
766.20 0.4149372
766.30 0.4148009
766.40 0.4146648
766.50 0.4145287
766.60 0.4143926
766.70 0.4142567
766.80 0.4141207
766.90 0.4139848
767.00 0.413849
767.10 0.4137133
767.20 0.4135776
767.30 0.4134419
767.40 0.4133063
767.50 0.4131708
767.60 0.4130353
767.70 0.4128999
767.80 0.4127645
767.90 0.4126292
768.00 0.412494
768.10 0.4123588
768.20 0.4122237
768.30 0.4120886
768.40 0.4119536
768.50 0.4118186
768.60 0.4116837
768.70 0.4115488
768.80 0.411414
768.90 0.4112793
769.00 0.4111446
769.10 0.41101
769.20 0.4108754
769.30 0.4107409
769.40 0.4106064
769.50 0.410472
769.60 0.4103376
769.70 0.4102034
769.80 0.4100691
769.90 0.4099349
770.00 0.4098008
770.10 0.4096667
770.20 0.4095327
770.30 0.4093988
770.40 0.4092649
770.50 0.409131
770.60 0.4089972
770.70 0.4088635
770.80 0.4087298
770.90 0.4085962
771.00 0.4084626
771.10 0.4083291
771.20 0.4081956
771.30 0.4080622
771.40 0.4079289
771.50 0.4077956
771.60 0.4076624
771.70 0.4075292
771.80 0.407396
771.90 0.407263
772.00 0.40713
772.10 0.406997
772.20 0.4068641
772.30 0.4067312
772.40 0.4065984
772.50 0.4064657
772.60 0.406333
772.70 0.4062004
772.80 0.4060678
772.90 0.4059331
773.00 0.4057984
773.10 0.4056638
773.20 0.4055293
773.30 0.4053948
773.40 0.4052603
773.50 0.405126
773.60 0.4049916
773.70 0.4048574
773.80 0.4047231
773.90 0.404589
774.00 0.4044549
774.10 0.4043208
774.20 0.4041868
774.30 0.4040529
774.40 0.403919
774.50 0.4037852
774.60 0.4036514
774.70 0.4035177
774.80 0.403384
774.90 0.4032504
775.00 0.4031169
775.10 0.4029834
775.20 0.40285
775.30 0.4027166
775.40 0.4025832
775.50 0.40245
775.60 0.4023168
775.70 0.4021836
775.80 0.4020505
775.90 0.4019174
776.00 0.4017844
776.10 0.4016515
776.20 0.4015186
776.30 0.4013858
776.40 0.401253
776.50 0.4011203
776.60 0.4009876
776.70 0.400855
776.80 0.4007225
776.90 0.40059
777.00 0.4004575
777.10 0.4003251
777.20 0.4001928
777.30 0.4000605
777.40 0.3999283
777.50 0.3997961
777.60 0.399664
777.70 0.399532
777.80 0.3994
777.90 0.399268
778.00 0.3991361
778.10 0.3990043
778.20 0.3988725
778.30 0.3987407
778.40 0.3986091
778.50 0.3984774
778.60 0.3983459
778.70 0.3982144
778.80 0.3980829
778.90 0.3979515
779.00 0.3978201
779.10 0.3976888
779.20 0.3975576
779.30 0.3974264
779.40 0.3972953
779.50 0.3971642
779.60 0.3970332
779.70 0.3969022
779.80 0.3967713
779.90 0.3966404
780.00 0.3965096
780.10 0.3963789
780.20 0.3962482
780.30 0.3961175
780.40 0.3959869
780.50 0.3958564
780.60 0.3957268
780.70 0.3955977
780.80 0.3954686
780.90 0.3953395
781.00 0.3952105
781.10 0.3950816
781.20 0.3949527
781.30 0.3948239
781.40 0.3946951
781.50 0.3945663
781.60 0.3944377
781.70 0.394309
781.80 0.3941805
781.90 0.394052
782.00 0.3939235
782.10 0.3937951
782.20 0.3936667
782.30 0.3935384
782.40 0.3934102
782.50 0.393282
782.60 0.3931538
782.70 0.3930257
782.80 0.3928977
782.90 0.3927697
783.00 0.3926418
783.10 0.3925139
783.20 0.3923861
783.30 0.3922583
783.40 0.3921305
783.50 0.3920029
783.60 0.3918753
783.70 0.3917477
783.80 0.3916202
783.90 0.3914927
784.00 0.3913653
784.10 0.3912379
784.20 0.3911106
784.30 0.3909834
784.40 0.3908562
784.50 0.390729
784.60 0.3906013
784.70 0.3904722
784.80 0.3903432
784.90 0.3902142
785.00 0.3900853
785.10 0.3899564
785.20 0.3898276
785.30 0.3896988
785.40 0.3895701
785.50 0.3894414
785.60 0.3893128
785.70 0.3891843
785.80 0.3890558
785.90 0.3889273
786.00 0.3887989
786.10 0.3886706
786.20 0.3885423
786.30 0.388414
786.40 0.3882859
786.50 0.3881577
786.60 0.3880296
786.70 0.3879016
786.80 0.3877736
786.90 0.3876457
787.00 0.3875178
787.10 0.38739
787.20 0.3872623
787.30 0.3871345
787.40 0.3870069
787.50 0.3868793
787.60 0.3867517
787.70 0.3866242
787.80 0.3864968
787.90 0.3863694
788.00 0.386242
788.10 0.3861147
788.20 0.3859875
788.30 0.3858603
788.40 0.385734
788.50 0.3856083
788.60 0.3854826
788.70 0.3853569
788.80 0.3852313
788.90 0.3851057
789.00 0.3849802
789.10 0.3848548
789.20 0.3847294
789.30 0.384604
789.40 0.3844787
789.50 0.3843535
789.60 0.3842283
789.70 0.3841032
789.80 0.3839781
789.90 0.383853
790.00 0.383728
790.10 0.3836031
790.20 0.3834782
790.30 0.3833534
790.40 0.3832286
790.50 0.3831038
790.60 0.3829791
790.70 0.3828545
790.80 0.3827299
790.90 0.3826054
791.00 0.3824809
791.10 0.3823565
791.20 0.3822321
791.30 0.3821078
791.40 0.3819835
791.50 0.3818593
791.60 0.3817351
791.70 0.381611
791.80 0.3814869
791.90 0.3813628
792.00 0.3812389
792.10 0.3811149
792.20 0.3809911
792.30 0.3808672
792.40 0.3807435
792.50 0.3806197
792.60 0.380496
792.70 0.3803724
792.80 0.3802488
792.90 0.3801253
793.00 0.3800018
793.10 0.3798784
793.20 0.379755
793.30 0.3796317
793.40 0.3795084
793.50 0.3793852
793.60 0.379262
793.70 0.3791389
793.80 0.3790158
793.90 0.3788928
794.00 0.3787698
794.10 0.3786468
794.20 0.378524
794.30 0.3784011
794.40 0.3782783
794.50 0.3781556
794.60 0.3780329
794.70 0.3779103
794.80 0.3777877
794.90 0.3776652
795.00 0.3775427
795.10 0.3774203
795.20 0.3772979
795.30 0.3771756
795.40 0.3770533
795.50 0.376931
795.60 0.3768089
795.70 0.3766867
795.80 0.3765646
795.90 0.3764426
796.00 0.3763206
796.10 0.3761987
796.20 0.3760768
796.30 0.3759552
796.40 0.3758337
796.50 0.3757122
796.60 0.3755908
796.70 0.3754694
796.80 0.3753481
796.90 0.3752268
797.00 0.3751056
797.10 0.3749845
797.20 0.3748633
797.30 0.3747423
797.40 0.3746212
797.50 0.3745003
797.60 0.3743793
797.70 0.3742585
797.80 0.3741376
797.90 0.3740169
798.00 0.3738961
798.10 0.3737754
798.20 0.3736548
798.30 0.3735342
798.40 0.3734137
798.50 0.3732932
798.60 0.3731728
798.70 0.3730524
798.80 0.372932
798.90 0.3728117
799.00 0.3726915
799.10 0.3725713
799.20 0.3724512
799.30 0.3723311
799.40 0.372211
799.50 0.372091
799.60 0.3719711
799.70 0.3718512
799.80 0.3717313
799.90 0.3716115
800.00 0.3714917
800.10 0.371372
800.20 0.3712524
800.30 0.3711327
800.40 0.3710132
800.50 0.3708937
800.60 0.3707742
800.70 0.3706548
800.80 0.3705354
800.90 0.3704161
801.00 0.3702968
801.10 0.3701776
801.20 0.3700584
801.30 0.3699392
801.40 0.3698201
801.50 0.3697011
801.60 0.3695821
801.70 0.3694632
801.80 0.3693443
801.90 0.3692254
802.00 0.3691066
802.10 0.3689879
802.20 0.3688692
802.30 0.3687505
802.40 0.3686319
802.50 0.3685134
802.60 0.3683948
802.70 0.3682764
802.80 0.368158
802.90 0.3680396
803.00 0.3679213
803.10 0.367803
803.20 0.3676848
803.30 0.3675666
803.40 0.3674485
803.50 0.3673304
803.60 0.3672123
803.70 0.3670943
803.80 0.3669764
803.90 0.3668585
804.00 0.3667406
804.10 0.3666228
804.20 0.3665042
804.30 0.3663824
804.40 0.3662606
804.50 0.3661389
804.60 0.3660172
804.70 0.3658955
804.80 0.365774
804.90 0.3656524
805.00 0.3655309
805.10 0.3654095
805.20 0.3652881
805.30 0.3651668
805.40 0.3650455
805.50 0.3649243
805.60 0.3648031
805.70 0.3646819
805.80 0.3645608
805.90 0.3644398
806.00 0.3643188
806.10 0.3641979
806.20 0.364077
806.30 0.3639561
806.40 0.3638353
806.50 0.3637146
806.60 0.3635939
806.70 0.3634732
806.80 0.3633526
806.90 0.3632321
807.00 0.3631115
807.10 0.3629911
807.20 0.3628707
807.30 0.3627503
807.40 0.36263
807.50 0.3625097
807.60 0.3623895
807.70 0.3622694
807.80 0.3621492
807.90 0.3620292
808.00 0.3619091
808.10 0.3617892
808.20 0.3616693
808.30 0.3615538
808.40 0.3614383
808.50 0.3613228
808.60 0.3612074
808.70 0.3610921
808.80 0.3609768
808.90 0.3608615
809.00 0.3607463
809.10 0.3606311
809.20 0.360516
809.30 0.3604009
809.40 0.3602859
809.50 0.3601709
809.60 0.360056
809.70 0.3599411
809.80 0.3598262
809.90 0.3597114
810.00 0.3595967
810.10 0.359482
810.20 0.3593673
810.30 0.3592527
810.40 0.3591381
810.50 0.3590236
810.60 0.3589091
810.70 0.3587947
810.80 0.3586803
810.90 0.3585659
811.00 0.3584516
811.10 0.3583374
811.20 0.3582232
811.30 0.358109
811.40 0.3579949
811.50 0.3578808
811.60 0.3577668
811.70 0.3576528
811.80 0.3575389
811.90 0.357425
812.00 0.3573112
812.10 0.3571974
812.20 0.3570836
812.30 0.3569689
812.40 0.3568539
812.50 0.356739
812.60 0.3566241
812.70 0.3565093
812.80 0.3563945
812.90 0.3562798
813.00 0.3561651
813.10 0.3560505
813.20 0.3559359
813.30 0.3558213
813.40 0.3557068
813.50 0.3555924
813.60 0.355478
813.70 0.3553636
813.80 0.3552493
813.90 0.355135
814.00 0.3550208
814.10 0.3549066
814.20 0.3547925
814.30 0.3546784
814.40 0.3545643
814.50 0.3544503
814.60 0.3543364
814.70 0.3542225
814.80 0.3541086
814.90 0.3539948
815.00 0.353881
815.10 0.3537673
815.20 0.3536536
815.30 0.35354
815.40 0.3534264
815.50 0.3533128
815.60 0.3531993
815.70 0.3530859
815.80 0.3529724
815.90 0.3528591
816.00 0.3527458
816.10 0.3526325
816.20 0.3525192
816.30 0.3524061
816.40 0.3522929
816.50 0.3521798
816.60 0.3520668
816.70 0.3519537
816.80 0.3518408
816.90 0.3517279
817.00 0.351615
817.10 0.3515022
817.20 0.3513894
817.30 0.3512766
817.40 0.3511639
817.50 0.3510513
817.60 0.3509387
817.70 0.3508261
817.80 0.3507136
817.90 0.3506011
818.00 0.3504887
818.10 0.3503763
818.20 0.350264
818.30 0.3501517
818.40 0.3500394
818.50 0.3499272
818.60 0.349815
818.70 0.3497029
818.80 0.3495909
818.90 0.3494788
819.00 0.3493668
819.10 0.3492549
819.20 0.349143
819.30 0.3490232
819.40 0.3488981
819.50 0.348773
819.60 0.348648
819.70 0.348523
819.80 0.3483981
819.90 0.3482732
820.00 0.3481484
820.10 0.3480273
820.20 0.3479424
820.30 0.3478576
820.40 0.3477561
820.50 0.3476426
820.60 0.3475292
820.70 0.3474158
820.80 0.3473024
820.90 0.3471891
821.00 0.3470759
821.10 0.3469626
821.20 0.3468495
821.30 0.3467363
821.40 0.3466232
821.50 0.3465102
821.60 0.3463972
821.70 0.3462843
821.80 0.3461713
821.90 0.3460585
822.00 0.3459457
822.10 0.3458329
822.20 0.3457202
822.30 0.3456075
822.40 0.3454948
822.50 0.3453822
822.60 0.3452697
822.70 0.3451572
822.80 0.3450447
822.90 0.3449323
823.00 0.3448199
823.10 0.3447076
823.20 0.3445953
823.30 0.3444831
823.40 0.3443709
823.50 0.3442587
823.60 0.3441466
823.70 0.3440346
823.80 0.3439226
823.90 0.3438106
824.00 0.3436987
824.10 0.3435868
824.20 0.3434749
824.30 0.3433631
824.40 0.3432514
824.50 0.3431397
824.60 0.343028
824.70 0.3429164
824.80 0.3428048
824.90 0.3426933
825.00 0.3425818
825.10 0.3424704
825.20 0.342359
825.30 0.3422476
825.40 0.3421363
825.50 0.342025
825.60 0.3419138
825.70 0.3418026
825.80 0.3416915
825.90 0.3415804
826.00 0.3414693
826.10 0.3413583
826.20 0.3412474
826.30 0.3411404
826.40 0.3410361
826.50 0.3409319
826.60 0.3408277
826.70 0.3407235
826.80 0.3406194
826.90 0.3405153
827.00 0.3404113
827.10 0.3403073
827.20 0.3402033
827.30 0.3400994
827.40 0.3399955
827.50 0.3398917
827.60 0.3397879
827.70 0.3396841
827.80 0.3395804
827.90 0.3394767
828.00 0.3393731
828.10 0.3392695
828.20 0.3391659
828.30 0.3390624
828.40 0.3389589
828.50 0.3388555
828.60 0.3387486
828.70 0.3386388
828.80 0.338529
828.90 0.3384192
829.00 0.3383096
829.10 0.3381999
829.20 0.3380903
829.30 0.3379808
829.40 0.3378712
829.50 0.3377618
829.60 0.3376523
829.70 0.3375429
829.80 0.3374336
829.90 0.3373243
830.00 0.337215
830.10 0.3371058
830.20 0.3369967
830.30 0.3368875
830.40 0.3367784
830.50 0.3366694
830.60 0.3365604
830.70 0.3364514
830.80 0.3363425
830.90 0.3362336
831.00 0.3361248
831.10 0.336016
831.20 0.3359073
831.30 0.3357986
831.40 0.3356899
831.50 0.3355813
831.60 0.3354727
831.70 0.3353642
831.80 0.3352557
831.90 0.3351473
832.00 0.3350389
832.10 0.3349305
832.20 0.3348222
832.30 0.3347139
832.40 0.3346057
832.50 0.3344975
832.60 0.3343893
832.70 0.3342812
832.80 0.3341731
832.90 0.3340651
833.00 0.3339571
833.10 0.3338492
833.20 0.3337413
833.30 0.3336334
833.40 0.3335256
833.50 0.3334179
833.60 0.3333101
833.70 0.3332024
833.80 0.3330948
833.90 0.3329872
834.00 0.3328796
834.10 0.3327721
834.20 0.3326646
834.30 0.3325572
834.40 0.3324498
834.50 0.3323425
834.60 0.3322352
834.70 0.3321279
834.80 0.3320207
834.90 0.3319135
835.00 0.3318063
835.10 0.3316992
835.20 0.3315922
835.30 0.3314852
835.40 0.3313782
835.50 0.3312713
835.60 0.3311644
835.70 0.3310575
835.80 0.3309507
835.90 0.3308439
836.00 0.3307372
836.10 0.3306305
836.20 0.3305239
836.30 0.3304173
836.40 0.3303107
836.50 0.3302042
836.60 0.3300977
836.70 0.3299913
836.80 0.3298849
836.90 0.3297788
837.00 0.3296727
837.10 0.3295667
837.20 0.3294608
837.30 0.3293549
837.40 0.329249
837.50 0.3291432
837.60 0.3290374
837.70 0.3289316
837.80 0.3288259
837.90 0.3287202
838.00 0.3286146
838.10 0.328509
838.20 0.3284035
838.30 0.328298
838.40 0.3281925
838.50 0.3280871
838.60 0.3279817
838.70 0.3278764
838.80 0.3277711
838.90 0.3276658
839.00 0.3275606
839.10 0.3274554
839.20 0.3273503
839.30 0.3272452
839.40 0.3271402
839.50 0.3270352
839.60 0.3269302
839.70 0.3268253
839.80 0.3267204
839.90 0.3266155
840.00 0.3265107
840.10 0.3264059
840.20 0.3263012
840.30 0.3261965
840.40 0.3260919
840.50 0.3259873
840.60 0.3258827
840.70 0.3257782
840.80 0.3256737
840.90 0.3255693
841.00 0.3254649
841.10 0.3253605
841.20 0.3252562
841.30 0.3251519
841.40 0.3250477
841.50 0.3249435
841.60 0.3248393
841.70 0.3247352
841.80 0.3246311
841.90 0.3245271
842.00 0.3244231
842.10 0.3243192
842.20 0.3242153
842.30 0.3241114
842.40 0.3240076
842.50 0.3239038
842.60 0.3238
842.70 0.3236963
842.80 0.3235926
842.90 0.323489
843.00 0.3233854
843.10 0.3232819
843.20 0.3231783
843.30 0.3230749
843.40 0.3229714
843.50 0.3228681
843.60 0.3227647
843.70 0.3226614
843.80 0.3225581
843.90 0.3224549
844.00 0.3223517
844.10 0.3222486
844.20 0.3221454
844.30 0.3220424
844.40 0.3219393
844.50 0.3218363
844.60 0.3217334
844.70 0.3216305
844.80 0.3215276
844.90 0.3214248
845.00 0.321322
845.10 0.3212192
845.20 0.3211165
845.30 0.3210141
845.40 0.3209117
845.50 0.3208094
845.60 0.3207071
845.70 0.3206048
845.80 0.3205026
845.90 0.3204004
846.00 0.3202983
846.10 0.3201962
846.20 0.3200941
846.30 0.3199921
846.40 0.3198901
846.50 0.3197882
846.60 0.3196863
846.70 0.3195844
846.80 0.3194826
846.90 0.3193808
847.00 0.319279
847.10 0.3191773
847.20 0.3190757
847.30 0.318974
847.40 0.3188724
847.50 0.3187709
847.60 0.3186694
847.70 0.3185679
847.80 0.3184665
847.90 0.3183651
848.00 0.3182637
848.10 0.3181624
848.20 0.3180611
848.30 0.3179599
848.40 0.3178587
848.50 0.3177575
848.60 0.3176564
848.70 0.3175553
848.80 0.3174543
848.90 0.3173533
849.00 0.3172523
849.10 0.3171514
849.20 0.3170505
849.30 0.3169496
849.40 0.3168488
849.50 0.316748
849.60 0.3166473
849.70 0.3165466
849.80 0.3164459
849.90 0.3163453
850.00 0.3162447
850.10 0.3161442
850.20 0.3160437
850.30 0.3159432
850.40 0.3158428
850.50 0.3157424
850.60 0.3156421
850.70 0.3155417
850.80 0.3154415
850.90 0.3153412
851.00 0.315241
851.10 0.3151409
851.20 0.3150408
851.30 0.3149407
851.40 0.3148406
851.50 0.3147406
851.60 0.3146407
851.70 0.3145407
851.80 0.3144408
851.90 0.314341
852.00 0.3142412
852.10 0.3141414
852.20 0.3140417
852.30 0.313942
852.40 0.3138423
852.50 0.3137427
852.60 0.3136431
852.70 0.3135436
852.80 0.313444
852.90 0.3133446
853.00 0.3132451
853.10 0.3131457
853.20 0.3130464
853.30 0.3129471
853.40 0.3128478
853.50 0.3127485
853.60 0.3126493
853.70 0.3125503
853.80 0.3124514
853.90 0.3123526
854.00 0.3122538
854.10 0.312155
854.20 0.3120563
854.30 0.3119576
854.40 0.311859
854.50 0.3117604
854.60 0.3116618
854.70 0.3115633
854.80 0.3114648
854.90 0.3113663
855.00 0.3112679
855.10 0.3111695
855.20 0.3110711
855.30 0.3109728
855.40 0.3108746
855.50 0.3107763
855.60 0.3106781
855.70 0.31058
855.80 0.3104818
855.90 0.3103838
856.00 0.3102857
856.10 0.3101877
856.20 0.3100897
856.30 0.3099918
856.40 0.3098939
856.50 0.309796
856.60 0.3096982
856.70 0.3096004
856.80 0.3095027
856.90 0.309405
857.00 0.3093073
857.10 0.3092096
857.20 0.309112
857.30 0.3090145
857.40 0.308917
857.50 0.3088195
857.60 0.308722
857.70 0.3086246
857.80 0.3085272
857.90 0.3084299
858.00 0.3083326
858.10 0.3082353
858.20 0.3081381
858.30 0.3080409
858.40 0.3079437
858.50 0.3078466
858.60 0.3077495
858.70 0.3076525
858.80 0.3075555
858.90 0.3074585
859.00 0.3073616
859.10 0.3072647
859.20 0.3071678
859.30 0.307071
859.40 0.3069742
859.50 0.3068774
859.60 0.3067807
859.70 0.306684
859.80 0.3065874
859.90 0.3064908
860.00 0.3063942
860.10 0.3062977
860.20 0.3062012
860.30 0.3061047
860.40 0.3060083
860.50 0.3059119
860.60 0.3058156
860.70 0.3057193
860.80 0.305623
860.90 0.3055267
861.00 0.3054305
861.10 0.3053344
861.20 0.3052382
861.30 0.3051422
861.40 0.3050461
861.50 0.3049501
861.60 0.3048541
861.70 0.3047581
861.80 0.3046622
861.90 0.3045664
862.00 0.3044705
862.10 0.3043747
862.20 0.304279
862.30 0.3041835
862.40 0.3040881
862.50 0.3039926
862.60 0.3038973
862.70 0.3038019
862.80 0.3037066
862.90 0.3036114
863.00 0.3035162
863.10 0.303421
863.20 0.3033258
863.30 0.3032307
863.40 0.3031356
863.50 0.3030406
863.60 0.3029455
863.70 0.3028506
863.80 0.3027556
863.90 0.3026607
864.00 0.3025659
864.10 0.302471
864.20 0.3023762
864.30 0.3022815
864.40 0.3021867
864.50 0.302092
864.60 0.3019974
864.70 0.3019028
864.80 0.3018082
864.90 0.3017136
865.00 0.3016191
865.10 0.3015247
865.20 0.3014302
865.30 0.3013358
865.40 0.3012414
865.50 0.3011471
865.60 0.3010528
865.70 0.3009586
865.80 0.3008643
865.90 0.3007701
866.00 0.300676
866.10 0.3005819
866.20 0.3004878
866.30 0.3003937
866.40 0.3002997
866.50 0.3002057
866.60 0.3001118
866.70 0.3000179
866.80 0.299924
866.90 0.2998302
867.00 0.2997364
867.10 0.2996426
867.20 0.2995489
867.30 0.2994552
867.40 0.2993615
867.50 0.2992679
867.60 0.2991743
867.70 0.2990808
867.80 0.2989872
867.90 0.2988937
868.00 0.2988003
868.10 0.2987069
868.20 0.2986135
868.30 0.2985202
868.40 0.2984269
868.50 0.2983336
868.60 0.2982403
868.70 0.2981471
868.80 0.298054
868.90 0.2979608
869.00 0.2978677
869.10 0.2977747
869.20 0.2976816
869.30 0.2975886
869.40 0.2974957
869.50 0.2974028
869.60 0.2973099
869.70 0.297217
869.80 0.2971242
869.90 0.2970314
870.00 0.2969387
870.10 0.2968459
870.20 0.2967533
870.30 0.2966606
870.40 0.296568
870.50 0.2964754
870.60 0.2963829
870.70 0.2962904
870.80 0.2961979
870.90 0.2961057
871.00 0.2960135
871.10 0.2959214
871.20 0.2958293
871.30 0.2957373
871.40 0.2956452
871.50 0.2955532
871.60 0.2954613
871.70 0.2953694
871.80 0.2952775
871.90 0.2951856
872.00 0.2950938
872.10 0.295002
872.20 0.2949103
872.30 0.2948186
872.40 0.2947269
872.50 0.2946352
872.60 0.2945436
872.70 0.294452
872.80 0.2943605
872.90 0.294269
873.00 0.2941775
873.10 0.2940861
873.20 0.2939947
873.30 0.2939033
873.40 0.293812
873.50 0.2937207
873.60 0.2936294
873.70 0.2935382
873.80 0.293447
873.90 0.2933558
874.00 0.2932646
874.10 0.2931735
874.20 0.2930825
874.30 0.2929915
874.40 0.2929005
874.50 0.2928095
874.60 0.2927186
874.70 0.2926277
874.80 0.2925368
874.90 0.292446
875.00 0.2923552
875.10 0.2922644
875.20 0.2921725
875.30 0.2920784
875.40 0.2919843
875.50 0.2918902
875.60 0.2917962
875.70 0.2917023
875.80 0.2916083
875.90 0.2915144
876.00 0.2914206
876.10 0.2913267
876.20 0.2912329
876.30 0.2911392
876.40 0.2910455
876.50 0.2909518
876.60 0.2908581
876.70 0.2907645
876.80 0.2906709
876.90 0.2905774
877.00 0.2904838
877.10 0.2903904
877.20 0.2902969
877.30 0.2902035
877.40 0.2901101
877.50 0.2900168
877.60 0.2899235
877.70 0.2898302
877.80 0.289737
877.90 0.2896438
878.00 0.2895506
878.10 0.2894575
878.20 0.2893644
878.30 0.2892714
878.40 0.2891783
878.50 0.2890854
878.60 0.2889924
878.70 0.2888995
878.80 0.2888066
878.90 0.2887138
879.00 0.2886209
879.10 0.2885282
879.20 0.2884354
879.30 0.2883427
879.40 0.28825
879.50 0.2881574
879.60 0.2880678
879.70 0.2879788
879.80 0.2878899
879.90 0.287801
880.00 0.2877122
880.10 0.2876233
880.20 0.2875346
880.30 0.2874458
880.40 0.2873571
880.50 0.2872684
880.60 0.2871797
880.70 0.2870911
880.80 0.2870025
880.90 0.286914
881.00 0.2868255
881.10 0.286737
881.20 0.2866485
881.30 0.2865601
881.40 0.2864717
881.50 0.2863833
881.60 0.286295
881.70 0.2862067
881.80 0.2861185
881.90 0.2860302
882.00 0.285942
882.10 0.2858539
882.20 0.2857658
882.30 0.2856777
882.40 0.2855896
882.50 0.2855016
882.60 0.2854136
882.70 0.2853256
882.80 0.2852377
882.90 0.2851498
883.00 0.2850619
883.10 0.2849741
883.20 0.2848863
883.30 0.2847985
883.40 0.2847107
883.50 0.284623
883.60 0.2845354
883.70 0.2844477
883.80 0.2843601
883.90 0.2842725
884.00 0.284185
884.10 0.2840975
884.20 0.28401
884.30 0.2839225
884.40 0.2838351
884.50 0.2837477
884.60 0.2836604
884.70 0.283573
884.80 0.2834858
884.90 0.2833985
885.00 0.2833113
885.10 0.2832241
885.20 0.2831369
885.30 0.2830498
885.40 0.2829627
885.50 0.2828756
885.60 0.2827886
885.70 0.2827016
885.80 0.2826146
885.90 0.2825277
886.00 0.2824408
886.10 0.2823539
886.20 0.282267
886.30 0.2821802
886.40 0.2820935
886.50 0.2820067
886.60 0.28192
886.70 0.2818333
886.80 0.2817467
886.90 0.28166
887.00 0.2815735
887.10 0.2814869
887.20 0.2814004
887.30 0.2813139
887.40 0.2812274
887.50 0.281141
887.60 0.2810546
887.70 0.2809682
887.80 0.2808819
887.90 0.2807956
888.00 0.2807093
888.10 0.2806231
888.20 0.2805369
888.30 0.2804507
888.40 0.2803634
888.50 0.2802759
888.60 0.2801884
888.70 0.280101
888.80 0.2800135
888.90 0.2799262
889.00 0.2798388
889.10 0.2797515
889.20 0.2796642
889.30 0.279577
889.40 0.2794898
889.50 0.2794026
889.60 0.2793154
889.70 0.2792283
889.80 0.2791412
889.90 0.2790542
890.00 0.2789672
890.10 0.2788802
890.20 0.2787932
890.30 0.2787063
890.40 0.2786194
890.50 0.2785325
890.60 0.2784457
890.70 0.2783589
890.80 0.2782721
890.90 0.2781854
891.00 0.2780987
891.10 0.278012
891.20 0.2779254
891.30 0.2778388
891.40 0.2777522
891.50 0.2776656
891.60 0.2775791
891.70 0.2774927
891.80 0.2774062
891.90 0.2773198
892.00 0.2772334
892.10 0.2771471
892.20 0.2770607
892.30 0.2769744
892.40 0.2768882
892.50 0.276802
892.60 0.2767158
892.70 0.2766296
892.80 0.2765435
892.90 0.2764574
893.00 0.2763713
893.10 0.2762853
893.20 0.2761993
893.30 0.2761133
893.40 0.2760274
893.50 0.2759414
893.60 0.2758556
893.70 0.2757697
893.80 0.2756839
893.90 0.2755981
894.00 0.2755124
894.10 0.2754266
894.20 0.275341
894.30 0.2752553
894.40 0.2751697
894.50 0.2750841
894.60 0.2749985
894.70 0.274913
894.80 0.2748275
894.90 0.274742
895.00 0.2746566
895.10 0.2745712
895.20 0.2744858
895.30 0.2744004
895.40 0.2743151
895.50 0.2742299
895.60 0.2741446
895.70 0.2740594
895.80 0.2739742
895.90 0.273889
896.00 0.2738039
896.10 0.2737188
896.20 0.2736338
896.30 0.2735487
896.40 0.2734637
896.50 0.2733788
896.60 0.2732938
896.70 0.2732089
896.80 0.273124
896.90 0.2730392
897.00 0.2729544
897.10 0.2728696
897.20 0.2727848
897.30 0.2726987
897.40 0.2726127
897.50 0.2725267
897.60 0.2724407
897.70 0.2723548
897.80 0.2722689
897.90 0.272183
898.00 0.2720972
898.10 0.2720113
898.20 0.2719256
898.30 0.2718398
898.40 0.2717541
898.50 0.2716684
898.60 0.2715828
898.70 0.2714971
898.80 0.2714115
898.90 0.271326
899.00 0.2712405
899.10 0.271155
899.20 0.2710695
899.30 0.2709841
899.40 0.2708987
899.50 0.2708133
899.60 0.270728
899.70 0.2706426
899.80 0.2705574
899.90 0.2704721
900.00 0.2703869
900.10 0.2703017
900.20 0.2702166
900.30 0.2701314
900.40 0.2700464
900.50 0.2699613
900.60 0.2698763
900.70 0.2697913
900.80 0.2697063
900.90 0.2696214
901.00 0.2695365
901.10 0.2694516
901.20 0.2693667
901.30 0.2692819
901.40 0.2691972
901.50 0.2691124
901.60 0.2690277
901.70 0.2689436
901.80 0.268862
901.90 0.2687805
902.00 0.2686991
902.10 0.2686176
902.20 0.2685362
902.30 0.2684548
902.40 0.2683735
902.50 0.2682921
902.60 0.2682109
902.70 0.2681296
902.80 0.2680484
902.90 0.2679672
903.00 0.267886
903.10 0.2678048
903.20 0.2677237
903.30 0.2676426
903.40 0.2675616
903.50 0.2674805
903.60 0.2673995
903.70 0.2673186
903.80 0.2672376
903.90 0.2671567
904.00 0.2670758
904.10 0.266995
904.20 0.2669141
904.30 0.2668334
904.40 0.2667526
904.50 0.2666719
904.60 0.2665911
904.70 0.2665105
904.80 0.2664298
904.90 0.2663492
905.00 0.2662686
905.10 0.266188
905.20 0.2661075
905.30 0.266027
905.40 0.2659465
905.50 0.2658661
905.60 0.2657857
905.70 0.2657053
905.80 0.2656249
905.90 0.2655446
906.00 0.2654643
906.10 0.265384
906.20 0.2653029
906.30 0.2652198
906.40 0.2651368
906.50 0.2650538
906.60 0.2649708
906.70 0.2648879
906.80 0.2648049
906.90 0.2647221
907.00 0.2646392
907.10 0.2645564
907.20 0.2644736
907.30 0.2643908
907.40 0.2643081
907.50 0.2642254
907.60 0.2641427
907.70 0.2640601
907.80 0.2639775
907.90 0.2638949
908.00 0.2638123
908.10 0.2637298
908.20 0.2636473
908.30 0.2635649
908.40 0.2634824
908.50 0.2634
908.60 0.2633177
908.70 0.2632353
908.80 0.263153
908.90 0.2630707
909.00 0.2629885
909.10 0.2629062
909.20 0.2628241
909.30 0.2627419
909.40 0.2626598
909.50 0.2625776
909.60 0.2624956
909.70 0.2624135
909.80 0.2623315
909.90 0.2622495
910.00 0.2621676
910.10 0.2620857
910.20 0.2620038
910.30 0.2619219
910.40 0.2618401
910.50 0.2617582
910.60 0.2616765
910.70 0.2615947
910.80 0.261513
910.90 0.2614313
911.00 0.2613497
911.10 0.261268
911.20 0.2611864
911.30 0.2611049
911.40 0.2610233
911.50 0.2609418
911.60 0.2608603
911.70 0.2607789
911.80 0.2606974
911.90 0.2606161
912.00 0.2605347
912.10 0.2604534
912.20 0.260372
912.30 0.2602908
912.40 0.2602095
912.50 0.2601283
912.60 0.2600471
912.70 0.259966
912.80 0.2598848
912.90 0.2598037
913.00 0.2597227
913.10 0.2596416
913.20 0.2595606
913.30 0.2594796
913.40 0.2593987
913.50 0.2593178
913.60 0.2592369
913.70 0.259156
913.80 0.2590752
913.90 0.2589943
914.00 0.2589136
914.10 0.2588328
914.20 0.2587521
914.30 0.2586714
914.40 0.2585907
914.50 0.2585101
914.60 0.2584295
914.70 0.2583489
914.80 0.2582684
914.90 0.2581879
915.00 0.2581074
915.10 0.2580269
915.20 0.2579465
915.30 0.2578683
915.40 0.2577912
915.50 0.2577141
915.60 0.2576369
915.70 0.2575599
915.80 0.2574828
915.90 0.2574058
916.00 0.2573288
916.10 0.2572518
916.20 0.2571749
916.30 0.257098
916.40 0.2570211
916.50 0.2569442
916.60 0.2568674
916.70 0.2567906
916.80 0.2567138
916.90 0.2566371
917.00 0.2565604
917.10 0.2564837
917.20 0.256407
917.30 0.2563304
917.40 0.2562537
917.50 0.2561772
917.60 0.2561006
917.70 0.2560241
917.80 0.2559476
917.90 0.2558711
918.00 0.2557946
918.10 0.2557182
918.20 0.2556418
918.30 0.2555655
918.40 0.2554891
918.50 0.2554128
918.60 0.2553365
918.70 0.2552603
918.80 0.255184
918.90 0.2551078
919.00 0.2550317
919.10 0.2549555
919.20 0.2548794
919.30 0.2548033
919.40 0.2547272
919.50 0.2546512
919.60 0.2545752
919.70 0.2544992
919.80 0.2544232
919.90 0.2543445
920.00 0.2542657
920.10 0.2541868
920.20 0.254108
920.30 0.2540293
920.40 0.2539505
920.50 0.2538718
920.60 0.2537932
920.70 0.2537145
920.80 0.2536359
920.90 0.2535573
921.00 0.2534787
921.10 0.2534002
921.20 0.2533217
921.30 0.2532432
921.40 0.2531647
921.50 0.2530863
921.60 0.2530079
921.70 0.2529295
921.80 0.2528512
921.90 0.2527729
922.00 0.2526946
922.10 0.2526163
922.20 0.2525381
922.30 0.2524599
922.40 0.2523817
922.50 0.2523036
922.60 0.2522254
922.70 0.2521473
922.80 0.2520693
922.90 0.2519912
923.00 0.2519132
923.10 0.2518353
923.20 0.2517573
923.30 0.2516794
923.40 0.2516015
923.50 0.2515236
923.60 0.2514458
923.70 0.251368
923.80 0.2512902
923.90 0.2512124
924.00 0.2511347
924.10 0.251057
924.20 0.2509793
924.30 0.2509017
924.40 0.2508241
924.50 0.2507467
924.60 0.2506694
924.70 0.2505921
924.80 0.2505148
924.90 0.2504376
925.00 0.2503604
925.10 0.2502832
925.20 0.250206
925.30 0.2501289
925.40 0.2500517
925.50 0.2499747
925.60 0.2498976
925.70 0.2498206
925.80 0.2497436
925.90 0.2496666
926.00 0.2495897
926.10 0.2495127
926.20 0.2494358
926.30 0.249359
926.40 0.2492821
926.50 0.2492053
926.60 0.2491286
926.70 0.2490518
926.80 0.2489751
926.90 0.2488984
927.00 0.2488217
927.10 0.2487451
927.20 0.2486684
927.30 0.2485918
927.40 0.2485153
927.50 0.2484387
927.60 0.2483622
927.70 0.2482858
927.80 0.2482093
927.90 0.2481329
928.00 0.2480565
928.10 0.2479801
928.20 0.2479037
928.30 0.2478274
928.40 0.2477511
928.50 0.2476749
928.60 0.2475986
928.70 0.2475224
928.80 0.2474462
928.90 0.2473701
929.00 0.247294
929.10 0.2472179
929.20 0.2471418
929.30 0.2470657
929.40 0.2469897
929.50 0.2469137
929.60 0.2468378
929.70 0.2467618
929.80 0.2466859
929.90 0.24661
930.00 0.2465342
930.10 0.2464583
930.20 0.2463825
930.30 0.2463067
930.40 0.246231
930.50 0.2461553
930.60 0.2460796
930.70 0.2460039
930.80 0.2459282
930.90 0.2458526
931.00 0.245777
931.10 0.2457015
931.20 0.2456259
931.30 0.2455504
931.40 0.2454749
931.50 0.2453995
931.60 0.2453241
931.70 0.2452487
931.80 0.2451733
931.90 0.2450979
932.00 0.2450226
932.10 0.2449473
932.20 0.244872
932.30 0.2447968
932.40 0.2447216
932.50 0.2446464
932.60 0.2445712
932.70 0.2444961
932.80 0.244421
932.90 0.2443459
933.00 0.2442708
933.10 0.2441958
933.20 0.2441208
933.30 0.2440458
933.40 0.2439709
933.50 0.2438959
933.60 0.2438211
933.70 0.2437474
933.80 0.2436742
933.90 0.243601
934.00 0.2435278
934.10 0.2434547
934.20 0.2433815
934.30 0.2433084
934.40 0.2432354
934.50 0.2431623
934.60 0.2430893
934.70 0.2430163
934.80 0.2429434
934.90 0.2428704
935.00 0.2427975
935.10 0.2427246
935.20 0.2426518
935.30 0.2425789
935.40 0.2425061
935.50 0.2424333
935.60 0.2423606
935.70 0.2422879
935.80 0.2422151
935.90 0.2421425
936.00 0.2420698
936.10 0.2419972
936.20 0.2419246
936.30 0.241852
936.40 0.2417794
936.50 0.2417069
936.60 0.2416344
936.70 0.2415619
936.80 0.2414895
936.90 0.241417
937.00 0.2413446
937.10 0.2412723
937.20 0.2411999
937.30 0.2411276
937.40 0.2410553
937.50 0.240983
937.60 0.2409108
937.70 0.2408385
937.80 0.2407663
937.90 0.2406942
938.00 0.240622
938.10 0.2405499
938.20 0.2404778
938.30 0.2404057
938.40 0.2403337
938.50 0.2402617
938.60 0.2401897
938.70 0.2401177
938.80 0.2400457
938.90 0.2399738
939.00 0.2399019
939.10 0.2398301
939.20 0.2397582
939.30 0.2396864
939.40 0.2396146
939.50 0.2395428
939.60 0.2394711
939.70 0.2393994
939.80 0.2393277
939.90 0.239256
940.00 0.2391844
940.10 0.2391127
940.20 0.2390411
940.30 0.2389696
940.40 0.238898
940.50 0.2388265
940.60 0.238755
940.70 0.2386835
940.80 0.2386121
940.90 0.2385407
941.00 0.2384693
941.10 0.2383979
941.20 0.2383266
941.30 0.2382552
941.40 0.238184
941.50 0.2381127
941.60 0.2380414
941.70 0.2379702
941.80 0.237899
941.90 0.2378279
942.00 0.2377567
942.10 0.2376856
942.20 0.2376145
942.30 0.2375434
942.40 0.2374724
942.50 0.2374014
942.60 0.2373304
942.70 0.2372594
942.80 0.2371884
942.90 0.2371175
943.00 0.2370462
943.10 0.2369742
943.20 0.2369022
943.30 0.2368302
943.40 0.2367582
943.50 0.2366863
943.60 0.2366144
943.70 0.2365425
943.80 0.2364707
943.90 0.2363988
944.00 0.236327
944.10 0.2362553
944.20 0.2361835
944.30 0.2361118
944.40 0.2360401
944.50 0.2359684
944.60 0.2358968
944.70 0.2358251
944.80 0.2357535
944.90 0.235682
945.00 0.2356104
945.10 0.2355389
945.20 0.2354674
945.30 0.2353959
945.40 0.2353245
945.50 0.235253
945.60 0.2351816
945.70 0.2351103
945.80 0.2350389
945.90 0.2349676
946.00 0.2348963
946.10 0.234825
946.20 0.2347538
946.30 0.2346825
946.40 0.2346113
946.50 0.2345402
946.60 0.234469
946.70 0.2343979
946.80 0.2343268
946.90 0.2342557
947.00 0.2341847
947.10 0.2341136
947.20 0.2340426
947.30 0.2339717
947.40 0.2339007
947.50 0.2338298
947.60 0.2337589
947.70 0.233688
947.80 0.2336171
947.90 0.2335463
948.00 0.2334755
948.10 0.2334047
948.20 0.233334
948.30 0.2332632
948.40 0.2331925
948.50 0.2331218
948.60 0.2330512
948.70 0.2329806
948.80 0.23291
948.90 0.2328394
949.00 0.2327688
949.10 0.2326983
949.20 0.2326278
949.30 0.2325573
949.40 0.2324868
949.50 0.2324164
949.60 0.232346
949.70 0.2322756
949.80 0.2322052
949.90 0.2321349
950.00 0.2320646
950.10 0.2319943
950.20 0.231924
950.30 0.2318538
950.40 0.2317836
950.50 0.2317134
950.60 0.2316432
950.70 0.2315731
950.80 0.231503
950.90 0.2314329
951.00 0.2313628
951.10 0.2312927
951.20 0.2312227
951.30 0.2311527
951.40 0.2310828
951.50 0.2310128
951.60 0.2309429
951.70 0.230873
951.80 0.2308031
951.90 0.2307333
952.00 0.2306634
952.10 0.2305936
952.20 0.2305239
952.30 0.2304541
952.40 0.2303844
952.50 0.2303149
952.60 0.2302454
952.70 0.230176
952.80 0.2301066
952.90 0.2300372
953.00 0.2299678
953.10 0.2298984
953.20 0.2298291
953.30 0.2297598
953.40 0.2296905
953.50 0.2296213
953.60 0.229552
953.70 0.2294828
953.80 0.2294137
953.90 0.2293445
954.00 0.2292754
954.10 0.2292063
954.20 0.2291372
954.30 0.2290681
954.40 0.2289991
954.50 0.2289301
954.60 0.2288611
954.70 0.2287921
954.80 0.2287232
954.90 0.2286542
955.00 0.2285853
955.10 0.2285165
955.20 0.2284476
955.30 0.2283788
955.40 0.22831
955.50 0.2282412
955.60 0.2281725
955.70 0.2281037
955.80 0.228035
955.90 0.2279664
956.00 0.2278977
956.10 0.2278291
956.20 0.2277605
956.30 0.2276919
956.40 0.2276233
956.50 0.2275548
956.60 0.2274863
956.70 0.2274178
956.80 0.2273493
956.90 0.2272809
957.00 0.2272124
957.10 0.227144
957.20 0.2270757
957.30 0.2270073
957.40 0.226939
957.50 0.2268707
957.60 0.2268024
957.70 0.2267342
957.80 0.2266659
957.90 0.2265977
958.00 0.2265295
958.10 0.2264614
958.20 0.2263932
958.30 0.2263251
958.40 0.226257
958.50 0.226189
958.60 0.2261209
958.70 0.2260529
958.80 0.2259849
958.90 0.2259169
959.00 0.225849
959.10 0.2257811
959.20 0.2257131
959.30 0.2256453
959.40 0.2255774
959.50 0.2255096
959.60 0.2254418
959.70 0.225374
959.80 0.2253062
959.90 0.2252385
960.00 0.2251708
960.10 0.2251031
960.20 0.2250354
960.30 0.2249678
960.40 0.2249001
960.50 0.2248325
960.60 0.224765
960.70 0.2246974
960.80 0.2246299
960.90 0.2245624
961.00 0.2244949
961.10 0.2244274
961.20 0.22436
961.30 0.2242926
961.40 0.2242252
961.50 0.2241578
961.60 0.2240905
961.70 0.2240232
961.80 0.2239559
961.90 0.2238886
962.00 0.2238215
962.10 0.2237545
962.20 0.2236875
962.30 0.2236205
962.40 0.2235536
962.50 0.2234866
962.60 0.2234197
962.70 0.2233528
962.80 0.223286
962.90 0.2232191
963.00 0.2231523
963.10 0.2230855
963.20 0.2230187
963.30 0.222952
963.40 0.2228853
963.50 0.2228186
963.60 0.2227519
963.70 0.2226852
963.80 0.2226186
963.90 0.222552
964.00 0.2224854
964.10 0.2224188
964.20 0.2223523
964.30 0.2222858
964.40 0.2222193
964.50 0.2221528
964.60 0.2220864
964.70 0.2220199
964.80 0.2219535
964.90 0.2218871
965.00 0.2218208
965.10 0.2217544
965.20 0.2216881
965.30 0.2216218
965.40 0.2215556
965.50 0.2214893
965.60 0.2214231
965.70 0.2213569
965.80 0.2212907
965.90 0.2212246
966.00 0.2211584
966.10 0.2210923
966.20 0.2210262
966.30 0.2209602
966.40 0.2208941
966.50 0.2208281
966.60 0.2207621
966.70 0.2206961
966.80 0.2206302
966.90 0.2205642
967.00 0.2204983
967.10 0.2204325
967.20 0.2203666
967.30 0.2203008
967.40 0.2202349
967.50 0.2201691
967.60 0.2201034
967.70 0.2200376
967.80 0.2199719
967.90 0.2199062
968.00 0.2198405
968.10 0.2197748
968.20 0.2197092
968.30 0.2196436
968.40 0.219578
968.50 0.2195124
968.60 0.2194469
968.70 0.2193814
968.80 0.2193159
968.90 0.2192504
969.00 0.2191849
969.10 0.2191195
969.20 0.2190541
969.30 0.2189887
969.40 0.2189233
969.50 0.218858
969.60 0.2187926
969.70 0.2187273
969.80 0.2186621
969.90 0.2185968
970.00 0.2185316
970.10 0.2184664
970.20 0.2184012
970.30 0.218336
970.40 0.2182708
970.50 0.2182057
970.60 0.2181406
970.70 0.2180755
970.80 0.2180105
970.90 0.2179455
971.00 0.2178804
971.10 0.2178154
971.20 0.2177505
971.30 0.2176855
971.40 0.2176206
971.50 0.2175557
971.60 0.217491
971.70 0.2174263
971.80 0.2173617
971.90 0.217297
972.00 0.2172325
972.10 0.2171679
972.20 0.2171033
972.30 0.2170388
972.40 0.2169743
972.50 0.2169098
972.60 0.2168454
972.70 0.2167809
972.80 0.2167165
972.90 0.2166521
973.00 0.2165877
973.10 0.2165234
973.20 0.216459
973.30 0.2163947
973.40 0.2163304
973.50 0.2162662
973.60 0.2162019
973.70 0.2161377
973.80 0.2160735
973.90 0.2160093
974.00 0.2159452
974.10 0.215881
974.20 0.2158169
974.30 0.2157528
974.40 0.2156888
974.50 0.2156247
974.60 0.2155607
974.70 0.2154967
974.80 0.2154327
974.90 0.2153688
975.00 0.2153048
975.10 0.2152409
975.20 0.215177
975.30 0.2151131
975.40 0.2150493
975.50 0.2149855
975.60 0.2149216
975.70 0.2148579
975.80 0.2147941
975.90 0.2147304
976.00 0.2146666
976.10 0.2146029
976.20 0.2145393
976.30 0.2144756
976.40 0.214412
976.50 0.2143483
976.60 0.2142848
976.70 0.2142212
976.80 0.2141576
976.90 0.2140941
977.00 0.2140306
977.10 0.2139671
977.20 0.2139037
977.30 0.2138402
977.40 0.2137768
977.50 0.2137134
977.60 0.21365
977.70 0.2135867
977.80 0.2135233
977.90 0.21346
978.00 0.2133967
978.10 0.2133335
978.20 0.2132702
978.30 0.213207
978.40 0.2131438
978.50 0.2130806
978.60 0.2130174
978.70 0.2129543
978.80 0.2128912
978.90 0.2128281
979.00 0.212765
979.10 0.2127019
979.20 0.2126389
979.30 0.2125759
979.40 0.2125129
979.50 0.2124499
979.60 0.212387
979.70 0.212324
979.80 0.2122611
979.90 0.2121982
980.00 0.2121354
980.10 0.2120725
980.20 0.2120097
980.30 0.2119469
980.40 0.2118841
980.50 0.2118214
980.60 0.2117586
980.70 0.2116959
980.80 0.2116332
980.90 0.2115706
981.00 0.2115079
981.10 0.2114453
981.20 0.2113827
981.30 0.2113202
981.40 0.2112578
981.50 0.2111954
981.60 0.2111331
981.70 0.2110708
981.80 0.2110085
981.90 0.2109462
982.00 0.210884
982.10 0.2108218
982.20 0.2107596
982.30 0.2106974
982.40 0.2106352
982.50 0.2105731
982.60 0.2105109
982.70 0.2104488
982.80 0.2103868
982.90 0.2103247
983.00 0.2102627
983.10 0.2102007
983.20 0.2101387
983.30 0.2100767
983.40 0.2100147
983.50 0.2099528
983.60 0.2098909
983.70 0.209829
983.80 0.2097671
983.90 0.2097053
984.00 0.2096434
984.10 0.2095816
984.20 0.2095198
984.30 0.2094581
984.40 0.2093963
984.50 0.2093346
984.60 0.2092729
984.70 0.2092112
984.80 0.2091496
984.90 0.2090879
985.00 0.2090263
985.10 0.2089647
985.20 0.2089031
985.30 0.2088415
985.40 0.20878
985.50 0.2087185
985.60 0.208657
985.70 0.2085955
985.80 0.2085341
985.90 0.2084726
986.00 0.2084112
986.10 0.2083498
986.20 0.2082884
986.30 0.2082271
986.40 0.2081658
986.50 0.2081044
986.60 0.2080431
986.70 0.2079819
986.80 0.2079206
986.90 0.2078594
987.00 0.2077982
987.10 0.207737
987.20 0.2076758
987.30 0.2076147
987.40 0.2075536
987.50 0.2074924
987.60 0.2074314
987.70 0.2073703
987.80 0.2073092
987.90 0.2072482
988.00 0.2071872
988.10 0.2071262
988.20 0.2070653
988.30 0.2070043
988.40 0.2069434
988.50 0.2068825
988.60 0.2068216
988.70 0.2067608
988.80 0.2066999
988.90 0.2066391
989.00 0.2065783
989.10 0.2065175
989.20 0.2064568
989.30 0.206396
989.40 0.2063353
989.50 0.2062746
989.60 0.2062139
989.70 0.2061533
989.80 0.2060926
989.90 0.206032
990.00 0.2059714
990.10 0.2059108
990.20 0.2058503
990.30 0.2057897
990.40 0.2057292
990.50 0.2056687
990.60 0.2056083
990.70 0.2055478
990.80 0.2054874
990.90 0.205427
991.00 0.2053666
991.10 0.2053054
991.20 0.2052429
991.30 0.2051804
991.40 0.2051179
991.50 0.2050555
991.60 0.204993
991.70 0.2049306
991.80 0.2048682
991.90 0.2048059
992.00 0.2047435
992.10 0.2046812
992.20 0.2046189
992.30 0.2045566
992.40 0.2044944
992.50 0.2044321
992.60 0.2043699
992.70 0.2043077
992.80 0.2042455
992.90 0.2041834
993.00 0.2041212
993.10 0.2040591
993.20 0.203997
993.30 0.203935
993.40 0.2038729
993.50 0.2038109
993.60 0.2037489
993.70 0.2036869
993.80 0.2036249
993.90 0.203563
994.00 0.203501
994.10 0.2034391
994.20 0.2033773
994.30 0.2033154
994.40 0.2032535
994.50 0.2031917
994.60 0.2031299
994.70 0.2030681
994.80 0.2030064
994.90 0.2029446
995.00 0.2028829
995.10 0.2028212
995.20 0.2027596
995.30 0.2026979
995.40 0.2026363
995.50 0.2025746
995.60 0.2025131
995.70 0.2024515
995.80 0.2023899
995.90 0.2023284
996.00 0.2022669
996.10 0.2022073
996.20 0.2021481
996.30 0.202089
996.40 0.2020299
996.50 0.2019708
996.60 0.2019118
996.70 0.2018527
996.80 0.2017937
996.90 0.2017347
997.00 0.2016757
997.10 0.2016167
997.20 0.2015578
997.30 0.2014988
997.40 0.2014399
997.50 0.201381
997.60 0.2013221
997.70 0.2012633
997.80 0.2012045
997.90 0.2011456
998.00 0.2010868
998.10 0.2010281
998.20 0.2009693
998.30 0.2009106
998.40 0.2008519
998.50 0.2007932
998.60 0.2007345
998.70 0.2006758
998.80 0.2006172
998.90 0.2005586
999.00 0.2005
999.10 0.2004414
999.20 0.2003828
999.30 0.2003243
999.40 0.2002658
999.50 0.2002073
999.60 0.2001488
999.70 0.2000903
999.80 0.2000319
999.90 0.1999734
1000.00 0.199915
1000.10 0.1998567
1000.20 0.1997983
1000.30 0.1997399
1000.40 0.1996816
1000.50 0.1996233
1000.60 0.199565
1000.70 0.1995067
1000.80 0.1994485
1000.90 0.1993903
1001.00 0.1993321
1001.10 0.1992741
1001.20 0.1992161
1001.30 0.1991581
1001.40 0.1991002
1001.50 0.1990422
1001.60 0.1989843
1001.70 0.1989264
1001.80 0.1988685
1001.90 0.1988107
1002.00 0.1987528
1002.10 0.198695
1002.20 0.1986372
1002.30 0.1985794
1002.40 0.1985216
1002.50 0.1984639
1002.60 0.1984062
1002.70 0.1983485
1002.80 0.1982908
1002.90 0.1982331
1003.00 0.1981755
1003.10 0.1981178
1003.20 0.1980602
1003.30 0.1980026
1003.40 0.1979451
1003.50 0.1978875
1003.60 0.19783
1003.70 0.1977724
1003.80 0.1977149
1003.90 0.1976575
1004.00 0.1976
1004.10 0.1975426
1004.20 0.1974851
1004.30 0.1974277
1004.40 0.1973704
1004.50 0.197313
1004.60 0.1972556
1004.70 0.1971983
1004.80 0.197141
1004.90 0.1970837
1005.00 0.1970264
1005.10 0.1969692
1005.20 0.196912
1005.30 0.1968548
1005.40 0.1967976
1005.50 0.1967404
1005.60 0.1966832
1005.70 0.1966261
1005.80 0.196569
1005.90 0.1965119
1006.00 0.1964548
1006.10 0.1963977
1006.20 0.1963407
1006.30 0.1962836
1006.40 0.1962266
1006.50 0.1961696
1006.60 0.1961127
1006.70 0.1960557
1006.80 0.1959988
1006.90 0.1959419
1007.00 0.195885
1007.10 0.1958281
1007.20 0.1957712
1007.30 0.1957144
1007.40 0.1956576
1007.50 0.1956007
1007.60 0.195544
1007.70 0.1954872
1007.80 0.1954304
1007.90 0.1953737
1008.00 0.195317
1008.10 0.1952603
1008.20 0.1952036
1008.30 0.195147
1008.40 0.1950903
1008.50 0.1950337
1008.60 0.1949771
1008.70 0.1949206
1008.80 0.194864
1008.90 0.1948074
1009.00 0.1947509
1009.10 0.1946944
1009.20 0.1946379
1009.30 0.1945815
1009.40 0.194525
1009.50 0.1944686
1009.60 0.1944122
1009.70 0.1943558
1009.80 0.1942994
1009.90 0.194243
1010.00 0.1941867
1010.10 0.1941304
1010.20 0.1940741
1010.30 0.1940178
1010.40 0.1939615
1010.50 0.1939053
1010.60 0.193849
1010.70 0.1937928
1010.80 0.1937366
1010.90 0.1936805
1011.00 0.1936243
1011.10 0.1935684
1011.20 0.1935125
1011.30 0.1934565
1011.40 0.1934006
1011.50 0.1933448
1011.60 0.1932889
1011.70 0.193233
1011.80 0.1931772
1011.90 0.1931214
1012.00 0.1930656
1012.10 0.1930098
1012.20 0.1929541
1012.30 0.1928983
1012.40 0.1928426
1012.50 0.1927869
1012.60 0.1927312
1012.70 0.1926756
1012.80 0.1926199
1012.90 0.1925643
1013.00 0.1925087
1013.10 0.1924531
1013.20 0.1923975
1013.30 0.192342
1013.40 0.1922864
1013.50 0.1922309
1013.60 0.1921754
1013.70 0.1921199
1013.80 0.1920645
1013.90 0.192009
1014.00 0.1919536
1014.10 0.1918982
1014.20 0.1918428
1014.30 0.1917874
1014.40 0.1917321
1014.50 0.1916767
1014.60 0.1916214
1014.70 0.1915661
1014.80 0.1915108
1014.90 0.1914556
1015.00 0.1914003
1015.10 0.1913451
1015.20 0.1912899
1015.30 0.1912347
1015.40 0.1911795
1015.50 0.1911244
1015.60 0.1910692
1015.70 0.1910141
1015.80 0.190959
1015.90 0.1909039
1016.00 0.1908489
1016.10 0.1907925
1016.20 0.1907352
1016.30 0.1906781
1016.40 0.1906209
1016.50 0.1905637
1016.60 0.1905066
1016.70 0.1904495
1016.80 0.1903924
1016.90 0.1903353
1017.00 0.1902782
1017.10 0.1902212
1017.20 0.1901641
1017.30 0.1901071
1017.40 0.1900501
1017.50 0.1899932
1017.60 0.1899362
1017.70 0.1898793
1017.80 0.1898224
1017.90 0.1897655
1018.00 0.1897086
1018.10 0.1896517
1018.20 0.1895949
1018.30 0.1895381
1018.40 0.1894813
1018.50 0.1894245
1018.60 0.1893677
1018.70 0.189311
1018.80 0.1892542
1018.90 0.1891975
1019.00 0.1891408
1019.10 0.1890842
1019.20 0.1890275
1019.30 0.1889709
1019.40 0.1889143
1019.50 0.1888577
1019.60 0.1888011
1019.70 0.1887445
1019.80 0.188688
1019.90 0.1886315
1020.00 0.188575
1020.10 0.1885185
1020.20 0.188462
1020.30 0.1884055
1020.40 0.1883491
1020.50 0.1882927
1020.60 0.1882363
1020.70 0.1881799
1020.80 0.1881236
1020.90 0.1880672
1021.00 0.1880109
1021.10 0.1879548
1021.20 0.1879008
1021.30 0.1878469
1021.40 0.187793
1021.50 0.1877391
1021.60 0.1876852
1021.70 0.1876314
1021.80 0.1875775
1021.90 0.1875237
1022.00 0.1874699
1022.10 0.1874161
1022.20 0.1873623
1022.30 0.1873086
1022.40 0.1872548
1022.50 0.1872011
1022.60 0.1871474
1022.70 0.1870937
1022.80 0.1870401
1022.90 0.1869864
1023.00 0.1869328
1023.10 0.1868792
1023.20 0.1868256
1023.30 0.186772
1023.40 0.1867184
1023.50 0.1866649
1023.60 0.1866114
1023.70 0.1865578
1023.80 0.1865043
1023.90 0.1864509
1024.00 0.1863974
1024.10 0.186344
1024.20 0.1862905
1024.30 0.1862371
1024.40 0.1861838
1024.50 0.1861304
1024.60 0.186077
1024.70 0.1860237
1024.80 0.1859704
1024.90 0.1859171
1025.00 0.1858638
1025.10 0.1858105
1025.20 0.1857573
1025.30 0.185704
1025.40 0.1856508
1025.50 0.1855976
1025.60 0.1855444
1025.70 0.1854913
1025.80 0.1854381
1025.90 0.185385
1026.00 0.1853319
1026.10 0.1852788
1026.20 0.1852257
1026.30 0.1851726
1026.40 0.1851196
1026.50 0.1850665
1026.60 0.1850135
1026.70 0.1849605
1026.80 0.1849076
1026.90 0.1848546
1027.00 0.1848017
1027.10 0.1847487
1027.20 0.1846958
1027.30 0.1846429
1027.40 0.18459
1027.50 0.1845372
1027.60 0.1844843
1027.70 0.1844315
1027.80 0.1843787
1027.90 0.1843259
1028.00 0.1842731
1028.10 0.1842204
1028.20 0.1841676
1028.30 0.1841149
1028.40 0.1840622
1028.50 0.1840095
1028.60 0.1839568
1028.70 0.1839042
1028.80 0.1838516
1028.90 0.1837989
1029.00 0.1837463
1029.10 0.1836937
1029.20 0.1836412
1029.30 0.1835886
1029.40 0.1835361
1029.50 0.1834836
1029.60 0.1834311
1029.70 0.1833786
1029.80 0.1833261
1029.90 0.1832737
1030.00 0.1832212
1030.10 0.1831688
1030.20 0.1831164
1030.30 0.183064
1030.40 0.1830116
1030.50 0.1829593
1030.60 0.182907
1030.70 0.1828546
1030.80 0.1828023
1030.90 0.1827501
1031.00 0.1826978
1031.10 0.1826455
1031.20 0.1825933
1031.30 0.1825411
1031.40 0.1824891
1031.50 0.182437
1031.60 0.1823851
1031.70 0.1823331
1031.80 0.1822811
1031.90 0.1822292
1032.00 0.1821772
1032.10 0.1821253
1032.20 0.1820734
1032.30 0.1820215
1032.40 0.1819697
1032.50 0.1819178
1032.60 0.181866
1032.70 0.1818142
1032.80 0.1817624
1032.90 0.1817106
1033.00 0.1816589
1033.10 0.1816071
1033.20 0.1815554
1033.30 0.1815037
1033.40 0.181452
1033.50 0.1814003
1033.60 0.1813486
1033.70 0.181297
1033.80 0.1812454
1033.90 0.1811937
1034.00 0.1811422
1034.10 0.1810906
1034.20 0.181039
1034.30 0.1809875
1034.40 0.1809359
1034.50 0.1808844
1034.60 0.1808329
1034.70 0.1807814
1034.80 0.18073
1034.90 0.1806785
1035.00 0.1806271
1035.10 0.1805757
1035.20 0.1805243
1035.30 0.1804729
1035.40 0.1804215
1035.50 0.1803702
1035.60 0.1803189
1035.70 0.1802675
1035.80 0.1802162
1035.90 0.180165
1036.00 0.1801137
1036.10 0.1800624
1036.20 0.1800112
1036.30 0.17996
1036.40 0.1799088
1036.50 0.1798568
1036.60 0.1798036
1036.70 0.1797504
1036.80 0.1796972
1036.90 0.179644
1037.00 0.1795908
1037.10 0.1795377
1037.20 0.1794846
1037.30 0.1794315
1037.40 0.1793784
1037.50 0.1793253
1037.60 0.1792722
1037.70 0.1792192
1037.80 0.1791662
1037.90 0.1791132
1038.00 0.1790602
1038.10 0.1790072
1038.20 0.1789542
1038.30 0.1789013
1038.40 0.1788484
1038.50 0.1787955
1038.60 0.1787426
1038.70 0.1786897
1038.80 0.1786369
1038.90 0.178584
1039.00 0.1785312
1039.10 0.1784784
1039.20 0.1784256
1039.30 0.1783729
1039.40 0.1783201
1039.50 0.1782674
1039.60 0.1782146
1039.70 0.1781619
1039.80 0.1781093
1039.90 0.1780566
1040.00 0.178004
1040.10 0.1779513
1040.20 0.1778987
1040.30 0.1778461
1040.40 0.1777935
1040.50 0.177741
1040.60 0.1776884
1040.70 0.1776359
1040.80 0.1775834
1040.90 0.1775309
1041.00 0.1774784
1041.10 0.1774259
1041.20 0.1773735
1041.30 0.1773211
1041.40 0.1772686
1041.50 0.1772162
1041.60 0.1771639
1041.70 0.1771133
1041.80 0.1770632
1041.90 0.1770131
1042.00 0.1769629
1042.10 0.1769129
1042.20 0.1768628
1042.30 0.1768127
1042.40 0.1767627
1042.50 0.1767126
1042.60 0.1766626
1042.70 0.1766126
1042.80 0.1765626
1042.90 0.1765127
1043.00 0.1764627
1043.10 0.1764128
1043.20 0.1763628
1043.30 0.1763129
1043.40 0.1762631
1043.50 0.1762132
1043.60 0.1761633
1043.70 0.1761135
1043.80 0.1760637
1043.90 0.1760138
1044.00 0.1759641
1044.10 0.1759143
1044.20 0.1758645
1044.30 0.1758148
1044.40 0.175765
1044.50 0.1757153
1044.60 0.1756656
1044.70 0.1756159
1044.80 0.1755663
1044.90 0.1755166
1045.00 0.175467
1045.10 0.1754174
1045.20 0.1753678
1045.30 0.1753182
1045.40 0.1752686
1045.50 0.175219
1045.60 0.1751695
1045.70 0.17512
1045.80 0.1750705
1045.90 0.175021
1046.00 0.1749715
1046.10 0.174922
1046.20 0.1748726
1046.30 0.1748232
1046.40 0.1747737
1046.50 0.1747243
1046.60 0.174675
1046.70 0.1746256
1046.80 0.1745762
1046.90 0.1745269
1047.00 0.1744776
1047.10 0.1744283
1047.20 0.174379
1047.30 0.1743297
1047.40 0.1742804
1047.50 0.1742312
1047.60 0.174182
1047.70 0.1741328
1047.80 0.1740836
1047.90 0.1740344
1048.00 0.1739852
1048.10 0.1739361
1048.20 0.1738869
1048.30 0.1738378
1048.40 0.1737887
1048.50 0.1737396
1048.60 0.1736906
1048.70 0.1736415
1048.80 0.1735925
1048.90 0.1735434
1049.00 0.1734944
1049.10 0.1734454
1049.20 0.1733965
1049.30 0.1733475
1049.40 0.1732985
1049.50 0.1732496
1049.60 0.1732007
1049.70 0.1731518
1049.80 0.1731029
1049.90 0.173054
1050.00 0.1730052
1050.10 0.1729564
1050.20 0.1729075
1050.30 0.1728587
1050.40 0.1728099
1050.50 0.1727612
1050.60 0.1727124
1050.70 0.1726636
1050.80 0.1726149
1050.90 0.1725662
1051.00 0.1725175
1051.10 0.1724688
1051.20 0.1724201
1051.30 0.1723715
1051.40 0.1723229
1051.50 0.1722742
1051.60 0.1722256
1051.70 0.172177
1051.80 0.1721285
1051.90 0.1720799
1052.00 0.1720313
1052.10 0.1719823
1052.20 0.1719329
1052.30 0.1718836
1052.40 0.1718343
1052.50 0.171785
1052.60 0.1717357
1052.70 0.1716865
1052.80 0.1716372
1052.90 0.171588
1053.00 0.1715388
1053.10 0.1714896
1053.20 0.1714404
1053.30 0.1713913
1053.40 0.1713421
1053.50 0.171293
1053.60 0.1712439
1053.70 0.1711948
1053.80 0.1711457
1053.90 0.1710966
1054.00 0.1710475
1054.10 0.1709985
1054.20 0.1709495
1054.30 0.1709005
1054.40 0.1708515
1054.50 0.1708025
1054.60 0.1707535
1054.70 0.1707046
1054.80 0.1706557
1054.90 0.1706067
1055.00 0.1705578
1055.10 0.1705089
1055.20 0.1704601
1055.30 0.1704112
1055.40 0.1703624
1055.50 0.1703136
1055.60 0.1702648
1055.70 0.170216
1055.80 0.1701672
1055.90 0.1701184
1056.00 0.1700697
1056.10 0.1700209
1056.20 0.1699722
1056.30 0.1699235
1056.40 0.1698748
1056.50 0.1698262
1056.60 0.1697775
1056.70 0.1697289
1056.80 0.1696803
1056.90 0.1696317
1057.00 0.1695831
1057.10 0.1695345
1057.20 0.1694859
1057.30 0.1694374
1057.40 0.1693888
1057.50 0.1693403
1057.60 0.1692918
1057.70 0.1692433
1057.80 0.1691949
1057.90 0.1691464
1058.00 0.169098
1058.10 0.1690496
1058.20 0.1690011
1058.30 0.1689527
1058.40 0.1689044
1058.50 0.168856
1058.60 0.1688077
1058.70 0.1687593
1058.80 0.168711
1058.90 0.1686627
1059.00 0.1686144
1059.10 0.1685662
1059.20 0.1685179
1059.30 0.1684697
1059.40 0.1684214
1059.50 0.1683732
1059.60 0.168325
1059.70 0.1682768
1059.80 0.1682287
1059.90 0.1681805
1060.00 0.1681324
1060.10 0.1680843
1060.20 0.1680362
1060.30 0.1679881
1060.40 0.16794
1060.50 0.1678919
1060.60 0.1678439
1060.70 0.1677959
1060.80 0.1677479
1060.90 0.1676999
1061.00 0.1676519
1061.10 0.1676039
1061.20 0.167556
1061.30 0.167508
1061.40 0.1674601
1061.50 0.1674122
1061.60 0.1673643
1061.70 0.1673164
1061.80 0.1672686
1061.90 0.1672207
1062.00 0.1671729
1062.10 0.1671251
1062.20 0.1670773
1062.30 0.1670295
1062.40 0.1669817
1062.50 0.1669339
1062.60 0.1668867
1062.70 0.1668401
1062.80 0.1667935
1062.90 0.1667469
1063.00 0.1667003
1063.10 0.1666538
1063.20 0.1666072
1063.30 0.1665607
1063.40 0.1665142
1063.50 0.1664677
1063.60 0.1664212
1063.70 0.1663747
1063.80 0.1663283
1063.90 0.1662818
1064.00 0.1662354
1064.10 0.166189
1064.20 0.1661426
1064.30 0.1660962
1064.40 0.1660499
1064.50 0.1660035
1064.60 0.1659572
1064.70 0.1659108
1064.80 0.1658645
1064.90 0.1658182
1065.00 0.165772
1065.10 0.1657257
1065.20 0.1656794
1065.30 0.1656332
1065.40 0.165587
1065.50 0.1655408
1065.60 0.1654946
1065.70 0.1654484
1065.80 0.1654022
1065.90 0.1653561
1066.00 0.1653099
1066.10 0.1652638
1066.20 0.1652177
1066.30 0.1651716
1066.40 0.1651255
1066.50 0.1650795
1066.60 0.1650334
1066.70 0.1649874
1066.80 0.1649414
1066.90 0.1648953
1067.00 0.1648494
1067.10 0.1648034
1067.20 0.1647574
1067.30 0.1647115
1067.40 0.1646655
1067.50 0.1646196
1067.60 0.1645737
1067.70 0.1645278
1067.80 0.1644819
1067.90 0.1644361
1068.00 0.1643902
1068.10 0.1643444
1068.20 0.1642985
1068.30 0.1642527
1068.40 0.1642069
1068.50 0.1641612
1068.60 0.1641154
1068.70 0.1640696
1068.80 0.1640239
1068.90 0.1639782
1069.00 0.1639325
1069.10 0.1638868
1069.20 0.1638411
1069.30 0.1637954
1069.40 0.1637498
1069.50 0.1637041
1069.60 0.1636585
1069.70 0.1636129
1069.80 0.1635673
1069.90 0.1635217
1070.00 0.1634761
1070.10 0.1634306
1070.20 0.163385
1070.30 0.1633395
1070.40 0.163294
1070.50 0.1632485
1070.60 0.163203
1070.70 0.1631576
1070.80 0.1631121
1070.90 0.1630667
1071.00 0.1630212
1071.10 0.1629758
1071.20 0.1629304
1071.30 0.162885
1071.40 0.1628397
1071.50 0.1627943
1071.60 0.162749
1071.70 0.1627036
1071.80 0.1626583
1071.90 0.162613
1072.00 0.1625677
1072.10 0.1625225
1072.20 0.1624772
1072.30 0.162432
1072.40 0.1623867
1072.50 0.1623415
1072.60 0.1622963
1072.70 0.1622511
1072.80 0.162206
1072.90 0.1621608
1073.00 0.1621157
1073.10 0.1620705
1073.20 0.162025
1073.30 0.1619782
1073.40 0.1619315
1073.50 0.1618847
1073.60 0.1618379
1073.70 0.1617912
1073.80 0.1617445
1073.90 0.1616978
1074.00 0.1616511
1074.10 0.1616044
1074.20 0.1615577
1074.30 0.1615111
1074.40 0.1614644
1074.50 0.1614178
1074.60 0.1613712
1074.70 0.1613246
1074.80 0.161278
1074.90 0.1612315
1075.00 0.1611849
1075.10 0.1611384
1075.20 0.1610918
1075.30 0.1610453
1075.40 0.1609988
1075.50 0.1609524
1075.60 0.1609059
1075.70 0.1608595
1075.80 0.160813
1075.90 0.1607666
1076.00 0.1607202
1076.10 0.1606738
1076.20 0.1606274
1076.30 0.1605811
1076.40 0.1605347
1076.50 0.1604884
1076.60 0.1604421
1076.70 0.1603958
1076.80 0.1603495
1076.90 0.1603032
1077.00 0.1602569
1077.10 0.1602107
1077.20 0.1601645
1077.30 0.1601182
1077.40 0.160072
1077.50 0.1600258
1077.60 0.1599797
1077.70 0.1599335
1077.80 0.1598874
1077.90 0.1598412
1078.00 0.1597951
1078.10 0.159749
1078.20 0.1597029
1078.30 0.1596568
1078.40 0.1596108
1078.50 0.1595647
1078.60 0.1595197
1078.70 0.1594755
1078.80 0.1594314
1078.90 0.1593872
1079.00 0.159343
1079.10 0.1592989
1079.20 0.1592548
1079.30 0.1592107
1079.40 0.1591666
1079.50 0.1591225
1079.60 0.1590784
1079.70 0.1590344
1079.80 0.1589903
1079.90 0.1589463
1080.00 0.1589023
1080.10 0.1588583
1080.20 0.1588143
1080.30 0.1587703
1080.40 0.1587264
1080.50 0.1586824
1080.60 0.1586385
1080.70 0.1585946
1080.80 0.1585507
1080.90 0.1585068
1081.00 0.1584629
1081.10 0.158419
1081.20 0.1583752
1081.30 0.1583314
1081.40 0.1582875
1081.50 0.1582437
1081.60 0.1581999
1081.70 0.1581561
1081.80 0.1581124
1081.90 0.1580686
1082.00 0.1580249
1082.10 0.1579811
1082.20 0.1579374
1082.30 0.1578937
1082.40 0.15785
1082.50 0.1578064
1082.60 0.1577627
1082.70 0.157719
1082.80 0.1576754
1082.90 0.1576318
1083.00 0.1575882
1083.10 0.1575446
1083.20 0.157501
1083.30 0.1574574
1083.40 0.1574139
1083.50 0.1573703
1083.60 0.1573268
1083.70 0.1572833
1083.80 0.1572398
1083.90 0.1571963
1084.00 0.157153
1084.10 0.1571096
1084.20 0.1570663
1084.30 0.1570231
1084.40 0.1569798
1084.50 0.1569365
1084.60 0.1568933
1084.70 0.15685
1084.80 0.1568068
1084.90 0.1567636
1085.00 0.1567204
1085.10 0.1566772
1085.20 0.156634
1085.30 0.1565909
1085.40 0.1565477
1085.50 0.1565046
1085.60 0.1564615
1085.70 0.1564184
1085.80 0.1563753
1085.90 0.1563322
1086.00 0.1562892
1086.10 0.1562461
1086.20 0.1562031
1086.30 0.15616
1086.40 0.156117
1086.50 0.156074
1086.60 0.156031
1086.70 0.1559881
1086.80 0.1559451
1086.90 0.1559022
1087.00 0.1558592
1087.10 0.1558163
1087.20 0.1557734
1087.30 0.1557305
1087.40 0.1556876
1087.50 0.1556448
1087.60 0.1556019
1087.70 0.1555591
1087.80 0.1555162
1087.90 0.1554734
1088.00 0.1554306
1088.10 0.1553878
1088.20 0.1553451
1088.30 0.1553023
1088.40 0.1552595
1088.50 0.1552168
1088.60 0.1551741
1088.70 0.1551314
1088.80 0.1550887
1088.90 0.155046
1089.00 0.1550033
1089.10 0.1549607
1089.20 0.154918
1089.30 0.1548754
1089.40 0.1548315
1089.50 0.1547872
1089.60 0.1547428
1089.70 0.1546984
1089.80 0.1546541
1089.90 0.1546098
1090.00 0.1545655
1090.10 0.1545212
1090.20 0.1544769
1090.30 0.1544326
1090.40 0.1543883
1090.50 0.1543441
1090.60 0.1542999
1090.70 0.1542557
1090.80 0.1542114
1090.90 0.1541673
1091.00 0.1541231
1091.10 0.1540789
1091.20 0.1540348
1091.30 0.1539906
1091.40 0.1539465
1091.50 0.1539024
1091.60 0.1538583
1091.70 0.1538142
1091.80 0.1537702
1091.90 0.1537261
1092.00 0.1536821
1092.10 0.153638
1092.20 0.153594
1092.30 0.15355
1092.40 0.153506
1092.50 0.1534621
1092.60 0.1534181
1092.70 0.1533742
1092.80 0.1533302
1092.90 0.1532863
1093.00 0.1532424
1093.10 0.1531985
1093.20 0.1531546
1093.30 0.1531108
1093.40 0.1530669
1093.50 0.1530231
1093.60 0.1529792
1093.70 0.1529354
1093.80 0.1528916
1093.90 0.1528479
1094.00 0.1528041
1094.10 0.1527603
1094.20 0.1527166
1094.30 0.1526729
1094.40 0.1526291
1094.50 0.1525854
1094.60 0.1525417
1094.70 0.1524981
1094.80 0.1524553
1094.90 0.1524136
1095.00 0.1523719
1095.10 0.1523301
1095.20 0.1522884
1095.30 0.1522467
1095.40 0.152205
1095.50 0.1521633
1095.60 0.1521217
1095.70 0.15208
1095.80 0.1520384
1095.90 0.1519968
1096.00 0.1519551
1096.10 0.1519135
1096.20 0.151872
1096.30 0.1518304
1096.40 0.1517888
1096.50 0.1517473
1096.60 0.1517057
1096.70 0.1516642
1096.80 0.1516227
1096.90 0.1515812
1097.00 0.1515397
1097.10 0.1514982
1097.20 0.1514568
1097.30 0.1514153
1097.40 0.1513739
1097.50 0.1513325
1097.60 0.151291
1097.70 0.1512496
1097.80 0.1512083
1097.90 0.1511669
1098.00 0.1511255
1098.10 0.1510842
1098.20 0.1510428
1098.30 0.1510015
1098.40 0.1509602
1098.50 0.1509189
1098.60 0.1508776
1098.70 0.1508363
1098.80 0.1507951
1098.90 0.1507538
1099.00 0.1507126
1099.10 0.1506714
1099.20 0.1506302
1099.30 0.150589
1099.40 0.1505478
1099.50 0.1505066
1099.60 0.1504654
1099.70 0.1504243
1099.80 0.1503832
1099.90 0.150342
1100.00 0.1503009
1100.10 0.1502598
1100.20 0.1502187
1100.30 0.1501777
1100.40 0.1501366
1100.50 0.1500956
1100.60 0.1500545
1100.70 0.1500135
1100.80 0.1499725
1100.90 0.1499315
1101.00 0.1498905
1101.10 0.1498495
1101.20 0.1498086
1101.30 0.1497676
1101.40 0.1497267
1101.50 0.1496858
1101.60 0.1496448
1101.70 0.1496039
1101.80 0.1495631
1101.90 0.1495222
1102.00 0.1494813
1102.10 0.1494405
1102.20 0.1493996
1102.30 0.1493588
1102.40 0.149318
1102.50 0.1492772
1102.60 0.1492364
1102.70 0.1491956
1102.80 0.1491549
1102.90 0.1491141
1103.00 0.1490734
1103.10 0.1490326
1103.20 0.1489919
1103.30 0.1489512
1103.40 0.1489105
1103.50 0.1488699
1103.60 0.1488292
1103.70 0.1487885
1103.80 0.1487479
1103.90 0.1487073
1104.00 0.1486667
1104.10 0.148626
1104.20 0.1485855
1104.30 0.1485449
1104.40 0.1485043
1104.50 0.1484638
1104.60 0.1484232
1104.70 0.1483827
1104.80 0.1483422
1104.90 0.1483017
1105.00 0.1482612
1105.10 0.1482207
1105.20 0.1481802
1105.30 0.1481398
1105.40 0.1480993
1105.50 0.1480589
1105.60 0.1480185
1105.70 0.147978
1105.80 0.1479369
1105.90 0.1478958
1106.00 0.1478548
1106.10 0.1478137
1106.20 0.1477726
1106.30 0.1477316
1106.40 0.1476906
1106.50 0.1476495
1106.60 0.1476085
1106.70 0.1475675
1106.80 0.1475266
1106.90 0.1474856
1107.00 0.1474446
1107.10 0.1474037
1107.20 0.1473628
1107.30 0.1473218
1107.40 0.1472809
1107.50 0.14724
1107.60 0.1471992
1107.70 0.1471583
1107.80 0.1471174
1107.90 0.1470766
1108.00 0.1470358
1108.10 0.1469949
1108.20 0.1469541
1108.30 0.1469133
1108.40 0.1468725
1108.50 0.1468318
1108.60 0.146791
1108.70 0.1467503
1108.80 0.1467095
1108.90 0.1466688
1109.00 0.1466281
1109.10 0.1465874
1109.20 0.1465467
1109.30 0.1465061
1109.40 0.1464654
1109.50 0.1464247
1109.60 0.1463841
1109.70 0.1463435
1109.80 0.1463029
1109.90 0.1462623
1110.00 0.1462217
1110.10 0.1461811
1110.20 0.1461406
1110.30 0.1461
1110.40 0.1460595
1110.50 0.1460189
1110.60 0.1459784
1110.70 0.1459379
1110.80 0.1458974
1110.90 0.145857
1111.00 0.1458165
1111.10 0.145776
1111.20 0.1457356
1111.30 0.1456952
1111.40 0.1456548
1111.50 0.1456144
1111.60 0.145574
1111.70 0.1455336
1111.80 0.1454932
1111.90 0.1454529
1112.00 0.1454125
1112.10 0.1453722
1112.20 0.1453319
1112.30 0.1452916
1112.40 0.1452513
1112.50 0.145211
1112.60 0.1451707
1112.70 0.1451305
1112.80 0.1450902
1112.90 0.14505
1113.00 0.1450098
1113.10 0.1449696
1113.20 0.1449294
1113.30 0.1448892
1113.40 0.144849
1113.50 0.1448088
1113.60 0.1447687
1113.70 0.1447286
1113.80 0.1446884
1113.90 0.1446483
1114.00 0.1446082
1114.10 0.1445681
1114.20 0.1445281
1114.30 0.144488
1114.40 0.1444479
1114.50 0.1444079
1114.60 0.1443679
1114.70 0.1443279
1114.80 0.1442878
1114.90 0.1442479
1115.00 0.1442079
1115.10 0.1441679
1115.20 0.144128
1115.30 0.144088
1115.40 0.1440481
1115.50 0.1440082
1115.60 0.1439683
1115.70 0.1439284
1115.80 0.1438885
1115.90 0.1438486
1116.00 0.1438087
1116.10 0.1437689
1116.20 0.1437291
1116.30 0.1436892
1116.40 0.1436494
1116.50 0.1436096
1116.60 0.1435698
1116.70 0.1435301
1116.80 0.14349
1116.90 0.1434496
1117.00 0.1434091
1117.10 0.1433687
1117.20 0.1433283
1117.30 0.143288
1117.40 0.1432476
1117.50 0.1432072
1117.60 0.1431669
1117.70 0.1431265
1117.80 0.1430862
1117.90 0.1430459
1118.00 0.1430056
1118.10 0.1429653
1118.20 0.1429251
1118.30 0.1428848
1118.40 0.1428445
1118.50 0.1428043
1118.60 0.1427641
1118.70 0.1427239
1118.80 0.1426837
1118.90 0.1426435
1119.00 0.1426033
1119.10 0.1425631
1119.20 0.142523
1119.30 0.1424829
1119.40 0.1424427
1119.50 0.1424026
1119.60 0.1423625
1119.70 0.1423224
1119.80 0.1422823
1119.90 0.1422423
1120.00 0.1422022
1120.10 0.1421622
1120.20 0.1421221
1120.30 0.1420821
1120.40 0.1420421
1120.50 0.1420021
1120.60 0.1419621
1120.70 0.1419222
1120.80 0.1418822
1120.90 0.1418422
1121.00 0.1418023
1121.10 0.1417624
1121.20 0.1417225
1121.30 0.1416826
1121.40 0.1416427
1121.50 0.1416028
1121.60 0.1415629
1121.70 0.1415231
1121.80 0.1414833
1121.90 0.1414434
1122.00 0.1414036
1122.10 0.1413638
1122.20 0.141324
1122.30 0.1412842
1122.40 0.1412455
1122.50 0.1412073
1122.60 0.1411692
1122.70 0.1411311
1122.80 0.141093
1122.90 0.1410549
1123.00 0.1410168
1123.10 0.1409787
1123.20 0.1409407
1123.30 0.1409026
1123.40 0.1408646
1123.50 0.1408266
1123.60 0.1407886
1123.70 0.1407506
1123.80 0.1407126
1123.90 0.1406746
1124.00 0.1406366
1124.10 0.1405987
1124.20 0.1405607
1124.30 0.1405228
1124.40 0.1404849
1124.50 0.1404469
1124.60 0.140409
1124.70 0.1403712
1124.80 0.1403333
1124.90 0.1402954
1125.00 0.1402576
1125.10 0.1402197
1125.20 0.1401819
1125.30 0.1401441
1125.40 0.1401063
1125.50 0.1400685
1125.60 0.1400307
1125.70 0.1399929
1125.80 0.1399551
1125.90 0.1399174
1126.00 0.1398796
1126.10 0.1398419
1126.20 0.1398042
1126.30 0.1397665
1126.40 0.1397288
1126.50 0.1396911
1126.60 0.1396534
1126.70 0.1396157
1126.80 0.1395781
1126.90 0.1395404
1127.00 0.1395028
1127.10 0.1394652
1127.20 0.1394276
1127.30 0.13939
1127.40 0.1393524
1127.50 0.1393148
1127.60 0.1392773
1127.70 0.1392397
1127.80 0.1392022
1127.90 0.1391646
1128.00 0.1391266
1128.10 0.1390884
1128.20 0.1390503
1128.30 0.1390121
1128.40 0.138974
1128.50 0.1389358
1128.60 0.1388977
1128.70 0.1388596
1128.80 0.1388215
1128.90 0.1387834
1129.00 0.1387454
1129.10 0.1387073
1129.20 0.1386693
1129.30 0.1386312
1129.40 0.1385932
1129.50 0.1385552
1129.60 0.1385172
1129.70 0.1384792
1129.80 0.1384412
1129.90 0.1384032
1130.00 0.1383653
1130.10 0.1383273
1130.20 0.1382894
1130.30 0.1382515
1130.40 0.1382136
1130.50 0.1381757
1130.60 0.1381378
1130.70 0.1380999
1130.80 0.138062
1130.90 0.1380242
1131.00 0.1379863
1131.10 0.1379485
1131.20 0.1379107
1131.30 0.1378728
1131.40 0.137835
1131.50 0.1377973
1131.60 0.1377595
1131.70 0.1377217
1131.80 0.137684
1131.90 0.1376462
1132.00 0.1376085
1132.10 0.1375708
1132.20 0.137533
1132.30 0.1374953
1132.40 0.1374577
1132.50 0.13742
1132.60 0.1373823
1132.70 0.1373447
1132.80 0.137307
1132.90 0.1372694
1133.00 0.1372318
1133.10 0.1371941
1133.20 0.1371565
1133.30 0.137119
1133.40 0.1370814
1133.50 0.1370438
1133.60 0.1370063
1133.70 0.1369687
1133.80 0.1369312
1133.90 0.1368937
1134.00 0.1368561
1134.10 0.1368186
1134.20 0.1367812
1134.30 0.1367437
1134.40 0.1367062
1134.50 0.1366688
1134.60 0.1366313
1134.70 0.1365939
1134.80 0.1365565
1134.90 0.136519
1135.00 0.1364816
1135.10 0.1364443
1135.20 0.1364069
1135.30 0.1363695
1135.40 0.1363322
1135.50 0.1362948
1135.60 0.1362575
1135.70 0.1362201
1135.80 0.1361828
1135.90 0.1361455
1136.00 0.1361082
1136.10 0.136071
1136.20 0.1360337
1136.30 0.1359964
1136.40 0.1359592
1136.50 0.135922
1136.60 0.1358847
1136.70 0.1358475
1136.80 0.1358103
1136.90 0.1357731
1137.00 0.135736
1137.10 0.1356988
1137.20 0.1356616
1137.30 0.1356245
1137.40 0.1355873
1137.50 0.1355502
1137.60 0.1355131
1137.70 0.135476
1137.80 0.1354389
1137.90 0.1354018
1138.00 0.1353648
1138.10 0.1353277
1138.20 0.1352907
1138.30 0.1352536
1138.40 0.1352166
1138.50 0.1351796
1138.60 0.1351426
1138.70 0.1351056
1138.80 0.1350686
1138.90 0.1350316
1139.00 0.1349947
1139.10 0.1349577
1139.20 0.1349208
1139.30 0.1348847
1139.40 0.1348487
1139.50 0.1348127
1139.60 0.1347767
1139.70 0.1347407
1139.80 0.1347048
1139.90 0.1346688
1140.00 0.1346328
1140.10 0.1345969
1140.20 0.134561
1140.30 0.134525
1140.40 0.1344891
1140.50 0.1344532
1140.60 0.1344173
1140.70 0.1343815
1140.80 0.1343456
1140.90 0.1343097
1141.00 0.1342739
1141.10 0.1342381
1141.20 0.1342022
1141.30 0.1341664
1141.40 0.1341306
1141.50 0.1340948
1141.60 0.134059
1141.70 0.1340233
1141.80 0.1339875
1141.90 0.1339517
1142.00 0.133916
1142.10 0.1338803
1142.20 0.1338445
1142.30 0.1338088
1142.40 0.1337731
1142.50 0.1337374
1142.60 0.1337018
1142.70 0.1336661
1142.80 0.1336304
1142.90 0.1335948
1143.00 0.1335591
1143.10 0.1335235
1143.20 0.1334879
1143.30 0.1334523
1143.40 0.1334167
1143.50 0.1333811
1143.60 0.1333455
1143.70 0.13331
1143.80 0.1332744
1143.90 0.1332389
1144.00 0.1332033
1144.10 0.1331678
1144.20 0.1331323
1144.30 0.1330968
1144.40 0.1330613
1144.50 0.1330258
1144.60 0.1329903
1144.70 0.1329549
1144.80 0.1329194
1144.90 0.132884
1145.00 0.1328486
1145.10 0.1328131
1145.20 0.1327777
1145.30 0.1327423
1145.40 0.1327069
1145.50 0.1326716
1145.60 0.1326362
1145.70 0.1326008
1145.80 0.1325655
1145.90 0.1325302
1146.00 0.1324948
1146.10 0.1324595
1146.20 0.1324242
1146.30 0.1323889
1146.40 0.1323536
1146.50 0.1323183
1146.60 0.1322831
1146.70 0.1322478
1146.80 0.1322126
1146.90 0.1321773
1147.00 0.1321421
1147.10 0.1321069
1147.20 0.1320717
1147.30 0.1320365
1147.40 0.1320013
1147.50 0.1319662
1147.60 0.131931
1147.70 0.1318958
1147.80 0.1318607
1147.90 0.1318256
1148.00 0.1317904
1148.10 0.1317553
1148.20 0.1317202
1148.30 0.1316851
1148.40 0.1316501
1148.50 0.131615
1148.60 0.1315799
1148.70 0.1315449
1148.80 0.1315098
1148.90 0.1314748
1149.00 0.1314398
1149.10 0.1314048
1149.20 0.1313698
1149.30 0.1313348
1149.40 0.1312998
1149.50 0.1312648
1149.60 0.1312299
1149.70 0.1311949
1149.80 0.13116
1149.90 0.1311251
1150.00 0.1310902
1150.10 0.1310553
1150.20 0.1310204
1150.30 0.1309855
1150.40 0.1309506
1150.50 0.1309157
1150.60 0.1308808
1150.70 0.1308446
1150.80 0.1308083
1150.90 0.1307721
1151.00 0.1307359
1151.10 0.1306998
1151.20 0.1306636
1151.30 0.1306274
1151.40 0.1305913
1151.50 0.1305551
1151.60 0.130519
1151.70 0.1304829
1151.80 0.1304468
1151.90 0.1304107
1152.00 0.1303746
1152.10 0.1303385
1152.20 0.1303024
1152.30 0.1302664
1152.40 0.1302303
1152.50 0.1301943
1152.60 0.1301583
1152.70 0.1301223
1152.80 0.1300862
1152.90 0.1300503
1153.00 0.1300143
1153.10 0.1299783
1153.20 0.1299423
1153.30 0.1299064
1153.40 0.1298704
1153.50 0.1298345
1153.60 0.1297986
1153.70 0.1297627
1153.80 0.1297268
1153.90 0.1296909
1154.00 0.129655
1154.10 0.1296192
1154.20 0.1295833
1154.30 0.1295474
1154.40 0.1295116
1154.50 0.1294758
1154.60 0.12944
1154.70 0.1294042
1154.80 0.1293684
1154.90 0.1293326
1155.00 0.1292968
1155.10 0.1292611
1155.20 0.1292253
1155.30 0.1291896
1155.40 0.1291538
1155.50 0.1291181
1155.60 0.1290824
1155.70 0.1290467
1155.80 0.129011
1155.90 0.1289753
1156.00 0.1289397
1156.10 0.128904
1156.20 0.1288683
1156.30 0.1288327
1156.40 0.1287979
1156.50 0.1287638
1156.60 0.1287296
1156.70 0.1286955
1156.80 0.1286614
1156.90 0.1286273
1157.00 0.1285932
1157.10 0.1285592
1157.20 0.1285251
1157.30 0.1284911
1157.40 0.128457
1157.50 0.128423
1157.60 0.128389
1157.70 0.128355
1157.80 0.128321
1157.90 0.128287
1158.00 0.128253
1158.10 0.128219
1158.20 0.128185
1158.30 0.1281511
1158.40 0.1281171
1158.50 0.1280832
1158.60 0.1280493
1158.70 0.1280154
1158.80 0.1279815
1158.90 0.1279476
1159.00 0.1279137
1159.10 0.1278798
1159.20 0.127846
1159.30 0.1278121
1159.40 0.1277783
1159.50 0.1277444
1159.60 0.1277106
1159.70 0.1276768
1159.80 0.127643
1159.90 0.1276092
1160.00 0.1275754
1160.10 0.1275416
1160.20 0.1275078
1160.30 0.1274741
1160.40 0.1274403
1160.50 0.1274066
1160.60 0.1273729
1160.70 0.1273392
1160.80 0.1273054
1160.90 0.1272717
1161.00 0.1272381
1161.10 0.1272044
1161.20 0.1271707
1161.30 0.127137
1161.40 0.1271034
1161.50 0.1270698
1161.60 0.1270361
1161.70 0.1270025
1161.80 0.1269689
1161.90 0.1269353
1162.00 0.1269017
1162.10 0.1268681
1162.20 0.1268346
1162.30 0.1268012
1162.40 0.1267678
1162.50 0.1267343
1162.60 0.1267009
1162.70 0.1266675
1162.80 0.1266341
1162.90 0.1266007
1163.00 0.1265673
1163.10 0.1265339
1163.20 0.1265006
1163.30 0.1264672
1163.40 0.1264339
1163.50 0.1264005
1163.60 0.1263672
1163.70 0.1263339
1163.80 0.1263006
1163.90 0.1262673
1164.00 0.126234
1164.10 0.1262007
1164.20 0.1261675
1164.30 0.1261342
1164.40 0.126101
1164.50 0.1260677
1164.60 0.1260345
1164.70 0.1260013
1164.80 0.1259681
1164.90 0.1259349
1165.00 0.1259017
1165.10 0.1258685
1165.20 0.1258353
1165.30 0.1258022
1165.40 0.125769
1165.50 0.1257359
1165.60 0.1257027
1165.70 0.1256696
1165.80 0.1256365
1165.90 0.1256034
1166.00 0.1255703
1166.10 0.1255372
1166.20 0.1255041
1166.30 0.1254711
1166.40 0.125438
1166.50 0.1254049
1166.60 0.1253719
1166.70 0.1253389
1166.80 0.1253059
1166.90 0.1252728
1167.00 0.1252398
1167.10 0.1252069
1167.20 0.1251739
1167.30 0.1251409
1167.40 0.1251079
1167.50 0.125075
1167.60 0.125042
1167.70 0.1250091
1167.80 0.1249762
1167.90 0.1249433
1168.00 0.1249091
1168.10 0.1248747
1168.20 0.1248404
1168.30 0.1248061
1168.40 0.1247718
1168.50 0.1247375
1168.60 0.1247032
1168.70 0.1246689
1168.80 0.1246347
1168.90 0.1246004
1169.00 0.1245662
1169.10 0.1245319
1169.20 0.1244977
1169.30 0.1244635
1169.40 0.1244293
1169.50 0.1243951
1169.60 0.1243609
1169.70 0.1243267
1169.80 0.1242926
1169.90 0.1242584
1170.00 0.1242243
1170.10 0.1241901
1170.20 0.124156
1170.30 0.1241219
1170.40 0.1240878
1170.50 0.1240537
1170.60 0.1240196
1170.70 0.1239855
1170.80 0.1239515
1170.90 0.1239174
1171.00 0.1238833
1171.10 0.1238493
1171.20 0.1238153
1171.30 0.1237813
1171.40 0.1237473
1171.50 0.1237133
1171.60 0.1236793
1171.70 0.1236453
1171.80 0.1236113
1171.90 0.1235774
1172.00 0.1235434
1172.10 0.1235095
1172.20 0.1234755
1172.30 0.1234416
1172.40 0.1234077
1172.50 0.1233738
1172.60 0.1233399
1172.70 0.123306
1172.80 0.1232722
1172.90 0.1232383
1173.00 0.1232045
1173.10 0.1231706
1173.20 0.1231368
1173.30 0.123103
1173.40 0.1230691
1173.50 0.1230353
1173.60 0.1230016
1173.70 0.1229678
1173.80 0.1229352
1173.90 0.122903
1174.00 0.1228708
1174.10 0.1228385
1174.20 0.1228063
1174.30 0.1227742
1174.40 0.122742
1174.50 0.1227098
1174.60 0.1226776
1174.70 0.1226455
1174.80 0.1226133
1174.90 0.1225812
1175.00 0.1225491
1175.10 0.1225169
1175.20 0.1224848
1175.30 0.1224527
1175.40 0.1224206
1175.50 0.1223886
1175.60 0.1223565
1175.70 0.1223244
1175.80 0.1222924
1175.90 0.1222603
1176.00 0.1222283
1176.10 0.1221963
1176.20 0.1221642
1176.30 0.1221322
1176.40 0.1221002
1176.50 0.1220682
1176.60 0.1220363
1176.70 0.1220043
1176.80 0.1219723
1176.90 0.1219404
1177.00 0.1219084
1177.10 0.1218765
1177.20 0.1218446
1177.30 0.1218126
1177.40 0.1217807
1177.50 0.1217488
1177.60 0.1217169
1177.70 0.1216851
1177.80 0.1216532
1177.90 0.1216213
1178.00 0.1215895
1178.10 0.1215576
1178.20 0.1215258
1178.30 0.121494
1178.40 0.1214621
1178.50 0.1214303
1178.60 0.1213985
1178.70 0.1213667
1178.80 0.121335
1178.90 0.1213032
1179.00 0.1212714
1179.10 0.1212397
1179.20 0.1212079
1179.30 0.1211762
1179.40 0.1211445
1179.50 0.1211127
1179.60 0.121081
1179.70 0.1210493
1179.80 0.1210176
1179.90 0.120986
1180.00 0.1209543
1180.10 0.1209226
1180.20 0.120891
1180.30 0.1208593
1180.40 0.1208277
1180.50 0.1207961
1180.60 0.1207644
1180.70 0.1207328
1180.80 0.1207012
1180.90 0.1206696
1181.00 0.1206381
1181.10 0.1206065
1181.20 0.1205749
1181.30 0.1205434
1181.40 0.1205118
1181.50 0.1204803
1181.60 0.1204488
1181.70 0.1204172
1181.80 0.1203857
1181.90 0.1203542
1182.00 0.1203227
1182.10 0.1202912
1182.20 0.1202598
1182.30 0.1202283
1182.40 0.1201968
1182.50 0.1201654
1182.60 0.120134
1182.70 0.1201025
1182.80 0.1200711
1182.90 0.1200397
1183.00 0.1200083
1183.10 0.1199769
1183.20 0.1199455
1183.30 0.1199141
1183.40 0.1198828
1183.50 0.1198514
1183.60 0.1198201
1183.70 0.1197887
1183.80 0.1197574
1183.90 0.1197261
1184.00 0.1196947
1184.10 0.1196634
1184.20 0.1196321
1184.30 0.1196009
1184.40 0.1195696
1184.50 0.1195383
1184.60 0.119507
1184.70 0.1194758
1184.80 0.1194445
1184.90 0.1194133
1185.00 0.1193821
1185.10 0.1193509
1185.20 0.1193197
1185.30 0.1192885
1185.40 0.1192573
1185.50 0.1192261
1185.60 0.1191951
1185.70 0.119164
1185.80 0.119133
1185.90 0.1191019
1186.00 0.1190709
1186.10 0.1190399
1186.20 0.1190089
1186.30 0.1189779
1186.40 0.1189469
1186.50 0.1189159
1186.60 0.1188849
1186.70 0.1188539
1186.80 0.118823
1186.90 0.118792
1187.00 0.1187611
1187.10 0.1187301
1187.20 0.1186992
1187.30 0.1186683
1187.40 0.1186374
1187.50 0.1186065
1187.60 0.1185756
1187.70 0.1185447
1187.80 0.1185139
1187.90 0.118483
1188.00 0.1184521
1188.10 0.1184213
1188.20 0.1183905
1188.30 0.1183596
1188.40 0.1183288
1188.50 0.118298
1188.60 0.1182672
1188.70 0.1182364
1188.80 0.1182056
1188.90 0.1181748
1189.00 0.1181441
1189.10 0.1181133
1189.20 0.1180826
1189.30 0.1180518
1189.40 0.1180211
1189.50 0.1179904
1189.60 0.1179596
1189.70 0.1179289
1189.80 0.1178982
1189.90 0.1178675
1190.00 0.1178369
1190.10 0.1178062
1190.20 0.1177755
1190.30 0.1177449
1190.40 0.1177142
1190.50 0.1176836
1190.60 0.117653
1190.70 0.1176223
1190.80 0.1175917
1190.90 0.1175611
1191.00 0.1175305
1191.10 0.1174999
1191.20 0.1174694
1191.30 0.1174388
1191.40 0.117408
1191.50 0.1173761
1191.60 0.1173442
1191.70 0.1173123
1191.80 0.1172805
1191.90 0.1172486
1192.00 0.1172167
1192.10 0.1171849
1192.20 0.117153
1192.30 0.1171212
1192.40 0.1170894
1192.50 0.1170575
1192.60 0.1170257
1192.70 0.1169939
1192.80 0.1169621
1192.90 0.1169304
1193.00 0.1168986
1193.10 0.1168668
1193.20 0.1168351
1193.30 0.1168033
1193.40 0.1167716
1193.50 0.1167399
1193.60 0.1167081
1193.70 0.1166764
1193.80 0.1166447
1193.90 0.116613
1194.00 0.1165814
1194.10 0.1165497
1194.20 0.116518
1194.30 0.1164864
1194.40 0.1164547
1194.50 0.1164231
1194.60 0.1163915
1194.70 0.1163598
1194.80 0.1163282
1194.90 0.1162966
1195.00 0.116265
1195.10 0.1162335
1195.20 0.1162019
1195.30 0.1161703
1195.40 0.1161388
1195.50 0.1161072
1195.60 0.1160757
1195.70 0.1160441
1195.80 0.1160126
1195.90 0.1159811
1196.00 0.1159496
1196.10 0.1159181
1196.20 0.1158866
1196.30 0.1158551
1196.40 0.1158237
1196.50 0.1157922
1196.60 0.1157608
1196.70 0.1157293
1196.80 0.1156979
1196.90 0.1156665
1197.00 0.1156351
1197.10 0.1156037
1197.20 0.1155723
1197.30 0.1155409
1197.40 0.1155108
1197.50 0.1154808
1197.60 0.1154509
1197.70 0.115421
1197.80 0.1153911
1197.90 0.1153613
1198.00 0.1153314
1198.10 0.1153015
1198.20 0.1152716
1198.30 0.1152418
1198.40 0.1152119
1198.50 0.1151821
1198.60 0.1151523
1198.70 0.1151225
1198.80 0.1150926
1198.90 0.1150628
1199.00 0.115033
1199.10 0.1150033
1199.20 0.1149735
1199.30 0.1149437
1199.40 0.114914
1199.50 0.1148842
1199.60 0.1148545
1199.70 0.1148247
1199.80 0.114795
1199.90 0.1147653
1200.00 0.1147356
