# Version 2.1 - nm, norm@500 to 1, cut digits, bergeron_He_9500_70.dat_9500
# Wavelength(nm)  Flambda(ergs/cm^s/s/nm)
300.00 1.814125
300.10 1.813967
300.20 1.813802
300.30 1.813642
300.40 1.813524
300.50 1.813405
300.60 1.813286
300.70 1.813167
300.80 1.813047
300.90 1.812927
301.00 1.812807
301.10 1.812687
301.20 1.812566
301.30 1.812445
301.40 1.812324
301.50 1.812203
301.60 1.812082
301.70 1.81196
301.80 1.811838
301.90 1.811716
302.00 1.811593
302.10 1.811455
302.20 1.811314
302.30 1.811174
302.40 1.811033
302.50 1.810892
302.60 1.81075
302.70 1.810609
302.80 1.810467
302.90 1.810325
303.00 1.810183
303.10 1.810041
303.20 1.809898
303.30 1.809761
303.40 1.809669
303.50 1.809578
303.60 1.809486
303.70 1.809394
303.80 1.809301
303.90 1.809209
304.00 1.809116
304.10 1.809022
304.20 1.808929
304.30 1.808835
304.40 1.808741
304.50 1.808647
304.60 1.808474
304.70 1.808293
304.80 1.808112
304.90 1.80793
305.00 1.807749
305.10 1.807567
305.20 1.807385
305.30 1.807203
305.40 1.80702
305.50 1.806838
305.60 1.806655
305.70 1.806473
305.80 1.80629
305.90 1.806107
306.00 1.805924
306.10 1.80574
306.20 1.805557
306.30 1.805373
306.40 1.805208
306.50 1.805048
306.60 1.804888
306.70 1.804728
306.80 1.804568
306.90 1.804407
307.00 1.804246
307.10 1.804085
307.20 1.803924
307.30 1.803763
307.40 1.803602
307.50 1.80344
307.60 1.803278
307.70 1.803116
307.80 1.802954
307.90 1.802792
308.00 1.80263
308.10 1.802467
308.20 1.802304
308.30 1.802141
308.40 1.801978
308.50 1.801815
308.60 1.801651
308.70 1.801488
308.80 1.801345
308.90 1.801262
309.00 1.801078
309.10 1.800895
309.20 1.800711
309.30 1.800527
309.40 1.800344
309.50 1.800165
309.60 1.799987
309.70 1.799809
309.80 1.79963
309.90 1.799451
310.00 1.799272
310.10 1.799093
310.20 1.798914
310.30 1.798735
310.40 1.798559
310.50 1.798386
310.60 1.798213
310.70 1.798041
310.80 1.797868
310.90 1.797695
311.00 1.797439
311.10 1.797183
311.20 1.796926
311.30 1.796687
311.40 1.796497
311.50 1.796307
311.60 1.796116
311.70 1.795925
311.80 1.795734
311.90 1.795543
312.00 1.795352
312.10 1.795161
312.20 1.794778
312.30 1.794518
312.40 1.794482
312.50 1.794179
312.60 1.793927
312.70 1.793675
312.80 1.793422
312.90 1.793195
313.00 1.792994
313.10 1.792793
313.20 1.792592
313.30 1.792383
313.40 1.792153
313.50 1.791922
313.60 1.791691
313.70 1.79146
313.80 1.791229
313.90 1.790998
314.00 1.790767
314.10 1.790565
314.20 1.790363
314.30 1.79016
314.40 1.789958
314.50 1.789755
314.60 1.789552
314.70 1.789349
314.80 1.789123
314.90 1.78885
315.00 1.788601
315.10 1.78845
315.20 1.788298
315.30 1.788146
315.40 1.787994
315.50 1.787842
315.60 1.78769
315.70 1.787374
315.80 1.787058
315.90 1.786742
316.00 1.786427
316.10 1.786274
316.20 1.786121
316.30 1.785968
316.40 1.785489
316.50 1.785336
316.60 1.784858
316.70 1.784705
316.80 1.784551
316.90 1.784398
317.00 1.784244
317.10 1.78409
317.20 1.783936
317.30 1.783555
317.40 1.783217
317.50 1.783004
317.60 1.78279
317.70 1.782577
317.80 1.782363
317.90 1.782089
318.00 1.78166
318.10 1.781505
318.20 1.78135
318.30 1.781195
318.40 1.780956
318.50 1.78048
318.60 1.780254
318.70 1.780002
318.80 1.779526
318.90 1.779691
319.00 1.779381
319.10 1.778906
319.20 1.778528
319.30 1.778427
319.40 1.778327
319.50 1.778226
319.60 1.777859
319.70 1.77759
319.80 1.77732
319.90 1.777051
320.00 1.776835
320.10 1.776678
320.20 1.776349
320.30 1.776034
320.40 1.77575
320.50 1.775276
320.60 1.775258
320.70 1.775101
320.80 1.774867
320.90 1.774551
321.00 1.774236
321.10 1.77392
321.20 1.773453
321.30 1.773222
321.40 1.772991
321.50 1.77276
321.60 1.772529
321.70 1.772298
321.80 1.772057
321.90 1.771805
322.00 1.771151
322.10 1.77091
322.20 1.770669
322.30 1.770428
322.40 1.770187
322.50 1.769946
322.60 1.769705
322.70 1.769463
322.80 1.769028
322.90 1.768764
323.00 1.768501
323.10 1.768237
323.20 1.767973
323.30 1.767709
323.40 1.767446
323.50 1.767182
323.60 1.766918
323.70 1.766654
323.80 1.76639
323.90 1.766126
324.00 1.765865
324.10 1.765605
324.20 1.765344
324.30 1.765074
324.40 1.764762
324.50 1.764432
324.60 1.764103
324.70 1.763773
324.80 1.763443
324.90 1.763114
325.00 1.762784
325.10 1.762455
325.20 1.762159
325.30 1.761933
325.40 1.761707
325.50 1.761444
325.60 1.761136
325.70 1.760827
325.80 1.760519
325.90 1.760259
326.00 1.76005
326.10 1.759841
326.20 1.759632
326.30 1.759323
326.40 1.75873
326.50 1.758452
326.60 1.758174
326.70 1.757896
326.80 1.757618
326.90 1.75734
327.00 1.757063
327.10 1.756785
327.20 1.756507
327.30 1.756229
327.40 1.755951
327.50 1.755673
327.60 1.755395
327.70 1.755117
327.80 1.754839
327.90 1.754463
328.00 1.754069
328.10 1.753782
328.20 1.753495
328.30 1.753208
328.40 1.752921
328.50 1.752553
328.60 1.752166
328.70 1.751779
328.80 1.751414
328.90 1.751114
329.00 1.750813
329.10 1.750513
329.20 1.750213
329.30 1.749912
329.40 1.749612
329.50 1.749312
329.60 1.749012
329.70 1.748712
329.80 1.748412
329.90 1.748112
330.00 1.747809
330.10 1.747502
330.20 1.747196
330.30 1.74689
330.40 1.746561
330.50 1.746206
330.60 1.745852
330.70 1.745498
330.80 1.745144
330.90 1.74479
331.00 1.744437
331.10 1.744083
331.20 1.74373
331.30 1.743376
331.40 1.743023
331.50 1.742677
331.60 1.742339
331.70 1.742002
331.80 1.741695
331.90 1.741389
332.00 1.741083
332.10 1.740778
332.20 1.740472
332.30 1.740167
332.40 1.739861
332.50 1.739556
332.60 1.739251
332.70 1.738945
332.80 1.73864
332.90 1.738335
333.00 1.73803
333.10 1.737709
333.20 1.73737
333.30 1.737031
333.40 1.736692
333.50 1.736353
333.60 1.736014
333.70 1.735676
333.80 1.735337
333.90 1.734998
334.00 1.73466
334.10 1.734313
334.20 1.733955
334.30 1.733598
334.40 1.73324
334.50 1.732883
334.60 1.732526
334.70 1.732115
334.80 1.731773
334.90 1.731625
335.00 1.731478
335.10 1.730891
335.20 1.730438
335.30 1.730303
335.40 1.729851
335.50 1.72947
335.60 1.729307
335.70 1.728753
335.80 1.728301
335.90 1.727914
336.00 1.727607
336.10 1.727299
336.20 1.726992
336.30 1.726663
336.40 1.726308
336.50 1.725953
336.60 1.725598
336.70 1.725243
336.80 1.724888
336.90 1.724552
337.00 1.724238
337.10 1.723924
337.20 1.72361
337.30 1.723282
337.40 1.722932
337.50 1.722583
337.60 1.722233
337.70 1.721884
337.80 1.721535
337.90 1.721183
338.00 1.720827
338.10 1.720471
338.20 1.720116
338.30 1.719761
338.40 1.719399
338.50 1.719023
338.60 1.718648
338.70 1.718272
338.80 1.717897
338.90 1.717521
339.00 1.717146
339.10 1.716771
339.20 1.716396
339.30 1.715997
339.40 1.715563
339.50 1.715162
339.60 1.714801
339.70 1.71444
339.80 1.71408
339.90 1.71372
340.00 1.71336
340.10 1.713
340.20 1.71264
340.30 1.71228
340.40 1.711921
340.50 1.711561
340.60 1.711202
340.70 1.710843
340.80 1.710571
340.90 1.710425
341.00 1.710177
341.10 1.709804
341.20 1.709431
341.30 1.709058
341.40 1.708685
341.50 1.708313
341.60 1.707941
341.70 1.707568
341.80 1.70715
341.90 1.706676
342.00 1.706202
342.10 1.705728
342.20 1.705428
342.30 1.705029
342.40 1.704536
342.50 1.704193
342.60 1.70385
342.70 1.703507
342.80 1.703164
342.90 1.702821
343.00 1.702432
343.10 1.701987
343.20 1.701543
343.30 1.701099
343.40 1.700695
343.50 1.700348
343.60 1.700002
343.70 1.699656
343.80 1.69931
343.90 1.698964
344.00 1.698637
344.10 1.698337
344.20 1.698038
344.30 1.697738
344.40 1.697382
344.50 1.696945
344.60 1.696298
344.70 1.695848
344.80 1.695426
344.90 1.695264
345.00 1.694765
345.10 1.69433
345.20 1.693973
345.30 1.69373
345.40 1.693487
345.50 1.693148
345.60 1.692701
345.70 1.692267
345.80 1.691833
345.90 1.691399
346.00 1.690965
346.10 1.690531
346.20 1.69012
346.30 1.689742
346.40 1.689363
346.50 1.688984
346.60 1.688606
346.70 1.688228
346.80 1.68785
346.90 1.687472
347.00 1.687094
347.10 1.686717
347.20 1.686338
347.30 1.685956
347.40 1.685575
347.50 1.685194
347.60 1.684813
347.70 1.684432
347.80 1.684051
347.90 1.683671
348.00 1.68329
348.10 1.68291
348.20 1.68253
348.30 1.68215
348.40 1.68177
348.50 1.681391
348.60 1.681011
348.70 1.680489
348.80 1.679994
348.90 1.679601
349.00 1.679209
349.10 1.678817
349.20 1.678425
349.30 1.678033
349.40 1.677642
349.50 1.67725
349.60 1.676859
349.70 1.676468
349.80 1.676077
349.90 1.675687
350.00 1.675296
350.10 1.674906
350.20 1.674516
350.30 1.67411
350.40 1.673683
350.50 1.673255
350.60 1.672828
350.70 1.672401
350.80 1.671975
350.90 1.671548
351.00 1.671122
351.10 1.670696
351.20 1.67027
351.30 1.669844
351.40 1.669434
351.50 1.669049
351.60 1.668664
351.70 1.66828
351.80 1.667896
351.90 1.667512
352.00 1.667128
352.10 1.666744
352.20 1.666171
352.30 1.665656
352.40 1.665252
352.50 1.664849
352.60 1.664446
352.70 1.664043
352.80 1.663641
352.90 1.663238
353.00 1.662836
353.10 1.662434
353.20 1.662032
353.30 1.661631
353.40 1.661229
353.50 1.660867
353.60 1.660514
353.70 1.660161
353.80 1.659808
353.90 1.659433
354.00 1.659018
354.10 1.658604
354.20 1.658189
354.30 1.657775
354.40 1.65736
354.50 1.656946
354.60 1.656533
354.70 1.656119
354.80 1.655685
354.90 1.655221
355.00 1.654757
355.10 1.654293
355.20 1.65383
355.30 1.653378
355.40 1.652926
355.50 1.652474
355.60 1.652023
355.70 1.651699
355.80 1.651433
355.90 1.650929
356.00 1.6504
356.10 1.649971
356.20 1.649542
356.30 1.649113
356.40 1.648685
356.50 1.648257
356.60 1.647829
356.70 1.647401
356.80 1.646974
356.90 1.646547
357.00 1.646119
357.10 1.645693
357.20 1.645266
357.30 1.64484
357.40 1.644454
357.50 1.644141
357.60 1.643827
357.70 1.643514
357.80 1.643058
357.90 1.642602
358.00 1.642166
358.10 1.641735
358.20 1.641305
358.30 1.640874
358.40 1.640444
358.50 1.640015
358.60 1.639585
358.70 1.639156
358.80 1.638726
358.90 1.638297
359.00 1.637858
359.10 1.637398
359.20 1.636937
359.30 1.636459
359.40 1.635981
359.50 1.635589
359.60 1.635219
359.70 1.634849
359.80 1.634321
359.90 1.633794
360.00 1.633332
360.10 1.632986
360.20 1.63264
360.30 1.632294
360.40 1.631949
360.50 1.631603
360.60 1.630884
360.70 1.63048
360.80 1.630077
360.90 1.629673
361.00 1.62909
361.10 1.628743
361.20 1.628285
361.30 1.627882
361.40 1.627455
361.50 1.627078
361.60 1.626766
361.70 1.626115
361.80 1.625585
361.90 1.62527
362.00 1.624954
362.10 1.624449
362.20 1.623929
362.30 1.623468
362.40 1.623007
362.50 1.622546
362.60 1.622086
362.70 1.621828
362.80 1.621374
362.90 1.620972
363.00 1.620571
363.10 1.62013
363.20 1.619689
363.30 1.61938
363.40 1.618613
363.50 1.618092
363.60 1.61794
363.70 1.61757
363.80 1.6169
363.90 1.616479
364.00 1.616059
364.10 1.61564
364.20 1.61522
364.30 1.614863
364.40 1.614521
364.50 1.614129
364.60 1.613569
364.70 1.613009
364.80 1.61245
364.90 1.612056
365.00 1.611661
365.10 1.611267
365.20 1.610873
365.30 1.610479
365.40 1.610085
365.50 1.609691
365.60 1.609298
365.70 1.608639
365.80 1.607981
365.90 1.607579
366.00 1.60724
366.10 1.60684
366.20 1.606439
366.30 1.606039
366.40 1.605639
366.50 1.605276
366.60 1.604406
366.70 1.604081
366.80 1.603756
366.90 1.60339
367.00 1.602952
367.10 1.602513
367.20 1.602074
367.30 1.601636
367.40 1.601198
367.50 1.600628
367.60 1.600025
367.70 1.599661
367.80 1.599298
367.90 1.598935
368.00 1.598471
368.10 1.598077
368.20 1.597589
368.30 1.597099
368.40 1.596609
368.50 1.59612
368.60 1.595631
368.70 1.595142
368.80 1.594654
368.90 1.594337
369.00 1.593856
369.10 1.593256
369.20 1.592873
369.30 1.592488
369.40 1.592103
369.50 1.591718
369.60 1.591331
369.70 1.590945
369.80 1.590471
369.90 1.589997
370.00 1.589523
370.10 1.588938
370.20 1.58855
370.30 1.588167
370.40 1.58754
370.50 1.587163
370.60 1.58655
370.70 1.586168
370.80 1.585783
370.90 1.585399
371.00 1.584785
371.10 1.584168
371.20 1.583785
371.30 1.583402
371.40 1.583153
371.50 1.582652
371.60 1.582151
371.70 1.581651
371.80 1.581151
371.90 1.580652
372.00 1.58041
372.10 1.579897
372.20 1.57944
372.30 1.578983
372.40 1.578526
372.50 1.57807
372.60 1.577613
372.70 1.577158
372.80 1.576778
372.90 1.576398
373.00 1.57579
373.10 1.575181
373.20 1.574804
373.30 1.574428
373.40 1.574051
373.50 1.573442
373.60 1.573066
373.70 1.572458
373.80 1.572184
373.90 1.571707
374.00 1.571216
374.10 1.570725
374.20 1.570234
374.30 1.569744
374.40 1.569196
374.50 1.568985
374.60 1.568504
374.70 1.568015
374.80 1.567527
374.90 1.567039
375.00 1.566512
375.10 1.565986
375.20 1.565459
375.30 1.565021
375.40 1.564584
375.50 1.564146
375.60 1.563709
375.70 1.563272
375.80 1.562835
375.90 1.562399
376.00 1.562024
376.10 1.561595
376.20 1.561166
376.30 1.560737
376.40 1.560308
376.50 1.559846
376.60 1.559335
376.70 1.558823
376.80 1.558314
376.90 1.557808
377.00 1.557302
377.10 1.556796
377.20 1.556314
377.30 1.555916
377.40 1.555519
377.50 1.555122
377.60 1.554596
377.70 1.554071
377.80 1.553545
377.90 1.553021
378.00 1.552822
378.10 1.552377
378.20 1.551925
378.30 1.551473
378.40 1.551022
378.50 1.55057
378.60 1.550119
378.70 1.549669
378.80 1.549218
378.90 1.548757
379.00 1.548275
379.10 1.547821
379.20 1.547367
379.30 1.546878
379.40 1.546355
379.50 1.545832
379.60 1.545344
379.70 1.544899
379.80 1.544415
379.90 1.543931
380.00 1.543448
380.10 1.542965
380.20 1.542482
380.30 1.542
380.40 1.541517
380.50 1.541035
380.60 1.540801
380.70 1.540298
380.80 1.539795
380.90 1.539293
381.00 1.538791
381.10 1.538263
381.20 1.537824
381.30 1.53735
381.40 1.536988
381.50 1.536411
381.60 1.535894
381.70 1.535502
381.80 1.535029
381.90 1.534671
382.00 1.534314
382.10 1.533511
382.20 1.533243
382.30 1.532664
382.40 1.532118
382.50 1.531621
382.60 1.531124
382.70 1.5307
382.80 1.530284
382.90 1.529796
383.00 1.529307
383.10 1.528819
383.20 1.528369
383.30 1.528062
383.40 1.527685
383.50 1.527204
383.60 1.52644
383.70 1.525994
383.80 1.525548
383.90 1.525103
384.00 1.524657
384.10 1.524212
384.20 1.523768
384.30 1.523323
384.40 1.522859
384.50 1.522375
384.60 1.521891
384.70 1.521408
384.80 1.520967
384.90 1.520575
385.00 1.519974
385.10 1.519385
385.20 1.519124
385.30 1.518558
385.40 1.518035
385.50 1.517554
385.60 1.517073
385.70 1.516592
385.80 1.516155
385.90 1.515881
386.00 1.515506
386.10 1.515018
386.20 1.514402
386.30 1.513787
386.40 1.513523
386.50 1.51292
386.60 1.512393
386.70 1.512047
386.80 1.5117
386.90 1.510919
387.00 1.510573
387.10 1.510227
387.20 1.509762
387.30 1.509102
387.40 1.508756
387.50 1.508171
387.60 1.507701
387.70 1.507249
387.80 1.506796
387.90 1.506344
388.00 1.505824
388.10 1.50548
388.20 1.504842
388.30 1.504341
388.40 1.50384
388.50 1.503377
388.60 1.503024
388.70 1.502559
388.80 1.502217
388.90 1.501445
389.00 1.501103
389.10 1.500509
389.20 1.500178
389.30 1.499727
389.40 1.499177
389.50 1.498683
389.60 1.498304
389.70 1.497961
389.80 1.497484
389.90 1.497007
390.00 1.496531
390.10 1.496055
390.20 1.495579
390.30 1.495088
390.40 1.49458
390.50 1.494072
390.60 1.493565
390.70 1.493058
390.80 1.492543
390.90 1.49202
391.00 1.491434
391.10 1.491084
391.20 1.490648
391.30 1.49002
391.40 1.489542
391.50 1.489064
391.60 1.488587
391.70 1.48811
391.80 1.487633
391.90 1.48721
392.00 1.486835
392.10 1.486444
392.20 1.486019
392.30 1.485406
392.40 1.484928
392.50 1.484594
392.60 1.483838
392.70 1.483504
392.80 1.483034
392.90 1.482494
393.00 1.481964
393.10 1.481473
393.20 1.481035
393.30 1.480703
393.40 1.480333
393.50 1.47958
393.60 1.479249
393.70 1.478802
393.80 1.478185
393.90 1.477645
394.00 1.477147
394.10 1.476855
394.20 1.476319
394.30 1.475858
394.40 1.475381
394.50 1.475017
394.60 1.474503
394.70 1.473981
394.80 1.473426
394.90 1.472879
395.00 1.472537
395.10 1.472084
395.20 1.471681
395.30 1.471208
395.40 1.470735
395.50 1.470188
395.60 1.469614
395.70 1.469066
395.80 1.468585
395.90 1.468104
396.00 1.467646
396.10 1.46733
396.20 1.466797
396.30 1.466208
396.40 1.465883
396.50 1.465491
396.60 1.464819
396.70 1.464494
396.80 1.463924
396.90 1.463432
397.00 1.463108
397.10 1.462371
397.20 1.462047
397.30 1.461382
397.40 1.460905
397.50 1.46043
397.60 1.459957
397.70 1.459515
397.80 1.459073
397.90 1.458632
398.00 1.458193
398.10 1.457754
398.20 1.457256
398.30 1.456693
398.40 1.456134
398.50 1.455719
398.60 1.455395
398.70 1.454887
398.80 1.454324
398.90 1.45381
399.00 1.453384
399.10 1.453082
399.20 1.452541
399.30 1.452001
399.40 1.451461
399.50 1.450922
399.60 1.450436
399.70 1.44997
399.80 1.449505
399.90 1.44904
400.00 1.448577
400.10 1.448166
400.20 1.447527
400.30 1.447061
400.40 1.446659
400.50 1.446171
400.60 1.445597
400.70 1.445078
400.80 1.444817
400.90 1.444162
401.00 1.443781
401.10 1.443466
401.20 1.442747
401.30 1.44233
401.40 1.441932
401.50 1.441513
401.60 1.441085
401.70 1.440368
401.80 1.439967
401.90 1.439548
402.00 1.439024
402.10 1.438711
402.20 1.437996
402.30 1.437683
402.40 1.436969
402.50 1.436657
402.60 1.435965
402.70 1.435632
402.80 1.43532
402.90 1.434768
403.00 1.434257
403.10 1.433585
403.20 1.433284
403.30 1.432881
403.40 1.432254
403.50 1.431731
403.60 1.431267
403.70 1.430925
403.80 1.430223
403.90 1.429742
404.00 1.429429
404.10 1.428891
404.20 1.428383
404.30 1.427876
404.40 1.427568
404.50 1.427061
404.60 1.426555
404.70 1.426247
404.80 1.425554
404.90 1.425236
405.00 1.424532
405.10 1.424055
405.20 1.423636
405.30 1.423217
405.40 1.422713
405.50 1.422209
405.60 1.421706
405.70 1.421203
405.80 1.4207
405.90 1.420198
406.00 1.419736
406.10 1.419276
406.20 1.418815
406.30 1.418355
406.40 1.417888
406.50 1.417584
406.60 1.416887
406.70 1.416436
406.80 1.416047
406.90 1.415591
407.00 1.415092
407.10 1.414593
407.20 1.414095
407.30 1.413597
407.40 1.413099
407.50 1.412601
407.60 1.412104
407.70 1.411607
407.80 1.411111
407.90 1.410615
408.00 1.410138
408.10 1.409813
408.20 1.40942
408.30 1.408856
408.40 1.408294
408.50 1.408029
408.60 1.407475
408.70 1.406921
408.80 1.406402
408.90 1.40609
409.00 1.405552
409.10 1.405014
409.20 1.404477
409.30 1.40394
409.40 1.403407
409.50 1.402996
409.60 1.402585
409.70 1.402156
409.80 1.40165
409.90 1.401151
410.00 1.400843
410.10 1.40016
410.20 1.39972
410.30 1.399339
410.40 1.398918
410.50 1.398363
410.60 1.397809
410.70 1.397261
410.80 1.396737
410.90 1.396214
411.00 1.395736
411.10 1.395275
411.20 1.394815
411.30 1.394377
411.40 1.394022
411.50 1.393481
411.60 1.392939
411.70 1.39241
411.80 1.391925
411.90 1.391595
412.00 1.391111
412.10 1.390724
412.20 1.390145
412.30 1.389536
412.40 1.38918
412.50 1.388561
412.60 1.388161
412.70 1.387662
412.80 1.387138
412.90 1.386963
413.00 1.386346
413.10 1.385902
413.20 1.385458
413.30 1.385015
413.40 1.384571
413.50 1.384083
413.60 1.38346
413.70 1.382981
413.80 1.382503
413.90 1.382025
414.00 1.381547
414.10 1.38107
414.20 1.380547
414.30 1.38026
414.40 1.379594
414.50 1.379308
414.60 1.378688
414.70 1.378212
414.80 1.377737
414.90 1.377262
415.00 1.376787
415.10 1.376313
415.20 1.375822
415.30 1.375277
415.40 1.374732
415.50 1.374193
415.60 1.373802
415.70 1.373411
415.80 1.372985
415.90 1.372449
416.00 1.371913
416.10 1.371389
416.20 1.37091
416.30 1.370432
416.40 1.369954
416.50 1.369476
416.60 1.369006
416.70 1.368531
416.80 1.368249
416.90 1.367593
417.00 1.367311
417.10 1.366661
417.20 1.366193
417.30 1.365724
417.40 1.365202
417.50 1.36468
417.60 1.364196
417.70 1.363858
417.80 1.363391
417.90 1.362925
418.00 1.362459
418.10 1.361994
418.20 1.361529
418.30 1.361058
418.40 1.360447
418.50 1.359958
418.60 1.35947
418.70 1.358982
418.80 1.358494
418.90 1.358007
419.00 1.357519
419.10 1.357033
419.20 1.356546
419.30 1.356063
419.40 1.355678
419.50 1.355293
419.60 1.354881
419.70 1.354361
419.80 1.35384
419.90 1.353334
420.00 1.35287
420.10 1.352407
420.20 1.351944
420.30 1.351481
420.40 1.351019
420.50 1.350556
420.60 1.350094
420.70 1.349633
420.80 1.349172
420.90 1.348709
421.00 1.348201
421.10 1.347692
421.20 1.347191
421.30 1.346708
421.40 1.346226
421.50 1.345744
421.60 1.345263
421.70 1.344781
421.80 1.3443
421.90 1.343825
422.00 1.343368
422.10 1.342898
422.20 1.342377
422.30 1.341856
422.40 1.341338
422.50 1.340869
422.60 1.3404
422.70 1.339931
422.80 1.339463
422.90 1.338995
423.00 1.338528
423.10 1.338061
423.20 1.337594
423.30 1.337127
423.40 1.336661
423.50 1.336195
423.60 1.335729
423.70 1.335263
423.80 1.334798
423.90 1.334333
424.00 1.333868
424.10 1.333404
424.20 1.33294
424.30 1.332476
424.40 1.331978
424.50 1.331496
424.60 1.331015
424.70 1.330534
424.80 1.330054
424.90 1.329573
425.00 1.329093
425.10 1.328614
425.20 1.328134
425.30 1.327655
425.40 1.327176
425.50 1.326695
425.60 1.326215
425.70 1.325734
425.80 1.325254
425.90 1.324775
426.00 1.324295
426.10 1.323816
426.20 1.323338
426.30 1.322859
426.40 1.322381
426.50 1.321903
426.60 1.321426
426.70 1.320949
426.80 1.320472
426.90 1.319995
427.00 1.319528
427.10 1.319061
427.20 1.318594
427.30 1.318127
427.40 1.317661
427.50 1.317195
427.60 1.316729
427.70 1.316263
427.80 1.315798
427.90 1.315333
428.00 1.314869
428.10 1.314404
428.20 1.31394
428.30 1.313477
428.40 1.313013
428.50 1.31255
428.60 1.312087
428.70 1.311624
428.80 1.311162
428.90 1.310692
429.00 1.310222
429.10 1.309753
429.20 1.309284
429.30 1.308816
429.40 1.308347
429.50 1.307879
429.60 1.307412
429.70 1.306944
429.80 1.306477
429.90 1.30601
430.00 1.305544
430.10 1.305078
430.20 1.304612
430.30 1.304146
430.40 1.303681
430.50 1.303216
430.60 1.302751
430.70 1.302286
430.80 1.301822
430.90 1.301358
431.00 1.300895
431.10 1.300431
431.20 1.299968
431.30 1.299504
431.40 1.299024
431.50 1.298545
431.60 1.298065
431.70 1.297586
431.80 1.297107
431.90 1.296629
432.00 1.296151
432.10 1.295673
432.20 1.295196
432.30 1.294718
432.40 1.294241
432.50 1.293765
432.60 1.293289
432.70 1.292813
432.80 1.292337
432.90 1.291861
433.00 1.291386
433.10 1.290912
433.20 1.290437
433.30 1.289965
433.40 1.28952
433.50 1.289075
433.60 1.28863
433.70 1.288186
433.80 1.287674
433.90 1.287081
434.00 1.286563
434.10 1.286092
434.20 1.28562
434.30 1.28515
434.40 1.284679
434.50 1.284209
434.60 1.283739
434.70 1.283269
434.80 1.282799
434.90 1.282327
435.00 1.281856
435.10 1.281384
435.20 1.280913
435.30 1.280442
435.40 1.279971
435.50 1.279501
435.60 1.279031
435.70 1.278561
435.80 1.278092
435.90 1.277622
436.00 1.277153
436.10 1.276685
436.20 1.276217
436.30 1.275808
436.40 1.275463
436.50 1.275014
436.60 1.274566
436.70 1.274118
436.80 1.27367
436.90 1.273223
437.00 1.272776
437.10 1.272329
437.20 1.271812
437.30 1.27123
437.40 1.270657
437.50 1.270189
437.60 1.269722
437.70 1.269255
437.80 1.268789
437.90 1.268323
438.00 1.267858
438.10 1.267409
438.20 1.26696
438.30 1.26652
438.40 1.266214
438.50 1.265636
438.60 1.265059
438.70 1.264821
438.80 1.264244
438.90 1.263668
439.00 1.26343
439.10 1.262855
439.20 1.262292
439.30 1.261886
439.40 1.26148
439.50 1.261075
439.60 1.260658
439.70 1.260084
439.80 1.259581
439.90 1.259162
440.00 1.258743
440.10 1.258324
440.20 1.257903
440.30 1.257432
440.40 1.256962
440.50 1.256492
440.60 1.256022
440.70 1.255553
440.80 1.255084
440.90 1.254615
441.00 1.254146
441.10 1.253678
441.20 1.253203
441.30 1.252635
441.40 1.252119
441.50 1.251666
441.60 1.251213
441.70 1.250701
441.80 1.250237
441.90 1.249773
442.00 1.249309
442.10 1.248846
442.20 1.248383
442.30 1.24792
442.40 1.247461
442.50 1.247006
442.60 1.246552
442.70 1.246154
442.80 1.245823
442.90 1.245261
443.00 1.244776
443.10 1.244386
443.20 1.243907
443.30 1.243346
443.40 1.242859
443.50 1.242464
443.60 1.241995
443.70 1.241436
443.80 1.241207
443.90 1.240648
444.00 1.240163
444.10 1.23977
444.20 1.239302
444.30 1.238753
444.40 1.238322
444.50 1.23789
444.60 1.237403
444.70 1.236846
444.80 1.236374
444.90 1.23598
445.00 1.235586
445.10 1.235193
445.20 1.234752
445.30 1.234252
445.40 1.233754
445.50 1.233255
445.60 1.232757
445.70 1.232259
445.80 1.231816
445.90 1.231425
446.00 1.231034
446.10 1.230643
446.20 1.230179
446.30 1.229628
446.40 1.22912
446.50 1.228651
446.60 1.228182
446.70 1.227714
446.80 1.227289
446.90 1.226902
447.00 1.226432
447.10 1.225883
447.20 1.225433
447.30 1.225112
447.40 1.224565
447.50 1.224018
447.60 1.223582
447.70 1.223249
447.80 1.222779
447.90 1.222401
448.00 1.221964
448.10 1.221473
448.20 1.220982
448.30 1.220491
448.40 1.220001
448.50 1.219511
448.60 1.219061
448.70 1.21865
448.80 1.218235
448.90 1.217762
449.00 1.217289
449.10 1.216817
449.20 1.216345
449.30 1.215842
449.40 1.215431
449.50 1.215021
449.60 1.214587
449.70 1.214133
449.80 1.213678
449.90 1.213224
450.00 1.212771
450.10 1.212317
450.20 1.211864
450.30 1.211412
450.40 1.210927
450.50 1.210443
450.60 1.209959
450.70 1.209476
450.80 1.208993
450.90 1.20851
451.00 1.208103
451.10 1.207697
451.20 1.207223
451.30 1.206688
451.40 1.206313
451.50 1.205939
451.60 1.205405
451.70 1.205031
451.80 1.204657
451.90 1.204124
452.00 1.203591
452.10 1.203059
452.20 1.202606
452.30 1.202154
452.40 1.201702
452.50 1.20125
452.60 1.200934
452.70 1.200544
452.80 1.200084
452.90 1.199624
453.00 1.199164
453.10 1.198705
453.20 1.198273
453.30 1.197841
453.40 1.19741
453.50 1.196978
453.60 1.196547
453.70 1.196116
453.80 1.195642
453.90 1.195116
454.00 1.194589
454.10 1.194063
454.20 1.193653
454.30 1.193242
454.40 1.192832
454.50 1.192422
454.60 1.192013
454.70 1.191575
454.80 1.191111
454.90 1.190647
455.00 1.190183
455.10 1.18972
455.20 1.189257
455.30 1.188795
455.40 1.188332
455.50 1.18787
455.60 1.187409
455.70 1.186947
455.80 1.18651
455.90 1.186074
456.00 1.185638
456.10 1.185195
456.20 1.184733
456.30 1.184272
456.40 1.183812
456.50 1.183351
456.60 1.182891
456.70 1.182431
456.80 1.181971
456.90 1.181512
457.00 1.181053
457.10 1.180594
457.20 1.180417
457.30 1.179966
457.40 1.179516
457.50 1.179066
457.60 1.178616
457.70 1.178166
457.80 1.177716
457.90 1.177267
458.00 1.176818
458.10 1.17637
458.20 1.175921
458.30 1.175473
458.40 1.175026
458.50 1.174578
458.60 1.174131
458.70 1.173676
458.80 1.173219
458.90 1.172762
459.00 1.172305
459.10 1.171849
459.20 1.171392
459.30 1.170947
459.40 1.170502
459.50 1.170057
459.60 1.169612
459.70 1.169168
459.80 1.168724
459.90 1.16828
460.00 1.167837
460.10 1.167393
460.20 1.166951
460.30 1.166508
460.40 1.166066
460.50 1.165623
460.60 1.165182
460.70 1.164738
460.80 1.164295
460.90 1.163851
461.00 1.163408
461.10 1.162965
461.20 1.162479
461.30 1.161975
461.40 1.161536
461.50 1.161113
461.60 1.16069
461.70 1.160268
461.80 1.15983
461.90 1.159392
462.00 1.158954
462.10 1.158516
462.20 1.158079
462.30 1.157642
462.40 1.157205
462.50 1.156769
462.60 1.156333
462.70 1.155897
462.80 1.155461
462.90 1.155026
463.00 1.15459
463.10 1.154156
463.20 1.153707
463.30 1.153253
463.40 1.152799
463.50 1.152346
463.60 1.151892
463.70 1.151439
463.80 1.150987
463.90 1.150559
464.00 1.150138
464.10 1.149717
464.20 1.149297
464.30 1.148876
464.40 1.148456
464.50 1.148036
464.60 1.147617
464.70 1.147179
464.80 1.146735
464.90 1.146291
465.00 1.145848
465.10 1.145404
465.20 1.144961
465.30 1.14452
465.40 1.14408
465.50 1.14364
465.60 1.143201
465.70 1.142761
465.80 1.142323
465.90 1.141901
466.00 1.141485
466.10 1.141068
466.20 1.140652
466.30 1.140205
466.40 1.139746
466.50 1.139288
466.60 1.138829
466.70 1.138371
466.80 1.137913
466.90 1.137456
467.00 1.136998
467.10 1.136542
467.20 1.136085
467.30 1.13584
467.40 1.135419
467.50 1.134934
467.60 1.134448
467.70 1.133963
467.80 1.133479
467.90 1.133047
468.00 1.132637
468.10 1.132227
468.20 1.131818
468.30 1.131356
468.40 1.130873
468.50 1.13062
468.60 1.130205
468.70 1.129722
468.80 1.129241
468.90 1.128759
469.00 1.128278
469.10 1.127849
469.20 1.127442
469.30 1.127036
469.40 1.12663
469.50 1.126216
469.60 1.125801
469.70 1.125385
469.80 1.12497
469.90 1.12455
470.00 1.124071
470.10 1.123635
470.20 1.123218
470.30 1.1228
470.40 1.122382
470.50 1.121965
470.60 1.121501
470.70 1.121024
470.80 1.120548
470.90 1.120072
471.00 1.119812
471.10 1.119415
471.20 1.118939
471.30 1.118465
471.40 1.11799
471.50 1.117516
471.60 1.117159
471.70 1.116832
471.80 1.116388
471.90 1.115915
472.00 1.115442
472.10 1.114969
472.20 1.114543
472.30 1.114129
472.40 1.113714
472.50 1.1133
472.60 1.112886
472.70 1.112432
472.80 1.111985
472.90 1.111544
473.00 1.111103
473.10 1.110662
473.20 1.110222
473.30 1.109782
473.40 1.109342
473.50 1.108903
473.60 1.108464
473.70 1.108025
473.80 1.107619
473.90 1.107223
474.00 1.106827
474.10 1.106431
474.20 1.106029
474.30 1.105625
474.40 1.105222
474.50 1.104819
474.60 1.104414
474.70 1.103988
474.80 1.103563
474.90 1.103138
475.00 1.102713
475.10 1.102288
475.20 1.101864
475.30 1.10144
475.40 1.101013
475.50 1.100585
475.60 1.100158
475.70 1.099731
475.80 1.099305
475.90 1.098878
476.00 1.098452
476.10 1.098026
476.20 1.097575
476.30 1.097114
476.40 1.096654
476.50 1.096194
476.60 1.095734
476.70 1.095274
476.80 1.094815
476.90 1.094394
477.00 1.093982
477.10 1.093571
477.20 1.09316
477.30 1.09275
477.40 1.092339
477.50 1.091929
477.60 1.091519
477.70 1.09111
477.80 1.0907
477.90 1.090291
478.00 1.089882
478.10 1.089473
478.20 1.089065
478.30 1.088657
478.40 1.088249
478.50 1.087841
478.60 1.087434
478.70 1.086993
478.80 1.086539
478.90 1.086086
479.00 1.085632
479.10 1.085179
479.20 1.084726
479.30 1.084274
479.40 1.083842
479.50 1.083422
479.60 1.083002
479.70 1.082583
479.80 1.082163
479.90 1.081745
480.00 1.081326
480.10 1.080908
480.20 1.08049
480.30 1.080072
480.40 1.079654
480.50 1.079237
480.60 1.07882
480.70 1.078403
480.80 1.077986
480.90 1.07757
481.00 1.077154
481.10 1.076738
481.20 1.076316
481.30 1.075895
481.40 1.075473
481.50 1.075052
481.60 1.074632
481.70 1.074211
481.80 1.073791
481.90 1.073371
482.00 1.072951
482.10 1.072532
482.20 1.072114
482.30 1.071709
482.40 1.071304
482.50 1.0709
482.60 1.070496
482.70 1.070092
482.80 1.069689
482.90 1.069286
483.00 1.068883
483.10 1.06848
483.20 1.068077
483.30 1.067675
483.40 1.067273
483.50 1.066871
483.60 1.066469
483.70 1.066028
483.80 1.065588
483.90 1.065147
484.00 1.064707
484.10 1.064267
484.20 1.063862
484.30 1.063472
484.40 1.063083
484.50 1.062693
484.60 1.062304
484.70 1.061913
484.80 1.061506
484.90 1.061099
485.00 1.060692
485.10 1.060285
485.20 1.059878
485.30 1.059472
485.40 1.059066
485.50 1.05866
485.60 1.058255
485.70 1.057819
485.80 1.057384
485.90 1.056948
486.00 1.056514
486.10 1.056079
486.20 1.055645
486.30 1.05521
486.40 1.054777
486.50 1.054343
486.60 1.05391
486.70 1.053481
486.80 1.053116
486.90 1.052751
487.00 1.052386
487.10 1.052022
487.20 1.05159
487.30 1.051158
487.40 1.050727
487.50 1.050296
487.60 1.049865
487.70 1.049435
487.80 1.049004
487.90 1.048574
488.00 1.048145
488.10 1.047715
488.20 1.04729
488.30 1.046915
488.40 1.04654
488.50 1.046165
488.60 1.045791
488.70 1.045417
488.80 1.044989
488.90 1.044562
489.00 1.044145
489.10 1.043755
489.20 1.043366
489.30 1.042977
489.40 1.042588
489.50 1.0422
489.60 1.041811
489.70 1.041423
489.80 1.040998
489.90 1.040573
490.00 1.040148
490.10 1.039724
490.20 1.0393
490.30 1.038876
490.40 1.038452
490.50 1.038029
490.60 1.037606
490.70 1.037183
490.80 1.03676
490.90 1.036338
491.00 1.035916
491.10 1.035494
491.20 1.035072
491.30 1.034651
491.40 1.034499
491.50 1.034079
491.60 1.033658
491.70 1.033238
491.80 1.032817
491.90 1.032397
492.00 1.031978
492.10 1.031558
492.20 1.031139
492.30 1.03072
492.40 1.030302
492.50 1.029884
492.60 1.029465
492.70 1.029048
492.80 1.02863
492.90 1.028213
493.00 1.027799
493.10 1.027435
493.20 1.027071
493.30 1.026708
493.40 1.026344
493.50 1.025981
493.60 1.025566
493.70 1.02515
493.80 1.024735
493.90 1.02432
494.00 1.023905
494.10 1.023491
494.20 1.023077
494.30 1.022663
494.40 1.022249
494.50 1.021836
494.60 1.021423
494.70 1.02101
494.80 1.020597
494.90 1.020185
495.00 1.019773
495.10 1.019361
495.20 1.018977
495.30 1.018593
495.40 1.018209
495.50 1.017825
495.60 1.017442
495.70 1.017059
495.80 1.016676
495.90 1.016293
496.00 1.015911
496.10 1.01552
496.20 1.015111
496.30 1.014702
496.40 1.014293
496.50 1.013884
496.60 1.013476
496.70 1.013068
496.80 1.01266
496.90 1.012253
497.00 1.011845
497.10 1.011438
497.20 1.011031
497.30 1.010625
497.40 1.010219
497.50 1.009812
497.60 1.009407
497.70 1.009003
497.80 1.008627
497.90 1.008251
498.00 1.007875
498.10 1.007499
498.20 1.007123
498.30 1.006748
498.40 1.006373
498.50 1.005998
498.60 1.005624
498.70 1.00522
498.80 1.004817
498.90 1.004415
499.00 1.004012
499.10 1.00361
499.20 1.003208
499.30 1.002806
499.40 1.002404
499.50 1.002003
499.60 1.001602
499.70 1.001201
499.80 1.0008
499.90 1.0004
500.00 1
500.10 0.9996001
500.20 0.9992005
500.30 0.9988011
500.40 0.9984019
500.50 0.998003
500.60 0.9976043
500.70 0.9972059
500.80 0.9968077
500.90 0.9964097
501.00 0.996012
501.10 0.9956145
501.20 0.9952172
501.30 0.9948202
501.40 0.9944234
501.50 0.9940269
501.60 0.9936306
501.70 0.9932345
501.80 0.9928387
501.90 0.9924431
502.00 0.9920477
502.10 0.9916526
502.20 0.9912577
502.30 0.9908631
502.40 0.9904687
502.50 0.9900745
502.60 0.9896806
502.70 0.9892869
502.80 0.9888934
502.90 0.9885001
503.00 0.9881071
503.10 0.9877144
503.20 0.9873218
503.30 0.9869295
503.40 0.9865375
503.50 0.9861456
503.60 0.985754
503.70 0.9853627
503.80 0.9849715
503.90 0.9845806
504.00 0.98419
504.10 0.9837995
504.20 0.9834093
504.30 0.9830194
504.40 0.9826629
504.50 0.9824013
504.60 0.9821065
504.70 0.9817174
504.80 0.9813285
504.90 0.9809398
505.00 0.9805513
505.10 0.9801631
505.20 0.9797751
505.30 0.9793874
505.40 0.9789998
505.50 0.9786125
505.60 0.9782255
505.70 0.9778386
505.80 0.977452
505.90 0.9770656
506.00 0.9766795
506.10 0.9762935
506.20 0.9759005
506.30 0.9754866
506.40 0.975073
506.50 0.9746596
506.60 0.9742465
506.70 0.9738336
506.80 0.973421
506.90 0.9730086
507.00 0.9725965
507.10 0.9721937
507.20 0.9718103
507.30 0.9714273
507.40 0.9710444
507.50 0.9706617
507.60 0.9702793
507.70 0.9698971
507.80 0.9695152
507.90 0.9691334
508.00 0.9687519
508.10 0.9683707
508.20 0.9679896
508.30 0.9676088
508.40 0.9672281
508.50 0.9668478
508.60 0.9664676
508.70 0.9660877
508.80 0.9657079
508.90 0.9653285
509.00 0.9649492
509.10 0.9645701
509.20 0.9641913
509.30 0.9638127
509.40 0.9634344
509.50 0.9630562
509.60 0.9626783
509.70 0.9623006
509.80 0.9619231
509.90 0.9615458
510.00 0.9611688
510.10 0.960792
510.20 0.9604154
510.30 0.960039
510.40 0.9596628
510.50 0.9592869
510.60 0.9589112
510.70 0.9585357
510.80 0.9581604
510.90 0.9577854
511.00 0.9574105
511.10 0.9570359
511.20 0.9566615
511.30 0.9562874
511.40 0.9559134
511.50 0.9555397
511.60 0.9551662
511.70 0.9547929
511.80 0.9544198
511.90 0.954047
512.00 0.9536743
512.10 0.9533019
512.20 0.9529297
512.30 0.9525538
512.40 0.9521669
512.50 0.9517802
512.60 0.9513938
512.70 0.9510076
512.80 0.9506216
512.90 0.9502359
513.00 0.9498504
513.10 0.9494651
513.20 0.9490801
513.30 0.9486952
513.40 0.9483106
513.50 0.9479263
513.60 0.9475421
513.70 0.9471582
513.80 0.9467745
513.90 0.9463911
514.00 0.9460125
514.10 0.9456349
514.20 0.9452576
514.30 0.9448804
514.40 0.9445035
514.50 0.9441268
514.60 0.9437504
514.70 0.9433741
514.80 0.9429981
514.90 0.9426223
515.00 0.9422467
515.10 0.9418714
515.20 0.9414962
515.30 0.9411213
515.40 0.9407466
515.50 0.9403721
515.60 0.9399978
515.70 0.9396238
515.80 0.93925
515.90 0.9388764
516.00 0.938503
516.10 0.9381298
516.20 0.9377569
516.30 0.9373842
516.40 0.9370116
516.50 0.9366393
516.60 0.9362673
516.70 0.9358954
516.80 0.9355238
516.90 0.9351523
517.00 0.9347811
517.10 0.9344101
517.20 0.9340394
517.30 0.9336688
517.40 0.9332985
517.50 0.9329284
517.60 0.9325584
517.70 0.9321888
517.80 0.9318193
517.90 0.93145
518.00 0.931081
518.10 0.9307122
518.20 0.9303435
518.30 0.9299751
518.40 0.929607
518.50 0.929239
518.60 0.9288712
518.70 0.9285037
518.80 0.9281364
518.90 0.9277693
519.00 0.9274024
519.10 0.9270335
519.20 0.9266625
519.30 0.9262917
519.40 0.9259211
519.50 0.9255508
519.60 0.9251806
519.70 0.9248107
519.80 0.9244409
519.90 0.9240714
520.00 0.9237021
520.10 0.9233331
520.20 0.9229642
520.30 0.9225955
520.40 0.9222271
520.50 0.9218589
520.60 0.9214909
520.70 0.9211231
520.80 0.9207555
520.90 0.9203882
521.00 0.920021
521.10 0.9196541
521.20 0.9192874
521.30 0.9189209
521.40 0.9185546
521.50 0.9181885
521.60 0.9178227
521.70 0.917457
521.80 0.9170916
521.90 0.9167264
522.00 0.9163613
522.10 0.9159966
522.20 0.915632
522.30 0.9152676
522.40 0.9149034
522.50 0.9145395
522.60 0.9141757
522.70 0.9138122
522.80 0.9134489
522.90 0.9130858
523.00 0.9127229
523.10 0.9123602
523.20 0.9119977
523.30 0.9116355
523.40 0.9112734
523.50 0.9109116
523.60 0.9105499
523.70 0.9101885
523.80 0.9098273
523.90 0.9094663
524.00 0.9091055
524.10 0.9087449
524.20 0.9083846
524.30 0.9080219
524.40 0.9076576
524.50 0.9072935
524.60 0.9069295
524.70 0.9065658
524.80 0.9062023
524.90 0.9058391
525.00 0.905476
525.10 0.9051131
525.20 0.9047505
525.30 0.904388
525.40 0.9040258
525.50 0.9036638
525.60 0.903302
525.70 0.9029404
525.80 0.902579
525.90 0.9022178
526.00 0.9018568
526.10 0.9014961
526.20 0.9011355
526.30 0.9007752
526.40 0.900415
526.50 0.9000551
526.60 0.8996954
526.70 0.8993359
526.80 0.8989766
526.90 0.8986175
527.00 0.8982586
527.10 0.8978999
527.20 0.8975414
527.30 0.8971832
527.40 0.8968251
527.50 0.8964673
527.60 0.8961096
527.70 0.8957522
527.80 0.895395
527.90 0.8950379
528.00 0.8946811
528.10 0.8943245
528.20 0.8939681
528.30 0.8936119
528.40 0.8932559
528.50 0.8929001
528.60 0.8925445
528.70 0.8921892
528.80 0.891834
528.90 0.891479
529.00 0.8911243
529.10 0.8907697
529.20 0.8904153
529.30 0.8900612
529.40 0.8897072
529.50 0.8893535
529.60 0.8890002
529.70 0.888647
529.80 0.8882941
529.90 0.8879413
530.00 0.8875888
530.10 0.8872364
530.20 0.8868843
530.30 0.8865323
530.40 0.8861806
530.50 0.8858291
530.60 0.8854777
530.70 0.8851266
530.80 0.8847757
530.90 0.884425
531.00 0.8840744
531.10 0.8837241
531.20 0.883374
531.30 0.8830241
531.40 0.8826743
531.50 0.8823248
531.60 0.8819755
531.70 0.8816264
531.80 0.8812775
531.90 0.8809287
532.00 0.8805802
532.10 0.8802319
532.20 0.8798838
532.30 0.8795359
532.40 0.8791881
532.50 0.8788406
532.60 0.8784933
532.70 0.8781461
532.80 0.8777992
532.90 0.8774525
533.00 0.8771059
533.10 0.8767596
533.20 0.8764135
533.30 0.8760675
533.40 0.8757218
533.50 0.8753762
533.60 0.8750309
533.70 0.8746857
533.80 0.8743408
533.90 0.873996
534.00 0.8736515
534.10 0.8733071
534.20 0.8729629
534.30 0.872619
534.40 0.8722752
534.50 0.8719316
534.60 0.8715882
534.70 0.8712451
534.80 0.8709005
534.90 0.8705494
535.00 0.8701984
535.10 0.8698477
535.20 0.8694972
535.30 0.8691469
535.40 0.8687967
535.50 0.8684468
535.60 0.8680971
535.70 0.8677476
535.80 0.8673983
535.90 0.8670491
536.00 0.8667002
536.10 0.8663515
536.20 0.866003
536.30 0.8656547
536.40 0.8653065
536.50 0.8649586
536.60 0.8646109
536.70 0.8642634
536.80 0.863916
536.90 0.8635689
537.00 0.863222
537.10 0.8628753
537.20 0.8625287
537.30 0.8621824
537.40 0.8618363
537.50 0.8614903
537.60 0.8611446
537.70 0.8607991
537.80 0.8604537
537.90 0.8601086
538.00 0.8597636
538.10 0.8594189
538.20 0.8590743
538.30 0.85873
538.40 0.8583858
538.50 0.8580418
538.60 0.8576981
538.70 0.8573545
538.80 0.8570111
538.90 0.8566679
539.00 0.8563249
539.10 0.8559822
539.20 0.8556396
539.30 0.8552972
539.40 0.854955
539.50 0.854613
539.60 0.8542711
539.70 0.8539295
539.80 0.8535881
539.90 0.8532469
540.00 0.8529058
540.10 0.852565
540.20 0.8522245
540.30 0.8518843
540.40 0.8515443
540.50 0.8512045
540.60 0.8508648
540.70 0.8505254
540.80 0.8501862
540.90 0.8498471
541.00 0.8495082
541.10 0.8491696
541.20 0.8488311
541.30 0.8484928
541.40 0.8481547
541.50 0.8478168
541.60 0.8474791
541.70 0.8471416
541.80 0.8468043
541.90 0.8464672
542.00 0.8461302
542.10 0.8457935
542.20 0.8454569
542.30 0.8451205
542.40 0.8447844
542.50 0.8444484
542.60 0.8441126
542.70 0.843777
542.80 0.8434416
542.90 0.8431063
543.00 0.8427713
543.10 0.8424364
543.20 0.8421018
543.30 0.8417673
543.40 0.841433
543.50 0.8410989
543.60 0.840765
543.70 0.8404313
543.80 0.8400978
543.90 0.8397645
544.00 0.8394313
544.10 0.8390984
544.20 0.8387656
544.30 0.838433
544.40 0.8381006
544.50 0.8377684
544.60 0.8374364
544.70 0.8371045
544.80 0.8367729
544.90 0.8364414
545.00 0.8361102
545.10 0.8357791
545.20 0.8354482
545.30 0.8351175
545.40 0.8347869
545.50 0.8344566
545.60 0.834121
545.70 0.8337833
545.80 0.8334457
545.90 0.8331084
546.00 0.8327712
546.10 0.8324343
546.20 0.8320975
546.30 0.8317609
546.40 0.8314245
546.50 0.8310883
546.60 0.8307523
546.70 0.8304164
546.80 0.8300808
546.90 0.8297453
547.00 0.8294101
547.10 0.829075
547.20 0.8287401
547.30 0.8284055
547.40 0.828071
547.50 0.8277366
547.60 0.8274025
547.70 0.8270686
547.80 0.8267349
547.90 0.8264013
548.00 0.8260679
548.10 0.8257348
548.20 0.8254018
548.30 0.825069
548.40 0.8247363
548.50 0.8244039
548.60 0.8240716
548.70 0.8237396
548.80 0.8234077
548.90 0.823076
549.00 0.8227445
549.10 0.8224132
549.20 0.8220821
549.30 0.8217511
549.40 0.8214204
549.50 0.8210898
549.60 0.8207594
549.70 0.8204292
549.80 0.8200992
549.90 0.8197694
550.00 0.8194397
550.10 0.8191103
550.20 0.818781
550.30 0.8184519
550.40 0.818123
550.50 0.8177943
550.60 0.8174658
550.70 0.8171374
550.80 0.8168093
550.90 0.8164813
551.00 0.8161536
551.10 0.8158263
551.20 0.8154992
551.30 0.8151723
551.40 0.8148455
551.50 0.814519
551.60 0.8141926
551.70 0.8138664
551.80 0.8135404
551.90 0.8132146
552.00 0.812889
552.10 0.8125635
552.20 0.8122382
552.30 0.8119131
552.40 0.8115882
552.50 0.8112635
552.60 0.810939
552.70 0.8106146
552.80 0.8102904
552.90 0.8099664
553.00 0.8096426
553.10 0.809319
553.20 0.8089955
553.30 0.8086722
553.40 0.8083491
553.50 0.8080262
553.60 0.8077035
553.70 0.8073809
553.80 0.8070586
553.90 0.8067364
554.00 0.8064143
554.10 0.8060925
554.20 0.8057709
554.30 0.8054494
554.40 0.8051281
554.50 0.804807
554.60 0.804486
554.70 0.8041653
554.80 0.8038447
554.90 0.8035243
555.00 0.8032041
555.10 0.802884
555.20 0.8025642
555.30 0.8022445
555.40 0.801925
555.50 0.8016057
555.60 0.8012865
555.70 0.8009675
555.80 0.8006488
555.90 0.8003301
556.00 0.8000117
556.10 0.7996934
556.20 0.7993753
556.30 0.7990574
556.40 0.7987397
556.50 0.798422
556.60 0.7981011
556.70 0.7977805
556.80 0.79746
556.90 0.7971396
557.00 0.7968195
557.10 0.7964995
557.20 0.7961798
557.30 0.7958602
557.40 0.7955407
557.50 0.7952215
557.60 0.7949024
557.70 0.7945835
557.80 0.7942648
557.90 0.7939463
558.00 0.7936279
558.10 0.7933097
558.20 0.7929917
558.30 0.7926739
558.40 0.7923563
558.50 0.7920388
558.60 0.7917215
558.70 0.7914044
558.80 0.7910874
558.90 0.7907706
559.00 0.7904541
559.10 0.7901376
559.20 0.7898214
559.30 0.7895053
559.40 0.7891894
559.50 0.7888737
559.60 0.7885582
559.70 0.7882428
559.80 0.7879276
559.90 0.7876126
560.00 0.7872978
560.10 0.7869831
560.20 0.7866686
560.30 0.7863543
560.40 0.7860402
560.50 0.7857262
560.60 0.7854124
560.70 0.7850988
560.80 0.7847853
560.90 0.7844721
561.00 0.784159
561.10 0.783846
561.20 0.7835333
561.30 0.7832207
561.40 0.7829083
561.50 0.7825961
561.60 0.782284
561.70 0.7819721
561.80 0.7816604
561.90 0.7813489
562.00 0.7810375
562.10 0.780725
562.20 0.7804106
562.30 0.7800964
562.40 0.7797824
562.50 0.7794686
562.60 0.7791549
562.70 0.7788415
562.80 0.7785281
562.90 0.778215
563.00 0.777902
563.10 0.7775893
563.20 0.7772766
563.30 0.7769642
563.40 0.7766519
563.50 0.7763398
563.60 0.7760279
563.70 0.7757161
563.80 0.7754046
563.90 0.7750932
564.00 0.7747819
564.10 0.7744709
564.20 0.77416
564.30 0.7738492
564.40 0.7735387
564.50 0.7732283
564.60 0.7729181
564.70 0.7726081
564.80 0.7722982
564.90 0.7719885
565.00 0.771679
565.10 0.7713696
565.20 0.7710604
565.30 0.7707514
565.40 0.7704425
565.50 0.7701339
565.60 0.7698254
565.70 0.769517
565.80 0.7692088
565.90 0.7689008
566.00 0.768593
566.10 0.7682853
566.20 0.7679778
566.30 0.7676705
566.40 0.7673634
566.50 0.7670564
566.60 0.7667496
566.70 0.7664429
566.80 0.7661364
566.90 0.7658301
567.00 0.765524
567.10 0.765218
567.20 0.7649122
567.30 0.7646065
567.40 0.7643011
567.50 0.7639958
567.60 0.7636906
567.70 0.7633851
567.80 0.7630771
567.90 0.7627692
568.00 0.7624616
568.10 0.7621541
568.20 0.7618468
568.30 0.7615396
568.40 0.7612326
568.50 0.7609258
568.60 0.7606192
568.70 0.7603127
568.80 0.7600064
568.90 0.7597003
569.00 0.7593943
569.10 0.7590885
569.20 0.7587829
569.30 0.7584774
569.40 0.7581721
569.50 0.757867
569.60 0.757562
569.70 0.7572572
569.80 0.7569526
569.90 0.7566481
570.00 0.7563438
570.10 0.7560397
570.20 0.7557357
570.30 0.7554319
570.40 0.7551283
570.50 0.7548249
570.60 0.7545216
570.70 0.7542184
570.80 0.7539155
570.90 0.7536127
571.00 0.75331
571.10 0.7530076
571.20 0.7527053
571.30 0.7524031
571.40 0.7521012
571.50 0.7517994
571.60 0.7514977
571.70 0.7511963
571.80 0.750895
571.90 0.7505938
572.00 0.7502928
572.10 0.749992
572.20 0.7496914
572.30 0.7493909
572.40 0.7490906
572.50 0.7487904
572.60 0.7484904
572.70 0.7481906
572.80 0.7478909
572.90 0.7475914
573.00 0.7472921
573.10 0.7469929
573.20 0.7466939
573.30 0.746395
573.40 0.7460966
573.50 0.7457988
573.60 0.7455011
573.70 0.7452036
573.80 0.7449063
573.90 0.7446091
574.00 0.7443121
574.10 0.7440152
574.20 0.7437185
574.30 0.743422
574.40 0.7431256
574.50 0.7428294
574.60 0.7425333
574.70 0.7422374
574.80 0.7419417
574.90 0.7416461
575.00 0.7413507
575.10 0.7410554
575.20 0.7407603
575.30 0.7404654
575.40 0.7401706
575.50 0.739876
575.60 0.7395816
575.70 0.7392873
575.80 0.7389932
575.90 0.7386992
576.00 0.7384054
576.10 0.7381117
576.20 0.7378182
576.30 0.7375249
576.40 0.7372317
576.50 0.7369387
576.60 0.7366459
576.70 0.7363532
576.80 0.7360606
576.90 0.7357682
577.00 0.735476
577.10 0.7351839
577.20 0.734892
577.30 0.7346003
577.40 0.7343087
577.50 0.7340173
577.60 0.7337256
577.70 0.7334333
577.80 0.7331412
577.90 0.7328492
578.00 0.7325574
578.10 0.7322658
578.20 0.7319743
578.30 0.731683
578.40 0.7313918
578.50 0.7311008
578.60 0.73081
578.70 0.7305193
578.80 0.7302288
578.90 0.7299384
579.00 0.7296482
579.10 0.7293579
579.20 0.7290661
579.30 0.7287745
579.40 0.728483
579.50 0.7281917
579.60 0.7279005
579.70 0.7276095
579.80 0.7273186
579.90 0.7270279
580.00 0.7267374
580.10 0.7264475
580.20 0.7261584
580.30 0.7258695
580.40 0.7255807
580.50 0.7252921
580.60 0.7250037
580.70 0.7247154
580.80 0.7244272
580.90 0.7241392
581.00 0.7238514
581.10 0.7235638
581.20 0.7232762
581.30 0.7229889
581.40 0.7227017
581.50 0.7224146
581.60 0.7221277
581.70 0.721841
581.80 0.7215544
581.90 0.721268
582.00 0.7209817
582.10 0.7206956
582.20 0.7204096
582.30 0.7201238
582.40 0.7198381
582.50 0.7195526
582.60 0.7192673
582.70 0.7189821
582.80 0.718697
582.90 0.7184121
583.00 0.7181274
583.10 0.7178428
583.20 0.7175583
583.30 0.7172741
583.40 0.7169899
583.50 0.716706
583.60 0.7164202
583.70 0.7161313
583.80 0.7158425
583.90 0.715554
584.00 0.7152656
584.10 0.7149773
584.20 0.7146892
584.30 0.7144012
584.40 0.7141134
584.50 0.7138258
584.60 0.7135383
584.70 0.713251
584.80 0.7129638
584.90 0.7126723
585.00 0.7123608
585.10 0.7120494
585.20 0.7117495
585.30 0.7114683
585.40 0.7111873
585.50 0.7109064
585.60 0.7106256
585.70 0.710345
585.80 0.7100646
585.90 0.7097843
586.00 0.7095041
586.10 0.7092242
586.20 0.7089467
586.30 0.7086733
586.40 0.7084001
586.50 0.708127
586.60 0.707854
586.70 0.7075812
586.80 0.7073026
586.90 0.7070143
587.00 0.7067262
587.10 0.7064383
587.20 0.7061684
587.30 0.705928
587.40 0.7056876
587.50 0.7052588
587.60 0.7050188
587.70 0.7047789
587.80 0.7045033
587.90 0.7041694
588.00 0.7038537
588.10 0.7035673
588.20 0.703281
588.30 0.7029949
588.40 0.702715
588.50 0.7024448
588.60 0.7021748
588.70 0.701905
588.80 0.7016353
588.90 0.7013658
589.00 0.701094
589.10 0.7008184
589.20 0.7005431
589.30 0.7002678
589.40 0.6999928
589.50 0.6997178
589.60 0.699443
589.70 0.6991684
589.80 0.6988939
589.90 0.6986195
590.00 0.6983411
590.10 0.6980558
590.20 0.6977706
590.30 0.6974857
590.40 0.6972008
590.50 0.6969161
590.60 0.6966316
590.70 0.6963472
590.80 0.6960655
590.90 0.6957851
591.00 0.6955048
591.10 0.6952246
591.20 0.6949446
591.30 0.6946648
591.40 0.6943851
591.50 0.6941055
591.60 0.693829
591.70 0.6935573
591.80 0.6932857
591.90 0.6930143
592.00 0.6927431
592.10 0.692472
592.20 0.692201
592.30 0.6919302
592.40 0.6916595
592.50 0.6913889
592.60 0.6911185
592.70 0.6908483
592.80 0.6905782
592.90 0.6903082
593.00 0.6900384
593.10 0.6897652
593.20 0.6894864
593.30 0.6892077
593.40 0.6889292
593.50 0.6886509
593.60 0.6883727
593.70 0.6880946
593.80 0.6878167
593.90 0.687539
594.00 0.6872614
594.10 0.6869839
594.20 0.6867066
594.30 0.6864295
594.40 0.6861525
594.50 0.6858756
594.60 0.6855989
594.70 0.6853223
594.80 0.6850459
594.90 0.6847696
595.00 0.6844935
595.10 0.6842217
595.20 0.6839568
595.30 0.683692
595.40 0.6834274
595.50 0.683163
595.60 0.6828987
595.70 0.6826345
595.80 0.6823704
595.90 0.6821065
596.00 0.6818428
596.10 0.6815791
596.20 0.6813157
596.30 0.6810523
596.40 0.6807891
596.50 0.680526
596.60 0.6802631
596.70 0.6799851
596.80 0.6796979
596.90 0.6794108
597.00 0.6791239
597.10 0.6788372
597.20 0.6785506
597.30 0.6782642
597.40 0.6779779
597.50 0.6776917
597.60 0.6774123
597.70 0.6771437
597.80 0.6768753
597.90 0.676607
598.00 0.6763388
598.10 0.6760708
598.20 0.6758029
598.30 0.6755351
598.40 0.6752675
598.50 0.675
598.60 0.6747327
598.70 0.6744655
598.80 0.6741985
598.90 0.6739316
599.00 0.6736648
599.10 0.6733982
599.20 0.6731317
599.30 0.6728654
599.40 0.6725956
599.50 0.672326
599.60 0.6720564
599.70 0.6717871
599.80 0.6715178
599.90 0.6712488
600.00 0.6709798
600.10 0.670711
600.20 0.6704424
600.30 0.6701738
600.40 0.6699055
600.50 0.6696372
600.60 0.6693691
600.70 0.6691012
600.80 0.6688334
600.90 0.6685657
601.00 0.6682982
601.10 0.6680308
601.20 0.6677636
601.30 0.6674965
601.40 0.6672331
601.50 0.6669699
601.60 0.6667068
601.70 0.6664439
601.80 0.6661811
601.90 0.6659185
602.00 0.665656
602.10 0.6653936
602.20 0.6651313
602.30 0.6648692
602.40 0.6646073
602.50 0.6643454
602.60 0.6640838
602.70 0.6638613
602.80 0.6636411
602.90 0.6633762
603.00 0.6631114
603.10 0.6628468
603.20 0.6625823
603.30 0.6623179
603.40 0.6620537
603.50 0.6617897
603.60 0.6615257
603.70 0.6612619
603.80 0.6609983
603.90 0.6607347
604.00 0.6604714
604.10 0.6602081
604.20 0.659945
604.30 0.659682
604.40 0.6594192
604.50 0.6591476
604.60 0.6588762
604.70 0.6586048
604.80 0.6583337
604.90 0.6580626
605.00 0.6577918
605.10 0.657521
605.20 0.6572504
605.30 0.65698
605.40 0.6567097
605.50 0.6564632
605.60 0.6562168
605.70 0.6559706
605.80 0.6557244
605.90 0.6554785
606.00 0.6552326
606.10 0.6549721
606.20 0.6547117
606.30 0.6544515
606.40 0.6541914
606.50 0.6538872
606.60 0.6535832
606.70 0.6533677
606.80 0.6531524
606.90 0.6528488
607.00 0.6525454
607.10 0.6523304
607.20 0.6521156
607.30 0.6518567
607.40 0.651598
607.50 0.6513394
607.60 0.6510809
607.70 0.6508079
607.80 0.650535
607.90 0.6502623
608.00 0.6499897
608.10 0.6497172
608.20 0.6494449
608.30 0.6491906
608.40 0.6489364
608.50 0.6486823
608.60 0.6484284
608.70 0.6481814
608.80 0.6479376
608.90 0.6476939
609.00 0.6474504
609.10 0.647207
609.20 0.6469637
609.30 0.6467075
609.40 0.6464514
609.50 0.6461955
609.60 0.6459397
609.70 0.6456841
609.80 0.6454286
609.90 0.6451732
610.00 0.6449179
610.10 0.6446628
610.20 0.6444078
610.30 0.6441529
610.40 0.6438982
610.50 0.6436436
610.60 0.6433892
610.70 0.6431348
610.80 0.6428806
610.90 0.6426237
611.00 0.6423668
611.10 0.6421101
611.20 0.6418536
611.30 0.6415971
611.40 0.6413408
611.50 0.6410846
611.60 0.6408286
611.70 0.6405727
611.80 0.6403169
611.90 0.6400613
612.00 0.6398058
612.10 0.6395504
612.20 0.6392952
612.30 0.6390401
612.40 0.6387793
612.50 0.6385187
612.60 0.6382582
612.70 0.6379978
612.80 0.6377376
612.90 0.6374775
613.00 0.6372176
613.10 0.6369578
613.20 0.6366981
613.30 0.6364386
613.40 0.6361792
613.50 0.6359199
613.60 0.6356608
613.70 0.6354018
613.80 0.6351429
613.90 0.6348842
614.00 0.6346256
614.10 0.6343671
614.20 0.6341088
614.30 0.6338506
614.40 0.6336029
614.50 0.6333554
614.60 0.633108
614.70 0.6328607
614.80 0.6326135
614.90 0.6323664
615.00 0.6321194
615.10 0.6318726
615.20 0.6316259
615.30 0.6313794
615.40 0.6311329
615.50 0.6308866
615.60 0.6306404
615.70 0.6303944
615.80 0.6301484
615.90 0.6299026
616.00 0.6296569
616.10 0.6294114
616.20 0.629166
616.30 0.6289207
616.40 0.6286755
616.50 0.6284304
616.60 0.6281855
616.70 0.6279407
616.80 0.627696
616.90 0.6274462
617.00 0.6271966
617.10 0.6269471
617.20 0.6266977
617.30 0.6264484
617.40 0.6261992
617.50 0.6259502
617.60 0.6257013
617.70 0.6254526
617.80 0.6252039
617.90 0.6249554
618.00 0.6247071
618.10 0.6244588
618.20 0.6242107
618.30 0.6239627
618.40 0.6237149
618.50 0.6234671
618.60 0.6232195
618.70 0.622972
618.80 0.6227247
618.90 0.6224775
619.00 0.6222304
619.10 0.6219834
619.20 0.6217365
619.30 0.6214898
619.40 0.6212432
619.50 0.6209968
619.60 0.6207504
619.70 0.6205042
619.80 0.6202581
619.90 0.6200122
620.00 0.6197664
620.10 0.6195207
620.20 0.6192751
620.30 0.6190296
620.40 0.6187843
620.50 0.6185391
620.60 0.618294
620.70 0.6180491
620.80 0.6178043
620.90 0.6175594
621.00 0.6173143
621.10 0.6170693
621.20 0.6168245
621.30 0.6165797
621.40 0.6163351
621.50 0.6160907
621.60 0.6158463
621.70 0.6156021
621.80 0.615358
621.90 0.615114
622.00 0.6148702
622.10 0.6146265
622.20 0.6143829
622.30 0.6141394
622.40 0.6138961
622.50 0.6136529
622.60 0.6134098
622.70 0.6131668
622.80 0.6129239
622.90 0.6126812
623.00 0.6124386
623.10 0.6121961
623.20 0.6119538
623.30 0.6117116
623.40 0.6114695
623.50 0.6112275
623.60 0.6109856
623.70 0.6107439
623.80 0.6105023
623.90 0.6102608
624.00 0.6100195
624.10 0.6097782
624.20 0.6095371
624.30 0.6092961
624.40 0.6090553
624.50 0.6088145
624.60 0.6085739
624.70 0.6083334
624.80 0.608093
624.90 0.6078528
625.00 0.6076126
625.10 0.6073726
625.20 0.6071327
625.30 0.606893
625.40 0.6066533
625.50 0.6064138
625.60 0.6061744
625.70 0.6059351
625.80 0.605696
625.90 0.605457
626.00 0.6052181
626.10 0.6049793
626.20 0.6047406
626.30 0.6045021
626.40 0.6042636
626.50 0.6040253
626.60 0.6037872
626.70 0.6035491
626.80 0.6033112
626.90 0.6030734
627.00 0.6028357
627.10 0.6025975
627.20 0.6023578
627.30 0.6021183
627.40 0.6018789
627.50 0.6016396
627.60 0.6014005
627.70 0.6011614
627.80 0.6009225
627.90 0.6006837
628.00 0.600445
628.10 0.6002065
628.20 0.599968
628.30 0.5997297
628.40 0.5994915
628.50 0.5992535
628.60 0.5990155
628.70 0.5987777
628.80 0.59854
628.90 0.5983024
629.00 0.5980649
629.10 0.5978276
629.20 0.5975904
629.30 0.5973533
629.40 0.5971163
629.50 0.5968794
629.60 0.5966427
629.70 0.5964061
629.80 0.5961696
629.90 0.5959332
630.00 0.5956969
630.10 0.5954608
630.20 0.5952248
630.30 0.5949889
630.40 0.5947531
630.50 0.5945175
630.60 0.5942819
630.70 0.5940465
630.80 0.5938112
630.90 0.5935761
631.00 0.593341
631.10 0.5931061
631.20 0.5928713
631.30 0.5926366
631.40 0.592402
631.50 0.5921675
631.60 0.5919332
631.70 0.591699
631.80 0.5914649
631.90 0.5912309
632.00 0.5909971
632.10 0.5907633
632.20 0.5905297
632.30 0.5902962
632.40 0.5900628
632.50 0.5898295
632.60 0.5895964
632.70 0.5893633
632.80 0.5891304
632.90 0.5888976
633.00 0.5886649
633.10 0.5884324
633.20 0.5881999
633.30 0.5879676
633.40 0.5877356
633.50 0.587504
633.60 0.5872724
633.70 0.587041
633.80 0.5868097
633.90 0.5865785
634.00 0.5863475
634.10 0.5861165
634.20 0.5858857
634.30 0.585655
634.40 0.5854244
634.50 0.5851939
634.60 0.5849635
634.70 0.5847333
634.80 0.5845031
634.90 0.5842731
635.00 0.5840432
635.10 0.5838134
635.20 0.5835837
635.30 0.5833542
635.40 0.5831247
635.50 0.5828954
635.60 0.5826662
635.70 0.5824371
635.80 0.5822081
635.90 0.5819792
636.00 0.5817505
636.10 0.5815218
636.20 0.5812933
636.30 0.5810649
636.40 0.5808366
636.50 0.5806084
636.60 0.5803804
636.70 0.5801525
636.80 0.5799246
636.90 0.5796969
637.00 0.5794693
637.10 0.5792419
637.20 0.5790145
637.30 0.5787873
637.40 0.5785601
637.50 0.5783331
637.60 0.5781062
637.70 0.5778794
637.80 0.5776527
637.90 0.5774262
638.00 0.5771997
638.10 0.5769734
638.20 0.5767472
638.30 0.5765211
638.40 0.5762951
638.50 0.5760692
638.60 0.5758434
638.70 0.5756177
638.80 0.5753922
638.90 0.5751668
639.00 0.5749415
639.10 0.5747163
639.20 0.5744912
639.30 0.5742662
639.40 0.5740413
639.50 0.5738166
639.60 0.5735919
639.70 0.5733675
639.80 0.5731435
639.90 0.5729197
640.00 0.5726959
640.10 0.5724723
640.20 0.5722488
640.30 0.5720254
640.40 0.5718021
640.50 0.5715789
640.60 0.5713558
640.70 0.5711329
640.80 0.57091
640.90 0.5706873
641.00 0.5704647
641.10 0.5702422
641.20 0.5700197
641.30 0.5697975
641.40 0.5695753
641.50 0.5693532
641.60 0.5691312
641.70 0.5689094
641.80 0.5686877
641.90 0.568466
642.00 0.5682445
642.10 0.5680231
642.20 0.5678018
642.30 0.5675806
642.40 0.5673595
642.50 0.5671386
642.60 0.5669177
642.70 0.566697
642.80 0.5664763
642.90 0.5662546
643.00 0.5660293
643.10 0.565804
643.20 0.5655789
643.30 0.5653539
643.40 0.565129
643.50 0.5649042
643.60 0.5646795
643.70 0.5644549
643.80 0.5642305
643.90 0.5640061
644.00 0.5637819
644.10 0.5635578
644.20 0.5633338
644.30 0.5631099
644.40 0.5628861
644.50 0.5626624
644.60 0.5624389
644.70 0.5622154
644.80 0.5619921
644.90 0.5617689
645.00 0.5615458
645.10 0.5613228
645.20 0.5610999
645.30 0.5608771
645.40 0.5606544
645.50 0.5604319
645.60 0.5602094
645.70 0.5599871
645.80 0.5597649
645.90 0.5595428
646.00 0.5593208
646.10 0.5591002
646.20 0.5588838
646.30 0.5586674
646.40 0.5584512
646.50 0.558235
646.60 0.558019
646.70 0.557803
646.80 0.5575872
646.90 0.5573715
647.00 0.5571559
647.10 0.5569403
647.20 0.5567249
647.30 0.5565097
647.40 0.5562945
647.50 0.5560794
647.60 0.5558644
647.70 0.5556495
647.80 0.5554348
647.90 0.5552201
648.00 0.5550056
648.10 0.5547911
648.20 0.5545768
648.30 0.5543625
648.40 0.5541484
648.50 0.5539344
648.60 0.5537205
648.70 0.5535066
648.80 0.5532929
648.90 0.5530793
649.00 0.5528658
649.10 0.5526525
649.20 0.5524392
649.30 0.552226
649.40 0.5520083
649.50 0.5517906
649.60 0.551573
649.70 0.5513555
649.80 0.5511381
649.90 0.5509208
650.00 0.5507036
650.10 0.5504865
650.20 0.5502695
650.30 0.5500526
650.40 0.5498359
650.50 0.5496192
650.60 0.5494027
650.70 0.5491862
650.80 0.5489699
650.90 0.5487537
651.00 0.5485375
651.10 0.5483215
651.20 0.5481056
651.30 0.5478898
651.40 0.5476741
651.50 0.5474585
651.60 0.5472431
651.70 0.5470277
651.80 0.5468124
651.90 0.5465973
652.00 0.5463822
652.10 0.5461673
652.20 0.5459524
652.30 0.5457377
652.40 0.545523
652.50 0.5453085
652.60 0.5450935
652.70 0.5448782
652.80 0.544663
652.90 0.5444479
653.00 0.5442329
653.10 0.544018
653.20 0.5438033
653.30 0.5435886
653.40 0.543374
653.50 0.5431596
653.60 0.5429452
653.70 0.542731
653.80 0.5425169
653.90 0.5423028
654.00 0.5420889
654.10 0.5418751
654.20 0.5416614
654.30 0.5414478
654.40 0.5412343
654.50 0.5410209
654.60 0.5408076
654.70 0.5405944
654.80 0.5403813
654.90 0.5401684
655.00 0.5399555
655.10 0.5397427
655.20 0.5395301
655.30 0.5393175
655.40 0.5391051
655.50 0.5388927
655.60 0.5386805
655.70 0.5384683
655.80 0.5382587
655.90 0.5380492
656.00 0.5378398
656.10 0.5376305
656.20 0.5374213
656.30 0.5372122
656.40 0.5370032
656.50 0.5367943
656.60 0.5365855
656.70 0.5363768
656.80 0.5361682
656.90 0.5359597
657.00 0.5357513
657.10 0.535543
657.20 0.5353348
657.30 0.5351267
657.40 0.5349188
657.50 0.5347109
657.60 0.5345031
657.70 0.5342954
657.80 0.534133
657.90 0.5339295
658.00 0.533719
658.10 0.5335085
658.20 0.5332981
658.30 0.5330878
658.40 0.5328776
658.50 0.5326676
658.60 0.5324576
658.70 0.5322477
658.80 0.532038
658.90 0.5318283
659.00 0.5316188
659.10 0.5314286
659.20 0.5312673
659.30 0.5310525
659.40 0.5308377
659.50 0.530623
659.60 0.5304085
659.70 0.530194
659.80 0.5299796
659.90 0.5297654
660.00 0.5295513
660.10 0.5293372
660.20 0.5291233
660.30 0.5289095
660.40 0.5287151
660.50 0.5285243
660.60 0.5283335
660.70 0.5281428
660.80 0.5279522
660.90 0.5277478
661.00 0.5275434
661.10 0.5273391
661.20 0.527135
661.30 0.5269309
661.40 0.5267269
661.50 0.526523
661.60 0.5263193
661.70 0.5261156
661.80 0.525912
661.90 0.5256954
662.00 0.5254789
662.10 0.5252625
662.20 0.5250462
662.30 0.52483
662.40 0.5246629
662.50 0.5244675
662.60 0.5242721
662.70 0.5240768
662.80 0.5238817
662.90 0.5236495
663.00 0.5234175
663.10 0.5232597
663.20 0.5230279
663.30 0.5227962
663.40 0.5226386
663.50 0.5224071
663.60 0.5221758
663.70 0.5219497
663.80 0.5217237
663.90 0.5215563
664.00 0.5213992
664.10 0.521193
664.20 0.5209868
664.30 0.5207808
664.40 0.5205749
664.50 0.5203691
664.60 0.5201634
664.70 0.5199526
664.80 0.519742
664.90 0.5195315
665.00 0.519321
665.10 0.5191107
665.20 0.5189005
665.30 0.5186904
665.40 0.5184803
665.50 0.5183164
665.60 0.5181607
665.70 0.5179768
665.80 0.5177635
665.90 0.5175504
666.00 0.5173373
666.10 0.5171244
666.20 0.5169115
666.30 0.5166988
666.40 0.5164862
666.50 0.5163018
666.60 0.5161225
666.70 0.5159433
666.80 0.5157641
666.90 0.5155851
667.00 0.5154061
667.10 0.5151807
667.20 0.5149472
667.30 0.5147249
667.40 0.5145027
667.50 0.5143384
667.60 0.5141843
667.70 0.5138842
667.80 0.5137303
667.90 0.5135765
668.00 0.5133316
668.10 0.5131232
668.20 0.5129697
668.30 0.5127852
668.40 0.5125953
668.50 0.5124056
668.60 0.5122159
668.70 0.5119116
668.80 0.5117303
668.90 0.5115491
669.00 0.5113679
669.10 0.5111868
669.20 0.5110058
669.30 0.5107995
669.40 0.5105888
669.50 0.5103782
669.60 0.5101676
669.70 0.5099572
669.80 0.5097469
669.90 0.5095367
670.00 0.5093266
670.10 0.5091166
670.20 0.5089067
670.30 0.5087208
670.40 0.5085392
670.50 0.5083576
670.60 0.5081762
670.70 0.5079948
670.80 0.5077915
670.90 0.5075882
671.00 0.5073851
671.10 0.507182
671.20 0.506979
671.30 0.5067762
671.40 0.5065734
671.50 0.5063708
671.60 0.5061682
671.70 0.5059657
671.80 0.5057634
671.90 0.5055801
672.00 0.5054004
672.10 0.5052207
672.20 0.5050411
672.30 0.5048616
672.40 0.5046644
672.50 0.504466
672.60 0.5042676
672.70 0.5040694
672.80 0.5038712
672.90 0.5036732
673.00 0.5034752
673.10 0.5032774
673.20 0.5030796
673.30 0.5029302
673.40 0.5027381
673.50 0.5025386
673.60 0.5023392
673.70 0.5021399
673.80 0.5019406
673.90 0.5017415
674.00 0.5015425
674.10 0.5013435
674.20 0.5011447
674.30 0.5009459
674.40 0.5007473
674.50 0.5005487
674.60 0.5003503
674.70 0.5001519
674.80 0.4999536
674.90 0.4997555
675.00 0.4995574
675.10 0.4993594
675.20 0.4991615
675.30 0.4989637
675.40 0.4987697
675.50 0.4985764
675.60 0.4983831
675.70 0.49819
675.80 0.497997
675.90 0.497804
676.00 0.4976112
676.10 0.4974184
676.20 0.4972257
676.30 0.4970331
676.40 0.4968406
676.50 0.4966482
676.60 0.4964559
676.70 0.4962637
676.80 0.4960716
676.90 0.4958796
677.00 0.4956876
677.10 0.4954958
677.20 0.495304
677.30 0.4951124
677.40 0.4949208
677.50 0.4947293
677.60 0.4945379
677.70 0.4943466
677.80 0.4941554
677.90 0.4939731
678.00 0.4937925
678.10 0.4936119
678.20 0.4934314
678.30 0.4932509
678.40 0.4930706
678.50 0.4928904
678.60 0.4927102
678.70 0.4925301
678.80 0.4923501
678.90 0.4921702
679.00 0.4919904
679.10 0.491803
679.20 0.4916125
679.30 0.491422
679.40 0.4912317
679.50 0.4910414
679.60 0.4908513
679.70 0.4906612
679.80 0.4904712
679.90 0.4902813
680.00 0.4900915
680.10 0.4899018
680.20 0.4897121
680.30 0.4895226
680.40 0.4893332
680.50 0.4891438
680.60 0.4889545
680.70 0.4887654
680.80 0.4885763
680.90 0.4883873
681.00 0.4881984
681.10 0.4880095
681.20 0.4878208
681.30 0.4876322
681.40 0.4874436
681.50 0.4872552
681.60 0.4870668
681.70 0.4868785
681.80 0.4866903
681.90 0.4865022
682.00 0.4863142
682.10 0.4861263
682.20 0.4859385
682.30 0.4857507
682.40 0.4855631
682.50 0.4853755
682.60 0.485188
682.70 0.4850007
682.80 0.4848134
682.90 0.4846262
683.00 0.484439
683.10 0.484252
683.20 0.4840651
683.30 0.4838782
683.40 0.4836914
683.50 0.4835048
683.60 0.4833182
683.70 0.4831317
683.80 0.4829453
683.90 0.4827589
684.00 0.4825727
684.10 0.4823866
684.20 0.4822005
684.30 0.4820145
684.40 0.4818287
684.50 0.4816429
684.60 0.4814572
684.70 0.4812715
684.80 0.481086
684.90 0.4809006
685.00 0.4807152
685.10 0.4805299
685.20 0.4803448
685.30 0.4801597
685.40 0.4799747
685.50 0.4797898
685.60 0.4796049
685.70 0.4794202
685.80 0.4792355
685.90 0.4790497
686.00 0.4788637
686.10 0.4786777
686.20 0.4784918
686.30 0.4783061
686.40 0.4781204
686.50 0.4779348
686.60 0.4777493
686.70 0.4775638
686.80 0.4773785
686.90 0.4771932
687.00 0.4770081
687.10 0.476823
687.20 0.476638
687.30 0.4764531
687.40 0.4762683
687.50 0.4760835
687.60 0.4758989
687.70 0.4757143
687.80 0.4755299
687.90 0.4753455
688.00 0.4751612
688.10 0.474977
688.20 0.4747929
688.30 0.4746089
688.40 0.4744249
688.50 0.474241
688.60 0.4740573
688.70 0.4738736
688.80 0.47369
688.90 0.4735065
689.00 0.4733231
689.10 0.4731397
689.20 0.4729565
689.30 0.4727733
689.40 0.4725902
689.50 0.4724072
689.60 0.4722243
689.70 0.4720415
689.80 0.4718588
689.90 0.4716761
690.00 0.4714936
690.10 0.4713111
690.20 0.4711287
690.30 0.4709464
690.40 0.4707642
690.50 0.470582
690.60 0.4704
690.70 0.470218
690.80 0.4700362
690.90 0.4698544
691.00 0.4696727
691.10 0.469491
691.20 0.4693095
691.30 0.4691281
691.40 0.4689467
691.50 0.4687654
691.60 0.4685842
691.70 0.4684031
691.80 0.4682221
691.90 0.4680412
692.00 0.4678603
692.10 0.4676795
692.20 0.4674989
692.30 0.4673183
692.40 0.4671378
692.50 0.4669573
692.60 0.466777
692.70 0.4665974
692.80 0.4664203
692.90 0.4662433
693.00 0.4660664
693.10 0.4658896
693.20 0.4657128
693.30 0.4655362
693.40 0.4653596
693.50 0.4651831
693.60 0.4650067
693.70 0.4648303
693.80 0.4646541
693.90 0.4644779
694.00 0.4643018
694.10 0.4641258
694.20 0.4639499
694.30 0.4637741
694.40 0.4635983
694.50 0.4634226
694.60 0.463247
694.70 0.4630715
694.80 0.4628961
694.90 0.4627207
695.00 0.4625455
695.10 0.4623703
695.20 0.4621952
695.30 0.4620201
695.40 0.4618452
695.50 0.4616703
695.60 0.4614956
695.70 0.4613209
695.80 0.4611463
695.90 0.4609717
696.00 0.4607973
696.10 0.4606229
696.20 0.4604486
696.30 0.4602744
696.40 0.4601003
696.50 0.4599262
696.60 0.4597514
696.70 0.4595766
696.80 0.4594017
696.90 0.459227
697.00 0.4590524
697.10 0.4588778
697.20 0.4587033
697.30 0.4585289
697.40 0.4583546
697.50 0.4581804
697.60 0.4580062
697.70 0.4578321
697.80 0.4576581
697.90 0.4574842
698.00 0.4573104
698.10 0.4571366
698.20 0.4569629
698.30 0.4567893
698.40 0.4566158
698.50 0.4564424
698.60 0.456269
698.70 0.4560958
698.80 0.4559226
698.90 0.4557495
699.00 0.4555764
699.10 0.4554012
699.20 0.4552255
699.30 0.4550499
699.40 0.4548743
699.50 0.4546989
699.60 0.4545235
699.70 0.4543466
699.80 0.4541698
699.90 0.453993
700.00 0.4538163
700.10 0.4536397
700.20 0.4534632
700.30 0.4532868
700.40 0.4531104
700.50 0.4529341
700.60 0.452758
700.70 0.4525818
700.80 0.4524058
700.90 0.4522299
701.00 0.452054
701.10 0.4518804
701.20 0.4517074
701.30 0.4515344
701.40 0.4513616
701.50 0.4511888
701.60 0.4510161
701.70 0.4508435
701.80 0.450671
701.90 0.4504985
702.00 0.4503261
702.10 0.4501539
702.20 0.4499816
702.30 0.4498095
702.40 0.4496374
702.50 0.4494655
702.60 0.4492958
702.70 0.4491267
702.80 0.4489577
702.90 0.4487888
703.00 0.44862
703.10 0.4484512
703.20 0.4482826
703.30 0.4481139
703.40 0.4479454
703.50 0.447777
703.60 0.4476086
703.70 0.4474403
703.80 0.4472721
703.90 0.447104
704.00 0.4469359
704.10 0.4467679
704.20 0.4466013
704.30 0.4464352
704.40 0.4462691
704.50 0.446103
704.60 0.4459371
704.70 0.4457712
704.80 0.4456054
704.90 0.4454396
705.00 0.445274
705.10 0.4451084
705.20 0.4449394
705.30 0.4447696
705.40 0.4445999
705.50 0.4444303
705.60 0.4442607
705.70 0.4440912
705.80 0.4439042
705.90 0.4437131
706.00 0.4435221
706.10 0.4433312
706.20 0.4431932
706.30 0.4430678
706.40 0.4428119
706.50 0.4426865
706.60 0.4425612
706.70 0.4423056
706.80 0.4421805
706.90 0.4420554
707.00 0.4418776
707.10 0.4416875
707.20 0.4414975
707.30 0.4413076
707.40 0.4411354
707.50 0.4409673
707.60 0.4407994
707.70 0.4406315
707.80 0.4404636
707.90 0.4402959
708.00 0.4401317
708.10 0.4399685
708.20 0.4398053
708.30 0.4396422
708.40 0.4394792
708.50 0.4393162
708.60 0.4391533
708.70 0.4389905
708.80 0.4388278
708.90 0.4386651
709.00 0.4385012
709.10 0.4383371
709.20 0.438173
709.30 0.438009
709.40 0.4378451
709.50 0.4376813
709.60 0.4375176
709.70 0.4373539
709.80 0.4371903
709.90 0.4370267
710.00 0.4368633
710.10 0.4366999
710.20 0.4365366
710.30 0.4363734
710.40 0.4362102
710.50 0.4360471
710.60 0.4358819
710.70 0.4357163
710.80 0.4355508
710.90 0.4353853
711.00 0.4352199
711.10 0.4350546
711.20 0.4348894
711.30 0.4347242
711.40 0.4345591
711.50 0.4343941
711.60 0.4342292
711.70 0.4340643
711.80 0.4338995
711.90 0.4337348
712.00 0.4335702
712.10 0.4334024
712.20 0.433234
712.30 0.4330656
712.40 0.4328973
712.50 0.4327291
712.60 0.432561
712.70 0.432393
712.80 0.432225
712.90 0.4320571
713.00 0.4318893
713.10 0.4317216
713.20 0.4315539
713.30 0.4313863
713.40 0.4312188
713.50 0.4310514
713.60 0.4308841
713.70 0.4307202
713.80 0.4305632
713.90 0.4304063
714.00 0.4302495
714.10 0.430089
714.20 0.4299277
714.30 0.4297665
714.40 0.4296054
714.50 0.4294443
714.60 0.4292833
714.70 0.4291224
714.80 0.4289616
714.90 0.4288008
715.00 0.4286402
715.10 0.4284795
715.20 0.428319
715.30 0.4281585
715.40 0.4279981
715.50 0.4278378
715.60 0.4276776
715.70 0.4275174
715.80 0.4273573
715.90 0.4271972
716.00 0.4270373
716.10 0.4268774
716.20 0.4267176
716.30 0.4265579
716.40 0.4263982
716.50 0.4262386
716.60 0.4260738
716.70 0.4259078
716.80 0.425742
716.90 0.4255762
717.00 0.4254105
717.10 0.4252448
717.20 0.4250792
717.30 0.4249137
717.40 0.4247483
717.50 0.424583
717.60 0.4244177
717.70 0.4242525
717.80 0.4240874
717.90 0.4239224
718.00 0.4237574
718.10 0.4235925
718.20 0.4234319
718.30 0.4232736
718.40 0.4231154
718.50 0.4229573
718.60 0.4227993
718.70 0.4226413
718.80 0.4224834
718.90 0.4223255
719.00 0.4221678
719.10 0.4220101
719.20 0.4218524
719.30 0.4216949
719.40 0.4215374
719.50 0.42138
719.60 0.4212227
719.70 0.4210654
719.80 0.4209082
719.90 0.4207511
720.00 0.420594
720.10 0.420437
720.20 0.4202801
720.30 0.4201233
720.40 0.4199665
720.50 0.4198098
720.60 0.4196532
720.70 0.4195227
720.80 0.4194063
720.90 0.419244
721.00 0.4190798
721.10 0.4189157
721.20 0.4187517
721.30 0.4185877
721.40 0.4184239
721.50 0.4182601
721.60 0.4180964
721.70 0.4179327
721.80 0.4177692
721.90 0.4176057
722.00 0.4174422
722.10 0.4172789
722.20 0.4171156
722.30 0.4169524
722.40 0.4167893
722.50 0.4166263
722.60 0.4164633
722.70 0.4163044
722.80 0.4161476
722.90 0.415991
723.00 0.4158344
723.10 0.4156779
723.20 0.4155215
723.30 0.4153651
723.40 0.4152088
723.50 0.4150526
723.60 0.4148964
723.70 0.4147403
723.80 0.4145843
723.90 0.4144284
724.00 0.4142725
724.10 0.4141167
724.20 0.4139626
724.30 0.4138095
724.40 0.4136565
724.50 0.4135036
724.60 0.4133507
724.70 0.4131979
724.80 0.4130452
724.90 0.4128925
725.00 0.4127399
725.10 0.4125874
725.20 0.4124349
725.30 0.4122825
725.40 0.4121302
725.50 0.4119779
725.60 0.4118257
725.70 0.4116736
725.80 0.4115226
725.90 0.4113721
726.00 0.4112218
726.10 0.4110714
726.20 0.4109212
726.30 0.410771
726.40 0.4106209
726.50 0.4104709
726.60 0.4103209
726.70 0.410171
726.80 0.4100185
726.90 0.4098646
727.00 0.4097108
727.10 0.4095571
727.20 0.4094034
727.30 0.4092498
727.40 0.409083
727.50 0.408909
727.60 0.4087351
727.70 0.4085613
727.80 0.4084275
727.90 0.4083153
728.00 0.4080803
728.10 0.4079682
728.20 0.4078562
728.30 0.4076215
728.40 0.4075095
728.50 0.4073977
728.60 0.407246
728.70 0.4070729
728.80 0.4068999
728.90 0.406727
729.00 0.4065675
729.10 0.4064151
729.20 0.4062629
729.30 0.4061106
729.40 0.4059585
729.50 0.4058064
729.60 0.4056571
729.70 0.4055092
729.80 0.4053614
729.90 0.4052137
730.00 0.4050661
730.10 0.4049185
730.20 0.4047709
730.30 0.4046235
730.40 0.4044761
730.50 0.4043287
730.60 0.4041755
730.70 0.4040192
730.80 0.4038629
730.90 0.4037067
731.00 0.4035506
731.10 0.4033945
731.20 0.4032385
731.30 0.4030826
731.40 0.4029267
731.50 0.4027709
731.60 0.4026152
731.70 0.4024596
731.80 0.402304
731.90 0.4021485
732.00 0.4019931
732.10 0.4018377
732.20 0.4016857
732.30 0.4015356
732.40 0.4013855
732.50 0.4012354
732.60 0.4010855
732.70 0.4009356
732.80 0.4007857
732.90 0.400636
733.00 0.4004863
733.10 0.4003366
733.20 0.4001871
733.30 0.4000376
733.40 0.3998881
733.50 0.3997388
733.60 0.3995895
733.70 0.3994427
733.80 0.3992974
733.90 0.3991521
734.00 0.3990069
734.10 0.3988617
734.20 0.3987167
734.30 0.3985716
734.40 0.3984267
734.50 0.3982818
734.60 0.3981369
734.70 0.3979922
734.80 0.3978475
734.90 0.3977028
735.00 0.3975583
735.10 0.3974137
735.20 0.3972693
735.30 0.397125
735.40 0.3969819
735.50 0.3968389
735.60 0.3966959
735.70 0.3965477
735.80 0.3963966
735.90 0.3962456
736.00 0.3960947
736.10 0.3959438
736.20 0.395793
736.30 0.3956423
736.40 0.3954916
736.50 0.395341
736.60 0.3951905
736.70 0.39504
736.80 0.3948896
736.90 0.3947393
737.00 0.394589
737.10 0.3944388
737.20 0.3942887
737.30 0.3941386
737.40 0.3939886
737.50 0.3938387
737.60 0.3936888
737.70 0.393539
737.80 0.3933893
737.90 0.3932397
738.00 0.3930901
738.10 0.3929405
738.20 0.3927932
738.30 0.3926471
738.40 0.392501
738.50 0.392355
738.60 0.3922091
738.70 0.3920632
738.80 0.3919174
738.90 0.3917717
739.00 0.391626
739.10 0.3914804
739.20 0.3913349
739.30 0.3911894
739.40 0.391044
739.50 0.3908986
739.60 0.3907534
739.70 0.3906081
739.80 0.390463
739.90 0.3903179
740.00 0.3901729
740.10 0.3900279
740.20 0.389883
740.30 0.3897382
740.40 0.3895934
740.50 0.3894487
740.60 0.3893041
740.70 0.3891595
740.80 0.389015
740.90 0.3888705
741.00 0.3887261
741.10 0.3885818
741.20 0.3884376
741.30 0.3882934
741.40 0.3881492
741.50 0.3880052
741.60 0.3878612
741.70 0.3877172
741.80 0.3875733
741.90 0.3874295
742.00 0.3872858
742.10 0.3871421
742.20 0.3869985
742.30 0.3868549
742.40 0.3867114
742.50 0.386568
742.60 0.3864246
742.70 0.3862841
742.80 0.3861459
742.90 0.3860077
743.00 0.3858696
743.10 0.3857316
743.20 0.3855937
743.30 0.3854558
743.40 0.3853179
743.50 0.3851801
743.60 0.3850424
743.70 0.3849035
743.80 0.3847595
743.90 0.3846156
744.00 0.3844717
744.10 0.3843279
744.20 0.3841841
744.30 0.3840405
744.40 0.3838969
744.50 0.3837533
744.60 0.3836098
744.70 0.3834664
744.80 0.383323
744.90 0.3831798
745.00 0.3830365
745.10 0.3828934
745.20 0.3827502
745.30 0.3826072
745.40 0.3824642
745.50 0.3823213
745.60 0.3821785
745.70 0.3820357
745.80 0.3818929
745.90 0.3817503
746.00 0.3816077
746.10 0.3814651
746.20 0.3813226
746.30 0.3811802
746.40 0.3810379
746.50 0.3808956
746.60 0.3807534
746.70 0.3806112
746.80 0.3804691
746.90 0.3803271
747.00 0.3801851
747.10 0.3800432
747.20 0.3799013
747.30 0.3797595
747.40 0.3796178
747.50 0.3794761
747.60 0.3793345
747.70 0.379193
747.80 0.3790515
747.90 0.3789101
748.00 0.3787687
748.10 0.3786274
748.20 0.3784862
748.30 0.378345
748.40 0.3782039
748.50 0.3780629
748.60 0.3779219
748.70 0.377781
748.80 0.3776401
748.90 0.3774993
749.00 0.3773586
749.10 0.3772179
749.20 0.3770773
749.30 0.3769367
749.40 0.3767963
749.50 0.3766558
749.60 0.3765155
749.70 0.3763752
749.80 0.3762349
749.90 0.3760947
750.00 0.3759546
750.10 0.3758145
750.20 0.3756742
750.30 0.375534
750.40 0.3753938
750.50 0.3752537
750.60 0.3751137
750.70 0.3749737
750.80 0.3748338
750.90 0.3746939
751.00 0.3745541
751.10 0.3744144
751.20 0.3742747
751.30 0.3741351
751.40 0.3739955
751.50 0.373856
751.60 0.3737166
751.70 0.3735772
751.80 0.3734379
751.90 0.3732987
752.00 0.3731595
752.10 0.3730204
752.20 0.3728813
752.30 0.3727423
752.40 0.3726034
752.50 0.3724645
752.60 0.3723257
752.70 0.3721869
752.80 0.3720482
752.90 0.3719096
753.00 0.371771
753.10 0.3716325
753.20 0.371494
753.30 0.3713556
753.40 0.3712173
753.50 0.371079
753.60 0.3709408
753.70 0.3708026
753.80 0.3706645
753.90 0.3705265
754.00 0.3703885
754.10 0.3702506
754.20 0.3701128
754.30 0.369975
754.40 0.3698372
754.50 0.3696996
754.60 0.3695619
754.70 0.3694244
754.80 0.3692869
754.90 0.3691495
755.00 0.3690121
755.10 0.3688748
755.20 0.3687375
755.30 0.3686003
755.40 0.3684632
755.50 0.3683261
755.60 0.3681891
755.70 0.3680521
755.80 0.3679152
755.90 0.3677784
756.00 0.3676416
756.10 0.3675049
756.20 0.3673682
756.30 0.3672316
756.40 0.3670951
756.50 0.3669586
756.60 0.3668222
756.70 0.3666858
756.80 0.3665495
756.90 0.3664133
757.00 0.3662771
757.10 0.366141
757.20 0.3660049
757.30 0.3658689
757.40 0.3657329
757.50 0.3655971
757.60 0.3654622
757.70 0.3653298
757.80 0.3651975
757.90 0.3650652
758.00 0.364933
758.10 0.3648008
758.20 0.3646687
758.30 0.3645367
758.40 0.3644047
758.50 0.3642728
758.60 0.3641409
758.70 0.3640091
758.80 0.3638773
758.90 0.3637456
759.00 0.363614
759.10 0.3634824
759.20 0.3633509
759.30 0.3632194
759.40 0.363088
759.50 0.3629566
759.60 0.3628253
759.70 0.3626941
759.80 0.3625629
759.90 0.3624317
760.00 0.3623007
760.10 0.3621696
760.20 0.3620387
760.30 0.3619078
760.40 0.3617769
760.50 0.3616461
760.60 0.3615154
760.70 0.3613847
760.80 0.3612541
760.90 0.3611235
761.00 0.360993
761.10 0.3608625
761.20 0.3607321
761.30 0.3606018
761.40 0.3604703
761.50 0.3603371
761.60 0.360204
761.70 0.3600709
761.80 0.3599379
761.90 0.3598049
762.00 0.359672
762.10 0.3595391
762.20 0.3594063
762.30 0.3592736
762.40 0.3591409
762.50 0.3590083
762.60 0.3588757
762.70 0.3587432
762.80 0.3586108
762.90 0.3584784
763.00 0.358346
763.10 0.3582137
763.20 0.3580815
763.30 0.3579494
763.40 0.3578172
763.50 0.3576852
763.60 0.3575532
763.70 0.3574213
763.80 0.3572894
763.90 0.3571575
764.00 0.3570258
764.10 0.3568941
764.20 0.3567624
764.30 0.3566308
764.40 0.3564993
764.50 0.3563678
764.60 0.3562364
764.70 0.356105
764.80 0.3559737
764.90 0.3558424
765.00 0.3557112
765.10 0.3555801
765.20 0.3554492
765.30 0.3553185
765.40 0.3551879
765.50 0.3550574
765.60 0.3549269
765.70 0.3547964
765.80 0.3546661
765.90 0.3545358
766.00 0.3544055
766.10 0.3542753
766.20 0.3541451
766.30 0.354015
766.40 0.353885
766.50 0.353755
766.60 0.3536251
766.70 0.3534952
766.80 0.3533654
766.90 0.3532356
767.00 0.3531059
767.10 0.3529763
767.20 0.3528467
767.30 0.3527172
767.40 0.3525877
767.50 0.3524582
767.60 0.3523289
767.70 0.3521996
767.80 0.3520703
767.90 0.3519411
768.00 0.3518119
768.10 0.3516828
768.20 0.3515538
768.30 0.3514248
768.40 0.3512959
768.50 0.351167
768.60 0.3510382
768.70 0.3509094
768.80 0.3507807
768.90 0.3506521
769.00 0.3505235
769.10 0.3503949
769.20 0.3502664
769.30 0.350138
769.40 0.3500096
769.50 0.3498813
769.60 0.349753
769.70 0.3496248
769.80 0.3494967
769.90 0.3493686
770.00 0.3492405
770.10 0.3491125
770.20 0.3489846
770.30 0.3488567
770.40 0.3487289
770.50 0.3486011
770.60 0.3484734
770.70 0.3483457
770.80 0.3482181
770.90 0.3480905
771.00 0.347963
771.10 0.3478356
771.20 0.3477082
771.30 0.3475808
771.40 0.3474536
771.50 0.3473263
771.60 0.3471992
771.70 0.347072
771.80 0.346945
771.90 0.3468179
772.00 0.346691
772.10 0.3465641
772.20 0.3464372
772.30 0.3463104
772.40 0.3461837
772.50 0.346057
772.60 0.3459304
772.70 0.3458038
772.80 0.3456773
772.90 0.3455497
773.00 0.3454223
773.10 0.3452949
773.20 0.3451675
773.30 0.3450402
773.40 0.3449129
773.50 0.3447858
773.60 0.3446586
773.70 0.3445315
773.80 0.3444045
773.90 0.3442775
774.00 0.3441506
774.10 0.3440237
774.20 0.3438969
774.30 0.3437701
774.40 0.3436434
774.50 0.3435168
774.60 0.3433902
774.70 0.3432636
774.80 0.3431372
774.90 0.3430107
775.00 0.3428843
775.10 0.342758
775.20 0.3426317
775.30 0.3425055
775.40 0.3423793
775.50 0.3422532
775.60 0.3421272
775.70 0.3420011
775.80 0.3418752
775.90 0.3417493
776.00 0.3416234
776.10 0.3414977
776.20 0.3413719
776.30 0.3412462
776.40 0.3411206
776.50 0.340995
776.60 0.3408695
776.70 0.340744
776.80 0.3406186
776.90 0.3404932
777.00 0.3403679
777.10 0.3402427
777.20 0.3401174
777.30 0.3399923
777.40 0.3398672
777.50 0.3397421
777.60 0.3396171
777.70 0.3394922
777.80 0.3393673
777.90 0.3392425
778.00 0.3391177
778.10 0.338993
778.20 0.3388683
778.30 0.3387437
778.40 0.3386191
778.50 0.3384946
778.60 0.3383701
778.70 0.3382457
778.80 0.3381213
778.90 0.337997
779.00 0.3378728
779.10 0.3377486
779.20 0.3376244
779.30 0.3375003
779.40 0.3373763
779.50 0.3372523
779.60 0.3371284
779.70 0.3370045
779.80 0.3368806
779.90 0.3367569
780.00 0.3366331
780.10 0.3365095
780.20 0.3363858
780.30 0.3362623
780.40 0.3361387
780.50 0.3360153
780.60 0.335894
780.70 0.3357736
780.80 0.3356532
780.90 0.335533
781.00 0.3354127
781.10 0.3352925
781.20 0.3351724
781.30 0.3350523
781.40 0.3349322
781.50 0.3348122
781.60 0.3346923
781.70 0.3345724
781.80 0.3344525
781.90 0.3343328
782.00 0.334213
782.10 0.3340933
782.20 0.3339737
782.30 0.3338541
782.40 0.3337345
782.50 0.3336151
782.60 0.3334956
782.70 0.3333762
782.80 0.3332569
782.90 0.3331376
783.00 0.3330184
783.10 0.3328992
783.20 0.33278
783.30 0.3326609
783.40 0.3325419
783.50 0.3324229
783.60 0.332304
783.70 0.3321851
783.80 0.3320662
783.90 0.3319474
784.00 0.3318287
784.10 0.33171
784.20 0.3315914
784.30 0.3314728
784.40 0.3313542
784.50 0.3312357
784.60 0.3311165
784.70 0.3309956
784.80 0.3308748
784.90 0.3307539
785.00 0.3306332
785.10 0.3305125
785.20 0.3303918
785.30 0.3302712
785.40 0.3301506
785.50 0.3300301
785.60 0.3299097
785.70 0.3297893
785.80 0.3296689
785.90 0.3295486
786.00 0.3294284
786.10 0.3293081
786.20 0.329188
786.30 0.3290679
786.40 0.3289478
786.50 0.3288278
786.60 0.3287079
786.70 0.328588
786.80 0.3284681
786.90 0.3283483
787.00 0.3282286
787.10 0.3281089
787.20 0.3279892
787.30 0.3278696
787.40 0.3277501
787.50 0.3276306
787.60 0.3275111
787.70 0.3273917
787.80 0.3272724
787.90 0.3271531
788.00 0.3270338
788.10 0.3269146
788.20 0.3267955
788.30 0.3266764
788.40 0.3265584
788.50 0.3264411
788.60 0.3263238
788.70 0.3262065
788.80 0.3260893
788.90 0.3259721
789.00 0.325855
789.10 0.3257379
789.20 0.3256209
789.30 0.325504
789.40 0.325387
789.50 0.3252702
789.60 0.3251534
789.70 0.3250366
789.80 0.3249199
789.90 0.3248032
790.00 0.3246866
790.10 0.32457
790.20 0.3244535
790.30 0.324337
790.40 0.3242205
790.50 0.3241042
790.60 0.3239878
790.70 0.3238715
790.80 0.3237553
790.90 0.3236391
791.00 0.323523
791.10 0.3234069
791.20 0.3232908
791.30 0.3231749
791.40 0.3230589
791.50 0.322943
791.60 0.3228272
791.70 0.3227114
791.80 0.3225956
791.90 0.3224799
792.00 0.3223642
792.10 0.3222486
792.20 0.3221331
792.30 0.3220169
792.40 0.3218988
792.50 0.3217807
792.60 0.3216627
792.70 0.3215448
792.80 0.3214269
792.90 0.321309
793.00 0.3211912
793.10 0.3210734
793.20 0.3209557
793.30 0.3208381
793.40 0.3207205
793.50 0.3206029
793.60 0.3204854
793.70 0.3203679
793.80 0.3202505
793.90 0.3201331
794.00 0.3200158
794.10 0.3198985
794.20 0.3197813
794.30 0.3196641
794.40 0.319547
794.50 0.31943
794.60 0.3193129
794.70 0.319196
794.80 0.319079
794.90 0.3189621
795.00 0.3188453
795.10 0.3187285
795.20 0.3186118
795.30 0.3184951
795.40 0.3183785
795.50 0.3182619
795.60 0.3181454
795.70 0.3180289
795.80 0.3179124
795.90 0.317796
796.00 0.3176797
796.10 0.3175634
796.20 0.3174471
796.30 0.3173323
796.40 0.3172178
796.50 0.3171034
796.60 0.316989
796.70 0.3168746
796.80 0.3167603
796.90 0.3166461
797.00 0.3165319
797.10 0.3164177
797.20 0.3163036
797.30 0.3161895
797.40 0.3160755
797.50 0.3159615
797.60 0.3158476
797.70 0.3157337
797.80 0.3156199
797.90 0.3155061
798.00 0.3153924
798.10 0.3152787
798.20 0.315165
798.30 0.3150514
798.40 0.3149379
798.50 0.3148244
798.60 0.3147109
798.70 0.3145975
798.80 0.3144841
798.90 0.3143708
799.00 0.3142576
799.10 0.3141443
799.20 0.3140312
799.30 0.313918
799.40 0.313805
799.50 0.3136919
799.60 0.3135789
799.70 0.313466
799.80 0.3133531
799.90 0.3132402
800.00 0.3131274
800.10 0.3130147
800.20 0.312902
800.30 0.3127893
800.40 0.3126767
800.50 0.3125641
800.60 0.3124516
800.70 0.3123391
800.80 0.3122267
800.90 0.3121143
801.00 0.312002
801.10 0.3118897
801.20 0.3117775
801.30 0.3116653
801.40 0.3115531
801.50 0.311441
801.60 0.3113289
801.70 0.3112169
801.80 0.311105
801.90 0.310993
802.00 0.3108812
802.10 0.3107693
802.20 0.3106576
802.30 0.3105458
802.40 0.3104341
802.50 0.3103225
802.60 0.3102109
802.70 0.3100993
802.80 0.3099878
802.90 0.3098764
803.00 0.309765
803.10 0.3096536
803.20 0.3095423
803.30 0.309431
803.40 0.3093198
803.50 0.3092086
803.60 0.3090974
803.70 0.3089864
803.80 0.3088753
803.90 0.3087643
804.00 0.3086534
804.10 0.3085424
804.20 0.3084319
804.30 0.3083227
804.40 0.3082135
804.50 0.3081044
804.60 0.3079953
804.70 0.3078862
804.80 0.3077772
804.90 0.3076683
805.00 0.3075594
805.10 0.3074505
805.20 0.3073417
805.30 0.3072329
805.40 0.3071241
805.50 0.3070154
805.60 0.3069068
805.70 0.3067982
805.80 0.3066896
805.90 0.3065811
806.00 0.3064726
806.10 0.3063642
806.20 0.3062558
806.30 0.3061475
806.40 0.3060392
806.50 0.305931
806.60 0.3058228
806.70 0.3057146
806.80 0.3056065
806.90 0.3054984
807.00 0.3053904
807.10 0.3052824
807.20 0.3051745
807.30 0.3050666
807.40 0.3049587
807.50 0.3048509
807.60 0.3047431
807.70 0.3046354
807.80 0.3045278
807.90 0.3044201
808.00 0.3043125
808.10 0.304205
808.20 0.3040975
808.30 0.3039875
808.40 0.3038776
808.50 0.3037678
808.60 0.303658
808.70 0.3035483
808.80 0.3034385
808.90 0.3033289
809.00 0.3032193
809.10 0.3031097
809.20 0.3030002
809.30 0.3028907
809.40 0.3027812
809.50 0.3026718
809.60 0.3025625
809.70 0.3024532
809.80 0.3023439
809.90 0.3022347
810.00 0.3021255
810.10 0.3020164
810.20 0.3019073
810.30 0.3017983
810.40 0.3016893
810.50 0.3015804
810.60 0.3014715
810.70 0.3013626
810.80 0.3012538
810.90 0.301145
811.00 0.3010363
811.10 0.3009276
811.20 0.300819
811.30 0.3007104
811.40 0.3006018
811.50 0.3004933
811.60 0.3003849
811.70 0.3002765
811.80 0.3001681
811.90 0.3000598
812.00 0.2999515
812.10 0.2998433
812.20 0.2997351
812.30 0.2996285
812.40 0.2995225
812.50 0.2994164
812.60 0.2993104
812.70 0.2992045
812.80 0.2990986
812.90 0.2989927
813.00 0.2988869
813.10 0.2987811
813.20 0.2986754
813.30 0.2985697
813.40 0.2984641
813.50 0.2983584
813.60 0.2982529
813.70 0.2981474
813.80 0.2980419
813.90 0.2979365
814.00 0.2978311
814.10 0.2977257
814.20 0.2976204
814.30 0.2975151
814.40 0.2974099
814.50 0.2973048
814.60 0.2971996
814.70 0.2970945
814.80 0.2969895
814.90 0.2968845
815.00 0.2967795
815.10 0.2966746
815.20 0.2965697
815.30 0.2964649
815.40 0.2963601
815.50 0.2962553
815.60 0.2961506
815.70 0.296046
815.80 0.2959413
815.90 0.2958367
816.00 0.2957322
816.10 0.2956277
816.20 0.2955233
816.30 0.2954188
816.40 0.2953145
816.50 0.2952101
816.60 0.2951059
816.70 0.2950016
816.80 0.2948974
816.90 0.2947933
817.00 0.2946891
817.10 0.2945851
817.20 0.294481
817.30 0.294377
817.40 0.2942731
817.50 0.2941692
817.60 0.2940653
817.70 0.2939615
817.80 0.2938577
817.90 0.293754
818.00 0.2936503
818.10 0.2935466
818.20 0.293443
818.30 0.2933395
818.40 0.2932359
818.50 0.2931324
818.60 0.293029
818.70 0.2929256
818.80 0.2928222
818.90 0.2927189
819.00 0.2926156
819.10 0.2925124
819.20 0.2924092
819.30 0.2923046
819.40 0.2921991
819.50 0.2920936
819.60 0.2919882
819.70 0.2918828
819.80 0.2917774
819.90 0.2916721
820.00 0.2915668
820.10 0.2914647
820.20 0.2913563
820.30 0.2912434
820.40 0.2911367
820.50 0.2910346
820.60 0.2909326
820.70 0.2908305
820.80 0.2907285
820.90 0.2906266
821.00 0.2905247
821.10 0.2904228
821.20 0.290321
821.30 0.2902192
821.40 0.2901174
821.50 0.2900157
821.60 0.2899141
821.70 0.2898125
821.80 0.2897109
821.90 0.2896093
822.00 0.2895078
822.10 0.2894064
822.20 0.289305
822.30 0.2892036
822.40 0.2891022
822.50 0.2890009
822.60 0.2888997
822.70 0.2887985
822.80 0.2886973
822.90 0.2885962
823.00 0.2884951
823.10 0.288394
823.20 0.288293
823.30 0.288192
823.40 0.2880911
823.50 0.2879902
823.60 0.2878894
823.70 0.2877886
823.80 0.2876878
823.90 0.2875871
824.00 0.2874864
824.10 0.2873857
824.20 0.2872851
824.30 0.2871846
824.40 0.287084
824.50 0.2869836
824.60 0.2868831
824.70 0.2867827
824.80 0.2866823
824.90 0.286582
825.00 0.2864817
825.10 0.2863815
825.20 0.2862813
825.30 0.2861811
825.40 0.286081
825.50 0.2859809
825.60 0.2858809
825.70 0.2857809
825.80 0.2856809
825.90 0.285581
826.00 0.2854811
826.10 0.2853812
826.20 0.2852814
826.30 0.2851803
826.40 0.2850782
826.50 0.2849761
826.60 0.2848741
826.70 0.2847722
826.80 0.2846702
826.90 0.2845684
827.00 0.2844665
827.10 0.2843647
827.20 0.284263
827.30 0.2841613
827.40 0.2840596
827.50 0.2839579
827.60 0.2838564
827.70 0.2837548
827.80 0.2836533
827.90 0.2835518
828.00 0.2834504
828.10 0.283349
828.20 0.2832476
828.30 0.2831463
828.40 0.2830451
828.50 0.2829438
828.60 0.2828431
828.70 0.2827428
828.80 0.2826426
828.90 0.2825423
829.00 0.2824422
829.10 0.282342
829.20 0.2822419
829.30 0.2821419
829.40 0.2820419
829.50 0.2819419
829.60 0.281842
829.70 0.2817421
829.80 0.2816422
829.90 0.2815424
830.00 0.2814426
830.10 0.2813429
830.20 0.2812432
830.30 0.2811435
830.40 0.2810439
830.50 0.2809443
830.60 0.2808448
830.70 0.2807453
830.80 0.2806458
830.90 0.2805464
831.00 0.280447
831.10 0.2803477
831.20 0.2802484
831.30 0.2801491
831.40 0.2800499
831.50 0.2799507
831.60 0.2798516
831.70 0.2797525
831.80 0.2796534
831.90 0.2795544
832.00 0.2794554
832.10 0.2793565
832.20 0.2792576
832.30 0.2791587
832.40 0.2790599
832.50 0.2789611
832.60 0.2788624
832.70 0.2787637
832.80 0.278665
832.90 0.2785664
833.00 0.2784678
833.10 0.2783692
833.20 0.2782707
833.30 0.2781723
833.40 0.2780738
833.50 0.2779754
833.60 0.2778771
833.70 0.2777788
833.80 0.2776805
833.90 0.2775823
834.00 0.2774841
834.10 0.2773859
834.20 0.2772878
834.30 0.2771897
834.40 0.2770917
834.50 0.2769937
834.60 0.2768957
834.70 0.2767978
834.80 0.2766999
834.90 0.2766021
835.00 0.2765043
835.10 0.2764065
835.20 0.2763088
835.30 0.2762111
835.40 0.2761134
835.50 0.2760158
835.60 0.2759182
835.70 0.2758207
835.80 0.2757232
835.90 0.2756258
836.00 0.2755283
836.10 0.275431
836.20 0.2753336
836.30 0.2752363
836.40 0.2751391
836.50 0.2750418
836.60 0.2749446
836.70 0.2748475
836.80 0.2747504
836.90 0.2746551
837.00 0.2745606
837.10 0.2744661
837.20 0.2743717
837.30 0.2742773
837.40 0.274183
837.50 0.2740886
837.60 0.2739944
837.70 0.2739001
837.80 0.2738059
837.90 0.2737118
838.00 0.2736176
838.10 0.2735235
838.20 0.2734295
838.30 0.2733355
838.40 0.2732415
838.50 0.2731476
838.60 0.2730537
838.70 0.2729598
838.80 0.272866
838.90 0.2727722
839.00 0.2726784
839.10 0.2725847
839.20 0.272491
839.30 0.2723974
839.40 0.2723038
839.50 0.2722102
839.60 0.2721167
839.70 0.2720232
839.80 0.2719297
839.90 0.2718363
840.00 0.2717429
840.10 0.2716495
840.20 0.2715562
840.30 0.2714629
840.40 0.2713697
840.50 0.2712765
840.60 0.2711833
840.70 0.2710902
840.80 0.2709971
840.90 0.270904
841.00 0.270811
841.10 0.2707162
841.20 0.270621
841.30 0.2705259
841.40 0.2704309
841.50 0.2703358
841.60 0.2702409
841.70 0.2701459
841.80 0.270051
841.90 0.2699561
842.00 0.2698613
842.10 0.2697665
842.20 0.2696717
842.30 0.269577
842.40 0.2694823
842.50 0.2693876
842.60 0.269293
842.70 0.2691985
842.80 0.2691039
842.90 0.2690094
843.00 0.268915
843.10 0.2688205
843.20 0.2687261
843.30 0.2686318
843.40 0.2685375
843.50 0.2684432
843.60 0.2683489
843.70 0.2682547
843.80 0.2681606
843.90 0.2680664
844.00 0.2679723
844.10 0.2678783
844.20 0.2677843
844.30 0.2676903
844.40 0.2675963
844.50 0.2675024
844.60 0.2674086
844.70 0.2673147
844.80 0.2672209
844.90 0.2671272
845.00 0.2670334
845.10 0.2669398
845.20 0.2668461
845.30 0.2667528
845.40 0.2666595
845.50 0.2665663
845.60 0.2664731
845.70 0.2663799
845.80 0.2662868
845.90 0.2661937
846.00 0.2661006
846.10 0.2660076
846.20 0.2659146
846.30 0.2658216
846.40 0.2657287
846.50 0.2656358
846.60 0.265543
846.70 0.2654502
846.80 0.2653574
846.90 0.2652647
847.00 0.265172
847.10 0.2650793
847.20 0.2649867
847.30 0.2648941
847.40 0.2648016
847.50 0.2647091
847.60 0.2646166
847.70 0.2645241
847.80 0.2644317
847.90 0.2643394
848.00 0.264247
848.10 0.2641547
848.20 0.2640625
848.30 0.2639703
848.40 0.2638781
848.50 0.2637859
848.60 0.2636938
848.70 0.2636017
848.80 0.2635097
848.90 0.2634177
849.00 0.2633257
849.10 0.2632338
849.20 0.2631419
849.30 0.26305
849.40 0.2629582
849.50 0.2628664
849.60 0.2627746
849.70 0.2626829
849.80 0.2625912
849.90 0.2624996
850.00 0.2624079
850.10 0.2623164
850.20 0.2622248
850.30 0.2621333
850.40 0.2620419
850.50 0.2619504
850.60 0.261859
850.70 0.2617677
850.80 0.2616763
850.90 0.261585
851.00 0.2614938
851.10 0.2614026
851.20 0.2613114
851.30 0.2612202
851.40 0.2611291
851.50 0.261038
851.60 0.260947
851.70 0.260856
851.80 0.260765
851.90 0.2606741
852.00 0.2605832
852.10 0.2604923
852.20 0.2604015
852.30 0.2603107
852.40 0.26022
852.50 0.2601292
852.60 0.2600385
852.70 0.2599479
852.80 0.2598573
852.90 0.2597667
853.00 0.2596762
853.10 0.2595856
853.20 0.2594952
853.30 0.2594047
853.40 0.2593143
853.50 0.259224
853.60 0.2591336
853.70 0.2590435
853.80 0.2589535
853.90 0.2588636
854.00 0.2587737
854.10 0.2586838
854.20 0.258594
854.30 0.2585042
854.40 0.2584144
854.50 0.2583247
854.60 0.258235
854.70 0.2581453
854.80 0.2580557
854.90 0.2579661
855.00 0.2578766
855.10 0.257787
855.20 0.2576976
855.30 0.2576081
855.40 0.2575187
855.50 0.2574293
855.60 0.25734
855.70 0.2572507
855.80 0.2571614
855.90 0.2570721
856.00 0.2569829
856.10 0.2568938
856.20 0.2568046
856.30 0.2567155
856.40 0.2566265
856.50 0.2565374
856.60 0.2564484
856.70 0.2563595
856.80 0.2562705
856.90 0.2561817
857.00 0.2560928
857.10 0.256004
857.20 0.2559152
857.30 0.2558264
857.40 0.2557377
857.50 0.255649
857.60 0.2555604
857.70 0.2554717
857.80 0.2553832
857.90 0.2552946
858.00 0.2552061
858.10 0.2551176
858.20 0.2550292
858.30 0.2549408
858.40 0.2548524
858.50 0.254764
858.60 0.2546757
858.70 0.2545875
858.80 0.2544992
858.90 0.254411
859.00 0.2543228
859.10 0.2542347
859.20 0.2541466
859.30 0.2540585
859.40 0.2539705
859.50 0.2538825
859.60 0.2537945
859.70 0.2537066
859.80 0.2536187
859.90 0.2535308
860.00 0.253443
860.10 0.2533552
860.20 0.2532674
860.30 0.2531797
860.40 0.253092
860.50 0.2530043
860.60 0.2529167
860.70 0.2528291
860.80 0.2527415
860.90 0.252654
861.00 0.2525665
861.10 0.2524791
861.20 0.2523916
861.30 0.2523043
861.40 0.2522169
861.50 0.2521296
861.60 0.2520423
861.70 0.251955
861.80 0.2518678
861.90 0.2517806
862.00 0.2516935
862.10 0.2516063
862.20 0.2515193
862.30 0.2514325
862.40 0.2513458
862.50 0.2512591
862.60 0.2511724
862.70 0.2510858
862.80 0.2509992
862.90 0.2509126
863.00 0.2508261
863.10 0.2507396
863.20 0.2506531
863.30 0.2505667
863.40 0.2504803
863.50 0.2503939
863.60 0.2503076
863.70 0.2502213
863.80 0.250135
863.90 0.2500488
864.00 0.2499626
864.10 0.2498764
864.20 0.2497903
864.30 0.2497042
864.40 0.2496181
864.50 0.2495321
864.60 0.2494461
864.70 0.2493601
864.80 0.2492742
864.90 0.2491883
865.00 0.2491024
865.10 0.2490166
865.20 0.2489308
865.30 0.248845
865.40 0.2487592
865.50 0.2486735
865.60 0.2485879
865.70 0.2485022
865.80 0.2484166
865.90 0.2483311
866.00 0.2482455
866.10 0.24816
866.20 0.2480745
866.30 0.2479891
866.40 0.2479037
866.50 0.2478183
866.60 0.247733
866.70 0.2476477
866.80 0.2475624
866.90 0.2474771
867.00 0.2473919
867.10 0.2473067
867.20 0.2472216
867.30 0.2471365
867.40 0.2470514
867.50 0.2469664
867.60 0.2468813
867.70 0.2467964
867.80 0.2467114
867.90 0.2466265
868.00 0.2465416
868.10 0.2464567
868.20 0.2463719
868.30 0.2462871
868.40 0.2462024
868.50 0.2461177
868.60 0.246033
868.70 0.2459483
868.80 0.2458637
868.90 0.2457791
869.00 0.2456945
869.10 0.24561
869.20 0.2455255
869.30 0.245441
869.40 0.2453566
869.50 0.2452722
869.60 0.2451879
869.70 0.2451035
869.80 0.2450192
869.90 0.244935
870.00 0.2448507
870.10 0.2447665
870.20 0.2446823
870.30 0.2445982
870.40 0.2445141
870.50 0.24443
870.60 0.244346
870.70 0.244262
870.80 0.244178
870.90 0.2440943
871.00 0.2440106
871.10 0.243927
871.20 0.2438435
871.30 0.2437599
871.40 0.2436764
871.50 0.2435929
871.60 0.2435095
871.70 0.2434261
871.80 0.2433427
871.90 0.2432593
872.00 0.243176
872.10 0.2430927
872.20 0.2430095
872.30 0.2429262
872.40 0.242843
872.50 0.2427599
872.60 0.2426767
872.70 0.2425936
872.80 0.2425106
872.90 0.2424275
873.00 0.2423445
873.10 0.2422616
873.20 0.2421786
873.30 0.2420957
873.40 0.2420128
873.50 0.24193
873.60 0.2418472
873.70 0.2417644
873.80 0.2416816
873.90 0.2415989
874.00 0.2415162
874.10 0.2414336
874.20 0.241351
874.30 0.2412684
874.40 0.2411858
874.50 0.2411033
874.60 0.2410208
874.70 0.2409383
874.80 0.2408559
874.90 0.2407735
875.00 0.2406911
875.10 0.2406088
875.20 0.2405264
875.30 0.2404442
875.40 0.2403619
875.50 0.2402797
875.60 0.2401975
875.70 0.2401154
875.80 0.2400332
875.90 0.2399512
876.00 0.2398691
876.10 0.2397871
876.20 0.2397051
876.30 0.2396231
876.40 0.2395412
876.50 0.2394593
876.60 0.2393774
876.70 0.2392955
876.80 0.2392137
876.90 0.239132
877.00 0.2390502
877.10 0.2389685
877.20 0.2388868
877.30 0.2388051
877.40 0.2387235
877.50 0.2386419
877.60 0.2385604
877.70 0.2384788
877.80 0.2383973
877.90 0.2383159
878.00 0.2382344
878.10 0.238153
878.20 0.2380716
878.30 0.2379903
878.40 0.237909
878.50 0.2378277
878.60 0.2377464
878.70 0.2376652
878.80 0.237584
878.90 0.2375029
879.00 0.2374217
879.10 0.2373406
879.20 0.2372596
879.30 0.2371785
879.40 0.2370975
879.50 0.2370166
879.60 0.2369358
879.70 0.2368552
879.80 0.2367746
879.90 0.236694
880.00 0.2366134
880.10 0.2365329
880.20 0.2364524
880.30 0.236372
880.40 0.2362915
880.50 0.2362111
880.60 0.2361308
880.70 0.2360504
880.80 0.2359701
880.90 0.2358898
881.00 0.2358096
881.10 0.2357294
881.20 0.2356492
881.30 0.235569
881.40 0.2354889
881.50 0.2354088
881.60 0.2353287
881.70 0.2352487
881.80 0.2351687
881.90 0.2350887
882.00 0.2350088
882.10 0.2349288
882.20 0.234849
882.30 0.2347691
882.40 0.2346893
882.50 0.2346095
882.60 0.2345297
882.70 0.23445
882.80 0.2343703
882.90 0.2342906
883.00 0.234211
883.10 0.2341313
883.20 0.2340518
883.30 0.2339722
883.40 0.2338927
883.50 0.2338132
883.60 0.2337337
883.70 0.2336543
883.80 0.2335749
883.90 0.2334955
884.00 0.2334162
884.10 0.2333368
884.20 0.2332576
884.30 0.2331783
884.40 0.2330991
884.50 0.2330199
884.60 0.2329407
884.70 0.2328615
884.80 0.2327824
884.90 0.2327034
885.00 0.2326243
885.10 0.2325453
885.20 0.2324663
885.30 0.2323873
885.40 0.2323084
885.50 0.2322295
885.60 0.2321506
885.70 0.2320718
885.80 0.231993
885.90 0.2319142
886.00 0.2318354
886.10 0.2317567
886.20 0.231678
886.30 0.2315993
886.40 0.2315207
886.50 0.2314421
886.60 0.2313635
886.70 0.231285
886.80 0.2312065
886.90 0.231128
887.00 0.2310495
887.10 0.2309711
887.20 0.2308927
887.30 0.2308143
887.40 0.230736
887.50 0.2306577
887.60 0.2305794
887.70 0.2305011
887.80 0.2304229
887.90 0.2303447
888.00 0.2302665
888.10 0.2301884
888.20 0.2301103
888.30 0.2300322
888.40 0.2299544
888.50 0.2298767
888.60 0.2297989
888.70 0.2297212
888.80 0.2296436
888.90 0.2295659
889.00 0.2294883
889.10 0.2294107
889.20 0.2293332
889.30 0.2292557
889.40 0.2291782
889.50 0.2291007
889.60 0.2290233
889.70 0.2289459
889.80 0.2288685
889.90 0.2287911
890.00 0.2287138
890.10 0.2286365
890.20 0.2285593
890.30 0.228482
890.40 0.2284048
890.50 0.2283277
890.60 0.2282505
890.70 0.2281734
890.80 0.2280963
890.90 0.2280193
891.00 0.2279422
891.10 0.2278652
891.20 0.2277883
891.30 0.2277113
891.40 0.2276344
891.50 0.2275575
891.60 0.2274807
891.70 0.2274038
891.80 0.227327
891.90 0.2272503
892.00 0.2271735
892.10 0.2270968
892.20 0.2270201
892.30 0.2269435
892.40 0.2268668
892.50 0.2267902
892.60 0.2267137
892.70 0.2266371
892.80 0.2265606
892.90 0.2264841
893.00 0.2264077
893.10 0.2263313
893.20 0.2262549
893.30 0.2261785
893.40 0.2261021
893.50 0.2260258
893.60 0.2259495
893.70 0.2258733
893.80 0.2257971
893.90 0.2257209
894.00 0.2256447
894.10 0.2255686
894.20 0.2254924
894.30 0.2254164
894.40 0.2253403
894.50 0.2252643
894.60 0.2251883
894.70 0.2251123
894.80 0.2250364
894.90 0.2249604
895.00 0.2248846
895.10 0.2248087
895.20 0.2247329
895.30 0.2246571
895.40 0.2245813
895.50 0.2245055
895.60 0.2244298
895.70 0.2243541
895.80 0.2242785
895.90 0.2242028
896.00 0.2241272
896.10 0.2240517
896.20 0.2239761
896.30 0.2239006
896.40 0.2238251
896.50 0.2237496
896.60 0.2236742
896.70 0.2235988
896.80 0.2235234
896.90 0.2234481
897.00 0.2233727
897.10 0.2232975
897.20 0.2232222
897.30 0.2231472
897.40 0.2230722
897.50 0.2229973
897.60 0.2229224
897.70 0.2228475
897.80 0.2227727
897.90 0.2226979
898.00 0.2226231
898.10 0.2225483
898.20 0.2224736
898.30 0.2223989
898.40 0.2223242
898.50 0.2222495
898.60 0.2221749
898.70 0.2221003
898.80 0.2220258
898.90 0.2219512
899.00 0.2218767
899.10 0.2218022
899.20 0.2217277
899.30 0.2216533
899.40 0.2215789
899.50 0.2215045
899.60 0.2214302
899.70 0.2213559
899.80 0.2212816
899.90 0.2212073
900.00 0.2211331
900.10 0.2210589
900.20 0.2209847
900.30 0.2209105
900.40 0.2208364
900.50 0.2207623
900.60 0.2206882
900.70 0.2206142
900.80 0.2205402
900.90 0.2204662
901.00 0.2203922
901.10 0.2203183
901.20 0.2202444
901.30 0.2201705
901.40 0.2200966
901.50 0.2200228
901.60 0.219949
901.70 0.2198749
901.80 0.2197994
901.90 0.2197239
902.00 0.2196484
902.10 0.219573
902.20 0.2194975
902.30 0.2194221
902.40 0.2193468
902.50 0.2192715
902.60 0.2191961
902.70 0.2191209
902.80 0.2190456
902.90 0.2189704
903.00 0.2188952
903.10 0.21882
903.20 0.2187449
903.30 0.2186698
903.40 0.2185947
903.50 0.2185197
903.60 0.2184446
903.70 0.2183696
903.80 0.2182947
903.90 0.2182197
904.00 0.2181448
904.10 0.2180699
904.20 0.2179951
904.30 0.2179202
904.40 0.2178454
904.50 0.2177707
904.60 0.2176959
904.70 0.2176212
904.80 0.2175465
904.90 0.2174718
905.00 0.2173972
905.10 0.2173226
905.20 0.217248
905.30 0.2171735
905.40 0.2170989
905.50 0.2170244
905.60 0.21695
905.70 0.2168755
905.80 0.2168011
905.90 0.2167267
906.00 0.2166524
906.10 0.216578
906.20 0.2165044
906.30 0.2164321
906.40 0.2163599
906.50 0.2162876
906.60 0.2162155
906.70 0.2161433
906.80 0.2160712
906.90 0.2159991
907.00 0.215927
907.10 0.2158549
907.20 0.2157829
907.30 0.2157109
907.40 0.2156389
907.50 0.215567
907.60 0.2154951
907.70 0.2154232
907.80 0.2153513
907.90 0.2152795
908.00 0.2152076
908.10 0.2151359
908.20 0.2150641
908.30 0.2149924
908.40 0.2149206
908.50 0.214849
908.60 0.2147773
908.70 0.2147057
908.80 0.2146341
908.90 0.2145625
909.00 0.2144909
909.10 0.2144194
909.20 0.2143479
909.30 0.2142764
909.40 0.214205
909.50 0.2141336
909.60 0.2140622
909.70 0.2139908
909.80 0.2139195
909.90 0.2138482
910.00 0.2137769
910.10 0.2137056
910.20 0.2136344
910.30 0.2135632
910.40 0.213492
910.50 0.2134208
910.60 0.2133497
910.70 0.2132786
910.80 0.2132075
910.90 0.2131365
911.00 0.2130654
911.10 0.2129944
911.20 0.2129234
911.30 0.2128525
911.40 0.2127816
911.50 0.2127107
911.60 0.2126398
911.70 0.212569
911.80 0.2124981
911.90 0.2124273
912.00 0.2123566
912.10 0.2122858
912.20 0.2122151
912.30 0.2121444
912.40 0.2120738
912.50 0.2120031
912.60 0.2119325
912.70 0.2118619
912.80 0.2117914
912.90 0.2117208
913.00 0.2116503
913.10 0.2115798
913.20 0.2115094
913.30 0.211439
913.40 0.2113685
913.50 0.2112982
913.60 0.2112278
913.70 0.2111575
913.80 0.2110872
913.90 0.2110169
914.00 0.2109467
914.10 0.2108764
914.20 0.2108062
914.30 0.2107361
914.40 0.2106659
914.50 0.2105958
914.60 0.2105257
914.70 0.2104556
914.80 0.2103856
914.90 0.2103155
915.00 0.2102455
915.10 0.2101756
915.20 0.2101056
915.30 0.2100359
915.40 0.2099662
915.50 0.2098966
915.60 0.209827
915.70 0.2097574
915.80 0.2096879
915.90 0.2096183
916.00 0.2095488
916.10 0.2094793
916.20 0.2094099
916.30 0.2093405
916.40 0.2092711
916.50 0.2092017
916.60 0.2091323
916.70 0.209063
916.80 0.2089937
916.90 0.2089244
917.00 0.2088552
917.10 0.2087859
917.20 0.2087167
917.30 0.2086476
917.40 0.2085784
917.50 0.2085093
917.60 0.2084402
917.70 0.2083711
917.80 0.2083021
917.90 0.208233
918.00 0.208164
918.10 0.2080951
918.20 0.2080261
918.30 0.2079572
918.40 0.2078883
918.50 0.2078194
918.60 0.2077506
918.70 0.2076817
918.80 0.2076129
918.90 0.2075442
919.00 0.2074754
919.10 0.2074067
919.20 0.207338
919.30 0.2072693
919.40 0.2072007
919.50 0.207132
919.60 0.2070634
919.70 0.2069949
919.80 0.2069263
919.90 0.2068578
920.00 0.2067893
920.10 0.2067208
920.20 0.2066524
920.30 0.2065839
920.40 0.2065155
920.50 0.2064472
920.60 0.2063788
920.70 0.2063105
920.80 0.2062422
920.90 0.2061739
921.00 0.2061057
921.10 0.2060374
921.20 0.2059692
921.30 0.2059011
921.40 0.2058329
921.50 0.2057648
921.60 0.2056967
921.70 0.2056286
921.80 0.2055606
921.90 0.2054925
922.00 0.2054245
922.10 0.2053565
922.20 0.2052886
922.30 0.2052207
922.40 0.2051528
922.50 0.2050849
922.60 0.205017
922.70 0.2049492
922.80 0.2048814
922.90 0.2048136
923.00 0.2047458
923.10 0.2046781
923.20 0.2046104
923.30 0.2045427
923.40 0.2044751
923.50 0.2044074
923.60 0.2043398
923.70 0.2042722
923.80 0.2042047
923.90 0.2041371
924.00 0.2040696
924.10 0.2040021
924.20 0.2039347
924.30 0.2038672
924.40 0.2037998
924.50 0.2037327
924.60 0.2036655
924.70 0.2035984
924.80 0.2035314
924.90 0.2034643
925.00 0.2033973
925.10 0.2033302
925.20 0.2032633
925.30 0.2031963
925.40 0.2031293
925.50 0.2030624
925.60 0.2029955
925.70 0.2029287
925.80 0.2028618
925.90 0.202795
926.00 0.2027282
926.10 0.2026614
926.20 0.2025947
926.30 0.202528
926.40 0.2024613
926.50 0.2023946
926.60 0.2023279
926.70 0.2022613
926.80 0.2021947
926.90 0.2021281
927.00 0.2020616
927.10 0.2019951
927.20 0.2019285
927.30 0.2018621
927.40 0.2017956
927.50 0.2017292
927.60 0.2016628
927.70 0.2015964
927.80 0.20153
927.90 0.2014637
928.00 0.2013974
928.10 0.2013311
928.20 0.2012648
928.30 0.2011985
928.40 0.2011323
928.50 0.2010661
928.60 0.201
928.70 0.2009338
928.80 0.2008677
928.90 0.2008016
929.00 0.2007355
929.10 0.2006679
929.20 0.2006002
929.30 0.2005326
929.40 0.200465
929.50 0.2003974
929.60 0.2003298
929.70 0.2002623
929.80 0.2001948
929.90 0.2001273
930.00 0.2000598
930.10 0.1999924
930.20 0.199925
930.30 0.1998576
930.40 0.1997902
930.50 0.1997229
930.60 0.1996556
930.70 0.1995883
930.80 0.199521
930.90 0.1994537
931.00 0.1993865
931.10 0.1993193
931.20 0.1992522
931.30 0.199185
931.40 0.1991179
931.50 0.1990508
931.60 0.1989837
931.70 0.1989167
931.80 0.1988496
931.90 0.1987826
932.00 0.1987156
932.10 0.1986487
932.20 0.1985818
932.30 0.1985148
932.40 0.198448
932.50 0.1983811
932.60 0.1983143
932.70 0.1982475
932.80 0.1981807
932.90 0.1981139
933.00 0.1980472
933.10 0.1979805
933.20 0.1979138
933.30 0.1978471
933.40 0.1977805
933.50 0.1977138
933.60 0.1976473
933.70 0.197582
933.80 0.1975173
933.90 0.1974527
934.00 0.197388
934.10 0.1973234
934.20 0.1972587
934.30 0.1971941
934.40 0.1971296
934.50 0.197065
934.60 0.1970005
934.70 0.196936
934.80 0.1968715
934.90 0.1968071
935.00 0.1967426
935.10 0.1966782
935.20 0.1966139
935.30 0.1965495
935.40 0.1964852
935.50 0.1964208
935.60 0.1963566
935.70 0.1962923
935.80 0.196228
935.90 0.1961638
936.00 0.1960996
936.10 0.1960354
936.20 0.1959713
936.30 0.1959071
936.40 0.195843
936.50 0.195779
936.60 0.1957149
936.70 0.1956509
936.80 0.1955868
936.90 0.1955228
937.00 0.1954589
937.10 0.1953949
937.20 0.195331
937.30 0.1952671
937.40 0.1952032
937.50 0.1951394
937.60 0.1950755
937.70 0.1950117
937.80 0.1949479
937.90 0.1948842
938.00 0.1948204
938.10 0.1947567
938.20 0.194693
938.30 0.1946293
938.40 0.1945657
938.50 0.194502
938.60 0.1944384
938.70 0.1943748
938.80 0.1943113
938.90 0.1942477
939.00 0.1941842
939.10 0.1941207
939.20 0.1940573
939.30 0.1939938
939.40 0.1939304
939.50 0.193867
939.60 0.1938036
939.70 0.1937403
939.80 0.1936769
939.90 0.1936136
940.00 0.1935503
940.10 0.193487
940.20 0.1934238
940.30 0.1933606
940.40 0.1932974
940.50 0.1932342
940.60 0.193171
940.70 0.1931079
940.80 0.1930448
940.90 0.1929817
941.00 0.1929187
941.10 0.1928556
941.20 0.1927926
941.30 0.1927296
941.40 0.1926666
941.50 0.1926037
941.60 0.1925407
941.70 0.1924778
941.80 0.1924149
941.90 0.1923521
942.00 0.1922892
942.10 0.1922264
942.20 0.1921636
942.30 0.1921008
942.40 0.1920381
942.50 0.1919754
942.60 0.1919127
942.70 0.19185
942.80 0.1917873
942.90 0.1917247
943.00 0.1916621
943.10 0.1915998
943.20 0.1915374
943.30 0.1914751
943.40 0.1914128
943.50 0.1913505
943.60 0.1912882
943.70 0.191226
943.80 0.1911637
943.90 0.1911015
944.00 0.1910394
944.10 0.1909772
944.20 0.1909151
944.30 0.190853
944.40 0.1907909
944.50 0.1907288
944.60 0.1906668
944.70 0.1906047
944.80 0.1905427
944.90 0.1904808
945.00 0.1904188
945.10 0.1903569
945.20 0.1902949
945.30 0.190233
945.40 0.1901712
945.50 0.1901093
945.60 0.1900475
945.70 0.1899857
945.80 0.1899239
945.90 0.1898622
946.00 0.1898004
946.10 0.1897387
946.20 0.189677
946.30 0.1896153
946.40 0.1895537
946.50 0.1894921
946.60 0.1894304
946.70 0.1893689
946.80 0.1893073
946.90 0.1892458
947.00 0.1891842
947.10 0.1891227
947.20 0.1890613
947.30 0.1889998
947.40 0.1889384
947.50 0.188877
947.60 0.1888156
947.70 0.1887542
947.80 0.1886928
947.90 0.1886315
948.00 0.1885702
948.10 0.1885089
948.20 0.1884477
948.30 0.1883864
948.40 0.1883252
948.50 0.188264
948.60 0.1882029
948.70 0.1881417
948.80 0.1880806
948.90 0.1880195
949.00 0.1879584
949.10 0.1878973
949.20 0.1878363
949.30 0.1877752
949.40 0.1877142
949.50 0.1876533
949.60 0.1875923
949.70 0.1875314
949.80 0.1874705
949.90 0.1874096
950.00 0.1873487
950.10 0.1872878
950.20 0.187227
950.30 0.1871662
950.40 0.1871054
950.50 0.1870446
950.60 0.1869839
950.70 0.1869232
950.80 0.1868625
950.90 0.1868018
951.00 0.1867411
951.10 0.1866805
951.20 0.1866199
951.30 0.1865593
951.40 0.1864987
951.50 0.1864382
951.60 0.1863776
951.70 0.1863171
951.80 0.1862567
951.90 0.1861962
952.00 0.1861357
952.10 0.1860753
952.20 0.1860149
952.30 0.1859545
952.40 0.1858942
952.50 0.1858341
952.60 0.185774
952.70 0.1857139
952.80 0.1856538
952.90 0.1855938
953.00 0.1855337
953.10 0.1854737
953.20 0.1854138
953.30 0.1853538
953.40 0.1852939
953.50 0.185234
953.60 0.1851741
953.70 0.1851142
953.80 0.1850543
953.90 0.1849945
954.00 0.1849347
954.10 0.1848749
954.20 0.1848151
954.30 0.1847554
954.40 0.1846957
954.50 0.1846359
954.60 0.1845763
954.70 0.1845166
954.80 0.1844569
954.90 0.1843973
955.00 0.1843377
955.10 0.1842781
955.20 0.1842186
955.30 0.184159
955.40 0.1840995
955.50 0.18404
955.60 0.1839806
955.70 0.1839211
955.80 0.1838617
955.90 0.1838022
956.00 0.1837429
956.10 0.1836835
956.20 0.1836241
956.30 0.1835648
956.40 0.1835055
956.50 0.1834462
956.60 0.1833869
956.70 0.1833277
956.80 0.1832685
956.90 0.1832093
957.00 0.1831501
957.10 0.1830909
957.20 0.1830311
957.30 0.1829705
957.40 0.1829099
957.50 0.1828493
957.60 0.1827887
957.70 0.1827282
957.80 0.1826677
957.90 0.1826072
958.00 0.1825468
958.10 0.1824863
958.20 0.1824259
958.30 0.1823655
958.40 0.1823051
958.50 0.1822447
958.60 0.1821844
958.70 0.1821241
958.80 0.1820638
958.90 0.1820035
959.00 0.1819433
959.10 0.181883
959.20 0.1818228
959.30 0.1817626
959.40 0.1817025
959.50 0.1816423
959.60 0.1815822
959.70 0.1815221
959.80 0.181462
959.90 0.1814019
960.00 0.1813419
960.10 0.1812819
960.20 0.1812219
960.30 0.1811619
960.40 0.1811019
960.50 0.181042
960.60 0.1809821
960.70 0.1809222
960.80 0.1808623
960.90 0.1808025
961.00 0.1807426
961.10 0.1806828
961.20 0.180623
961.30 0.1805633
961.40 0.1805035
961.50 0.1804438
961.60 0.1803841
961.70 0.1803244
961.80 0.1802647
961.90 0.1802051
962.00 0.1801469
962.10 0.180089
962.20 0.1800311
962.30 0.1799732
962.40 0.1799153
962.50 0.1798575
962.60 0.1797997
962.70 0.1797419
962.80 0.1796841
962.90 0.1796263
963.00 0.1795686
963.10 0.1795109
963.20 0.1794532
963.30 0.1793955
963.40 0.1793378
963.50 0.1792802
963.60 0.1792226
963.70 0.179165
963.80 0.1791074
963.90 0.1790498
964.00 0.1789923
964.10 0.1789348
964.20 0.1788773
964.30 0.1788198
964.40 0.1787623
964.50 0.1787049
964.60 0.1786475
964.70 0.1785901
964.80 0.1785327
964.90 0.1784754
965.00 0.178418
965.10 0.1783607
965.20 0.1783034
965.30 0.1782461
965.40 0.1781889
965.50 0.1781316
965.60 0.1780744
965.70 0.1780172
965.80 0.17796
965.90 0.1779029
966.00 0.1778457
966.10 0.1777886
966.20 0.1777315
966.30 0.1776744
966.40 0.1776174
966.50 0.1775603
966.60 0.1775033
966.70 0.1774463
966.80 0.1773893
966.90 0.1773324
967.00 0.1772754
967.10 0.1772185
967.20 0.1771616
967.30 0.1771047
967.40 0.1770478
967.50 0.176991
967.60 0.1769342
967.70 0.1768774
967.80 0.1768206
967.90 0.1767638
968.00 0.1767071
968.10 0.1766504
968.20 0.1765937
968.30 0.176537
968.40 0.1764803
968.50 0.1764237
968.60 0.176367
968.70 0.1763104
968.80 0.1762538
968.90 0.1761973
969.00 0.1761407
969.10 0.1760842
969.20 0.1760277
969.30 0.1759712
969.40 0.1759147
969.50 0.1758583
969.60 0.1758018
969.70 0.1757454
969.80 0.175689
969.90 0.1756327
970.00 0.1755763
970.10 0.17552
970.20 0.1754637
970.30 0.1754074
970.40 0.1753511
970.50 0.1752948
970.60 0.1752386
970.70 0.1751824
970.80 0.1751262
970.90 0.17507
971.00 0.1750139
971.10 0.1749577
971.20 0.1749016
971.30 0.1748455
971.40 0.1747894
971.50 0.1747334
971.60 0.1746774
971.70 0.1746216
971.80 0.1745658
971.90 0.17451
972.00 0.1744543
972.10 0.1743985
972.20 0.1743428
972.30 0.1742871
972.40 0.1742314
972.50 0.1741757
972.60 0.1741201
972.70 0.1740644
972.80 0.1740088
972.90 0.1739532
973.00 0.1738977
973.10 0.1738421
973.20 0.1737866
973.30 0.1737311
973.40 0.1736756
973.50 0.1736201
973.60 0.1735646
973.70 0.1735092
973.80 0.1734538
973.90 0.1733984
974.00 0.173343
974.10 0.1732876
974.20 0.1732323
974.30 0.1731769
974.40 0.1731216
974.50 0.1730664
974.60 0.1730111
974.70 0.1729558
974.80 0.1729006
974.90 0.1728454
975.00 0.1727902
975.10 0.172735
975.20 0.1726799
975.30 0.1726247
975.40 0.1725696
975.50 0.1725145
975.60 0.1724594
975.70 0.1724044
975.80 0.1723493
975.90 0.1722943
976.00 0.1722393
976.10 0.1721843
976.20 0.1721294
976.30 0.1720744
976.40 0.1720195
976.50 0.1719646
976.60 0.1719097
976.70 0.1718548
976.80 0.1718
976.90 0.1717451
977.00 0.1716903
977.10 0.1716355
977.20 0.1715808
977.30 0.171526
977.40 0.1714713
977.50 0.1714166
977.60 0.1713618
977.70 0.1713072
977.80 0.1712525
977.90 0.1711979
978.00 0.1711432
978.10 0.1710886
978.20 0.171034
978.30 0.1709795
978.40 0.1709249
978.50 0.1708704
978.60 0.1708159
978.70 0.1707614
978.80 0.1707069
978.90 0.1706524
979.00 0.170598
979.10 0.1705436
979.20 0.1704892
979.30 0.1704348
979.40 0.1703804
979.50 0.1703261
979.60 0.1702718
979.70 0.1702175
979.80 0.1701632
979.90 0.1701089
980.00 0.1700547
980.10 0.1700004
980.20 0.1699462
980.30 0.169892
980.40 0.1698378
980.50 0.1697837
980.60 0.1697295
980.70 0.1696754
980.80 0.1696213
980.90 0.1695672
981.00 0.1695132
981.10 0.1694591
981.20 0.1694051
981.30 0.1693512
981.40 0.1692974
981.50 0.1692436
981.60 0.1691898
981.70 0.1691361
981.80 0.1690824
981.90 0.1690287
982.00 0.168975
982.10 0.1689213
982.20 0.1688676
982.30 0.168814
982.40 0.1687604
982.50 0.1687068
982.60 0.1686532
982.70 0.1685997
982.80 0.1685461
982.90 0.1684926
983.00 0.1684391
983.10 0.1683856
983.20 0.1683321
983.30 0.1682787
983.40 0.1682253
983.50 0.1681719
983.60 0.1681185
983.70 0.1680651
983.80 0.1680117
983.90 0.1679584
984.00 0.1679051
984.10 0.1678518
984.20 0.1677985
984.30 0.1677452
984.40 0.167692
984.50 0.1676387
984.60 0.1675855
984.70 0.1675323
984.80 0.1674791
984.90 0.167426
985.00 0.1673728
985.10 0.1673197
985.20 0.1672666
985.30 0.1672135
985.40 0.1671605
985.50 0.1671074
985.60 0.1670544
985.70 0.1670014
985.80 0.1669484
985.90 0.1668954
986.00 0.1668424
986.10 0.1667895
986.20 0.1667366
986.30 0.1666837
986.40 0.1666308
986.50 0.1665779
986.60 0.1665251
986.70 0.1664722
986.80 0.1664194
986.90 0.1663666
987.00 0.1663138
987.10 0.1662611
987.20 0.1662083
987.30 0.1661556
987.40 0.1661029
987.50 0.1660502
987.60 0.1659975
987.70 0.1659449
987.80 0.1658923
987.90 0.1658396
988.00 0.165787
988.10 0.1657345
988.20 0.1656819
988.30 0.1656293
988.40 0.1655768
988.50 0.1655243
988.60 0.1654718
988.70 0.1654193
988.80 0.1653669
988.90 0.1653144
989.00 0.165262
989.10 0.1652096
989.20 0.1651572
989.30 0.1651049
989.40 0.1650525
989.50 0.1650002
989.60 0.1649479
989.70 0.1648956
989.80 0.1648433
989.90 0.164791
990.00 0.1647388
990.10 0.1646866
990.20 0.1646344
990.30 0.1645822
990.40 0.16453
990.50 0.1644778
990.60 0.1644257
990.70 0.1643736
990.80 0.1643215
990.90 0.1642694
991.00 0.1642173
991.10 0.1641654
991.20 0.1641135
991.30 0.1640617
991.40 0.1640099
991.50 0.1639581
991.60 0.1639063
991.70 0.1638545
991.80 0.1638028
991.90 0.1637511
992.00 0.1636994
992.10 0.1636477
992.20 0.163596
992.30 0.1635444
992.40 0.1634927
992.50 0.1634411
992.60 0.1633895
992.70 0.1633379
992.80 0.1632864
992.90 0.1632348
993.00 0.1631833
993.10 0.1631318
993.20 0.1630803
993.30 0.1630288
993.40 0.1629773
993.50 0.1629259
993.60 0.1628745
993.70 0.1628231
993.80 0.1627717
993.90 0.1627203
994.00 0.1626689
994.10 0.1626176
994.20 0.1625663
994.30 0.162515
994.40 0.1624637
994.50 0.1624124
994.60 0.1623612
994.70 0.1623099
994.80 0.1622587
994.90 0.1622075
995.00 0.1621563
995.10 0.1621052
995.20 0.162054
995.30 0.1620029
995.40 0.1619518
995.50 0.1619007
995.60 0.1618496
995.70 0.1617985
995.80 0.1617475
995.90 0.1616965
996.00 0.1616455
996.10 0.1615945
996.20 0.1615435
996.30 0.1614925
996.40 0.1614416
996.50 0.1613907
996.60 0.1613398
996.70 0.1612889
996.80 0.161238
996.90 0.1611872
997.00 0.1611363
997.10 0.1610855
997.20 0.1610347
997.30 0.1609839
997.40 0.1609332
997.50 0.1608824
997.60 0.1608317
997.70 0.160781
997.80 0.1607303
997.90 0.1606796
998.00 0.1606289
998.10 0.1605783
998.20 0.1605277
998.30 0.160477
998.40 0.1604264
998.50 0.1603759
998.60 0.1603253
998.70 0.1602748
998.80 0.1602242
998.90 0.1601737
999.00 0.1601232
999.10 0.1600728
999.20 0.1600223
999.30 0.1599719
999.40 0.1599214
999.50 0.159871
999.60 0.1598206
999.70 0.1597703
999.80 0.1597199
999.90 0.1596696
1000.00 0.1596192
1000.10 0.1595689
1000.20 0.1595186
1000.30 0.1594684
1000.40 0.1594181
1000.50 0.1593679
1000.60 0.1593176
1000.70 0.1592674
1000.80 0.1592173
1000.90 0.1591671
1001.00 0.159117
1001.10 0.159067
1001.20 0.1590171
1001.30 0.1589672
1001.40 0.1589172
1001.50 0.1588674
1001.60 0.1588175
1001.70 0.1587676
1001.80 0.1587178
1001.90 0.158668
1002.00 0.1586182
1002.10 0.1585684
1002.20 0.1585186
1002.30 0.1584688
1002.40 0.1584191
1002.50 0.1583694
1002.60 0.1583197
1002.70 0.15827
1002.80 0.1582203
1002.90 0.1581706
1003.00 0.158121
1003.10 0.1580714
1003.20 0.1580218
1003.30 0.1579722
1003.40 0.1579226
1003.50 0.1578731
1003.60 0.1578235
1003.70 0.157774
1003.80 0.1577245
1003.90 0.157675
1004.00 0.1576255
1004.10 0.1575761
1004.20 0.1575266
1004.30 0.1574772
1004.40 0.1574278
1004.50 0.1573784
1004.60 0.157329
1004.70 0.1572797
1004.80 0.1572303
1004.90 0.157181
1005.00 0.1571317
1005.10 0.1570824
1005.20 0.1570331
1005.30 0.1569839
1005.40 0.1569346
1005.50 0.1568854
1005.60 0.1568362
1005.70 0.156787
1005.80 0.1567378
1005.90 0.1566887
1006.00 0.1566395
1006.10 0.1565904
1006.20 0.1565413
1006.30 0.1564922
1006.40 0.1564431
1006.50 0.156394
1006.60 0.156345
1006.70 0.1562959
1006.80 0.1562469
1006.90 0.1561979
1007.00 0.1561489
1007.10 0.1561
1007.20 0.156051
1007.30 0.1560021
1007.40 0.1559532
1007.50 0.1559043
1007.60 0.1558554
1007.70 0.1558065
1007.80 0.1557577
1007.90 0.1557088
1008.00 0.15566
1008.10 0.1556112
1008.20 0.1555624
1008.30 0.1555136
1008.40 0.1554649
1008.50 0.1554162
1008.60 0.1553674
1008.70 0.1553187
1008.80 0.15527
1008.90 0.1552214
1009.00 0.1551727
1009.10 0.1551241
1009.20 0.1550754
1009.30 0.1550268
1009.40 0.1549782
1009.50 0.1549297
1009.60 0.1548811
1009.70 0.1548326
1009.80 0.154784
1009.90 0.1547355
1010.00 0.154687
1010.10 0.1546385
1010.20 0.1545901
1010.30 0.1545416
1010.40 0.1544932
1010.50 0.1544448
1010.60 0.1543964
1010.70 0.154348
1010.80 0.1542997
1010.90 0.1542513
1011.00 0.154203
1011.10 0.1541549
1011.20 0.1541067
1011.30 0.1540586
1011.40 0.1540105
1011.50 0.1539625
1011.60 0.1539144
1011.70 0.1538664
1011.80 0.1538183
1011.90 0.1537703
1012.00 0.1537223
1012.10 0.1536744
1012.20 0.1536264
1012.30 0.1535785
1012.40 0.1535305
1012.50 0.1534826
1012.60 0.1534347
1012.70 0.1533868
1012.80 0.153339
1012.90 0.1532911
1013.00 0.1532433
1013.10 0.1531955
1013.20 0.1531477
1013.30 0.1530999
1013.40 0.1530521
1013.50 0.1530043
1013.60 0.1529566
1013.70 0.1529089
1013.80 0.1528612
1013.90 0.1528135
1014.00 0.1527658
1014.10 0.1527182
1014.20 0.1526705
1014.30 0.1526229
1014.40 0.1525753
1014.50 0.1525277
1014.60 0.1524801
1014.70 0.1524325
1014.80 0.152385
1014.90 0.1523374
1015.00 0.1522899
1015.10 0.1522424
1015.20 0.1521949
1015.30 0.1521475
1015.40 0.1521
1015.50 0.1520526
1015.60 0.1520052
1015.70 0.1519577
1015.80 0.1519104
1015.90 0.151863
1016.00 0.1518156
1016.10 0.1517683
1016.20 0.1517209
1016.30 0.1516736
1016.40 0.1516263
1016.50 0.1515791
1016.60 0.1515318
1016.70 0.1514845
1016.80 0.1514373
1016.90 0.1513901
1017.00 0.1513429
1017.10 0.1512957
1017.20 0.1512485
1017.30 0.1512014
1017.40 0.1511542
1017.50 0.1511071
1017.60 0.15106
1017.70 0.1510129
1017.80 0.1509658
1017.90 0.1509187
1018.00 0.1508717
1018.10 0.1508247
1018.20 0.1507777
1018.30 0.1507307
1018.40 0.1506837
1018.50 0.1506367
1018.60 0.1505897
1018.70 0.1505428
1018.80 0.1504959
1018.90 0.150449
1019.00 0.1504021
1019.10 0.1503552
1019.20 0.1503083
1019.30 0.1502615
1019.40 0.1502147
1019.50 0.1501679
1019.60 0.1501211
1019.70 0.1500743
1019.80 0.1500275
1019.90 0.1499808
1020.00 0.149934
1020.10 0.1498873
1020.20 0.1498406
1020.30 0.1497939
1020.40 0.1497472
1020.50 0.1497006
1020.60 0.1496539
1020.70 0.1496073
1020.80 0.1495607
1020.90 0.1495141
1021.00 0.1494675
1021.10 0.1494209
1021.20 0.1493746
1021.30 0.1493282
1021.40 0.1492818
1021.50 0.1492355
1021.60 0.1491892
1021.70 0.1491429
1021.80 0.1490966
1021.90 0.1490503
1022.00 0.1490041
1022.10 0.1489578
1022.20 0.1489116
1022.30 0.1488654
1022.40 0.1488192
1022.50 0.148773
1022.60 0.1487268
1022.70 0.1486807
1022.80 0.1486346
1022.90 0.1485884
1023.00 0.1485423
1023.10 0.1484962
1023.20 0.1484502
1023.30 0.1484041
1023.40 0.1483581
1023.50 0.148312
1023.60 0.148266
1023.70 0.14822
1023.80 0.148174
1023.90 0.1481281
1024.00 0.1480821
1024.10 0.1480362
1024.20 0.1479903
1024.30 0.1479443
1024.40 0.1478984
1024.50 0.1478526
1024.60 0.1478067
1024.70 0.1477609
1024.80 0.147715
1024.90 0.1476692
1025.00 0.1476234
1025.10 0.1475776
1025.20 0.1475318
1025.30 0.1474861
1025.40 0.1474403
1025.50 0.1473946
1025.60 0.1473489
1025.70 0.1473032
1025.80 0.1472575
1025.90 0.1472119
1026.00 0.1471662
1026.10 0.1471206
1026.20 0.1470749
1026.30 0.1470293
1026.40 0.1469837
1026.50 0.1469382
1026.60 0.1468926
1026.70 0.146847
1026.80 0.1468015
1026.90 0.146756
1027.00 0.1467105
1027.10 0.146665
1027.20 0.1466195
1027.30 0.1465741
1027.40 0.1465286
1027.50 0.1464832
1027.60 0.1464378
1027.70 0.1463924
1027.80 0.146347
1027.90 0.1463016
1028.00 0.1462562
1028.10 0.1462109
1028.20 0.1461656
1028.30 0.1461203
1028.40 0.146075
1028.50 0.1460297
1028.60 0.1459844
1028.70 0.1459392
1028.80 0.1458939
1028.90 0.1458487
1029.00 0.1458035
1029.10 0.1457583
1029.20 0.1457131
1029.30 0.145668
1029.40 0.1456228
1029.50 0.1455777
1029.60 0.1455326
1029.70 0.1454874
1029.80 0.1454424
1029.90 0.1453973
1030.00 0.1453522
1030.10 0.1453072
1030.20 0.1452621
1030.30 0.1452171
1030.40 0.1451721
1030.50 0.1451271
1030.60 0.1450822
1030.70 0.1450372
1030.80 0.1449923
1030.90 0.1449473
1031.00 0.1449024
1031.10 0.1448575
1031.20 0.1448126
1031.30 0.1447678
1031.40 0.1447231
1031.50 0.1446784
1031.60 0.1446338
1031.70 0.1445891
1031.80 0.1445445
1031.90 0.1444999
1032.00 0.1444553
1032.10 0.1444107
1032.20 0.1443661
1032.30 0.1443216
1032.40 0.144277
1032.50 0.1442325
1032.60 0.144188
1032.70 0.1441435
1032.80 0.144099
1032.90 0.1440546
1033.00 0.1440101
1033.10 0.1439657
1033.20 0.1439212
1033.30 0.1438768
1033.40 0.1438324
1033.50 0.1437881
1033.60 0.1437437
1033.70 0.1436993
1033.80 0.143655
1033.90 0.1436107
1034.00 0.1435664
1034.10 0.1435221
1034.20 0.1434778
1034.30 0.1434335
1034.40 0.1433893
1034.50 0.1433451
1034.60 0.1433008
1034.70 0.1432566
1034.80 0.1432124
1034.90 0.1431683
1035.00 0.1431241
1035.10 0.14308
1035.20 0.1430358
1035.30 0.1429917
1035.40 0.1429476
1035.50 0.1429035
1035.60 0.1428594
1035.70 0.1428154
1035.80 0.1427713
1035.90 0.1427273
1036.00 0.1426833
1036.10 0.1426393
1036.20 0.1425953
1036.30 0.1425513
1036.40 0.1425073
1036.50 0.1424634
1036.60 0.1424194
1036.70 0.1423755
1036.80 0.1423316
1036.90 0.1422877
1037.00 0.1422438
1037.10 0.1422
1037.20 0.1421561
1037.30 0.1421123
1037.40 0.1420685
1037.50 0.1420247
1037.60 0.1419809
1037.70 0.1419371
1037.80 0.1418933
1037.90 0.1418496
1038.00 0.1418058
1038.10 0.1417621
1038.20 0.1417184
1038.30 0.1416747
1038.40 0.141631
1038.50 0.1415874
1038.60 0.1415437
1038.70 0.1415001
1038.80 0.1414564
1038.90 0.1414128
1039.00 0.1413692
1039.10 0.1413257
1039.20 0.1412821
1039.30 0.1412385
1039.40 0.141195
1039.50 0.1411515
1039.60 0.141108
1039.70 0.1410645
1039.80 0.141021
1039.90 0.1409775
1040.00 0.1409341
1040.10 0.1408906
1040.20 0.1408472
1040.30 0.1408038
1040.40 0.1407604
1040.50 0.140717
1040.60 0.1406736
1040.70 0.1406303
1040.80 0.1405869
1040.90 0.1405436
1041.00 0.1405003
1041.10 0.140457
1041.20 0.1404137
1041.30 0.1403704
1041.40 0.1403272
1041.50 0.1402839
1041.60 0.1402407
1041.70 0.1401976
1041.80 0.1401546
1041.90 0.1401116
1042.00 0.1400686
1042.10 0.1400256
1042.20 0.1399826
1042.30 0.1399396
1042.40 0.1398967
1042.50 0.1398537
1042.60 0.1398108
1042.70 0.1397679
1042.80 0.139725
1042.90 0.1396821
1043.00 0.1396392
1043.10 0.1395964
1043.20 0.1395535
1043.30 0.1395107
1043.40 0.1394679
1043.50 0.1394251
1043.60 0.1393823
1043.70 0.1393395
1043.80 0.1392968
1043.90 0.139254
1044.00 0.1392113
1044.10 0.1391686
1044.20 0.1391259
1044.30 0.1390832
1044.40 0.1390405
1044.50 0.1389978
1044.60 0.1389552
1044.70 0.1389125
1044.80 0.1388699
1044.90 0.1388273
1045.00 0.1387847
1045.10 0.1387421
1045.20 0.1386996
1045.30 0.138657
1045.40 0.1386145
1045.50 0.1385719
1045.60 0.1385294
1045.70 0.1384869
1045.80 0.1384444
1045.90 0.138402
1046.00 0.1383595
1046.10 0.1383171
1046.20 0.1382746
1046.30 0.1382322
1046.40 0.1381898
1046.50 0.1381474
1046.60 0.1381051
1046.70 0.1380627
1046.80 0.1380204
1046.90 0.137978
1047.00 0.1379357
1047.10 0.1378934
1047.20 0.1378511
1047.30 0.1378088
1047.40 0.1377666
1047.50 0.1377243
1047.60 0.1376821
1047.70 0.1376398
1047.80 0.1375976
1047.90 0.1375554
1048.00 0.1375132
1048.10 0.1374711
1048.20 0.1374289
1048.30 0.1373868
1048.40 0.1373446
1048.50 0.1373025
1048.60 0.1372604
1048.70 0.1372183
1048.80 0.1371763
1048.90 0.1371342
1049.00 0.1370921
1049.10 0.1370501
1049.20 0.1370081
1049.30 0.1369661
1049.40 0.1369241
1049.50 0.1368821
1049.60 0.1368401
1049.70 0.1367982
1049.80 0.1367562
1049.90 0.1367143
1050.00 0.1366724
1050.10 0.1366305
1050.20 0.1365886
1050.30 0.1365467
1050.40 0.1365049
1050.50 0.136463
1050.60 0.1364212
1050.70 0.1363794
1050.80 0.1363376
1050.90 0.1362958
1051.00 0.136254
1051.10 0.1362122
1051.20 0.1361705
1051.30 0.1361287
1051.40 0.136087
1051.50 0.1360453
1051.60 0.1360036
1051.70 0.1359619
1051.80 0.1359203
1051.90 0.1358786
1052.00 0.135837
1052.10 0.1357954
1052.20 0.135754
1052.30 0.1357125
1052.40 0.1356711
1052.50 0.1356297
1052.60 0.1355883
1052.70 0.1355469
1052.80 0.1355055
1052.90 0.1354641
1053.00 0.1354228
1053.10 0.1353814
1053.20 0.1353401
1053.30 0.1352988
1053.40 0.1352575
1053.50 0.1352162
1053.60 0.1351749
1053.70 0.1351337
1053.80 0.1350924
1053.90 0.1350512
1054.00 0.1350099
1054.10 0.1349687
1054.20 0.1349275
1054.30 0.1348864
1054.40 0.1348452
1054.50 0.134804
1054.60 0.1347629
1054.70 0.1347218
1054.80 0.1346806
1054.90 0.1346395
1055.00 0.1345985
1055.10 0.1345574
1055.20 0.1345163
1055.30 0.1344753
1055.40 0.1344342
1055.50 0.1343932
1055.60 0.1343522
1055.70 0.1343112
1055.80 0.1342702
1055.90 0.1342292
1056.00 0.1341883
1056.10 0.1341473
1056.20 0.1341064
1056.30 0.1340655
1056.40 0.1340246
1056.50 0.1339837
1056.60 0.1339428
1056.70 0.1339019
1056.80 0.1338611
1056.90 0.1338202
1057.00 0.1337794
1057.10 0.1337386
1057.20 0.1336978
1057.30 0.133657
1057.40 0.1336162
1057.50 0.1335755
1057.60 0.1335347
1057.70 0.133494
1057.80 0.1334533
1057.90 0.1334126
1058.00 0.1333719
1058.10 0.1333312
1058.20 0.1332905
1058.30 0.1332498
1058.40 0.1332092
1058.50 0.1331686
1058.60 0.1331279
1058.70 0.1330873
1058.80 0.1330467
1058.90 0.1330062
1059.00 0.1329656
1059.10 0.132925
1059.20 0.1328845
1059.30 0.132844
1059.40 0.1328035
1059.50 0.1327629
1059.60 0.1327225
1059.70 0.132682
1059.80 0.1326415
1059.90 0.1326011
1060.00 0.1325606
1060.10 0.1325202
1060.20 0.1324798
1060.30 0.1324394
1060.40 0.132399
1060.50 0.1323586
1060.60 0.1323183
1060.70 0.1322779
1060.80 0.1322376
1060.90 0.1321973
1061.00 0.132157
1061.10 0.1321167
1061.20 0.1320764
1061.30 0.1320361
1061.40 0.1319958
1061.50 0.1319556
1061.60 0.1319154
1061.70 0.1318751
1061.80 0.1318349
1061.90 0.1317947
1062.00 0.1317546
1062.10 0.1317144
1062.20 0.1316742
1062.30 0.1316341
1062.40 0.131594
1062.50 0.1315538
1062.60 0.1315143
1062.70 0.1314755
1062.80 0.1314366
1062.90 0.1313978
1063.00 0.131359
1063.10 0.1313202
1063.20 0.1312814
1063.30 0.1312426
1063.40 0.1312038
1063.50 0.1311651
1063.60 0.1311263
1063.70 0.1310876
1063.80 0.1310489
1063.90 0.1310101
1064.00 0.1309715
1064.10 0.1309328
1064.20 0.1308941
1064.30 0.1308554
1064.40 0.1308168
1064.50 0.1307782
1064.60 0.1307395
1064.70 0.1307009
1064.80 0.1306623
1064.90 0.1306237
1065.00 0.1305852
1065.10 0.1305466
1065.20 0.1305081
1065.30 0.1304695
1065.40 0.130431
1065.50 0.1303925
1065.60 0.130354
1065.70 0.1303155
1065.80 0.130277
1065.90 0.1302385
1066.00 0.1302001
1066.10 0.1301617
1066.20 0.1301232
1066.30 0.1300848
1066.40 0.1300464
1066.50 0.130008
1066.60 0.1299696
1066.70 0.1299313
1066.80 0.1298929
1066.90 0.1298546
1067.00 0.1298162
1067.10 0.1297779
1067.20 0.1297396
1067.30 0.1297013
1067.40 0.129663
1067.50 0.1296248
1067.60 0.1295865
1067.70 0.1295483
1067.80 0.12951
1067.90 0.1294714
1068.00 0.1294322
1068.10 0.1293929
1068.20 0.1293536
1068.30 0.1293144
1068.40 0.1292751
1068.50 0.1292359
1068.60 0.1291967
1068.70 0.1291575
1068.80 0.1291183
1068.90 0.1290791
1069.00 0.12904
1069.10 0.1290008
1069.20 0.1289617
1069.30 0.1289226
1069.40 0.1288834
1069.50 0.1288443
1069.60 0.1288052
1069.70 0.1287662
1069.80 0.1287271
1069.90 0.1286881
1070.00 0.128649
1070.10 0.12861
1070.20 0.128571
1070.30 0.128532
1070.40 0.128493
1070.50 0.128454
1070.60 0.128415
1070.70 0.1283761
1070.80 0.1283371
1070.90 0.1282982
1071.00 0.1282593
1071.10 0.1282204
1071.20 0.1281815
1071.30 0.1281426
1071.40 0.1281038
1071.50 0.1280649
1071.60 0.1280261
1071.70 0.1279872
1071.80 0.1279484
1071.90 0.1279096
1072.00 0.1278708
1072.10 0.127832
1072.20 0.1277933
1072.30 0.1277545
1072.40 0.1277158
1072.50 0.127677
1072.60 0.1276383
1072.70 0.1275996
1072.80 0.1275609
1072.90 0.1275222
1073.00 0.1274835
1073.10 0.1274449
1073.20 0.1274063
1073.30 0.1273678
1073.40 0.1273293
1073.50 0.1272909
1073.60 0.1272524
1073.70 0.127214
1073.80 0.1271755
1073.90 0.1271371
1074.00 0.1270987
1074.10 0.1270603
1074.20 0.127022
1074.30 0.1269836
1074.40 0.1269453
1074.50 0.1269069
1074.60 0.1268686
1074.70 0.1268303
1074.80 0.126792
1074.90 0.1267537
1075.00 0.1267154
1075.10 0.1266771
1075.20 0.1266389
1075.30 0.1266006
1075.40 0.1265624
1075.50 0.1265242
1075.60 0.126486
1075.70 0.1264478
1075.80 0.1264096
1075.90 0.1263714
1076.00 0.1263333
1076.10 0.1262951
1076.20 0.126257
1076.30 0.1262189
1076.40 0.1261807
1076.50 0.1261426
1076.60 0.1261046
1076.70 0.1260665
1076.80 0.1260284
1076.90 0.1259904
1077.00 0.1259523
1077.10 0.1259143
1077.20 0.1258763
1077.30 0.1258383
1077.40 0.1258003
1077.50 0.1257623
1077.60 0.1257243
1077.70 0.1256864
1077.80 0.1256484
1077.90 0.1256105
1078.00 0.1255726
1078.10 0.1255347
1078.20 0.1254968
1078.30 0.1254589
1078.40 0.125421
1078.50 0.1253832
1078.60 0.1253459
1078.70 0.1253091
1078.80 0.1252723
1078.90 0.1252356
1079.00 0.1251988
1079.10 0.125162
1079.20 0.1251253
1079.30 0.1250886
1079.40 0.1250519
1079.50 0.1250152
1079.60 0.1249785
1079.70 0.1249418
1079.80 0.1249051
1079.90 0.1248685
1080.00 0.1248318
1080.10 0.1247952
1080.20 0.1247586
1080.30 0.124722
1080.40 0.1246854
1080.50 0.1246488
1080.60 0.1246122
1080.70 0.1245756
1080.80 0.1245391
1080.90 0.1245025
1081.00 0.124466
1081.10 0.1244295
1081.20 0.124393
1081.30 0.1243565
1081.40 0.12432
1081.50 0.1242835
1081.60 0.1242471
1081.70 0.1242106
1081.80 0.1241742
1081.90 0.1241377
1082.00 0.1241013
1082.10 0.1240649
1082.20 0.1240285
1082.30 0.1239921
1082.40 0.1239558
1082.50 0.1239194
1082.60 0.1238831
1082.70 0.1238467
1082.80 0.1238104
1082.90 0.1237741
1083.00 0.1237378
1083.10 0.1237015
1083.20 0.1236652
1083.30 0.1236289
1083.40 0.1235927
1083.50 0.1235564
1083.60 0.1235202
1083.70 0.123484
1083.80 0.1234477
1083.90 0.1234115
1084.00 0.1233746
1084.10 0.1233375
1084.20 0.1233004
1084.30 0.1232634
1084.40 0.1232264
1084.50 0.1231893
1084.60 0.1231523
1084.70 0.1231153
1084.80 0.1230783
1084.90 0.1230414
1085.00 0.1230044
1085.10 0.1229674
1085.20 0.1229305
1085.30 0.1228936
1085.40 0.1228567
1085.50 0.1228197
1085.60 0.1227828
1085.70 0.122746
1085.80 0.1227091
1085.90 0.1226722
1086.00 0.1226354
1086.10 0.1225985
1086.20 0.1225617
1086.30 0.1225249
1086.40 0.1224881
1086.50 0.1224513
1086.60 0.1224145
1086.70 0.1223778
1086.80 0.122341
1086.90 0.1223043
1087.00 0.1222675
1087.10 0.1222308
1087.20 0.1221941
1087.30 0.1221574
1087.40 0.1221207
1087.50 0.122084
1087.60 0.1220474
1087.70 0.1220107
1087.80 0.1219741
1087.90 0.1219374
1088.00 0.1219008
1088.10 0.1218642
1088.20 0.1218276
1088.30 0.121791
1088.40 0.1217544
1088.50 0.1217179
1088.60 0.1216813
1088.70 0.1216448
1088.80 0.1216083
1088.90 0.1215717
1089.00 0.1215352
1089.10 0.1214987
1089.20 0.1214623
1089.30 0.1214258
1089.40 0.1213893
1089.50 0.1213529
1089.60 0.1213164
1089.70 0.12128
1089.80 0.1212436
1089.90 0.1212072
1090.00 0.1211708
1090.10 0.1211344
1090.20 0.121098
1090.30 0.1210617
1090.40 0.1210253
1090.50 0.120989
1090.60 0.1209526
1090.70 0.1209163
1090.80 0.12088
1090.90 0.1208437
1091.00 0.1208074
1091.10 0.1207712
1091.20 0.1207349
1091.30 0.1206987
1091.40 0.1206624
1091.50 0.1206262
1091.60 0.12059
1091.70 0.1205538
1091.80 0.1205176
1091.90 0.1204814
1092.00 0.1204452
1092.10 0.1204091
1092.20 0.1203729
1092.30 0.1203368
1092.40 0.1203007
1092.50 0.1202645
1092.60 0.1202284
1092.70 0.1201924
1092.80 0.1201563
1092.90 0.1201202
1093.00 0.1200841
1093.10 0.1200481
1093.20 0.1200121
1093.30 0.119976
1093.40 0.11994
1093.50 0.119904
1093.60 0.119868
1093.70 0.1198321
1093.80 0.1197961
1093.90 0.1197601
1094.00 0.1197242
1094.10 0.1196882
1094.20 0.1196523
1094.30 0.1196164
1094.40 0.1195805
1094.50 0.1195446
1094.60 0.1195087
1094.70 0.1194729
1094.80 0.1194373
1094.90 0.1194021
1095.00 0.1193669
1095.10 0.1193317
1095.20 0.1192966
1095.30 0.1192614
1095.40 0.1192262
1095.50 0.1191911
1095.60 0.119156
1095.70 0.1191208
1095.80 0.1190857
1095.90 0.1190506
1096.00 0.1190155
1096.10 0.1189805
1096.20 0.1189454
1096.30 0.1189103
1096.40 0.1188753
1096.50 0.1188402
1096.60 0.1188052
1096.70 0.1187702
1096.80 0.1187352
1096.90 0.1187002
1097.00 0.1186652
1097.10 0.1186303
1097.20 0.1185953
1097.30 0.1185603
1097.40 0.1185254
1097.50 0.1184905
1097.60 0.1184556
1097.70 0.1184207
1097.80 0.1183858
1097.90 0.1183509
1098.00 0.118316
1098.10 0.1182811
1098.20 0.1182463
1098.30 0.1182114
1098.40 0.1181766
1098.50 0.1181418
1098.60 0.118107
1098.70 0.1180722
1098.80 0.1180374
1098.90 0.1180026
1099.00 0.1179678
1099.10 0.1179331
1099.20 0.1178983
1099.30 0.1178636
1099.40 0.1178289
1099.50 0.1177942
1099.60 0.1177595
1099.70 0.1177248
1099.80 0.1176901
1099.90 0.1176554
1100.00 0.1176208
1100.10 0.1175861
1100.20 0.1175515
1100.30 0.1175168
1100.40 0.1174822
1100.50 0.1174476
1100.60 0.117413
1100.70 0.1173784
1100.80 0.1173439
1100.90 0.1173093
1101.00 0.1172747
1101.10 0.1172402
1101.20 0.1172057
1101.30 0.1171711
1101.40 0.1171366
1101.50 0.1171021
1101.60 0.1170676
1101.70 0.1170332
1101.80 0.1169987
1101.90 0.1169642
1102.00 0.1169298
1102.10 0.1168953
1102.20 0.1168609
1102.30 0.1168265
1102.40 0.1167921
1102.50 0.1167577
1102.60 0.1167233
1102.70 0.1166889
1102.80 0.1166546
1102.90 0.1166202
1103.00 0.1165859
1103.10 0.1165516
1103.20 0.1165172
1103.30 0.1164829
1103.40 0.1164486
1103.50 0.1164143
1103.60 0.1163801
1103.70 0.1163458
1103.80 0.1163115
1103.90 0.1162773
1104.00 0.116243
1104.10 0.1162088
1104.20 0.1161746
1104.30 0.1161404
1104.40 0.1161062
1104.50 0.116072
1104.60 0.1160378
1104.70 0.1160037
1104.80 0.1159695
1104.90 0.1159354
1105.00 0.1159012
1105.10 0.1158671
1105.20 0.115833
1105.30 0.1157989
1105.40 0.1157648
1105.50 0.1157307
1105.60 0.1156967
1105.70 0.1156626
1105.80 0.1156287
1105.90 0.1155948
1106.00 0.1155609
1106.10 0.115527
1106.20 0.1154931
1106.30 0.1154593
1106.40 0.1154254
1106.50 0.1153916
1106.60 0.1153577
1106.70 0.1153239
1106.80 0.1152901
1106.90 0.1152563
1107.00 0.1152225
1107.10 0.1151887
1107.20 0.1151549
1107.30 0.1151211
1107.40 0.1150874
1107.50 0.1150536
1107.60 0.1150199
1107.70 0.1149862
1107.80 0.1149525
1107.90 0.1149188
1108.00 0.1148851
1108.10 0.1148514
1108.20 0.1148177
1108.30 0.1147841
1108.40 0.1147504
1108.50 0.1147168
1108.60 0.1146831
1108.70 0.1146495
1108.80 0.1146159
1108.90 0.1145823
1109.00 0.1145487
1109.10 0.1145152
1109.20 0.1144816
1109.30 0.114448
1109.40 0.1144145
1109.50 0.1143809
1109.60 0.1143474
1109.70 0.1143139
1109.80 0.1142804
1109.90 0.1142469
1110.00 0.1142134
1110.10 0.1141799
1110.20 0.1141465
1110.30 0.114113
1110.40 0.1140796
1110.50 0.1140461
1110.60 0.1140127
1110.70 0.1139793
1110.80 0.1139459
1110.90 0.1139125
1111.00 0.1138791
1111.10 0.1138457
1111.20 0.1138124
1111.30 0.113779
1111.40 0.1137457
1111.50 0.1137123
1111.60 0.113679
1111.70 0.1136457
1111.80 0.1136124
1111.90 0.1135791
1112.00 0.1135458
1112.10 0.1135125
1112.20 0.1134793
1112.30 0.113446
1112.40 0.1134128
1112.50 0.1133795
1112.60 0.1133463
1112.70 0.1133131
1112.80 0.1132799
1112.90 0.1132467
1113.00 0.1132135
1113.10 0.1131803
1113.20 0.1131472
1113.30 0.113114
1113.40 0.1130809
1113.50 0.1130478
1113.60 0.1130146
1113.70 0.1129815
1113.80 0.1129484
1113.90 0.1129153
1114.00 0.1128822
1114.10 0.1128492
1114.20 0.1128161
1114.30 0.1127831
1114.40 0.11275
1114.50 0.112717
1114.60 0.112684
1114.70 0.112651
1114.80 0.112618
1114.90 0.112585
1115.00 0.112552
1115.10 0.112519
1115.20 0.1124861
1115.30 0.1124531
1115.40 0.1124202
1115.50 0.1123872
1115.60 0.1123543
1115.70 0.1123214
1115.80 0.1122885
1115.90 0.1122556
1116.00 0.1122227
1116.10 0.1121899
1116.20 0.112157
1116.30 0.1121241
1116.40 0.1120913
1116.50 0.1120585
1116.60 0.1120256
1116.70 0.1119928
1116.80 0.1119603
1116.90 0.1119281
1117.00 0.1118959
1117.10 0.1118637
1117.20 0.1118316
1117.30 0.1117994
1117.40 0.1117673
1117.50 0.1117351
1117.60 0.111703
1117.70 0.1116709
1117.80 0.1116388
1117.90 0.1116067
1118.00 0.1115746
1118.10 0.1115425
1118.20 0.1115104
1118.30 0.1114784
1118.40 0.1114463
1118.50 0.1114143
1118.60 0.1113822
1118.70 0.1113502
1118.80 0.1113182
1118.90 0.1112862
1119.00 0.1112542
1119.10 0.1112222
1119.20 0.1111902
1119.30 0.1111583
1119.40 0.1111263
1119.50 0.1110944
1119.60 0.1110624
1119.70 0.1110305
1119.80 0.1109986
1119.90 0.1109667
1120.00 0.1109348
1120.10 0.1109029
1120.20 0.110871
1120.30 0.1108392
1120.40 0.1108073
1120.50 0.1107754
1120.60 0.1107436
1120.70 0.1107118
1120.80 0.11068
1120.90 0.1106481
1121.00 0.1106163
1121.10 0.1105846
1121.20 0.1105528
1121.30 0.110521
1121.40 0.1104892
1121.50 0.1104575
1121.60 0.1104257
1121.70 0.110394
1121.80 0.1103623
1121.90 0.1103306
1122.00 0.1102989
1122.10 0.1102672
1122.20 0.1102355
1122.30 0.1102038
1122.40 0.1101716
1122.50 0.110139
1122.60 0.1101064
1122.70 0.1100738
1122.80 0.1100413
1122.90 0.1100087
1123.00 0.1099762
1123.10 0.1099437
1123.20 0.1099112
1123.30 0.1098786
1123.40 0.1098462
1123.50 0.1098137
1123.60 0.1097812
1123.70 0.1097487
1123.80 0.1097163
1123.90 0.1096838
1124.00 0.1096514
1124.10 0.1096189
1124.20 0.1095865
1124.30 0.1095541
1124.40 0.1095217
1124.50 0.1094893
1124.60 0.109457
1124.70 0.1094246
1124.80 0.1093922
1124.90 0.1093599
1125.00 0.1093275
1125.10 0.1092952
1125.20 0.1092629
1125.30 0.1092306
1125.40 0.1091983
1125.50 0.109166
1125.60 0.1091337
1125.70 0.1091014
1125.80 0.1090692
1125.90 0.1090369
1126.00 0.1090047
1126.10 0.1089724
1126.20 0.1089402
1126.30 0.108908
1126.40 0.1088758
1126.50 0.1088436
1126.60 0.1088114
1126.70 0.1087792
1126.80 0.1087471
1126.90 0.1087149
1127.00 0.1086828
1127.10 0.1086506
1127.20 0.1086185
1127.30 0.1085864
1127.40 0.1085543
1127.50 0.1085222
1127.60 0.1084901
1127.70 0.108458
1127.80 0.108426
1127.90 0.1083939
1128.00 0.1083623
1128.10 0.1083309
1128.20 0.1082994
1128.30 0.108268
1128.40 0.1082365
1128.50 0.1082051
1128.60 0.1081737
1128.70 0.1081423
1128.80 0.1081109
1128.90 0.1080795
1129.00 0.1080482
1129.10 0.1080168
1129.20 0.1079855
1129.30 0.1079541
1129.40 0.1079228
1129.50 0.1078915
1129.60 0.1078601
1129.70 0.1078288
1129.80 0.1077975
1129.90 0.1077663
1130.00 0.107735
1130.10 0.1077037
1130.20 0.1076725
1130.30 0.1076412
1130.40 0.10761
1130.50 0.1075787
1130.60 0.1075475
1130.70 0.1075163
1130.80 0.1074851
1130.90 0.1074539
1131.00 0.1074227
1131.10 0.1073916
1131.20 0.1073604
1131.30 0.1073292
1131.40 0.1072981
1131.50 0.107267
1131.60 0.1072358
1131.70 0.1072047
1131.80 0.1071736
1131.90 0.1071425
1132.00 0.1071114
1132.10 0.1070803
1132.20 0.1070493
1132.30 0.1070182
1132.40 0.1069871
1132.50 0.1069561
1132.60 0.1069251
1132.70 0.106894
1132.80 0.106863
1132.90 0.106832
1133.00 0.106801
1133.10 0.10677
1133.20 0.1067391
1133.30 0.1067081
1133.40 0.1066771
1133.50 0.1066462
1133.60 0.1066152
1133.70 0.1065843
1133.80 0.1065534
1133.90 0.1065225
1134.00 0.1064916
1134.10 0.1064607
1134.20 0.1064298
1134.30 0.1063989
1134.40 0.106368
1134.50 0.1063372
1134.60 0.1063063
1134.70 0.1062755
1134.80 0.1062447
1134.90 0.1062138
1135.00 0.106183
1135.10 0.1061522
1135.20 0.1061214
1135.30 0.1060906
1135.40 0.1060599
1135.50 0.1060291
1135.60 0.1059983
1135.70 0.1059676
1135.80 0.1059369
1135.90 0.1059061
1136.00 0.1058754
1136.10 0.1058447
1136.20 0.105814
1136.30 0.1057833
1136.40 0.1057526
1136.50 0.1057219
1136.60 0.1056913
1136.70 0.1056606
1136.80 0.10563
1136.90 0.1055993
1137.00 0.1055687
1137.10 0.1055381
1137.20 0.1055075
1137.30 0.1054769
1137.40 0.1054463
1137.50 0.1054157
1137.60 0.1053851
1137.70 0.1053546
1137.80 0.105324
1137.90 0.1052935
1138.00 0.1052629
1138.10 0.1052324
1138.20 0.1052019
1138.30 0.1051714
1138.40 0.1051409
1138.50 0.1051104
1138.60 0.1050799
1138.70 0.1050494
1138.80 0.105019
1138.90 0.1049885
1139.00 0.1049581
1139.10 0.1049276
1139.20 0.1048972
1139.30 0.1048673
1139.40 0.1048375
1139.50 0.1048076
1139.60 0.1047778
1139.70 0.104748
1139.80 0.1047181
1139.90 0.1046883
1140.00 0.1046585
1140.10 0.1046288
1140.20 0.104599
1140.30 0.1045692
1140.40 0.1045394
1140.50 0.1045097
1140.60 0.1044799
1140.70 0.1044502
1140.80 0.1044205
1140.90 0.1043907
1141.00 0.104361
1141.10 0.1043313
1141.20 0.1043016
1141.30 0.104272
1141.40 0.1042423
1141.50 0.1042126
1141.60 0.104183
1141.70 0.1041533
1141.80 0.1041237
1141.90 0.104094
1142.00 0.1040644
1142.10 0.1040348
1142.20 0.1040052
1142.30 0.1039756
1142.40 0.103946
1142.50 0.1039164
1142.60 0.1038869
1142.70 0.1038573
1142.80 0.1038278
1142.90 0.1037982
1143.00 0.1037687
1143.10 0.1037391
1143.20 0.1037096
1143.30 0.1036801
1143.40 0.1036506
1143.50 0.1036211
1143.60 0.1035916
1143.70 0.1035622
1143.80 0.1035327
1143.90 0.1035032
1144.00 0.1034738
1144.10 0.1034444
1144.20 0.1034149
1144.30 0.1033855
1144.40 0.1033561
1144.50 0.1033267
1144.60 0.1032973
1144.70 0.1032679
1144.80 0.1032385
1144.90 0.1032092
1145.00 0.1031798
1145.10 0.1031505
1145.20 0.1031211
1145.30 0.1030918
1145.40 0.1030624
1145.50 0.1030331
1145.60 0.1030038
1145.70 0.1029745
1145.80 0.1029452
1145.90 0.1029159
1146.00 0.1028867
1146.10 0.1028574
1146.20 0.1028282
1146.30 0.1027989
1146.40 0.1027697
1146.50 0.1027404
1146.60 0.1027112
1146.70 0.102682
1146.80 0.1026528
1146.90 0.1026236
1147.00 0.1025944
1147.10 0.1025652
1147.20 0.1025361
1147.30 0.1025069
1147.40 0.1024777
1147.50 0.1024486
1147.60 0.1024195
1147.70 0.1023903
1147.80 0.1023612
1147.90 0.1023321
1148.00 0.102303
1148.10 0.1022739
1148.20 0.1022448
1148.30 0.1022158
1148.40 0.1021867
1148.50 0.1021576
1148.60 0.1021286
1148.70 0.1020995
1148.80 0.1020705
1148.90 0.1020415
1149.00 0.1020125
1149.10 0.1019835
1149.20 0.1019545
1149.30 0.1019255
1149.40 0.1018965
1149.50 0.1018675
1149.60 0.1018385
1149.70 0.1018096
1149.80 0.1017806
1149.90 0.1017517
1150.00 0.1017228
1150.10 0.1016938
1150.20 0.1016649
1150.30 0.101636
1150.40 0.1016071
1150.50 0.1015782
1150.60 0.1015494
1150.70 0.1015206
1150.80 0.1014919
1150.90 0.1014631
1151.00 0.1014344
1151.10 0.1014056
1151.20 0.1013769
1151.30 0.1013482
1151.40 0.1013195
1151.50 0.1012908
1151.60 0.1012621
1151.70 0.1012335
1151.80 0.1012048
1151.90 0.1011761
1152.00 0.1011475
1152.10 0.1011188
1152.20 0.1010902
1152.30 0.1010616
1152.40 0.101033
1152.50 0.1010043
1152.60 0.1009757
1152.70 0.1009472
1152.80 0.1009186
1152.90 0.10089
1153.00 0.1008614
1153.10 0.1008329
1153.20 0.1008043
1153.30 0.1007758
1153.40 0.1007472
1153.50 0.1007187
1153.60 0.1006902
1153.70 0.1006617
1153.80 0.1006332
1153.90 0.1006047
1154.00 0.1005762
1154.10 0.1005477
1154.20 0.1005193
1154.30 0.1004908
1154.40 0.1004624
1154.50 0.1004339
1154.60 0.1004055
1154.70 0.1003771
1154.80 0.1003486
1154.90 0.1003202
1155.00 0.1002918
1155.10 0.1002634
1155.20 0.100235
1155.30 0.1002067
1155.40 0.1001783
1155.50 0.1001499
1155.60 0.1001216
1155.70 0.1000933
1155.80 0.1000649
1155.90 0.1000366
1156.00 0.1000083
1156.10 0.09997997
1156.20 0.09995167
1156.30 0.09992337
1156.40 0.09989464
1156.50 0.09986552
1156.60 0.09983641
1156.70 0.09980731
1156.80 0.09977822
1156.90 0.09974913
1157.00 0.09972006
1157.10 0.09969099
1157.20 0.09966193
1157.30 0.09963288
1157.40 0.09960384
1157.50 0.09957481
1157.60 0.09954579
1157.70 0.09951677
1157.80 0.09948776
1157.90 0.09945877
1158.00 0.09942978
1158.10 0.09940079
1158.20 0.09937182
1158.30 0.09934286
1158.40 0.0993139
1158.50 0.09928495
1158.60 0.09925602
1158.70 0.09922709
1158.80 0.09919816
1158.90 0.09916925
1159.00 0.09914035
1159.10 0.09911145
1159.20 0.09908256
1159.30 0.09905368
1159.40 0.09902481
1159.50 0.09899595
1159.60 0.0989671
1159.70 0.09893825
1159.80 0.09890942
1159.90 0.09888059
1160.00 0.09885177
1160.10 0.09882296
1160.20 0.09879416
1160.30 0.09876536
1160.40 0.09873658
1160.50 0.0987078
1160.60 0.09867903
1160.70 0.09865027
1160.80 0.09862152
1160.90 0.09859277
1161.00 0.09856404
1161.10 0.09853531
1161.20 0.09850659
1161.30 0.09847788
1161.40 0.09844918
1161.50 0.09842049
1161.60 0.0983918
1161.70 0.09836313
1161.80 0.09833446
1161.90 0.0983058
1162.00 0.09827715
1162.10 0.09824851
1162.20 0.09822082
1162.30 0.09819313
1162.40 0.09816546
1162.50 0.09813779
1162.60 0.09811013
1162.70 0.09808248
1162.80 0.09805484
1162.90 0.0980272
1163.00 0.09799957
1163.10 0.09797196
1163.20 0.09794435
1163.30 0.09791674
1163.40 0.09788915
1163.50 0.09786156
1163.60 0.09783398
1163.70 0.09780641
1163.80 0.09777885
1163.90 0.09775129
1164.00 0.09772375
1164.10 0.09769621
1164.20 0.09766868
1164.30 0.09764116
1164.40 0.09761364
1164.50 0.09758614
1164.60 0.09755864
1164.70 0.09753115
1164.80 0.09750366
1164.90 0.09747619
1165.00 0.09744872
1165.10 0.09742126
1165.20 0.09739381
1165.30 0.09736637
1165.40 0.09733894
1165.50 0.09731151
1165.60 0.09728409
1165.70 0.09725668
1165.80 0.09722928
1165.90 0.09720188
1166.00 0.0971745
1166.10 0.09714712
1166.20 0.09711975
1166.30 0.09709239
1166.40 0.09706503
1166.50 0.09703768
1166.60 0.09701034
1166.70 0.09698301
1166.80 0.09695569
1166.90 0.09692838
1167.00 0.09690107
1167.10 0.09687377
1167.20 0.09684648
1167.30 0.09681919
1167.40 0.09679192
1167.50 0.09676465
1167.60 0.09673739
1167.70 0.09671014
1167.80 0.0966829
1167.90 0.09665566
1168.00 0.09662843
1168.10 0.09660122
1168.20 0.09657401
1168.30 0.0965468
1168.40 0.09651961
1168.50 0.09649242
1168.60 0.09646524
1168.70 0.09643807
1168.80 0.09641091
1168.90 0.09638376
1169.00 0.09635661
1169.10 0.09632947
1169.20 0.09630234
1169.30 0.09627521
1169.40 0.0962481
1169.50 0.09622099
1169.60 0.09619389
1169.70 0.0961668
1169.80 0.09613971
1169.90 0.09611264
1170.00 0.09608557
1170.10 0.09605851
1170.20 0.09603146
1170.30 0.09600441
1170.40 0.09597737
1170.50 0.09595034
1170.60 0.09592332
1170.70 0.09589631
1170.80 0.0958693
1170.90 0.09584231
1171.00 0.09581532
1171.10 0.09578833
1171.20 0.09576136
1171.30 0.09573439
1171.40 0.09570743
1171.50 0.09568048
1171.60 0.09565354
1171.70 0.0956266
1171.80 0.09559968
1171.90 0.09557276
1172.00 0.09554584
1172.10 0.09551894
1172.20 0.09549204
1172.30 0.09546515
1172.40 0.09543827
1172.50 0.0954114
1172.60 0.09538453
1172.70 0.09535768
1172.80 0.09533083
1172.90 0.09530399
1173.00 0.09527715
1173.10 0.09525032
1173.20 0.09522351
1173.30 0.09519669
1173.40 0.09516989
1173.50 0.0951431
1173.60 0.09511631
1173.70 0.09508953
1173.80 0.09506284
1173.90 0.09503618
1174.00 0.09500952
1174.10 0.09498287
1174.20 0.09495624
1174.30 0.0949296
1174.40 0.09490298
1174.50 0.09487637
1174.60 0.09484976
1174.70 0.09482316
1174.80 0.09479656
1174.90 0.09476998
1175.00 0.0947434
1175.10 0.09471683
1175.20 0.09469027
1175.30 0.09466372
1175.40 0.09463717
1175.50 0.09461063
1175.60 0.0945841
1175.70 0.09455758
1175.80 0.09453106
1175.90 0.09450455
1176.00 0.09447805
1176.10 0.09445156
1176.20 0.09442507
1176.30 0.0943986
1176.40 0.09437213
1176.50 0.09434566
1176.60 0.09431921
1176.70 0.09429276
1176.80 0.09426632
1176.90 0.09423989
1177.00 0.09421347
1177.10 0.09418705
1177.20 0.09416064
1177.30 0.09413424
1177.40 0.09410784
1177.50 0.09408146
1177.60 0.09405508
1177.70 0.09402871
1177.80 0.09400235
1177.90 0.09397599
1178.00 0.09394964
1178.10 0.0939233
1178.20 0.09389697
1178.30 0.09387064
1178.40 0.09384432
1178.50 0.09381801
1178.60 0.09379171
1178.70 0.09376542
1178.80 0.09373913
1178.90 0.09371285
1179.00 0.09368658
1179.10 0.09366031
1179.20 0.09363405
1179.30 0.0936078
1179.40 0.09358156
1179.50 0.09355533
1179.60 0.0935291
1179.70 0.09350288
1179.80 0.09347667
1179.90 0.09345047
1180.00 0.09342427
1180.10 0.09339809
1180.20 0.09337191
1180.30 0.09334573
1180.40 0.09331957
1180.50 0.09329341
1180.60 0.09326726
1180.70 0.09324112
1180.80 0.09321498
1180.90 0.09318886
1181.00 0.09316274
1181.10 0.09313662
1181.20 0.09311052
1181.30 0.09308442
1181.40 0.09305833
1181.50 0.09303225
1181.60 0.09300618
1181.70 0.09298011
1181.80 0.09295405
1181.90 0.092928
1182.00 0.09290195
1182.10 0.09287591
1182.20 0.09284988
1182.30 0.09282386
1182.40 0.09279785
1182.50 0.09277184
1182.60 0.09274584
1182.70 0.09271985
1182.80 0.09269386
1182.90 0.09266788
1183.00 0.09264191
1183.10 0.09261595
1183.20 0.09258999
1183.30 0.09256405
1183.40 0.09253811
1183.50 0.09251217
1183.60 0.09248625
1183.70 0.09246033
1183.80 0.09243442
1183.90 0.09240852
1184.00 0.09238262
1184.10 0.09235673
1184.20 0.09233085
1184.30 0.09230498
1184.40 0.09227911
1184.50 0.09225325
1184.60 0.0922274
1184.70 0.09220156
1184.80 0.09217572
1184.90 0.09214989
1185.00 0.09212407
1185.10 0.09209826
1185.20 0.09207245
1185.30 0.09204665
1185.40 0.09202086
1185.50 0.09199511
1185.60 0.09196944
1185.70 0.09194377
1185.80 0.09191811
1185.90 0.09189245
1186.00 0.0918668
1186.10 0.09184116
1186.20 0.09181553
1186.30 0.09178991
1186.40 0.09176429
1186.50 0.09173868
1186.60 0.09171307
1186.70 0.09168748
1186.80 0.09166189
1186.90 0.09163631
1187.00 0.09161073
1187.10 0.09158517
1187.20 0.09155961
1187.30 0.09153405
1187.40 0.09150851
1187.50 0.09148297
1187.60 0.09145744
1187.70 0.09143192
1187.80 0.0914064
1187.90 0.09138089
1188.00 0.09135539
1188.10 0.0913299
1188.20 0.09130441
1188.30 0.09127893
1188.40 0.09125346
1188.50 0.091228
1188.60 0.09120254
1188.70 0.09117709
1188.80 0.09115165
1188.90 0.09112621
1189.00 0.09110078
1189.10 0.09107536
1189.20 0.09104995
1189.30 0.09102454
1189.40 0.09099914
1189.50 0.09097375
1189.60 0.09094837
1189.70 0.09092299
1189.80 0.09089762
1189.90 0.09087225
1190.00 0.0908469
1190.10 0.09082155
1190.20 0.09079621
1190.30 0.09077088
1190.40 0.09074555
1190.50 0.09072023
1190.60 0.09069492
1190.70 0.09066961
1190.80 0.09064431
1190.90 0.09061902
1191.00 0.09059374
1191.10 0.09056846
1191.20 0.09054319
1191.30 0.09051793
1191.40 0.09049268
1191.50 0.09046743
1191.60 0.09044219
1191.70 0.09041696
1191.80 0.09039173
1191.90 0.09036651
1192.00 0.0903413
1192.10 0.0903161
1192.20 0.0902909
1192.30 0.09026571
1192.40 0.09024053
1192.50 0.09021535
1192.60 0.09019018
1192.70 0.09016502
1192.80 0.09013987
1192.90 0.09011472
1193.00 0.09008958
1193.10 0.09006445
1193.20 0.09003932
1193.30 0.0900142
1193.40 0.08998909
1193.50 0.08996399
1193.60 0.08993889
1193.70 0.0899138
1193.80 0.08988872
1193.90 0.08986364
1194.00 0.08983858
1194.10 0.08981352
1194.20 0.08978846
1194.30 0.08976341
1194.40 0.08973837
1194.50 0.08971334
1194.60 0.08968832
1194.70 0.0896633
1194.80 0.08963829
1194.90 0.08961328
1195.00 0.08958829
1195.10 0.0895633
1195.20 0.08953831
1195.30 0.08951334
1195.40 0.08948837
1195.50 0.08946341
1195.60 0.08943845
1195.70 0.08941351
1195.80 0.08938857
1195.90 0.08936363
1196.00 0.08933871
1196.10 0.08931379
1196.20 0.08928888
1196.30 0.08926397
1196.40 0.08923907
1196.50 0.08921418
1196.60 0.0891893
1196.70 0.08916442
1196.80 0.08913955
1196.90 0.08911469
1197.00 0.08908984
1197.10 0.08906499
1197.20 0.08904015
1197.30 0.08901531
1197.40 0.08899057
1197.50 0.08896585
1197.60 0.08894114
1197.70 0.08891643
1197.80 0.08889174
1197.90 0.08886704
1198.00 0.08884236
1198.10 0.08881768
1198.20 0.08879301
1198.30 0.08876834
1198.40 0.08874369
1198.50 0.08871904
1198.60 0.08869439
1198.70 0.08866976
1198.80 0.08864513
1198.90 0.08862051
1199.00 0.08859589
1199.10 0.08857128
1199.20 0.08854668
1199.30 0.08852209
1199.40 0.0884975
1199.50 0.08847292
1199.60 0.08844835
1199.70 0.08842378
1199.80 0.08839922
1199.90 0.08837467
1200.00 0.08835012
