# Version 2.1 - nm, norm@500 to 1, cut digits, bergeron_He_3500_85.dat_3500
# Wavelength(nm)  Flambda(ergs/cm^s/s/nm)
300.00 0.01379862
300.10 0.01385427
300.20 0.01391001
300.30 0.01396608
300.40 0.01402476
300.50 0.01408335
300.60 0.01414187
300.70 0.0142003
300.80 0.01425866
300.90 0.01431693
301.00 0.01437512
301.10 0.01443323
301.20 0.01449126
301.30 0.01454921
301.40 0.01460708
301.50 0.01466487
301.60 0.01472258
301.70 0.01478022
301.80 0.01483777
301.90 0.01489524
302.00 0.01495263
302.10 0.01501368
302.20 0.01507506
302.30 0.01513636
302.40 0.01519757
302.50 0.0152587
302.60 0.01531974
302.70 0.0153807
302.80 0.01544158
302.90 0.01550237
303.00 0.01556308
303.10 0.0156237
303.20 0.01568424
303.30 0.01574505
303.40 0.0158089
303.50 0.01587267
303.60 0.01593635
303.70 0.01599994
303.80 0.01606345
303.90 0.01612686
304.00 0.0161902
304.10 0.01625344
304.20 0.0163166
304.30 0.01637967
304.40 0.01644265
304.50 0.01650555
304.60 0.01657235
304.70 0.01663949
304.80 0.01670654
304.90 0.0167735
305.00 0.01684037
305.10 0.01690715
305.20 0.01697384
305.30 0.01704043
305.40 0.01710694
305.50 0.01717335
305.60 0.01723968
305.70 0.01730591
305.80 0.01737205
305.90 0.01743811
306.00 0.01750407
306.10 0.01756994
306.20 0.01763572
306.30 0.01770142
306.40 0.01777228
306.50 0.01784461
306.60 0.01791684
306.70 0.01798897
306.80 0.01806101
306.90 0.01813294
307.00 0.01820478
307.10 0.01827653
307.20 0.01834817
307.30 0.01841972
307.40 0.01849117
307.50 0.01856253
307.60 0.01863379
307.70 0.01870495
307.80 0.01877601
307.90 0.01884698
308.00 0.01891785
308.10 0.01898863
308.20 0.01905931
308.30 0.0191299
308.40 0.01920039
308.50 0.01927078
308.60 0.01934108
308.70 0.01941128
308.80 0.01948254
308.90 0.01955696
309.00 0.01963075
309.10 0.01970444
309.20 0.01977802
309.30 0.01985151
309.40 0.01992524
309.50 0.02000095
309.60 0.02007656
309.70 0.02015206
309.80 0.02022747
309.90 0.02030277
310.00 0.02037797
310.10 0.02045307
310.20 0.02052807
310.30 0.02060297
310.40 0.02067989
310.50 0.020759
310.60 0.02083801
310.70 0.0209169
310.80 0.0209957
310.90 0.02107438
311.00 0.02115244
311.10 0.02123039
311.20 0.02130823
311.30 0.02138699
311.40 0.02146854
311.50 0.02154998
311.60 0.02163132
311.70 0.02171254
311.80 0.02179366
311.90 0.02187467
312.00 0.02195557
312.10 0.02203636
312.20 0.02211598
312.30 0.02219917
312.40 0.02228424
312.50 0.02236062
312.60 0.02244227
312.70 0.02252381
312.80 0.02260524
312.90 0.0226872
313.00 0.02276973
313.10 0.02285215
313.20 0.02293446
313.30 0.02301757
313.40 0.02310316
313.50 0.02318864
313.60 0.023274
313.70 0.02335925
313.80 0.02344439
313.90 0.02352941
314.00 0.02361432
314.10 0.02370206
314.20 0.02378969
314.30 0.0238772
314.40 0.02396459
314.50 0.02405186
314.60 0.02413903
314.70 0.02422607
314.80 0.02431573
314.90 0.02440455
315.00 0.02448406
315.10 0.02457392
315.20 0.02466365
315.30 0.02475327
315.40 0.02484277
315.50 0.02493215
315.60 0.02502141
315.70 0.02511492
315.80 0.02520832
315.90 0.02530159
316.00 0.02539474
316.10 0.0254834
316.20 0.02557194
316.30 0.02566037
316.40 0.02575739
316.50 0.02584558
316.60 0.02594235
316.70 0.0260303
316.80 0.02611813
316.90 0.02621453
317.00 0.02631081
317.10 0.02640695
317.20 0.02650297
317.30 0.02659578
317.40 0.0266896
317.50 0.0267865
317.60 0.02688328
317.70 0.02697993
317.80 0.02707645
317.90 0.0271616
318.00 0.02726126
318.10 0.02735615
318.20 0.02745092
318.30 0.02754557
318.40 0.02764233
318.50 0.02774532
318.60 0.02783924
318.70 0.02794197
318.80 0.02803941
318.90 0.02813244
319.00 0.02823889
319.10 0.02833252
319.20 0.02842772
319.30 0.02852758
319.40 0.02862731
319.50 0.0287269
319.60 0.02883468
319.70 0.02893401
319.80 0.02903322
319.90 0.02913229
320.00 0.02923223
320.10 0.02933311
320.20 0.02944123
320.30 0.02954707
320.40 0.02964585
320.50 0.0297479
320.60 0.02985253
320.70 0.02995262
320.80 0.03005461
320.90 0.03015867
321.00 0.03026259
321.10 0.03036638
321.20 0.03047771
321.30 0.03058442
321.40 0.030691
321.50 0.03079743
321.60 0.03090373
321.70 0.03100989
321.80 0.03111585
321.90 0.03122162
322.00 0.03133588
322.10 0.03144396
322.20 0.03155191
322.30 0.03165971
322.40 0.03176738
322.50 0.0318749
322.60 0.03198229
322.70 0.03208954
322.80 0.03220318
322.90 0.03231396
323.00 0.0324246
323.10 0.03253509
323.20 0.03264545
323.30 0.03275566
323.40 0.03286573
323.50 0.03297565
323.60 0.03308544
323.70 0.03319508
323.80 0.03330458
323.90 0.03341394
324.00 0.03352658
324.10 0.03363907
324.20 0.03375142
324.30 0.03386774
324.40 0.03398952
324.50 0.03410456
324.60 0.03421946
324.70 0.03433421
324.80 0.03444881
324.90 0.03456326
325.00 0.03467757
325.10 0.03479173
325.20 0.03490654
325.30 0.0350229
325.40 0.03513911
325.50 0.03525667
325.60 0.03537591
325.70 0.03549499
325.80 0.03561392
325.90 0.0357343
326.00 0.03585626
326.10 0.03597807
326.20 0.03609972
326.30 0.03621767
326.40 0.03632541
326.50 0.03644963
326.60 0.0365737
326.70 0.03669761
326.80 0.03682136
326.90 0.03694495
327.00 0.03706839
327.10 0.03719167
327.20 0.03731479
327.30 0.03743775
327.40 0.03756055
327.50 0.0376832
327.60 0.03780569
327.70 0.03792802
327.80 0.0380502
327.90 0.03817811
328.00 0.03830743
328.10 0.03843073
328.20 0.03855387
328.30 0.03867685
328.40 0.03879968
328.50 0.03892923
328.60 0.03906024
328.70 0.03919107
328.80 0.0393217
328.90 0.03945205
329.00 0.03958224
329.10 0.03971226
329.20 0.03984212
329.30 0.03997181
329.40 0.04010134
329.50 0.0402307
329.60 0.0403599
329.70 0.04048893
329.80 0.0406178
329.90 0.04074651
330.00 0.04087689
330.10 0.04100936
330.20 0.04114166
330.30 0.04127379
330.40 0.04140759
330.50 0.04154322
330.60 0.04167867
330.70 0.04181395
330.80 0.04194906
330.90 0.042084
331.00 0.04221877
331.10 0.04235337
331.20 0.0424878
331.30 0.04262206
331.40 0.04275615
331.50 0.04289277
331.60 0.04303251
331.70 0.04317209
331.80 0.04331253
331.90 0.04345284
332.00 0.04359298
332.10 0.04373293
332.20 0.04387272
332.30 0.04401232
332.40 0.04415175
332.50 0.044291
332.60 0.04443008
332.70 0.04456899
332.80 0.04470771
332.90 0.04484627
333.00 0.04498465
333.10 0.0451256
333.20 0.04526975
333.30 0.04541371
333.40 0.04555749
333.50 0.04570109
333.60 0.04584452
333.70 0.04598776
333.80 0.04613082
333.90 0.0462737
334.00 0.0464164
334.10 0.0465608
334.20 0.04670731
334.30 0.04685363
334.40 0.04699977
334.50 0.04714573
334.60 0.0472915
334.70 0.0474397
334.80 0.04759033
334.90 0.04773996
335.00 0.04788941
335.10 0.04804068
335.20 0.04819052
335.30 0.04834522
335.40 0.04848693
335.50 0.04864396
335.60 0.04879499
335.70 0.04894041
335.80 0.04909686
335.90 0.04925138
336.00 0.04940359
336.10 0.0495556
336.20 0.04970742
336.30 0.04986079
336.40 0.05001609
336.50 0.05017119
336.60 0.0503261
336.70 0.05048082
336.80 0.05063535
336.90 0.05079057
337.00 0.05094669
337.10 0.05110261
337.20 0.05125834
337.30 0.05141463
337.40 0.0515718
337.50 0.05172878
337.60 0.05188556
337.70 0.05204215
337.80 0.05219854
337.90 0.05235714
338.00 0.05251847
338.10 0.05267959
338.20 0.05284052
338.30 0.05300125
338.40 0.05316284
338.50 0.05332683
338.60 0.05349062
338.70 0.05365421
338.80 0.0538176
338.90 0.05398079
339.00 0.05414377
339.10 0.05430655
339.20 0.05446913
339.30 0.054631
339.40 0.05479192
339.50 0.05495666
339.60 0.05512608
339.70 0.0552953
339.80 0.0554643
339.90 0.0556331
340.00 0.05580169
340.10 0.05597008
340.20 0.05613825
340.30 0.05630622
340.40 0.05647398
340.50 0.05664153
340.60 0.05680888
340.70 0.05697602
340.80 0.05714562
340.90 0.05731883
341.00 0.05749165
341.10 0.05766405
341.20 0.05783624
341.30 0.05800822
341.40 0.05817999
341.50 0.05835155
341.60 0.05852289
341.70 0.05869403
341.80 0.05886742
341.90 0.05904362
342.00 0.0592196
342.10 0.05939537
342.20 0.0595661
342.30 0.05973985
342.40 0.05991925
342.50 0.0600988
342.60 0.06027812
342.70 0.06045722
342.80 0.06063611
342.90 0.06081478
343.00 0.06099274
343.10 0.06116988
343.20 0.06134681
343.30 0.06152353
343.40 0.06170292
343.50 0.06188625
343.60 0.06206935
343.70 0.06225223
343.80 0.06243489
343.90 0.06261733
344.00 0.06280054
344.10 0.06298499
344.20 0.06316921
344.30 0.0633532
344.40 0.06353697
344.50 0.06372052
344.60 0.06390384
344.70 0.06408694
344.80 0.06426982
344.90 0.06445247
345.00 0.06464956
345.10 0.06483176
345.20 0.06501698
345.30 0.06520664
345.40 0.06539607
345.50 0.06558425
345.60 0.06577263
345.70 0.06596321
345.80 0.06615356
345.90 0.06634368
346.00 0.06653357
346.10 0.06672323
346.20 0.06691525
346.30 0.06711074
346.40 0.06730601
346.50 0.06750103
346.60 0.06769582
346.70 0.06789038
346.80 0.06808469
346.90 0.06827878
347.00 0.06847262
347.10 0.06866624
347.20 0.0688625
347.30 0.06906269
347.40 0.06926263
347.50 0.06946233
347.60 0.06966179
347.70 0.06986101
347.80 0.07005999
347.90 0.07025873
348.00 0.07045723
348.10 0.07065549
348.20 0.07085351
348.30 0.07105129
348.40 0.07124883
348.50 0.07144613
348.60 0.0716432
348.70 0.07184493
348.80 0.07204971
348.90 0.07225674
349.00 0.07246353
349.10 0.07267007
349.20 0.07287636
349.30 0.07308241
349.40 0.0732882
349.50 0.07349375
349.60 0.07369905
349.70 0.0739041
349.80 0.07410891
349.90 0.07431347
350.00 0.07451779
350.10 0.07472186
350.20 0.07492568
350.30 0.0751332
350.40 0.07534613
350.50 0.07555881
350.60 0.07577123
350.70 0.07598339
350.80 0.07619531
350.90 0.07640696
351.00 0.07661837
351.10 0.07682952
351.20 0.07704042
351.30 0.07725107
351.40 0.07746395
351.50 0.077681
351.60 0.07789779
351.70 0.07811433
351.80 0.0783306
351.90 0.07854662
352.00 0.07876237
352.10 0.07897788
352.20 0.07918834
352.30 0.07940328
352.40 0.07962555
352.50 0.07984756
352.60 0.0800693
352.70 0.08029077
352.80 0.08051198
352.90 0.08073293
353.00 0.08095361
353.10 0.08117403
353.20 0.08139419
353.30 0.08161409
353.40 0.08183372
353.50 0.08205682
353.60 0.08228059
353.70 0.08250409
353.80 0.08272733
353.90 0.08295234
354.00 0.08318072
354.10 0.08340882
354.20 0.08363665
354.30 0.08386421
354.40 0.0840915
354.50 0.08431851
354.60 0.08454526
354.70 0.08477175
354.80 0.08499897
354.90 0.08522738
355.00 0.08545552
355.10 0.08568339
355.20 0.08591098
355.30 0.08614471
355.40 0.08637816
355.50 0.08661133
355.60 0.08684422
355.70 0.08707859
355.80 0.08731346
355.90 0.0875433
356.00 0.08777919
356.10 0.08801849
356.20 0.0882575
356.30 0.08849624
356.40 0.08873469
356.50 0.08897286
356.60 0.08921075
356.70 0.08944836
356.80 0.08968569
356.90 0.08992274
357.00 0.09015951
357.10 0.090396
357.20 0.09063221
357.30 0.09086814
357.40 0.09110598
357.50 0.09134744
357.60 0.0915886
357.70 0.09182948
357.80 0.09207539
357.90 0.09232101
358.00 0.09256761
358.10 0.09281423
358.20 0.09306057
358.30 0.09330661
358.40 0.09355237
358.50 0.09379784
358.60 0.09404302
358.70 0.09428792
358.80 0.09453252
358.90 0.09477684
359.00 0.09502324
359.10 0.09527357
359.20 0.09552342
359.30 0.09577175
359.40 0.09601979
359.50 0.09626952
359.60 0.09651944
359.70 0.09676907
359.80 0.09702146
359.90 0.09727357
360.00 0.09752714
360.10 0.09778355
360.20 0.09803965
360.30 0.09829546
360.40 0.09855097
360.50 0.09880618
360.60 0.09906793
360.70 0.09932467
360.80 0.09958111
360.90 0.09983725
361.00 0.1000929
361.10 0.1003522
361.20 0.1006056
361.30 0.1008652
361.40 0.1011225
361.50 0.1013862
361.60 0.1016455
361.70 0.1019092
361.80 0.1021718
361.90 0.1024327
362.00 0.1026932
362.10 0.1029585
362.20 0.1032239
362.30 0.1034875
362.40 0.1037507
362.50 0.1040136
362.60 0.1042762
362.70 0.1045479
362.80 0.1048215
362.90 0.1050866
363.00 0.1053513
363.10 0.1056194
363.20 0.1058873
363.30 0.1061584
363.40 0.1064302
363.50 0.1066884
363.60 0.1069595
363.70 0.1072377
363.80 0.107514
363.90 0.1077873
364.00 0.1080603
364.10 0.108333
364.20 0.1086053
364.30 0.1088749
364.40 0.1091435
364.50 0.1094282
364.60 0.1097038
364.70 0.1099791
364.80 0.1102541
364.90 0.1105277
365.00 0.1108009
365.10 0.1110804
365.20 0.1113661
365.30 0.1116384
365.40 0.1119169
365.50 0.1122017
365.60 0.1124861
365.70 0.1127684
365.80 0.1130503
365.90 0.1133293
366.00 0.1136074
366.10 0.1138906
366.20 0.1141735
366.30 0.1144561
366.40 0.1147384
366.50 0.1150339
366.60 0.1153121
366.70 0.115598
366.80 0.1158836
366.90 0.116171
367.00 0.1164616
367.10 0.116752
367.20 0.117042
367.30 0.1173317
367.40 0.1176211
367.50 0.1179089
367.60 0.1181961
367.70 0.1184882
367.80 0.11878
367.90 0.1190715
368.00 0.1193623
368.10 0.1196607
368.20 0.1199565
368.30 0.120252
368.40 0.1205471
368.50 0.1208419
368.60 0.1211364
368.70 0.1214305
368.80 0.1217243
368.90 0.1220202
369.00 0.1223217
369.10 0.1226232
369.20 0.1229187
369.30 0.1232187
369.40 0.1235184
369.50 0.1238177
369.60 0.1241191
369.70 0.1244202
369.80 0.1247217
369.90 0.1250229
370.00 0.1253237
370.10 0.1256282
370.20 0.1259358
370.30 0.126243
370.40 0.1265435
370.50 0.1268501
370.60 0.1271694
370.70 0.1274213
370.80 0.1277312
370.90 0.1280408
371.00 0.1283538
371.10 0.1286664
371.20 0.1289749
371.30 0.1292831
371.40 0.1296058
371.50 0.1299125
371.60 0.1302189
371.70 0.130525
371.80 0.1308307
371.90 0.131136
372.00 0.1314654
372.10 0.1317546
372.20 0.1320825
372.30 0.13241
372.40 0.1327371
372.50 0.1330639
372.60 0.1333903
372.70 0.1337163
372.80 0.1340191
372.90 0.1343217
373.00 0.1346276
373.10 0.1349332
373.20 0.1352991
373.30 0.1356647
373.40 0.1359047
373.50 0.1362695
373.60 0.1365714
373.70 0.136873
373.80 0.1372835
373.90 0.1375999
374.00 0.1379004
374.10 0.1382005
374.20 0.1385003
374.30 0.1387998
374.40 0.1391922
374.50 0.139519
374.60 0.1398484
374.70 0.1401785
374.80 0.1405082
374.90 0.1408375
375.00 0.1411758
375.10 0.1415138
375.20 0.1418513
375.30 0.1421826
375.40 0.1425134
375.50 0.142844
375.60 0.1431741
375.70 0.1435039
375.80 0.1438333
375.90 0.1441623
376.00 0.144452
376.10 0.1448044
376.20 0.145157
376.30 0.1455092
376.40 0.145861
376.50 0.1461935
376.60 0.1464975
376.70 0.1468012
376.80 0.1471286
376.90 0.1474799
377.00 0.1478307
377.10 0.1481811
377.20 0.1485293
377.30 0.1488704
377.40 0.1492112
377.50 0.1495515
377.60 0.1498977
377.70 0.1502436
377.80 0.1505891
377.90 0.1509342
378.00 0.1513472
378.10 0.1516925
378.20 0.1520357
378.30 0.1523784
378.40 0.1527208
378.50 0.1530628
378.60 0.1534045
378.70 0.1537457
378.80 0.1540866
378.90 0.1544369
379.00 0.1548051
379.10 0.1551603
379.20 0.1555151
379.30 0.1558664
379.40 0.1562142
379.50 0.1565615
379.60 0.1568995
379.70 0.1572308
379.80 0.1575893
379.90 0.1579473
380.00 0.158305
380.10 0.1586623
380.20 0.1590192
380.30 0.1593756
380.40 0.1597317
380.50 0.1600874
380.60 0.1604346
380.70 0.1608152
380.80 0.1611954
380.90 0.1615753
381.00 0.1619546
381.10 0.16232
381.20 0.1626649
381.30 0.1629669
381.40 0.1633459
381.50 0.1637519
381.60 0.1641219
381.70 0.1644469
381.80 0.1648659
381.90 0.1651981
382.00 0.1655299
382.10 0.1659211
382.20 0.1662641
382.30 0.1666545
382.40 0.1670326
382.50 0.1673928
382.60 0.1677526
382.70 0.1681327
382.80 0.1685261
382.90 0.1689095
383.00 0.1692924
383.10 0.1696749
383.20 0.1700547
383.30 0.170425
383.40 0.1707809
383.50 0.1711154
383.60 0.1715424
383.70 0.1719212
383.80 0.1722996
383.90 0.1726776
384.00 0.1730552
384.10 0.1734323
384.20 0.1738091
384.30 0.1741854
384.40 0.1745619
384.50 0.1749386
384.60 0.1753148
384.70 0.1756907
384.80 0.1760831
384.90 0.1765067
385.00 0.1768695
385.10 0.1772357
385.20 0.1777078
385.30 0.1780926
385.40 0.1784713
385.50 0.1788437
385.60 0.1792158
385.70 0.1795874
385.80 0.1799619
385.90 0.180348
386.00 0.1807432
386.10 0.1811474
386.20 0.1815502
386.30 0.1819526
386.40 0.1823374
386.50 0.1827402
386.60 0.1831433
386.70 0.1835151
386.80 0.1838865
386.90 0.1842866
387.00 0.1846921
387.10 0.1850623
387.20 0.1854785
387.30 0.1859176
387.40 0.186285
387.50 0.1867395
387.60 0.1871208
387.70 0.1875174
387.80 0.1879135
387.90 0.1883093
388.00 0.1887143
388.10 0.1891183
388.20 0.1894742
388.30 0.1898907
388.40 0.1903067
388.50 0.19072
388.60 0.1911203
388.70 0.191583
388.80 0.1919504
388.90 0.1923202
389.00 0.1927682
389.10 0.1931402
389.20 0.1935622
389.30 0.1939738
389.40 0.1944051
389.50 0.1948168
389.60 0.1952104
389.70 0.1956352
389.80 0.1960423
389.90 0.1964491
390.00 0.1968554
390.10 0.1972612
390.20 0.1976666
390.30 0.1980826
390.40 0.1985107
390.50 0.1989383
390.60 0.1993655
390.70 0.1997922
390.80 0.2002123
390.90 0.2006257
391.00 0.20104
391.10 0.2014907
391.20 0.2019217
391.30 0.2023131
391.40 0.202741
391.50 0.2031685
391.60 0.2035954
391.70 0.204022
391.80 0.204448
391.90 0.2048739
392.00 0.2053038
392.10 0.2057393
392.20 0.2061603
392.30 0.2065171
392.40 0.2069532
392.50 0.2074353
392.60 0.2078954
392.70 0.2082419
392.80 0.208701
392.90 0.2090835
393.00 0.2095177
393.10 0.2099665
393.20 0.2104312
393.30 0.2108879
393.40 0.2113216
393.50 0.2117065
393.60 0.2121426
393.70 0.2125974
393.80 0.2130518
393.90 0.2135057
394.00 0.2139574
394.10 0.2143779
394.20 0.2147819
394.30 0.2152218
394.40 0.2156606
394.50 0.2161681
394.60 0.2165592
394.70 0.2169633
394.80 0.217418
394.90 0.2178732
395.00 0.2183526
395.10 0.2187637
395.20 0.2191895
395.30 0.2196239
395.40 0.2200579
395.50 0.2205238
395.60 0.2210013
395.70 0.2214706
395.80 0.2219188
395.90 0.2223666
396.00 0.2228123
396.10 0.2232457
396.20 0.2236886
396.30 0.2241309
396.40 0.2245728
396.50 0.2250142
396.60 0.2254552
396.70 0.2259734
396.80 0.2263905
396.90 0.2268692
397.00 0.2272861
397.10 0.2277247
397.20 0.2282615
397.30 0.2286493
397.40 0.2291246
397.50 0.2295994
397.60 0.2300734
397.70 0.2305443
397.80 0.2310146
397.90 0.2314749
398.00 0.2319091
398.10 0.2323429
398.20 0.2327931
398.30 0.2332619
398.40 0.2337304
398.50 0.2342045
398.60 0.2346774
398.70 0.2351434
398.80 0.2356074
398.90 0.2360662
399.00 0.2365159
399.10 0.2369991
399.20 0.2374828
399.30 0.237966
399.40 0.2384486
399.50 0.2389308
399.60 0.2393976
399.70 0.2398585
399.80 0.2403189
399.90 0.2407789
400.00 0.2412385
400.10 0.2417046
400.20 0.242189
400.30 0.2426473
400.40 0.2431281
400.50 0.2436634
400.60 0.2440868
400.70 0.2445624
400.80 0.2451064
400.90 0.2455443
401.00 0.246004
401.10 0.2464744
401.20 0.2470081
401.30 0.2475106
401.40 0.2479901
401.50 0.2484676
401.60 0.2489441
401.70 0.2494022
401.80 0.2498591
401.90 0.250359
402.00 0.2508253
402.10 0.2513282
402.20 0.2518642
402.30 0.2522799
402.40 0.2527897
402.50 0.2533049
402.60 0.2537402
402.70 0.2542364
402.80 0.2547551
402.90 0.2552518
403.00 0.2557695
403.10 0.2562007
403.20 0.2567371
403.30 0.2572696
403.40 0.2577408
403.50 0.2582294
403.60 0.2587242
403.70 0.2591851
403.80 0.2597168
403.90 0.2601956
404.00 0.2606942
404.10 0.2612355
404.20 0.2616934
404.30 0.2621508
404.40 0.2626707
404.50 0.263224
404.60 0.2636798
404.70 0.2641885
404.80 0.2647151
404.90 0.2652041
405.00 0.2657031
405.10 0.2662024
405.20 0.2667159
405.30 0.2672289
405.40 0.2677338
405.50 0.2682382
405.60 0.268742
405.70 0.2692453
405.80 0.2697481
405.90 0.2702503
406.00 0.2707558
406.10 0.2712609
406.20 0.2717653
406.30 0.2722693
406.40 0.2727747
406.50 0.2733336
406.60 0.2738567
406.70 0.2743547
406.80 0.2748785
406.90 0.275369
407.00 0.275897
407.10 0.2764245
407.20 0.2769513
407.30 0.2774777
407.40 0.2780035
407.50 0.2785287
407.60 0.2790534
407.70 0.2795775
407.80 0.2801011
407.90 0.2806233
408.00 0.2811155
408.10 0.2816384
408.20 0.2821756
408.30 0.2826849
408.40 0.2831936
408.50 0.2837522
408.60 0.2842639
408.70 0.2847751
408.80 0.2852935
408.90 0.2858593
409.00 0.2863798
409.10 0.2868999
409.20 0.2874194
409.30 0.2879384
409.40 0.288458
409.50 0.2890154
409.60 0.2895722
409.70 0.290123
409.80 0.2906514
409.90 0.2911773
410.00 0.2916397
410.10 0.2921888
410.20 0.2927352
410.30 0.2932805
410.40 0.2938236
410.50 0.2943614
410.60 0.2948986
410.70 0.2954332
410.80 0.2959588
410.90 0.2964839
411.00 0.2970326
411.10 0.2975897
411.20 0.2981463
411.30 0.298703
411.40 0.299262
411.50 0.2998081
411.60 0.3003536
411.70 0.3008941
411.80 0.3014165
411.90 0.3019589
412.00 0.3024801
412.10 0.3030265
412.20 0.3036237
412.30 0.3041297
412.40 0.3046846
412.50 0.3052614
412.60 0.3057721
412.70 0.3063293
412.80 0.3068977
412.90 0.3074264
413.00 0.3080332
413.10 0.3085736
413.20 0.3091133
413.30 0.3096525
413.40 0.3101912
413.50 0.3107404
413.60 0.3113264
413.70 0.3118892
413.80 0.3124515
413.90 0.3130131
414.00 0.3135742
414.10 0.3141347
414.20 0.3147068
414.30 0.3152154
414.40 0.315825
414.50 0.3163254
414.60 0.3169286
414.70 0.3174856
414.80 0.3180421
414.90 0.318598
415.00 0.3191533
415.10 0.3197081
415.20 0.3202663
415.30 0.3208366
415.40 0.3214063
415.50 0.3219755
415.60 0.3225444
415.70 0.3231127
415.80 0.323682
415.90 0.3242561
416.00 0.3248295
416.10 0.3254063
416.20 0.3259985
416.30 0.32659
416.40 0.3271809
416.50 0.3277699
416.60 0.328316
416.70 0.328863
416.80 0.3294613
416.90 0.3300527
417.00 0.3306384
417.10 0.3311397
417.20 0.3317325
417.30 0.3323244
417.40 0.332908
417.50 0.333491
417.60 0.3340788
417.70 0.3346872
417.80 0.3352764
417.90 0.3358649
418.00 0.3364529
418.10 0.3370402
418.20 0.3376269
418.30 0.3382134
418.40 0.3388059
418.50 0.33939
418.60 0.3399736
418.70 0.3405565
418.80 0.3411388
418.90 0.3417206
419.00 0.3423017
419.10 0.3428823
419.20 0.3434622
419.30 0.3440425
419.40 0.3446492
419.50 0.3452553
419.60 0.3458541
419.70 0.3464251
419.80 0.3469957
419.90 0.3475751
420.00 0.3481843
420.10 0.3487929
420.20 0.3494008
420.30 0.3500082
420.40 0.3506149
420.50 0.351221
420.60 0.3518264
420.70 0.3524313
420.80 0.3530355
420.90 0.3536383
421.00 0.3542137
421.10 0.3547884
421.20 0.3553732
421.30 0.3559895
421.40 0.3566051
421.50 0.3572201
421.60 0.3578345
421.70 0.3584483
421.80 0.3590615
421.90 0.3596706
422.00 0.3602682
422.10 0.3608661
422.20 0.3614668
422.30 0.3620669
422.40 0.3626671
422.50 0.3632903
422.60 0.3639128
422.70 0.3645347
422.80 0.365156
422.90 0.3657767
423.00 0.3663967
423.10 0.3670162
423.20 0.3676349
423.30 0.3682531
423.40 0.3688706
423.50 0.3694875
423.60 0.3701038
423.70 0.3707195
423.80 0.3713345
423.90 0.371949
424.00 0.3725628
424.10 0.3731759
424.20 0.3737885
424.30 0.3744004
424.40 0.3750404
424.50 0.3756654
424.60 0.3762897
424.70 0.3769134
424.80 0.3775365
424.90 0.3781589
425.00 0.3787807
425.10 0.3794019
425.20 0.3800225
425.30 0.3806424
425.40 0.3812642
425.50 0.3819015
425.60 0.3825383
425.70 0.3831744
425.80 0.3838098
425.90 0.3844446
426.00 0.3850788
426.10 0.3857123
426.20 0.3863452
426.30 0.3869775
426.40 0.3876091
426.50 0.3882401
426.60 0.3888705
426.70 0.3895002
426.80 0.3901293
426.90 0.3907584
427.00 0.3914078
427.10 0.3920566
427.20 0.3927047
427.30 0.3933522
427.40 0.393999
427.50 0.3946451
427.60 0.3952907
427.70 0.3959355
427.80 0.3965798
427.90 0.3972234
428.00 0.3978663
428.10 0.3985086
428.20 0.3991502
428.30 0.3997913
428.40 0.4004316
428.50 0.4010714
428.60 0.4017104
428.70 0.4023489
428.80 0.4029887
428.90 0.403654
429.00 0.4043187
429.10 0.4049828
429.20 0.4056462
429.30 0.4063089
429.40 0.4069709
429.50 0.4076323
429.60 0.4082931
429.70 0.4089531
429.80 0.4096126
429.90 0.4102713
430.00 0.4109294
430.10 0.4115869
430.20 0.4122437
430.30 0.4128998
430.40 0.4135553
430.50 0.4142101
430.60 0.4148643
430.70 0.4155178
430.80 0.4161707
430.90 0.4168229
431.00 0.4174745
431.10 0.4181254
431.20 0.4187757
431.30 0.4194273
431.40 0.4201044
431.50 0.4207808
431.60 0.4214565
431.70 0.4221316
431.80 0.422806
431.90 0.4234797
432.00 0.4241528
432.10 0.4248252
432.20 0.4254969
432.30 0.426168
432.40 0.4268384
432.50 0.4275081
432.60 0.4281772
432.70 0.4288456
432.80 0.4295133
432.90 0.4301804
433.00 0.4308468
433.10 0.4315126
433.20 0.4321777
433.30 0.4328435
433.40 0.4335281
433.50 0.434212
433.60 0.4348952
433.70 0.4355777
433.80 0.4362498
433.90 0.4369093
434.00 0.4375854
434.10 0.4382714
434.20 0.4389567
434.30 0.4396414
434.40 0.4403254
434.50 0.4410087
434.60 0.4416914
434.70 0.4423733
434.80 0.4430559
434.90 0.443754
435.00 0.4444515
435.10 0.4451483
435.20 0.4458445
435.30 0.4465399
435.40 0.4472346
435.50 0.4479287
435.60 0.4486221
435.70 0.4493148
435.80 0.4500068
435.90 0.4506981
436.00 0.4513887
436.10 0.4520787
436.20 0.452768
436.30 0.4534417
436.40 0.4540999
436.50 0.4548012
436.60 0.4555017
436.70 0.4562016
436.80 0.4569007
436.90 0.4575992
437.00 0.458297
437.10 0.4589941
437.20 0.4597034
437.30 0.4604238
437.40 0.4611422
437.50 0.4618426
437.60 0.4625422
437.70 0.4632413
437.80 0.4639396
437.90 0.4646372
438.00 0.4653337
438.10 0.466023
438.20 0.4667116
438.30 0.4673918
438.40 0.4681183
438.50 0.4688572
438.60 0.4695921
438.70 0.4702843
438.80 0.4709757
438.90 0.4716665
439.00 0.4723598
439.10 0.4730944
439.20 0.4738267
439.30 0.4745373
439.40 0.4752473
439.50 0.4759565
439.60 0.4766692
439.70 0.477407
439.80 0.4781166
439.90 0.4788252
440.00 0.4795331
440.10 0.4802403
440.20 0.4809482
440.30 0.4816744
440.40 0.4823998
440.50 0.4831245
440.60 0.4838486
440.70 0.4845719
440.80 0.4852945
440.90 0.4860164
441.00 0.4867376
441.10 0.4874581
441.20 0.4881779
441.30 0.4888964
441.40 0.4896178
441.50 0.4903426
441.60 0.4910668
441.70 0.4917454
441.80 0.4924777
441.90 0.4932093
442.00 0.4939402
442.10 0.4946704
442.20 0.4953999
442.30 0.4961286
442.40 0.496862
442.50 0.4976012
442.60 0.4983396
442.70 0.4990669
442.80 0.4997814
442.90 0.5005436
443.00 0.5012752
443.10 0.5019694
443.20 0.5026976
443.30 0.5034569
443.40 0.504211
443.50 0.504959
443.60 0.5056664
443.70 0.506413
443.80 0.5071588
443.90 0.5078707
444.00 0.5085997
444.10 0.5093434
444.20 0.5100907
444.30 0.5108131
444.40 0.5115607
444.50 0.5123076
444.60 0.5130463
444.70 0.5137751
444.80 0.5145114
444.90 0.5152543
445.00 0.5159965
445.10 0.516738
445.20 0.5174883
445.30 0.5182497
445.40 0.5190103
445.50 0.5197701
445.60 0.5205293
445.70 0.5212877
445.80 0.5220343
445.90 0.52277
446.00 0.523505
446.10 0.5242393
446.20 0.524975
446.30 0.5257698
446.40 0.5265045
446.50 0.5272529
446.60 0.5280005
446.70 0.5287474
446.80 0.5295049
446.90 0.5302722
447.00 0.5310579
447.10 0.5317801
447.20 0.5325278
447.30 0.5333095
447.40 0.5340975
447.50 0.5348604
447.60 0.5356082
447.70 0.5363421
447.80 0.5370909
447.90 0.5378871
448.00 0.5386637
448.10 0.5394221
448.20 0.5401798
448.30 0.5409368
448.40 0.5416931
448.50 0.5424487
448.60 0.5432003
448.70 0.5439482
448.80 0.5446969
448.90 0.5454658
449.00 0.546234
449.10 0.5470015
449.20 0.5477682
449.30 0.5485982
449.40 0.5493639
449.50 0.5501288
449.60 0.5508994
449.70 0.551675
449.80 0.55245
449.90 0.5532242
450.00 0.5539976
450.10 0.5547703
450.20 0.5555423
450.30 0.5563135
450.40 0.5570838
450.50 0.5578534
450.60 0.5586223
450.70 0.5593904
450.80 0.5601578
450.90 0.5609244
451.00 0.5617129
451.10 0.5625007
451.20 0.56329
451.30 0.5640407
451.40 0.564818
451.50 0.5655944
451.60 0.5664129
451.70 0.5671451
451.80 0.5679621
451.90 0.5687783
452.00 0.569551
452.10 0.570323
452.20 0.5710943
452.30 0.5718648
452.40 0.5726346
452.50 0.5734036
452.60 0.5742432
452.70 0.5750524
452.80 0.5758335
452.90 0.5766139
453.00 0.5773935
453.10 0.5781723
453.20 0.5789673
453.30 0.5797614
453.40 0.5805549
453.50 0.5813476
453.60 0.5821395
453.70 0.5829306
453.80 0.5837248
453.90 0.5845227
454.00 0.5853198
454.10 0.5861162
454.20 0.5869071
454.30 0.5876974
454.40 0.5884868
454.50 0.5892755
454.60 0.5900635
454.70 0.590861
454.80 0.5916671
454.90 0.5924725
455.00 0.5932772
455.10 0.5940811
455.20 0.5948842
455.30 0.5956865
455.40 0.5964881
455.50 0.597289
455.60 0.598089
455.70 0.5988883
455.80 0.5996834
455.90 0.6004776
456.00 0.6012711
456.10 0.6020692
456.20 0.6028811
456.30 0.6036921
456.40 0.6045024
456.50 0.605312
456.60 0.6061207
456.70 0.6069287
456.80 0.607736
456.90 0.6085424
457.00 0.6093481
457.10 0.6101531
457.20 0.6109843
457.30 0.6118026
457.40 0.6126202
457.50 0.613437
457.60 0.614253
457.70 0.6150682
457.80 0.6158826
457.90 0.6166963
458.00 0.6175093
458.10 0.6183214
458.20 0.6191328
458.30 0.6199434
458.40 0.6207533
458.50 0.6215623
458.60 0.6223707
458.70 0.6231955
458.80 0.6240266
458.90 0.624857
459.00 0.6256866
459.10 0.6265153
459.20 0.6273434
459.30 0.6281721
459.40 0.6290001
459.50 0.6298273
459.60 0.6306537
459.70 0.6314794
459.80 0.6323043
459.90 0.6331284
460.00 0.6339517
460.10 0.6347742
460.20 0.635596
460.30 0.636417
460.40 0.6372372
460.50 0.6380567
460.60 0.6388753
460.70 0.6397031
460.80 0.640535
460.90 0.6413661
461.00 0.6421964
461.10 0.6430259
461.20 0.6438607
461.30 0.6446973
461.40 0.6455205
461.50 0.6463397
461.60 0.6471582
461.70 0.647976
461.80 0.6488228
461.90 0.6496688
462.00 0.650514
462.10 0.6513584
462.20 0.6522021
462.30 0.6530449
462.40 0.653887
462.50 0.6547282
462.60 0.6555687
462.70 0.6564084
462.80 0.6572473
462.90 0.6580854
463.00 0.6589227
463.10 0.6597593
463.20 0.6606012
463.30 0.6614449
463.40 0.6622878
463.50 0.6631299
463.60 0.6639712
463.70 0.6648117
463.80 0.6656514
463.90 0.6664952
464.00 0.6673394
464.10 0.6681829
464.20 0.6690255
464.30 0.6698674
464.40 0.6707085
464.50 0.6715488
464.60 0.6723883
464.70 0.6732425
464.80 0.6741024
464.90 0.6749614
465.00 0.6758196
465.10 0.676677
465.20 0.6775336
465.30 0.6783845
465.40 0.6792314
465.50 0.6800775
465.60 0.6809228
465.70 0.6817673
465.80 0.682611
465.90 0.6834725
466.00 0.6843377
466.10 0.6852021
466.20 0.6860657
466.30 0.6869271
466.40 0.6877871
466.50 0.6886463
466.60 0.6895047
466.70 0.6903622
466.80 0.691219
466.90 0.692075
467.00 0.6929302
467.10 0.6937846
467.20 0.6946382
467.30 0.6954845
467.40 0.6963435
467.50 0.6972058
467.60 0.6980672
467.70 0.6989279
467.80 0.6997877
467.90 0.7006588
468.00 0.7015339
468.10 0.7024082
468.20 0.7032817
468.30 0.7041402
468.40 0.7049922
468.50 0.7058716
468.60 0.7067513
468.70 0.707651
468.80 0.7085103
468.90 0.7093695
469.00 0.7102421
469.10 0.7111067
469.20 0.7119721
469.30 0.7128367
469.40 0.7137005
469.50 0.7145721
469.60 0.7154464
469.70 0.7163199
469.80 0.7171926
469.90 0.7180605
470.00 0.7189657
470.10 0.7198498
470.20 0.7207165
470.30 0.7215823
470.40 0.7224474
470.50 0.7233116
470.60 0.7241834
470.70 0.7250565
470.80 0.7259288
470.90 0.7268002
471.00 0.7277084
471.10 0.7286133
471.20 0.7294883
471.30 0.7303566
471.40 0.731224
471.50 0.7320906
471.60 0.7329877
471.70 0.7338919
471.80 0.7347796
471.90 0.7356625
472.00 0.7365447
472.10 0.737426
472.20 0.7383111
472.30 0.7391966
472.40 0.7400813
472.50 0.7409652
472.60 0.7418482
472.70 0.7427338
472.80 0.7436271
472.90 0.7445215
473.00 0.7454149
473.10 0.7463076
473.20 0.7471995
473.30 0.7480905
473.40 0.7489807
473.50 0.7498701
473.60 0.7507587
473.70 0.7516464
473.80 0.7525274
473.90 0.753406
474.00 0.7542838
474.10 0.7551608
474.20 0.7560589
474.30 0.7569651
474.40 0.7578705
474.50 0.758775
474.60 0.7596785
474.70 0.7605794
474.80 0.7614795
474.90 0.7623787
475.00 0.7632771
475.10 0.7641747
475.20 0.7650715
475.30 0.7659674
475.40 0.7668425
475.50 0.7677118
475.60 0.7685804
475.70 0.7694481
475.80 0.770315
475.90 0.7711811
476.00 0.7720465
476.10 0.772911
476.20 0.7738003
476.30 0.7746992
476.40 0.7755973
476.50 0.7764945
476.60 0.777391
476.70 0.7782866
476.80 0.7791814
476.90 0.7801162
477.00 0.7810603
477.10 0.7820035
477.20 0.7829459
477.30 0.7838874
477.40 0.7848281
477.50 0.7857679
477.60 0.7867068
477.70 0.7876449
477.80 0.7885822
477.90 0.7895185
478.00 0.7904541
478.10 0.7913888
478.20 0.7923226
478.30 0.7932556
478.40 0.7941877
478.50 0.795119
478.60 0.7960494
478.70 0.7969317
478.80 0.7977937
478.90 0.7986408
479.00 0.7994836
479.10 0.8003256
479.20 0.8011668
479.30 0.8020073
479.40 0.8029207
479.50 0.8038766
479.60 0.8048316
479.70 0.8057858
479.80 0.8067391
479.90 0.8076915
480.00 0.8086431
480.10 0.8095938
480.20 0.8105436
480.30 0.8114926
480.40 0.8124407
480.50 0.813388
480.60 0.8143344
480.70 0.8152799
480.80 0.8162246
480.90 0.8171685
481.00 0.8181114
481.10 0.8190536
481.20 0.8199536
481.30 0.8208527
481.40 0.8217511
481.50 0.8226486
481.60 0.8235454
481.70 0.8244413
481.80 0.8253364
481.90 0.8262306
482.00 0.8271241
482.10 0.8280168
482.20 0.8289117
482.30 0.8298469
482.40 0.8307812
482.50 0.8317148
482.60 0.8326474
482.70 0.8335792
482.80 0.8345102
482.90 0.8354404
483.00 0.8363696
483.10 0.8372981
483.20 0.8382257
483.30 0.8391525
483.40 0.8400784
483.50 0.8410035
483.60 0.8419278
483.70 0.8428455
483.80 0.8437624
483.90 0.8446784
484.00 0.8455937
484.10 0.8465081
484.20 0.8474623
484.30 0.8484331
484.40 0.849403
484.50 0.8503721
484.60 0.8513403
484.70 0.852307
484.80 0.8532644
484.90 0.854221
485.00 0.8551767
485.10 0.8561315
485.20 0.8570855
485.30 0.8580386
485.40 0.8589909
485.50 0.8599423
485.60 0.8608928
485.70 0.8618235
485.80 0.8627534
485.90 0.8636824
486.00 0.8646105
486.10 0.8655379
486.20 0.8664644
486.30 0.86739
486.40 0.8683148
486.50 0.8692388
486.60 0.870162
486.70 0.8710834
486.80 0.8719913
486.90 0.8728984
487.00 0.8738047
487.10 0.8747102
487.20 0.8756956
487.30 0.8766801
487.40 0.8776638
487.50 0.8786466
487.60 0.8796285
487.70 0.8806095
487.80 0.8815896
487.90 0.8825689
488.00 0.8835473
488.10 0.8845248
488.20 0.8854986
488.30 0.8864344
488.40 0.8873693
488.50 0.8883034
488.60 0.8892367
488.70 0.8901691
488.80 0.8911467
488.90 0.8921234
489.00 0.8930886
489.10 0.8940253
489.20 0.8949612
489.30 0.8958962
489.40 0.8968304
489.50 0.8977638
489.60 0.8986963
489.70 0.899628
489.80 0.900805
489.90 0.9017272
490.00 0.9026486
490.10 0.9035692
490.20 0.904489
490.30 0.9054079
490.40 0.9063078
490.50 0.9072068
490.60 0.9081051
490.70 0.9090025
490.80 0.9101749
490.90 0.9111568
491.00 0.9118709
491.10 0.9129458
491.20 0.9140198
491.30 0.9147315
491.40 0.9158983
491.50 0.916875
491.60 0.9176343
491.70 0.9185435
491.80 0.9194565
491.90 0.9204299
492.00 0.9216228
492.10 0.9225627
492.20 0.9237536
492.30 0.9244578
492.40 0.9258488
492.50 0.9268169
492.60 0.9272599
492.70 0.9283205
492.80 0.92938
492.90 0.9304387
493.00 0.9314851
493.10 0.9323806
493.20 0.9332753
493.30 0.9341691
493.40 0.9350622
493.50 0.9359545
493.60 0.9371004
493.70 0.9380558
493.80 0.9390103
493.90 0.9399826
494.00 0.940983
494.10 0.9419763
494.20 0.9429553
494.30 0.9439334
494.40 0.9449106
494.50 0.945887
494.60 0.9468502
494.70 0.9476486
494.80 0.948537
494.90 0.9496827
495.00 0.9508274
495.10 0.951971
495.20 0.9529091
495.30 0.9538463
495.40 0.9547826
495.50 0.9557182
495.60 0.9566529
495.70 0.9575868
495.80 0.9585198
495.90 0.959452
496.00 0.9603834
496.10 0.9614365
496.20 0.9627275
496.30 0.9637313
496.40 0.9647343
496.50 0.9657363
496.60 0.9667375
496.70 0.9677117
496.80 0.9686851
496.90 0.9696577
497.00 0.9706293
497.10 0.9716001
497.20 0.9725701
497.30 0.9734974
497.40 0.9743048
497.50 0.9751115
497.60 0.9760752
497.70 0.9773523
497.80 0.9783564
497.90 0.9793596
498.00 0.9803619
498.10 0.9813633
498.20 0.9823639
498.30 0.9833635
498.40 0.9843623
498.50 0.9853602
498.60 0.9863573
498.70 0.9873642
498.80 0.9883703
498.90 0.989307
499.00 0.9902428
499.10 0.9911778
499.20 0.9921085
499.30 0.9930352
499.40 0.9939727
499.50 0.9949094
499.60 0.9958452
499.70 0.9967898
499.80 0.9978608
499.90 0.9989309
500.00 1
500.10 1.001068
500.20 1.002112
500.30 1.003105
500.40 1.004097
500.50 1.005088
500.60 1.006079
500.70 1.007068
500.80 1.008014
500.90 1.008868
501.00 1.009721
501.10 1.010573
501.20 1.012003
501.30 1.012987
501.40 1.014081
501.50 1.014717
501.60 1.016045
501.70 1.01668
501.80 1.017895
501.90 1.018874
502.00 1.019803
502.10 1.020627
502.20 1.021475
502.30 1.022648
502.40 1.023757
502.50 1.024731
502.60 1.025704
502.70 1.026676
502.80 1.027648
502.90 1.028618
503.00 1.029581
503.10 1.03053
503.20 1.031477
503.30 1.032424
503.40 1.033407
503.50 1.034492
503.60 1.035576
503.70 1.036659
503.80 1.037745
503.90 1.03886
504.00 1.039918
504.10 1.040858
504.20 1.041797
504.30 1.042735
504.40 1.043678
504.50 1.044634
504.60 1.045679
504.70 1.046874
504.80 1.047588
504.90 1.048884
505.00 1.049494
505.10 1.050788
505.20 1.051997
505.30 1.052967
505.40 1.053937
505.50 1.054906
505.60 1.055863
505.70 1.056796
505.80 1.057728
505.90 1.058659
506.00 1.05959
506.10 1.060519
506.20 1.061474
506.30 1.0625
506.40 1.063526
506.50 1.064551
506.60 1.065575
506.70 1.066598
506.80 1.06762
506.90 1.068642
507.00 1.069662
507.10 1.070835
507.20 1.072207
507.30 1.073224
507.40 1.074241
507.50 1.075256
507.60 1.076271
507.70 1.077285
507.80 1.078298
507.90 1.07931
508.00 1.080321
508.10 1.081332
508.20 1.082341
508.30 1.08335
508.40 1.084357
508.50 1.085364
508.60 1.08637
508.70 1.087375
508.80 1.088344
508.90 1.089283
509.00 1.090246
509.10 1.091227
509.20 1.092249
509.30 1.093269
509.40 1.094289
509.50 1.095308
509.60 1.096326
509.70 1.097343
509.80 1.098359
509.90 1.099375
510.00 1.100389
510.10 1.101403
510.20 1.102415
510.30 1.103429
510.40 1.104445
510.50 1.10546
510.60 1.106475
510.70 1.107489
510.80 1.108501
510.90 1.109513
511.00 1.110524
511.10 1.111534
511.20 1.112544
511.30 1.113552
511.40 1.11456
511.50 1.115566
511.60 1.116564
511.70 1.117542
511.80 1.11852
511.90 1.119497
512.00 1.120474
512.10 1.121449
512.20 1.122424
512.30 1.12342
512.40 1.12448
512.50 1.12554
512.60 1.126598
512.70 1.127655
512.80 1.128712
512.90 1.129767
513.00 1.130822
513.10 1.131876
513.20 1.132929
513.30 1.133981
513.40 1.135032
513.50 1.136082
513.60 1.137131
513.70 1.13818
513.80 1.139227
513.90 1.140274
514.00 1.141298
514.10 1.142317
514.20 1.143336
514.30 1.144354
514.40 1.145371
514.50 1.146387
514.60 1.147402
514.70 1.148416
514.80 1.14943
514.90 1.150442
515.00 1.151454
515.10 1.152465
515.20 1.153475
515.30 1.154484
515.40 1.155492
515.50 1.156499
515.60 1.157506
515.70 1.158511
515.80 1.159516
515.90 1.16052
516.00 1.161523
516.10 1.162525
516.20 1.163526
516.30 1.164527
516.40 1.165526
516.50 1.166533
516.60 1.167582
516.70 1.168631
516.80 1.169678
516.90 1.170725
517.00 1.171771
517.10 1.172815
517.20 1.173859
517.30 1.174902
517.40 1.175944
517.50 1.176985
517.60 1.178026
517.70 1.179065
517.80 1.180104
517.90 1.181141
518.00 1.182178
518.10 1.183214
518.20 1.184249
518.30 1.185283
518.40 1.186316
518.50 1.187348
518.60 1.18838
518.70 1.18941
518.80 1.19044
518.90 1.191469
519.00 1.192497
519.10 1.19354
519.20 1.194601
519.30 1.195661
519.40 1.19672
519.50 1.197778
519.60 1.198835
519.70 1.199891
519.80 1.200947
519.90 1.202001
520.00 1.203055
520.10 1.204107
520.20 1.205159
520.30 1.20621
520.40 1.20726
520.50 1.208309
520.60 1.209357
520.70 1.210405
520.80 1.211451
520.90 1.212497
521.00 1.213541
521.10 1.214585
521.20 1.215628
521.30 1.21667
521.40 1.217711
521.50 1.218751
521.60 1.21979
521.70 1.220829
521.80 1.221866
521.90 1.222903
522.00 1.223939
522.10 1.224973
522.20 1.226007
522.30 1.227041
522.40 1.228073
522.50 1.229104
522.60 1.230135
522.70 1.231164
522.80 1.232193
522.90 1.233221
523.00 1.234248
523.10 1.235274
523.20 1.236299
523.30 1.237323
523.40 1.238347
523.50 1.239369
523.60 1.240391
523.70 1.241412
523.80 1.242432
523.90 1.243451
524.00 1.244469
524.10 1.245487
524.20 1.246503
524.30 1.247551
524.40 1.248624
524.50 1.249696
524.60 1.250767
524.70 1.251837
524.80 1.252907
524.90 1.253975
525.00 1.255042
525.10 1.256109
525.20 1.257174
525.30 1.258239
525.40 1.259303
525.50 1.260366
525.60 1.261428
525.70 1.262489
525.80 1.263549
525.90 1.264608
526.00 1.265667
526.10 1.266724
526.20 1.267781
526.30 1.268837
526.40 1.269891
526.50 1.270945
526.60 1.271998
526.70 1.273051
526.80 1.274102
526.90 1.275152
527.00 1.276202
527.10 1.27725
527.20 1.278298
527.30 1.279345
527.40 1.280391
527.50 1.281436
527.60 1.28248
527.70 1.283523
527.80 1.284566
527.90 1.285607
528.00 1.286648
528.10 1.287687
528.20 1.288726
528.30 1.289764
528.40 1.290801
528.50 1.291838
528.60 1.292873
528.70 1.293908
528.80 1.294941
528.90 1.295974
529.00 1.297006
529.10 1.298037
529.20 1.299067
529.30 1.300096
529.40 1.301125
529.50 1.302156
529.60 1.303215
529.70 1.304272
529.80 1.305328
529.90 1.306384
530.00 1.307438
530.10 1.308492
530.20 1.309545
530.30 1.310597
530.40 1.311648
530.50 1.312698
530.60 1.313747
530.70 1.314795
530.80 1.315843
530.90 1.316889
531.00 1.317935
531.10 1.31898
531.20 1.320024
531.30 1.321067
531.40 1.322109
531.50 1.32315
531.60 1.324191
531.70 1.32523
531.80 1.326269
531.90 1.327307
532.00 1.328344
532.10 1.32938
532.20 1.330431
532.30 1.331489
532.40 1.332546
532.50 1.333603
532.60 1.334658
532.70 1.335713
532.80 1.336766
532.90 1.337819
533.00 1.338871
533.10 1.339922
533.20 1.340972
533.30 1.342022
533.40 1.34307
533.50 1.344118
533.60 1.345164
533.70 1.34621
533.80 1.347255
533.90 1.348299
534.00 1.349342
534.10 1.350384
534.20 1.351426
534.30 1.352466
534.40 1.353506
534.50 1.354545
534.60 1.355583
534.70 1.35662
534.80 1.357666
534.90 1.358754
535.00 1.359841
535.10 1.360927
535.20 1.362013
535.30 1.363097
535.40 1.364181
535.50 1.365263
535.60 1.366345
535.70 1.367426
535.80 1.368506
535.90 1.369585
536.00 1.370663
536.10 1.37174
536.20 1.372817
536.30 1.373892
536.40 1.374967
536.50 1.37604
536.60 1.377113
536.70 1.378185
536.80 1.379256
536.90 1.380326
537.00 1.381395
537.10 1.382463
537.20 1.383531
537.30 1.384597
537.40 1.385663
537.50 1.386728
537.60 1.387792
537.70 1.388854
537.80 1.389917
537.90 1.390978
538.00 1.392038
538.10 1.393097
538.20 1.394156
538.30 1.395214
538.40 1.39627
538.50 1.397326
538.60 1.398381
538.70 1.399435
538.80 1.400489
538.90 1.401541
539.00 1.402592
539.10 1.403643
539.20 1.404693
539.30 1.405742
539.40 1.40679
539.50 1.407837
539.60 1.408883
539.70 1.409928
539.80 1.410973
539.90 1.412017
540.00 1.413059
540.10 1.414101
540.20 1.415171
540.30 1.416251
540.40 1.41733
540.50 1.418408
540.60 1.419486
540.70 1.420562
540.80 1.421638
540.90 1.422713
541.00 1.423786
541.10 1.424859
541.20 1.425931
541.30 1.427003
541.40 1.428073
541.50 1.429142
541.60 1.430211
541.70 1.431278
541.80 1.432345
541.90 1.433411
542.00 1.434476
542.10 1.43554
542.20 1.436603
542.30 1.437666
542.40 1.438727
542.50 1.439788
542.60 1.440847
542.70 1.441906
542.80 1.442964
542.90 1.444021
543.00 1.445077
543.10 1.446132
543.20 1.447187
543.30 1.44824
543.40 1.449293
543.50 1.450345
543.60 1.451396
543.70 1.452446
543.80 1.453495
543.90 1.454543
544.00 1.455591
544.10 1.456637
544.20 1.457683
544.30 1.458728
544.40 1.459772
544.50 1.460815
544.60 1.461857
544.70 1.462899
544.80 1.463939
544.90 1.464979
545.00 1.466018
545.10 1.467056
545.20 1.468093
545.30 1.469129
545.40 1.470164
545.50 1.471199
545.60 1.472259
545.70 1.473329
545.80 1.474399
545.90 1.475468
546.00 1.476536
546.10 1.477603
546.20 1.478669
546.30 1.479735
546.40 1.480799
546.50 1.481863
546.60 1.482925
546.70 1.483987
546.80 1.485048
546.90 1.486108
547.00 1.487167
547.10 1.488225
547.20 1.489283
547.30 1.490339
547.40 1.491395
547.50 1.49245
547.60 1.493504
547.70 1.494557
547.80 1.495609
547.90 1.496661
548.00 1.497711
548.10 1.498761
548.20 1.499809
548.30 1.500866
548.40 1.501935
548.50 1.503003
548.60 1.50407
548.70 1.505137
548.80 1.506202
548.90 1.507266
549.00 1.50833
549.10 1.509393
549.20 1.510455
549.30 1.511516
549.40 1.512576
549.50 1.513635
549.60 1.514693
549.70 1.515751
549.80 1.516807
549.90 1.517863
550.00 1.518918
550.10 1.519972
550.20 1.521025
550.30 1.522077
550.40 1.523129
550.50 1.524179
550.60 1.525229
550.70 1.526278
550.80 1.527326
550.90 1.528373
551.00 1.529423
551.10 1.530494
551.20 1.531564
551.30 1.532633
551.40 1.533701
551.50 1.534768
551.60 1.535835
551.70 1.5369
551.80 1.537965
551.90 1.539029
552.00 1.540092
552.10 1.541154
552.20 1.542215
552.30 1.543275
552.40 1.544335
552.50 1.545393
552.60 1.546451
552.70 1.547508
552.80 1.548564
552.90 1.549619
553.00 1.550673
553.10 1.551726
553.20 1.552779
553.30 1.553831
553.40 1.554881
553.50 1.555931
553.60 1.55698
553.70 1.558029
553.80 1.559088
553.90 1.560156
554.00 1.561222
554.10 1.562287
554.20 1.563352
554.30 1.564415
554.40 1.565478
554.50 1.56654
554.60 1.567601
554.70 1.568661
554.80 1.569721
554.90 1.570779
555.00 1.571837
555.10 1.572893
555.20 1.573949
555.30 1.575004
555.40 1.576058
555.50 1.577112
555.60 1.578164
555.70 1.579216
555.80 1.580266
555.90 1.581316
556.00 1.582365
556.10 1.583413
556.20 1.58446
556.30 1.585507
556.40 1.586552
556.50 1.587599
556.60 1.588677
556.70 1.589755
556.80 1.590832
556.90 1.591907
557.00 1.592982
557.10 1.594057
557.20 1.59513
557.30 1.596202
557.40 1.597274
557.50 1.598344
557.60 1.599414
557.70 1.600483
557.80 1.601551
557.90 1.602618
558.00 1.603684
558.10 1.604749
558.20 1.605814
558.30 1.606878
558.40 1.60794
558.50 1.609002
558.60 1.610063
558.70 1.611124
558.80 1.612183
558.90 1.613241
559.00 1.614299
559.10 1.615356
559.20 1.616412
559.30 1.617467
559.40 1.618521
559.50 1.619574
559.60 1.620627
559.70 1.621678
559.80 1.622729
559.90 1.623779
560.00 1.624828
560.10 1.625876
560.20 1.626924
560.30 1.62797
560.40 1.629016
560.50 1.630061
560.60 1.631105
560.70 1.632148
560.80 1.63319
560.90 1.634231
561.00 1.635272
561.10 1.636312
561.20 1.63735
561.30 1.638388
561.40 1.639426
561.50 1.640462
561.60 1.641497
561.70 1.642532
561.80 1.643566
561.90 1.644599
562.00 1.645631
562.10 1.646675
562.20 1.647739
562.30 1.648801
562.40 1.649862
562.50 1.650923
562.60 1.651982
562.70 1.653041
562.80 1.654099
562.90 1.655156
563.00 1.656213
563.10 1.657268
563.20 1.658323
563.30 1.659376
563.40 1.660429
563.50 1.661481
563.60 1.662532
563.70 1.663583
563.80 1.664632
563.90 1.665681
564.00 1.666729
564.10 1.667776
564.20 1.668822
564.30 1.669867
564.40 1.670911
564.50 1.671955
564.60 1.672997
564.70 1.674039
564.80 1.67508
564.90 1.676126
565.00 1.677186
565.10 1.678244
565.20 1.679302
565.30 1.680358
565.40 1.681414
565.50 1.682469
565.60 1.683524
565.70 1.684577
565.80 1.68563
565.90 1.686681
566.00 1.687732
566.10 1.688782
566.20 1.689831
566.30 1.690879
566.40 1.691927
566.50 1.692973
566.60 1.694019
566.70 1.695064
566.80 1.696108
566.90 1.697151
567.00 1.698194
567.10 1.699235
567.20 1.700276
567.30 1.701316
567.40 1.702355
567.50 1.703393
567.60 1.70443
567.70 1.705473
567.80 1.70654
567.90 1.707606
568.00 1.708671
568.10 1.709735
568.20 1.710799
568.30 1.711861
568.40 1.712923
568.50 1.713984
568.60 1.715044
568.70 1.716103
568.80 1.717162
568.90 1.718219
569.00 1.719276
569.10 1.720331
569.20 1.721386
569.30 1.722441
569.40 1.723494
569.50 1.724546
569.60 1.725598
569.70 1.726648
569.80 1.727698
569.90 1.728747
570.00 1.729796
570.10 1.730843
570.20 1.731889
570.30 1.732935
570.40 1.73398
570.50 1.735024
570.60 1.736067
570.70 1.737109
570.80 1.738151
570.90 1.739191
571.00 1.740231
571.10 1.74127
571.20 1.742308
571.30 1.743346
571.40 1.744382
571.50 1.745418
571.60 1.746453
571.70 1.747487
571.80 1.74852
571.90 1.749552
572.00 1.750583
572.10 1.751614
572.20 1.752644
572.30 1.753673
572.40 1.754701
572.50 1.755729
572.60 1.756755
572.70 1.757781
572.80 1.758806
572.90 1.75983
573.00 1.760853
573.10 1.761875
573.20 1.762897
573.30 1.763918
573.40 1.76495
573.50 1.766
573.60 1.767049
573.70 1.768096
573.80 1.769143
573.90 1.770189
574.00 1.771235
574.10 1.772279
574.20 1.773323
574.30 1.774366
574.40 1.775408
574.50 1.776449
574.60 1.777489
574.70 1.778528
574.80 1.779567
574.90 1.780605
575.00 1.781642
575.10 1.782678
575.20 1.783713
575.30 1.784748
575.40 1.785782
575.50 1.786814
575.60 1.787846
575.70 1.788878
575.80 1.789908
575.90 1.790937
576.00 1.791966
576.10 1.792994
576.20 1.794021
576.30 1.795047
576.40 1.796073
576.50 1.797097
576.60 1.798121
576.70 1.799144
576.80 1.800166
576.90 1.801188
577.00 1.802208
577.10 1.803228
577.20 1.804247
577.30 1.805265
577.40 1.806282
577.50 1.807299
577.60 1.808327
577.70 1.809376
577.80 1.810424
577.90 1.811471
578.00 1.812517
578.10 1.813562
578.20 1.814607
578.30 1.815651
578.40 1.816694
578.50 1.817736
578.60 1.818777
578.70 1.819817
578.80 1.820857
578.90 1.821896
579.00 1.822933
579.10 1.82397
579.20 1.825
579.30 1.826029
579.40 1.827057
579.50 1.828085
579.60 1.829112
579.70 1.830138
579.80 1.831163
579.90 1.832187
580.00 1.83321
580.10 1.834244
580.20 1.835296
580.30 1.836346
580.40 1.837396
580.50 1.838445
580.60 1.839494
580.70 1.840541
580.80 1.841587
580.90 1.842633
581.00 1.843678
581.10 1.844722
581.20 1.845765
581.30 1.846808
581.40 1.847849
581.50 1.84889
581.60 1.84993
581.70 1.850969
581.80 1.852007
581.90 1.853045
582.00 1.854081
582.10 1.855108
582.20 1.856117
582.30 1.857125
582.40 1.858133
582.50 1.85914
582.60 1.860146
582.70 1.861151
582.80 1.862156
582.90 1.863159
583.00 1.864162
583.10 1.865164
583.20 1.866165
583.30 1.867166
583.40 1.868166
583.50 1.869164
583.60 1.870174
583.70 1.871201
583.80 1.872226
583.90 1.873252
584.00 1.874276
584.10 1.875299
584.20 1.876322
584.30 1.877344
584.40 1.878365
584.50 1.879385
584.60 1.880405
584.70 1.881424
584.80 1.882441
584.90 1.883455
585.00 1.884449
585.10 1.885442
585.20 1.886451
585.30 1.887487
585.40 1.888521
585.50 1.889555
585.60 1.890588
585.70 1.89162
585.80 1.892652
585.90 1.893682
586.00 1.894712
586.10 1.895741
586.20 1.896776
586.30 1.89782
586.40 1.898863
586.50 1.899906
586.60 1.900947
586.70 1.901988
586.80 1.903012
586.90 1.90401
587.00 1.905006
587.10 1.906001
587.20 1.906948
587.30 1.907816
587.40 1.909067
587.50 1.909933
587.60 1.910823
587.70 1.91194
587.80 1.913152
587.90 1.914015
588.00 1.914926
588.10 1.915913
588.20 1.9169
588.30 1.917886
588.40 1.918888
588.50 1.919914
588.60 1.92094
588.70 1.921965
588.80 1.922989
588.90 1.924012
589.00 1.925028
589.10 1.926033
589.20 1.927037
589.30 1.92804
589.40 1.929043
589.50 1.930045
589.60 1.931046
589.70 1.932046
589.80 1.933045
589.90 1.934044
590.00 1.935057
590.10 1.936094
590.20 1.937131
590.30 1.938167
590.40 1.939202
590.50 1.940237
590.60 1.94127
590.70 1.942303
590.80 1.943331
590.90 1.944356
591.00 1.945381
591.10 1.946404
591.20 1.947427
591.30 1.948449
591.40 1.94947
591.50 1.950491
591.60 1.951504
591.70 1.952505
591.80 1.953505
591.90 1.954504
592.00 1.955503
592.10 1.9565
592.20 1.957497
592.30 1.958494
592.40 1.959489
592.50 1.960484
592.60 1.961477
592.70 1.96247
592.80 1.963463
592.90 1.964454
593.00 1.965445
593.10 1.966438
593.20 1.967435
593.30 1.968432
593.40 1.969428
593.50 1.970423
593.60 1.971417
593.70 1.972411
593.80 1.973403
593.90 1.974395
594.00 1.975386
594.10 1.976377
594.20 1.977366
594.30 1.978355
594.40 1.979343
594.50 1.98033
594.60 1.981317
594.70 1.982303
594.80 1.983287
594.90 1.984272
595.00 1.985255
595.10 1.986252
595.20 1.987271
595.30 1.98829
595.40 1.989308
595.50 1.990325
595.60 1.991341
595.70 1.992357
595.80 1.993371
595.90 1.994385
596.00 1.995398
596.10 1.99641
596.20 1.997422
596.30 1.998433
596.40 1.999443
596.50 2.000452
596.60 2.00146
596.70 2.002446
596.80 2.003418
596.90 2.004389
597.00 2.005359
597.10 2.006329
597.20 2.007297
597.30 2.008265
597.40 2.009232
597.50 2.010199
597.60 2.011183
597.70 2.012195
597.80 2.013207
597.90 2.014218
598.00 2.015228
598.10 2.016237
598.20 2.017245
598.30 2.018253
598.40 2.01926
598.50 2.020266
598.60 2.021271
598.70 2.022276
598.80 2.02328
598.90 2.024283
599.00 2.025285
599.10 2.026286
599.20 2.027287
599.30 2.028287
599.40 2.029261
599.50 2.030234
599.60 2.031206
599.70 2.032177
599.80 2.033148
599.90 2.034118
600.00 2.035087
600.10 2.036055
600.20 2.037023
600.30 2.03799
600.40 2.038956
600.50 2.039921
600.60 2.040886
600.70 2.04185
600.80 2.042813
600.90 2.043775
601.00 2.044737
601.10 2.045698
601.20 2.046658
601.30 2.047617
601.40 2.048599
601.50 2.04958
601.60 2.05056
601.70 2.05154
601.80 2.052519
601.90 2.053497
602.00 2.054474
602.10 2.055451
602.20 2.056426
602.30 2.057401
602.40 2.058376
602.50 2.059349
602.60 2.060322
602.70 2.061358
602.80 2.062397
602.90 2.063393
603.00 2.064387
603.10 2.065381
603.20 2.066374
603.30 2.067366
603.40 2.068357
603.50 2.069348
603.60 2.070337
603.70 2.071326
603.80 2.072315
603.90 2.073302
604.00 2.074289
604.10 2.075275
604.20 2.07626
604.30 2.077245
604.40 2.078228
604.50 2.079211
604.60 2.080193
604.70 2.081175
604.80 2.082155
604.90 2.083135
605.00 2.084114
605.10 2.085092
605.20 2.08607
605.30 2.087047
605.40 2.088023
605.50 2.088919
605.60 2.089814
605.70 2.090709
605.80 2.091603
605.90 2.092496
606.00 2.093388
606.10 2.094359
606.20 2.095329
606.30 2.096299
606.40 2.097267
606.50 2.098235
606.60 2.099203
606.70 2.100406
606.80 2.101371
606.90 2.102336
607.00 2.103064
607.10 2.104027
607.20 2.10499
607.30 2.105952
607.40 2.106913
607.50 2.107873
607.60 2.108833
607.70 2.10987
607.80 2.110907
607.90 2.111943
608.00 2.112978
608.10 2.114013
608.20 2.115046
608.30 2.115991
608.40 2.116936
608.50 2.117879
608.60 2.118822
608.70 2.119775
608.80 2.120733
608.90 2.12169
609.00 2.122646
609.10 2.123601
609.20 2.124556
609.30 2.125503
609.40 2.126449
609.50 2.127395
609.60 2.128339
609.70 2.129283
609.80 2.130226
609.90 2.131169
610.00 2.132111
610.10 2.133052
610.20 2.133992
610.30 2.134932
610.40 2.13587
610.50 2.136808
610.60 2.137746
610.70 2.138683
610.80 2.139618
610.90 2.140569
611.00 2.141519
611.10 2.142469
611.20 2.143417
611.30 2.144365
611.40 2.145312
611.50 2.146258
611.60 2.147204
611.70 2.148149
611.80 2.149093
611.90 2.150036
612.00 2.150979
612.10 2.151921
612.20 2.152862
612.30 2.153803
612.40 2.154774
612.50 2.155744
612.60 2.156713
612.70 2.157681
612.80 2.158649
612.90 2.159616
613.00 2.160583
613.10 2.161548
613.20 2.162513
613.30 2.163477
613.40 2.16444
613.50 2.165403
613.60 2.166365
613.70 2.167326
613.80 2.168286
613.90 2.169246
614.00 2.170205
614.10 2.171163
614.20 2.17212
614.30 2.173077
614.40 2.174031
614.50 2.174985
614.60 2.175938
614.70 2.176891
614.80 2.177825
614.90 2.178756
615.00 2.179685
615.10 2.180614
615.20 2.181542
615.30 2.18247
615.40 2.183397
615.50 2.184323
615.60 2.185248
615.70 2.186173
615.80 2.187096
615.90 2.18802
616.00 2.188942
616.10 2.189864
616.20 2.190785
616.30 2.191705
616.40 2.192625
616.50 2.193544
616.60 2.194462
616.70 2.195379
616.80 2.196296
616.90 2.197242
617.00 2.198187
617.10 2.199131
617.20 2.200074
617.30 2.201017
617.40 2.201959
617.50 2.2029
617.60 2.203841
617.70 2.204781
617.80 2.20572
617.90 2.206658
618.00 2.207596
618.10 2.208533
618.20 2.209469
618.30 2.210405
618.40 2.211339
618.50 2.212273
618.60 2.213207
618.70 2.214139
618.80 2.215071
618.90 2.216003
619.00 2.216933
619.10 2.217863
619.20 2.218792
619.30 2.21972
619.40 2.220648
619.50 2.221575
619.60 2.222501
619.70 2.223426
619.80 2.224351
619.90 2.225275
620.00 2.226198
620.10 2.227121
620.20 2.228043
620.30 2.228964
620.40 2.229885
620.50 2.230804
620.60 2.231723
620.70 2.232642
620.80 2.233559
620.90 2.234483
621.00 2.235416
621.10 2.23635
621.20 2.237282
621.30 2.238214
621.40 2.239144
621.50 2.240075
621.60 2.241004
621.70 2.241933
621.80 2.242861
621.90 2.243788
622.00 2.244715
622.10 2.245641
622.20 2.246566
622.30 2.247491
622.40 2.248415
622.50 2.249338
622.60 2.25026
622.70 2.251182
622.80 2.252103
622.90 2.253023
623.00 2.253943
623.10 2.254861
623.20 2.25578
623.30 2.256697
623.40 2.257614
623.50 2.25853
623.60 2.259445
623.70 2.26036
623.80 2.261274
623.90 2.262187
624.00 2.2631
624.10 2.264011
624.20 2.264922
624.30 2.265833
624.40 2.266743
624.50 2.267652
624.60 2.26856
624.70 2.269468
624.80 2.270375
624.90 2.271281
625.00 2.272186
625.10 2.273091
625.20 2.273995
625.30 2.274899
625.40 2.275801
625.50 2.276704
625.60 2.277605
625.70 2.278506
625.80 2.279406
625.90 2.280305
626.00 2.281204
626.10 2.282101
626.20 2.282999
626.30 2.283895
626.40 2.284791
626.50 2.285686
626.60 2.286581
626.70 2.287474
626.80 2.288368
626.90 2.28926
627.00 2.290152
627.10 2.291044
627.20 2.29194
627.30 2.292835
627.40 2.29373
627.50 2.294623
627.60 2.295516
627.70 2.296409
627.80 2.2973
627.90 2.298191
628.00 2.299082
628.10 2.299971
628.20 2.30086
628.30 2.301749
628.40 2.302636
628.50 2.303523
628.60 2.304409
628.70 2.305295
628.80 2.30618
628.90 2.307064
629.00 2.307947
629.10 2.30883
629.20 2.309712
629.30 2.310594
629.40 2.311475
629.50 2.312355
629.60 2.313234
629.70 2.314113
629.80 2.314991
629.90 2.315868
630.00 2.316745
630.10 2.317621
630.20 2.318497
630.30 2.319397
630.40 2.320298
630.50 2.321199
630.60 2.322099
630.70 2.322999
630.80 2.323897
630.90 2.324795
631.00 2.325693
631.10 2.326589
631.20 2.327486
631.30 2.328381
631.40 2.329276
631.50 2.330169
631.60 2.331063
631.70 2.331955
631.80 2.332847
631.90 2.333739
632.00 2.334629
632.10 2.335519
632.20 2.336408
632.30 2.337297
632.40 2.338185
632.50 2.339072
632.60 2.339958
632.70 2.340844
632.80 2.341729
632.90 2.342614
633.00 2.343497
633.10 2.344381
633.20 2.345263
633.30 2.346145
633.40 2.347025
633.50 2.347904
633.60 2.348782
633.70 2.349659
633.80 2.350536
633.90 2.351412
634.00 2.352287
634.10 2.353162
634.20 2.354036
634.30 2.35491
634.40 2.355782
634.50 2.356655
634.60 2.357526
634.70 2.358397
634.80 2.359267
634.90 2.360136
635.00 2.361005
635.10 2.361873
635.20 2.36274
635.30 2.363607
635.40 2.364473
635.50 2.365339
635.60 2.366204
635.70 2.367068
635.80 2.367931
635.90 2.368794
636.00 2.369656
636.10 2.370518
636.20 2.371378
636.30 2.372239
636.40 2.373098
636.50 2.373957
636.60 2.374827
636.70 2.375697
636.80 2.376567
636.90 2.377437
637.00 2.378305
637.10 2.379173
637.20 2.380041
637.30 2.380907
637.40 2.381773
637.50 2.382638
637.60 2.383503
637.70 2.384367
637.80 2.38523
637.90 2.386093
638.00 2.386955
638.10 2.387816
638.20 2.388677
638.30 2.389537
638.40 2.390397
638.50 2.391255
638.60 2.392113
638.70 2.392971
638.80 2.393828
638.90 2.394684
639.00 2.395539
639.10 2.396394
639.20 2.397248
639.30 2.398102
639.40 2.398954
639.50 2.399807
639.60 2.400658
639.70 2.401508
639.80 2.402356
639.90 2.403203
640.00 2.404049
640.10 2.404895
640.20 2.40574
640.30 2.406584
640.40 2.407428
640.50 2.408271
640.60 2.409113
640.70 2.409955
640.80 2.410796
640.90 2.411637
641.00 2.412476
641.10 2.413316
641.20 2.414154
641.30 2.414992
641.40 2.415829
641.50 2.416666
641.60 2.417502
641.70 2.418337
641.80 2.419172
641.90 2.420006
642.00 2.420839
642.10 2.421672
642.20 2.422504
642.30 2.423336
642.40 2.424167
642.50 2.424997
642.60 2.425827
642.70 2.426656
642.80 2.427484
642.90 2.428318
643.00 2.429172
643.10 2.430025
643.20 2.430878
643.30 2.43173
643.40 2.432581
643.50 2.433432
643.60 2.434282
643.70 2.435132
643.80 2.43598
643.90 2.436829
644.00 2.437676
644.10 2.438523
644.20 2.439369
644.30 2.440215
644.40 2.44106
644.50 2.441904
644.60 2.442748
644.70 2.443591
644.80 2.444433
644.90 2.445275
645.00 2.446116
645.10 2.446956
645.20 2.447796
645.30 2.448635
645.40 2.449474
645.50 2.450312
645.60 2.451149
645.70 2.451985
645.80 2.452821
645.90 2.453657
646.00 2.454491
646.10 2.455325
646.20 2.456155
646.30 2.456985
646.40 2.457815
646.50 2.458643
646.60 2.459471
646.70 2.460299
646.80 2.461126
646.90 2.461952
647.00 2.462777
647.10 2.463602
647.20 2.464427
647.30 2.46525
647.40 2.466073
647.50 2.466896
647.60 2.467718
647.70 2.468539
647.80 2.469359
647.90 2.470179
648.00 2.470998
648.10 2.471817
648.20 2.472635
648.30 2.473453
648.40 2.474269
648.50 2.475086
648.60 2.475901
648.70 2.476716
648.80 2.47753
648.90 2.478344
649.00 2.479157
649.10 2.47997
649.20 2.480781
649.30 2.481593
649.40 2.482403
649.50 2.483212
649.60 2.484021
649.70 2.48483
649.80 2.485637
649.90 2.486444
650.00 2.487251
650.10 2.488056
650.20 2.488862
650.30 2.489666
650.40 2.49047
650.50 2.491274
650.60 2.492076
650.70 2.492878
650.80 2.49368
650.90 2.494481
651.00 2.495281
651.10 2.496081
651.20 2.49688
651.30 2.497679
651.40 2.498476
651.50 2.499274
651.60 2.50007
651.70 2.500866
651.80 2.501662
651.90 2.502457
652.00 2.503251
652.10 2.504045
652.20 2.504838
652.30 2.50563
652.40 2.506422
652.50 2.507213
652.60 2.508016
652.70 2.508826
652.80 2.509635
652.90 2.510443
653.00 2.511251
653.10 2.512058
653.20 2.512865
653.30 2.513671
653.40 2.514476
653.50 2.51528
653.60 2.516085
653.70 2.516888
653.80 2.517691
653.90 2.518493
654.00 2.519295
654.10 2.520096
654.20 2.520896
654.30 2.521696
654.40 2.522495
654.50 2.523294
654.60 2.524092
654.70 2.524889
654.80 2.525686
654.90 2.526482
655.00 2.527278
655.10 2.528073
655.20 2.528867
655.30 2.529661
655.40 2.530454
655.50 2.531246
655.60 2.532038
655.70 2.53283
655.80 2.533619
655.90 2.534407
656.00 2.535195
656.10 2.535982
656.20 2.536768
656.30 2.537554
656.40 2.538339
656.50 2.539124
656.60 2.539908
656.70 2.540692
656.80 2.541474
656.90 2.542257
657.00 2.543038
657.10 2.54382
657.20 2.5446
657.30 2.54538
657.40 2.546159
657.50 2.546938
657.60 2.547716
657.70 2.548494
657.80 2.549471
657.90 2.55028
658.00 2.551058
658.10 2.551835
658.20 2.552612
658.30 2.553388
658.40 2.554163
658.50 2.554938
658.60 2.555713
658.70 2.556486
658.80 2.55726
658.90 2.558032
659.00 2.558804
659.10 2.55953
659.20 2.560187
659.30 2.560958
659.40 2.561728
659.50 2.562497
659.60 2.563266
659.70 2.564035
659.80 2.564803
659.90 2.56557
660.00 2.566337
660.10 2.567103
660.20 2.567868
660.30 2.568633
660.40 2.569418
660.50 2.570206
660.60 2.570994
660.70 2.571781
660.80 2.572567
660.90 2.573346
661.00 2.574124
661.10 2.574902
661.20 2.575679
661.30 2.576455
661.40 2.577231
661.50 2.578006
661.60 2.578781
661.70 2.579555
661.80 2.580328
661.90 2.581095
662.00 2.58186
662.10 2.582625
662.20 2.58339
662.30 2.584154
662.40 2.584798
662.50 2.585508
662.60 2.586217
662.70 2.586926
662.80 2.587634
662.90 2.588441
663.00 2.589247
663.10 2.590053
663.20 2.590858
663.30 2.591662
663.40 2.592466
663.50 2.593269
663.60 2.594072
663.70 2.594764
663.80 2.595455
663.90 2.596166
664.00 2.596881
664.10 2.597615
664.20 2.598348
664.30 2.599081
664.40 2.599813
664.50 2.600545
664.60 2.601276
664.70 2.602043
664.80 2.60281
664.90 2.603576
665.00 2.604341
665.10 2.605106
665.20 2.60587
665.30 2.606634
665.40 2.607397
665.50 2.608112
665.60 2.608818
665.70 2.609579
665.80 2.61034
665.90 2.6111
666.00 2.61186
666.10 2.61262
666.20 2.613378
666.30 2.614136
666.40 2.614894
666.50 2.61562
666.60 2.61634
666.70 2.617059
666.80 2.617778
666.90 2.618496
667.00 2.619214
667.10 2.620094
667.20 2.621003
667.30 2.621675
667.40 2.622346
667.50 2.62311
667.60 2.623889
667.70 2.624561
667.80 2.625266
667.90 2.626117
668.00 2.626698
668.10 2.627387
668.20 2.628163
668.30 2.628939
668.40 2.629714
668.50 2.630488
668.60 2.631262
668.70 2.631879
668.80 2.632606
668.90 2.633333
669.00 2.634059
669.10 2.634784
669.20 2.635509
669.30 2.636239
669.40 2.63697
669.50 2.637699
669.60 2.638429
669.70 2.639157
669.80 2.639885
669.90 2.640613
670.00 2.64134
670.10 2.642067
670.20 2.642792
670.30 2.643524
670.40 2.644255
670.50 2.644986
670.60 2.645717
670.70 2.646447
670.80 2.647187
670.90 2.647927
671.00 2.648666
671.10 2.649405
671.20 2.650144
671.30 2.650881
671.40 2.651618
671.50 2.652355
671.60 2.653091
671.70 2.653827
671.80 2.654561
671.90 2.655268
672.00 2.655969
672.10 2.65667
672.20 2.65737
672.30 2.65807
672.40 2.65879
672.50 2.65951
672.60 2.660231
672.70 2.66095
672.80 2.661669
672.90 2.662388
673.00 2.663106
673.10 2.663824
673.20 2.66454
673.30 2.665087
673.40 2.665788
673.50 2.666515
673.60 2.667241
673.70 2.667967
673.80 2.668693
673.90 2.669418
674.00 2.670142
674.10 2.670866
674.20 2.671589
674.30 2.672312
674.40 2.673034
674.50 2.673756
674.60 2.674477
674.70 2.675198
674.80 2.675918
674.90 2.676637
675.00 2.677356
675.10 2.678075
675.20 2.678793
675.30 2.67951
675.40 2.680217
675.50 2.680922
675.60 2.681626
675.70 2.68233
675.80 2.683033
675.90 2.683735
676.00 2.684438
676.10 2.685139
676.20 2.68584
676.30 2.686541
676.40 2.687241
676.50 2.68794
676.60 2.688639
676.70 2.689337
676.80 2.690035
676.90 2.690733
677.00 2.691429
677.10 2.692126
677.20 2.692821
677.30 2.693517
677.40 2.694211
677.50 2.694905
677.60 2.695599
677.70 2.696292
677.80 2.696985
677.90 2.697687
678.00 2.69839
678.10 2.699092
678.20 2.699794
678.30 2.700496
678.40 2.701197
678.50 2.701897
678.60 2.702597
678.70 2.703297
678.80 2.703996
678.90 2.704694
679.00 2.705392
679.10 2.706084
679.20 2.706774
679.30 2.707463
679.40 2.708152
679.50 2.708841
679.60 2.709528
679.70 2.710215
679.80 2.710902
679.90 2.711588
680.00 2.712274
680.10 2.712959
680.20 2.713644
680.30 2.714328
680.40 2.715011
680.50 2.715694
680.60 2.716377
680.70 2.717059
680.80 2.717741
680.90 2.718422
681.00 2.719102
681.10 2.719782
681.20 2.720461
681.30 2.72114
681.40 2.721819
681.50 2.722497
681.60 2.723174
681.70 2.723851
681.80 2.724527
681.90 2.725203
682.00 2.725878
682.10 2.726553
682.20 2.727227
682.30 2.727901
682.40 2.728574
682.50 2.729247
682.60 2.729919
682.70 2.730591
682.80 2.731262
682.90 2.731933
683.00 2.732603
683.10 2.733273
683.20 2.733942
683.30 2.734611
683.40 2.735279
683.50 2.735947
683.60 2.736614
683.70 2.73728
683.80 2.737947
683.90 2.738612
684.00 2.739277
684.10 2.739942
684.20 2.740606
684.30 2.74127
684.40 2.741933
684.50 2.742595
684.60 2.743257
684.70 2.743919
684.80 2.74458
684.90 2.745241
685.00 2.745901
685.10 2.74656
685.20 2.747219
685.30 2.747878
685.40 2.748536
685.50 2.749194
685.60 2.749851
685.70 2.750507
685.80 2.751163
685.90 2.751825
686.00 2.752487
686.10 2.753148
686.20 2.753809
686.30 2.75447
686.40 2.75513
686.50 2.755789
686.60 2.756448
686.70 2.757107
686.80 2.757765
686.90 2.758422
687.00 2.759079
687.10 2.759736
687.20 2.760392
687.30 2.761047
687.40 2.761702
687.50 2.762357
687.60 2.763011
687.70 2.763664
687.80 2.764317
687.90 2.76497
688.00 2.765622
688.10 2.766273
688.20 2.766924
688.30 2.767575
688.40 2.768225
688.50 2.768875
688.60 2.769524
688.70 2.770172
688.80 2.77082
688.90 2.771468
689.00 2.772115
689.10 2.772762
689.20 2.773408
689.30 2.774053
689.40 2.774698
689.50 2.775343
689.60 2.775987
689.70 2.776631
689.80 2.777274
689.90 2.777917
690.00 2.778559
690.10 2.779201
690.20 2.779842
690.30 2.780482
690.40 2.781123
690.50 2.781762
690.60 2.782402
690.70 2.78304
690.80 2.783679
690.90 2.784317
691.00 2.784954
691.10 2.785591
691.20 2.786227
691.30 2.786863
691.40 2.787498
691.50 2.788133
691.60 2.788768
691.70 2.789401
691.80 2.790035
691.90 2.790668
692.00 2.7913
692.10 2.791932
692.20 2.792564
692.30 2.793195
692.40 2.793825
692.50 2.794455
692.60 2.795085
692.70 2.795715
692.80 2.796346
692.90 2.796977
693.00 2.797607
693.10 2.798237
693.20 2.798866
693.30 2.799495
693.40 2.800124
693.50 2.800751
693.60 2.801379
693.70 2.802006
693.80 2.802632
693.90 2.803258
694.00 2.803884
694.10 2.804509
694.20 2.805134
694.30 2.805758
694.40 2.806381
694.50 2.807004
694.60 2.807627
694.70 2.808249
694.80 2.808871
694.90 2.809492
695.00 2.810113
695.10 2.810733
695.20 2.811353
695.30 2.811973
695.40 2.812592
695.50 2.81321
695.60 2.813828
695.70 2.814445
695.80 2.815062
695.90 2.815679
696.00 2.816295
696.10 2.816911
696.20 2.817526
696.30 2.81814
696.40 2.818755
696.50 2.819368
696.60 2.81997
696.70 2.820569
696.80 2.821168
696.90 2.821766
697.00 2.822364
697.10 2.822961
697.20 2.823557
697.30 2.824154
697.40 2.824749
697.50 2.825345
697.60 2.82594
697.70 2.826534
697.80 2.827128
697.90 2.827722
698.00 2.828315
698.10 2.828907
698.20 2.829499
698.30 2.830091
698.40 2.830682
698.50 2.831273
698.60 2.831863
698.70 2.832453
698.80 2.833043
698.90 2.833632
699.00 2.83422
699.10 2.834859
699.20 2.835509
699.30 2.836159
699.40 2.836808
699.50 2.837457
699.60 2.838105
699.70 2.838707
699.80 2.839306
699.90 2.839905
700.00 2.840503
700.10 2.841101
700.20 2.841699
700.30 2.842295
700.40 2.842892
700.50 2.843488
700.60 2.844083
700.70 2.844678
700.80 2.845273
700.90 2.845867
701.00 2.846461
701.10 2.847046
701.20 2.847629
701.30 2.848212
701.40 2.848794
701.50 2.849376
701.60 2.849958
701.70 2.850539
701.80 2.851119
701.90 2.851699
702.00 2.852279
702.10 2.852858
702.20 2.853437
702.30 2.854015
702.40 2.854593
702.50 2.85517
702.60 2.855748
702.70 2.856326
702.80 2.856904
702.90 2.857481
703.00 2.858058
703.10 2.858634
703.20 2.859209
703.30 2.859785
703.40 2.86036
703.50 2.860934
703.60 2.861508
703.70 2.862082
703.80 2.862655
703.90 2.863227
704.00 2.8638
704.10 2.864371
704.20 2.86496
704.30 2.865553
704.40 2.866146
704.50 2.866738
704.60 2.867329
704.70 2.86792
704.80 2.868511
704.90 2.869101
705.00 2.869691
705.10 2.87028
705.20 2.870869
705.30 2.871457
705.40 2.872045
705.50 2.872632
705.60 2.873219
705.70 2.873806
705.80 2.874321
705.90 2.874819
706.00 2.875317
706.10 2.875815
706.20 2.876382
706.30 2.876966
706.40 2.877824
706.50 2.878324
706.60 2.878649
706.70 2.879397
706.80 2.87988
706.90 2.880461
707.00 2.881042
707.10 2.881622
707.20 2.882202
707.30 2.882782
707.40 2.883361
707.50 2.883939
707.60 2.884518
707.70 2.885095
707.80 2.885673
707.90 2.88625
708.00 2.886798
708.10 2.887339
708.20 2.88788
708.30 2.88842
708.40 2.88896
708.50 2.8895
708.60 2.890039
708.70 2.890578
708.80 2.891116
708.90 2.891654
709.00 2.892219
709.10 2.892791
709.20 2.893362
709.30 2.893933
709.40 2.894503
709.50 2.895073
709.60 2.895643
709.70 2.896212
709.80 2.896781
709.90 2.897349
710.00 2.897917
710.10 2.898484
710.20 2.899051
710.30 2.899617
710.40 2.900183
710.50 2.900749
710.60 2.901296
710.70 2.901837
710.80 2.902379
710.90 2.902919
711.00 2.90346
711.10 2.904
711.20 2.90454
711.30 2.905079
711.40 2.905618
711.50 2.906156
711.60 2.906694
711.70 2.907231
711.80 2.907769
711.90 2.908305
712.00 2.908842
712.10 2.909381
712.20 2.90992
712.30 2.910458
712.40 2.910997
712.50 2.911535
712.60 2.912072
712.70 2.912609
712.80 2.913146
712.90 2.913682
713.00 2.914218
713.10 2.914754
713.20 2.915289
713.30 2.915823
713.40 2.916357
713.50 2.916891
713.60 2.917425
713.70 2.917961
713.80 2.918505
713.90 2.919049
714.00 2.919592
714.10 2.92013
714.20 2.920666
714.30 2.921202
714.40 2.921737
714.50 2.922272
714.60 2.922807
714.70 2.923341
714.80 2.923875
714.90 2.924408
715.00 2.924941
715.10 2.925474
715.20 2.926006
715.30 2.926538
715.40 2.927069
715.50 2.9276
715.60 2.928131
715.70 2.928661
715.80 2.92919
715.90 2.92972
716.00 2.930248
716.10 2.930777
716.20 2.931305
716.30 2.931833
716.40 2.93236
716.50 2.932887
716.60 2.933413
716.70 2.933939
716.80 2.934465
716.90 2.93499
717.00 2.935515
717.10 2.93604
717.20 2.936564
717.30 2.937088
717.40 2.937611
717.50 2.938134
717.60 2.938656
717.70 2.939178
717.80 2.9397
717.90 2.940221
718.00 2.940742
718.10 2.941263
718.20 2.941783
718.30 2.942302
718.40 2.942821
718.50 2.94334
718.60 2.943858
718.70 2.944376
718.80 2.944894
718.90 2.945411
719.00 2.945927
719.10 2.946444
719.20 2.94696
719.30 2.947475
719.40 2.94799
719.50 2.948505
719.60 2.949019
719.70 2.949533
719.80 2.950047
719.90 2.95056
720.00 2.951072
720.10 2.951585
720.20 2.952097
720.30 2.952608
720.40 2.953119
720.50 2.95363
720.60 2.95414
720.70 2.954561
720.80 2.954933
720.90 2.955445
721.00 2.955963
721.10 2.95648
721.20 2.956997
721.30 2.957514
721.40 2.95803
721.50 2.958546
721.60 2.959061
721.70 2.959576
721.80 2.960091
721.90 2.960605
722.00 2.961119
722.10 2.961633
722.20 2.962146
722.30 2.962658
722.40 2.96317
722.50 2.963682
722.60 2.964194
722.70 2.964693
722.80 2.965186
722.90 2.965678
723.00 2.96617
723.10 2.966662
723.20 2.967153
723.30 2.967644
723.40 2.968134
723.50 2.968624
723.60 2.969114
723.70 2.969603
723.80 2.970092
723.90 2.970581
724.00 2.971069
724.10 2.971557
724.20 2.972045
724.30 2.972533
724.40 2.973021
724.50 2.973509
724.60 2.973996
724.70 2.974483
724.80 2.974969
724.90 2.975456
725.00 2.975941
725.10 2.976427
725.20 2.976912
725.30 2.977396
725.40 2.97788
725.50 2.978364
725.60 2.978848
725.70 2.979331
725.80 2.979805
725.90 2.980275
726.00 2.980745
726.10 2.981214
726.20 2.981682
726.30 2.982151
726.40 2.982619
726.50 2.983087
726.60 2.983554
726.70 2.984021
726.80 2.984509
726.90 2.985008
727.00 2.985507
727.10 2.986005
727.20 2.986503
727.30 2.987001
727.40 2.987498
727.50 2.987995
727.60 2.988491
727.70 2.988987
727.80 2.989483
727.90 2.989978
728.00 2.990391
728.10 2.990832
728.20 2.991347
728.30 2.991799
728.40 2.99212
728.50 2.992613
728.60 2.993106
728.70 2.993598
728.80 2.99409
728.90 2.994582
729.00 2.995073
729.10 2.995564
729.20 2.996054
729.30 2.996544
729.40 2.997034
729.50 2.997523
729.60 2.997991
729.70 2.998447
729.80 2.998902
729.90 2.999357
730.00 2.999812
730.10 3.000266
730.20 3.00072
730.30 3.001174
730.40 3.001627
730.50 3.00208
730.60 3.00254
730.70 3.003005
730.80 3.003469
730.90 3.003932
731.00 3.004396
731.10 3.004858
731.20 3.005321
731.30 3.005783
731.40 3.006245
731.50 3.006707
731.60 3.007168
731.70 3.007628
731.80 3.008089
731.90 3.008549
732.00 3.009008
732.10 3.009468
732.20 3.009926
732.30 3.010383
732.40 3.01084
732.50 3.011296
732.60 3.011752
732.70 3.012208
732.80 3.012664
732.90 3.013119
733.00 3.013573
733.10 3.014028
733.20 3.014481
733.30 3.014935
733.40 3.015388
733.50 3.015841
733.60 3.016294
733.70 3.016744
733.80 3.017192
733.90 3.01764
734.00 3.018088
734.10 3.018535
734.20 3.018982
734.30 3.019429
734.40 3.019875
734.50 3.020321
734.60 3.020766
734.70 3.021211
734.80 3.021656
734.90 3.022101
735.00 3.022545
735.10 3.022989
735.20 3.023432
735.30 3.023872
735.40 3.024271
735.50 3.024671
735.60 3.02507
735.70 3.025496
735.80 3.025937
735.90 3.026377
736.00 3.026817
736.10 3.027256
736.20 3.027695
736.30 3.028134
736.40 3.028572
736.50 3.02901
736.60 3.029448
736.70 3.029885
736.80 3.030322
736.90 3.030759
737.00 3.031195
737.10 3.031631
737.20 3.032066
737.30 3.032502
737.40 3.032936
737.50 3.033371
737.60 3.033805
737.70 3.034239
737.80 3.034672
737.90 3.035105
738.00 3.035538
738.10 3.035971
738.20 3.036404
738.30 3.036837
738.40 3.03727
738.50 3.037702
738.60 3.038134
738.70 3.038566
738.80 3.038998
738.90 3.039429
739.00 3.03986
739.10 3.04029
739.20 3.04072
739.30 3.04115
739.40 3.041579
739.50 3.042009
739.60 3.042437
739.70 3.042866
739.80 3.043294
739.90 3.043721
740.00 3.044149
740.10 3.044576
740.20 3.045002
740.30 3.045429
740.40 3.045855
740.50 3.04628
740.60 3.046706
740.70 3.047131
740.80 3.047555
740.90 3.04798
741.00 3.048404
741.10 3.048827
741.20 3.049251
741.30 3.049673
741.40 3.050096
741.50 3.050518
741.60 3.05094
741.70 3.051362
741.80 3.051783
741.90 3.052204
742.00 3.052624
742.10 3.053045
742.20 3.053465
742.30 3.053884
742.40 3.054303
742.50 3.054722
742.60 3.055141
742.70 3.055549
742.80 3.055948
742.90 3.056346
743.00 3.056744
743.10 3.057142
743.20 3.05754
743.30 3.057937
743.40 3.058334
743.50 3.058731
743.60 3.059127
743.70 3.059525
743.80 3.059931
743.90 3.060336
744.00 3.060741
744.10 3.061145
744.20 3.061549
744.30 3.061953
744.40 3.062356
744.50 3.062759
744.60 3.063162
744.70 3.063565
744.80 3.063967
744.90 3.064368
745.00 3.06477
745.10 3.065171
745.20 3.065572
745.30 3.065972
745.40 3.066373
745.50 3.066772
745.60 3.067172
745.70 3.067571
745.80 3.06797
745.90 3.068369
746.00 3.068767
746.10 3.069165
746.20 3.069562
746.30 3.069959
746.40 3.070356
746.50 3.070753
746.60 3.071149
746.70 3.071545
746.80 3.071941
746.90 3.072336
747.00 3.072731
747.10 3.073126
747.20 3.07352
747.30 3.073914
747.40 3.074308
747.50 3.074701
747.60 3.075094
747.70 3.075487
747.80 3.07588
747.90 3.076272
748.00 3.076663
748.10 3.077055
748.20 3.077446
748.30 3.077837
748.40 3.078227
748.50 3.078618
748.60 3.079007
748.70 3.079397
748.80 3.079786
748.90 3.080175
749.00 3.080564
749.10 3.080952
749.20 3.08134
749.30 3.081728
749.40 3.082115
749.50 3.082502
749.60 3.082889
749.70 3.083275
749.80 3.083661
749.90 3.084047
750.00 3.084432
750.10 3.084824
750.20 3.085233
750.30 3.085642
750.40 3.08605
750.50 3.086458
750.60 3.086866
750.70 3.087273
750.80 3.08768
750.90 3.088086
751.00 3.088493
751.10 3.088899
751.20 3.089304
751.30 3.08971
751.40 3.090115
751.50 3.090519
751.60 3.090924
751.70 3.091328
751.80 3.091732
751.90 3.092135
752.00 3.092538
752.10 3.092941
752.20 3.093343
752.30 3.093745
752.40 3.094147
752.50 3.094548
752.60 3.09495
752.70 3.09535
752.80 3.095751
752.90 3.096151
753.00 3.096551
753.10 3.09695
753.20 3.09735
753.30 3.097748
753.40 3.098147
753.50 3.098545
753.60 3.098943
753.70 3.099341
753.80 3.099738
753.90 3.100078
754.00 3.100401
754.10 3.100723
754.20 3.101046
754.30 3.101368
754.40 3.10169
754.50 3.102011
754.60 3.102333
754.70 3.102654
754.80 3.102975
754.90 3.103295
755.00 3.103615
755.10 3.103935
755.20 3.104255
755.30 3.104574
755.40 3.104894
755.50 3.105212
755.60 3.105531
755.70 3.105849
755.80 3.106167
755.90 3.106485
756.00 3.106802
756.10 3.10712
756.20 3.107436
756.30 3.107753
756.40 3.108069
756.50 3.108385
756.60 3.108701
756.70 3.109017
756.80 3.109332
756.90 3.109647
757.00 3.109962
757.10 3.110276
757.20 3.11059
757.30 3.110904
757.40 3.111218
757.50 3.111531
757.60 3.111863
757.70 3.112245
757.80 3.112626
757.90 3.113007
758.00 3.113388
758.10 3.113768
758.20 3.114148
758.30 3.114528
758.40 3.114907
758.50 3.115287
758.60 3.115665
758.70 3.116044
758.80 3.116422
758.90 3.1168
759.00 3.117177
759.10 3.117555
759.20 3.117932
759.30 3.118308
759.40 3.118685
759.50 3.119061
759.60 3.119436
759.70 3.119812
759.80 3.120187
759.90 3.120562
760.00 3.120936
760.10 3.121311
760.20 3.121684
760.30 3.122058
760.40 3.122431
760.50 3.122804
760.60 3.123177
760.70 3.123549
760.80 3.123921
760.90 3.124293
761.00 3.124665
761.10 3.125036
761.20 3.125407
761.30 3.125777
761.40 3.126116
761.50 3.126406
761.60 3.126697
761.70 3.126987
761.80 3.127277
761.90 3.127566
762.00 3.127855
762.10 3.128144
762.20 3.128433
762.30 3.128722
762.40 3.12901
762.50 3.129298
762.60 3.129586
762.70 3.129873
762.80 3.13016
762.90 3.130447
763.00 3.130734
763.10 3.13102
763.20 3.131306
763.30 3.131592
763.40 3.131878
763.50 3.132163
763.60 3.132448
763.70 3.132733
763.80 3.133018
763.90 3.133302
764.00 3.133586
764.10 3.13387
764.20 3.134154
764.30 3.134437
764.40 3.13472
764.50 3.135003
764.60 3.135286
764.70 3.135568
764.80 3.13585
764.90 3.136132
765.00 3.136414
765.10 3.136695
765.20 3.13699
765.30 3.137299
765.40 3.137608
765.50 3.137916
765.60 3.138224
765.70 3.138532
765.80 3.138839
765.90 3.139146
766.00 3.139453
766.10 3.13976
766.20 3.140066
766.30 3.140372
766.40 3.140678
766.50 3.140984
766.60 3.141289
766.70 3.141594
766.80 3.141899
766.90 3.142203
767.00 3.142507
767.10 3.142811
767.20 3.143115
767.30 3.143419
767.40 3.143722
767.50 3.144025
767.60 3.144327
767.70 3.14463
767.80 3.144932
767.90 3.145234
768.00 3.145535
768.10 3.145837
768.20 3.146138
768.30 3.146438
768.40 3.146739
768.50 3.147039
768.60 3.147339
768.70 3.147639
768.80 3.147939
768.90 3.148238
769.00 3.148537
769.10 3.148835
769.20 3.149134
769.30 3.149432
769.40 3.14973
769.50 3.150028
769.60 3.150325
769.70 3.150622
769.80 3.150919
769.90 3.151216
770.00 3.151512
770.10 3.151808
770.20 3.152104
770.30 3.152399
770.40 3.152695
770.50 3.15299
770.60 3.153285
770.70 3.153579
770.80 3.153873
770.90 3.154167
771.00 3.154461
771.10 3.154755
771.20 3.155048
771.30 3.155341
771.40 3.155634
771.50 3.155926
771.60 3.156218
771.70 3.15651
771.80 3.156802
771.90 3.157093
772.00 3.157385
772.10 3.157675
772.20 3.157966
772.30 3.158257
772.40 3.158547
772.50 3.158837
772.60 3.159126
772.70 3.159416
772.80 3.159705
772.90 3.160021
773.00 3.160336
773.10 3.160651
773.20 3.160966
773.30 3.161281
773.40 3.161595
773.50 3.16191
773.60 3.162223
773.70 3.162537
773.80 3.16285
773.90 3.163163
774.00 3.163476
774.10 3.163789
774.20 3.164101
774.30 3.164413
774.40 3.164725
774.50 3.165036
774.60 3.165348
774.70 3.165659
774.80 3.165969
774.90 3.16628
775.00 3.16659
775.10 3.1669
775.20 3.167209
775.30 3.167519
775.40 3.167828
775.50 3.168137
775.60 3.168445
775.70 3.168754
775.80 3.169062
775.90 3.169369
776.00 3.169677
776.10 3.169984
776.20 3.170291
776.30 3.170598
776.40 3.170904
776.50 3.17121
776.60 3.171516
776.70 3.171822
776.80 3.172127
776.90 3.172433
777.00 3.172737
777.10 3.173042
777.20 3.173346
777.30 3.173651
777.40 3.173954
777.50 3.174258
777.60 3.174561
777.70 3.174864
777.80 3.175167
777.90 3.17547
778.00 3.175772
778.10 3.176074
778.20 3.176376
778.30 3.176677
778.40 3.176978
778.50 3.177279
778.60 3.17758
778.70 3.177881
778.80 3.178181
778.90 3.178481
779.00 3.17878
779.10 3.17908
779.20 3.179379
779.30 3.179678
779.40 3.179976
779.50 3.180275
779.60 3.180573
779.70 3.180871
779.80 3.181168
779.90 3.181466
780.00 3.181763
780.10 3.18206
780.20 3.182356
780.30 3.182653
780.40 3.182949
780.50 3.183244
780.60 3.183505
780.70 3.183751
780.80 3.183997
780.90 3.184243
781.00 3.184489
781.10 3.184734
781.20 3.18498
781.30 3.185225
781.40 3.185469
781.50 3.185714
781.60 3.185958
781.70 3.186202
781.80 3.186446
781.90 3.18669
782.00 3.186933
782.10 3.187177
782.20 3.187419
782.30 3.187662
782.40 3.187905
782.50 3.188147
782.60 3.188389
782.70 3.188631
782.80 3.188872
782.90 3.189114
783.00 3.189355
783.10 3.189596
783.20 3.189836
783.30 3.190077
783.40 3.190317
783.50 3.190557
783.60 3.190797
783.70 3.191036
783.80 3.191276
783.90 3.191515
784.00 3.191754
784.10 3.191992
784.20 3.192231
784.30 3.192469
784.40 3.192707
784.50 3.192945
784.60 3.193183
784.70 3.193423
784.80 3.193663
784.90 3.193902
785.00 3.194141
785.10 3.19438
785.20 3.194619
785.30 3.194858
785.40 3.195096
785.50 3.195334
785.60 3.195572
785.70 3.19581
785.80 3.196047
785.90 3.196285
786.00 3.196522
786.10 3.196758
786.20 3.196995
786.30 3.197231
786.40 3.197467
786.50 3.197703
786.60 3.197939
786.70 3.198174
786.80 3.19841
786.90 3.198645
787.00 3.19888
787.10 3.199114
787.20 3.199348
787.30 3.199583
787.40 3.199816
787.50 3.20005
787.60 3.200284
787.70 3.200517
787.80 3.20075
787.90 3.200983
788.00 3.201215
788.10 3.201448
788.20 3.20168
788.30 3.201912
788.40 3.202111
788.50 3.202296
788.60 3.202479
788.70 3.202663
788.80 3.202847
788.90 3.20303
789.00 3.203213
789.10 3.203396
789.20 3.203579
789.30 3.203761
789.40 3.203943
789.50 3.204126
789.60 3.204308
789.70 3.204489
789.80 3.204671
789.90 3.204852
790.00 3.205033
790.10 3.205214
790.20 3.205395
790.30 3.205576
790.40 3.205756
790.50 3.205936
790.60 3.206116
790.70 3.206296
790.80 3.206476
790.90 3.206655
791.00 3.206834
791.10 3.207013
791.20 3.207192
791.30 3.207371
791.40 3.207549
791.50 3.207727
791.60 3.207905
791.70 3.208083
791.80 3.208261
791.90 3.208438
792.00 3.208616
792.10 3.208793
792.20 3.20897
792.30 3.209164
792.40 3.209411
792.50 3.209658
792.60 3.209905
792.70 3.210152
792.80 3.210398
792.90 3.210644
793.00 3.21089
793.10 3.211136
793.20 3.211381
793.30 3.211626
793.40 3.211871
793.50 3.212116
793.60 3.212361
793.70 3.212605
793.80 3.212849
793.90 3.213093
794.00 3.213337
794.10 3.21358
794.20 3.213823
794.30 3.214066
794.40 3.214309
794.50 3.214551
794.60 3.214794
794.70 3.215036
794.80 3.215277
794.90 3.215519
795.00 3.21576
795.10 3.216002
795.20 3.216243
795.30 3.216483
795.40 3.216724
795.50 3.216964
795.60 3.217204
795.70 3.217444
795.80 3.217684
795.90 3.217923
796.00 3.218162
796.10 3.218401
796.20 3.21864
796.30 3.21884
796.40 3.219034
796.50 3.219227
796.60 3.21942
796.70 3.219612
796.80 3.219805
796.90 3.219997
797.00 3.220189
797.10 3.220381
797.20 3.220573
797.30 3.220764
797.40 3.220955
797.50 3.221146
797.60 3.221337
797.70 3.221528
797.80 3.221718
797.90 3.221909
798.00 3.222099
798.10 3.222289
798.20 3.222478
798.30 3.222668
798.40 3.222857
798.50 3.223046
798.60 3.223235
798.70 3.223424
798.80 3.223612
798.90 3.223801
799.00 3.223989
799.10 3.224177
799.20 3.224364
799.30 3.224552
799.40 3.224739
799.50 3.224926
799.60 3.225113
799.70 3.2253
799.80 3.225487
799.90 3.225673
800.00 3.225859
800.10 3.226045
800.20 3.226231
800.30 3.226417
800.40 3.226602
800.50 3.226787
800.60 3.226972
800.70 3.227157
800.80 3.227342
800.90 3.227526
801.00 3.22771
801.10 3.227894
801.20 3.228078
801.30 3.228262
801.40 3.228445
801.50 3.228629
801.60 3.228812
801.70 3.228995
801.80 3.229177
801.90 3.22936
802.00 3.229542
802.10 3.229724
802.20 3.229906
802.30 3.230088
802.40 3.23027
802.50 3.230451
802.60 3.230632
802.70 3.230813
802.80 3.230994
802.90 3.231174
803.00 3.231355
803.10 3.231535
803.20 3.231715
803.30 3.231895
803.40 3.232075
803.50 3.232254
803.60 3.232433
803.70 3.232612
803.80 3.232791
803.90 3.23297
804.00 3.233149
804.10 3.233327
804.20 3.233496
804.30 3.23363
804.40 3.233765
804.50 3.233899
804.60 3.234033
804.70 3.234167
804.80 3.234301
804.90 3.234435
805.00 3.234568
805.10 3.234701
805.20 3.234835
805.30 3.234968
805.40 3.2351
805.50 3.235233
805.60 3.235366
805.70 3.235498
805.80 3.23563
805.90 3.235762
806.00 3.235894
806.10 3.236026
806.20 3.236157
806.30 3.236289
806.40 3.23642
806.50 3.236551
806.60 3.236682
806.70 3.236812
806.80 3.236943
806.90 3.237073
807.00 3.237203
807.10 3.237333
807.20 3.237463
807.30 3.237593
807.40 3.237723
807.50 3.237852
807.60 3.237981
807.70 3.23811
807.80 3.238239
807.90 3.238368
808.00 3.238496
808.10 3.238625
808.20 3.238754
808.30 3.238948
808.40 3.239142
808.50 3.239336
808.60 3.23953
808.70 3.239724
808.80 3.239917
808.90 3.240111
809.00 3.240304
809.10 3.240497
809.20 3.240689
809.30 3.240882
809.40 3.241074
809.50 3.241266
809.60 3.241458
809.70 3.24165
809.80 3.241842
809.90 3.242033
810.00 3.242224
810.10 3.242415
810.20 3.242606
810.30 3.242796
810.40 3.242987
810.50 3.243177
810.60 3.243367
810.70 3.243557
810.80 3.243746
810.90 3.243936
811.00 3.244125
811.10 3.244314
811.20 3.244503
811.30 3.244692
811.40 3.24488
811.50 3.245068
811.60 3.245256
811.70 3.245444
811.80 3.245632
811.90 3.24582
812.00 3.246007
812.10 3.246194
812.20 3.246381
812.30 3.246532
812.40 3.246674
812.50 3.246815
812.60 3.246957
812.70 3.247098
812.80 3.24724
812.90 3.247381
813.00 3.247521
813.10 3.247662
813.20 3.247803
813.30 3.247943
813.40 3.248083
813.50 3.248223
813.60 3.248363
813.70 3.248503
813.80 3.248642
813.90 3.248782
814.00 3.248921
814.10 3.24906
814.20 3.249199
814.30 3.249337
814.40 3.249476
814.50 3.249614
814.60 3.249752
814.70 3.24989
814.80 3.250028
814.90 3.250166
815.00 3.250304
815.10 3.250441
815.20 3.250578
815.30 3.250715
815.40 3.250852
815.50 3.250989
815.60 3.251125
815.70 3.251262
815.80 3.251398
815.90 3.251534
816.00 3.25167
816.10 3.251805
816.20 3.251941
816.30 3.252076
816.40 3.252212
816.50 3.252347
816.60 3.252482
816.70 3.252616
816.80 3.252751
816.90 3.252885
817.00 3.253019
817.10 3.253154
817.20 3.253287
817.30 3.253421
817.40 3.253555
817.50 3.253688
817.60 3.253821
817.70 3.253955
817.80 3.254088
817.90 3.25422
818.00 3.254353
818.10 3.254485
818.20 3.254618
818.30 3.25475
818.40 3.254882
818.50 3.255014
818.60 3.255145
818.70 3.255277
818.80 3.255408
818.90 3.255539
819.00 3.25567
819.10 3.255801
819.20 3.255932
819.30 3.256057
819.40 3.256178
819.50 3.256298
819.60 3.256419
819.70 3.25654
819.80 3.25666
819.90 3.25678
820.00 3.2569
820.10 3.256938
820.20 3.257143
820.30 3.257471
820.40 3.257657
820.50 3.257742
820.60 3.257826
820.70 3.25791
820.80 3.257994
820.90 3.258078
821.00 3.258162
821.10 3.258245
821.20 3.258329
821.30 3.258412
821.40 3.258496
821.50 3.258579
821.60 3.258662
821.70 3.258744
821.80 3.258827
821.90 3.258909
822.00 3.258992
822.10 3.259074
822.20 3.259156
822.30 3.259238
822.40 3.25932
822.50 3.259402
822.60 3.259483
822.70 3.259565
822.80 3.259646
822.90 3.259727
823.00 3.259808
823.10 3.259889
823.20 3.25997
823.30 3.26005
823.40 3.260131
823.50 3.260211
823.60 3.260291
823.70 3.260372
823.80 3.260451
823.90 3.260531
824.00 3.260611
824.10 3.26069
824.20 3.26077
824.30 3.260849
824.40 3.260928
824.50 3.261007
824.60 3.261086
824.70 3.261165
824.80 3.261243
824.90 3.261322
825.00 3.2614
825.10 3.261478
825.20 3.261556
825.30 3.261634
825.40 3.261712
825.50 3.26179
825.60 3.261867
825.70 3.261945
825.80 3.262022
825.90 3.262099
826.00 3.262176
826.10 3.262253
826.20 3.26233
826.30 3.262485
826.40 3.262692
826.50 3.262899
826.60 3.263106
826.70 3.263312
826.80 3.263519
826.90 3.263725
827.00 3.263931
827.10 3.264137
827.20 3.264342
827.30 3.264548
827.40 3.264753
827.50 3.264958
827.60 3.265163
827.70 3.265367
827.80 3.265572
827.90 3.265776
828.00 3.26598
828.10 3.266184
828.20 3.266388
828.30 3.266591
828.40 3.266794
828.50 3.266997
828.60 3.267128
828.70 3.267198
828.80 3.267268
828.90 3.267338
829.00 3.267407
829.10 3.267476
829.20 3.267545
829.30 3.267615
829.40 3.267683
829.50 3.267752
829.60 3.267821
829.70 3.267889
829.80 3.267958
829.90 3.268026
830.00 3.268094
830.10 3.268162
830.20 3.26823
830.30 3.268298
830.40 3.268366
830.50 3.268433
830.60 3.268501
830.70 3.268568
830.80 3.268635
830.90 3.268702
831.00 3.268769
831.10 3.268836
831.20 3.268902
831.30 3.268969
831.40 3.269035
831.50 3.269101
831.60 3.269167
831.70 3.269233
831.80 3.269299
831.90 3.269365
832.00 3.269431
832.10 3.269496
832.20 3.269562
832.30 3.269627
832.40 3.269692
832.50 3.269757
832.60 3.269822
832.70 3.269887
832.80 3.269951
832.90 3.270016
833.00 3.27008
833.10 3.270144
833.20 3.270208
833.30 3.270272
833.40 3.270336
833.50 3.2704
833.60 3.270464
833.70 3.270527
833.80 3.27059
833.90 3.270654
834.00 3.270717
834.10 3.27078
834.20 3.270843
834.30 3.270905
834.40 3.270968
834.50 3.27103
834.60 3.271093
834.70 3.271155
834.80 3.271217
834.90 3.271279
835.00 3.271341
835.10 3.271403
835.20 3.271464
835.30 3.271526
835.40 3.271587
835.50 3.271649
835.60 3.27171
835.70 3.271771
835.80 3.271832
835.90 3.271892
836.00 3.271953
836.10 3.272014
836.20 3.272074
836.30 3.272134
836.40 3.272194
836.50 3.272254
836.60 3.272314
836.70 3.272374
836.80 3.272434
836.90 3.272488
837.00 3.272539
837.10 3.27259
837.20 3.27264
837.30 3.272691
837.40 3.272742
837.50 3.272792
837.60 3.272843
837.70 3.272893
837.80 3.272943
837.90 3.272993
838.00 3.273043
838.10 3.273093
838.20 3.273142
838.30 3.273192
838.40 3.273241
838.50 3.273291
838.60 3.27334
838.70 3.273389
838.80 3.273438
838.90 3.273487
839.00 3.273536
839.10 3.273584
839.20 3.273633
839.30 3.273681
839.40 3.273729
839.50 3.273778
839.60 3.273826
839.70 3.273873
839.80 3.273921
839.90 3.273969
840.00 3.274017
840.10 3.274064
840.20 3.274111
840.30 3.274159
840.40 3.274206
840.50 3.274253
840.60 3.2743
840.70 3.274346
840.80 3.274393
840.90 3.27444
841.00 3.274486
841.10 3.274532
841.20 3.274578
841.30 3.274624
841.40 3.27467
841.50 3.274716
841.60 3.274761
841.70 3.274806
841.80 3.274852
841.90 3.274897
842.00 3.274942
842.10 3.274987
842.20 3.275032
842.30 3.275077
842.40 3.275121
842.50 3.275166
842.60 3.27521
842.70 3.275255
842.80 3.275299
842.90 3.275343
843.00 3.275387
843.10 3.275431
843.20 3.275474
843.30 3.275518
843.40 3.275561
843.50 3.275605
843.60 3.275648
843.70 3.275691
843.80 3.275734
843.90 3.275777
844.00 3.27582
844.10 3.275863
844.20 3.275905
844.30 3.275948
844.40 3.27599
844.50 3.276033
844.60 3.276075
844.70 3.276117
844.80 3.276159
844.90 3.2762
845.00 3.276242
845.10 3.276284
845.20 3.276325
845.30 3.276388
845.40 3.27645
845.50 3.276512
845.60 3.276574
845.70 3.276636
845.80 3.276697
845.90 3.276759
846.00 3.276821
846.10 3.276882
846.20 3.276943
846.30 3.277004
846.40 3.277065
846.50 3.277126
846.60 3.277187
846.70 3.277248
846.80 3.277308
846.90 3.277368
847.00 3.277429
847.10 3.277489
847.20 3.277549
847.30 3.277609
847.40 3.277669
847.50 3.277728
847.60 3.277788
847.70 3.277847
847.80 3.277907
847.90 3.277966
848.00 3.278025
848.10 3.278084
848.20 3.278143
848.30 3.278202
848.40 3.27826
848.50 3.278319
848.60 3.278377
848.70 3.278435
848.80 3.278493
848.90 3.278551
849.00 3.278609
849.10 3.278667
849.20 3.278725
849.30 3.278782
849.40 3.27884
849.50 3.278897
849.60 3.278954
849.70 3.279011
849.80 3.279068
849.90 3.279125
850.00 3.279182
850.10 3.279238
850.20 3.279295
850.30 3.279351
850.40 3.279408
850.50 3.279464
850.60 3.27952
850.70 3.279576
850.80 3.279631
850.90 3.279687
851.00 3.279743
851.10 3.279798
851.20 3.279853
851.30 3.279909
851.40 3.279964
851.50 3.280019
851.60 3.280074
851.70 3.280128
851.80 3.280183
851.90 3.280237
852.00 3.280292
852.10 3.280346
852.20 3.2804
852.30 3.280454
852.40 3.280508
852.50 3.280562
852.60 3.280616
852.70 3.280669
852.80 3.280723
852.90 3.280776
853.00 3.280829
853.10 3.280882
853.20 3.280935
853.30 3.280988
853.40 3.281041
853.50 3.281094
853.60 3.281146
853.70 3.281181
853.80 3.281198
853.90 3.281214
854.00 3.28123
854.10 3.281246
854.20 3.281261
854.30 3.281277
854.40 3.281293
854.50 3.281308
854.60 3.281324
854.70 3.281339
854.80 3.281354
854.90 3.28137
855.00 3.281385
855.10 3.2814
855.20 3.281414
855.30 3.281429
855.40 3.281444
855.50 3.281458
855.60 3.281473
855.70 3.281487
855.80 3.281501
855.90 3.281516
856.00 3.28153
856.10 3.281544
856.20 3.281558
856.30 3.281571
856.40 3.281585
856.50 3.281599
856.60 3.281612
856.70 3.281626
856.80 3.281639
856.90 3.281652
857.00 3.281665
857.10 3.281678
857.20 3.281691
857.30 3.281704
857.40 3.281717
857.50 3.281729
857.60 3.281742
857.70 3.281754
857.80 3.281767
857.90 3.281779
858.00 3.281791
858.10 3.281803
858.20 3.281815
858.30 3.281827
858.40 3.281839
858.50 3.281851
858.60 3.281862
858.70 3.281874
858.80 3.281885
858.90 3.281897
859.00 3.281908
859.10 3.281919
859.20 3.28193
859.30 3.281941
859.40 3.281952
859.50 3.281962
859.60 3.281973
859.70 3.281984
859.80 3.281994
859.90 3.282005
860.00 3.282015
860.10 3.282025
860.20 3.282035
860.30 3.282045
860.40 3.282055
860.50 3.282065
860.60 3.282075
860.70 3.282084
860.80 3.282094
860.90 3.282103
861.00 3.282113
861.10 3.282122
861.20 3.282131
861.30 3.28214
861.40 3.282149
861.50 3.282158
861.60 3.282167
861.70 3.282175
861.80 3.282184
861.90 3.282193
862.00 3.282201
862.10 3.282209
862.20 3.282213
862.30 3.282187
862.40 3.28216
862.50 3.282133
862.60 3.282106
862.70 3.282079
862.80 3.282052
862.90 3.282025
863.00 3.281997
863.10 3.28197
863.20 3.281943
863.30 3.281915
863.40 3.281888
863.50 3.28186
863.60 3.281832
863.70 3.281805
863.80 3.281777
863.90 3.281749
864.00 3.281721
864.10 3.281693
864.20 3.281665
864.30 3.281636
864.40 3.281608
864.50 3.28158
864.60 3.281551
864.70 3.281523
864.80 3.281494
864.90 3.281465
865.00 3.281437
865.10 3.281408
865.20 3.281379
865.30 3.28135
865.40 3.281321
865.50 3.281292
865.60 3.281263
865.70 3.281233
865.80 3.281204
865.90 3.281175
866.00 3.281145
866.10 3.281115
866.20 3.281086
866.30 3.281056
866.40 3.281026
866.50 3.280996
866.60 3.280966
866.70 3.280936
866.80 3.280906
866.90 3.280876
867.00 3.280846
867.10 3.280816
867.20 3.280785
867.30 3.280755
867.40 3.280724
867.50 3.280694
867.60 3.280663
867.70 3.280632
867.80 3.280602
867.90 3.280571
868.00 3.28054
868.10 3.280509
868.20 3.280478
868.30 3.280446
868.40 3.280415
868.50 3.280384
868.60 3.280352
868.70 3.280321
868.80 3.280289
868.90 3.280258
869.00 3.280226
869.10 3.280194
869.20 3.280162
869.30 3.280131
869.40 3.280099
869.50 3.280067
869.60 3.280034
869.70 3.280002
869.80 3.27997
869.90 3.279938
870.00 3.279905
870.10 3.279873
870.20 3.27984
870.30 3.279808
870.40 3.279775
870.50 3.279742
870.60 3.279709
870.70 3.279676
870.80 3.279643
870.90 3.279628
871.00 3.279614
871.10 3.2796
871.20 3.279586
871.30 3.279572
871.40 3.279558
871.50 3.279543
871.60 3.279529
871.70 3.279515
871.80 3.2795
871.90 3.279486
872.00 3.279471
872.10 3.279456
872.20 3.279442
872.30 3.279427
872.40 3.279412
872.50 3.279397
872.60 3.279382
872.70 3.279366
872.80 3.279351
872.90 3.279336
873.00 3.27932
873.10 3.279305
873.20 3.279289
873.30 3.279274
873.40 3.279258
873.50 3.279242
873.60 3.279226
873.70 3.27921
873.80 3.279194
873.90 3.279178
874.00 3.279162
874.10 3.279145
874.20 3.279129
874.30 3.279113
874.40 3.279096
874.50 3.279079
874.60 3.279063
874.70 3.279046
874.80 3.279029
874.90 3.279012
875.00 3.278995
875.10 3.278978
875.20 3.278942
875.30 3.278873
875.40 3.278803
875.50 3.278734
875.60 3.278664
875.70 3.278594
875.80 3.278524
875.90 3.278455
876.00 3.278385
876.10 3.278315
876.20 3.278245
876.30 3.278175
876.40 3.278105
876.50 3.278034
876.60 3.277964
876.70 3.277894
876.80 3.277824
876.90 3.277753
877.00 3.277683
877.10 3.277612
877.20 3.277542
877.30 3.277471
877.40 3.277401
877.50 3.27733
877.60 3.277259
877.70 3.277188
877.80 3.277118
877.90 3.277047
878.00 3.276976
878.10 3.276905
878.20 3.276834
878.30 3.276763
878.40 3.276691
878.50 3.27662
878.60 3.276549
878.70 3.276478
878.80 3.276406
878.90 3.276335
879.00 3.276263
879.10 3.276192
879.20 3.27612
879.30 3.276049
879.40 3.275977
879.50 3.275905
879.60 3.27587
879.70 3.275843
879.80 3.275815
879.90 3.275788
880.00 3.27576
880.10 3.275733
880.20 3.275705
880.30 3.275677
880.40 3.275649
880.50 3.275621
880.60 3.275593
880.70 3.275565
880.80 3.275537
880.90 3.275509
881.00 3.275481
881.10 3.275452
881.20 3.275424
881.30 3.275396
881.40 3.275367
881.50 3.275338
881.60 3.27531
881.70 3.275281
881.80 3.275252
881.90 3.275223
882.00 3.275194
882.10 3.275165
882.20 3.275136
882.30 3.275107
882.40 3.275078
882.50 3.275048
882.60 3.275019
882.70 3.274989
882.80 3.27496
882.90 3.27493
883.00 3.2749
883.10 3.274871
883.20 3.274841
883.30 3.274811
883.40 3.274781
883.50 3.274751
883.60 3.274721
883.70 3.274691
883.80 3.27466
883.90 3.27463
884.00 3.274557
884.10 3.274476
884.20 3.274395
884.30 3.274314
884.40 3.274233
884.50 3.274151
884.60 3.27407
884.70 3.273989
884.80 3.273908
884.90 3.273826
885.00 3.273745
885.10 3.273663
885.20 3.273582
885.30 3.2735
885.40 3.273418
885.50 3.273337
885.60 3.273255
885.70 3.273173
885.80 3.273091
885.90 3.273009
886.00 3.272927
886.10 3.272846
886.20 3.272763
886.30 3.272681
886.40 3.272599
886.50 3.272517
886.60 3.272435
886.70 3.272353
886.80 3.27227
886.90 3.272188
887.00 3.272106
887.10 3.272023
887.20 3.271941
887.30 3.271858
887.40 3.271776
887.50 3.271693
887.60 3.27161
887.70 3.271528
887.80 3.271445
887.90 3.271362
888.00 3.271279
888.10 3.271196
888.20 3.271113
888.30 3.27103
888.40 3.270963
888.50 3.270899
888.60 3.270834
888.70 3.270769
888.80 3.270704
888.90 3.270639
889.00 3.270574
889.10 3.270509
889.20 3.270444
889.30 3.270379
889.40 3.270313
889.50 3.270248
889.60 3.270183
889.70 3.270117
889.80 3.270052
889.90 3.269986
890.00 3.269921
890.10 3.269855
890.20 3.26979
890.30 3.269724
890.40 3.269658
890.50 3.269592
890.60 3.269526
890.70 3.269461
890.80 3.269395
890.90 3.269329
891.00 3.269262
891.10 3.269196
891.20 3.26913
891.30 3.269064
891.40 3.268998
891.50 3.268931
891.60 3.268865
891.70 3.268798
891.80 3.268732
891.90 3.268665
892.00 3.268599
892.10 3.268532
892.20 3.268465
892.30 3.268399
892.40 3.268332
892.50 3.268265
892.60 3.268198
892.70 3.268131
892.80 3.268064
892.90 3.267997
893.00 3.26793
893.10 3.267863
893.20 3.267795
893.30 3.267728
893.40 3.267661
893.50 3.267593
893.60 3.267526
893.70 3.267458
893.80 3.267391
893.90 3.267323
894.00 3.267256
894.10 3.267188
894.20 3.26712
894.30 3.267052
894.40 3.266985
894.50 3.266917
894.60 3.266849
894.70 3.266781
894.80 3.266713
894.90 3.266645
895.00 3.266576
895.10 3.266508
895.20 3.26644
895.30 3.266372
895.40 3.266303
895.50 3.266235
895.60 3.266166
895.70 3.266098
895.80 3.266029
895.90 3.265961
896.00 3.265892
896.10 3.265823
896.20 3.265754
896.30 3.265686
896.40 3.265617
896.50 3.265548
896.60 3.265479
896.70 3.26541
896.80 3.265341
896.90 3.265272
897.00 3.265203
897.10 3.265133
897.20 3.265063
897.30 3.264963
897.40 3.264863
897.50 3.264763
897.60 3.264663
897.70 3.264562
897.80 3.264462
897.90 3.264362
898.00 3.264262
898.10 3.264161
898.20 3.264061
898.30 3.263961
898.40 3.26386
898.50 3.26376
898.60 3.26366
898.70 3.263559
898.80 3.263458
898.90 3.263358
899.00 3.263257
899.10 3.263157
899.20 3.263056
899.30 3.262955
899.40 3.262854
899.50 3.262754
899.60 3.262653
899.70 3.262552
899.80 3.262451
899.90 3.26235
900.00 3.262249
900.10 3.262148
900.20 3.262047
900.30 3.261946
900.40 3.261845
900.50 3.261744
900.60 3.261643
900.70 3.261541
900.80 3.26144
900.90 3.261339
901.00 3.261237
901.10 3.261136
901.20 3.261035
901.30 3.260933
901.40 3.260832
901.50 3.26073
901.60 3.260629
901.70 3.260527
901.80 3.260426
901.90 3.260324
902.00 3.260222
902.10 3.260121
902.20 3.260019
902.30 3.259917
902.40 3.259815
902.50 3.259713
902.60 3.259611
902.70 3.25951
902.80 3.259408
902.90 3.259306
903.00 3.259204
903.10 3.259101
903.20 3.258999
903.30 3.258897
903.40 3.258795
903.50 3.258693
903.60 3.258591
903.70 3.258488
903.80 3.258386
903.90 3.258284
904.00 3.258181
904.10 3.258079
904.20 3.257976
904.30 3.257874
904.40 3.257771
904.50 3.257669
904.60 3.257566
904.70 3.257464
904.80 3.257361
904.90 3.257258
905.00 3.257156
905.10 3.257053
905.20 3.25695
905.30 3.256847
905.40 3.256744
905.50 3.256642
905.60 3.256539
905.70 3.256436
905.80 3.256333
905.90 3.25623
906.00 3.256127
906.10 3.256024
906.20 3.255933
906.30 3.255871
906.40 3.255809
906.50 3.255746
906.60 3.255684
906.70 3.255621
906.80 3.255558
906.90 3.255496
907.00 3.255433
907.10 3.25537
907.20 3.255307
907.30 3.255244
907.40 3.255181
907.50 3.255118
907.60 3.255055
907.70 3.254992
907.80 3.254929
907.90 3.254865
908.00 3.254802
908.10 3.254739
908.20 3.254675
908.30 3.254612
908.40 3.254549
908.50 3.254485
908.60 3.254421
908.70 3.254358
908.80 3.254294
908.90 3.25423
909.00 3.254167
909.10 3.254103
909.20 3.254039
909.30 3.253975
909.40 3.253911
909.50 3.253847
909.60 3.253783
909.70 3.253719
909.80 3.253654
909.90 3.25359
910.00 3.253526
910.10 3.253461
910.20 3.253397
910.30 3.253333
910.40 3.253268
910.50 3.253204
910.60 3.253139
910.70 3.253073
910.80 3.252916
910.90 3.252758
911.00 3.252601
911.10 3.252443
911.20 3.252286
911.30 3.252128
911.40 3.251971
911.50 3.251813
911.60 3.251656
911.70 3.251498
911.80 3.25134
911.90 3.251183
912.00 3.251025
912.10 3.250868
912.20 3.25071
912.30 3.250552
912.40 3.250395
912.50 3.250237
912.60 3.250079
912.70 3.249922
912.80 3.249764
912.90 3.249606
913.00 3.249449
913.10 3.249291
913.20 3.249133
913.30 3.248975
913.40 3.248818
913.50 3.24866
913.60 3.248502
913.70 3.248344
913.80 3.248187
913.90 3.248029
914.00 3.247871
914.10 3.247713
914.20 3.247555
914.30 3.247398
914.40 3.24724
914.50 3.247082
914.60 3.246924
914.70 3.246766
914.80 3.246608
914.90 3.246451
915.00 3.246293
915.10 3.246135
915.20 3.245977
915.30 3.245847
915.40 3.245729
915.50 3.245611
915.60 3.245493
915.70 3.245376
915.80 3.245258
915.90 3.24514
916.00 3.245022
916.10 3.244904
916.20 3.244786
916.30 3.244667
916.40 3.244549
916.50 3.244431
916.60 3.244313
916.70 3.244195
916.80 3.244077
916.90 3.243958
917.00 3.24384
917.10 3.243722
917.20 3.243604
917.30 3.243485
917.40 3.243367
917.50 3.243248
917.60 3.24313
917.70 3.243012
917.80 3.242893
917.90 3.242775
918.00 3.242656
918.10 3.242538
918.20 3.242419
918.30 3.2423
918.40 3.242182
918.50 3.242063
918.60 3.241944
918.70 3.241826
918.80 3.241707
918.90 3.241588
919.00 3.241469
919.10 3.241351
919.20 3.241232
919.30 3.241113
919.40 3.240994
919.50 3.240875
919.60 3.240756
919.70 3.240637
919.80 3.240518
919.90 3.240399
920.00 3.24028
920.10 3.240161
920.20 3.240042
920.30 3.239923
920.40 3.239804
920.50 3.239685
920.60 3.239566
920.70 3.239447
920.80 3.239327
920.90 3.239208
921.00 3.239089
921.10 3.23897
921.20 3.23885
921.30 3.238731
921.40 3.238612
921.50 3.238492
921.60 3.238373
921.70 3.238253
921.80 3.238134
921.90 3.238014
922.00 3.237895
922.10 3.237775
922.20 3.237656
922.30 3.237536
922.40 3.237417
922.50 3.237297
922.60 3.237177
922.70 3.237058
922.80 3.236938
922.90 3.236818
923.00 3.236698
923.10 3.236579
923.20 3.236459
923.30 3.236339
923.40 3.236219
923.50 3.236099
923.60 3.235979
923.70 3.235859
923.80 3.235739
923.90 3.23562
924.00 3.2355
924.10 3.23538
924.20 3.235259
924.30 3.235139
924.40 3.235018
924.50 3.234892
924.60 3.234766
924.70 3.234641
924.80 3.234515
924.90 3.234389
925.00 3.234263
925.10 3.234137
925.20 3.234011
925.30 3.233885
925.40 3.233759
925.50 3.233632
925.60 3.233506
925.70 3.23338
925.80 3.233254
925.90 3.233128
926.00 3.233002
926.10 3.232875
926.20 3.232749
926.30 3.232623
926.40 3.232497
926.50 3.23237
926.60 3.232244
926.70 3.232118
926.80 3.231991
926.90 3.231865
927.00 3.231739
927.10 3.231612
927.20 3.231486
927.30 3.231359
927.40 3.231233
927.50 3.231106
927.60 3.23098
927.70 3.230853
927.80 3.230727
927.90 3.2306
928.00 3.230473
928.10 3.230347
928.20 3.23022
928.30 3.230093
928.40 3.229967
928.50 3.22984
928.60 3.229713
928.70 3.229586
928.80 3.22946
928.90 3.229333
929.00 3.229206
929.10 3.229037
929.20 3.228867
929.30 3.228696
929.40 3.228526
929.50 3.228355
929.60 3.228185
929.70 3.228014
929.80 3.227843
929.90 3.227673
930.00 3.227502
930.10 3.227332
930.20 3.227161
930.30 3.226991
930.40 3.22682
930.50 3.226649
930.60 3.226479
930.70 3.226308
930.80 3.226138
930.90 3.225967
931.00 3.225797
931.10 3.225626
931.20 3.225456
931.30 3.225285
931.40 3.225114
931.50 3.224944
931.60 3.224773
931.70 3.224603
931.80 3.224432
931.90 3.224261
932.00 3.224091
932.10 3.22392
932.20 3.22375
932.30 3.223579
932.40 3.223409
932.50 3.223238
932.60 3.223067
932.70 3.222897
932.80 3.222726
932.90 3.222556
933.00 3.222385
933.10 3.222214
933.20 3.222044
933.30 3.221873
933.40 3.221703
933.50 3.221532
933.60 3.221361
933.70 3.221203
933.80 3.221049
933.90 3.220894
934.00 3.22074
934.10 3.220586
934.20 3.220431
934.30 3.220277
934.40 3.220123
934.50 3.219968
934.60 3.219814
934.70 3.21966
934.80 3.219505
934.90 3.219351
935.00 3.219196
935.10 3.219042
935.20 3.218888
935.30 3.218733
935.40 3.218579
935.50 3.218424
935.60 3.21827
935.70 3.218116
935.80 3.217961
935.90 3.217807
936.00 3.217652
936.10 3.217498
936.20 3.217343
936.30 3.217189
936.40 3.217034
936.50 3.21688
936.60 3.216725
936.70 3.216571
936.80 3.216416
936.90 3.216262
937.00 3.216107
937.10 3.215953
937.20 3.215798
937.30 3.215643
937.40 3.215489
937.50 3.215334
937.60 3.21518
937.70 3.215025
937.80 3.214871
937.90 3.214716
938.00 3.214561
938.10 3.214407
938.20 3.214252
938.30 3.214097
938.40 3.213943
938.50 3.213788
938.60 3.213634
938.70 3.213479
938.80 3.213324
938.90 3.21317
939.00 3.213015
939.10 3.21286
939.20 3.212706
939.30 3.212551
939.40 3.212396
939.50 3.212241
939.60 3.212087
939.70 3.211932
939.80 3.211777
939.90 3.211622
940.00 3.211468
940.10 3.211313
940.20 3.211158
940.30 3.211003
940.40 3.210849
940.50 3.210694
940.60 3.210539
940.70 3.210384
940.80 3.210229
940.90 3.210075
941.00 3.20992
941.10 3.209765
941.20 3.20961
941.30 3.209455
941.40 3.209301
941.50 3.209146
941.60 3.208991
941.70 3.208836
941.80 3.208681
941.90 3.208526
942.00 3.208371
942.10 3.208216
942.20 3.208062
942.30 3.207907
942.40 3.207752
942.50 3.207597
942.60 3.207442
942.70 3.207287
942.80 3.207132
942.90 3.206977
943.00 3.206812
943.10 3.206631
943.20 3.20645
943.30 3.206269
943.40 3.206088
943.50 3.205907
943.60 3.205726
943.70 3.205545
943.80 3.205365
943.90 3.205184
944.00 3.205003
944.10 3.204822
944.20 3.204641
944.30 3.20446
944.40 3.204279
944.50 3.204098
944.60 3.203917
944.70 3.203736
944.80 3.203555
944.90 3.203374
945.00 3.203194
945.10 3.203013
945.20 3.202832
945.30 3.202651
945.40 3.20247
945.50 3.202289
945.60 3.202108
945.70 3.201927
945.80 3.201747
945.90 3.201566
946.00 3.201385
946.10 3.201204
946.20 3.201023
946.30 3.200842
946.40 3.200662
946.50 3.200481
946.60 3.2003
946.70 3.200119
946.80 3.199938
946.90 3.199758
947.00 3.199577
947.10 3.199396
947.20 3.199215
947.30 3.199034
947.40 3.198854
947.50 3.198673
947.60 3.198492
947.70 3.198311
947.80 3.198131
947.90 3.19795
948.00 3.197769
948.10 3.197588
948.20 3.197408
948.30 3.197227
948.40 3.197046
948.50 3.196866
948.60 3.196685
948.70 3.196504
948.80 3.196323
948.90 3.196143
949.00 3.195962
949.10 3.195781
949.20 3.195601
949.30 3.19542
949.40 3.195239
949.50 3.195059
949.60 3.194878
949.70 3.194697
949.80 3.194517
949.90 3.194336
950.00 3.194155
950.10 3.193975
950.20 3.193794
950.30 3.193614
950.40 3.193433
950.50 3.193252
950.60 3.193072
950.70 3.192891
950.80 3.192711
950.90 3.19253
951.00 3.192349
951.10 3.192169
951.20 3.191988
951.30 3.191808
951.40 3.191627
951.50 3.191447
951.60 3.191266
951.70 3.191085
951.80 3.190905
951.90 3.190724
952.00 3.190544
952.10 3.190363
952.20 3.190183
952.30 3.190002
952.40 3.189821
952.50 3.189636
952.60 3.189451
952.70 3.189265
952.80 3.18908
952.90 3.188895
953.00 3.188709
953.10 3.188524
953.20 3.188339
953.30 3.188154
953.40 3.187968
953.50 3.187783
953.60 3.187598
953.70 3.187413
953.80 3.187227
953.90 3.187042
954.00 3.186857
954.10 3.186672
954.20 3.186487
954.30 3.186301
954.40 3.186116
954.50 3.185931
954.60 3.185746
954.70 3.185561
954.80 3.185376
954.90 3.18519
955.00 3.185005
955.10 3.18482
955.20 3.184635
955.30 3.18445
955.40 3.184265
955.50 3.18408
955.60 3.183895
955.70 3.183709
955.80 3.183524
955.90 3.183339
956.00 3.183154
956.10 3.182969
956.20 3.182784
956.30 3.182599
956.40 3.182414
956.50 3.182229
956.60 3.182044
956.70 3.181859
956.80 3.181674
956.90 3.181489
957.00 3.181304
957.10 3.181119
957.20 3.180934
957.30 3.180749
957.40 3.180564
957.50 3.180379
957.60 3.180194
957.70 3.180009
957.80 3.179824
957.90 3.17964
958.00 3.179455
958.10 3.17927
958.20 3.179085
958.30 3.1789
958.40 3.178715
958.50 3.17853
958.60 3.178345
958.70 3.17816
958.80 3.177976
958.90 3.177791
959.00 3.177606
959.10 3.177421
959.20 3.177236
959.30 3.177052
959.40 3.176867
959.50 3.176682
959.60 3.176497
959.70 3.176312
959.80 3.176128
959.90 3.175943
960.00 3.175758
960.10 3.175573
960.20 3.175389
960.30 3.175204
960.40 3.175019
960.50 3.174835
960.60 3.17465
960.70 3.174465
960.80 3.17428
960.90 3.174096
961.00 3.173911
961.10 3.173726
961.20 3.173542
961.30 3.173357
961.40 3.173173
961.50 3.172988
961.60 3.172803
961.70 3.172619
961.80 3.172434
961.90 3.172249
962.00 3.172045
962.10 3.171836
962.20 3.171627
962.30 3.171418
962.40 3.171209
962.50 3.171
962.60 3.170792
962.70 3.170583
962.80 3.170374
962.90 3.170166
963.00 3.169957
963.10 3.169748
963.20 3.16954
963.30 3.169331
963.40 3.169122
963.50 3.168914
963.60 3.168705
963.70 3.168497
963.80 3.168288
963.90 3.168079
964.00 3.167871
964.10 3.167663
964.20 3.167454
964.30 3.167246
964.40 3.167037
964.50 3.166829
964.60 3.16662
964.70 3.166412
964.80 3.166204
964.90 3.165995
965.00 3.165787
965.10 3.165579
965.20 3.16537
965.30 3.165162
965.40 3.164954
965.50 3.164746
965.60 3.164537
965.70 3.164329
965.80 3.164121
965.90 3.163913
966.00 3.163705
966.10 3.163497
966.20 3.163289
966.30 3.163081
966.40 3.162872
966.50 3.162664
966.60 3.162456
966.70 3.162248
966.80 3.16204
966.90 3.161832
967.00 3.161624
967.10 3.161417
967.20 3.161209
967.30 3.161001
967.40 3.160793
967.50 3.160585
967.60 3.160377
967.70 3.160169
967.80 3.159962
967.90 3.159754
968.00 3.159546
968.10 3.159338
968.20 3.159131
968.30 3.158923
968.40 3.158715
968.50 3.158507
968.60 3.1583
968.70 3.158092
968.80 3.157885
968.90 3.157677
969.00 3.157469
969.10 3.157262
969.20 3.157054
969.30 3.156847
969.40 3.156639
969.50 3.156432
969.60 3.156224
969.70 3.156017
969.80 3.155809
969.90 3.155602
970.00 3.155395
970.10 3.155187
970.20 3.15498
970.30 3.154772
970.40 3.154565
970.50 3.154358
970.60 3.154151
970.70 3.153943
970.80 3.153736
970.90 3.153529
971.00 3.153322
971.10 3.153114
971.20 3.152907
971.30 3.1527
971.40 3.152493
971.50 3.152286
971.60 3.152063
971.70 3.151833
971.80 3.151603
971.90 3.151372
972.00 3.151142
972.10 3.150911
972.20 3.150681
972.30 3.150451
972.40 3.150221
972.50 3.14999
972.60 3.14976
972.70 3.14953
972.80 3.1493
972.90 3.14907
973.00 3.14884
973.10 3.14861
973.20 3.14838
973.30 3.14815
973.40 3.14792
973.50 3.14769
973.60 3.14746
973.70 3.14723
973.80 3.147
973.90 3.14677
974.00 3.14654
974.10 3.14631
974.20 3.146081
974.30 3.145851
974.40 3.145621
974.50 3.145392
974.60 3.145162
974.70 3.144932
974.80 3.144703
974.90 3.144473
975.00 3.144244
975.10 3.144014
975.20 3.143785
975.30 3.143555
975.40 3.143326
975.50 3.143096
975.60 3.142867
975.70 3.142638
975.80 3.142408
975.90 3.142179
976.00 3.14195
976.10 3.141721
976.20 3.141491
976.30 3.141262
976.40 3.141033
976.50 3.140804
976.60 3.140575
976.70 3.140346
976.80 3.140117
976.90 3.139888
977.00 3.139659
977.10 3.13943
977.20 3.139201
977.30 3.138972
977.40 3.138743
977.50 3.138514
977.60 3.138286
977.70 3.138057
977.80 3.137828
977.90 3.137599
978.00 3.137371
978.10 3.137142
978.20 3.136913
978.30 3.136685
978.40 3.136456
978.50 3.136228
978.60 3.135999
978.70 3.135771
978.80 3.135542
978.90 3.135314
979.00 3.135085
979.10 3.134857
979.20 3.134629
979.30 3.1344
979.40 3.134172
979.50 3.133944
979.60 3.133715
979.70 3.133487
979.80 3.133259
979.90 3.133031
980.00 3.132803
980.10 3.132575
980.20 3.132347
980.30 3.132118
980.40 3.13189
980.50 3.131662
980.60 3.131435
980.70 3.131207
980.80 3.130979
980.90 3.130751
981.00 3.130523
981.10 3.130295
981.20 3.130067
981.30 3.129847
981.40 3.129633
981.50 3.12942
981.60 3.129207
981.70 3.128993
981.80 3.12878
981.90 3.128567
982.00 3.128353
982.10 3.12814
982.20 3.127927
982.30 3.127714
982.40 3.127501
982.50 3.127287
982.60 3.127074
982.70 3.126861
982.80 3.126648
982.90 3.126435
983.00 3.126222
983.10 3.126009
983.20 3.125796
983.30 3.125583
983.40 3.12537
983.50 3.125157
983.60 3.124944
983.70 3.124731
983.80 3.124519
983.90 3.124306
984.00 3.124093
984.10 3.12388
984.20 3.123667
984.30 3.123455
984.40 3.123242
984.50 3.123029
984.60 3.122816
984.70 3.122604
984.80 3.122391
984.90 3.122179
985.00 3.121966
985.10 3.121753
985.20 3.121541
985.30 3.121328
985.40 3.121116
985.50 3.120903
985.60 3.120691
985.70 3.120478
985.80 3.120266
985.90 3.120054
986.00 3.119841
986.10 3.119629
986.20 3.119416
986.30 3.119204
986.40 3.118992
986.50 3.11878
986.60 3.118567
986.70 3.118355
986.80 3.118143
986.90 3.117931
987.00 3.117719
987.10 3.117506
987.20 3.117294
987.30 3.117082
987.40 3.11687
987.50 3.116658
987.60 3.116446
987.70 3.116234
987.80 3.116022
987.90 3.11581
988.00 3.115598
988.10 3.115386
988.20 3.115174
988.30 3.114963
988.40 3.114751
988.50 3.114539
988.60 3.114327
988.70 3.114115
988.80 3.113904
988.90 3.113692
989.00 3.11348
989.10 3.113268
989.20 3.113057
989.30 3.112845
989.40 3.112633
989.50 3.112422
989.60 3.11221
989.70 3.111999
989.80 3.111787
989.90 3.111576
990.00 3.111364
990.10 3.111153
990.20 3.110941
990.30 3.11073
990.40 3.110518
990.50 3.110307
990.60 3.110096
990.70 3.109884
990.80 3.109673
990.90 3.109462
991.00 3.10925
991.10 3.109031
991.20 3.108798
991.30 3.108564
991.40 3.108331
991.50 3.108098
991.60 3.107865
991.70 3.107632
991.80 3.107399
991.90 3.107166
992.00 3.106933
992.10 3.1067
992.20 3.106467
992.30 3.106234
992.40 3.106001
992.50 3.105769
992.60 3.105536
992.70 3.105303
992.80 3.10507
992.90 3.104838
993.00 3.104605
993.10 3.104372
993.20 3.10414
993.30 3.103907
993.40 3.103675
993.50 3.103442
993.60 3.10321
993.70 3.102977
993.80 3.102745
993.90 3.102512
994.00 3.10228
994.10 3.102048
994.20 3.101815
994.30 3.101583
994.40 3.101351
994.50 3.101119
994.60 3.100887
994.70 3.100654
994.80 3.100422
994.90 3.10019
995.00 3.099958
995.10 3.099726
995.20 3.099494
995.30 3.099262
995.40 3.09903
995.50 3.098798
995.60 3.098567
995.70 3.098335
995.80 3.098103
995.90 3.097871
996.00 3.097639
996.10 3.097378
996.20 3.097111
996.30 3.096844
996.40 3.096577
996.50 3.09631
996.60 3.096043
996.70 3.095776
996.80 3.095509
996.90 3.095242
997.00 3.094975
997.10 3.094708
997.20 3.094442
997.30 3.094175
997.40 3.093908
997.50 3.093642
997.60 3.093375
997.70 3.093108
997.80 3.092842
997.90 3.092575
998.00 3.092309
998.10 3.092043
998.20 3.091776
998.30 3.09151
998.40 3.091244
998.50 3.090978
998.60 3.090712
998.70 3.090445
998.80 3.090179
998.90 3.089913
999.00 3.089647
999.10 3.089381
999.20 3.089116
999.30 3.08885
999.40 3.088584
999.50 3.088318
999.60 3.088053
999.70 3.087787
999.80 3.087521
999.90 3.087256
1000.00 3.08699
1000.10 3.086725
1000.20 3.086459
1000.30 3.086194
1000.40 3.085929
1000.50 3.085663
1000.60 3.085398
1000.70 3.085133
1000.80 3.084868
1000.90 3.084603
1001.00 3.084346
1001.10 3.084112
1001.20 3.083878
1001.30 3.083645
1001.40 3.083411
1001.50 3.083177
1001.60 3.082944
1001.70 3.08271
1001.80 3.082477
1001.90 3.082243
1002.00 3.08201
1002.10 3.081777
1002.20 3.081543
1002.30 3.08131
1002.40 3.081077
1002.50 3.080843
1002.60 3.08061
1002.70 3.080377
1002.80 3.080144
1002.90 3.079911
1003.00 3.079678
1003.10 3.079445
1003.20 3.079212
1003.30 3.078979
1003.40 3.078746
1003.50 3.078513
1003.60 3.07828
1003.70 3.078047
1003.80 3.077814
1003.90 3.077581
1004.00 3.077348
1004.10 3.077116
1004.20 3.076883
1004.30 3.07665
1004.40 3.076418
1004.50 3.076185
1004.60 3.075952
1004.70 3.07572
1004.80 3.075487
1004.90 3.075255
1005.00 3.075022
1005.10 3.07479
1005.20 3.074558
1005.30 3.074325
1005.40 3.074093
1005.50 3.073861
1005.60 3.073628
1005.70 3.073396
1005.80 3.073164
1005.90 3.072932
1006.00 3.072692
1006.10 3.072426
1006.20 3.072159
1006.30 3.071893
1006.40 3.071627
1006.50 3.07136
1006.60 3.071094
1006.70 3.070828
1006.80 3.070562
1006.90 3.070296
1007.00 3.07003
1007.10 3.069764
1007.20 3.069498
1007.30 3.069232
1007.40 3.068966
1007.50 3.0687
1007.60 3.068434
1007.70 3.068169
1007.80 3.067903
1007.90 3.067637
1008.00 3.067372
1008.10 3.067106
1008.20 3.06684
1008.30 3.066575
1008.40 3.06631
1008.50 3.066044
1008.60 3.065779
1008.70 3.065514
1008.80 3.065248
1008.90 3.064983
1009.00 3.064718
1009.10 3.064453
1009.20 3.064188
1009.30 3.063923
1009.40 3.063658
1009.50 3.063393
1009.60 3.063128
1009.70 3.062863
1009.80 3.062598
1009.90 3.062333
1010.00 3.062069
1010.10 3.061804
1010.20 3.061539
1010.30 3.061275
1010.40 3.06101
1010.50 3.060746
1010.60 3.060481
1010.70 3.060217
1010.80 3.059953
1010.90 3.059688
1011.00 3.059429
1011.10 3.059195
1011.20 3.058961
1011.30 3.058728
1011.40 3.058494
1011.50 3.05826
1011.60 3.058026
1011.70 3.057793
1011.80 3.057559
1011.90 3.057325
1012.00 3.057092
1012.10 3.056858
1012.20 3.056624
1012.30 3.056391
1012.40 3.056157
1012.50 3.055924
1012.60 3.055691
1012.70 3.055457
1012.80 3.055224
1012.90 3.05499
1013.00 3.054757
1013.10 3.054524
1013.20 3.054291
1013.30 3.054057
1013.40 3.053824
1013.50 3.053591
1013.60 3.053358
1013.70 3.053125
1013.80 3.052892
1013.90 3.052659
1014.00 3.052426
1014.10 3.052193
1014.20 3.05196
1014.30 3.051727
1014.40 3.051494
1014.50 3.051262
1014.60 3.051029
1014.70 3.050796
1014.80 3.050563
1014.90 3.050331
1015.00 3.050098
1015.10 3.049866
1015.20 3.049633
1015.30 3.0494
1015.40 3.049168
1015.50 3.048935
1015.60 3.048703
1015.70 3.048471
1015.80 3.048238
1015.90 3.048006
1016.00 3.047773
1016.10 3.04752
1016.20 3.047255
1016.30 3.046989
1016.40 3.046724
1016.50 3.046458
1016.60 3.046193
1016.70 3.045927
1016.80 3.045662
1016.90 3.045396
1017.00 3.045131
1017.10 3.044866
1017.20 3.044601
1017.30 3.044336
1017.40 3.04407
1017.50 3.043805
1017.60 3.04354
1017.70 3.043275
1017.80 3.04301
1017.90 3.042746
1018.00 3.042481
1018.10 3.042216
1018.20 3.041951
1018.30 3.041686
1018.40 3.041422
1018.50 3.041157
1018.60 3.040893
1018.70 3.040628
1018.80 3.040364
1018.90 3.040099
1019.00 3.039835
1019.10 3.03957
1019.20 3.039306
1019.30 3.039042
1019.40 3.038778
1019.50 3.038513
1019.60 3.038249
1019.70 3.037985
1019.80 3.037721
1019.90 3.037457
1020.00 3.037193
1020.10 3.036929
1020.20 3.036666
1020.30 3.036402
1020.40 3.036138
1020.50 3.035874
1020.60 3.035611
1020.70 3.035347
1020.80 3.035083
1020.90 3.03482
1021.00 3.034556
1021.10 3.034293
1021.20 3.034026
1021.30 3.033759
1021.40 3.033493
1021.50 3.033226
1021.60 3.03296
1021.70 3.032693
1021.80 3.032427
1021.90 3.03216
1022.00 3.031894
1022.10 3.031628
1022.20 3.031362
1022.30 3.031095
1022.40 3.030829
1022.50 3.030563
1022.60 3.030297
1022.70 3.030031
1022.80 3.029765
1022.90 3.029499
1023.00 3.029233
1023.10 3.028968
1023.20 3.028702
1023.30 3.028436
1023.40 3.02817
1023.50 3.027905
1023.60 3.027639
1023.70 3.027374
1023.80 3.027108
1023.90 3.026843
1024.00 3.026577
1024.10 3.026312
1024.20 3.026047
1024.30 3.025781
1024.40 3.025516
1024.50 3.025251
1024.60 3.024986
1024.70 3.024721
1024.80 3.024456
1024.90 3.024191
1025.00 3.023926
1025.10 3.023661
1025.20 3.023396
1025.30 3.023131
1025.40 3.022866
1025.50 3.022602
1025.60 3.022337
1025.70 3.022072
1025.80 3.021808
1025.90 3.021543
1026.00 3.021279
1026.10 3.021014
1026.20 3.02075
1026.30 3.020485
1026.40 3.020221
1026.50 3.019957
1026.60 3.019693
1026.70 3.019429
1026.80 3.019165
1026.90 3.018901
1027.00 3.018637
1027.10 3.018373
1027.20 3.018109
1027.30 3.017845
1027.40 3.017581
1027.50 3.017318
1027.60 3.017054
1027.70 3.01679
1027.80 3.016527
1027.90 3.016263
1028.00 3.015999
1028.10 3.015736
1028.20 3.015473
1028.30 3.015209
1028.40 3.014946
1028.50 3.014683
1028.60 3.014419
1028.70 3.014156
1028.80 3.013893
1028.90 3.01363
1029.00 3.013367
1029.10 3.013104
1029.20 3.012841
1029.30 3.012578
1029.40 3.012315
1029.50 3.012052
1029.60 3.011789
1029.70 3.011527
1029.80 3.011264
1029.90 3.011001
1030.00 3.010739
1030.10 3.010476
1030.20 3.010214
1030.30 3.009951
1030.40 3.009689
1030.50 3.009426
1030.60 3.009164
1030.70 3.008902
1030.80 3.008639
1030.90 3.008377
1031.00 3.008115
1031.10 3.007853
1031.20 3.007591
1031.30 3.007329
1031.40 3.007033
1031.50 3.006736
1031.60 3.006439
1031.70 3.006143
1031.80 3.005846
1031.90 3.005549
1032.00 3.005252
1032.10 3.004956
1032.20 3.004659
1032.30 3.004363
1032.40 3.004066
1032.50 3.00377
1032.60 3.003474
1032.70 3.003177
1032.80 3.002881
1032.90 3.002585
1033.00 3.002289
1033.10 3.001993
1033.20 3.001697
1033.30 3.001401
1033.40 3.001105
1033.50 3.00081
1033.60 3.000514
1033.70 3.000218
1033.80 2.999923
1033.90 2.999627
1034.00 2.999331
1034.10 2.999036
1034.20 2.998741
1034.30 2.998445
1034.40 2.99815
1034.50 2.997855
1034.60 2.99756
1034.70 2.997265
1034.80 2.99697
1034.90 2.996675
1035.00 2.99638
1035.10 2.996085
1035.20 2.99579
1035.30 2.995495
1035.40 2.995201
1035.50 2.994906
1035.60 2.994612
1035.70 2.994317
1035.80 2.994023
1035.90 2.993728
1036.00 2.993434
1036.10 2.99314
1036.20 2.992845
1036.30 2.992551
1036.40 2.992257
1036.50 2.991975
1036.60 2.991713
1036.70 2.991451
1036.80 2.991188
1036.90 2.990926
1037.00 2.990664
1037.10 2.990401
1037.20 2.990139
1037.30 2.989877
1037.40 2.989615
1037.50 2.989353
1037.60 2.989091
1037.70 2.988829
1037.80 2.988567
1037.90 2.988305
1038.00 2.988043
1038.10 2.987782
1038.20 2.98752
1038.30 2.987258
1038.40 2.986997
1038.50 2.986735
1038.60 2.986473
1038.70 2.986212
1038.80 2.985951
1038.90 2.985689
1039.00 2.985428
1039.10 2.985166
1039.20 2.984905
1039.30 2.984644
1039.40 2.984383
1039.50 2.984122
1039.60 2.983861
1039.70 2.9836
1039.80 2.983339
1039.90 2.983078
1040.00 2.982817
1040.10 2.982556
1040.20 2.982295
1040.30 2.982034
1040.40 2.981773
1040.50 2.981513
1040.60 2.981252
1040.70 2.980992
1040.80 2.980731
1040.90 2.980471
1041.00 2.98021
1041.10 2.97995
1041.20 2.979689
1041.30 2.979429
1041.40 2.979169
1041.50 2.978908
1041.60 2.978648
1041.70 2.978386
1041.80 2.978122
1041.90 2.977859
1042.00 2.977596
1042.10 2.977333
1042.20 2.97707
1042.30 2.976807
1042.40 2.976544
1042.50 2.976281
1042.60 2.976018
1042.70 2.975756
1042.80 2.975493
1042.90 2.97523
1043.00 2.974967
1043.10 2.974705
1043.20 2.974442
1043.30 2.97418
1043.40 2.973917
1043.50 2.973655
1043.60 2.973392
1043.70 2.97313
1043.80 2.972868
1043.90 2.972606
1044.00 2.972343
1044.10 2.972081
1044.20 2.971819
1044.30 2.971557
1044.40 2.971295
1044.50 2.971033
1044.60 2.970771
1044.70 2.970509
1044.80 2.970248
1044.90 2.969986
1045.00 2.969724
1045.10 2.969462
1045.20 2.969201
1045.30 2.968939
1045.40 2.968678
1045.50 2.968416
1045.60 2.968155
1045.70 2.967893
1045.80 2.967632
1045.90 2.96737
1046.00 2.967109
1046.10 2.966848
1046.20 2.966587
1046.30 2.966326
1046.40 2.966064
1046.50 2.965803
1046.60 2.965542
1046.70 2.965281
1046.80 2.965021
1046.90 2.964737
1047.00 2.964445
1047.10 2.964154
1047.20 2.963863
1047.30 2.963572
1047.40 2.963281
1047.50 2.962989
1047.60 2.962698
1047.70 2.962407
1047.80 2.962117
1047.90 2.961826
1048.00 2.961535
1048.10 2.961244
1048.20 2.960953
1048.30 2.960663
1048.40 2.960372
1048.50 2.960082
1048.60 2.959791
1048.70 2.959501
1048.80 2.959211
1048.90 2.95892
1049.00 2.95863
1049.10 2.95834
1049.20 2.95805
1049.30 2.95776
1049.40 2.95747
1049.50 2.95718
1049.60 2.95689
1049.70 2.9566
1049.80 2.95631
1049.90 2.956021
1050.00 2.955731
1050.10 2.955441
1050.20 2.955152
1050.30 2.954862
1050.40 2.954573
1050.50 2.954284
1050.60 2.953994
1050.70 2.953705
1050.80 2.953416
1050.90 2.953127
1051.00 2.952837
1051.10 2.952548
1051.20 2.952259
1051.30 2.951971
1051.40 2.951682
1051.50 2.951393
1051.60 2.951104
1051.70 2.950815
1051.80 2.950527
1051.90 2.950238
1052.00 2.94995
1052.10 2.949659
1052.20 2.949368
1052.30 2.949077
1052.40 2.948786
1052.50 2.948495
1052.60 2.948204
1052.70 2.947913
1052.80 2.947623
1052.90 2.947332
1053.00 2.947041
1053.10 2.946751
1053.20 2.94646
1053.30 2.94617
1053.40 2.945879
1053.50 2.945589
1053.60 2.945298
1053.70 2.945008
1053.80 2.944718
1053.90 2.944428
1054.00 2.944138
1054.10 2.943848
1054.20 2.943558
1054.30 2.943268
1054.40 2.942978
1054.50 2.942688
1054.60 2.942398
1054.70 2.942109
1054.80 2.941819
1054.90 2.941529
1055.00 2.94124
1055.10 2.94095
1055.20 2.940661
1055.30 2.940372
1055.40 2.940082
1055.50 2.939793
1055.60 2.939504
1055.70 2.939215
1055.80 2.938926
1055.90 2.938637
1056.00 2.938348
1056.10 2.938059
1056.20 2.93777
1056.30 2.937481
1056.40 2.937192
1056.50 2.936904
1056.60 2.936615
1056.70 2.936327
1056.80 2.936038
1056.90 2.93575
1057.00 2.935461
1057.10 2.935173
1057.20 2.934885
1057.30 2.934596
1057.40 2.934308
1057.50 2.93402
1057.60 2.933732
1057.70 2.933444
1057.80 2.933156
1057.90 2.932868
1058.00 2.93258
1058.10 2.932293
1058.20 2.932005
1058.30 2.931717
1058.40 2.93143
1058.50 2.931142
1058.60 2.930855
1058.70 2.930567
1058.80 2.93028
1058.90 2.929992
1059.00 2.929705
1059.10 2.929418
1059.20 2.929131
1059.30 2.928844
1059.40 2.928557
1059.50 2.92827
1059.60 2.927983
1059.70 2.927696
1059.80 2.927409
1059.90 2.927122
1060.00 2.926836
1060.10 2.926549
1060.20 2.926262
1060.30 2.925976
1060.40 2.925689
1060.50 2.925403
1060.60 2.925117
1060.70 2.92483
1060.80 2.924544
1060.90 2.924258
1061.00 2.923972
1061.10 2.923686
1061.20 2.923399
1061.30 2.923114
1061.40 2.922828
1061.50 2.922542
1061.60 2.922256
1061.70 2.92197
1061.80 2.921684
1061.90 2.921399
1062.00 2.921113
1062.10 2.920828
1062.20 2.920542
1062.30 2.920257
1062.40 2.919971
1062.50 2.919686
1062.60 2.9194
1062.70 2.919112
1062.80 2.918824
1062.90 2.918536
1063.00 2.918249
1063.10 2.917961
1063.20 2.917674
1063.30 2.917386
1063.40 2.917099
1063.50 2.916811
1063.60 2.916524
1063.70 2.916237
1063.80 2.91595
1063.90 2.915663
1064.00 2.915376
1064.10 2.915089
1064.20 2.914802
1064.30 2.914515
1064.40 2.914228
1064.50 2.913941
1064.60 2.913654
1064.70 2.913368
1064.80 2.913081
1064.90 2.912794
1065.00 2.912508
1065.10 2.912221
1065.20 2.911935
1065.30 2.911649
1065.40 2.911362
1065.50 2.911076
1065.60 2.91079
1065.70 2.910504
1065.80 2.910218
1065.90 2.909932
1066.00 2.909646
1066.10 2.90936
1066.20 2.909074
1066.30 2.908788
1066.40 2.908503
1066.50 2.908217
1066.60 2.907931
1066.70 2.907646
1066.80 2.90736
1066.90 2.907075
1067.00 2.90679
1067.10 2.906504
1067.20 2.906219
1067.30 2.905934
1067.40 2.905649
1067.50 2.905363
1067.60 2.905078
1067.70 2.904793
1067.80 2.904508
1067.90 2.904214
1068.00 2.903901
1068.10 2.903587
1068.20 2.903274
1068.30 2.90296
1068.40 2.902647
1068.50 2.902334
1068.60 2.902021
1068.70 2.901707
1068.80 2.901394
1068.90 2.901081
1069.00 2.900769
1069.10 2.900456
1069.20 2.900143
1069.30 2.89983
1069.40 2.899518
1069.50 2.899205
1069.60 2.898893
1069.70 2.89858
1069.80 2.898268
1069.90 2.897955
1070.00 2.897643
1070.10 2.897331
1070.20 2.897019
1070.30 2.896707
1070.40 2.896395
1070.50 2.896083
1070.60 2.895771
1070.70 2.895459
1070.80 2.895148
1070.90 2.894836
1071.00 2.894525
1071.10 2.894213
1071.20 2.893902
1071.30 2.89359
1071.40 2.893279
1071.50 2.892968
1071.60 2.892656
1071.70 2.892345
1071.80 2.892034
1071.90 2.891723
1072.00 2.891412
1072.10 2.891102
1072.20 2.890791
1072.30 2.89048
1072.40 2.890169
1072.50 2.889859
1072.60 2.889548
1072.70 2.889238
1072.80 2.888927
1072.90 2.888617
1073.00 2.888307
1073.10 2.887997
1073.20 2.887692
1073.30 2.887408
1073.40 2.887124
1073.50 2.88684
1073.60 2.886556
1073.70 2.886272
1073.80 2.885988
1073.90 2.885704
1074.00 2.88542
1074.10 2.885137
1074.20 2.884853
1074.30 2.884569
1074.40 2.884286
1074.50 2.884002
1074.60 2.883719
1074.70 2.883436
1074.80 2.883152
1074.90 2.882869
1075.00 2.882586
1075.10 2.882303
1075.20 2.88202
1075.30 2.881737
1075.40 2.881454
1075.50 2.881171
1075.60 2.880888
1075.70 2.880605
1075.80 2.880322
1075.90 2.880039
1076.00 2.879757
1076.10 2.879474
1076.20 2.879192
1076.30 2.878909
1076.40 2.878627
1076.50 2.878344
1076.60 2.878062
1076.70 2.87778
1076.80 2.877498
1076.90 2.877215
1077.00 2.876933
1077.10 2.876651
1077.20 2.876369
1077.30 2.876087
1077.40 2.875806
1077.50 2.875524
1077.60 2.875242
1077.70 2.87496
1077.80 2.874679
1077.90 2.874397
1078.00 2.874115
1078.10 2.873834
1078.20 2.873553
1078.30 2.873271
1078.40 2.87299
1078.50 2.872709
1078.60 2.872412
1078.70 2.872103
1078.80 2.871794
1078.90 2.871485
1079.00 2.871176
1079.10 2.870867
1079.20 2.870558
1079.30 2.87025
1079.40 2.869941
1079.50 2.869633
1079.60 2.869324
1079.70 2.869016
1079.80 2.868707
1079.90 2.868399
1080.00 2.868091
1080.10 2.867783
1080.20 2.867474
1080.30 2.867166
1080.40 2.866858
1080.50 2.86655
1080.60 2.866243
1080.70 2.865935
1080.80 2.865627
1080.90 2.865319
1081.00 2.865012
1081.10 2.864704
1081.20 2.864397
1081.30 2.864089
1081.40 2.863782
1081.50 2.863475
1081.60 2.863168
1081.70 2.86286
1081.80 2.862553
1081.90 2.862246
1082.00 2.861939
1082.10 2.861633
1082.20 2.861326
1082.30 2.861019
1082.40 2.860712
1082.50 2.860406
1082.60 2.860099
1082.70 2.859793
1082.80 2.859486
1082.90 2.85918
1083.00 2.858874
1083.10 2.858567
1083.20 2.858261
1083.30 2.857955
1083.40 2.857649
1083.50 2.857343
1083.60 2.857037
1083.70 2.856731
1083.80 2.856425
1083.90 2.85612
1084.00 2.855812
1084.10 2.855504
1084.20 2.855197
1084.30 2.854889
1084.40 2.854581
1084.50 2.854274
1084.60 2.853966
1084.70 2.853659
1084.80 2.853352
1084.90 2.853044
1085.00 2.852737
1085.10 2.85243
1085.20 2.852123
1085.30 2.851816
1085.40 2.851509
1085.50 2.851202
1085.60 2.850895
1085.70 2.850588
1085.80 2.850282
1085.90 2.849975
1086.00 2.849668
1086.10 2.849362
1086.20 2.849055
1086.30 2.848749
1086.40 2.848443
1086.50 2.848137
1086.60 2.84783
1086.70 2.847524
1086.80 2.847218
1086.90 2.846912
1087.00 2.846606
1087.10 2.8463
1087.20 2.845995
1087.30 2.845689
1087.40 2.845383
1087.50 2.845078
1087.60 2.844772
1087.70 2.844467
1087.80 2.844161
1087.90 2.843856
1088.00 2.843551
1088.10 2.843245
1088.20 2.84294
1088.30 2.842635
1088.40 2.84233
1088.50 2.842025
1088.60 2.84172
1088.70 2.841415
1088.80 2.841111
1088.90 2.840806
1089.00 2.840501
1089.10 2.840197
1089.20 2.839892
1089.30 2.839588
1089.40 2.839283
1089.50 2.838979
1089.60 2.838675
1089.70 2.838371
1089.80 2.838067
1089.90 2.837763
1090.00 2.837459
1090.10 2.837155
1090.20 2.836851
1090.30 2.836547
1090.40 2.836244
1090.50 2.83594
1090.60 2.835636
1090.70 2.835333
1090.80 2.835029
1090.90 2.834726
1091.00 2.834423
1091.10 2.834119
1091.20 2.833816
1091.30 2.833513
1091.40 2.83321
1091.50 2.832907
1091.60 2.832604
1091.70 2.832301
1091.80 2.831998
1091.90 2.831696
1092.00 2.831393
1092.10 2.83109
1092.20 2.830788
1092.30 2.830485
1092.40 2.830183
1092.50 2.82988
1092.60 2.829578
1092.70 2.829276
1092.80 2.828974
1092.90 2.828672
1093.00 2.828369
1093.10 2.828067
1093.20 2.827766
1093.30 2.827464
1093.40 2.827162
1093.50 2.82686
1093.60 2.826558
1093.70 2.826257
1093.80 2.825955
1093.90 2.825654
1094.00 2.825352
1094.10 2.825051
1094.20 2.82475
1094.30 2.824449
1094.40 2.824147
1094.50 2.823846
1094.60 2.823545
1094.70 2.823244
1094.80 2.822942
1094.90 2.822639
1095.00 2.822336
1095.10 2.822033
1095.20 2.821731
1095.30 2.821428
1095.40 2.821125
1095.50 2.820822
1095.60 2.82052
1095.70 2.820217
1095.80 2.819915
1095.90 2.819612
1096.00 2.81931
1096.10 2.819008
1096.20 2.818706
1096.30 2.818404
1096.40 2.818102
1096.50 2.8178
1096.60 2.817498
1096.70 2.817196
1096.80 2.816894
1096.90 2.816592
1097.00 2.81629
1097.10 2.815989
1097.20 2.815687
1097.30 2.815386
1097.40 2.815084
1097.50 2.814783
1097.60 2.814482
1097.70 2.81418
1097.80 2.813879
1097.90 2.813578
1098.00 2.813277
1098.10 2.812976
1098.20 2.812675
1098.30 2.812374
1098.40 2.812074
1098.50 2.811773
1098.60 2.811472
1098.70 2.811171
1098.80 2.810871
1098.90 2.81057
1099.00 2.81027
1099.10 2.80997
1099.20 2.809669
1099.30 2.809369
1099.40 2.809069
1099.50 2.808769
1099.60 2.808469
1099.70 2.808169
1099.80 2.807869
1099.90 2.807569
1100.00 2.807269
1100.10 2.806969
1100.20 2.80667
1100.30 2.80637
1100.40 2.806071
1100.50 2.805771
1100.60 2.805472
1100.70 2.805172
1100.80 2.804873
1100.90 2.804574
1101.00 2.804275
1101.10 2.803976
1101.20 2.803677
1101.30 2.803378
1101.40 2.803079
1101.50 2.80278
1101.60 2.802481
1101.70 2.802182
1101.80 2.801884
1101.90 2.801585
1102.00 2.801286
1102.10 2.800988
1102.20 2.800689
1102.30 2.800391
1102.40 2.800093
1102.50 2.799795
1102.60 2.799496
1102.70 2.799198
1102.80 2.7989
1102.90 2.798602
1103.00 2.798304
1103.10 2.798006
1103.20 2.797709
1103.30 2.797411
1103.40 2.797113
1103.50 2.796816
1103.60 2.796518
1103.70 2.796221
1103.80 2.795923
1103.90 2.795626
1104.00 2.795328
1104.10 2.795031
1104.20 2.794734
1104.30 2.794437
1104.40 2.79414
1104.50 2.793843
1104.60 2.793546
1104.70 2.793249
1104.80 2.792952
1104.90 2.792655
1105.00 2.792359
1105.10 2.792062
1105.20 2.791766
1105.30 2.791469
1105.40 2.791173
1105.50 2.790876
1105.60 2.79058
1105.70 2.790283
1105.80 2.789972
1105.90 2.789661
1106.00 2.78935
1106.10 2.789039
1106.20 2.788728
1106.30 2.788417
1106.40 2.788107
1106.50 2.787796
1106.60 2.787485
1106.70 2.787175
1106.80 2.786864
1106.90 2.786554
1107.00 2.786244
1107.10 2.785933
1107.20 2.785623
1107.30 2.785313
1107.40 2.785003
1107.50 2.784693
1107.60 2.784383
1107.70 2.784073
1107.80 2.783763
1107.90 2.783453
1108.00 2.783144
1108.10 2.782834
1108.20 2.782525
1108.30 2.782215
1108.40 2.781906
1108.50 2.781596
1108.60 2.781287
1108.70 2.780978
1108.80 2.780669
1108.90 2.78036
1109.00 2.780051
1109.10 2.779742
1109.20 2.779433
1109.30 2.779124
1109.40 2.778815
1109.50 2.778506
1109.60 2.778198
1109.70 2.777889
1109.80 2.777581
1109.90 2.777272
1110.00 2.776964
1110.10 2.776656
1110.20 2.776347
1110.30 2.776039
1110.40 2.775731
1110.50 2.775423
1110.60 2.775115
1110.70 2.774807
1110.80 2.774499
1110.90 2.774192
1111.00 2.773884
1111.10 2.773576
1111.20 2.773269
1111.30 2.772961
1111.40 2.772654
1111.50 2.772346
1111.60 2.772039
1111.70 2.771732
1111.80 2.771425
1111.90 2.771118
1112.00 2.770811
1112.10 2.770504
1112.20 2.770197
1112.30 2.76989
1112.40 2.769583
1112.50 2.769276
1112.60 2.76897
1112.70 2.768663
1112.80 2.768357
1112.90 2.76805
1113.00 2.767744
1113.10 2.767437
1113.20 2.767131
1113.30 2.766825
1113.40 2.766519
1113.50 2.766213
1113.60 2.765907
1113.70 2.765601
1113.80 2.765295
1113.90 2.764989
1114.00 2.764683
1114.10 2.764378
1114.20 2.764072
1114.30 2.763767
1114.40 2.763461
1114.50 2.763156
1114.60 2.76285
1114.70 2.762545
1114.80 2.76224
1114.90 2.761935
1115.00 2.76163
1115.10 2.761325
1115.20 2.76102
1115.30 2.760715
1115.40 2.76041
1115.50 2.760105
1115.60 2.759801
1115.70 2.759496
1115.80 2.759191
1115.90 2.758887
1116.00 2.758582
1116.10 2.758278
1116.20 2.757974
1116.30 2.75767
1116.40 2.757365
1116.50 2.757061
1116.60 2.756757
1116.70 2.756453
1116.80 2.756143
1116.90 2.755825
1117.00 2.755506
1117.10 2.755188
1117.20 2.75487
1117.30 2.754552
1117.40 2.754234
1117.50 2.753916
1117.60 2.753599
1117.70 2.753281
1117.80 2.752963
1117.90 2.752646
1118.00 2.752328
1118.10 2.752011
1118.20 2.751694
1118.30 2.751376
1118.40 2.751059
1118.50 2.750742
1118.60 2.750425
1118.70 2.750108
1118.80 2.749791
1118.90 2.749474
1119.00 2.749157
1119.10 2.748841
1119.20 2.748524
1119.30 2.748207
1119.40 2.747891
1119.50 2.747574
1119.60 2.747258
1119.70 2.746942
1119.80 2.746625
1119.90 2.746309
1120.00 2.745993
1120.10 2.745677
1120.20 2.745361
1120.30 2.745045
1120.40 2.744729
1120.50 2.744414
1120.60 2.744098
1120.70 2.743782
1120.80 2.743467
1120.90 2.743151
1121.00 2.742836
1121.10 2.742521
1121.20 2.742205
1121.30 2.74189
1121.40 2.741575
1121.50 2.74126
1121.60 2.740945
1121.70 2.74063
1121.80 2.740315
1121.90 2.74
1122.00 2.739686
1122.10 2.739371
1122.20 2.739056
1122.30 2.738742
1122.40 2.738427
1122.50 2.738113
1122.60 2.737799
1122.70 2.737485
1122.80 2.73717
1122.90 2.736856
1123.00 2.736542
1123.10 2.736228
1123.20 2.735915
1123.30 2.735601
1123.40 2.735287
1123.50 2.734973
1123.60 2.73466
1123.70 2.734346
1123.80 2.734033
1123.90 2.733719
1124.00 2.733406
1124.10 2.733093
1124.20 2.73278
1124.30 2.732466
1124.40 2.732153
1124.50 2.73184
1124.60 2.731528
1124.70 2.731215
1124.80 2.730902
1124.90 2.730589
1125.00 2.730277
1125.10 2.729964
1125.20 2.729651
1125.30 2.729339
1125.40 2.729027
1125.50 2.728714
1125.60 2.728402
1125.70 2.72809
1125.80 2.727778
1125.90 2.727466
1126.00 2.727154
1126.10 2.726842
1126.20 2.72653
1126.30 2.726218
1126.40 2.725907
1126.50 2.725595
1126.60 2.725284
1126.70 2.724972
1126.80 2.724661
1126.90 2.724349
1127.00 2.724038
1127.10 2.723727
1127.20 2.723416
1127.30 2.723105
1127.40 2.722794
1127.50 2.722483
1127.60 2.722172
1127.70 2.721861
1127.80 2.72155
1127.90 2.721239
1128.00 2.720927
1128.10 2.720615
1128.20 2.720303
1128.30 2.719991
1128.40 2.719679
1128.50 2.719367
1128.60 2.719055
1128.70 2.718743
1128.80 2.718431
1128.90 2.718119
1129.00 2.717808
1129.10 2.717496
1129.20 2.717185
1129.30 2.716873
1129.40 2.716562
1129.50 2.71625
1129.60 2.715939
1129.70 2.715628
1129.80 2.715317
1129.90 2.715006
1130.00 2.714695
1130.10 2.714384
1130.20 2.714073
1130.30 2.713762
1130.40 2.713451
1130.50 2.713141
1130.60 2.71283
1130.70 2.71252
1130.80 2.712209
1130.90 2.711899
1131.00 2.711589
1131.10 2.711278
1131.20 2.710968
1131.30 2.710658
1131.40 2.710348
1131.50 2.710038
1131.60 2.709728
1131.70 2.709418
1131.80 2.709108
1131.90 2.708799
1132.00 2.708489
1132.10 2.708179
1132.20 2.70787
1132.30 2.707561
1132.40 2.707251
1132.50 2.706942
1132.60 2.706633
1132.70 2.706323
1132.80 2.706014
1132.90 2.705705
1133.00 2.705396
1133.10 2.705087
1133.20 2.704779
1133.30 2.70447
1133.40 2.704161
1133.50 2.703852
1133.60 2.703544
1133.70 2.703235
1133.80 2.702927
1133.90 2.702619
1134.00 2.70231
1134.10 2.702002
1134.20 2.701694
1134.30 2.701386
1134.40 2.701078
1134.50 2.70077
1134.60 2.700462
1134.70 2.700154
1134.80 2.699846
1134.90 2.699538
1135.00 2.699231
1135.10 2.698923
1135.20 2.698616
1135.30 2.698308
1135.40 2.698001
1135.50 2.697694
1135.60 2.697386
1135.70 2.697079
1135.80 2.696772
1135.90 2.696465
1136.00 2.696158
1136.10 2.695851
1136.20 2.695544
1136.30 2.695238
1136.40 2.694931
1136.50 2.694624
1136.60 2.694318
1136.70 2.694011
1136.80 2.693705
1136.90 2.693398
1137.00 2.693092
1137.10 2.692786
1137.20 2.692479
1137.30 2.692173
1137.40 2.691867
1137.50 2.691561
1137.60 2.691255
1137.70 2.69095
1137.80 2.690644
1137.90 2.690338
1138.00 2.690032
1138.10 2.689727
1138.20 2.689421
1138.30 2.689116
1138.40 2.68881
1138.50 2.688505
1138.60 2.6882
1138.70 2.687895
1138.80 2.68759
1138.90 2.687284
1139.00 2.686979
1139.10 2.686675
1139.20 2.68637
1139.30 2.686052
1139.40 2.685734
1139.50 2.685415
1139.60 2.685097
1139.70 2.684779
1139.80 2.684462
1139.90 2.684144
1140.00 2.683826
1140.10 2.683508
1140.20 2.683191
1140.30 2.682873
1140.40 2.682556
1140.50 2.682238
1140.60 2.681921
1140.70 2.681604
1140.80 2.681287
1140.90 2.68097
1141.00 2.680652
1141.10 2.680335
1141.20 2.680019
1141.30 2.679702
1141.40 2.679385
1141.50 2.679068
1141.60 2.678752
1141.70 2.678435
1141.80 2.678119
1141.90 2.677802
1142.00 2.677486
1142.10 2.67717
1142.20 2.676853
1142.30 2.676537
1142.40 2.676221
1142.50 2.675905
1142.60 2.675589
1142.70 2.675273
1142.80 2.674958
1142.90 2.674642
1143.00 2.674326
1143.10 2.674011
1143.20 2.673695
1143.30 2.67338
1143.40 2.673064
1143.50 2.672749
1143.60 2.672434
1143.70 2.672119
1143.80 2.671804
1143.90 2.671489
1144.00 2.671174
1144.10 2.670859
1144.20 2.670544
1144.30 2.670229
1144.40 2.669915
1144.50 2.6696
1144.60 2.669285
1144.70 2.668971
1144.80 2.668657
1144.90 2.668342
1145.00 2.668028
1145.10 2.667714
1145.20 2.6674
1145.30 2.667086
1145.40 2.666772
1145.50 2.666458
1145.60 2.666144
1145.70 2.66583
1145.80 2.665516
1145.90 2.665203
1146.00 2.664889
1146.10 2.664576
1146.20 2.664262
1146.30 2.663949
1146.40 2.663636
1146.50 2.663322
1146.60 2.663009
1146.70 2.662696
1146.80 2.662383
1146.90 2.66207
1147.00 2.661757
1147.10 2.661444
1147.20 2.661132
1147.30 2.660819
1147.40 2.660506
1147.50 2.660194
1147.60 2.659881
1147.70 2.659569
1147.80 2.659257
1147.90 2.658944
1148.00 2.658632
1148.10 2.65832
1148.20 2.658008
1148.30 2.657696
1148.40 2.657384
1148.50 2.657072
1148.60 2.65676
1148.70 2.656449
1148.80 2.656137
1148.90 2.655825
1149.00 2.655514
1149.10 2.655202
1149.20 2.654891
1149.30 2.65458
1149.40 2.654269
1149.50 2.653957
1149.60 2.653646
1149.70 2.653335
1149.80 2.653024
1149.90 2.652713
1150.00 2.652403
1150.10 2.652092
1150.20 2.651781
1150.30 2.65147
1150.40 2.65116
1150.50 2.650849
1150.60 2.650538
1150.70 2.650215
1150.80 2.649892
1150.90 2.649569
1151.00 2.649246
1151.10 2.648923
1151.20 2.6486
1151.30 2.648277
1151.40 2.647954
1151.50 2.647631
1151.60 2.647309
1151.70 2.646986
1151.80 2.646664
1151.90 2.646341
1152.00 2.646019
1152.10 2.645697
1152.20 2.645374
1152.30 2.645052
1152.40 2.64473
1152.50 2.644408
1152.60 2.644086
1152.70 2.643765
1152.80 2.643443
1152.90 2.643121
1153.00 2.6428
1153.10 2.642478
1153.20 2.642157
1153.30 2.641835
1153.40 2.641514
1153.50 2.641193
1153.60 2.640871
1153.70 2.64055
1153.80 2.640229
1153.90 2.639908
1154.00 2.639587
1154.10 2.639267
1154.20 2.638946
1154.30 2.638625
1154.40 2.638305
1154.50 2.637984
1154.60 2.637664
1154.70 2.637343
1154.80 2.637023
1154.90 2.636703
1155.00 2.636382
1155.10 2.636062
1155.20 2.635742
1155.30 2.635422
1155.40 2.635102
1155.50 2.634783
1155.60 2.634463
1155.70 2.634143
1155.80 2.633823
1155.90 2.633504
1156.00 2.633184
1156.10 2.632865
1156.20 2.632546
1156.30 2.632227
1156.40 2.631907
1156.50 2.631588
1156.60 2.631269
1156.70 2.63095
1156.80 2.630631
1156.90 2.630312
1157.00 2.629993
1157.10 2.629675
1157.20 2.629356
1157.30 2.629037
1157.40 2.628719
1157.50 2.6284
1157.60 2.628082
1157.70 2.627764
1157.80 2.627445
1157.90 2.627127
1158.00 2.626809
1158.10 2.626491
1158.20 2.626173
1158.30 2.625855
1158.40 2.625538
1158.50 2.62522
1158.60 2.624902
1158.70 2.624585
1158.80 2.624267
1158.90 2.62395
1159.00 2.623632
1159.10 2.623315
1159.20 2.622998
1159.30 2.62268
1159.40 2.622363
1159.50 2.622046
1159.60 2.621729
1159.70 2.621412
1159.80 2.621096
1159.90 2.620779
1160.00 2.620462
1160.10 2.620145
1160.20 2.619829
1160.30 2.619512
1160.40 2.619196
1160.50 2.61888
1160.60 2.618563
1160.70 2.618247
1160.80 2.617931
1160.90 2.617615
1161.00 2.617299
1161.10 2.616983
1161.20 2.616667
1161.30 2.616352
1161.40 2.616036
1161.50 2.61572
1161.60 2.615405
1161.70 2.615089
1161.80 2.614774
1161.90 2.614458
1162.00 2.614143
1162.10 2.613828
1162.20 2.613511
1162.30 2.613195
1162.40 2.612879
1162.50 2.612562
1162.60 2.612246
1162.70 2.61193
1162.80 2.611614
1162.90 2.611298
1163.00 2.610982
1163.10 2.610667
1163.20 2.610351
1163.30 2.610035
1163.40 2.60972
1163.50 2.609404
1163.60 2.609089
1163.70 2.608773
1163.80 2.608458
1163.90 2.608143
1164.00 2.607827
1164.10 2.607512
1164.20 2.607197
1164.30 2.606882
1164.40 2.606567
1164.50 2.606252
1164.60 2.605938
1164.70 2.605623
1164.80 2.605308
1164.90 2.604994
1165.00 2.604679
1165.10 2.604365
1165.20 2.604051
1165.30 2.603736
1165.40 2.603422
1165.50 2.603108
1165.60 2.602794
1165.70 2.60248
1165.80 2.602166
1165.90 2.601852
1166.00 2.601538
1166.10 2.601225
1166.20 2.600911
1166.30 2.600597
1166.40 2.600284
1166.50 2.59997
1166.60 2.599657
1166.70 2.599344
1166.80 2.59903
1166.90 2.598717
1167.00 2.598404
1167.10 2.598091
1167.20 2.597778
1167.30 2.597465
1167.40 2.597152
1167.50 2.59684
1167.60 2.596527
1167.70 2.596214
1167.80 2.595902
1167.90 2.595589
1168.00 2.595277
1168.10 2.594965
1168.20 2.594652
1168.30 2.59434
1168.40 2.594028
1168.50 2.593716
1168.60 2.593404
1168.70 2.593092
1168.80 2.59278
1168.90 2.592468
1169.00 2.592156
1169.10 2.591845
1169.20 2.591533
1169.30 2.591222
1169.40 2.59091
1169.50 2.590599
1169.60 2.590287
1169.70 2.589976
1169.80 2.589665
1169.90 2.589354
1170.00 2.589043
1170.10 2.588732
1170.20 2.588421
1170.30 2.58811
1170.40 2.587799
1170.50 2.587488
1170.60 2.587178
1170.70 2.586867
1170.80 2.586557
1170.90 2.586246
1171.00 2.585936
1171.10 2.585626
1171.20 2.585315
1171.30 2.585005
1171.40 2.584695
1171.50 2.584385
1171.60 2.584075
1171.70 2.583765
1171.80 2.583455
1171.90 2.583146
1172.00 2.582836
1172.10 2.582526
1172.20 2.582217
1172.30 2.581907
1172.40 2.581598
1172.50 2.581288
1172.60 2.580979
1172.70 2.58067
1172.80 2.580361
1172.90 2.580052
1173.00 2.579743
1173.10 2.579434
1173.20 2.579125
1173.30 2.578816
1173.40 2.578507
1173.50 2.578199
1173.60 2.57789
1173.70 2.577582
1173.80 2.577272
1173.90 2.576962
1174.00 2.576653
1174.10 2.576343
1174.20 2.576034
1174.30 2.575724
1174.40 2.575415
1174.50 2.575106
1174.60 2.574797
1174.70 2.574487
1174.80 2.574178
1174.90 2.573869
1175.00 2.57356
1175.10 2.573252
1175.20 2.572943
1175.30 2.572634
1175.40 2.572325
1175.50 2.572017
1175.60 2.571708
1175.70 2.5714
1175.80 2.571092
1175.90 2.570783
1176.00 2.570475
1176.10 2.570167
1176.20 2.569859
1176.30 2.569551
1176.40 2.569243
1176.50 2.568935
1176.60 2.568627
1176.70 2.568319
1176.80 2.568011
1176.90 2.567704
1177.00 2.567396
1177.10 2.567089
1177.20 2.566781
1177.30 2.566474
1177.40 2.566167
1177.50 2.565859
1177.60 2.565552
1177.70 2.565245
1177.80 2.564938
1177.90 2.564631
1178.00 2.564324
1178.10 2.564017
1178.20 2.563711
1178.30 2.563404
1178.40 2.563097
1178.50 2.562791
1178.60 2.562484
1178.70 2.562178
1178.80 2.561872
1178.90 2.561565
1179.00 2.561259
1179.10 2.560953
1179.20 2.560647
1179.30 2.560341
1179.40 2.560035
1179.50 2.559729
1179.60 2.559421
1179.70 2.559094
1179.80 2.558767
1179.90 2.55844
1180.00 2.558113
1180.10 2.557786
1180.20 2.557459
1180.30 2.557132
1180.40 2.556806
1180.50 2.556479
1180.60 2.556153
1180.70 2.555826
1180.80 2.5555
1180.90 2.555174
1181.00 2.554848
1181.10 2.554522
1181.20 2.554195
1181.30 2.55387
1181.40 2.553544
1181.50 2.553218
1181.60 2.552892
1181.70 2.552566
1181.80 2.552241
1181.90 2.551915
1182.00 2.55159
1182.10 2.551265
1182.20 2.550939
1182.30 2.550614
1182.40 2.550289
1182.50 2.549964
1182.60 2.549639
1182.70 2.549314
1182.80 2.548989
1182.90 2.548664
1183.00 2.54834
1183.10 2.548015
1183.20 2.547691
1183.30 2.547366
1183.40 2.547042
1183.50 2.546717
1183.60 2.546393
1183.70 2.546069
1183.80 2.545745
1183.90 2.545421
1184.00 2.545097
1184.10 2.544773
1184.20 2.544449
1184.30 2.544125
1184.40 2.543802
1184.50 2.543478
1184.60 2.543155
1184.70 2.542831
1184.80 2.542508
1184.90 2.542184
1185.00 2.541861
1185.10 2.541538
1185.20 2.541215
1185.30 2.540892
1185.40 2.540569
1185.50 2.540246
1185.60 2.539922
1185.70 2.539598
1185.80 2.539274
1185.90 2.538951
1186.00 2.538627
1186.10 2.538304
1186.20 2.53798
1186.30 2.537657
1186.40 2.537334
1186.50 2.537011
1186.60 2.536688
1186.70 2.536364
1186.80 2.536042
1186.90 2.535719
1187.00 2.535396
1187.10 2.535073
1187.20 2.53475
1187.30 2.534428
1187.40 2.534105
1187.50 2.533783
1187.60 2.533461
1187.70 2.533138
1187.80 2.532816
1187.90 2.532494
1188.00 2.532172
1188.10 2.53185
1188.20 2.531528
1188.30 2.531206
1188.40 2.530884
1188.50 2.530562
1188.60 2.530241
1188.70 2.529919
1188.80 2.529598
1188.90 2.529276
1189.00 2.528955
1189.10 2.528634
1189.20 2.528312
1189.30 2.527991
1189.40 2.52767
1189.50 2.527349
1189.60 2.527028
1189.70 2.526707
1189.80 2.526387
1189.90 2.526066
1190.00 2.525745
1190.10 2.525425
1190.20 2.525104
1190.30 2.524784
1190.40 2.524463
1190.50 2.524143
1190.60 2.523823
1190.70 2.523503
1190.80 2.523183
1190.90 2.522863
1191.00 2.522543
1191.10 2.522223
1191.20 2.521903
1191.30 2.521584
1191.40 2.521264
1191.50 2.520944
1191.60 2.520625
1191.70 2.520306
1191.80 2.519986
1191.90 2.519667
1192.00 2.519348
1192.10 2.519029
1192.20 2.51871
1192.30 2.518391
1192.40 2.518072
1192.50 2.517753
1192.60 2.517434
1192.70 2.517115
1192.80 2.516797
1192.90 2.516478
1193.00 2.51616
1193.10 2.515841
1193.20 2.515523
1193.30 2.515205
1193.40 2.514886
1193.50 2.514568
1193.60 2.51425
1193.70 2.513932
1193.80 2.513614
1193.90 2.513297
1194.00 2.512979
1194.10 2.512661
1194.20 2.512343
1194.30 2.512026
1194.40 2.511708
1194.50 2.511391
1194.60 2.511074
1194.70 2.510756
1194.80 2.510439
1194.90 2.510122
1195.00 2.509805
1195.10 2.509488
1195.20 2.509171
1195.30 2.508854
1195.40 2.508537
1195.50 2.508221
1195.60 2.507904
1195.70 2.507588
1195.80 2.507271
1195.90 2.506955
1196.00 2.506638
1196.10 2.506322
1196.20 2.506006
1196.30 2.50569
1196.40 2.505374
1196.50 2.505058
1196.60 2.504742
1196.70 2.504426
1196.80 2.50411
1196.90 2.503794
1197.00 2.503479
1197.10 2.503163
1197.20 2.502848
1197.30 2.502532
1197.40 2.502216
1197.50 2.5019
1197.60 2.501583
1197.70 2.501267
1197.80 2.500951
1197.90 2.500635
1198.00 2.500319
1198.10 2.500003
1198.20 2.499687
1198.30 2.499372
1198.40 2.499056
1198.50 2.49874
1198.60 2.498425
1198.70 2.498109
1198.80 2.497794
1198.90 2.497478
1199.00 2.497163
1199.10 2.496848
1199.20 2.496533
1199.30 2.496218
1199.40 2.495903
1199.50 2.495588
1199.60 2.495273
1199.70 2.494958
1199.80 2.494644
1199.90 2.494329
1200.00 2.494014
