# Version 2.1 - nm, norm@500 to 1, cut digits, bergeron_He_9000_75.dat_9000
# Wavelength(nm)  Flambda(ergs/cm^s/s/nm)
300.00 1.63741
300.10 1.63754
300.20 1.637678
300.30 1.637804
300.40 1.637849
300.50 1.637893
300.60 1.637937
300.70 1.63798
300.80 1.638023
300.90 1.638066
301.00 1.638108
301.10 1.63815
301.20 1.638191
301.30 1.638232
301.40 1.638272
301.50 1.638312
301.60 1.638352
301.70 1.638391
301.80 1.63843
301.90 1.638468
302.00 1.638506
302.10 1.638539
302.20 1.63857
302.30 1.638601
302.40 1.638632
302.50 1.638662
302.60 1.638692
302.70 1.638722
302.80 1.638751
302.90 1.638779
303.00 1.638808
303.10 1.638836
303.20 1.638863
303.30 1.638889
303.40 1.638902
303.50 1.638914
303.60 1.638926
303.70 1.638938
303.80 1.638949
303.90 1.63896
304.00 1.638971
304.10 1.638981
304.20 1.638991
304.30 1.639001
304.40 1.63901
304.50 1.639019
304.60 1.639036
304.70 1.639055
304.80 1.639072
304.90 1.63909
305.00 1.639107
305.10 1.639124
305.20 1.63914
305.30 1.639156
305.40 1.639172
305.50 1.639187
305.60 1.639202
305.70 1.639216
305.80 1.63923
305.90 1.639244
306.00 1.639257
306.10 1.63927
306.20 1.639283
306.30 1.639295
306.40 1.63927
306.50 1.639234
306.60 1.639197
306.70 1.639159
306.80 1.639122
306.90 1.639084
307.00 1.639046
307.10 1.639008
307.20 1.638969
307.30 1.63893
307.40 1.638891
307.50 1.638851
307.60 1.638811
307.70 1.638771
307.80 1.638731
307.90 1.63869
308.00 1.638649
308.10 1.638608
308.20 1.638566
308.30 1.638524
308.40 1.638482
308.50 1.638439
308.60 1.638397
308.70 1.638353
308.80 1.638378
308.90 1.638593
309.00 1.638525
309.10 1.638456
309.20 1.638387
309.30 1.638318
309.40 1.638261
309.50 1.63828
309.60 1.638299
309.70 1.638318
309.80 1.638336
309.90 1.638354
310.00 1.638372
310.10 1.638389
310.20 1.638405
310.30 1.638422
310.40 1.638412
310.50 1.638373
310.60 1.638334
310.70 1.638295
310.80 1.638255
310.90 1.638216
311.00 1.63801
311.10 1.637805
311.20 1.6376
311.30 1.637448
311.40 1.637444
311.50 1.63744
311.60 1.637436
311.70 1.637431
311.80 1.637426
311.90 1.637421
312.00 1.637415
312.10 1.637409
312.20 1.637195
312.30 1.637195
312.40 1.637457
312.50 1.637364
312.60 1.637161
312.70 1.636958
312.80 1.636754
312.90 1.636681
313.00 1.636749
313.10 1.636816
313.20 1.636883
313.30 1.636913
313.40 1.636837
313.50 1.63676
313.60 1.636684
313.70 1.636607
313.80 1.63653
313.90 1.636452
314.00 1.636375
314.10 1.636338
314.20 1.6363
314.30 1.636263
314.40 1.636225
314.50 1.636186
314.60 1.636148
314.70 1.636109
314.80 1.636068
314.90 1.635796
315.00 1.63528
315.10 1.635272
315.20 1.635264
315.30 1.635256
315.40 1.635248
315.50 1.635239
315.60 1.63523
315.70 1.635156
315.80 1.635082
315.90 1.635008
316.00 1.634934
316.10 1.634668
316.20 1.634401
316.30 1.634518
316.40 1.634251
316.50 1.634368
316.60 1.634101
316.70 1.634216
316.80 1.634331
316.90 1.634255
317.00 1.634178
317.10 1.634102
317.20 1.634025
317.30 1.633871
317.40 1.633721
317.50 1.633586
317.60 1.63345
317.70 1.633314
317.80 1.633178
317.90 1.633149
318.00 1.632888
318.10 1.632809
318.20 1.63273
318.30 1.632651
318.40 1.632621
318.50 1.63273
318.60 1.632544
318.70 1.632275
318.80 1.632006
318.90 1.631851
319.00 1.631762
319.10 1.63187
319.20 1.631891
319.30 1.631665
319.40 1.631439
319.50 1.631213
319.60 1.631564
319.70 1.631338
319.80 1.631111
319.90 1.630885
320.00 1.630818
320.10 1.630922
320.20 1.630822
320.30 1.63074
320.40 1.630694
320.50 1.630424
320.60 1.630511
320.70 1.630241
320.80 1.630059
320.90 1.629975
321.00 1.62989
321.10 1.629805
321.20 1.629508
321.30 1.629394
321.40 1.62928
321.50 1.629165
321.60 1.62905
321.70 1.628936
321.80 1.62887
321.90 1.628859
322.00 1.628326
322.10 1.628235
322.20 1.628144
322.30 1.628052
322.40 1.62796
322.50 1.627868
322.60 1.627776
322.70 1.627684
322.80 1.62739
322.90 1.627297
323.00 1.627203
323.10 1.62711
323.20 1.627017
323.30 1.626923
323.40 1.626829
323.50 1.626735
323.60 1.62664
323.70 1.626546
323.80 1.626451
323.90 1.626356
324.00 1.626134
324.10 1.625912
324.20 1.62569
324.30 1.625508
324.40 1.625421
324.50 1.625312
324.60 1.625203
324.70 1.625094
324.80 1.624984
324.90 1.624875
325.00 1.624765
325.10 1.624655
325.20 1.624504
325.30 1.624263
325.40 1.624022
325.50 1.623851
325.60 1.623765
325.70 1.623679
325.80 1.623593
325.90 1.62348
326.00 1.62334
326.10 1.623199
326.20 1.623058
326.30 1.622844
326.40 1.622421
326.50 1.62227
326.60 1.622119
326.70 1.621968
326.80 1.621816
326.90 1.621665
327.00 1.621513
327.10 1.621361
327.20 1.621209
327.30 1.621057
327.40 1.620905
327.50 1.620753
327.60 1.620601
327.70 1.620448
327.80 1.620296
327.90 1.620074
328.00 1.619813
328.10 1.619594
328.20 1.619375
328.30 1.619155
328.40 1.618936
328.50 1.618745
328.60 1.61856
328.70 1.618376
328.80 1.618202
328.90 1.618059
329.00 1.617916
329.10 1.617772
329.20 1.617629
329.30 1.617485
329.40 1.617341
329.50 1.617197
329.60 1.617053
329.70 1.616909
329.80 1.616765
329.90 1.616621
330.00 1.6165
330.10 1.616407
330.20 1.616314
330.30 1.616221
330.40 1.616071
330.50 1.615857
330.60 1.615643
330.70 1.615429
330.80 1.615216
330.90 1.615002
331.00 1.614788
331.10 1.614574
331.20 1.61436
331.30 1.614146
331.40 1.613932
331.50 1.613755
331.60 1.613622
331.70 1.61349
331.80 1.613293
331.90 1.613095
332.00 1.612896
332.10 1.612697
332.20 1.612498
332.30 1.612299
332.40 1.6121
332.50 1.611901
332.60 1.611702
332.70 1.611503
332.80 1.611304
332.90 1.611104
333.00 1.610905
333.10 1.610702
333.20 1.610496
333.30 1.610289
333.40 1.610083
333.50 1.609876
333.60 1.609669
333.70 1.609463
333.80 1.609256
333.90 1.609049
334.00 1.608842
334.10 1.608656
334.20 1.608495
334.30 1.608333
334.40 1.608172
334.50 1.608011
334.60 1.607849
334.70 1.607624
334.80 1.607373
334.90 1.607197
335.00 1.60702
335.10 1.606533
335.20 1.606257
335.30 1.606357
335.40 1.606081
335.50 1.605891
335.60 1.60553
335.70 1.605561
335.80 1.605285
335.90 1.605009
336.00 1.604734
336.10 1.604458
336.20 1.604183
336.30 1.603958
336.40 1.603795
336.50 1.603633
336.60 1.60347
336.70 1.603307
336.80 1.603144
336.90 1.602928
337.00 1.602645
337.10 1.602363
337.20 1.602081
337.30 1.60185
337.40 1.601692
337.50 1.601534
337.60 1.601376
337.70 1.601218
337.80 1.601059
337.90 1.600839
338.00 1.600543
338.10 1.600246
338.20 1.59995
338.30 1.599654
338.40 1.599388
338.50 1.599197
338.60 1.599007
338.70 1.598816
338.80 1.598625
338.90 1.598434
339.00 1.598242
339.10 1.598051
339.20 1.59786
339.30 1.59764
339.40 1.597378
339.50 1.597132
339.60 1.596906
339.70 1.59668
339.80 1.596454
339.90 1.596227
340.00 1.596001
340.10 1.595775
340.20 1.595548
340.30 1.595322
340.40 1.595096
340.50 1.594869
340.60 1.594643
340.70 1.594417
340.80 1.594176
340.90 1.593914
341.00 1.593647
341.10 1.593372
341.20 1.593097
341.30 1.592822
341.40 1.592548
341.50 1.592273
341.60 1.591998
341.70 1.591724
341.80 1.591501
341.90 1.591342
342.00 1.591184
342.10 1.591025
342.20 1.590712
342.30 1.590536
342.40 1.590433
342.50 1.590163
342.60 1.589892
342.70 1.589622
342.80 1.589352
342.90 1.589082
343.00 1.588807
343.10 1.588527
343.20 1.588246
343.30 1.587965
343.40 1.587732
343.50 1.587566
343.60 1.5874
343.70 1.587234
343.80 1.587068
343.90 1.586902
344.00 1.586692
344.10 1.586418
344.20 1.586144
344.30 1.58587
344.40 1.585596
344.50 1.585322
344.60 1.584799
344.70 1.584509
344.80 1.584252
344.90 1.583962
345.00 1.583953
345.10 1.583679
345.20 1.583409
345.30 1.583144
345.40 1.582879
345.50 1.5826
345.60 1.582312
345.70 1.582038
345.80 1.581765
345.90 1.581492
346.00 1.581219
346.10 1.580945
346.20 1.580672
346.30 1.580399
346.40 1.580126
346.50 1.579853
346.60 1.579581
346.70 1.579308
346.80 1.579035
346.90 1.578762
347.00 1.57849
347.10 1.578217
347.20 1.577951
347.30 1.577693
347.40 1.577436
347.50 1.577179
347.60 1.576922
347.70 1.576664
347.80 1.576407
347.90 1.57615
348.00 1.575893
348.10 1.575636
348.20 1.575379
348.30 1.575122
348.40 1.574865
348.50 1.574608
348.60 1.574351
348.70 1.573959
348.80 1.573591
348.90 1.573319
349.00 1.573047
349.10 1.572776
349.20 1.572504
349.30 1.572233
349.40 1.571961
349.50 1.57169
349.60 1.571419
349.70 1.571147
349.80 1.570876
349.90 1.570605
350.00 1.570334
350.10 1.570063
350.20 1.569792
350.30 1.56952
350.40 1.569246
350.50 1.568973
350.60 1.568699
350.70 1.568426
350.80 1.568152
350.90 1.567879
351.00 1.567605
351.10 1.567332
351.20 1.567059
351.30 1.566786
351.40 1.56653
351.50 1.566304
351.60 1.566079
351.70 1.565854
351.80 1.565628
351.90 1.565403
352.00 1.565178
352.10 1.564952
352.20 1.564504
352.30 1.564101
352.40 1.563798
352.50 1.563496
352.60 1.563194
352.70 1.562892
352.80 1.56259
352.90 1.562289
353.00 1.561987
353.10 1.561685
353.20 1.561384
353.30 1.561082
353.40 1.560781
353.50 1.560568
353.60 1.560376
353.70 1.560184
353.80 1.559993
353.90 1.55975
354.00 1.559416
354.10 1.559082
354.20 1.558749
354.30 1.558415
354.40 1.558082
354.50 1.557749
354.60 1.557415
354.70 1.557082
354.80 1.556753
354.90 1.556428
355.00 1.556104
355.10 1.555779
355.20 1.555455
355.30 1.555143
355.40 1.554832
355.50 1.554521
355.60 1.55421
355.70 1.554049
355.80 1.553956
355.90 1.553582
356.00 1.553179
356.10 1.552893
356.20 1.552608
356.30 1.552322
356.40 1.552037
356.50 1.551751
356.60 1.551466
356.70 1.551181
356.80 1.550896
356.90 1.550611
357.00 1.550326
357.10 1.550041
357.20 1.549756
357.30 1.549471
357.40 1.54917
357.50 1.54884
357.60 1.548509
357.70 1.548179
357.80 1.547858
357.90 1.547538
358.00 1.547241
358.10 1.54695
358.20 1.546659
358.30 1.546369
358.40 1.546078
358.50 1.545787
358.60 1.545497
358.70 1.545206
358.80 1.544916
358.90 1.544625
359.00 1.544322
359.10 1.543996
359.20 1.543667
359.30 1.543317
359.40 1.542969
359.50 1.542551
359.60 1.542117
359.70 1.541684
359.80 1.5415
359.90 1.541317
360.00 1.54109
360.10 1.540785
360.20 1.54048
360.30 1.540175
360.40 1.53987
360.50 1.539566
360.60 1.53893
360.70 1.538667
360.80 1.538403
360.90 1.53814
361.00 1.537664
361.10 1.537467
361.20 1.537138
361.30 1.536875
361.40 1.536583
361.50 1.536349
361.60 1.535711
361.70 1.535448
361.80 1.535222
361.90 1.53506
362.00 1.534898
362.10 1.534512
362.20 1.53411
362.30 1.533776
362.40 1.533442
362.50 1.533108
362.60 1.532774
362.70 1.532356
362.80 1.532353
362.90 1.531798
363.00 1.531244
363.10 1.53093
363.20 1.530618
363.30 1.530463
363.40 1.530202
363.50 1.529941
363.60 1.529679
363.70 1.529161
363.80 1.528578
363.90 1.528289
364.00 1.528001
364.10 1.527713
364.20 1.527425
364.30 1.527211
364.40 1.527015
364.50 1.526758
364.60 1.526304
364.70 1.525851
364.80 1.525397
364.90 1.525137
365.00 1.524878
365.10 1.524618
365.20 1.524071
365.30 1.524099
365.40 1.523839
365.50 1.523293
365.60 1.522747
365.70 1.522436
365.80 1.522124
365.90 1.521906
366.00 1.521711
366.10 1.521302
366.20 1.520893
366.30 1.520484
366.40 1.520075
366.50 1.51984
366.60 1.519588
366.70 1.519192
366.80 1.518795
366.90 1.518429
367.00 1.518113
367.10 1.517798
367.20 1.517483
367.30 1.517169
367.40 1.516854
367.50 1.516636
367.60 1.516442
367.70 1.516065
367.80 1.515688
367.90 1.515312
368.00 1.514846
368.10 1.514582
368.20 1.514207
368.30 1.51383
368.40 1.513453
368.50 1.513076
368.60 1.512699
368.70 1.512322
368.80 1.511946
368.90 1.511772
369.00 1.511403
369.10 1.510896
369.20 1.510643
369.30 1.510388
369.40 1.510132
369.50 1.509877
369.60 1.509619
369.70 1.509361
369.80 1.509001
369.90 1.508639
370.00 1.508278
370.10 1.507786
370.20 1.507526
370.30 1.507271
370.40 1.506728
370.50 1.506481
370.60 1.505954
370.70 1.5057
370.80 1.505444
370.90 1.505187
371.00 1.504658
371.10 1.504127
371.20 1.503871
371.30 1.503615
371.40 1.503516
371.50 1.503121
371.60 1.502726
371.70 1.502331
371.80 1.501936
371.90 1.501542
372.00 1.501056
372.10 1.501041
372.20 1.500696
372.30 1.500351
372.40 1.500006
372.50 1.499662
372.60 1.499317
372.70 1.498973
372.80 1.498444
372.90 1.497915
373.00 1.497663
373.10 1.497414
373.20 1.496887
373.30 1.496361
373.40 1.496109
373.50 1.495858
373.60 1.495607
373.70 1.495356
373.80 1.494677
373.90 1.494306
374.00 1.494055
374.10 1.493805
374.20 1.493554
374.30 1.493304
374.40 1.492849
374.50 1.492257
374.60 1.491867
374.70 1.491482
374.80 1.491096
374.90 1.490712
375.00 1.490462
375.10 1.490213
375.20 1.489964
375.30 1.489636
375.40 1.48931
375.50 1.488983
375.60 1.488656
375.70 1.48833
375.80 1.488003
375.90 1.487677
376.00 1.486886
376.10 1.486563
376.20 1.486245
376.30 1.485928
376.40 1.48561
376.50 1.485254
376.60 1.484838
376.70 1.484423
376.80 1.484073
376.90 1.483789
377.00 1.483505
377.10 1.483222
377.20 1.482903
377.30 1.482453
377.40 1.482003
377.50 1.481553
377.60 1.481237
377.70 1.48092
377.80 1.480604
377.90 1.480287
378.00 1.479784
378.10 1.479432
378.20 1.479084
378.30 1.478737
378.40 1.478389
378.50 1.478042
378.60 1.477695
378.70 1.477348
378.80 1.477002
378.90 1.476642
379.00 1.476258
379.10 1.475907
379.20 1.475555
379.30 1.475163
379.40 1.474729
379.50 1.474296
379.60 1.473904
379.70 1.473563
379.80 1.473175
379.90 1.472787
380.00 1.4724
380.10 1.472013
380.20 1.471626
380.30 1.47124
380.40 1.470853
380.50 1.470467
380.60 1.470372
380.70 1.469961
380.80 1.46955
380.90 1.469139
381.00 1.468728
381.10 1.468618
381.20 1.468243
381.30 1.467572
381.40 1.46742
381.50 1.467192
381.60 1.466747
381.70 1.466115
381.80 1.465737
381.90 1.465496
382.00 1.465254
382.10 1.46475
382.20 1.464457
382.30 1.464215
382.40 1.463908
382.50 1.4635
382.60 1.463093
382.70 1.462772
382.80 1.462461
382.90 1.462063
383.00 1.461665
383.10 1.461268
383.20 1.460855
383.30 1.460381
383.40 1.459941
383.50 1.459553
383.60 1.459344
383.70 1.458927
383.80 1.45851
383.90 1.458093
384.00 1.457676
384.10 1.45726
384.20 1.456844
384.30 1.456428
384.40 1.456083
384.50 1.45581
384.60 1.455537
384.70 1.455263
384.80 1.454889
384.90 1.454288
385.00 1.453977
385.10 1.453657
385.20 1.453149
385.30 1.45292
385.40 1.452609
385.50 1.452216
385.60 1.451824
385.70 1.451432
385.80 1.451028
385.90 1.450577
386.00 1.450159
386.10 1.449775
386.20 1.449422
386.30 1.449069
386.40 1.448643
386.50 1.448281
386.60 1.448045
386.70 1.447681
386.80 1.447189
386.90 1.446826
387.00 1.44659
387.10 1.445856
387.20 1.445608
387.30 1.445373
387.40 1.444759
387.50 1.444619
387.60 1.444238
387.70 1.443876
387.80 1.443514
387.90 1.443152
388.00 1.442711
388.10 1.442476
388.20 1.441895
388.30 1.441476
388.40 1.441056
388.50 1.44068
388.60 1.440435
388.70 1.440058
388.80 1.439507
388.90 1.439084
389.00 1.438851
389.10 1.438321
389.20 1.4381
389.30 1.437738
389.40 1.437259
389.50 1.436847
389.60 1.436568
389.70 1.436333
389.80 1.43594
389.90 1.435547
390.00 1.435154
390.10 1.434761
390.20 1.434368
390.30 1.433958
390.40 1.433527
390.50 1.433097
390.60 1.432667
390.70 1.432237
390.80 1.431797
390.90 1.431349
391.00 1.431261
391.10 1.430772
391.20 1.430375
391.30 1.43016
391.40 1.429764
391.50 1.429367
391.60 1.428971
391.70 1.428574
391.80 1.428178
391.90 1.427846
392.00 1.427484
392.10 1.426972
392.20 1.426517
392.30 1.426381
392.40 1.425983
392.50 1.425257
392.60 1.425028
392.70 1.4248
392.80 1.424075
392.90 1.42394
393.00 1.423479
393.10 1.423064
393.20 1.42269
393.30 1.422215
393.40 1.421841
393.50 1.42149
393.60 1.421071
393.70 1.420541
393.80 1.420337
393.90 1.419863
394.00 1.419439
394.10 1.419259
394.20 1.418789
394.30 1.41841
394.40 1.41801
394.50 1.417743
394.60 1.4173
394.70 1.416847
394.80 1.416355
394.90 1.415872
395.00 1.415632
395.10 1.41526
395.20 1.414946
395.30 1.41455
395.40 1.414155
395.50 1.413817
395.60 1.413501
395.70 1.413161
395.80 1.412755
395.90 1.412349
396.00 1.411916
396.10 1.411269
396.20 1.410801
396.30 1.410597
396.40 1.410044
396.50 1.409742
396.60 1.409598
396.70 1.409058
396.80 1.408664
396.90 1.408442
397.00 1.407732
397.10 1.407429
397.20 1.40691
397.30 1.406662
397.40 1.406259
397.50 1.405857
397.60 1.405459
397.70 1.405096
397.80 1.404734
397.90 1.404372
398.00 1.404012
398.10 1.403653
398.20 1.403224
398.30 1.402718
398.40 1.402217
398.50 1.401885
398.60 1.401661
398.70 1.40122
398.80 1.400714
398.90 1.400265
399.00 1.39992
399.10 1.39972
399.20 1.399239
399.30 1.398759
399.40 1.39828
399.50 1.3978
399.60 1.397384
399.70 1.396992
399.80 1.396599
399.90 1.396207
400.00 1.395817
400.10 1.395488
400.20 1.395226
400.30 1.394823
400.40 1.394316
400.50 1.394236
400.60 1.393715
400.70 1.393258
400.80 1.392627
400.90 1.39241
401.00 1.392193
401.10 1.391499
401.20 1.391179
401.30 1.390944
401.40 1.3905
401.50 1.389984
401.60 1.389474
401.70 1.389148
401.80 1.388928
401.90 1.388588
402.00 1.388123
402.10 1.387907
402.20 1.387217
402.30 1.387002
402.40 1.386313
402.50 1.386097
402.60 1.385882
402.70 1.385194
402.80 1.384979
402.90 1.384481
403.00 1.38403
403.10 1.383863
403.20 1.383187
403.30 1.382864
403.40 1.382647
403.50 1.382283
403.60 1.381849
403.70 1.381164
403.80 1.380959
403.90 1.380542
404.00 1.380054
404.10 1.379841
404.20 1.379393
404.30 1.378945
404.40 1.378519
404.50 1.378051
404.60 1.377839
404.70 1.377158
404.80 1.376959
404.90 1.376734
405.00 1.376054
405.10 1.375642
405.20 1.375296
405.30 1.374952
405.40 1.374584
405.50 1.374218
405.60 1.373851
405.70 1.373485
405.80 1.373118
405.90 1.372752
406.00 1.372263
406.10 1.371775
406.20 1.371287
406.30 1.370799
406.40 1.370352
406.50 1.370213
406.60 1.369886
406.70 1.369357
406.80 1.368865
406.90 1.368338
407.00 1.367944
407.10 1.36755
407.20 1.367156
407.30 1.366762
407.40 1.366368
407.50 1.365975
407.60 1.365582
407.70 1.365189
407.80 1.364796
407.90 1.364403
408.00 1.363986
408.10 1.36375
408.20 1.363432
408.30 1.362914
408.40 1.362396
408.50 1.36223
408.60 1.361722
408.70 1.361215
408.80 1.360748
408.90 1.360547
409.00 1.360146
409.10 1.359745
409.20 1.359344
409.30 1.358944
409.40 1.35854
409.50 1.358039
409.60 1.357537
409.70 1.357088
409.80 1.356847
409.90 1.356593
410.00 1.355931
410.10 1.35565
410.20 1.355208
410.30 1.354725
410.40 1.354272
410.50 1.353912
410.60 1.353552
410.70 1.353206
410.80 1.352916
410.90 1.352625
411.00 1.352254
411.10 1.351854
411.20 1.351453
411.30 1.351002
411.40 1.350355
411.50 1.350018
411.60 1.349683
411.70 1.349328
411.80 1.348899
411.90 1.348425
412.00 1.348223
412.10 1.347568
412.20 1.347366
412.30 1.34679
412.40 1.346511
412.50 1.345922
412.60 1.345592
412.70 1.345144
412.80 1.344668
412.90 1.344169
413.00 1.344015
413.10 1.343632
413.20 1.343249
413.30 1.342866
413.40 1.342484
413.50 1.342048
413.60 1.341453
413.70 1.341029
413.80 1.340605
413.90 1.340181
414.00 1.339758
414.10 1.339334
414.20 1.339126
414.30 1.338658
414.40 1.33837
414.50 1.337813
414.60 1.337668
414.70 1.337246
414.80 1.336824
414.90 1.336403
415.00 1.335981
415.10 1.33556
415.20 1.33512
415.30 1.334615
415.40 1.334111
415.50 1.333613
415.60 1.33329
415.70 1.332967
415.80 1.332637
415.90 1.332288
416.00 1.33194
416.10 1.331575
416.20 1.331148
416.30 1.330721
416.40 1.330294
416.50 1.329867
416.60 1.32945
416.70 1.329026
416.80 1.328389
416.90 1.328193
417.00 1.327556
417.10 1.327367
417.20 1.326951
417.30 1.326534
417.40 1.326054
417.50 1.325574
417.60 1.325139
417.70 1.324876
417.80 1.324461
417.90 1.324047
418.00 1.323633
418.10 1.32322
418.20 1.322806
418.30 1.322403
418.40 1.322238
418.50 1.321797
418.60 1.321355
418.70 1.320914
418.80 1.320474
418.90 1.320033
419.00 1.319593
419.10 1.319153
419.20 1.318713
419.30 1.318277
419.40 1.317957
419.50 1.317637
419.60 1.317285
419.70 1.316804
419.80 1.316324
419.90 1.31586
420.00 1.315447
420.10 1.315033
420.20 1.31462
420.30 1.314207
420.40 1.313795
420.50 1.313382
420.60 1.31297
420.70 1.312559
420.80 1.312147
420.90 1.311739
421.00 1.311427
421.10 1.311115
421.20 1.310773
421.30 1.310335
421.40 1.309898
421.50 1.309462
421.60 1.309025
421.70 1.308589
421.80 1.308153
421.90 1.307724
422.00 1.307316
422.10 1.306919
422.20 1.306572
422.30 1.306225
422.40 1.305875
422.50 1.305453
422.60 1.30503
422.70 1.304608
422.80 1.304186
422.90 1.303765
423.00 1.303343
423.10 1.302922
423.20 1.302501
423.30 1.302081
423.40 1.30166
423.50 1.30124
423.60 1.30082
423.70 1.300401
423.80 1.299981
423.90 1.299562
424.00 1.299143
424.10 1.298725
424.20 1.298306
424.30 1.297888
424.40 1.29743
424.50 1.297034
424.60 1.296638
424.70 1.296243
424.80 1.295847
424.90 1.295452
425.00 1.295057
425.10 1.294662
425.20 1.294267
425.30 1.293873
425.40 1.293477
425.50 1.293065
425.60 1.292654
425.70 1.292243
425.80 1.291832
425.90 1.291422
426.00 1.291011
426.10 1.290601
426.20 1.290192
426.30 1.289782
426.40 1.289373
426.50 1.288964
426.60 1.288555
426.70 1.288147
426.80 1.287738
426.90 1.28733
427.00 1.286927
427.10 1.286524
427.20 1.286121
427.30 1.285719
427.40 1.285317
427.50 1.284915
427.60 1.284513
427.70 1.284112
427.80 1.28371
427.90 1.283309
428.00 1.282908
428.10 1.282508
428.20 1.282108
428.30 1.281707
428.40 1.281308
428.50 1.280908
428.60 1.280509
428.70 1.280109
428.80 1.279709
428.90 1.279296
429.00 1.278883
429.10 1.278471
429.20 1.278058
429.30 1.277646
429.40 1.277234
429.50 1.276822
429.60 1.276411
429.70 1.276
429.80 1.275589
429.90 1.275178
430.00 1.274768
430.10 1.274357
430.20 1.273947
430.30 1.273538
430.40 1.273128
430.50 1.272719
430.60 1.27231
430.70 1.271901
430.80 1.271493
430.90 1.271084
431.00 1.270676
431.10 1.270268
431.20 1.269861
431.30 1.269452
431.40 1.269029
431.50 1.268606
431.60 1.268183
431.70 1.26776
431.80 1.267337
431.90 1.266915
432.00 1.266493
432.10 1.266071
432.20 1.26565
432.30 1.265228
432.40 1.264807
432.50 1.264387
432.60 1.263966
432.70 1.263546
432.80 1.263126
432.90 1.262706
433.00 1.262287
433.10 1.261867
433.20 1.261448
433.30 1.261031
433.40 1.260625
433.50 1.260221
433.60 1.259816
433.70 1.259412
433.80 1.259029
433.90 1.258671
434.00 1.258294
434.10 1.257904
434.20 1.257516
434.30 1.257127
434.40 1.256738
434.50 1.25635
434.60 1.255962
434.70 1.255574
434.80 1.255185
434.90 1.254774
435.00 1.254364
435.10 1.253953
435.20 1.253543
435.30 1.253134
435.40 1.252724
435.50 1.252315
435.60 1.251906
435.70 1.251497
435.80 1.251089
435.90 1.250681
436.00 1.250273
436.10 1.249865
436.20 1.249457
436.30 1.248976
436.40 1.248414
436.50 1.248002
436.60 1.247591
436.70 1.247179
436.80 1.246768
436.90 1.246357
437.00 1.245946
437.10 1.245536
437.20 1.245128
437.30 1.244722
437.40 1.244319
437.50 1.243951
437.60 1.243583
437.70 1.243215
437.80 1.242847
437.90 1.24248
438.00 1.242109
438.10 1.241695
438.20 1.241281
438.30 1.240798
438.40 1.240246
438.50 1.23988
438.60 1.2395
438.70 1.239204
438.80 1.238769
438.90 1.238204
439.00 1.238038
439.10 1.237475
439.20 1.236925
439.30 1.236561
439.40 1.236197
439.50 1.235833
439.60 1.235455
439.70 1.235086
439.80 1.234769
439.90 1.234298
440.00 1.233828
440.10 1.233358
440.20 1.232893
440.30 1.232491
440.40 1.232089
440.50 1.231688
440.60 1.231287
440.70 1.230887
440.80 1.230486
440.90 1.230086
441.00 1.229686
441.10 1.229286
441.20 1.228893
441.30 1.228579
441.40 1.228216
441.50 1.227794
441.60 1.227373
441.70 1.226881
441.80 1.226446
441.90 1.226011
442.00 1.225576
442.10 1.225142
442.20 1.224707
442.30 1.224273
442.40 1.223902
442.50 1.223605
442.60 1.223309
442.70 1.222911
442.80 1.222375
442.90 1.222065
443.00 1.221646
443.10 1.221095
443.20 1.220642
443.30 1.22028
443.40 1.219921
443.50 1.219566
443.60 1.219123
443.70 1.218817
443.80 1.218414
443.90 1.217865
444.00 1.217404
444.10 1.217051
444.20 1.21661
444.30 1.216461
444.40 1.216062
444.50 1.215663
444.60 1.215198
444.70 1.214651
444.80 1.214204
444.90 1.213849
445.00 1.213494
445.10 1.213139
445.20 1.212757
445.30 1.212343
445.40 1.211929
445.50 1.211516
445.60 1.211102
445.70 1.210689
445.80 1.210258
445.90 1.20981
446.00 1.209362
446.10 1.208915
446.20 1.208425
446.30 1.208269
446.40 1.207777
446.50 1.207333
446.60 1.206888
446.70 1.206444
446.80 1.20605
446.90 1.205703
447.00 1.205255
447.10 1.205023
447.20 1.204561
447.30 1.204023
447.40 1.203584
447.50 1.203238
447.60 1.202923
447.70 1.202638
447.80 1.20219
447.90 1.201851
448.00 1.201476
448.10 1.201067
448.20 1.200659
448.30 1.20025
448.40 1.199842
448.50 1.199434
448.60 1.198961
448.70 1.198426
448.80 1.197904
448.90 1.197535
449.00 1.197166
449.10 1.196798
449.20 1.19643
449.30 1.195988
449.40 1.195609
449.50 1.19523
449.60 1.194824
449.70 1.194394
449.80 1.193964
449.90 1.193534
450.00 1.193104
450.10 1.192675
450.20 1.192245
450.30 1.191817
450.40 1.191414
450.50 1.191011
450.60 1.190608
450.70 1.190206
450.80 1.189804
450.90 1.189402
451.00 1.189026
451.10 1.188651
451.20 1.18838
451.30 1.188047
451.40 1.187521
451.50 1.186995
451.60 1.186846
451.70 1.18632
451.80 1.185983
451.90 1.185646
452.00 1.185122
452.10 1.184597
452.20 1.184261
452.30 1.183925
452.40 1.183589
452.50 1.183253
452.60 1.182731
452.70 1.182294
452.80 1.181938
452.90 1.181581
453.00 1.181225
453.10 1.180869
453.20 1.180462
453.30 1.180055
453.40 1.179649
453.50 1.179242
453.60 1.178836
453.70 1.178431
453.80 1.178022
453.90 1.177611
454.00 1.177201
454.10 1.17679
454.20 1.176408
454.30 1.176025
454.40 1.175643
454.50 1.175262
454.60 1.17488
454.70 1.174484
454.80 1.174073
454.90 1.173662
455.00 1.173252
455.10 1.172842
455.20 1.172433
455.30 1.172023
455.40 1.171614
455.50 1.171205
455.60 1.170797
455.70 1.170388
455.80 1.169974
455.90 1.169559
456.00 1.169145
456.10 1.168733
456.20 1.168323
456.30 1.167914
456.40 1.167505
456.50 1.167096
456.60 1.166688
456.70 1.16628
456.80 1.165872
456.90 1.165464
457.00 1.165057
457.10 1.164649
457.20 1.164189
457.30 1.163808
457.40 1.163428
457.50 1.163048
457.60 1.162667
457.70 1.162288
457.80 1.161908
457.90 1.161529
458.00 1.161149
458.10 1.16077
458.20 1.160392
458.30 1.160013
458.40 1.159635
458.50 1.159257
458.60 1.158879
458.70 1.158456
458.80 1.158015
458.90 1.157574
459.00 1.157133
459.10 1.156693
459.20 1.156253
459.30 1.155851
459.40 1.15545
459.50 1.155048
459.60 1.154647
459.70 1.154246
459.80 1.153845
459.90 1.153445
460.00 1.153045
460.10 1.152645
460.20 1.152245
460.30 1.151845
460.40 1.151446
460.50 1.151047
460.60 1.150648
460.70 1.15028
460.80 1.149926
460.90 1.149573
461.00 1.14922
461.10 1.148867
461.20 1.148411
461.30 1.147913
461.40 1.147491
461.50 1.147089
461.60 1.146687
461.70 1.146285
461.80 1.145889
461.90 1.145493
462.00 1.145098
462.10 1.144703
462.20 1.144309
462.30 1.143914
462.40 1.14352
462.50 1.143126
462.60 1.142732
462.70 1.142338
462.80 1.141945
462.90 1.141552
463.00 1.141159
463.10 1.140766
463.20 1.140376
463.30 1.139988
463.40 1.139599
463.50 1.139211
463.60 1.138823
463.70 1.138435
463.80 1.138047
463.90 1.137648
464.00 1.137245
464.10 1.136843
464.20 1.136442
464.30 1.13604
464.40 1.135639
464.50 1.135238
464.60 1.134837
464.70 1.134457
464.80 1.134085
464.90 1.133713
465.00 1.133342
465.10 1.132971
465.20 1.1326
465.30 1.132196
465.40 1.131771
465.50 1.131345
465.60 1.13092
465.70 1.130496
465.80 1.130071
465.90 1.129668
466.00 1.129269
466.10 1.128871
466.20 1.128473
466.30 1.128089
466.40 1.127712
466.50 1.127334
466.60 1.126956
466.70 1.126579
466.80 1.126202
466.90 1.125825
467.00 1.125449
467.10 1.125072
467.20 1.124696
467.30 1.124246
467.40 1.12382
467.50 1.123408
467.60 1.122997
467.70 1.122585
467.80 1.122174
467.90 1.121777
468.00 1.121385
468.10 1.120993
468.20 1.120602
468.30 1.120273
468.40 1.11997
468.50 1.119542
468.60 1.119065
468.70 1.118858
468.80 1.118459
468.90 1.117982
469.00 1.117505
469.10 1.117091
469.20 1.116702
469.30 1.116313
469.40 1.115925
469.50 1.115528
469.60 1.115128
469.70 1.114728
469.80 1.114329
469.90 1.113924
470.00 1.113705
470.10 1.113373
470.20 1.112971
470.30 1.112568
470.40 1.112166
470.50 1.111763
470.60 1.111374
470.70 1.110989
470.80 1.110603
470.90 1.110218
471.00 1.109764
471.10 1.109293
471.20 1.108822
471.30 1.108697
471.40 1.108227
471.50 1.107757
471.60 1.107425
471.70 1.107128
471.80 1.106762
471.90 1.106379
472.00 1.105997
472.10 1.105614
472.20 1.105217
472.30 1.104817
472.40 1.104417
472.50 1.104017
472.60 1.103617
472.70 1.10317
472.80 1.102758
472.90 1.10236
473.00 1.101963
473.10 1.101566
473.20 1.101168
473.30 1.100772
473.40 1.100375
473.50 1.099979
473.60 1.099583
473.70 1.099187
473.80 1.098804
473.90 1.098423
474.00 1.098043
474.10 1.097664
474.20 1.097278
474.30 1.096889
474.40 1.0965
474.50 1.096112
474.60 1.095725
474.70 1.095357
474.80 1.094989
474.90 1.094621
475.00 1.094254
475.10 1.093886
475.20 1.093519
475.30 1.093152
475.40 1.092745
475.50 1.092327
475.60 1.09191
475.70 1.091493
475.80 1.091076
475.90 1.090659
476.00 1.090243
476.10 1.089827
476.20 1.089451
476.30 1.089091
476.40 1.088732
476.50 1.088373
476.60 1.088014
476.70 1.087655
476.80 1.087297
476.90 1.086905
477.00 1.086505
477.10 1.086106
477.20 1.085706
477.30 1.085307
477.40 1.084909
477.50 1.08451
477.60 1.084112
477.70 1.083714
477.80 1.083316
477.90 1.082918
478.00 1.082521
478.10 1.082124
478.20 1.081727
478.30 1.08133
478.40 1.080934
478.50 1.080537
478.60 1.080141
478.70 1.079831
478.80 1.079555
478.90 1.079191
479.00 1.078805
479.10 1.078419
479.20 1.078034
479.30 1.077649
479.40 1.077259
479.50 1.076866
479.60 1.076474
479.70 1.076082
479.80 1.07569
479.90 1.075299
480.00 1.074907
480.10 1.074516
480.20 1.074126
480.30 1.073735
480.40 1.073344
480.50 1.072954
480.60 1.072564
480.70 1.072175
480.80 1.071785
480.90 1.071396
481.00 1.071007
481.10 1.070618
481.20 1.070234
481.30 1.06985
481.40 1.069466
481.50 1.069082
481.60 1.068699
481.70 1.068316
481.80 1.067933
481.90 1.06755
482.00 1.067168
482.10 1.066785
482.20 1.066404
482.30 1.066032
482.40 1.06566
482.50 1.065289
482.60 1.064918
482.70 1.064547
482.80 1.064176
482.90 1.063806
483.00 1.063435
483.10 1.063065
483.20 1.062695
483.30 1.062325
483.40 1.061956
483.50 1.061587
483.60 1.061218
483.70 1.060841
483.80 1.060464
483.90 1.060088
484.00 1.059712
484.10 1.059336
484.20 1.058957
484.30 1.058578
484.40 1.058199
484.50 1.05782
484.60 1.057442
484.70 1.057062
484.80 1.056662
484.90 1.056262
485.00 1.055863
485.10 1.055463
485.20 1.055064
485.30 1.054665
485.40 1.054267
485.50 1.053868
485.60 1.05347
485.70 1.053096
485.80 1.052722
485.90 1.052348
486.00 1.051975
486.10 1.051601
486.20 1.051228
486.30 1.050855
486.40 1.050482
486.50 1.05011
486.60 1.049738
486.70 1.049367
486.80 1.049015
486.90 1.048664
487.00 1.048313
487.10 1.047962
487.20 1.047561
487.30 1.047161
487.40 1.046761
487.50 1.046361
487.60 1.045962
487.70 1.045562
487.80 1.045163
487.90 1.044764
488.00 1.044365
488.10 1.043967
488.20 1.043571
488.30 1.043207
488.40 1.042844
488.50 1.04248
488.60 1.042117
488.70 1.041754
488.80 1.041446
488.90 1.041138
489.00 1.040809
489.10 1.040428
489.20 1.040046
489.30 1.039665
489.40 1.039284
489.50 1.038904
489.60 1.038523
489.70 1.038143
489.80 1.037724
489.90 1.037363
490.00 1.037003
490.10 1.036643
490.20 1.036283
490.30 1.035923
490.40 1.035501
490.50 1.035078
490.60 1.034657
490.70 1.034235
490.80 1.033834
490.90 1.033711
491.00 1.03329
491.10 1.032869
491.20 1.032448
491.30 1.032028
491.40 1.031629
491.50 1.031506
491.60 1.031086
491.70 1.030667
491.80 1.030248
491.90 1.029829
492.00 1.029411
492.10 1.028992
492.20 1.02876
492.30 1.028473
492.40 1.028055
492.50 1.027638
492.60 1.027226
492.70 1.026888
492.80 1.02655
492.90 1.026213
493.00 1.02587
493.10 1.025454
493.20 1.025038
493.30 1.024623
493.40 1.024207
493.50 1.023792
493.60 1.023386
493.70 1.023089
493.80 1.022792
493.90 1.022449
494.00 1.022035
494.10 1.021641
494.20 1.021287
494.30 1.020934
494.40 1.020581
494.50 1.020228
494.60 1.019871
494.70 1.019458
494.80 1.019046
494.90 1.018635
495.00 1.018223
495.10 1.017812
495.20 1.017465
495.30 1.017119
495.40 1.016773
495.50 1.016427
495.60 1.016082
495.70 1.015736
495.80 1.015391
495.90 1.015046
496.00 1.014701
496.10 1.014336
496.20 1.013927
496.30 1.013519
496.40 1.01311
496.50 1.012702
496.60 1.012295
496.70 1.011933
496.80 1.011572
496.90 1.011211
497.00 1.01085
497.10 1.010489
497.20 1.010129
497.30 1.009784
497.40 1.009484
497.50 1.009184
497.60 1.00885
497.70 1.008447
497.80 1.008076
497.90 1.007705
498.00 1.007334
498.10 1.006964
498.20 1.006594
498.30 1.006224
498.40 1.005854
498.50 1.005485
498.60 1.005116
498.70 1.004712
498.80 1.00431
498.90 1.003907
499.00 1.003505
499.10 1.003103
499.20 1.002794
499.30 1.002607
499.40 1.002206
499.50 1.001804
499.60 1.001403
499.70 1.001007
499.80 1.000671
499.90 1.000335
500.00 1
500.10 0.9996647
500.20 0.9993089
500.30 0.9989095
500.40 0.9985103
500.50 0.9981113
500.60 0.9977126
500.70 0.9973141
500.80 0.9969453
500.90 0.9966394
501.00 0.9963337
501.10 0.9960281
501.20 0.9956307
501.30 0.9952335
501.40 0.9948365
501.50 0.9944398
501.60 0.9940434
501.70 0.9936471
501.80 0.9932999
501.90 0.9930564
502.00 0.9927643
502.10 0.9923689
502.20 0.9919737
502.30 0.9915788
502.40 0.9912003
502.50 0.9908565
502.60 0.9905128
502.70 0.9901694
502.80 0.9898261
502.90 0.9894831
503.00 0.9891241
503.10 0.9887309
503.20 0.988338
503.30 0.9879453
503.40 0.9875528
503.50 0.9871605
503.60 0.9867685
503.70 0.9863768
503.80 0.9860054
503.90 0.9857819
504.00 0.9855049
504.10 0.9851139
504.20 0.9847232
504.30 0.9843327
504.40 0.9839425
504.50 0.9835524
504.60 0.9831626
504.70 0.9827731
504.80 0.9823837
504.90 0.9820398
505.00 0.9819066
505.10 0.9815178
505.20 0.9811293
505.30 0.980741
505.40 0.9803529
505.50 0.9799651
505.60 0.9795934
505.70 0.9792555
505.80 0.9789178
505.90 0.9785803
506.00 0.978243
506.10 0.9779059
506.20 0.9775561
506.30 0.97717
506.40 0.9767841
506.50 0.9763984
506.60 0.976013
506.70 0.9756278
506.80 0.9752428
506.90 0.9748581
507.00 0.9744735
507.10 0.9741793
507.20 0.9740082
507.30 0.9736429
507.40 0.9732778
507.50 0.9729129
507.60 0.9725482
507.70 0.9721837
507.80 0.9718195
507.90 0.9714554
508.00 0.9710916
508.10 0.9707279
508.20 0.9703645
508.30 0.9700013
508.40 0.9696383
508.50 0.9692755
508.60 0.9689129
508.70 0.9685506
508.80 0.9681836
508.90 0.9678031
509.00 0.9674229
509.10 0.9670507
509.20 0.9666955
509.30 0.9663404
509.40 0.9659855
509.50 0.9656309
509.60 0.9652765
509.70 0.9649222
509.80 0.9645682
509.90 0.9642144
510.00 0.9638607
510.10 0.9635073
510.20 0.9631541
510.30 0.9628006
510.40 0.9624461
510.50 0.9620919
510.60 0.9617378
510.70 0.9613839
510.80 0.9610303
510.90 0.9606768
511.00 0.9603236
511.10 0.9599705
511.20 0.9596177
511.30 0.959265
511.40 0.9589126
511.50 0.9585603
511.60 0.958201
511.70 0.9578265
511.80 0.9574523
511.90 0.9570782
512.00 0.9567044
512.10 0.9563308
512.20 0.9559574
512.30 0.9555935
512.40 0.9552562
512.50 0.9549191
512.60 0.9545822
512.70 0.9542454
512.80 0.9539089
512.90 0.9535725
513.00 0.9532363
513.10 0.9529003
513.20 0.9525645
513.30 0.9522289
513.40 0.9518935
513.50 0.9515583
513.60 0.9512232
513.70 0.9508884
513.80 0.9505537
513.90 0.9502193
514.00 0.9498642
514.10 0.949506
514.20 0.949148
514.30 0.9487903
514.40 0.9484327
514.50 0.9480753
514.60 0.9477182
514.70 0.9473612
514.80 0.9470045
514.90 0.9466479
515.00 0.9462916
515.10 0.9459354
515.20 0.9455795
515.30 0.9452238
515.40 0.9448683
515.50 0.9445129
515.60 0.9441578
515.70 0.9438029
515.80 0.9434482
515.90 0.9430937
516.00 0.9427394
516.10 0.9423854
516.20 0.9420315
516.30 0.9416778
516.40 0.9413243
516.50 0.940971
516.60 0.940618
516.70 0.9402651
516.80 0.9399124
516.90 0.93956
517.00 0.9392077
517.10 0.9388557
517.20 0.9385038
517.30 0.9381522
517.40 0.9378007
517.50 0.9374495
517.60 0.9370984
517.70 0.9367476
517.80 0.9363969
517.90 0.9360465
518.00 0.9356962
518.10 0.9353462
518.20 0.9349963
518.30 0.9346467
518.40 0.9342973
518.50 0.933948
518.60 0.933599
518.70 0.9332501
518.80 0.9329015
518.90 0.932553
519.00 0.9322048
519.10 0.9318567
519.20 0.9315087
519.30 0.931161
519.40 0.9308134
519.50 0.9304661
519.60 0.9301189
519.70 0.9297719
519.80 0.9294252
519.90 0.9290786
520.00 0.9287322
520.10 0.928386
520.20 0.9280401
520.30 0.9276943
520.40 0.9273487
520.50 0.9270033
520.60 0.9266581
520.70 0.9263131
520.80 0.9259683
520.90 0.9256237
521.00 0.9252793
521.10 0.9249351
521.20 0.9245911
521.30 0.9242473
521.40 0.9239037
521.50 0.9235603
521.60 0.923217
521.70 0.922874
521.80 0.9225312
521.90 0.9221885
522.00 0.9218461
522.10 0.9215038
522.20 0.9211618
522.30 0.9208199
522.40 0.9204782
522.50 0.9201368
522.60 0.9197955
522.70 0.9194544
522.80 0.9191135
522.90 0.9187728
523.00 0.9184323
523.10 0.918092
523.20 0.9177519
523.30 0.9174119
523.40 0.9170722
523.50 0.9167327
523.60 0.9163933
523.70 0.9160541
523.80 0.9157152
523.90 0.9153764
524.00 0.9150378
524.10 0.9146994
524.20 0.9143612
524.30 0.9140202
524.40 0.9136769
524.50 0.9133339
524.60 0.9129911
524.70 0.9126484
524.80 0.9123059
524.90 0.9119637
525.00 0.9116216
525.10 0.9112797
525.20 0.910938
525.30 0.9105965
525.40 0.9102553
525.50 0.9099141
525.60 0.9095732
525.70 0.9092325
525.80 0.908892
525.90 0.9085517
526.00 0.9082115
526.10 0.9078716
526.20 0.9075319
526.30 0.9071923
526.40 0.9068529
526.50 0.9065138
526.60 0.9061748
526.70 0.905836
526.80 0.9054974
526.90 0.905159
527.00 0.9048208
527.10 0.9044828
527.20 0.9041449
527.30 0.9038073
527.40 0.9034699
527.50 0.9031326
527.60 0.9027955
527.70 0.9024587
527.80 0.902122
527.90 0.9017855
528.00 0.9014492
528.10 0.9011131
528.20 0.9007771
528.30 0.9004414
528.40 0.9001059
528.50 0.8997705
528.60 0.8994353
528.70 0.8991004
528.80 0.8987656
528.90 0.898431
529.00 0.8980966
529.10 0.8977624
529.20 0.8974283
529.30 0.8970945
529.40 0.8967608
529.50 0.8964281
529.60 0.8960999
529.70 0.8957719
529.80 0.8954441
529.90 0.8951165
530.00 0.8947891
530.10 0.8944618
530.20 0.8941347
530.30 0.8938079
530.40 0.8934812
530.50 0.8931546
530.60 0.8928283
530.70 0.8925022
530.80 0.8921762
530.90 0.8918504
531.00 0.8915248
531.10 0.8911994
531.20 0.8908741
531.30 0.8905491
531.40 0.8902242
531.50 0.8898995
531.60 0.889575
531.70 0.8892506
531.80 0.8889265
531.90 0.8886025
532.00 0.8882787
532.10 0.8879551
532.20 0.8876249
532.30 0.8872914
532.40 0.8869582
532.50 0.8866251
532.60 0.8862921
532.70 0.8859594
532.80 0.8856269
532.90 0.8852945
533.00 0.8849624
533.10 0.8846304
533.20 0.8842986
533.30 0.883967
533.40 0.8836356
533.50 0.8833044
533.60 0.8829733
533.70 0.8826425
533.80 0.8823118
533.90 0.8819813
534.00 0.881651
534.10 0.8813209
534.20 0.880991
534.30 0.8806612
534.40 0.8803317
534.50 0.8800023
534.60 0.8796731
534.70 0.8793441
534.80 0.8790143
534.90 0.8786807
535.00 0.8783472
535.10 0.878014
535.20 0.8776809
535.30 0.877348
535.40 0.8770153
535.50 0.8766827
535.60 0.8763504
535.70 0.8760183
535.80 0.8756863
535.90 0.8753545
536.00 0.8750229
536.10 0.8746915
536.20 0.8743603
536.30 0.8740293
536.40 0.8736984
536.50 0.8733678
536.60 0.8730373
536.70 0.872707
536.80 0.8723769
536.90 0.872047
537.00 0.8717173
537.10 0.8713877
537.20 0.8710584
537.30 0.8707292
537.40 0.8704002
537.50 0.8700714
537.60 0.8697428
537.70 0.8694144
537.80 0.8690861
537.90 0.868758
538.00 0.8684302
538.10 0.8681025
538.20 0.8677749
538.30 0.8674476
538.40 0.8671205
538.50 0.8667935
538.60 0.8664667
538.70 0.8661401
538.80 0.8658137
538.90 0.8654874
539.00 0.8651614
539.10 0.8648355
539.20 0.8645098
539.30 0.8641843
539.40 0.863859
539.50 0.8635339
539.60 0.8632089
539.70 0.8628841
539.80 0.8625595
539.90 0.8622351
540.00 0.8619109
540.10 0.8615868
540.20 0.861263
540.30 0.8609393
540.40 0.8606159
540.50 0.8602926
540.60 0.8599695
540.70 0.8596465
540.80 0.8593238
540.90 0.8590012
541.00 0.8586789
541.10 0.8583566
541.20 0.8580346
541.30 0.8577128
541.40 0.8573911
541.50 0.8570696
541.60 0.8567483
541.70 0.8564272
541.80 0.8561062
541.90 0.8557855
542.00 0.8554649
542.10 0.8551444
542.20 0.8548242
542.30 0.8545041
542.40 0.8541843
542.50 0.8538646
542.60 0.853545
542.70 0.8532257
542.80 0.8529065
542.90 0.8525875
543.00 0.8522687
543.10 0.8519501
543.20 0.8516316
543.30 0.8513133
543.40 0.8509952
543.50 0.8506773
543.60 0.8503595
543.70 0.8500419
543.80 0.8497245
543.90 0.8494073
544.00 0.8490902
544.10 0.8487734
544.20 0.8484567
544.30 0.8481401
544.40 0.8478238
544.50 0.8475076
544.60 0.8471916
544.70 0.8468758
544.80 0.8465601
544.90 0.8462447
545.00 0.8459294
545.10 0.8456142
545.20 0.8452993
545.30 0.8449845
545.40 0.8446699
545.50 0.8443555
545.60 0.8440379
545.70 0.8437192
545.80 0.8434006
545.90 0.8430822
546.00 0.842764
546.10 0.8424459
546.20 0.842128
546.30 0.8418103
546.40 0.8414928
546.50 0.8411755
546.60 0.8408583
546.70 0.8405413
546.80 0.8402245
546.90 0.8399078
547.00 0.8395914
547.10 0.8392751
547.20 0.838959
547.30 0.838643
547.40 0.8383273
547.50 0.8380117
547.60 0.8376963
547.70 0.837381
547.80 0.8370659
547.90 0.836751
548.00 0.8364363
548.10 0.8361218
548.20 0.8358074
548.30 0.8354932
548.40 0.8351792
548.50 0.8348653
548.60 0.8345516
548.70 0.8342381
548.80 0.8339248
548.90 0.8336116
549.00 0.8332986
549.10 0.8329858
549.20 0.8326732
549.30 0.8323607
549.40 0.8320484
549.50 0.8317363
549.60 0.8314243
549.70 0.8311125
549.80 0.8308009
549.90 0.8304895
550.00 0.8301782
550.10 0.8298671
550.20 0.8295562
550.30 0.8292454
550.40 0.8289349
550.50 0.8286244
550.60 0.8283142
550.70 0.8280041
550.80 0.8276942
550.90 0.8273845
551.00 0.8270736
551.10 0.8267551
551.20 0.8264368
551.30 0.8261187
551.40 0.8258008
551.50 0.825483
551.60 0.8251654
551.70 0.824848
551.80 0.8245308
551.90 0.8242137
552.00 0.8238969
552.10 0.8235802
552.20 0.8232636
552.30 0.8229473
552.40 0.8226311
552.50 0.8223151
552.60 0.8219993
552.70 0.8216836
552.80 0.8213681
552.90 0.8210528
553.00 0.8207377
553.10 0.8204227
553.20 0.820108
553.30 0.8197934
553.40 0.8194789
553.50 0.8191647
553.60 0.8188506
553.70 0.8185367
553.80 0.8182284
553.90 0.8179239
554.00 0.8176195
554.10 0.8173154
554.20 0.8170114
554.30 0.8167076
554.40 0.8164039
554.50 0.8161004
554.60 0.8157971
554.70 0.8154939
554.80 0.8151909
554.90 0.8148881
555.00 0.8145854
555.10 0.8142829
555.20 0.8139806
555.30 0.8136784
555.40 0.8133764
555.50 0.8130746
555.60 0.8127729
555.70 0.8124714
555.80 0.81217
555.90 0.8118688
556.00 0.8115678
556.10 0.811267
556.20 0.8109663
556.30 0.8106657
556.40 0.8103654
556.50 0.8100647
556.60 0.8097559
556.70 0.8094472
556.80 0.8091387
556.90 0.8088303
557.00 0.8085222
557.10 0.8082142
557.20 0.8079063
557.30 0.8075987
557.40 0.8072912
557.50 0.8069838
557.60 0.8066767
557.70 0.8063697
557.80 0.8060629
557.90 0.8057562
558.00 0.8054497
558.10 0.8051434
558.20 0.8048373
558.30 0.8045313
558.40 0.8042255
558.50 0.8039198
558.60 0.8036143
558.70 0.803309
558.80 0.8030039
558.90 0.8026989
559.00 0.8023941
559.10 0.8020894
559.20 0.801785
559.30 0.8014807
559.40 0.8011765
559.50 0.8008725
559.60 0.8005687
559.70 0.8002651
559.80 0.7999616
559.90 0.7996583
560.00 0.7993551
560.10 0.7990521
560.20 0.7987493
560.30 0.7984467
560.40 0.7981442
560.50 0.7978418
560.60 0.7975397
560.70 0.7972377
560.80 0.7969359
560.90 0.7966342
561.00 0.7963327
561.10 0.7960314
561.20 0.7957302
561.30 0.7954292
561.40 0.7951283
561.50 0.7948276
561.60 0.7945271
561.70 0.7942268
561.80 0.7939266
561.90 0.7936266
562.00 0.7933267
562.10 0.7930271
562.20 0.7927277
562.30 0.7924285
562.40 0.7921295
562.50 0.7918306
562.60 0.7915319
562.70 0.7912333
562.80 0.790935
562.90 0.7906367
563.00 0.7903387
563.10 0.7900408
563.20 0.789743
563.30 0.7894455
563.40 0.789148
563.50 0.7888508
563.60 0.7885537
563.70 0.7882568
563.80 0.78796
563.90 0.7876634
564.00 0.7873669
564.10 0.7870706
564.20 0.7867745
564.30 0.7864786
564.40 0.7861827
564.50 0.7858871
564.60 0.7855916
564.70 0.7852963
564.80 0.7850011
564.90 0.7847036
565.00 0.7844002
565.10 0.784097
565.20 0.7837939
565.30 0.783491
565.40 0.7831883
565.50 0.7828857
565.60 0.7825833
565.70 0.782281
565.80 0.7819789
565.90 0.781677
566.00 0.7813753
566.10 0.7810737
566.20 0.7807723
566.30 0.780471
566.40 0.7801699
566.50 0.779869
566.60 0.7795682
566.70 0.7792676
566.80 0.7789672
566.90 0.7786669
567.00 0.7783668
567.10 0.7780668
567.20 0.777767
567.30 0.7774674
567.40 0.7771679
567.50 0.7768686
567.60 0.7765695
567.70 0.7762714
567.80 0.775977
567.90 0.7756828
568.00 0.7753887
568.10 0.7750949
568.20 0.7748011
568.30 0.7745076
568.40 0.7742141
568.50 0.7739209
568.60 0.7736278
568.70 0.7733349
568.80 0.7730421
568.90 0.7727495
569.00 0.772457
569.10 0.7721647
569.20 0.7718725
569.30 0.7715805
569.40 0.7712887
569.50 0.770997
569.60 0.7707055
569.70 0.7704142
569.80 0.770123
569.90 0.7698319
570.00 0.769541
570.10 0.7692503
570.20 0.7689597
570.30 0.7686693
570.40 0.768379
570.50 0.7680889
570.60 0.767799
570.70 0.7675092
570.80 0.7672195
570.90 0.76693
571.00 0.7666407
571.10 0.7663515
571.20 0.7660625
571.30 0.7657737
571.40 0.765485
571.50 0.7651964
571.60 0.764908
571.70 0.7646198
571.80 0.7643317
571.90 0.7640438
572.00 0.763756
572.10 0.7634684
572.20 0.7631809
572.30 0.7628936
572.40 0.7626064
572.50 0.7623194
572.60 0.7620326
572.70 0.7617459
572.80 0.7614593
572.90 0.7611729
573.00 0.7608867
573.10 0.7606006
573.20 0.7603147
573.30 0.7600289
573.40 0.7597426
573.50 0.7594555
573.60 0.7591685
573.70 0.7588817
573.80 0.758595
573.90 0.7583085
574.00 0.7580222
574.10 0.757736
574.20 0.7574499
574.30 0.757164
574.40 0.7568783
574.50 0.7565927
574.60 0.7563073
574.70 0.756022
574.80 0.7557369
574.90 0.7554519
575.00 0.7551671
575.10 0.7548824
575.20 0.7545979
575.30 0.7543135
575.40 0.7540293
575.50 0.7537453
575.60 0.7534614
575.70 0.7531776
575.80 0.752894
575.90 0.7526105
576.00 0.7523272
576.10 0.7520441
576.20 0.7517611
576.30 0.7514782
576.40 0.7511955
576.50 0.750913
576.60 0.7506306
576.70 0.7503484
576.80 0.7500663
576.90 0.7497843
577.00 0.7495025
577.10 0.7492209
577.20 0.7489394
577.30 0.748658
577.40 0.7483769
577.50 0.7480958
577.60 0.7478118
577.70 0.7475229
577.80 0.7472341
577.90 0.7469454
578.00 0.746657
578.10 0.7463687
578.20 0.7460805
578.30 0.7457925
578.40 0.7455046
578.50 0.7452169
578.60 0.7449294
578.70 0.744642
578.80 0.7443547
578.90 0.7440677
579.00 0.7437807
579.10 0.7434945
579.20 0.7432143
579.30 0.7429342
579.40 0.7426542
579.50 0.7423744
579.60 0.7420947
579.70 0.7418152
579.80 0.7415358
579.90 0.7412566
580.00 0.7409775
580.10 0.7406989
580.20 0.7404208
580.30 0.7401428
580.40 0.739865
580.50 0.7395874
580.60 0.7393099
580.70 0.7390325
580.80 0.7387553
580.90 0.7384783
581.00 0.7382013
581.10 0.7379246
581.20 0.7376479
581.30 0.7373715
581.40 0.7370951
581.50 0.736819
581.60 0.7365429
581.70 0.736267
581.80 0.7359913
581.90 0.7357157
582.00 0.7354402
582.10 0.7351621
582.20 0.7348794
582.30 0.7345968
582.40 0.7343144
582.50 0.7340322
582.60 0.7337501
582.70 0.7334681
582.80 0.7331863
582.90 0.7329047
583.00 0.7326232
583.10 0.7323418
583.20 0.7320606
583.30 0.7317796
583.40 0.7314987
583.50 0.7312179
583.60 0.7309422
583.70 0.7306748
583.80 0.7304074
583.90 0.7301402
584.00 0.7298731
584.10 0.7296062
584.20 0.7293394
584.30 0.7290728
584.40 0.7288063
584.50 0.7285399
584.60 0.7282737
584.70 0.7280076
584.80 0.7277416
584.90 0.7274645
585.00 0.7271357
585.10 0.7268071
585.20 0.7265007
585.30 0.72623
585.40 0.7259595
585.50 0.7256892
585.60 0.725419
585.70 0.725149
585.80 0.7248791
585.90 0.7246093
586.00 0.7243397
586.10 0.7240702
586.20 0.7237952
586.30 0.7235111
586.40 0.7232272
586.50 0.7229434
586.60 0.7226598
586.70 0.7223763
586.80 0.7221071
586.90 0.721861
587.00 0.7216151
587.10 0.7213693
587.20 0.7211236
587.30 0.7208781
587.40 0.7206326
587.50 0.7202873
587.60 0.71992
587.70 0.719675
587.80 0.7194301
587.90 0.7191854
588.00 0.7189197
588.10 0.7186198
588.20 0.7183201
588.30 0.7180205
588.40 0.7177421
588.50 0.7174982
588.60 0.7172544
588.70 0.7170107
588.80 0.7167672
588.90 0.7165238
589.00 0.7162637
589.10 0.7159763
589.20 0.7156891
589.30 0.7154021
589.40 0.7151152
589.50 0.7148284
589.60 0.7145418
589.70 0.7142554
589.80 0.7139691
589.90 0.713683
590.00 0.7134028
590.10 0.7131324
590.20 0.7128621
590.30 0.712592
590.40 0.712322
590.50 0.7120522
590.60 0.7117824
590.70 0.7115129
590.80 0.7112449
590.90 0.7109778
591.00 0.7107108
591.10 0.7104439
591.20 0.7101771
591.30 0.7099106
591.40 0.7096441
591.50 0.7093778
591.60 0.7091105
591.70 0.7088416
591.80 0.7085729
591.90 0.7083043
592.00 0.7080358
592.10 0.7077675
592.20 0.7074994
592.30 0.7072313
592.40 0.7069634
592.50 0.7066957
592.60 0.706428
592.70 0.7061606
592.80 0.7058932
592.90 0.705626
593.00 0.705359
593.10 0.7050948
593.20 0.7048353
593.30 0.704576
593.40 0.7043167
593.50 0.7040576
593.60 0.7037986
593.70 0.7035398
593.80 0.7032811
593.90 0.7030225
594.00 0.7027641
594.10 0.7025058
594.20 0.7022477
594.30 0.7019896
594.40 0.7017317
594.50 0.701474
594.60 0.7012163
594.70 0.7009588
594.80 0.7007015
594.90 0.7004443
595.00 0.7001872
595.10 0.6999228
595.20 0.6996464
595.30 0.6993701
595.40 0.699094
595.50 0.6988181
595.60 0.6985423
595.70 0.6982666
595.80 0.6979911
595.90 0.6977157
596.00 0.6974405
596.10 0.6971654
596.20 0.6968905
596.30 0.6966157
596.40 0.696341
596.50 0.6960665
596.60 0.6957922
596.70 0.6955289
596.80 0.6952726
596.90 0.6950163
597.00 0.6947602
597.10 0.6945042
597.20 0.6942484
597.30 0.6939927
597.40 0.6937371
597.50 0.6934816
597.60 0.6932211
597.70 0.692952
597.80 0.6926832
597.90 0.6924144
598.00 0.6921458
598.10 0.6918774
598.20 0.6916091
598.30 0.6913409
598.40 0.6910729
598.50 0.690805
598.60 0.6905373
598.70 0.6902697
598.80 0.6900022
598.90 0.6897349
599.00 0.6894677
599.10 0.6892006
599.20 0.6889337
599.30 0.688667
599.40 0.6884159
599.50 0.6881649
599.60 0.687914
599.70 0.6876633
599.80 0.6874127
599.90 0.6871622
600.00 0.6869119
600.10 0.6866616
600.20 0.6864115
600.30 0.6861616
600.40 0.6859118
600.50 0.6856621
600.60 0.6854125
600.70 0.685163
600.80 0.6849137
600.90 0.6846645
601.00 0.6844155
601.10 0.6841665
601.20 0.6839177
601.30 0.683669
601.40 0.6834092
601.50 0.6831495
601.60 0.6828899
601.70 0.6826305
601.80 0.6823711
601.90 0.682112
602.00 0.6818529
602.10 0.681594
602.20 0.6813353
602.30 0.6810766
602.40 0.6808181
602.50 0.6805597
602.60 0.6803015
602.70 0.6799713
602.80 0.6796374
602.90 0.6793856
603.00 0.6791339
603.10 0.6788823
603.20 0.6786309
603.30 0.6783796
603.40 0.6781284
603.50 0.6778774
603.60 0.6776265
603.70 0.6773757
603.80 0.677125
603.90 0.6768745
604.00 0.6766241
604.10 0.6763738
604.20 0.6761237
604.30 0.6758737
604.40 0.6756238
604.50 0.6753583
604.60 0.6750929
604.70 0.6748277
604.80 0.6745626
604.90 0.6742977
605.00 0.6740329
605.10 0.6737682
605.20 0.6735036
605.30 0.6732393
605.40 0.672975
605.50 0.6727178
605.60 0.6724608
605.70 0.672204
605.80 0.6719472
605.90 0.6716906
606.00 0.6714341
606.10 0.6712126
606.20 0.6709911
606.30 0.6707698
606.40 0.6705486
606.50 0.6702232
606.60 0.669898
606.70 0.6696772
606.80 0.6694565
606.90 0.6692359
607.00 0.6690154
607.10 0.668691
607.20 0.6683667
607.30 0.6681466
607.40 0.6679266
607.50 0.6677067
607.60 0.667487
607.70 0.6672327
607.80 0.6669785
607.90 0.6667245
608.00 0.6664706
608.10 0.6662169
608.20 0.6659632
608.30 0.6656962
608.40 0.6654293
608.50 0.6651625
608.60 0.6648959
608.70 0.6646374
608.80 0.6643827
608.90 0.6641282
609.00 0.6638737
609.10 0.6636194
609.20 0.6633652
609.30 0.6631217
609.40 0.6628782
609.50 0.6626349
609.60 0.6623917
609.70 0.6621487
609.80 0.6619057
609.90 0.6616629
610.00 0.6614202
610.10 0.6611777
610.20 0.6609352
610.30 0.6606929
610.40 0.6604507
610.50 0.6602086
610.60 0.6599667
610.70 0.6597248
610.80 0.6594831
610.90 0.6592261
611.00 0.6589693
611.10 0.6587125
611.20 0.6584559
611.30 0.6581994
611.40 0.6579431
611.50 0.6576869
611.60 0.6574308
611.70 0.6571749
611.80 0.6569191
611.90 0.6566634
612.00 0.6564079
612.10 0.6561524
612.20 0.6558972
612.30 0.655642
612.40 0.6553972
612.50 0.6551526
612.60 0.654908
612.70 0.6546636
612.80 0.6544193
612.90 0.6541751
613.00 0.6539311
613.10 0.6536872
613.20 0.6534434
613.30 0.6531997
613.40 0.6529562
613.50 0.6527128
613.60 0.6524695
613.70 0.6522263
613.80 0.6519832
613.90 0.6517403
614.00 0.6514975
614.10 0.6512548
614.20 0.6510123
614.30 0.6507699
614.40 0.6505093
614.50 0.6502489
614.60 0.6499886
614.70 0.6497284
614.80 0.6494765
614.90 0.6492263
615.00 0.6489762
615.10 0.6487263
615.20 0.6484765
615.30 0.6482268
615.40 0.6479772
615.50 0.6477278
615.60 0.6474785
615.70 0.6472293
615.80 0.6469803
615.90 0.6467314
616.00 0.6464826
616.10 0.6462339
616.20 0.6459854
616.30 0.645737
616.40 0.6454887
616.50 0.6452406
616.60 0.6449926
616.70 0.6447447
616.80 0.6444969
616.90 0.6442532
617.00 0.6440097
617.10 0.6437663
617.20 0.643523
617.30 0.6432799
617.40 0.6430368
617.50 0.6427939
617.60 0.6425511
617.70 0.6423085
617.80 0.6420659
617.90 0.6418235
618.00 0.6415812
618.10 0.6413391
618.20 0.641097
618.30 0.6408551
618.40 0.6406133
618.50 0.6403716
618.60 0.64013
618.70 0.6398886
618.80 0.6396473
618.90 0.6394061
619.00 0.6391651
619.10 0.6389241
619.20 0.6386833
619.30 0.6384426
619.40 0.638202
619.50 0.6379616
619.60 0.6377212
619.70 0.637481
619.80 0.6372409
619.90 0.637001
620.00 0.6367611
620.10 0.6365214
620.20 0.6362818
620.30 0.6360423
620.40 0.635803
620.50 0.6355637
620.60 0.6353246
620.70 0.6350856
620.80 0.6348467
620.90 0.6346076
621.00 0.634368
621.10 0.6341285
621.20 0.6338892
621.30 0.6336499
621.40 0.6334108
621.50 0.6331718
621.60 0.6329329
621.70 0.6326942
621.80 0.6324555
621.90 0.632217
622.00 0.6319786
622.10 0.6317403
622.20 0.6315022
622.30 0.6312641
622.40 0.6310262
622.50 0.6307884
622.60 0.6305507
622.70 0.6303132
622.80 0.6300757
622.90 0.6298384
623.00 0.6296012
623.10 0.6293641
623.20 0.6291272
623.30 0.6288903
623.40 0.6286536
623.50 0.628417
623.60 0.6281805
623.70 0.6279442
623.80 0.6277079
623.90 0.6274718
624.00 0.6272358
624.10 0.6269999
624.20 0.6267642
624.30 0.6265285
624.40 0.626293
624.50 0.6260576
624.60 0.6258223
624.70 0.6255871
624.80 0.6253521
624.90 0.6251171
625.00 0.6248823
625.10 0.6246476
625.20 0.624413
625.30 0.6241786
625.40 0.6239442
625.50 0.62371
625.60 0.6234759
625.70 0.6232419
625.80 0.623008
625.90 0.6227743
626.00 0.6225406
626.10 0.6223071
626.20 0.6220737
626.30 0.6218404
626.40 0.6216073
626.50 0.6213742
626.60 0.6211413
626.70 0.6209085
626.80 0.6206758
626.90 0.6204432
627.00 0.6202107
627.10 0.6199776
627.20 0.6197426
627.30 0.6195077
627.40 0.619273
627.50 0.6190383
627.60 0.6188038
627.70 0.6185694
627.80 0.6183351
627.90 0.6181009
628.00 0.6178668
628.10 0.6176329
628.20 0.617399
628.30 0.6171653
628.40 0.6169317
628.50 0.6166983
628.60 0.6164649
628.70 0.6162317
628.80 0.6159985
628.90 0.6157655
629.00 0.6155327
629.10 0.6152999
629.20 0.6150672
629.30 0.6148347
629.40 0.6146023
629.50 0.61437
629.60 0.6141378
629.70 0.6139057
629.80 0.6136738
629.90 0.6134419
630.00 0.6132102
630.10 0.6129786
630.20 0.6127471
630.30 0.6125157
630.40 0.6122845
630.50 0.6120534
630.60 0.6118223
630.70 0.6115914
630.80 0.6113607
630.90 0.61113
631.00 0.6108994
631.10 0.610669
631.20 0.6104387
631.30 0.6102085
631.40 0.6099784
631.50 0.6097484
631.60 0.6095185
631.70 0.6092888
631.80 0.6090592
631.90 0.6088297
632.00 0.6086003
632.10 0.608371
632.20 0.6081418
632.30 0.6079127
632.40 0.6076838
632.50 0.607455
632.60 0.6072263
632.70 0.6069977
632.80 0.6067692
632.90 0.6065408
633.00 0.6063125
633.10 0.6060844
633.20 0.6058564
633.30 0.6056284
633.40 0.6054008
633.50 0.6051735
633.60 0.6049463
633.70 0.6047191
633.80 0.6044921
633.90 0.6042653
634.00 0.6040385
634.10 0.6038118
634.20 0.6035853
634.30 0.6033588
634.40 0.6031325
634.50 0.6029063
634.60 0.6026802
634.70 0.6024542
634.80 0.6022283
634.90 0.6020026
635.00 0.6017769
635.10 0.6015514
635.20 0.601326
635.30 0.6011006
635.40 0.6008754
635.50 0.6006504
635.60 0.6004254
635.70 0.6002005
635.80 0.5999758
635.90 0.5997511
636.00 0.5995266
636.10 0.5993022
636.20 0.5990779
636.30 0.5988537
636.40 0.5986296
636.50 0.5984056
636.60 0.5981764
636.70 0.5979467
636.80 0.5977171
636.90 0.5974876
637.00 0.5972582
637.10 0.597029
637.20 0.5967998
637.30 0.5965708
637.40 0.5963419
637.50 0.5961131
637.60 0.5958844
637.70 0.5956558
637.80 0.5954274
637.90 0.595199
638.00 0.5949708
638.10 0.5947427
638.20 0.5945147
638.30 0.5942868
638.40 0.594059
638.50 0.5938314
638.60 0.5936038
638.70 0.5933764
638.80 0.5931491
638.90 0.5929219
639.00 0.5926948
639.10 0.5924678
639.20 0.5922409
639.30 0.5920142
639.40 0.5917875
639.50 0.591561
639.60 0.5913346
639.70 0.5911097
639.80 0.5908898
639.90 0.59067
640.00 0.5904503
640.10 0.5902307
640.20 0.5900112
640.30 0.5897919
640.40 0.5895726
640.50 0.5893534
640.60 0.5891344
640.70 0.5889154
640.80 0.5886966
640.90 0.5884779
641.00 0.5882593
641.10 0.5880407
641.20 0.5878223
641.30 0.587604
641.40 0.5873859
641.50 0.5871678
641.60 0.5869498
641.70 0.5867319
641.80 0.5865142
641.90 0.5862965
642.00 0.586079
642.10 0.5858615
642.20 0.5856442
642.30 0.585427
642.40 0.5852099
642.50 0.5849929
642.60 0.584776
642.70 0.5845592
642.80 0.5843425
642.90 0.5841245
643.00 0.5839022
643.10 0.58368
643.20 0.583458
643.30 0.583236
643.40 0.5830142
643.50 0.5827924
643.60 0.5825708
643.70 0.5823493
643.80 0.5821279
643.90 0.5819066
644.00 0.5816854
644.10 0.5814643
644.20 0.5812433
644.30 0.5810224
644.40 0.5808017
644.50 0.580581
644.60 0.5803605
644.70 0.5801401
644.80 0.5799197
644.90 0.5796995
645.00 0.5794794
645.10 0.5792594
645.20 0.5790396
645.30 0.5788198
645.40 0.5786001
645.50 0.5783805
645.60 0.5781611
645.70 0.5779418
645.80 0.5777225
645.90 0.5775034
646.00 0.5772844
646.10 0.5770656
646.20 0.5768472
646.30 0.5766289
646.40 0.5764107
646.50 0.5761926
646.60 0.5759746
646.70 0.5757567
646.80 0.575539
646.90 0.5753213
647.00 0.5751038
647.10 0.5748863
647.20 0.574669
647.30 0.5744518
647.40 0.5742347
647.50 0.5740176
647.60 0.5738007
647.70 0.5735839
647.80 0.5733672
647.90 0.5731507
648.00 0.5729342
648.10 0.5727178
648.20 0.5725015
648.30 0.5722854
648.40 0.5720693
648.50 0.5718534
648.60 0.5716375
648.70 0.5714218
648.80 0.5712062
648.90 0.5709906
649.00 0.5707752
649.10 0.5705599
649.20 0.5703447
649.30 0.5701296
649.40 0.56992
649.50 0.5697107
649.60 0.5695016
649.70 0.5692925
649.80 0.5690836
649.90 0.5688747
650.00 0.568666
650.10 0.5684574
650.20 0.5682488
650.30 0.5680404
650.40 0.567832
650.50 0.5676238
650.60 0.5674157
650.70 0.5672076
650.80 0.5669997
650.90 0.5667919
651.00 0.5665841
651.10 0.5663765
651.20 0.566169
651.30 0.5659615
651.40 0.5657542
651.50 0.565547
651.60 0.5653398
651.70 0.5651328
651.80 0.5649259
651.90 0.5647191
652.00 0.5645123
652.10 0.5643057
652.20 0.5640992
652.30 0.5638928
652.40 0.5636864
652.50 0.5634802
652.60 0.5632699
652.70 0.5630575
652.80 0.5628452
652.90 0.562633
653.00 0.5624209
653.10 0.5622089
653.20 0.561997
653.30 0.5617852
653.40 0.5615735
653.50 0.5613619
653.60 0.5611505
653.70 0.5609391
653.80 0.5607278
653.90 0.5605166
654.00 0.5603056
654.10 0.5600946
654.20 0.5598837
654.30 0.559673
654.40 0.5594623
654.50 0.5592517
654.60 0.5590413
654.70 0.5588309
654.80 0.5586207
654.90 0.5584105
655.00 0.5582005
655.10 0.5579906
655.20 0.5577807
655.30 0.557571
655.40 0.5573614
655.50 0.5571518
655.60 0.5569424
655.70 0.5567331
655.80 0.5565187
655.90 0.5563044
656.00 0.5560903
656.10 0.5558762
656.20 0.5556623
656.30 0.5554484
656.40 0.5552347
656.50 0.555021
656.60 0.5548075
656.70 0.5545941
656.80 0.5543807
656.90 0.5541675
657.00 0.5539544
657.10 0.5537414
657.20 0.5535285
657.30 0.5533157
657.40 0.553103
657.50 0.5528904
657.60 0.5526779
657.70 0.5524655
657.80 0.5522975
657.90 0.5520933
658.00 0.5518828
658.10 0.5516724
658.20 0.5514622
658.30 0.551252
658.40 0.5510419
658.50 0.5508319
658.60 0.550622
658.70 0.5504122
658.80 0.5502026
658.90 0.549993
659.00 0.5497835
659.10 0.5495912
659.20 0.5494244
659.30 0.5492261
659.40 0.5490279
659.50 0.5488298
659.60 0.5486317
659.70 0.5484338
659.80 0.548236
659.90 0.5480382
660.00 0.5478406
660.10 0.547643
660.20 0.5474456
660.30 0.5472482
660.40 0.5470469
660.50 0.546845
660.60 0.5466432
660.70 0.5464415
660.80 0.5462399
660.90 0.5460219
661.00 0.5458041
661.10 0.5455863
661.20 0.5453686
661.30 0.5451511
661.40 0.5449336
661.50 0.5447163
661.60 0.5444991
661.70 0.5442819
661.80 0.5440649
661.90 0.5438665
662.00 0.5436682
662.10 0.54347
662.20 0.5432719
662.30 0.5430739
662.40 0.5429049
662.50 0.5426973
662.60 0.5424898
662.70 0.5422824
662.80 0.5420751
662.90 0.5419116
663.00 0.5417482
663.10 0.5414103
663.20 0.541247
663.30 0.5410838
663.40 0.5409207
663.50 0.5406706
663.60 0.5404205
663.70 0.5402577
663.80 0.5400949
663.90 0.5398522
664.00 0.5395956
664.10 0.5394041
664.20 0.5392127
664.30 0.5390214
664.40 0.5388302
664.50 0.5386391
664.60 0.538448
664.70 0.5382434
664.80 0.5380389
664.90 0.5378345
665.00 0.5376302
665.10 0.537426
665.20 0.5372219
665.30 0.5370178
665.40 0.5368139
665.50 0.5366462
665.60 0.536485
665.70 0.5363016
665.80 0.5360952
665.90 0.5358889
666.00 0.5356827
666.10 0.5354766
666.20 0.5352706
666.30 0.5350647
666.40 0.5348589
666.50 0.5346672
666.60 0.534478
666.70 0.5342889
666.80 0.5340999
666.90 0.533911
667.00 0.5337222
667.10 0.5334787
667.20 0.5332256
667.30 0.5330658
667.40 0.5329061
667.50 0.5326733
667.60 0.5324276
667.70 0.5322552
667.80 0.5320959
667.90 0.531915
668.00 0.5316054
668.10 0.5314462
668.20 0.5312872
668.30 0.5310917
668.40 0.5308898
668.50 0.5306881
668.60 0.5304865
668.70 0.5303214
668.80 0.5301295
668.90 0.5299377
669.00 0.529746
669.10 0.5295544
669.20 0.5293629
669.30 0.5291561
669.40 0.5289466
669.50 0.5287373
669.60 0.528528
669.70 0.5283189
669.80 0.5281098
669.90 0.5279009
670.00 0.527692
670.10 0.5274833
670.20 0.5272747
670.30 0.5270797
670.40 0.5268873
670.50 0.526695
670.60 0.5265027
670.70 0.5263106
670.80 0.5261231
670.90 0.5259357
671.00 0.5257484
671.10 0.5255611
671.20 0.525374
671.30 0.5251869
671.40 0.525
671.50 0.5248131
671.60 0.5246263
671.70 0.5244396
671.80 0.524253
671.90 0.5240337
672.00 0.5238087
672.10 0.5235838
672.20 0.523359
672.30 0.5231343
672.40 0.5229385
672.50 0.522745
672.60 0.5225516
672.70 0.5223583
672.80 0.5221651
672.90 0.521972
673.00 0.5217789
673.10 0.521586
673.20 0.5213931
673.30 0.5212382
673.40 0.5210475
673.50 0.5208505
673.60 0.5206536
673.70 0.5204568
673.80 0.5202601
673.90 0.5200634
674.00 0.5198669
674.10 0.5196705
674.20 0.5194741
674.30 0.5192779
674.40 0.5190817
674.50 0.5188857
674.60 0.5186897
674.70 0.5184938
674.80 0.518298
674.90 0.5181023
675.00 0.5179067
675.10 0.5177112
675.20 0.5175158
675.30 0.5173205
675.40 0.5171324
675.50 0.5169457
675.60 0.5167591
675.70 0.5165725
675.80 0.5163861
675.90 0.5161997
676.00 0.5160134
676.10 0.5158272
676.20 0.5156411
676.30 0.5154551
676.40 0.5152691
676.50 0.5150833
676.60 0.5148975
676.70 0.5147118
676.80 0.5145262
676.90 0.5143407
677.00 0.5141553
677.10 0.51397
677.20 0.5137848
677.30 0.5135996
677.40 0.5134146
677.50 0.5132296
677.60 0.5130447
677.70 0.5128599
677.80 0.5126752
677.90 0.5124839
678.00 0.5122915
678.10 0.5120992
678.20 0.511907
678.30 0.5117149
678.40 0.5115229
678.50 0.511331
678.60 0.5111392
678.70 0.5109474
678.80 0.5107558
678.90 0.5105642
679.00 0.5103728
679.10 0.510181
679.20 0.5099891
679.30 0.5097974
679.40 0.5096057
679.50 0.5094141
679.60 0.5092226
679.70 0.5090312
679.80 0.5088399
679.90 0.5086487
680.00 0.5084576
680.10 0.5082665
680.20 0.5080756
680.30 0.5078847
680.40 0.5076939
680.50 0.5075033
680.60 0.5073127
680.70 0.5071222
680.80 0.5069318
680.90 0.5067414
681.00 0.5065512
681.10 0.5063611
681.20 0.506171
681.30 0.5059811
681.40 0.5057912
681.50 0.5056014
681.60 0.5054117
681.70 0.5052221
681.80 0.5050326
681.90 0.5048432
682.00 0.5046538
682.10 0.5044646
682.20 0.5042754
682.30 0.5040864
682.40 0.5038974
682.50 0.5037085
682.60 0.5035197
682.70 0.503331
682.80 0.5031424
682.90 0.5029539
683.00 0.5027654
683.10 0.5025771
683.20 0.5023888
683.30 0.5022006
683.40 0.5020125
683.50 0.5018245
683.60 0.5016366
683.70 0.5014488
683.80 0.5012611
683.90 0.5010734
684.00 0.5008859
684.10 0.5006984
684.20 0.500511
684.30 0.5003237
684.40 0.5001365
684.50 0.4999494
684.60 0.4997624
684.70 0.4995754
684.80 0.4993886
684.90 0.4992018
685.00 0.4990151
685.10 0.4988285
685.20 0.498642
685.30 0.4984556
685.40 0.4982693
685.50 0.4980831
685.60 0.4978969
685.70 0.4977108
685.80 0.4975249
685.90 0.4973412
686.00 0.4971582
686.10 0.4969753
686.20 0.4967924
686.30 0.4966097
686.40 0.496427
686.50 0.4962444
686.60 0.4960619
686.70 0.4958795
686.80 0.4956971
686.90 0.4955149
687.00 0.4953327
687.10 0.4951507
687.20 0.4949687
687.30 0.4947868
687.40 0.4946049
687.50 0.4944232
687.60 0.4942415
687.70 0.49406
687.80 0.4938785
687.90 0.4936971
688.00 0.4935158
688.10 0.4933345
688.20 0.4931534
688.30 0.4929723
688.40 0.4927914
688.50 0.4926105
688.60 0.4924297
688.70 0.4922489
688.80 0.4920683
688.90 0.4918877
689.00 0.4917073
689.10 0.4915269
689.20 0.4913466
689.30 0.4911664
689.40 0.4909862
689.50 0.4908062
689.60 0.4906262
689.70 0.4904463
689.80 0.4902665
689.90 0.4900868
690.00 0.4899072
690.10 0.4897276
690.20 0.4895482
690.30 0.4893688
690.40 0.4891895
690.50 0.4890103
690.60 0.4888311
690.70 0.4886521
690.80 0.4884731
690.90 0.4882942
691.00 0.4881154
691.10 0.4879367
691.20 0.4877581
691.30 0.4875795
691.40 0.4874011
691.50 0.4872227
691.60 0.4870444
691.70 0.4868662
691.80 0.486688
691.90 0.48651
692.00 0.486332
692.10 0.4861541
692.20 0.4859763
692.30 0.4857986
692.40 0.4856209
692.50 0.4854434
692.60 0.4852659
692.70 0.4850876
692.80 0.4849059
692.90 0.4847244
693.00 0.4845429
693.10 0.4843615
693.20 0.4841802
693.30 0.4839989
693.40 0.4838178
693.50 0.4836367
693.60 0.4834558
693.70 0.4832749
693.80 0.4830941
693.90 0.4829133
694.00 0.4827327
694.10 0.4825521
694.20 0.4823717
694.30 0.4821913
694.40 0.482011
694.50 0.4818308
694.60 0.4816506
694.70 0.4814706
694.80 0.4812906
694.90 0.4811107
695.00 0.4809309
695.10 0.4807512
695.20 0.4805716
695.30 0.480392
695.40 0.4802125
695.50 0.4800332
695.60 0.4798539
695.70 0.4796746
695.80 0.4794955
695.90 0.4793165
696.00 0.4791375
696.10 0.4789586
696.20 0.4787798
696.30 0.4786011
696.40 0.4784224
696.50 0.4782439
696.60 0.478068
696.70 0.4778929
696.80 0.4777178
696.90 0.4775428
697.00 0.4773679
697.10 0.477193
697.20 0.4770183
697.30 0.4768436
697.40 0.476669
697.50 0.4764945
697.60 0.4763201
697.70 0.4761457
697.80 0.4759714
697.90 0.4757972
698.00 0.4756231
698.10 0.4754491
698.20 0.4752751
698.30 0.4751013
698.40 0.4749275
698.50 0.4747538
698.60 0.4745801
698.70 0.4744066
698.80 0.4742331
698.90 0.4740597
699.00 0.4738864
699.10 0.473722
699.20 0.4735597
699.30 0.4733975
699.40 0.4732354
699.50 0.4730733
699.60 0.4729113
699.70 0.4727327
699.80 0.4725533
699.90 0.472374
700.00 0.4721947
700.10 0.4720156
700.20 0.4718365
700.30 0.4716575
700.40 0.4714786
700.50 0.4712997
700.60 0.471121
700.70 0.4709423
700.80 0.4707638
700.90 0.4705853
701.00 0.4704068
701.10 0.4702306
701.20 0.4700548
701.30 0.4698792
701.40 0.4697036
701.50 0.4695282
701.60 0.4693528
701.70 0.4691774
701.80 0.4690022
701.90 0.4688271
702.00 0.468652
702.10 0.468477
702.20 0.4683021
702.30 0.4681272
702.40 0.4679525
702.50 0.4677778
702.60 0.4676053
702.70 0.4674334
702.80 0.4672616
702.90 0.4670898
703.00 0.4669181
703.10 0.4667465
703.20 0.466575
703.30 0.4664035
703.40 0.4662322
703.50 0.4660609
703.60 0.4658897
703.70 0.4657185
703.80 0.4655475
703.90 0.4653765
704.00 0.4652056
704.10 0.4650348
704.20 0.4648703
704.30 0.4647074
704.40 0.4645445
704.50 0.4643817
704.60 0.464219
704.70 0.4640564
704.80 0.4638938
704.90 0.4637313
705.00 0.4635689
705.10 0.4634066
705.20 0.4632276
705.30 0.4630449
705.40 0.4628622
705.50 0.4626796
705.60 0.4624971
705.70 0.4623147
705.80 0.4621428
705.90 0.4619734
706.00 0.461804
706.10 0.4616347
706.20 0.4614967
706.30 0.461366
706.40 0.4612354
706.50 0.4609512
706.60 0.4608207
706.70 0.4606903
706.80 0.4604978
706.90 0.4602907
707.00 0.4601148
707.10 0.4599464
707.20 0.4597779
707.30 0.4596096
707.40 0.4594517
707.50 0.4592963
707.60 0.4591409
707.70 0.4589856
707.80 0.4588304
707.90 0.4586753
708.00 0.4585037
708.10 0.4583283
708.20 0.458153
708.30 0.4579778
708.40 0.4578026
708.50 0.4576275
708.60 0.4574525
708.70 0.4572776
708.80 0.4571028
708.90 0.456928
709.00 0.4567596
709.10 0.4565926
709.20 0.4564257
709.30 0.4562589
709.40 0.4560922
709.50 0.4559255
709.60 0.4557589
709.70 0.4555924
709.80 0.455426
709.90 0.4552596
710.00 0.4550933
710.10 0.4549271
710.20 0.454761
710.30 0.454595
710.40 0.454429
710.50 0.4542631
710.60 0.4540952
710.70 0.4539269
710.80 0.4537587
710.90 0.4535906
711.00 0.4534225
711.10 0.4532545
711.20 0.4530866
711.30 0.4529188
711.40 0.4527511
711.50 0.4525834
711.60 0.4524158
711.70 0.4522483
711.80 0.4520808
711.90 0.4519135
712.00 0.4517462
712.10 0.4515819
712.20 0.4514184
712.30 0.451255
712.40 0.4510916
712.50 0.4509283
712.60 0.4507651
712.70 0.4506019
712.80 0.4504389
712.90 0.4502759
713.00 0.4501129
713.10 0.4499501
713.20 0.4497873
713.30 0.4496246
713.40 0.449462
713.50 0.4492994
713.60 0.4491369
713.70 0.4489725
713.80 0.4488039
713.90 0.4486354
714.00 0.448467
714.10 0.448304
714.20 0.4481424
714.30 0.4479809
714.40 0.4478194
714.50 0.447658
714.60 0.4474966
714.70 0.4473354
714.80 0.4471742
714.90 0.447013
715.00 0.446852
715.10 0.446691
715.20 0.4465301
715.30 0.4463693
715.40 0.4462085
715.50 0.4460479
715.60 0.4458872
715.70 0.4457267
715.80 0.4455662
715.90 0.4454058
716.00 0.4452455
716.10 0.4450853
716.20 0.4449251
716.30 0.444765
716.40 0.444605
716.50 0.444445
716.60 0.4442842
716.70 0.4441232
716.80 0.4439624
716.90 0.4438016
717.00 0.4436409
717.10 0.4434802
717.20 0.4433196
717.30 0.4431591
717.40 0.4429987
717.50 0.4428383
717.60 0.442678
717.70 0.4425178
717.80 0.4423577
717.90 0.4421976
718.00 0.4420376
718.10 0.4418777
718.20 0.4417147
718.30 0.44155
718.40 0.4413855
718.50 0.441221
718.60 0.4410567
718.70 0.4408923
718.80 0.4407281
718.90 0.4405639
719.00 0.4403998
719.10 0.4402358
719.20 0.4400719
719.30 0.439908
719.40 0.4397442
719.50 0.4395805
719.60 0.4394168
719.70 0.4392533
719.80 0.4390898
719.90 0.4389263
720.00 0.438763
720.10 0.4385997
720.20 0.4384365
720.30 0.4382734
720.40 0.4381103
720.50 0.4379473
720.60 0.4377844
720.70 0.4376484
720.80 0.437527
720.90 0.4373669
721.00 0.4372053
721.10 0.4370438
721.20 0.4368823
721.30 0.4367209
721.40 0.4365596
721.50 0.4363983
721.60 0.4362372
721.70 0.4360761
721.80 0.435915
721.90 0.4357541
722.00 0.4355932
722.10 0.4354324
722.20 0.4352716
722.30 0.435111
722.40 0.4349504
722.50 0.4347898
722.60 0.4346294
722.70 0.4344696
722.80 0.4343102
722.90 0.4341509
723.00 0.4339917
723.10 0.4338326
723.20 0.4336735
723.30 0.4335145
723.40 0.4333555
723.50 0.4331966
723.60 0.4330378
723.70 0.4328791
723.80 0.4327205
723.90 0.4325619
724.00 0.4324034
724.10 0.4322449
724.20 0.4320881
724.30 0.4319323
724.40 0.4317765
724.50 0.4316208
724.60 0.4314651
724.70 0.4313095
724.80 0.431154
724.90 0.4309986
725.00 0.4308432
725.10 0.4306879
725.20 0.4305326
725.30 0.4303775
725.40 0.4302224
725.50 0.4300673
725.60 0.4299124
725.70 0.4297575
725.80 0.4296074
725.90 0.4294599
726.00 0.4293125
726.10 0.4291651
726.20 0.4290179
726.30 0.4288706
726.40 0.4287235
726.50 0.4285764
726.60 0.4284294
726.70 0.4282824
726.80 0.4281229
726.90 0.4279568
727.00 0.4277907
727.10 0.4276246
727.20 0.4274587
727.30 0.4272928
727.40 0.4271348
727.50 0.4269812
727.60 0.4268276
727.70 0.4266741
727.80 0.4264971
727.90 0.4263075
728.00 0.426165
728.10 0.426048
728.20 0.425931
728.30 0.425796
728.40 0.4255525
728.50 0.4254357
728.60 0.4252954
728.70 0.4251426
728.80 0.4249898
728.90 0.4248371
729.00 0.4246767
729.10 0.4245121
729.20 0.4243476
729.30 0.4241831
729.40 0.4240188
729.50 0.4238545
729.60 0.4237027
729.70 0.4235578
729.80 0.4234129
729.90 0.4232681
730.00 0.4231233
730.10 0.4229787
730.20 0.422834
730.30 0.4226895
730.40 0.422545
730.50 0.4224006
730.60 0.4222457
730.70 0.4220852
730.80 0.4219248
730.90 0.4217645
731.00 0.4216042
731.10 0.4214441
731.20 0.4212839
731.30 0.4211239
731.40 0.4209639
731.50 0.4208041
731.60 0.4206442
731.70 0.4204845
731.80 0.4203248
731.90 0.4201652
732.00 0.4200057
732.10 0.4198462
732.20 0.4196973
732.30 0.419554
732.40 0.4194109
732.50 0.4192678
732.60 0.4191247
732.70 0.4189818
732.80 0.4188388
732.90 0.418696
733.00 0.4185532
733.10 0.4184105
733.20 0.4182678
733.30 0.4181252
733.40 0.4179826
733.50 0.4178402
733.60 0.4176977
733.70 0.417546
733.80 0.4173892
733.90 0.4172325
734.00 0.4170758
734.10 0.4169192
734.20 0.4167627
734.30 0.4166063
734.40 0.4164499
734.50 0.4162936
734.60 0.4161374
734.70 0.4159812
734.80 0.4158251
734.90 0.4156691
735.00 0.4155132
735.10 0.4153573
735.20 0.4152015
735.30 0.4150458
735.40 0.4148916
735.50 0.4147374
735.60 0.4145834
735.70 0.4144341
735.80 0.4142874
735.90 0.4141409
736.00 0.4139943
736.10 0.4138479
736.20 0.4137015
736.30 0.4135552
736.40 0.4134089
736.50 0.4132627
736.60 0.4131166
736.70 0.4129705
736.80 0.4128245
736.90 0.4126785
737.00 0.4125326
737.10 0.4123868
737.20 0.4122411
737.30 0.4120954
737.40 0.4119498
737.50 0.4118042
737.60 0.4116587
737.70 0.4115133
737.80 0.4113679
737.90 0.4112226
738.00 0.4110774
738.10 0.4109322
738.20 0.4107847
738.30 0.410636
738.40 0.4104873
738.50 0.4103387
738.60 0.4101902
738.70 0.4100417
738.80 0.4098933
738.90 0.409745
739.00 0.4095968
739.10 0.4094486
739.20 0.4093004
739.30 0.4091524
739.40 0.4090044
739.50 0.4088564
739.60 0.4087086
739.70 0.4085607
739.80 0.408413
739.90 0.4082653
740.00 0.4081177
740.10 0.4079702
740.20 0.4078227
740.30 0.4076753
740.40 0.4075279
740.50 0.4073806
740.60 0.4072334
740.70 0.4070862
740.80 0.4069392
740.90 0.4067921
741.00 0.4066452
741.10 0.4064983
741.20 0.4063514
741.30 0.4062047
741.40 0.4060579
741.50 0.4059113
741.60 0.4057647
741.70 0.4056182
741.80 0.4054718
741.90 0.4053254
742.00 0.4051791
742.10 0.4050328
742.20 0.4048866
742.30 0.4047405
742.40 0.4045944
742.50 0.4044484
742.60 0.4043025
742.70 0.4041548
742.80 0.4040057
742.90 0.4038566
743.00 0.4037076
743.10 0.4035587
743.20 0.4034099
743.30 0.4032611
743.40 0.4031124
743.50 0.4029637
743.60 0.4028151
743.70 0.4026672
743.80 0.4025221
743.90 0.402377
744.00 0.402232
744.10 0.402087
744.20 0.4019421
744.30 0.4017973
744.40 0.4016525
744.50 0.4015078
744.60 0.4013632
744.70 0.4012186
744.80 0.4010741
744.90 0.4009297
745.00 0.4007853
745.10 0.400641
745.20 0.4004967
745.30 0.4003525
745.40 0.4002084
745.50 0.4000643
745.60 0.3999203
745.70 0.3997763
745.80 0.3996324
745.90 0.3994886
746.00 0.3993449
746.10 0.3992012
746.20 0.3990575
746.30 0.398914
746.40 0.3987705
746.50 0.398627
746.60 0.3984836
746.70 0.3983403
746.80 0.3981971
746.90 0.3980539
747.00 0.3979107
747.10 0.3977677
747.20 0.3976247
747.30 0.3974817
747.40 0.3973388
747.50 0.397196
747.60 0.3970532
747.70 0.3969105
747.80 0.3967679
747.90 0.3966253
748.00 0.3964828
748.10 0.3963404
748.20 0.396198
748.30 0.3960557
748.40 0.3959134
748.50 0.3957712
748.60 0.3956291
748.70 0.395487
748.80 0.395345
748.90 0.395203
749.00 0.3950611
749.10 0.3949193
749.20 0.3947775
749.30 0.3946358
749.40 0.3944942
749.50 0.3943526
749.60 0.3942111
749.70 0.3940696
749.80 0.3939282
749.90 0.3937869
750.00 0.3936456
750.10 0.3935044
750.20 0.3933631
750.30 0.3932219
750.40 0.3930808
750.50 0.3929397
750.60 0.3927987
750.70 0.3926578
750.80 0.3925169
750.90 0.3923761
751.00 0.3922353
751.10 0.3920946
751.20 0.391954
751.30 0.3918134
751.40 0.3916729
751.50 0.3915324
751.60 0.391392
751.70 0.3912517
751.80 0.3911114
751.90 0.3909712
752.00 0.390831
752.10 0.390691
752.20 0.3905509
752.30 0.390411
752.40 0.390271
752.50 0.3901312
752.60 0.3899914
752.70 0.3898517
752.80 0.389712
752.90 0.3895724
753.00 0.3894329
753.10 0.3892934
753.20 0.3891539
753.30 0.3890146
753.40 0.3888753
753.50 0.388736
753.60 0.3885968
753.70 0.3884577
753.80 0.3883187
753.90 0.3881797
754.00 0.3880407
754.10 0.3879018
754.20 0.387763
754.30 0.3876242
754.40 0.3874855
754.50 0.3873469
754.60 0.3872083
754.70 0.3870698
754.80 0.3869313
754.90 0.3867929
755.00 0.3866546
755.10 0.3865163
755.20 0.3863781
755.30 0.3862399
755.40 0.3861018
755.50 0.3859637
755.60 0.3858257
755.70 0.3856878
755.80 0.3855499
755.90 0.3854121
756.00 0.3852744
756.10 0.3851367
756.20 0.3849991
756.30 0.3848615
756.40 0.384724
756.50 0.3845865
756.60 0.3844491
756.70 0.3843118
756.80 0.3841745
756.90 0.3840373
757.00 0.3839002
757.10 0.3837631
757.20 0.383626
757.30 0.383489
757.40 0.3833521
757.50 0.3832153
757.60 0.3830786
757.70 0.3829422
757.80 0.3828058
757.90 0.3826696
758.00 0.3825334
758.10 0.3823972
758.20 0.3822611
758.30 0.3821251
758.40 0.3819891
758.50 0.3818532
758.60 0.3817173
758.70 0.3815815
758.80 0.3814458
758.90 0.3813101
759.00 0.3811745
759.10 0.3810389
759.20 0.3809034
759.30 0.3807679
759.40 0.3806325
759.50 0.3804972
759.60 0.3803619
759.70 0.3802267
759.80 0.3800915
759.90 0.3799564
760.00 0.3798214
760.10 0.3796864
760.20 0.3795515
760.30 0.3794166
760.40 0.3792818
760.50 0.379147
760.60 0.3790123
760.70 0.3788777
760.80 0.3787431
760.90 0.3786086
761.00 0.3784741
761.10 0.3783397
761.20 0.3782053
761.30 0.378071
761.40 0.3779354
761.50 0.3777977
761.60 0.3776601
761.70 0.3775226
761.80 0.3773851
761.90 0.3772476
762.00 0.3771103
762.10 0.3769729
762.20 0.3768357
762.30 0.3766985
762.40 0.3765613
762.50 0.3764243
762.60 0.3762872
762.70 0.3761503
762.80 0.3760134
762.90 0.3758765
763.00 0.3757397
763.10 0.375603
763.20 0.3754663
763.30 0.3753297
763.40 0.3751932
763.50 0.3750567
763.60 0.3749202
763.70 0.3747839
763.80 0.3746475
763.90 0.3745113
764.00 0.3743751
764.10 0.3742389
764.20 0.3741029
764.30 0.3739668
764.40 0.3738309
764.50 0.3736949
764.60 0.3735591
764.70 0.3734233
764.80 0.3732876
764.90 0.3731519
765.00 0.3730163
765.10 0.3728807
765.20 0.3727472
765.30 0.3726156
765.40 0.372484
765.50 0.3723524
765.60 0.372221
765.70 0.3720895
765.80 0.3719582
765.90 0.3718269
766.00 0.3716956
766.10 0.3715644
766.20 0.3714333
766.30 0.3713022
766.40 0.3711712
766.50 0.3710402
766.60 0.3709093
766.70 0.3707784
766.80 0.3706476
766.90 0.3705169
767.00 0.3703862
767.10 0.3702555
767.20 0.370125
767.30 0.3699944
767.40 0.369864
767.50 0.3697335
767.60 0.3696032
767.70 0.3694729
767.80 0.3693426
767.90 0.3692124
768.00 0.3690823
768.10 0.3689522
768.20 0.3688222
768.30 0.3686922
768.40 0.3685623
768.50 0.3684324
768.60 0.3683026
768.70 0.3681729
768.80 0.3680432
768.90 0.3679135
769.00 0.3677839
769.10 0.3676544
769.20 0.3675249
769.30 0.3673955
769.40 0.3672661
769.50 0.3671368
769.60 0.3670076
769.70 0.3668784
769.80 0.3667492
769.90 0.3666201
770.00 0.3664911
770.10 0.3663621
770.20 0.3662332
770.30 0.3661043
770.40 0.3659755
770.50 0.3658467
770.60 0.365718
770.70 0.3655893
770.80 0.3654607
770.90 0.3653322
771.00 0.3652037
771.10 0.3650752
771.20 0.3649468
771.30 0.3648185
771.40 0.3646902
771.50 0.364562
771.60 0.3644338
771.70 0.3643057
771.80 0.3641777
771.90 0.3640497
772.00 0.3639217
772.10 0.3637938
772.20 0.363666
772.30 0.3635382
772.40 0.3634104
772.50 0.3632828
772.60 0.3631551
772.70 0.3630276
772.80 0.3629
772.90 0.3627712
773.00 0.3626425
773.10 0.3625138
773.20 0.3623852
773.30 0.3622566
773.40 0.3621281
773.50 0.3619996
773.60 0.3618712
773.70 0.3617428
773.80 0.3616145
773.90 0.3614862
774.00 0.361358
774.10 0.3612299
774.20 0.3611018
774.30 0.3609738
774.40 0.3608458
774.50 0.3607178
774.60 0.36059
774.70 0.3604622
774.80 0.3603344
774.90 0.3602067
775.00 0.360079
775.10 0.3599514
775.20 0.3598238
775.30 0.3596963
775.40 0.3595689
775.50 0.3594415
775.60 0.3593142
775.70 0.3591869
775.80 0.3590597
775.90 0.3589325
776.00 0.3588054
776.10 0.3586783
776.20 0.3585513
776.30 0.3584243
776.40 0.3582974
776.50 0.3581706
776.60 0.3580438
776.70 0.357917
776.80 0.3577903
776.90 0.3576637
777.00 0.3575371
777.10 0.3574105
777.20 0.3572841
777.30 0.3571576
777.40 0.3570313
777.50 0.3569049
777.60 0.3567787
777.70 0.3566525
777.80 0.3565263
777.90 0.3564002
778.00 0.3562741
778.10 0.3561481
778.20 0.3560222
778.30 0.3558963
778.40 0.3557704
778.50 0.3556446
778.60 0.3555189
778.70 0.3553932
778.80 0.3552676
778.90 0.355142
779.00 0.3550165
779.10 0.354891
779.20 0.3547656
779.30 0.3546402
779.40 0.3545149
779.50 0.3543896
779.60 0.3542644
779.70 0.3541393
779.80 0.3540142
779.90 0.3538891
780.00 0.3537641
780.10 0.3536391
780.20 0.3535143
780.30 0.3533894
780.40 0.3532646
780.50 0.3531399
780.60 0.3530152
780.70 0.3528905
780.80 0.3527658
780.90 0.3526413
781.00 0.3525167
781.10 0.3523923
781.20 0.3522678
781.30 0.3521435
781.40 0.3520191
781.50 0.3518949
781.60 0.3517707
781.70 0.3516465
781.80 0.3515224
781.90 0.3513983
782.00 0.3512743
782.10 0.3511504
782.20 0.3510264
782.30 0.3509026
782.40 0.3507788
782.50 0.350655
782.60 0.3505314
782.70 0.3504077
782.80 0.3502841
782.90 0.3501606
783.00 0.3500371
783.10 0.3499136
783.20 0.3497903
783.30 0.3496669
783.40 0.3495436
783.50 0.3494204
783.60 0.3492972
783.70 0.3491741
783.80 0.349051
783.90 0.348928
784.00 0.348805
784.10 0.3486821
784.20 0.3485592
784.30 0.3484364
784.40 0.3483136
784.50 0.3481909
784.60 0.3480675
784.70 0.3479424
784.80 0.3478173
784.90 0.3476923
785.00 0.3475673
785.10 0.3474424
785.20 0.3473175
785.30 0.3471927
785.40 0.3470679
785.50 0.3469432
785.60 0.3468186
785.70 0.346694
785.80 0.3465694
785.90 0.3464449
786.00 0.3463205
786.10 0.3461961
786.20 0.3460717
786.30 0.3459474
786.40 0.3458232
786.50 0.345699
786.60 0.3455749
786.70 0.3454508
786.80 0.3453267
786.90 0.3452028
787.00 0.3450788
787.10 0.344955
787.20 0.3448311
787.30 0.3447074
787.40 0.3445836
787.50 0.34446
787.60 0.3443363
787.70 0.3442128
787.80 0.3440893
787.90 0.3439658
788.00 0.3438424
788.10 0.343719
788.20 0.3435957
788.30 0.3434725
788.40 0.3433524
788.50 0.3432341
788.60 0.3431157
788.70 0.3429974
788.80 0.3428792
788.90 0.342761
789.00 0.3426429
789.10 0.3425248
789.20 0.3424067
789.30 0.3422887
789.40 0.3421708
789.50 0.3420529
789.60 0.341935
789.70 0.3418172
789.80 0.3416995
789.90 0.3415818
790.00 0.3414641
790.10 0.3413465
790.20 0.3412289
790.30 0.3411114
790.40 0.340994
790.50 0.3408766
790.60 0.3407592
790.70 0.3406419
790.80 0.3405246
790.90 0.3404074
791.00 0.3402902
791.10 0.3401731
791.20 0.340056
791.30 0.339939
791.40 0.339822
791.50 0.3397051
791.60 0.3395882
791.70 0.3394714
791.80 0.3393546
791.90 0.3392379
792.00 0.3391212
792.10 0.3390046
792.20 0.338888
792.30 0.3387706
792.40 0.338651
792.50 0.3385315
792.60 0.338412
792.70 0.3382925
792.80 0.3381731
792.90 0.3380538
793.00 0.3379345
793.10 0.3378152
793.20 0.337696
793.30 0.3375768
793.40 0.3374577
793.50 0.3373387
793.60 0.3372197
793.70 0.3371007
793.80 0.3369818
793.90 0.3368629
794.00 0.3367441
794.10 0.3366253
794.20 0.3365066
794.30 0.336388
794.40 0.3362693
794.50 0.3361508
794.60 0.3360323
794.70 0.3359138
794.80 0.3357954
794.90 0.335677
795.00 0.3355587
795.10 0.3354404
795.20 0.3353222
795.30 0.335204
795.40 0.3350859
795.50 0.3349678
795.60 0.3348498
795.70 0.3347318
795.80 0.3346139
795.90 0.334496
796.00 0.3343781
796.10 0.3342604
796.20 0.3341426
796.30 0.3340252
796.40 0.3339079
796.50 0.3337907
796.60 0.3336735
796.70 0.3335563
796.80 0.3334392
796.90 0.3333221
797.00 0.3332051
797.10 0.3330882
797.20 0.3329712
797.30 0.3328544
797.40 0.3327376
797.50 0.3326208
797.60 0.3325041
797.70 0.3323874
797.80 0.3322708
797.90 0.3321542
798.00 0.3320377
798.10 0.3319212
798.20 0.3318047
798.30 0.3316884
798.40 0.331572
798.50 0.3314557
798.60 0.3313395
798.70 0.3312233
798.80 0.3311071
798.90 0.330991
799.00 0.330875
799.10 0.330759
799.20 0.330643
799.30 0.3305271
799.40 0.3304113
799.50 0.3302954
799.60 0.3301797
799.70 0.330064
799.80 0.3299483
799.90 0.3298327
800.00 0.3297171
800.10 0.3296016
800.20 0.3294861
800.30 0.3293706
800.40 0.3292553
800.50 0.3291399
800.60 0.3290246
800.70 0.3289094
800.80 0.3287942
800.90 0.328679
801.00 0.3285639
801.10 0.3284489
801.20 0.3283339
801.30 0.3282189
801.40 0.328104
801.50 0.3279891
801.60 0.3278743
801.70 0.3277595
801.80 0.3276448
801.90 0.3275301
802.00 0.3274155
802.10 0.3273009
802.20 0.3271864
802.30 0.3270719
802.40 0.3269575
802.50 0.3268431
802.60 0.3267287
802.70 0.3266144
802.80 0.3265002
802.90 0.326386
803.00 0.3262718
803.10 0.3261577
803.20 0.3260436
803.30 0.3259296
803.40 0.3258156
803.50 0.3257017
803.60 0.3255878
803.70 0.325474
803.80 0.3253602
803.90 0.3252464
804.00 0.3251327
804.10 0.3250191
804.20 0.3249056
804.30 0.3247923
804.40 0.3246791
804.50 0.324566
804.60 0.3244529
804.70 0.3243399
804.80 0.3242269
804.90 0.3241139
805.00 0.324001
805.10 0.3238881
805.20 0.3237753
805.30 0.3236626
805.40 0.3235498
805.50 0.3234372
805.60 0.3233245
805.70 0.3232119
805.80 0.3230994
805.90 0.3229869
806.00 0.3228745
806.10 0.3227621
806.20 0.3226497
806.30 0.3225374
806.40 0.3224251
806.50 0.3223129
806.60 0.3222007
806.70 0.3220886
806.80 0.3219765
806.90 0.3218645
807.00 0.3217525
807.10 0.3216406
807.20 0.3215287
807.30 0.3214168
807.40 0.321305
807.50 0.3211932
807.60 0.3210815
807.70 0.3209699
807.80 0.3208582
807.90 0.3207467
808.00 0.3206351
808.10 0.3205236
808.20 0.3204122
808.30 0.3203008
808.40 0.3201894
808.50 0.3200781
808.60 0.3199669
808.70 0.3198556
808.80 0.3197445
808.90 0.3196333
809.00 0.3195223
809.10 0.3194112
809.20 0.3193002
809.30 0.3191893
809.40 0.3190784
809.50 0.3189675
809.60 0.3188567
809.70 0.318746
809.80 0.3186352
809.90 0.3185246
810.00 0.3184139
810.10 0.3183033
810.20 0.3181928
810.30 0.3180823
810.40 0.3179718
810.50 0.3178614
810.60 0.3177511
810.70 0.3176408
810.80 0.3175305
810.90 0.3174203
811.00 0.3173101
811.10 0.3171999
811.20 0.3170898
811.30 0.3169798
811.40 0.3168698
811.50 0.3167598
811.60 0.3166499
811.70 0.31654
811.80 0.3164302
811.90 0.3163204
812.00 0.3162107
812.10 0.316101
812.20 0.3159914
812.30 0.315882
812.40 0.3157728
812.50 0.3156636
812.60 0.3155545
812.70 0.3154454
812.80 0.3153364
812.90 0.3152273
813.00 0.3151184
813.10 0.3150095
813.20 0.3149006
813.30 0.3147918
813.40 0.314683
813.50 0.3145743
813.60 0.3144656
813.70 0.3143569
813.80 0.3142483
813.90 0.3141398
814.00 0.3140312
814.10 0.3139228
814.20 0.3138143
814.30 0.313706
814.40 0.3135976
814.50 0.3134893
814.60 0.3133811
814.70 0.3132728
814.80 0.3131647
814.90 0.3130566
815.00 0.3129485
815.10 0.3128404
815.20 0.3127324
815.30 0.3126245
815.40 0.3125166
815.50 0.3124087
815.60 0.3123009
815.70 0.3121931
815.80 0.3120854
815.90 0.3119777
816.00 0.3118701
816.10 0.3117625
816.20 0.3116549
816.30 0.3115474
816.40 0.3114399
816.50 0.3113325
816.60 0.3112251
816.70 0.3111178
816.80 0.3110105
816.90 0.3109032
817.00 0.310796
817.10 0.3106888
817.20 0.3105817
817.30 0.3104746
817.40 0.3103676
817.50 0.3102606
817.60 0.3101536
817.70 0.3100467
817.80 0.3099399
817.90 0.309833
818.00 0.3097263
818.10 0.3096195
818.20 0.3095128
818.30 0.3094062
818.40 0.3092996
818.50 0.309193
818.60 0.3090865
818.70 0.30898
818.80 0.3088735
818.90 0.3087671
819.00 0.3086608
819.10 0.3085545
819.20 0.3084482
819.30 0.3083444
819.40 0.3082423
819.50 0.3081403
819.60 0.3080382
819.70 0.3079362
819.80 0.3078343
819.90 0.3077324
820.00 0.3076305
820.10 0.3075311
820.20 0.3074122
820.30 0.3072879
820.40 0.3071743
820.50 0.3070685
820.60 0.3069628
820.70 0.3068571
820.80 0.3067514
820.90 0.3066458
821.00 0.3065402
821.10 0.3064347
821.20 0.3063292
821.30 0.3062238
821.40 0.3061184
821.50 0.306013
821.60 0.3059077
821.70 0.3058024
821.80 0.3056972
821.90 0.305592
822.00 0.3054868
822.10 0.3053817
822.20 0.3052767
822.30 0.3051716
822.40 0.3050667
822.50 0.3049617
822.60 0.3048568
822.70 0.304752
822.80 0.3046471
822.90 0.3045424
823.00 0.3044376
823.10 0.304333
823.20 0.3042283
823.30 0.3041237
823.40 0.3040191
823.50 0.3039146
823.60 0.3038101
823.70 0.3037057
823.80 0.3036013
823.90 0.303497
824.00 0.3033926
824.10 0.3032884
824.20 0.3031841
824.30 0.30308
824.40 0.3029758
824.50 0.3028717
824.60 0.3027676
824.70 0.3026636
824.80 0.3025596
824.90 0.3024557
825.00 0.3023518
825.10 0.302248
825.20 0.3021441
825.30 0.3020404
825.40 0.3019366
825.50 0.301833
825.60 0.3017293
825.70 0.3016257
825.80 0.3015221
825.90 0.3014186
826.00 0.3013151
826.10 0.3012117
826.20 0.3011083
826.30 0.3010028
826.40 0.3008958
826.50 0.3007889
826.60 0.3006821
826.70 0.3005752
826.80 0.3004685
826.90 0.3003617
827.00 0.3002551
827.10 0.3001484
827.20 0.3000418
827.30 0.2999353
827.40 0.2998287
827.50 0.2997223
827.60 0.2996158
827.70 0.2995095
827.80 0.2994031
827.90 0.2992968
828.00 0.2991905
828.10 0.2990843
828.20 0.2989782
828.30 0.298872
828.40 0.2987659
828.50 0.2986599
828.60 0.2985562
828.70 0.2984545
828.80 0.2983528
828.90 0.2982512
829.00 0.2981496
829.10 0.298048
829.20 0.2979465
829.30 0.297845
829.40 0.2977436
829.50 0.2976422
829.60 0.2975409
829.70 0.2974395
829.80 0.2973383
829.90 0.297237
830.00 0.2971359
830.10 0.2970347
830.20 0.2969336
830.30 0.2968325
830.40 0.2967315
830.50 0.2966305
830.60 0.2965295
830.70 0.2964286
830.80 0.2963278
830.90 0.2962269
831.00 0.2961261
831.10 0.2960254
831.20 0.2959247
831.30 0.295824
831.40 0.2957234
831.50 0.2956228
831.60 0.2955222
831.70 0.2954217
831.80 0.2953213
831.90 0.2952208
832.00 0.2951204
832.10 0.2950201
832.20 0.2949198
832.30 0.2948195
832.40 0.2947193
832.50 0.2946191
832.60 0.2945189
832.70 0.2944188
832.80 0.2943187
832.90 0.2942187
833.00 0.2941187
833.10 0.2940187
833.20 0.2939188
833.30 0.2938189
833.40 0.2937191
833.50 0.2936193
833.60 0.2935196
833.70 0.2934198
833.80 0.2933202
833.90 0.2932205
834.00 0.2931209
834.10 0.2930214
834.20 0.2929218
834.30 0.2928223
834.40 0.2927229
834.50 0.2926235
834.60 0.2925241
834.70 0.2924248
834.80 0.2923255
834.90 0.2922263
835.00 0.2921271
835.10 0.2920279
835.20 0.2919288
835.30 0.2918297
835.40 0.2917306
835.50 0.2916316
835.60 0.2915326
835.70 0.2914337
835.80 0.2913348
835.90 0.2912359
836.00 0.2911371
836.10 0.2910383
836.20 0.2909396
836.30 0.2908409
836.40 0.2907422
836.50 0.2906436
836.60 0.290545
836.70 0.2904465
836.80 0.290348
836.90 0.2902479
837.00 0.2901471
837.10 0.2900464
837.20 0.2899457
837.30 0.2898451
837.40 0.2897445
837.50 0.2896439
837.60 0.2895434
837.70 0.2894429
837.80 0.2893425
837.90 0.2892421
838.00 0.2891417
838.10 0.2890414
838.20 0.2889411
838.30 0.2888409
838.40 0.2887407
838.50 0.2886405
838.60 0.2885404
838.70 0.2884403
838.80 0.2883403
838.90 0.2882403
839.00 0.2881403
839.10 0.2880404
839.20 0.2879405
839.30 0.2878407
839.40 0.2877409
839.50 0.2876411
839.60 0.2875414
839.70 0.2874417
839.80 0.287342
839.90 0.2872424
840.00 0.2871428
840.10 0.2870433
840.20 0.2869438
840.30 0.2868444
840.40 0.2867449
840.50 0.2866456
840.60 0.2865462
840.70 0.2864469
840.80 0.2863477
840.90 0.2862485
841.00 0.2861493
841.10 0.2860524
841.20 0.2859558
841.30 0.2858594
841.40 0.285763
841.50 0.2856666
841.60 0.2855702
841.70 0.2854739
841.80 0.2853776
841.90 0.2852814
842.00 0.2851852
842.10 0.285089
842.20 0.2849929
842.30 0.2848968
842.40 0.2848007
842.50 0.2847047
842.60 0.2846088
842.70 0.2845128
842.80 0.2844169
842.90 0.2843211
843.00 0.2842252
843.10 0.2841294
843.20 0.2840337
843.30 0.283938
843.40 0.2838423
843.50 0.2837467
843.60 0.2836511
843.70 0.2835555
843.80 0.28346
843.90 0.2833645
844.00 0.283269
844.10 0.2831736
844.20 0.2830782
844.30 0.2829829
844.40 0.2828876
844.50 0.2827923
844.60 0.2826971
844.70 0.2826019
844.80 0.2825067
844.90 0.2824116
845.00 0.2823165
845.10 0.2822215
845.20 0.2821265
845.30 0.2820305
845.40 0.2819346
845.50 0.2818387
845.60 0.2817429
845.70 0.281647
845.80 0.2815513
845.90 0.2814555
846.00 0.2813598
846.10 0.2812642
846.20 0.2811685
846.30 0.2810729
846.40 0.2809774
846.50 0.2808819
846.60 0.2807864
846.70 0.2806909
846.80 0.2805955
846.90 0.2805002
847.00 0.2804048
847.10 0.2803095
847.20 0.2802143
847.30 0.2801191
847.40 0.2800239
847.50 0.2799287
847.60 0.2798336
847.70 0.2797386
847.80 0.2796435
847.90 0.2795485
848.00 0.2794536
848.10 0.2793587
848.20 0.2792638
848.30 0.2791689
848.40 0.2790741
848.50 0.2789793
848.60 0.2788846
848.70 0.2787899
848.80 0.2786952
848.90 0.2786006
849.00 0.278506
849.10 0.2784115
849.20 0.2783169
849.30 0.2782225
849.40 0.278128
849.50 0.2780336
849.60 0.2779392
849.70 0.2778449
849.80 0.2777506
849.90 0.2776564
850.00 0.2775621
850.10 0.2774679
850.20 0.2773738
850.30 0.2772797
850.40 0.2771856
850.50 0.2770916
850.60 0.2769976
850.70 0.2769036
850.80 0.2768097
850.90 0.2767158
851.00 0.2766219
851.10 0.2765281
851.20 0.2764343
851.30 0.2763406
851.40 0.2762469
851.50 0.2761532
851.60 0.2760595
851.70 0.2759659
851.80 0.2758724
851.90 0.2757788
852.00 0.2756853
852.10 0.2755919
852.20 0.2754985
852.30 0.2754051
852.40 0.2753117
852.50 0.2752184
852.60 0.2751252
852.70 0.2750319
852.80 0.2749387
852.90 0.2748455
853.00 0.2747524
853.10 0.2746593
853.20 0.2745663
853.30 0.2744732
853.40 0.2743802
853.50 0.2742873
853.60 0.2741944
853.70 0.2741022
853.80 0.2740109
853.90 0.2739196
854.00 0.2738284
854.10 0.2737371
854.20 0.2736459
854.30 0.2735548
854.40 0.2734637
854.50 0.2733726
854.60 0.2732815
854.70 0.2731905
854.80 0.2730996
854.90 0.2730086
855.00 0.2729177
855.10 0.2728268
855.20 0.272736
855.30 0.2726452
855.40 0.2725544
855.50 0.2724637
855.60 0.272373
855.70 0.2722823
855.80 0.2721917
855.90 0.2721011
856.00 0.2720106
856.10 0.2719201
856.20 0.2718296
856.30 0.2717391
856.40 0.2716487
856.50 0.2715583
856.60 0.271468
856.70 0.2713777
856.80 0.2712874
856.90 0.2711971
857.00 0.2711069
857.10 0.2710168
857.20 0.2709266
857.30 0.2708365
857.40 0.2707464
857.50 0.2706564
857.60 0.2705664
857.70 0.2704764
857.80 0.2703865
857.90 0.2702966
858.00 0.2702048
858.10 0.2701125
858.20 0.2700203
858.30 0.2699281
858.40 0.2698359
858.50 0.2697438
858.60 0.2696517
858.70 0.2695597
858.80 0.2694676
858.90 0.2693757
859.00 0.2692837
859.10 0.2691918
859.20 0.2690999
859.30 0.2690081
859.40 0.2689163
859.50 0.2688245
859.60 0.2687328
859.70 0.2686411
859.80 0.2685494
859.90 0.2684578
860.00 0.2683662
860.10 0.2682746
860.20 0.2681831
860.30 0.2680916
860.40 0.2680002
860.50 0.2679087
860.60 0.2678174
860.70 0.267726
860.80 0.2676347
860.90 0.2675434
861.00 0.2674522
861.10 0.267361
861.20 0.2672698
861.30 0.2671787
861.40 0.2670876
861.50 0.2669965
861.60 0.2669055
861.70 0.2668145
861.80 0.2667235
861.90 0.2666326
862.00 0.2665417
862.10 0.2664509
862.20 0.2663602
862.30 0.2662709
862.40 0.2661817
862.50 0.2660924
862.60 0.2660032
862.70 0.2659141
862.80 0.2658249
862.90 0.2657358
863.00 0.2656468
863.10 0.2655578
863.20 0.2654688
863.30 0.2653798
863.40 0.2652909
863.50 0.265202
863.60 0.2651131
863.70 0.2650243
863.80 0.2649355
863.90 0.2648468
864.00 0.2647581
864.10 0.2646694
864.20 0.2645807
864.30 0.2644921
864.40 0.2644035
864.50 0.264315
864.60 0.2642265
864.70 0.264138
864.80 0.2640495
864.90 0.2639611
865.00 0.2638727
865.10 0.2637844
865.20 0.2636961
865.30 0.2636078
865.40 0.2635196
865.50 0.2634313
865.60 0.2633432
865.70 0.263255
865.80 0.2631669
865.90 0.2630788
866.00 0.2629908
866.10 0.2629028
866.20 0.2628148
866.30 0.2627269
866.40 0.262639
866.50 0.2625511
866.60 0.2624632
866.70 0.2623754
866.80 0.2622877
866.90 0.2621999
867.00 0.2621122
867.10 0.2620245
867.20 0.2619369
867.30 0.2618493
867.40 0.2617617
867.50 0.2616742
867.60 0.2615867
867.70 0.2614992
867.80 0.2614118
867.90 0.2613244
868.00 0.261237
868.10 0.2611496
868.20 0.2610623
868.30 0.2609751
868.40 0.2608878
868.50 0.2608006
868.60 0.2607134
868.70 0.2606263
868.80 0.2605392
868.90 0.2604521
869.00 0.2603651
869.10 0.2602781
869.20 0.2601911
869.30 0.2601042
869.40 0.2600173
869.50 0.2599304
869.60 0.2598435
869.70 0.2597567
869.80 0.25967
869.90 0.2595832
870.00 0.2594965
870.10 0.2594098
870.20 0.2593232
870.30 0.2592366
870.40 0.25915
870.50 0.2590635
870.60 0.2589769
870.70 0.2588905
870.80 0.258804
870.90 0.2587168
871.00 0.2586295
871.10 0.2585423
871.20 0.2584551
871.30 0.2583679
871.40 0.2582808
871.50 0.2581936
871.60 0.2581066
871.70 0.2580195
871.80 0.2579325
871.90 0.2578455
872.00 0.2577586
872.10 0.2576717
872.20 0.2575848
872.30 0.257498
872.40 0.2574112
872.50 0.2573244
872.60 0.2572376
872.70 0.2571509
872.80 0.2570642
872.90 0.2569776
873.00 0.256891
873.10 0.2568044
873.20 0.2567179
873.30 0.2566313
873.40 0.2565449
873.50 0.2564584
873.60 0.256372
873.70 0.2562856
873.80 0.2561993
873.90 0.256113
874.00 0.2560267
874.10 0.2559404
874.20 0.2558542
874.30 0.255768
874.40 0.2556819
874.50 0.2555957
874.60 0.2555097
874.70 0.2554236
874.80 0.2553376
874.90 0.2552516
875.00 0.2551656
875.10 0.2550797
875.20 0.2549938
875.30 0.254908
875.40 0.2548221
875.50 0.2547363
875.60 0.2546506
875.70 0.2545648
875.80 0.2544791
875.90 0.2543935
876.00 0.2543078
876.10 0.2542222
876.20 0.2541367
876.30 0.2540511
876.40 0.2539656
876.50 0.2538802
876.60 0.2537947
876.70 0.2537093
876.80 0.253624
876.90 0.2535386
877.00 0.2534533
877.10 0.253368
877.20 0.2532828
877.30 0.2531976
877.40 0.2531124
877.50 0.2530273
877.60 0.2529421
877.70 0.2528571
877.80 0.252772
877.90 0.252687
878.00 0.252602
878.10 0.2525171
878.20 0.2524321
878.30 0.2523473
878.40 0.2522624
878.50 0.2521776
878.60 0.2520928
878.70 0.252008
878.80 0.2519233
878.90 0.2518386
879.00 0.2517539
879.10 0.2516693
879.20 0.2515847
879.30 0.2515001
879.40 0.2514156
879.50 0.2513311
879.60 0.2512487
879.70 0.2511668
879.80 0.2510849
879.90 0.251003
880.00 0.2509212
880.10 0.2508394
880.20 0.2507577
880.30 0.2506759
880.40 0.2505942
880.50 0.2505126
880.60 0.2504309
880.70 0.2503493
880.80 0.2502677
880.90 0.2501862
881.00 0.2501047
881.10 0.2500232
881.20 0.2499418
881.30 0.2498603
881.40 0.2497789
881.50 0.2496976
881.60 0.2496162
881.70 0.2495349
881.80 0.2494537
881.90 0.2493724
882.00 0.2492912
882.10 0.24921
882.20 0.2491289
882.30 0.2490478
882.40 0.2489667
882.50 0.2488856
882.60 0.2488046
882.70 0.2487236
882.80 0.2486426
882.90 0.2485617
883.00 0.2484808
883.10 0.2483999
883.20 0.2483191
883.30 0.2482382
883.40 0.2481575
883.50 0.2480767
883.60 0.247996
883.70 0.2479153
883.80 0.2478346
883.90 0.247754
884.00 0.2476715
884.10 0.2475887
884.20 0.2475059
884.30 0.2474232
884.40 0.2473404
884.50 0.2472578
884.60 0.2471751
884.70 0.2470925
884.80 0.2470099
884.90 0.2469273
885.00 0.2468448
885.10 0.2467623
885.20 0.2466798
885.30 0.2465974
885.40 0.246515
885.50 0.2464326
885.60 0.2463502
885.70 0.2462679
885.80 0.2461856
885.90 0.2461034
886.00 0.2460212
886.10 0.245939
886.20 0.2458568
886.30 0.2457747
886.40 0.2456926
886.50 0.2456105
886.60 0.2455285
886.70 0.2454465
886.80 0.2453645
886.90 0.2452825
887.00 0.2452006
887.10 0.2451187
887.20 0.2450369
887.30 0.2449551
887.40 0.2448733
887.50 0.2447915
887.60 0.2447098
887.70 0.2446281
887.80 0.2445464
887.90 0.2444648
888.00 0.2443832
888.10 0.2443016
888.20 0.24422
888.30 0.2441385
888.40 0.2440573
888.50 0.2439761
888.60 0.2438949
888.70 0.2438138
888.80 0.2437327
888.90 0.2436516
889.00 0.2435706
889.10 0.2434896
889.20 0.2434086
889.30 0.2433276
889.40 0.2432467
889.50 0.2431658
889.60 0.243085
889.70 0.2430042
889.80 0.2429234
889.90 0.2428426
890.00 0.2427619
890.10 0.2426811
890.20 0.2426005
890.30 0.2425198
890.40 0.2424392
890.50 0.2423586
890.60 0.2422781
890.70 0.2421975
890.80 0.242117
890.90 0.2420366
891.00 0.2419561
891.10 0.2418757
891.20 0.2417954
891.30 0.241715
891.40 0.2416347
891.50 0.2415544
891.60 0.2414742
891.70 0.2413939
891.80 0.2413137
891.90 0.2412336
892.00 0.2411534
892.10 0.2410733
892.20 0.2409933
892.30 0.2409132
892.40 0.2408332
892.50 0.2407532
892.60 0.2406732
892.70 0.2405933
892.80 0.2405134
892.90 0.2404336
893.00 0.2403537
893.10 0.2402739
893.20 0.2401941
893.30 0.2401144
893.40 0.2400347
893.50 0.239955
893.60 0.2398753
893.70 0.2397957
893.80 0.2397161
893.90 0.2396365
894.00 0.239557
894.10 0.2394775
894.20 0.239398
894.30 0.2393185
894.40 0.2392391
894.50 0.2391597
894.60 0.2390803
894.70 0.239001
894.80 0.2389217
894.90 0.2388424
895.00 0.2387632
895.10 0.238684
895.20 0.2386048
895.30 0.2385256
895.40 0.2384465
895.50 0.2383674
895.60 0.2382883
895.70 0.2382093
895.80 0.2381303
895.90 0.2380513
896.00 0.2379723
896.10 0.2378934
896.20 0.2378145
896.30 0.2377356
896.40 0.2376568
896.50 0.237578
896.60 0.2374992
896.70 0.2374205
896.80 0.2373418
896.90 0.2372631
897.00 0.2371844
897.10 0.2371058
897.20 0.2370272
897.30 0.2369489
897.40 0.2368706
897.50 0.2367923
897.60 0.2367141
897.70 0.2366359
897.80 0.2365577
897.90 0.2364796
898.00 0.2364015
898.10 0.2363234
898.20 0.2362453
898.30 0.2361673
898.40 0.2360893
898.50 0.2360113
898.60 0.2359334
898.70 0.2358555
898.80 0.2357776
898.90 0.2356997
899.00 0.2356219
899.10 0.2355441
899.20 0.2354663
899.30 0.2353886
899.40 0.2353109
899.50 0.2352332
899.60 0.2351556
899.70 0.2350779
899.80 0.2350003
899.90 0.2349228
900.00 0.2348452
900.10 0.2347677
900.20 0.2346902
900.30 0.2346128
900.40 0.2345354
900.50 0.234458
900.60 0.2343806
900.70 0.2343033
900.80 0.234226
900.90 0.2341487
901.00 0.2340714
901.10 0.2339942
901.20 0.233917
901.30 0.2338398
901.40 0.2337627
901.50 0.2336856
901.60 0.2336085
901.70 0.2335318
901.80 0.2334569
901.90 0.233382
902.00 0.2333072
902.10 0.2332323
902.20 0.2331575
902.30 0.2330827
902.40 0.233008
902.50 0.2329332
902.60 0.2328585
902.70 0.2327839
902.80 0.2327092
902.90 0.2326346
903.00 0.23256
903.10 0.2324854
903.20 0.2324109
903.30 0.2323364
903.40 0.2322619
903.50 0.2321874
903.60 0.232113
903.70 0.2320386
903.80 0.2319642
903.90 0.2318899
904.00 0.2318156
904.10 0.2317413
904.20 0.231667
904.30 0.2315928
904.40 0.2315186
904.50 0.2314444
904.60 0.2313702
904.70 0.2312961
904.80 0.231222
904.90 0.2311479
905.00 0.2310739
905.10 0.2309998
905.20 0.2309259
905.30 0.2308519
905.40 0.2307779
905.50 0.230704
905.60 0.2306301
905.70 0.2305563
905.80 0.2304825
905.90 0.2304086
906.00 0.2303349
906.10 0.2302611
906.20 0.2301868
906.30 0.2301113
906.40 0.2300358
906.50 0.2299603
906.60 0.2298849
906.70 0.2298094
906.80 0.229734
906.90 0.2296587
907.00 0.2295833
907.10 0.229508
907.20 0.2294327
907.30 0.2293575
907.40 0.2292823
907.50 0.2292071
907.60 0.2291319
907.70 0.2290567
907.80 0.2289816
907.90 0.2289065
908.00 0.2288315
908.10 0.2287564
908.20 0.2286814
908.30 0.2286065
908.40 0.2285315
908.50 0.2284566
908.60 0.2283817
908.70 0.2283068
908.80 0.228232
908.90 0.2281572
909.00 0.2280824
909.10 0.2280076
909.20 0.2279329
909.30 0.2278582
909.40 0.2277835
909.50 0.2277089
909.60 0.2276342
909.70 0.2275596
909.80 0.2274851
909.90 0.2274105
910.00 0.227336
910.10 0.2272615
910.20 0.2271871
910.30 0.2271126
910.40 0.2270382
910.50 0.2269638
910.60 0.2268895
910.70 0.2268152
910.80 0.2267409
910.90 0.2266666
911.00 0.2265924
911.10 0.2265182
911.20 0.226444
911.30 0.2263698
911.40 0.2262957
911.50 0.2262216
911.60 0.2261475
911.70 0.2260734
911.80 0.2259994
911.90 0.2259254
912.00 0.2258514
912.10 0.2257775
912.20 0.2257036
912.30 0.2256297
912.40 0.2255558
912.50 0.225482
912.60 0.2254082
912.70 0.2253344
912.80 0.2252606
912.90 0.2251869
913.00 0.2251132
913.10 0.2250395
913.20 0.2249659
913.30 0.2248923
913.40 0.2248187
913.50 0.2247451
913.60 0.2246716
913.70 0.2245981
913.80 0.2245246
913.90 0.2244511
914.00 0.2243777
914.10 0.2243043
914.20 0.2242309
914.30 0.2241575
914.40 0.2240842
914.50 0.2240109
914.60 0.2239376
914.70 0.2238644
914.80 0.2237912
914.90 0.223718
915.00 0.2236448
915.10 0.2235717
915.20 0.2234986
915.30 0.2234256
915.40 0.2233528
915.50 0.22328
915.60 0.2232073
915.70 0.2231345
915.80 0.2230618
915.90 0.2229891
916.00 0.2229164
916.10 0.2228438
916.20 0.2227712
916.30 0.2226986
916.40 0.2226261
916.50 0.2225535
916.60 0.222481
916.70 0.2224085
916.80 0.2223361
916.90 0.2222637
917.00 0.2221913
917.10 0.2221189
917.20 0.2220466
917.30 0.2219742
917.40 0.2219019
917.50 0.2218297
917.60 0.2217574
917.70 0.2216852
917.80 0.221613
917.90 0.2215409
918.00 0.2214687
918.10 0.2213966
918.20 0.2213245
918.30 0.2212525
918.40 0.2211804
918.50 0.2211084
918.60 0.2210365
918.70 0.2209645
918.80 0.2208926
918.90 0.2208207
919.00 0.2207488
919.10 0.2206769
919.20 0.2206051
919.30 0.2205333
919.40 0.2204616
919.50 0.2203898
919.60 0.2203181
919.70 0.2202464
919.80 0.2201747
919.90 0.2201031
920.00 0.2200315
920.10 0.2199599
920.20 0.2198883
920.30 0.2198168
920.40 0.2197453
920.50 0.2196738
920.60 0.2196023
920.70 0.2195309
920.80 0.2194595
920.90 0.2193881
921.00 0.2193167
921.10 0.2192454
921.20 0.2191741
921.30 0.2191028
921.40 0.2190316
921.50 0.2189603
921.60 0.2188891
921.70 0.218818
921.80 0.2187468
921.90 0.2186757
922.00 0.2186046
922.10 0.2185335
922.20 0.2184625
922.30 0.2183914
922.40 0.2183205
922.50 0.2182495
922.60 0.2181785
922.70 0.2181076
922.80 0.2180367
922.90 0.2179659
923.00 0.217895
923.10 0.2178242
923.20 0.2177534
923.30 0.2176826
923.40 0.2176119
923.50 0.2175412
923.60 0.2174705
923.70 0.2173998
923.80 0.2173292
923.90 0.2172586
924.00 0.217188
924.10 0.2171174
924.20 0.2170469
924.30 0.2169764
924.40 0.2169059
924.50 0.2168357
924.60 0.2167655
924.70 0.2166953
924.80 0.2166252
924.90 0.2165551
925.00 0.216485
925.10 0.2164149
925.20 0.2163448
925.30 0.2162748
925.40 0.2162048
925.50 0.2161348
925.60 0.2160649
925.70 0.215995
925.80 0.2159251
925.90 0.2158552
926.00 0.2157854
926.10 0.2157155
926.20 0.2156457
926.30 0.215576
926.40 0.2155062
926.50 0.2154365
926.60 0.2153668
926.70 0.2152971
926.80 0.2152275
926.90 0.2151579
927.00 0.2150883
927.10 0.2150187
927.20 0.2149491
927.30 0.2148796
927.40 0.2148101
927.50 0.2147406
927.60 0.2146712
927.70 0.2146018
927.80 0.2145324
927.90 0.214463
928.00 0.2143937
928.10 0.2143243
928.20 0.214255
928.30 0.2141858
928.40 0.2141165
928.50 0.2140473
928.60 0.2139781
928.70 0.2139089
928.80 0.2138398
928.90 0.2137707
929.00 0.2137016
929.10 0.2136325
929.20 0.2135634
929.30 0.2134944
929.40 0.2134254
929.50 0.2133564
929.60 0.2132875
929.70 0.2132186
929.80 0.2131497
929.90 0.2130808
930.00 0.2130119
930.10 0.2129431
930.20 0.2128743
930.30 0.2128055
930.40 0.2127368
930.50 0.2126681
930.60 0.2125993
930.70 0.2125307
930.80 0.212462
930.90 0.2123934
931.00 0.2123248
931.10 0.2122562
931.20 0.2121876
931.30 0.2121191
931.40 0.2120506
931.50 0.2119821
931.60 0.2119137
931.70 0.2118452
931.80 0.2117768
931.90 0.2117084
932.00 0.2116401
932.10 0.2115718
932.20 0.2115034
932.30 0.2114352
932.40 0.2113669
932.50 0.2112987
932.60 0.2112304
932.70 0.2111623
932.80 0.2110941
932.90 0.2110259
933.00 0.2109578
933.10 0.2108897
933.20 0.2108217
933.30 0.2107536
933.40 0.2106856
933.50 0.2106176
933.60 0.2105497
933.70 0.2104819
933.80 0.2104142
933.90 0.2103465
934.00 0.2102789
934.10 0.2102112
934.20 0.2101436
934.30 0.2100761
934.40 0.2100085
934.50 0.209941
934.60 0.2098735
934.70 0.209806
934.80 0.2097385
934.90 0.2096711
935.00 0.2096037
935.10 0.2095363
935.20 0.209469
935.30 0.2094016
935.40 0.2093343
935.50 0.209267
935.60 0.2091998
935.70 0.2091325
935.80 0.2090653
935.90 0.2089981
936.00 0.208931
936.10 0.2088638
936.20 0.2087967
936.30 0.2087296
936.40 0.2086625
936.50 0.2085955
936.60 0.2085285
936.70 0.2084615
936.80 0.2083945
936.90 0.2083275
937.00 0.2082606
937.10 0.2081937
937.20 0.2081268
937.30 0.20806
937.40 0.2079931
937.50 0.2079263
937.60 0.2078595
937.70 0.2077928
937.80 0.207726
937.90 0.2076593
938.00 0.2075926
938.10 0.207526
938.20 0.2074593
938.30 0.2073927
938.40 0.2073261
938.50 0.2072595
938.60 0.207193
938.70 0.2071265
938.80 0.20706
938.90 0.2069935
939.00 0.206927
939.10 0.2068606
939.20 0.2067942
939.30 0.2067278
939.40 0.2066615
939.50 0.2065951
939.60 0.2065288
939.70 0.2064625
939.80 0.2063963
939.90 0.20633
940.00 0.2062638
940.10 0.2061976
940.20 0.2061314
940.30 0.2060653
940.40 0.2059992
940.50 0.2059331
940.60 0.205867
940.70 0.2058009
940.80 0.2057349
940.90 0.2056689
941.00 0.2056029
941.10 0.205537
941.20 0.205471
941.30 0.2054051
941.40 0.2053392
941.50 0.2052734
941.60 0.2052075
941.70 0.2051417
941.80 0.2050759
941.90 0.2050101
942.00 0.2049444
942.10 0.2048786
942.20 0.2048129
942.30 0.2047473
942.40 0.2046816
942.50 0.204616
942.60 0.2045504
942.70 0.2044848
942.80 0.2044192
942.90 0.2043537
943.00 0.2042882
943.10 0.204223
943.20 0.2041577
943.30 0.2040925
943.40 0.2040273
943.50 0.2039621
943.60 0.2038969
943.70 0.2038318
943.80 0.2037667
943.90 0.2037016
944.00 0.2036365
944.10 0.2035715
944.20 0.2035065
944.30 0.2034415
944.40 0.2033765
944.50 0.2033116
944.60 0.2032466
944.70 0.2031817
944.80 0.2031168
944.90 0.203052
945.00 0.2029871
945.10 0.2029223
945.20 0.2028575
945.30 0.2027928
945.40 0.202728
945.50 0.2026633
945.60 0.2025986
945.70 0.2025339
945.80 0.2024693
945.90 0.2024047
946.00 0.20234
946.10 0.2022755
946.20 0.2022109
946.30 0.2021464
946.40 0.2020818
946.50 0.2020173
946.60 0.2019529
946.70 0.2018884
946.80 0.201824
946.90 0.2017596
947.00 0.2016952
947.10 0.2016309
947.20 0.2015665
947.30 0.2015022
947.40 0.2014379
947.50 0.2013737
947.60 0.2013094
947.70 0.2012452
947.80 0.201181
947.90 0.2011168
948.00 0.2010527
948.10 0.2009885
948.20 0.2009244
948.30 0.2008603
948.40 0.2007963
948.50 0.2007322
948.60 0.2006682
948.70 0.2006042
948.80 0.2005402
948.90 0.2004763
949.00 0.2004124
949.10 0.2003485
949.20 0.2002846
949.30 0.2002207
949.40 0.2001569
949.50 0.2000931
949.60 0.2000293
949.70 0.1999655
949.80 0.1999018
949.90 0.199838
950.00 0.1997743
950.10 0.1997106
950.20 0.199647
950.30 0.1995833
950.40 0.1995197
950.50 0.1994561
950.60 0.1993926
950.70 0.199329
950.80 0.1992655
950.90 0.199202
951.00 0.1991385
951.10 0.1990751
951.20 0.1990116
951.30 0.1989482
951.40 0.1988848
951.50 0.1988214
951.60 0.1987581
951.70 0.1986948
951.80 0.1986315
951.90 0.1985682
952.00 0.1985049
952.10 0.1984417
952.20 0.1983785
952.30 0.1983153
952.40 0.1982521
952.50 0.1981892
952.60 0.1981263
952.70 0.1980634
952.80 0.1980005
952.90 0.1979377
953.00 0.1978749
953.10 0.1978121
953.20 0.1977493
953.30 0.1976865
953.40 0.1976238
953.50 0.1975611
953.60 0.1974984
953.70 0.1974357
953.80 0.1973731
953.90 0.1973104
954.00 0.1972478
954.10 0.1971852
954.20 0.1971227
954.30 0.1970601
954.40 0.1969976
954.50 0.1969351
954.60 0.1968727
954.70 0.1968102
954.80 0.1967478
954.90 0.1966854
955.00 0.196623
955.10 0.1965606
955.20 0.1964983
955.30 0.196436
955.40 0.1963737
955.50 0.1963114
955.60 0.1962491
955.70 0.1961869
955.80 0.1961247
955.90 0.1960625
956.00 0.1960003
956.10 0.1959382
956.20 0.195876
956.30 0.1958139
956.40 0.1957519
956.50 0.1956898
956.60 0.1956278
956.70 0.1955657
956.80 0.1955038
956.90 0.1954418
957.00 0.1953798
957.10 0.1953179
957.20 0.195256
957.30 0.1951941
957.40 0.1951322
957.50 0.1950704
957.60 0.1950086
957.70 0.1949468
957.80 0.194885
957.90 0.1948232
958.00 0.1947615
958.10 0.1946998
958.20 0.1946381
958.30 0.1945764
958.40 0.1945148
958.50 0.1944531
958.60 0.1943915
958.70 0.1943299
958.80 0.1942684
958.90 0.1942068
959.00 0.1941453
959.10 0.1940838
959.20 0.1940223
959.30 0.1939609
959.40 0.1938995
959.50 0.193838
959.60 0.1937766
959.70 0.1937153
959.80 0.1936539
959.90 0.1935926
960.00 0.1935313
960.10 0.19347
960.20 0.1934087
960.30 0.1933475
960.40 0.1932863
960.50 0.1932251
960.60 0.1931639
960.70 0.1931027
960.80 0.1930416
960.90 0.1929805
961.00 0.1929194
961.10 0.1928583
961.20 0.1927973
961.30 0.1927362
961.40 0.1926752
961.50 0.1926142
961.60 0.1925533
961.70 0.1924923
961.80 0.1924314
961.90 0.1923705
962.00 0.1923098
962.10 0.1922491
962.20 0.1921885
962.30 0.1921279
962.40 0.1920673
962.50 0.1920067
962.60 0.1919462
962.70 0.1918856
962.80 0.1918251
962.90 0.1917647
963.00 0.1917042
963.10 0.1916437
963.20 0.1915833
963.30 0.1915229
963.40 0.1914625
963.50 0.1914022
963.60 0.1913418
963.70 0.1912815
963.80 0.1912212
963.90 0.1911609
964.00 0.1911007
964.10 0.1910404
964.20 0.1909802
964.30 0.19092
964.40 0.1908599
964.50 0.1907997
964.60 0.1907396
964.70 0.1906795
964.80 0.1906194
964.90 0.1905593
965.00 0.1904993
965.10 0.1904392
965.20 0.1903792
965.30 0.1903193
965.40 0.1902593
965.50 0.1901993
965.60 0.1901394
965.70 0.1900795
965.80 0.1900196
965.90 0.1899598
966.00 0.1898999
966.10 0.1898401
966.20 0.1897803
966.30 0.1897205
966.40 0.1896608
966.50 0.189601
966.60 0.1895413
966.70 0.1894816
966.80 0.189422
966.90 0.1893623
967.00 0.1893027
967.10 0.1892431
967.20 0.1891835
967.30 0.1891239
967.40 0.1890643
967.50 0.1890048
967.60 0.1889453
967.70 0.1888858
967.80 0.1888263
967.90 0.1887669
968.00 0.1887075
968.10 0.1886481
968.20 0.1885887
968.30 0.1885293
968.40 0.18847
968.50 0.1884106
968.60 0.1883513
968.70 0.188292
968.80 0.1882328
968.90 0.1881735
969.00 0.1881143
969.10 0.1880551
969.20 0.1879959
969.30 0.1879368
969.40 0.1878776
969.50 0.1878185
969.60 0.1877594
969.70 0.1877003
969.80 0.1876413
969.90 0.1875822
970.00 0.1875232
970.10 0.1874642
970.20 0.1874052
970.30 0.1873463
970.40 0.1872873
970.50 0.1872284
970.60 0.1871695
970.70 0.1871106
970.80 0.1870518
970.90 0.186993
971.00 0.1869341
971.10 0.1868753
971.20 0.1868166
971.30 0.1867578
971.40 0.1866991
971.50 0.1866404
971.60 0.1865818
971.70 0.1865233
971.80 0.1864649
971.90 0.1864064
972.00 0.186348
972.10 0.1862896
972.20 0.1862313
972.30 0.1861729
972.40 0.1861146
972.50 0.1860563
972.60 0.185998
972.70 0.1859397
972.80 0.1858814
972.90 0.1858232
973.00 0.185765
973.10 0.1857068
973.20 0.1856486
973.30 0.1855905
973.40 0.1855323
973.50 0.1854742
973.60 0.1854161
973.70 0.1853581
973.80 0.1853
973.90 0.185242
974.00 0.185184
974.10 0.185126
974.20 0.185068
974.30 0.18501
974.40 0.1849521
974.50 0.1848942
974.60 0.1848363
974.70 0.1847784
974.80 0.1847206
974.90 0.1846627
975.00 0.1846049
975.10 0.1845471
975.20 0.1844893
975.30 0.1844316
975.40 0.1843739
975.50 0.1843161
975.60 0.1842584
975.70 0.1842008
975.80 0.1841431
975.90 0.1840855
976.00 0.1840279
976.10 0.1839703
976.20 0.1839127
976.30 0.1838551
976.40 0.1837976
976.50 0.1837401
976.60 0.1836826
976.70 0.1836251
976.80 0.1835676
976.90 0.1835102
977.00 0.1834528
977.10 0.1833954
977.20 0.183338
977.30 0.1832806
977.40 0.1832233
977.50 0.183166
977.60 0.1831087
977.70 0.1830514
977.80 0.1829941
977.90 0.1829369
978.00 0.1828797
978.10 0.1828225
978.20 0.1827653
978.30 0.1827081
978.40 0.182651
978.50 0.1825938
978.60 0.1825367
978.70 0.1824796
978.80 0.1824226
978.90 0.1823655
979.00 0.1823085
979.10 0.1822515
979.20 0.1821945
979.30 0.1821375
979.40 0.1820806
979.50 0.1820237
979.60 0.1819667
979.70 0.1819099
979.80 0.181853
979.90 0.1817961
980.00 0.1817393
980.10 0.1816825
980.20 0.1816257
980.30 0.1815689
980.40 0.1815122
980.50 0.1814554
980.60 0.1813987
980.70 0.181342
980.80 0.1812853
980.90 0.1812287
981.00 0.181172
981.10 0.1811154
981.20 0.1810588
981.30 0.1810019
981.40 0.1809447
981.50 0.1808876
981.60 0.1808304
981.70 0.1807733
981.80 0.1807162
981.90 0.1806591
982.00 0.1806021
982.10 0.180545
982.20 0.180488
982.30 0.180431
982.40 0.180374
982.50 0.1803171
982.60 0.1802601
982.70 0.1802032
982.80 0.1801463
982.90 0.1800894
983.00 0.1800325
983.10 0.1799757
983.20 0.1799189
983.30 0.1798621
983.40 0.1798053
983.50 0.1797485
983.60 0.1796918
983.70 0.179635
983.80 0.1795783
983.90 0.1795216
984.00 0.1794649
984.10 0.1794083
984.20 0.1793517
984.30 0.179295
984.40 0.1792385
984.50 0.1791819
984.60 0.1791253
984.70 0.1790688
984.80 0.1790123
984.90 0.1789558
985.00 0.1788993
985.10 0.1788428
985.20 0.1787864
985.30 0.17873
985.40 0.1786736
985.50 0.1786172
985.60 0.1785608
985.70 0.1785045
985.80 0.1784481
985.90 0.1783918
986.00 0.1783356
986.10 0.1782793
986.20 0.178223
986.30 0.1781668
986.40 0.1781106
986.50 0.1780544
986.60 0.1779982
986.70 0.1779421
986.80 0.1778859
986.90 0.1778298
987.00 0.1777737
987.10 0.1777177
987.20 0.1776616
987.30 0.1776056
987.40 0.1775495
987.50 0.1774935
987.60 0.1774376
987.70 0.1773816
987.80 0.1773256
987.90 0.1772697
988.00 0.1772138
988.10 0.1771579
988.20 0.1771021
988.30 0.1770462
988.40 0.1769904
988.50 0.1769346
988.60 0.1768788
988.70 0.176823
988.80 0.1767673
988.90 0.1767115
989.00 0.1766558
989.10 0.1766001
989.20 0.1765444
989.30 0.1764888
989.40 0.1764331
989.50 0.1763775
989.60 0.1763219
989.70 0.1762663
989.80 0.1762108
989.90 0.1761552
990.00 0.1760997
990.10 0.1760442
990.20 0.1759887
990.30 0.1759332
990.40 0.1758778
990.50 0.1758223
990.60 0.1757669
990.70 0.1757115
990.80 0.1756561
990.90 0.1756008
991.00 0.1755454
991.10 0.1754905
991.20 0.1754362
991.30 0.1753819
991.40 0.1753276
991.50 0.1752733
991.60 0.1752191
991.70 0.1751648
991.80 0.1751106
991.90 0.1750564
992.00 0.1750023
992.10 0.1749481
992.20 0.174894
992.30 0.1748399
992.40 0.1747858
992.50 0.1747317
992.60 0.1746776
992.70 0.1746236
992.80 0.1745696
992.90 0.1745155
993.00 0.1744616
993.10 0.1744076
993.20 0.1743536
993.30 0.1742997
993.40 0.1742458
993.50 0.1741919
993.60 0.174138
993.70 0.1740841
993.80 0.1740303
993.90 0.1739765
994.00 0.1739227
994.10 0.1738689
994.20 0.1738151
994.30 0.1737613
994.40 0.1737076
994.50 0.1736539
994.60 0.1736002
994.70 0.1735465
994.80 0.1734928
994.90 0.1734392
995.00 0.1733856
995.10 0.173332
995.20 0.1732784
995.30 0.1732248
995.40 0.1731712
995.50 0.1731177
995.60 0.1730642
995.70 0.1730107
995.80 0.1729572
995.90 0.1729037
996.00 0.1728503
996.10 0.1727969
996.20 0.1727435
996.30 0.1726901
996.40 0.1726367
996.50 0.1725833
996.60 0.17253
996.70 0.1724767
996.80 0.1724234
996.90 0.1723701
997.00 0.1723168
997.10 0.1722636
997.20 0.1722104
997.30 0.1721572
997.40 0.172104
997.50 0.1720508
997.60 0.1719976
997.70 0.1719445
997.80 0.1718914
997.90 0.1718383
998.00 0.1717852
998.10 0.1717321
998.20 0.1716791
998.30 0.171626
998.40 0.171573
998.50 0.17152
998.60 0.171467
998.70 0.1714141
998.80 0.1713611
998.90 0.1713082
999.00 0.1712553
999.10 0.1712024
999.20 0.1711495
999.30 0.1710967
999.40 0.1710439
999.50 0.170991
999.60 0.1709382
999.70 0.1708855
999.80 0.1708327
999.90 0.1707799
1000.00 0.1707272
1000.10 0.1706745
1000.20 0.1706218
1000.30 0.1705691
1000.40 0.1705165
1000.50 0.1704638
1000.60 0.1704112
1000.70 0.1703586
1000.80 0.170306
1000.90 0.1702534
1001.00 0.1702009
1001.10 0.1701486
1001.20 0.1700962
1001.30 0.1700439
1001.40 0.1699916
1001.50 0.1699393
1001.60 0.1698871
1001.70 0.1698348
1001.80 0.1697826
1001.90 0.1697304
1002.00 0.1696782
1002.10 0.169626
1002.20 0.1695738
1002.30 0.1695217
1002.40 0.1694695
1002.50 0.1694174
1002.60 0.1693653
1002.70 0.1693133
1002.80 0.1692612
1002.90 0.1692092
1003.00 0.1691571
1003.10 0.1691051
1003.20 0.1690532
1003.30 0.1690012
1003.40 0.1689492
1003.50 0.1688973
1003.60 0.1688454
1003.70 0.1687935
1003.80 0.1687416
1003.90 0.1686897
1004.00 0.1686379
1004.10 0.168586
1004.20 0.1685342
1004.30 0.1684824
1004.40 0.1684306
1004.50 0.1683789
1004.60 0.1683271
1004.70 0.1682754
1004.80 0.1682237
1004.90 0.168172
1005.00 0.1681203
1005.10 0.1680687
1005.20 0.168017
1005.30 0.1679654
1005.40 0.1679138
1005.50 0.1678622
1005.60 0.1678106
1005.70 0.1677591
1005.80 0.1677075
1005.90 0.167656
1006.00 0.1676045
1006.10 0.167553
1006.20 0.1675015
1006.30 0.1674501
1006.40 0.1673986
1006.50 0.1673472
1006.60 0.1672958
1006.70 0.1672444
1006.80 0.167193
1006.90 0.1671417
1007.00 0.1670904
1007.10 0.167039
1007.20 0.1669877
1007.30 0.1669364
1007.40 0.1668852
1007.50 0.1668339
1007.60 0.1667827
1007.70 0.1667315
1007.80 0.1666803
1007.90 0.1666291
1008.00 0.1665779
1008.10 0.1665268
1008.20 0.1664756
1008.30 0.1664245
1008.40 0.1663734
1008.50 0.1663223
1008.60 0.1662713
1008.70 0.1662202
1008.80 0.1661692
1008.90 0.1661182
1009.00 0.1660672
1009.10 0.1660162
1009.20 0.1659652
1009.30 0.1659143
1009.40 0.1658634
1009.50 0.1658125
1009.60 0.1657616
1009.70 0.1657107
1009.80 0.1656598
1009.90 0.165609
1010.00 0.1655582
1010.10 0.1655073
1010.20 0.1654565
1010.30 0.1654058
1010.40 0.165355
1010.50 0.1653043
1010.60 0.1652535
1010.70 0.1652028
1010.80 0.1651521
1010.90 0.1651015
1011.00 0.1650508
1011.10 0.1650004
1011.20 0.1649499
1011.30 0.1648995
1011.40 0.1648491
1011.50 0.1647987
1011.60 0.1647483
1011.70 0.164698
1011.80 0.1646476
1011.90 0.1645973
1012.00 0.164547
1012.10 0.1644967
1012.20 0.1644464
1012.30 0.1643962
1012.40 0.1643459
1012.50 0.1642957
1012.60 0.1642455
1012.70 0.1641953
1012.80 0.1641451
1012.90 0.1640949
1013.00 0.1640448
1013.10 0.1639947
1013.20 0.1639446
1013.30 0.1638945
1013.40 0.1638444
1013.50 0.1637943
1013.60 0.1637443
1013.70 0.1636943
1013.80 0.1636442
1013.90 0.1635942
1014.00 0.1635443
1014.10 0.1634943
1014.20 0.1634444
1014.30 0.1633944
1014.40 0.1633445
1014.50 0.1632946
1014.60 0.1632447
1014.70 0.1631949
1014.80 0.163145
1014.90 0.1630952
1015.00 0.1630454
1015.10 0.1629956
1015.20 0.1629458
1015.30 0.162896
1015.40 0.1628463
1015.50 0.1627966
1015.60 0.1627469
1015.70 0.1626972
1015.80 0.1626475
1015.90 0.1625978
1016.00 0.1625482
1016.10 0.1624985
1016.20 0.1624489
1016.30 0.1623993
1016.40 0.1623497
1016.50 0.1623002
1016.60 0.1622506
1016.70 0.1622011
1016.80 0.1621516
1016.90 0.1621021
1017.00 0.1620526
1017.10 0.1620031
1017.20 0.1619537
1017.30 0.1619042
1017.40 0.1618548
1017.50 0.1618054
1017.60 0.161756
1017.70 0.1617066
1017.80 0.1616573
1017.90 0.1616079
1018.00 0.1615586
1018.10 0.1615093
1018.20 0.16146
1018.30 0.1614107
1018.40 0.1613615
1018.50 0.1613122
1018.60 0.161263
1018.70 0.1612138
1018.80 0.1611646
1018.90 0.1611154
1019.00 0.1610663
1019.10 0.1610171
1019.20 0.160968
1019.30 0.1609189
1019.40 0.1608698
1019.50 0.1608207
1019.60 0.1607717
1019.70 0.1607226
1019.80 0.1606736
1019.90 0.1606246
1020.00 0.1605756
1020.10 0.1605266
1020.20 0.1604776
1020.30 0.1604287
1020.40 0.1603797
1020.50 0.1603308
1020.60 0.1602819
1020.70 0.160233
1020.80 0.1601842
1020.90 0.1601353
1021.00 0.1600865
1021.10 0.1600377
1021.20 0.159989
1021.30 0.1599404
1021.40 0.1598918
1021.50 0.1598432
1021.60 0.1597947
1021.70 0.1597461
1021.80 0.1596976
1021.90 0.1596491
1022.00 0.1596006
1022.10 0.1595521
1022.20 0.1595036
1022.30 0.1594551
1022.40 0.1594067
1022.50 0.1593583
1022.60 0.1593099
1022.70 0.1592615
1022.80 0.1592131
1022.90 0.1591647
1023.00 0.1591164
1023.10 0.1590681
1023.20 0.1590198
1023.30 0.1589715
1023.40 0.1589232
1023.50 0.1588749
1023.60 0.1588267
1023.70 0.1587784
1023.80 0.1587302
1023.90 0.158682
1024.00 0.1586338
1024.10 0.1585857
1024.20 0.1585375
1024.30 0.1584894
1024.40 0.1584412
1024.50 0.1583931
1024.60 0.158345
1024.70 0.158297
1024.80 0.1582489
1024.90 0.1582009
1025.00 0.1581528
1025.10 0.1581048
1025.20 0.1580568
1025.30 0.1580088
1025.40 0.1579609
1025.50 0.1579129
1025.60 0.157865
1025.70 0.1578171
1025.80 0.1577692
1025.90 0.1577213
1026.00 0.1576734
1026.10 0.1576256
1026.20 0.1575777
1026.30 0.1575299
1026.40 0.1574821
1026.50 0.1574343
1026.60 0.1573865
1026.70 0.1573387
1026.80 0.157291
1026.90 0.1572433
1027.00 0.1571955
1027.10 0.1571478
1027.20 0.1571001
1027.30 0.1570525
1027.40 0.1570048
1027.50 0.1569572
1027.60 0.1569096
1027.70 0.1568619
1027.80 0.1568143
1027.90 0.1567668
1028.00 0.1567192
1028.10 0.1566717
1028.20 0.1566241
1028.30 0.1565766
1028.40 0.1565291
1028.50 0.1564816
1028.60 0.1564342
1028.70 0.1563867
1028.80 0.1563393
1028.90 0.1562918
1029.00 0.1562444
1029.10 0.156197
1029.20 0.1561497
1029.30 0.1561023
1029.40 0.156055
1029.50 0.1560076
1029.60 0.1559603
1029.70 0.155913
1029.80 0.1558657
1029.90 0.1558185
1030.00 0.1557712
1030.10 0.155724
1030.20 0.1556767
1030.30 0.1556295
1030.40 0.1555823
1030.50 0.1555352
1030.60 0.155488
1030.70 0.1554409
1030.80 0.1553937
1030.90 0.1553466
1031.00 0.1552995
1031.10 0.1552524
1031.20 0.1552054
1031.30 0.1551583
1031.40 0.1551114
1031.50 0.1550646
1031.60 0.1550178
1031.70 0.1549709
1031.80 0.1549241
1031.90 0.1548773
1032.00 0.1548306
1032.10 0.1547838
1032.20 0.1547371
1032.30 0.1546903
1032.40 0.1546436
1032.50 0.1545969
1032.60 0.1545502
1032.70 0.1545036
1032.80 0.1544569
1032.90 0.1544103
1033.00 0.1543636
1033.10 0.154317
1033.20 0.1542704
1033.30 0.1542239
1033.40 0.1541773
1033.50 0.1541307
1033.60 0.1540842
1033.70 0.1540377
1033.80 0.1539912
1033.90 0.1539447
1034.00 0.1538982
1034.10 0.1538518
1034.20 0.1538053
1034.30 0.1537589
1034.40 0.1537125
1034.50 0.1536661
1034.60 0.1536197
1034.70 0.1535734
1034.80 0.153527
1034.90 0.1534807
1035.00 0.1534343
1035.10 0.153388
1035.20 0.1533417
1035.30 0.1532955
1035.40 0.1532492
1035.50 0.153203
1035.60 0.1531567
1035.70 0.1531105
1035.80 0.1530643
1035.90 0.1530181
1036.00 0.1529719
1036.10 0.1529258
1036.20 0.1528797
1036.30 0.1528335
1036.40 0.1527874
1036.50 0.1527413
1036.60 0.1526952
1036.70 0.1526492
1036.80 0.1526031
1036.90 0.1525571
1037.00 0.152511
1037.10 0.152465
1037.20 0.152419
1037.30 0.1523731
1037.40 0.1523271
1037.50 0.1522811
1037.60 0.1522352
1037.70 0.1521893
1037.80 0.1521434
1037.90 0.1520975
1038.00 0.1520516
1038.10 0.1520057
1038.20 0.1519599
1038.30 0.1519141
1038.40 0.1518682
1038.50 0.1518224
1038.60 0.1517767
1038.70 0.1517309
1038.80 0.1516851
1038.90 0.1516394
1039.00 0.1515937
1039.10 0.1515479
1039.20 0.1515022
1039.30 0.1514566
1039.40 0.1514109
1039.50 0.1513652
1039.60 0.1513196
1039.70 0.151274
1039.80 0.1512284
1039.90 0.1511828
1040.00 0.1511372
1040.10 0.1510916
1040.20 0.1510461
1040.30 0.1510005
1040.40 0.150955
1040.50 0.1509095
1040.60 0.150864
1040.70 0.1508185
1040.80 0.1507731
1040.90 0.1507276
1041.00 0.1506822
1041.10 0.1506368
1041.20 0.1505914
1041.30 0.150546
1041.40 0.1505006
1041.50 0.1504552
1041.60 0.1504099
1041.70 0.1503647
1041.80 0.1503195
1041.90 0.1502744
1042.00 0.1502293
1042.10 0.1501842
1042.20 0.1501391
1042.30 0.150094
1042.40 0.1500489
1042.50 0.1500039
1042.60 0.1499589
1042.70 0.1499138
1042.80 0.1498688
1042.90 0.1498238
1043.00 0.1497789
1043.10 0.1497339
1043.20 0.1496889
1043.30 0.149644
1043.40 0.1495991
1043.50 0.1495542
1043.60 0.1495093
1043.70 0.1494644
1043.80 0.1494196
1043.90 0.1493747
1044.00 0.1493299
1044.10 0.1492851
1044.20 0.1492403
1044.30 0.1491955
1044.40 0.1491507
1044.50 0.1491059
1044.60 0.1490612
1044.70 0.1490164
1044.80 0.1489717
1044.90 0.148927
1045.00 0.1488823
1045.10 0.1488377
1045.20 0.148793
1045.30 0.1487484
1045.40 0.1487037
1045.50 0.1486591
1045.60 0.1486145
1045.70 0.1485699
1045.80 0.1485253
1045.90 0.1484808
1046.00 0.1484362
1046.10 0.1483917
1046.20 0.1483472
1046.30 0.1483027
1046.40 0.1482582
1046.50 0.1482137
1046.60 0.1481693
1046.70 0.1481248
1046.80 0.1480804
1046.90 0.148036
1047.00 0.1479916
1047.10 0.1479472
1047.20 0.1479028
1047.30 0.1478585
1047.40 0.1478141
1047.50 0.1477698
1047.60 0.1477255
1047.70 0.1476812
1047.80 0.1476369
1047.90 0.1475926
1048.00 0.1475483
1048.10 0.1475041
1048.20 0.1474599
1048.30 0.1474156
1048.40 0.1473714
1048.50 0.1473272
1048.60 0.1472831
1048.70 0.1472389
1048.80 0.1471948
1048.90 0.1471506
1049.00 0.1471065
1049.10 0.1470624
1049.20 0.1470183
1049.30 0.1469742
1049.40 0.1469302
1049.50 0.1468861
1049.60 0.1468421
1049.70 0.1467981
1049.80 0.1467541
1049.90 0.1467101
1050.00 0.1466661
1050.10 0.1466221
1050.20 0.1465782
1050.30 0.1465343
1050.40 0.1464903
1050.50 0.1464464
1050.60 0.1464025
1050.70 0.1463587
1050.80 0.1463148
1050.90 0.1462709
1051.00 0.1462271
1051.10 0.1461833
1051.20 0.1461395
1051.30 0.1460957
1051.40 0.1460519
1051.50 0.1460081
1051.60 0.1459644
1051.70 0.1459206
1051.80 0.1458769
1051.90 0.1458332
1052.00 0.1457895
1052.10 0.1457459
1052.20 0.1457024
1052.30 0.1456589
1052.40 0.1456154
1052.50 0.145572
1052.60 0.1455285
1052.70 0.1454851
1052.80 0.1454417
1052.90 0.1453983
1053.00 0.1453549
1053.10 0.1453115
1053.20 0.1452681
1053.30 0.1452247
1053.40 0.1451814
1053.50 0.1451381
1053.60 0.1450948
1053.70 0.1450515
1053.80 0.1450082
1053.90 0.1449649
1054.00 0.1449216
1054.10 0.1448784
1054.20 0.1448352
1054.30 0.1447919
1054.40 0.1447487
1054.50 0.1447055
1054.60 0.1446624
1054.70 0.1446192
1054.80 0.1445761
1054.90 0.1445329
1055.00 0.1444898
1055.10 0.1444467
1055.20 0.1444036
1055.30 0.1443605
1055.40 0.1443174
1055.50 0.1442744
1055.60 0.1442314
1055.70 0.1441883
1055.80 0.1441453
1055.90 0.1441023
1056.00 0.1440593
1056.10 0.1440164
1056.20 0.1439734
1056.30 0.1439305
1056.40 0.1438875
1056.50 0.1438446
1056.60 0.1438017
1056.70 0.1437588
1056.80 0.1437159
1056.90 0.1436731
1057.00 0.1436302
1057.10 0.1435874
1057.20 0.1435446
1057.30 0.1435018
1057.40 0.143459
1057.50 0.1434162
1057.60 0.1433734
1057.70 0.1433307
1057.80 0.1432879
1057.90 0.1432452
1058.00 0.1432025
1058.10 0.1431598
1058.20 0.1431171
1058.30 0.1430745
1058.40 0.1430318
1058.50 0.1429892
1058.60 0.1429465
1058.70 0.1429039
1058.80 0.1428613
1058.90 0.1428187
1059.00 0.1427761
1059.10 0.1427336
1059.20 0.142691
1059.30 0.1426485
1059.40 0.142606
1059.50 0.1425635
1059.60 0.142521
1059.70 0.1424785
1059.80 0.142436
1059.90 0.1423936
1060.00 0.1423511
1060.10 0.1423087
1060.20 0.1422663
1060.30 0.1422239
1060.40 0.1421815
1060.50 0.1421391
1060.60 0.1420968
1060.70 0.1420544
1060.80 0.1420121
1060.90 0.1419698
1061.00 0.1419274
1061.10 0.1418852
1061.20 0.1418429
1061.30 0.1418006
1061.40 0.1417584
1061.50 0.1417161
1061.60 0.1416739
1061.70 0.1416317
1061.80 0.1415895
1061.90 0.1415473
1062.00 0.1415051
1062.10 0.141463
1062.20 0.1414208
1062.30 0.1413787
1062.40 0.1413366
1062.50 0.1412945
1062.60 0.1412524
1062.70 0.1412105
1062.80 0.1411686
1062.90 0.1411267
1063.00 0.1410848
1063.10 0.1410429
1063.20 0.1410011
1063.30 0.1409592
1063.40 0.1409174
1063.50 0.1408756
1063.60 0.1408338
1063.70 0.140792
1063.80 0.1407502
1063.90 0.1407084
1064.00 0.1406667
1064.10 0.1406249
1064.20 0.1405832
1064.30 0.1405415
1064.40 0.1404998
1064.50 0.1404581
1064.60 0.1404164
1064.70 0.1403748
1064.80 0.1403331
1064.90 0.1402915
1065.00 0.1402499
1065.10 0.1402083
1065.20 0.1401667
1065.30 0.1401251
1065.40 0.1400835
1065.50 0.140042
1065.60 0.1400004
1065.70 0.1399589
1065.80 0.1399174
1065.90 0.1398759
1066.00 0.1398344
1066.10 0.1397929
1066.20 0.1397514
1066.30 0.13971
1066.40 0.1396685
1066.50 0.1396271
1066.60 0.1395857
1066.70 0.1395443
1066.80 0.1395029
1066.90 0.1394615
1067.00 0.1394202
1067.10 0.1393788
1067.20 0.1393375
1067.30 0.1392962
1067.40 0.1392549
1067.50 0.1392136
1067.60 0.1391723
1067.70 0.139131
1067.80 0.1390898
1067.90 0.1390485
1068.00 0.1390073
1068.10 0.1389661
1068.20 0.1389249
1068.30 0.1388837
1068.40 0.1388425
1068.50 0.1388013
1068.60 0.1387602
1068.70 0.138719
1068.80 0.1386779
1068.90 0.1386368
1069.00 0.1385957
1069.10 0.1385546
1069.20 0.1385135
1069.30 0.1384725
1069.40 0.1384314
1069.50 0.1383904
1069.60 0.1383494
1069.70 0.1383083
1069.80 0.1382673
1069.90 0.1382264
1070.00 0.1381854
1070.10 0.1381444
1070.20 0.1381035
1070.30 0.1380625
1070.40 0.1380216
1070.50 0.1379807
1070.60 0.1379398
1070.70 0.1378989
1070.80 0.1378581
1070.90 0.1378172
1071.00 0.1377764
1071.10 0.1377355
1071.20 0.1376947
1071.30 0.1376539
1071.40 0.1376131
1071.50 0.1375723
1071.60 0.1375316
1071.70 0.1374908
1071.80 0.1374501
1071.90 0.1374093
1072.00 0.1373686
1072.10 0.1373279
1072.20 0.1372872
1072.30 0.1372466
1072.40 0.1372059
1072.50 0.1371652
1072.60 0.1371246
1072.70 0.137084
1072.80 0.1370434
1072.90 0.1370028
1073.00 0.1369622
1073.10 0.1369216
1073.20 0.1368811
1073.30 0.1368407
1073.40 0.1368003
1073.50 0.1367599
1073.60 0.1367195
1073.70 0.1366792
1073.80 0.1366389
1073.90 0.1365985
1074.00 0.1365582
1074.10 0.1365179
1074.20 0.1364776
1074.30 0.1364374
1074.40 0.1363971
1074.50 0.1363569
1074.60 0.1363166
1074.70 0.1362764
1074.80 0.1362362
1074.90 0.136196
1075.00 0.1361558
1075.10 0.1361156
1075.20 0.1360755
1075.30 0.1360353
1075.40 0.1359952
1075.50 0.1359551
1075.60 0.135915
1075.70 0.1358749
1075.80 0.1358348
1075.90 0.1357947
1076.00 0.1357547
1076.10 0.1357146
1076.20 0.1356746
1076.30 0.1356346
1076.40 0.1355946
1076.50 0.1355546
1076.60 0.1355146
1076.70 0.1354746
1076.80 0.1354347
1076.90 0.1353947
1077.00 0.1353548
1077.10 0.1353149
1077.20 0.135275
1077.30 0.1352351
1077.40 0.1351952
1077.50 0.1351553
1077.60 0.1351154
1077.70 0.1350756
1077.80 0.1350358
1077.90 0.1349959
1078.00 0.1349561
1078.10 0.1349163
1078.20 0.1348766
1078.30 0.1348368
1078.40 0.134797
1078.50 0.1347573
1078.60 0.1347175
1078.70 0.1346778
1078.80 0.1346381
1078.90 0.1345984
1079.00 0.1345587
1079.10 0.1345191
1079.20 0.1344794
1079.30 0.1344398
1079.40 0.1344001
1079.50 0.1343605
1079.60 0.1343209
1079.70 0.1342813
1079.80 0.1342417
1079.90 0.1342021
1080.00 0.1341626
1080.10 0.134123
1080.20 0.1340835
1080.30 0.134044
1080.40 0.1340045
1080.50 0.133965
1080.60 0.1339255
1080.70 0.133886
1080.80 0.1338465
1080.90 0.1338071
1081.00 0.1337677
1081.10 0.1337282
1081.20 0.1336888
1081.30 0.1336494
1081.40 0.13361
1081.50 0.1335707
1081.60 0.1335313
1081.70 0.1334919
1081.80 0.1334526
1081.90 0.1334133
1082.00 0.133374
1082.10 0.1333347
1082.20 0.1332954
1082.30 0.1332561
1082.40 0.1332168
1082.50 0.1331776
1082.60 0.1331383
1082.70 0.1330991
1082.80 0.1330599
1082.90 0.1330207
1083.00 0.1329815
1083.10 0.1329423
1083.20 0.1329031
1083.30 0.132864
1083.40 0.1328248
1083.50 0.1327857
1083.60 0.1327466
1083.70 0.1327075
1083.80 0.1326684
1083.90 0.1326293
1084.00 0.1325914
1084.10 0.1325537
1084.20 0.132516
1084.30 0.1324784
1084.40 0.1324407
1084.50 0.132403
1084.60 0.1323654
1084.70 0.1323277
1084.80 0.1322901
1084.90 0.1322525
1085.00 0.1322149
1085.10 0.1321773
1085.20 0.1321397
1085.30 0.1321021
1085.40 0.1320646
1085.50 0.132027
1085.60 0.1319895
1085.70 0.131952
1085.80 0.1319145
1085.90 0.131877
1086.00 0.1318395
1086.10 0.131802
1086.20 0.1317646
1086.30 0.1317271
1086.40 0.1316897
1086.50 0.1316522
1086.60 0.1316148
1086.70 0.1315774
1086.80 0.13154
1086.90 0.1315026
1087.00 0.1314653
1087.10 0.1314279
1087.20 0.1313905
1087.30 0.1313532
1087.40 0.1313159
1087.50 0.1312786
1087.60 0.1312413
1087.70 0.131204
1087.80 0.1311667
1087.90 0.1311294
1088.00 0.1310922
1088.10 0.1310549
1088.20 0.1310177
1088.30 0.1309805
1088.40 0.1309433
1088.50 0.1309061
1088.60 0.1308689
1088.70 0.1308317
1088.80 0.1307945
1088.90 0.1307574
1089.00 0.1307202
1089.10 0.1306831
1089.20 0.130646
1089.30 0.1306089
1089.40 0.1305709
1089.50 0.1305327
1089.60 0.1304944
1089.70 0.1304561
1089.80 0.1304179
1089.90 0.1303797
1090.00 0.1303414
1090.10 0.1303032
1090.20 0.130265
1090.30 0.1302269
1090.40 0.1301887
1090.50 0.1301505
1090.60 0.1301124
1090.70 0.1300742
1090.80 0.1300361
1090.90 0.129998
1091.00 0.1299599
1091.10 0.1299218
1091.20 0.1298837
1091.30 0.1298456
1091.40 0.1298076
1091.50 0.1297695
1091.60 0.1297315
1091.70 0.1296935
1091.80 0.1296555
1091.90 0.1296175
1092.00 0.1295795
1092.10 0.1295415
1092.20 0.1295036
1092.30 0.1294656
1092.40 0.1294277
1092.50 0.1293898
1092.60 0.1293518
1092.70 0.1293139
1092.80 0.129276
1092.90 0.1292382
1093.00 0.1292003
1093.10 0.1291624
1093.20 0.1291246
1093.30 0.1290868
1093.40 0.1290489
1093.50 0.1290111
1093.60 0.1289733
1093.70 0.1289355
1093.80 0.1288978
1093.90 0.12886
1094.00 0.1288223
1094.10 0.1287845
1094.20 0.1287468
1094.30 0.1287091
1094.40 0.1286714
1094.50 0.1286337
1094.60 0.128596
1094.70 0.1285583
1094.80 0.1285207
1094.90 0.1284832
1095.00 0.1284457
1095.10 0.1284083
1095.20 0.1283708
1095.30 0.1283333
1095.40 0.1282959
1095.50 0.1282584
1095.60 0.128221
1095.70 0.1281836
1095.80 0.1281462
1095.90 0.1281088
1096.00 0.1280714
1096.10 0.1280341
1096.20 0.1279967
1096.30 0.1279594
1096.40 0.1279221
1096.50 0.1278847
1096.60 0.1278474
1096.70 0.1278101
1096.80 0.1277728
1096.90 0.1277356
1097.00 0.1276983
1097.10 0.1276611
1097.20 0.1276238
1097.30 0.1275866
1097.40 0.1275494
1097.50 0.1275122
1097.60 0.127475
1097.70 0.1274378
1097.80 0.1274006
1097.90 0.1273635
1098.00 0.1273263
1098.10 0.1272892
1098.20 0.127252
1098.30 0.1272149
1098.40 0.1271778
1098.50 0.1271407
1098.60 0.1271037
1098.70 0.1270666
1098.80 0.1270295
1098.90 0.1269925
1099.00 0.1269555
1099.10 0.1269184
1099.20 0.1268814
1099.30 0.1268444
1099.40 0.1268074
1099.50 0.1267705
1099.60 0.1267335
1099.70 0.1266965
1099.80 0.1266596
1099.90 0.1266227
1100.00 0.1265857
1100.10 0.1265488
1100.20 0.1265119
1100.30 0.126475
1100.40 0.1264382
1100.50 0.1264013
1100.60 0.1263645
1100.70 0.1263276
1100.80 0.1262908
1100.90 0.126254
1101.00 0.1262172
1101.10 0.1261804
1101.20 0.1261436
1101.30 0.1261068
1101.40 0.12607
1101.50 0.1260333
1101.60 0.1259965
1101.70 0.1259598
1101.80 0.1259231
1101.90 0.1258864
1102.00 0.1258497
1102.10 0.125813
1102.20 0.1257763
1102.30 0.1257397
1102.40 0.125703
1102.50 0.1256664
1102.60 0.1256298
1102.70 0.1255932
1102.80 0.1255565
1102.90 0.12552
1103.00 0.1254834
1103.10 0.1254468
1103.20 0.1254102
1103.30 0.1253737
1103.40 0.1253372
1103.50 0.1253006
1103.60 0.1252641
1103.70 0.1252276
1103.80 0.1251911
1103.90 0.1251546
1104.00 0.1251182
1104.10 0.1250817
1104.20 0.1250453
1104.30 0.1250088
1104.40 0.1249724
1104.50 0.124936
1104.60 0.1248996
1104.70 0.1248632
1104.80 0.1248268
1104.90 0.1247904
1105.00 0.1247541
1105.10 0.1247177
1105.20 0.1246814
1105.30 0.1246451
1105.40 0.1246087
1105.50 0.1245724
1105.60 0.1245361
1105.70 0.1244999
1105.80 0.1244637
1105.90 0.1244276
1106.00 0.1243915
1106.10 0.1243554
1106.20 0.1243193
1106.30 0.1242832
1106.40 0.1242472
1106.50 0.1242111
1106.60 0.124175
1106.70 0.124139
1106.80 0.124103
1106.90 0.124067
1107.00 0.124031
1107.10 0.123995
1107.20 0.123959
1107.30 0.123923
1107.40 0.1238871
1107.50 0.1238511
1107.60 0.1238152
1107.70 0.1237793
1107.80 0.1237433
1107.90 0.1237074
1108.00 0.1236715
1108.10 0.1236357
1108.20 0.1235998
1108.30 0.1235639
1108.40 0.1235281
1108.50 0.1234922
1108.60 0.1234564
1108.70 0.1234206
1108.80 0.1233848
1108.90 0.123349
1109.00 0.1233132
1109.10 0.1232774
1109.20 0.1232417
1109.30 0.1232059
1109.40 0.1231702
1109.50 0.1231345
1109.60 0.1230987
1109.70 0.123063
1109.80 0.1230273
1109.90 0.1229917
1110.00 0.122956
1110.10 0.1229203
1110.20 0.1228847
1110.30 0.122849
1110.40 0.1228134
1110.50 0.1227778
1110.60 0.1227422
1110.70 0.1227066
1110.80 0.122671
1110.90 0.1226354
1111.00 0.1225998
1111.10 0.1225643
1111.20 0.1225287
1111.30 0.1224932
1111.40 0.1224577
1111.50 0.1224221
1111.60 0.1223866
1111.70 0.1223512
1111.80 0.1223157
1111.90 0.1222802
1112.00 0.1222447
1112.10 0.1222093
1112.20 0.1221739
1112.30 0.1221384
1112.40 0.122103
1112.50 0.1220676
1112.60 0.1220322
1112.70 0.1219968
1112.80 0.1219615
1112.90 0.1219261
1113.00 0.1218908
1113.10 0.1218554
1113.20 0.1218201
1113.30 0.1217848
1113.40 0.1217495
1113.50 0.1217142
1113.60 0.1216789
1113.70 0.1216436
1113.80 0.1216083
1113.90 0.1215731
1114.00 0.1215378
1114.10 0.1215026
1114.20 0.1214674
1114.30 0.1214322
1114.40 0.121397
1114.50 0.1213618
1114.60 0.1213266
1114.70 0.1212914
1114.80 0.1212563
1114.90 0.1212211
1115.00 0.121186
1115.10 0.1211509
1115.20 0.1211157
1115.30 0.1210806
1115.40 0.1210455
1115.50 0.1210105
1115.60 0.1209754
1115.70 0.1209403
1115.80 0.1209053
1115.90 0.1208702
1116.00 0.1208352
1116.10 0.1208002
1116.20 0.1207652
1116.30 0.1207302
1116.40 0.1206952
1116.50 0.1206602
1116.60 0.1206252
1116.70 0.1205903
1116.80 0.1205559
1116.90 0.1205222
1117.00 0.1204885
1117.10 0.1204548
1117.20 0.1204211
1117.30 0.1203875
1117.40 0.1203538
1117.50 0.1203202
1117.60 0.1202866
1117.70 0.1202529
1117.80 0.1202193
1117.90 0.1201857
1118.00 0.1201521
1118.10 0.1201186
1118.20 0.120085
1118.30 0.1200514
1118.40 0.1200179
1118.50 0.1199843
1118.60 0.1199508
1118.70 0.1199173
1118.80 0.1198838
1118.90 0.1198503
1119.00 0.1198168
1119.10 0.1197833
1119.20 0.1197498
1119.30 0.1197164
1119.40 0.1196829
1119.50 0.1196495
1119.60 0.1196161
1119.70 0.1195826
1119.80 0.1195492
1119.90 0.1195158
1120.00 0.1194824
1120.10 0.1194491
1120.20 0.1194157
1120.30 0.1193823
1120.40 0.119349
1120.50 0.1193156
1120.60 0.1192823
1120.70 0.119249
1120.80 0.1192157
1120.90 0.1191824
1121.00 0.1191491
1121.10 0.1191158
1121.20 0.1190825
1121.30 0.1190493
1121.40 0.119016
1121.50 0.1189828
1121.60 0.1189496
1121.70 0.1189164
1121.80 0.1188831
1121.90 0.1188499
1122.00 0.1188168
1122.10 0.1187836
1122.20 0.1187504
1122.30 0.1187172
1122.40 0.1186834
1122.50 0.1186492
1122.60 0.118615
1122.70 0.1185808
1122.80 0.1185466
1122.90 0.1185124
1123.00 0.1184782
1123.10 0.118444
1123.20 0.1184099
1123.30 0.1183757
1123.40 0.1183416
1123.50 0.1183074
1123.60 0.1182733
1123.70 0.1182392
1123.80 0.1182051
1123.90 0.118171
1124.00 0.1181369
1124.10 0.1181029
1124.20 0.1180688
1124.30 0.1180348
1124.40 0.1180007
1124.50 0.1179667
1124.60 0.1179327
1124.70 0.1178987
1124.80 0.1178647
1124.90 0.1178307
1125.00 0.1177967
1125.10 0.1177628
1125.20 0.1177288
1125.30 0.1176949
1125.40 0.1176609
1125.50 0.117627
1125.60 0.1175931
1125.70 0.1175592
1125.80 0.1175253
1125.90 0.1174914
1126.00 0.1174575
1126.10 0.1174237
1126.20 0.1173898
1126.30 0.117356
1126.40 0.1173221
1126.50 0.1172883
1126.60 0.1172545
1126.70 0.1172207
1126.80 0.1171869
1126.90 0.1171531
1127.00 0.1171194
1127.10 0.1170856
1127.20 0.1170518
1127.30 0.1170181
1127.40 0.1169844
1127.50 0.1169506
1127.60 0.1169169
1127.70 0.1168832
1127.80 0.1168495
1127.90 0.1168159
1128.00 0.1167827
1128.10 0.1167497
1128.20 0.1167167
1128.30 0.1166838
1128.40 0.1166508
1128.50 0.1166178
1128.60 0.1165849
1128.70 0.1165519
1128.80 0.116519
1128.90 0.1164861
1129.00 0.1164532
1129.10 0.1164203
1129.20 0.1163874
1129.30 0.1163545
1129.40 0.1163217
1129.50 0.1162888
1129.60 0.116256
1129.70 0.1162231
1129.80 0.1161903
1129.90 0.1161575
1130.00 0.1161247
1130.10 0.1160919
1130.20 0.1160591
1130.30 0.1160263
1130.40 0.1159935
1130.50 0.1159608
1130.60 0.115928
1130.70 0.1158953
1130.80 0.1158626
1130.90 0.1158298
1131.00 0.1157971
1131.10 0.1157644
1131.20 0.1157317
1131.30 0.115699
1131.40 0.1156664
1131.50 0.1156337
1131.60 0.1156011
1131.70 0.1155684
1131.80 0.1155358
1131.90 0.1155032
1132.00 0.1154705
1132.10 0.1154379
1132.20 0.1154053
1132.30 0.1153728
1132.40 0.1153402
1132.50 0.1153076
1132.60 0.1152751
1132.70 0.1152425
1132.80 0.11521
1132.90 0.1151775
1133.00 0.1151449
1133.10 0.1151124
1133.20 0.1150799
1133.30 0.1150475
1133.40 0.115015
1133.50 0.1149825
1133.60 0.11495
1133.70 0.1149176
1133.80 0.1148852
1133.90 0.1148527
1134.00 0.1148203
1134.10 0.1147879
1134.20 0.1147555
1134.30 0.1147231
1134.40 0.1146907
1134.50 0.1146584
1134.60 0.114626
1134.70 0.1145936
1134.80 0.1145613
1134.90 0.114529
1135.00 0.1144966
1135.10 0.1144643
1135.20 0.114432
1135.30 0.1143997
1135.40 0.1143674
1135.50 0.1143352
1135.60 0.1143029
1135.70 0.1142706
1135.80 0.1142384
1135.90 0.1142062
1136.00 0.1141739
1136.10 0.1141417
1136.20 0.1141095
1136.30 0.1140773
1136.40 0.1140451
1136.50 0.1140129
1136.60 0.1139808
1136.70 0.1139486
1136.80 0.1139165
1136.90 0.1138843
1137.00 0.1138522
1137.10 0.1138201
1137.20 0.1137879
1137.30 0.1137558
1137.40 0.1137238
1137.50 0.1136917
1137.60 0.1136596
1137.70 0.1136275
1137.80 0.1135955
1137.90 0.1135634
1138.00 0.1135314
1138.10 0.1134994
1138.20 0.1134673
1138.30 0.1134353
1138.40 0.1134033
1138.50 0.1133713
1138.60 0.1133394
1138.70 0.1133074
1138.80 0.1132754
1138.90 0.1132435
1139.00 0.1132115
1139.10 0.1131796
1139.20 0.1131477
1139.30 0.1131154
1139.40 0.1130831
1139.50 0.1130508
1139.60 0.1130185
1139.70 0.1129862
1139.80 0.112954
1139.90 0.1129217
1140.00 0.1128895
1140.10 0.1128572
1140.20 0.112825
1140.30 0.1127928
1140.40 0.1127606
1140.50 0.1127284
1140.60 0.1126962
1140.70 0.112664
1140.80 0.1126318
1140.90 0.1125997
1141.00 0.1125675
1141.10 0.1125354
1141.20 0.1125032
1141.30 0.1124711
1141.40 0.112439
1141.50 0.1124069
1141.60 0.1123748
1141.70 0.1123427
1141.80 0.1123107
1141.90 0.1122786
1142.00 0.1122465
1142.10 0.1122145
1142.20 0.1121824
1142.30 0.1121504
1142.40 0.1121184
1142.50 0.1120864
1142.60 0.1120544
1142.70 0.1120224
1142.80 0.1119904
1142.90 0.1119585
1143.00 0.1119265
1143.10 0.1118945
1143.20 0.1118626
1143.30 0.1118307
1143.40 0.1117987
1143.50 0.1117668
1143.60 0.1117349
1143.70 0.111703
1143.80 0.1116711
1143.90 0.1116393
1144.00 0.1116074
1144.10 0.1115755
1144.20 0.1115437
1144.30 0.1115119
1144.40 0.11148
1144.50 0.1114482
1144.60 0.1114164
1144.70 0.1113846
1144.80 0.1113528
1144.90 0.111321
1145.00 0.1112893
1145.10 0.1112575
1145.20 0.1112257
1145.30 0.111194
1145.40 0.1111623
1145.50 0.1111305
1145.60 0.1110988
1145.70 0.1110671
1145.80 0.1110354
1145.90 0.1110037
1146.00 0.1109721
1146.10 0.1109404
1146.20 0.1109087
1146.30 0.1108771
1146.40 0.1108454
1146.50 0.1108138
1146.60 0.1107822
1146.70 0.1107506
1146.80 0.110719
1146.90 0.1106874
1147.00 0.1106558
1147.10 0.1106242
1147.20 0.1105926
1147.30 0.1105611
1147.40 0.1105295
1147.50 0.110498
1147.60 0.1104665
1147.70 0.110435
1147.80 0.1104034
1147.90 0.1103719
1148.00 0.1103404
1148.10 0.110309
1148.20 0.1102775
1148.30 0.110246
1148.40 0.1102146
1148.50 0.1101831
1148.60 0.1101517
1148.70 0.1101203
1148.80 0.1100889
1148.90 0.1100574
1149.00 0.110026
1149.10 0.1099947
1149.20 0.1099633
1149.30 0.1099319
1149.40 0.1099005
1149.50 0.1098692
1149.60 0.1098378
1149.70 0.1098065
1149.80 0.1097752
1149.90 0.1097439
1150.00 0.1097126
1150.10 0.1096813
1150.20 0.10965
1150.30 0.1096187
1150.40 0.1095874
1150.50 0.1095562
1150.60 0.109525
1150.70 0.1094949
1150.80 0.1094648
1150.90 0.1094347
1151.00 0.1094046
1151.10 0.1093745
1151.20 0.1093444
1151.30 0.1093144
1151.40 0.1092843
1151.50 0.1092543
1151.60 0.1092242
1151.70 0.1091942
1151.80 0.1091642
1151.90 0.1091342
1152.00 0.1091042
1152.10 0.1090742
1152.20 0.1090442
1152.30 0.1090142
1152.40 0.1089842
1152.50 0.1089543
1152.60 0.1089243
1152.70 0.1088944
1152.80 0.1088645
1152.90 0.1088345
1153.00 0.1088046
1153.10 0.1087747
1153.20 0.1087448
1153.30 0.1087149
1153.40 0.1086851
1153.50 0.1086552
1153.60 0.1086253
1153.70 0.1085955
1153.80 0.1085656
1153.90 0.1085358
1154.00 0.108506
1154.10 0.1084762
1154.20 0.1084464
1154.30 0.1084165
1154.40 0.1083868
1154.50 0.108357
1154.60 0.1083272
1154.70 0.1082974
1154.80 0.1082677
1154.90 0.1082379
1155.00 0.1082082
1155.10 0.1081785
1155.20 0.1081487
1155.30 0.108119
1155.40 0.1080893
1155.50 0.1080596
1155.60 0.1080299
1155.70 0.1080003
1155.80 0.1079706
1155.90 0.1079409
1156.00 0.1079113
1156.10 0.1078816
1156.20 0.107852
1156.30 0.1078224
1156.40 0.1077922
1156.50 0.1077616
1156.60 0.107731
1156.70 0.1077004
1156.80 0.1076699
1156.90 0.1076393
1157.00 0.1076087
1157.10 0.1075782
1157.20 0.1075476
1157.30 0.1075171
1157.40 0.1074866
1157.50 0.1074561
1157.60 0.1074256
1157.70 0.1073951
1157.80 0.1073646
1157.90 0.1073341
1158.00 0.1073036
1158.10 0.1072732
1158.20 0.1072427
1158.30 0.1072123
1158.40 0.1071819
1158.50 0.1071514
1158.60 0.107121
1158.70 0.1070906
1158.80 0.1070602
1158.90 0.1070298
1159.00 0.1069994
1159.10 0.1069691
1159.20 0.1069387
1159.30 0.1069084
1159.40 0.106878
1159.50 0.1068477
1159.60 0.1068174
1159.70 0.106787
1159.80 0.1067567
1159.90 0.1067264
1160.00 0.1066961
1160.10 0.1066659
1160.20 0.1066356
1160.30 0.1066053
1160.40 0.1065751
1160.50 0.1065448
1160.60 0.1065146
1160.70 0.1064843
1160.80 0.1064541
1160.90 0.1064239
1161.00 0.1063937
1161.10 0.1063635
1161.20 0.1063333
1161.30 0.1063032
1161.40 0.106273
1161.50 0.1062428
1161.60 0.1062127
1161.70 0.1061825
1161.80 0.1061524
1161.90 0.1061223
1162.00 0.1060922
1162.10 0.1060621
1162.20 0.1060321
1162.30 0.1060021
1162.40 0.1059721
1162.50 0.1059422
1162.60 0.1059122
1162.70 0.1058823
1162.80 0.1058524
1162.90 0.1058225
1163.00 0.1057925
1163.10 0.1057626
1163.20 0.1057327
1163.30 0.1057029
1163.40 0.105673
1163.50 0.1056431
1163.60 0.1056132
1163.70 0.1055834
1163.80 0.1055536
1163.90 0.1055237
1164.00 0.1054939
1164.10 0.1054641
1164.20 0.1054343
1164.30 0.1054045
1164.40 0.1053747
1164.50 0.1053449
1164.60 0.1053151
1164.70 0.1052854
1164.80 0.1052556
1164.90 0.1052259
1165.00 0.1051961
1165.10 0.1051664
1165.20 0.1051367
1165.30 0.105107
1165.40 0.1050773
1165.50 0.1050476
1165.60 0.1050179
1165.70 0.1049882
1165.80 0.1049585
1165.90 0.1049289
1166.00 0.1048992
1166.10 0.1048696
1166.20 0.1048399
1166.30 0.1048103
1166.40 0.1047807
1166.50 0.1047511
1166.60 0.1047215
1166.70 0.1046919
1166.80 0.1046623
1166.90 0.1046327
1167.00 0.1046032
1167.10 0.1045736
1167.20 0.1045441
1167.30 0.1045145
1167.40 0.104485
1167.50 0.1044555
1167.60 0.1044259
1167.70 0.1043964
1167.80 0.1043669
1167.90 0.1043374
1168.00 0.1043088
1168.10 0.1042803
1168.20 0.1042518
1168.30 0.1042234
1168.40 0.1041949
1168.50 0.1041664
1168.60 0.104138
1168.70 0.1041095
1168.80 0.1040811
1168.90 0.1040526
1169.00 0.1040242
1169.10 0.1039958
1169.20 0.1039674
1169.30 0.103939
1169.40 0.1039106
1169.50 0.1038822
1169.60 0.1038538
1169.70 0.1038254
1169.80 0.1037971
1169.90 0.1037687
1170.00 0.1037404
1170.10 0.103712
1170.20 0.1036837
1170.30 0.1036554
1170.40 0.1036271
1170.50 0.1035987
1170.60 0.1035704
1170.70 0.1035422
1170.80 0.1035139
1170.90 0.1034856
1171.00 0.1034573
1171.10 0.1034291
1171.20 0.1034008
1171.30 0.1033726
1171.40 0.1033444
1171.50 0.1033161
1171.60 0.1032879
1171.70 0.1032597
1171.80 0.1032315
1171.90 0.1032033
1172.00 0.1031751
1172.10 0.103147
1172.20 0.1031188
1172.30 0.1030906
1172.40 0.1030625
1172.50 0.1030343
1172.60 0.1030062
1172.70 0.1029781
1172.80 0.10295
1172.90 0.1029219
1173.00 0.1028938
1173.10 0.1028657
1173.20 0.1028376
1173.30 0.1028095
1173.40 0.1027814
1173.50 0.1027534
1173.60 0.1027253
1173.70 0.1026973
1173.80 0.1026686
1173.90 0.1026397
1174.00 0.1026108
1174.10 0.1025819
1174.20 0.1025531
1174.30 0.1025243
1174.40 0.1024954
1174.50 0.1024666
1174.60 0.1024378
1174.70 0.102409
1174.80 0.1023802
1174.90 0.1023514
1175.00 0.1023226
1175.10 0.1022938
1175.20 0.102265
1175.30 0.1022363
1175.40 0.1022075
1175.50 0.1021788
1175.60 0.1021501
1175.70 0.1021213
1175.80 0.1020926
1175.90 0.1020639
1176.00 0.1020352
1176.10 0.1020065
1176.20 0.1019778
1176.30 0.1019491
1176.40 0.1019205
1176.50 0.1018918
1176.60 0.1018632
1176.70 0.1018345
1176.80 0.1018059
1176.90 0.1017773
1177.00 0.1017486
1177.10 0.10172
1177.20 0.1016914
1177.30 0.1016628
1177.40 0.1016343
1177.50 0.1016057
1177.60 0.1015771
1177.70 0.1015485
1177.80 0.10152
1177.90 0.1014914
1178.00 0.1014629
1178.10 0.1014344
1178.20 0.1014059
1178.30 0.1013774
1178.40 0.1013488
1178.50 0.1013204
1178.60 0.1012919
1178.70 0.1012634
1178.80 0.1012349
1178.90 0.1012065
1179.00 0.101178
1179.10 0.1011496
1179.20 0.1011211
1179.30 0.1010927
1179.40 0.1010643
1179.50 0.1010359
1179.60 0.1010075
1179.70 0.1009801
1179.80 0.1009526
1179.90 0.1009252
1180.00 0.1008978
1180.10 0.1008704
1180.20 0.1008429
1180.30 0.1008155
1180.40 0.1007881
1180.50 0.1007607
1180.60 0.1007333
1180.70 0.100706
1180.80 0.1006786
1180.90 0.1006512
1181.00 0.1006239
1181.10 0.1005965
1181.20 0.1005692
1181.30 0.1005419
1181.40 0.1005145
1181.50 0.1004872
1181.60 0.1004599
1181.70 0.1004326
1181.80 0.1004053
1181.90 0.1003781
1182.00 0.1003508
1182.10 0.1003235
1182.20 0.1002962
1182.30 0.100269
1182.40 0.1002418
1182.50 0.1002145
1182.60 0.1001873
1182.70 0.1001601
1182.80 0.1001329
1182.90 0.1001056
1183.00 0.1000784
1183.10 0.1000513
1183.20 0.1000241
1183.30 0.0999969
1183.40 0.09996974
1183.50 0.09994258
1183.60 0.09991542
1183.70 0.09988828
1183.80 0.09986115
1183.90 0.09983402
1184.00 0.0998069
1184.10 0.09977978
1184.20 0.09975268
1184.30 0.09972558
1184.40 0.09969849
1184.50 0.09967141
1184.60 0.09964434
1184.70 0.09961727
1184.80 0.09959021
1184.90 0.09956316
1185.00 0.09953612
1185.10 0.09950908
1185.20 0.09948206
1185.30 0.09945504
1185.40 0.09942802
1185.50 0.09940106
1185.60 0.09937416
1185.70 0.09934728
1185.80 0.09932039
1185.90 0.09929352
1186.00 0.09926665
1186.10 0.0992398
1186.20 0.09921294
1186.30 0.0991861
1186.40 0.09915927
1186.50 0.09913244
1186.60 0.09910562
1186.70 0.09907881
1186.80 0.099052
1186.90 0.0990252
1187.00 0.09899841
1187.10 0.09897163
1187.20 0.09894486
1187.30 0.09891809
1187.40 0.09889133
1187.50 0.09886458
1187.60 0.09883783
1187.70 0.0988111
1187.80 0.09878437
1187.90 0.09875765
1188.00 0.09873093
1188.10 0.09870423
1188.20 0.09867753
1188.30 0.09865084
1188.40 0.09862415
1188.50 0.09859748
1188.60 0.09857081
1188.70 0.09854415
1188.80 0.0985175
1188.90 0.09849085
1189.00 0.09846421
1189.10 0.09843758
1189.20 0.09841096
1189.30 0.09838435
1189.40 0.09835774
1189.50 0.09833114
1189.60 0.09830455
1189.70 0.09827796
1189.80 0.09825138
1189.90 0.09822481
1190.00 0.09819825
1190.10 0.0981717
1190.20 0.09814515
1190.30 0.09811861
1190.40 0.09809208
1190.50 0.09806555
1190.60 0.09803904
1190.70 0.09801253
1190.80 0.09798602
1190.90 0.09795953
1191.00 0.09793304
1191.10 0.09790656
1191.20 0.09788009
1191.30 0.09785363
1191.40 0.09782703
1191.50 0.09779967
1191.60 0.09777232
1191.70 0.09774497
1191.80 0.09771763
1191.90 0.0976903
1192.00 0.09766298
1192.10 0.09763567
1192.20 0.09760836
1192.30 0.09758106
1192.40 0.09755377
1192.50 0.09752649
1192.60 0.09749921
1192.70 0.09747194
1192.80 0.09744468
1192.90 0.09741743
1193.00 0.09739019
1193.10 0.09736295
1193.20 0.09733572
1193.30 0.0973085
1193.40 0.09728129
1193.50 0.09725408
1193.60 0.09722688
1193.70 0.09719969
1193.80 0.09717251
1193.90 0.09714534
1194.00 0.09711817
1194.10 0.09709101
1194.20 0.09706386
1194.30 0.09703672
1194.40 0.09700958
1194.50 0.09698245
1194.60 0.09695533
1194.70 0.09692822
1194.80 0.09690111
1194.90 0.09687402
1195.00 0.09684693
1195.10 0.09681984
1195.20 0.09679277
1195.30 0.0967657
1195.40 0.09673864
1195.50 0.09671159
1195.60 0.09668455
1195.70 0.09665751
1195.80 0.09663049
1195.90 0.09660347
1196.00 0.09657645
1196.10 0.09654945
1196.20 0.09652245
1196.30 0.09649546
1196.40 0.09646848
1196.50 0.09644151
1196.60 0.09641454
1196.70 0.09638758
1196.80 0.09636063
1196.90 0.09633368
1197.00 0.09630675
1197.10 0.09627982
1197.20 0.0962529
1197.30 0.09622599
1197.40 0.09619996
1197.50 0.09617407
1197.60 0.09614818
1197.70 0.0961223
1197.80 0.09609642
1197.90 0.09607056
1198.00 0.0960447
1198.10 0.09601885
1198.20 0.095993
1198.30 0.09596716
1198.40 0.09594133
1198.50 0.09591551
1198.60 0.0958897
1198.70 0.09586389
1198.80 0.09583809
1198.90 0.09581229
1199.00 0.09578651
1199.10 0.09576073
1199.20 0.09573496
1199.30 0.09570919
1199.40 0.09568343
1199.50 0.09565768
1199.60 0.09563194
1199.70 0.09560621
1199.80 0.09558048
1199.90 0.09555476
1200.00 0.09552904
