# Version 2.1 - nm, norm@500 to 1, cut digits, bergeron_He_9000_70.dat_9000
# Wavelength(nm)  Flambda(ergs/cm^s/s/nm)
300.00 1.630756
300.10 1.630885
300.20 1.631022
300.30 1.631147
300.40 1.63119
300.50 1.631234
300.60 1.631277
300.70 1.63132
300.80 1.631362
300.90 1.631404
301.00 1.631445
301.10 1.631486
301.20 1.631526
301.30 1.631566
301.40 1.631606
301.50 1.631645
301.60 1.631684
301.70 1.631723
301.80 1.631761
301.90 1.631799
302.00 1.631836
302.10 1.631868
302.20 1.631898
302.30 1.631929
302.40 1.631959
302.50 1.631988
302.60 1.632018
302.70 1.632046
302.80 1.632075
302.90 1.632103
303.00 1.63213
303.10 1.632158
303.20 1.632184
303.30 1.63221
303.40 1.632222
303.50 1.632234
303.60 1.632245
303.70 1.632256
303.80 1.632267
303.90 1.632278
304.00 1.632288
304.10 1.632297
304.20 1.632307
304.30 1.632315
304.40 1.632324
304.50 1.632332
304.60 1.632349
304.70 1.632367
304.80 1.632384
304.90 1.632401
305.00 1.632417
305.10 1.632434
305.20 1.632449
305.30 1.632465
305.40 1.63248
305.50 1.632494
305.60 1.632508
305.70 1.632522
305.80 1.632536
305.90 1.632549
306.00 1.632562
306.10 1.632574
306.20 1.632586
306.30 1.632598
306.40 1.632598
306.50 1.632594
306.60 1.63259
306.70 1.632586
306.80 1.632581
306.90 1.632576
307.00 1.63257
307.10 1.632564
307.20 1.632558
307.30 1.632551
307.40 1.632545
307.50 1.632537
307.60 1.63253
307.70 1.632522
307.80 1.632514
307.90 1.632505
308.00 1.632496
308.10 1.632487
308.20 1.632478
308.30 1.632468
308.40 1.632458
308.50 1.632447
308.60 1.632436
308.70 1.632425
308.80 1.632472
308.90 1.632686
309.00 1.632617
309.10 1.632547
309.20 1.632478
309.30 1.632408
309.40 1.63235
309.50 1.632368
309.60 1.632386
309.70 1.632403
309.80 1.632421
309.90 1.632437
310.00 1.632454
310.10 1.63247
310.20 1.632486
310.30 1.632501
310.40 1.63249
310.50 1.63245
310.60 1.63241
310.70 1.63237
310.80 1.63233
310.90 1.632289
311.00 1.632295
311.10 1.632301
311.20 1.632306
311.30 1.632286
311.40 1.632194
311.50 1.632102
311.60 1.632009
311.70 1.631917
311.80 1.631824
311.90 1.631731
312.00 1.631638
312.10 1.631544
312.20 1.631652
312.30 1.631694
312.40 1.631519
312.50 1.631468
312.60 1.631474
312.70 1.631481
312.80 1.631487
312.90 1.631433
313.00 1.631314
313.10 1.631196
313.20 1.631076
313.30 1.630968
313.40 1.630892
313.50 1.630814
313.60 1.630737
313.70 1.63066
313.80 1.630582
313.90 1.630504
314.00 1.630426
314.10 1.630388
314.20 1.63035
314.30 1.630311
314.40 1.630272
314.50 1.630233
314.60 1.630194
314.70 1.630155
314.80 1.630113
314.90 1.63009
315.00 1.630096
315.10 1.630087
315.20 1.630077
315.30 1.630068
315.40 1.630058
315.50 1.630048
315.60 1.630037
315.70 1.629963
315.80 1.629888
315.90 1.629812
316.00 1.629737
316.10 1.62947
316.20 1.629204
316.30 1.629319
316.40 1.629052
316.50 1.629166
316.60 1.628899
316.70 1.629012
316.80 1.629126
316.90 1.629048
317.00 1.62897
317.10 1.628893
317.20 1.628814
317.30 1.62866
317.40 1.62851
317.50 1.628373
317.60 1.628237
317.70 1.6281
317.80 1.627963
317.90 1.627933
318.00 1.627672
318.10 1.627592
318.20 1.627512
318.30 1.627431
318.40 1.6274
318.50 1.627507
318.60 1.627321
318.70 1.627165
318.80 1.626783
318.90 1.627264
319.00 1.62719
319.10 1.62692
319.20 1.626713
319.30 1.626685
319.40 1.626657
319.50 1.626629
319.60 1.626382
319.70 1.626353
319.80 1.626324
319.90 1.626295
320.00 1.626149
320.10 1.625879
320.20 1.625585
320.30 1.625501
320.40 1.625454
320.50 1.625183
320.60 1.625269
320.70 1.624998
320.80 1.624816
320.90 1.624731
321.00 1.624645
321.10 1.624559
321.20 1.624262
321.30 1.624147
321.40 1.624032
321.50 1.623917
321.60 1.623801
321.70 1.623685
321.80 1.623619
321.90 1.623607
322.00 1.623811
322.10 1.623719
322.20 1.623626
322.30 1.623533
322.40 1.62344
322.50 1.623346
322.60 1.623253
322.70 1.623159
322.80 1.622847
322.90 1.622688
323.00 1.622529
323.10 1.622369
323.20 1.622209
323.30 1.622049
323.40 1.621889
323.50 1.621729
323.60 1.621569
323.70 1.621409
323.80 1.621248
323.90 1.621088
324.00 1.62106
324.10 1.621032
324.20 1.621003
324.30 1.620964
324.40 1.620833
324.50 1.620634
324.60 1.620435
324.70 1.620236
324.80 1.620037
324.90 1.619838
325.00 1.619638
325.10 1.619439
325.20 1.619307
325.30 1.619317
325.40 1.619327
325.50 1.619294
325.60 1.619206
325.70 1.619119
325.80 1.619031
325.90 1.618918
326.00 1.618776
326.10 1.618634
326.20 1.618492
326.30 1.618277
326.40 1.617855
326.50 1.617703
326.60 1.61755
326.70 1.617398
326.80 1.617245
326.90 1.617093
327.00 1.61694
327.10 1.616787
327.20 1.616634
327.30 1.616481
327.40 1.616328
327.50 1.616175
327.60 1.616021
327.70 1.615868
327.80 1.615714
327.90 1.615492
328.00 1.615299
328.10 1.615232
328.20 1.615165
328.30 1.615097
328.40 1.61503
328.50 1.614866
328.60 1.61468
328.70 1.614494
328.80 1.614304
328.90 1.614099
329.00 1.613895
329.10 1.61369
329.20 1.613486
329.30 1.613281
329.40 1.613077
329.50 1.612872
329.60 1.612667
329.70 1.612462
329.80 1.612258
329.90 1.612053
330.00 1.611898
330.10 1.611804
330.20 1.61171
330.30 1.611616
330.40 1.611494
330.50 1.611343
330.60 1.611192
330.70 1.611041
330.80 1.61089
330.90 1.610738
331.00 1.610586
331.10 1.610435
331.20 1.610283
331.30 1.610131
331.40 1.609979
331.50 1.60971
331.60 1.609297
331.70 1.608884
331.80 1.608725
331.90 1.608577
332.00 1.608429
332.10 1.60828
332.20 1.608132
332.30 1.607983
332.40 1.607834
332.50 1.607685
332.60 1.607536
332.70 1.607387
332.80 1.607238
332.90 1.607089
333.00 1.606939
333.10 1.606763
333.20 1.606556
333.30 1.606348
333.40 1.60614
333.50 1.605933
333.60 1.605725
333.70 1.605517
333.80 1.605309
333.90 1.605101
334.00 1.604893
334.10 1.604706
334.20 1.604543
334.30 1.604381
334.40 1.604218
334.50 1.604055
334.60 1.603892
334.70 1.603666
334.80 1.603415
334.90 1.603237
335.00 1.603059
335.10 1.602572
335.20 1.602296
335.30 1.602393
335.40 1.602117
335.50 1.601925
335.60 1.601564
335.70 1.601592
335.80 1.601316
335.90 1.601116
336.00 1.601008
336.10 1.600901
336.20 1.600793
336.30 1.600609
336.40 1.600333
336.50 1.600056
336.60 1.599779
336.70 1.599503
336.80 1.599227
336.90 1.599022
337.00 1.598905
337.10 1.598789
337.20 1.598672
337.30 1.598491
337.40 1.598219
337.50 1.597947
337.60 1.597675
337.70 1.597403
337.80 1.597131
337.90 1.596906
338.00 1.596739
338.10 1.596571
338.20 1.596404
338.30 1.596236
338.40 1.596039
338.50 1.595772
338.60 1.595505
338.70 1.595237
338.80 1.59497
338.90 1.594703
339.00 1.594436
339.10 1.594168
339.20 1.593901
339.30 1.593775
339.40 1.593851
339.50 1.59379
339.60 1.593562
339.70 1.593335
339.80 1.593107
339.90 1.592879
340.00 1.592652
340.10 1.592424
340.20 1.592197
340.30 1.591969
340.40 1.591741
340.50 1.591514
340.60 1.591286
340.70 1.591058
340.80 1.590816
340.90 1.590554
341.00 1.590285
341.10 1.590009
341.20 1.589733
341.30 1.589457
341.40 1.589182
341.50 1.588906
341.60 1.58863
341.70 1.588355
341.80 1.588131
341.90 1.587971
342.00 1.58781
342.10 1.58765
342.20 1.587336
342.30 1.587159
342.40 1.587054
342.50 1.586782
342.60 1.586511
342.70 1.58624
342.80 1.585969
342.90 1.585698
343.00 1.585422
343.10 1.58514
343.20 1.584859
343.30 1.584577
343.40 1.584298
343.50 1.584023
343.60 1.583748
343.70 1.583473
343.80 1.583198
343.90 1.582923
344.00 1.582715
344.10 1.582601
344.20 1.582487
344.30 1.582373
344.40 1.582193
344.50 1.581919
344.60 1.581396
344.70 1.581105
344.80 1.580847
344.90 1.580556
345.00 1.580545
345.10 1.58027
345.20 1.579999
345.30 1.579733
345.40 1.579467
345.50 1.579187
345.60 1.578898
345.70 1.578623
345.80 1.578349
345.90 1.578075
346.00 1.577801
346.10 1.577527
346.20 1.577279
346.30 1.577068
346.40 1.576858
346.50 1.576648
346.60 1.576437
346.70 1.576227
346.80 1.576017
346.90 1.575806
347.00 1.575596
347.10 1.575385
347.20 1.575137
347.30 1.574835
347.40 1.574533
347.50 1.574232
347.60 1.57393
347.70 1.573629
347.80 1.573327
347.90 1.573026
348.00 1.572724
348.10 1.572423
348.20 1.572122
348.30 1.571821
348.40 1.57152
348.50 1.571219
348.60 1.570918
348.70 1.570869
348.80 1.570774
348.90 1.570501
349.00 1.570228
349.10 1.569956
349.20 1.569683
349.30 1.56941
349.40 1.569137
349.50 1.568865
349.60 1.568592
349.70 1.56832
349.80 1.568047
349.90 1.567775
350.00 1.567503
350.10 1.56723
350.20 1.566958
350.30 1.566685
350.40 1.56641
350.50 1.566135
350.60 1.56586
350.70 1.565585
350.80 1.565311
350.90 1.565036
351.00 1.564761
351.10 1.564487
351.20 1.564212
351.30 1.563938
351.40 1.563651
351.50 1.563341
351.60 1.563032
351.70 1.562723
351.80 1.562413
351.90 1.562104
352.00 1.561795
352.10 1.561486
352.20 1.561401
352.30 1.561241
352.40 1.560938
352.50 1.560634
352.60 1.560331
352.70 1.560028
352.80 1.559725
352.90 1.559423
353.00 1.55912
353.10 1.558817
353.20 1.558515
353.30 1.558212
353.40 1.55791
353.50 1.557585
353.60 1.557254
353.70 1.556924
353.80 1.556593
353.90 1.556286
354.00 1.55602
354.10 1.555753
354.20 1.555487
354.30 1.555221
354.40 1.554955
354.50 1.554689
354.60 1.554423
354.70 1.554157
354.80 1.553866
354.90 1.553541
355.00 1.553215
355.10 1.55289
355.20 1.552565
355.30 1.552393
355.40 1.552221
355.50 1.552048
355.60 1.551876
355.70 1.551578
355.80 1.551224
355.90 1.550684
356.00 1.55028
356.10 1.549993
356.20 1.549707
356.30 1.54942
356.40 1.549134
356.50 1.548847
356.60 1.548561
356.70 1.548275
356.80 1.547989
356.90 1.547703
357.00 1.547417
357.10 1.547131
357.20 1.546845
357.30 1.546559
357.40 1.546257
357.50 1.545925
357.60 1.545594
357.70 1.545263
357.80 1.544942
357.90 1.54462
358.00 1.544323
358.10 1.544031
358.20 1.543739
358.30 1.543447
358.40 1.543155
358.50 1.542864
358.60 1.542572
358.70 1.542281
358.80 1.541989
358.90 1.541698
359.00 1.541394
359.10 1.541067
359.20 1.540737
359.30 1.540387
359.40 1.540037
359.50 1.539788
359.60 1.539565
359.70 1.539341
359.80 1.538933
359.90 1.538524
360.00 1.538153
360.10 1.537847
360.20 1.537541
360.30 1.537236
360.40 1.53693
360.50 1.536625
360.60 1.536577
360.70 1.536312
360.80 1.536047
360.90 1.535782
361.00 1.535307
361.10 1.534782
361.20 1.534778
361.30 1.534513
361.40 1.53422
361.50 1.533634
361.60 1.533346
361.70 1.533082
361.80 1.532772
361.90 1.532381
362.00 1.53199
362.10 1.531882
362.20 1.531737
362.30 1.531402
362.40 1.531067
362.50 1.530733
362.60 1.530398
362.70 1.529978
362.80 1.529393
362.90 1.529127
363.00 1.528862
363.10 1.528549
363.20 1.528236
363.30 1.528079
363.40 1.527817
363.50 1.527554
363.60 1.527003
363.70 1.526773
363.80 1.52619
363.90 1.5259
364.00 1.525611
364.10 1.525322
364.20 1.525032
364.30 1.524816
364.40 1.524619
364.50 1.524361
364.60 1.523907
364.70 1.523452
364.80 1.522999
364.90 1.522738
365.00 1.522476
365.10 1.522216
365.20 1.521668
365.30 1.521694
365.40 1.521433
365.50 1.520886
365.60 1.52034
365.70 1.520028
365.80 1.519716
365.90 1.519496
366.00 1.519299
366.10 1.518889
366.20 1.51848
366.30 1.51807
366.40 1.517661
366.50 1.517425
366.60 1.517171
366.70 1.516774
366.80 1.516377
366.90 1.516009
367.00 1.515693
367.10 1.515377
367.20 1.515061
367.30 1.514745
367.40 1.51443
367.50 1.51421
367.60 1.514014
367.70 1.513637
367.80 1.513259
367.90 1.512882
368.00 1.512698
368.10 1.512158
368.20 1.511849
368.30 1.511544
368.40 1.51124
368.50 1.510936
368.60 1.510632
368.70 1.510328
368.80 1.510024
368.90 1.509535
369.00 1.509213
369.10 1.509015
369.20 1.508764
369.30 1.50832
369.40 1.507877
369.50 1.507433
369.60 1.507174
369.70 1.506915
369.80 1.506554
369.90 1.506192
370.00 1.50583
370.10 1.505337
370.20 1.505076
370.30 1.50482
370.40 1.50457
370.50 1.504029
370.60 1.503766
370.70 1.503247
370.80 1.502989
370.90 1.502731
371.00 1.502479
371.10 1.502226
371.20 1.501693
371.30 1.50116
371.40 1.501093
371.50 1.5008
371.60 1.500508
371.70 1.500215
371.80 1.499923
371.90 1.49963
372.00 1.498987
372.10 1.498575
372.20 1.498229
372.30 1.497884
372.40 1.497538
372.50 1.497193
372.60 1.496848
372.70 1.496503
372.80 1.496247
372.90 1.495991
373.00 1.495741
373.10 1.49549
373.20 1.494963
373.30 1.494436
373.40 1.494184
373.50 1.493657
373.60 1.493405
373.70 1.492879
373.80 1.492747
373.90 1.492375
374.00 1.491987
374.10 1.491598
374.20 1.49121
374.30 1.490822
374.40 1.490707
374.50 1.49032
374.60 1.489929
374.70 1.489543
374.80 1.489157
374.90 1.488771
375.00 1.48852
375.10 1.488269
375.20 1.488019
375.30 1.487613
375.40 1.487208
375.50 1.486803
375.60 1.486398
375.70 1.485993
375.80 1.485588
375.90 1.485184
376.00 1.484929
376.10 1.484611
376.20 1.484292
376.30 1.483973
376.40 1.483654
376.50 1.483297
376.60 1.48288
376.70 1.482464
376.80 1.482114
376.90 1.481829
377.00 1.481544
377.10 1.481259
377.20 1.480939
377.30 1.480488
377.40 1.480038
377.50 1.479588
377.60 1.47927
377.70 1.478952
377.80 1.478635
377.90 1.478317
378.00 1.477814
378.10 1.477461
378.20 1.477112
378.30 1.476764
378.40 1.476415
378.50 1.476067
378.60 1.475719
378.70 1.475371
378.80 1.475024
378.90 1.474663
379.00 1.474279
379.10 1.473926
379.20 1.473574
379.30 1.473181
379.40 1.472747
379.50 1.472313
379.60 1.47192
379.70 1.471591
379.80 1.471267
379.90 1.470944
380.00 1.47062
380.10 1.470296
380.20 1.469973
380.30 1.46965
380.40 1.469326
380.50 1.469003
380.60 1.468428
380.70 1.468135
380.80 1.467843
380.90 1.467551
381.00 1.467259
381.10 1.466818
381.20 1.466479
381.30 1.466002
381.40 1.465422
381.50 1.465192
381.60 1.464923
381.70 1.464503
381.80 1.46426
381.90 1.463755
382.00 1.463251
382.10 1.463008
382.20 1.462451
382.30 1.462209
382.40 1.4619
382.50 1.461492
382.60 1.461084
382.70 1.460762
382.80 1.46045
382.90 1.460052
383.00 1.459653
383.10 1.459255
383.20 1.458902
383.30 1.458715
383.40 1.458447
383.50 1.458057
383.60 1.457334
383.70 1.456985
383.80 1.456635
383.90 1.456286
384.00 1.455937
384.10 1.455589
384.20 1.45524
384.30 1.454891
384.40 1.454519
384.50 1.454124
384.60 1.453729
384.70 1.453334
384.80 1.45299
384.90 1.45278
385.00 1.452467
385.10 1.452146
385.20 1.451515
385.30 1.451023
385.40 1.45064
385.50 1.450367
385.60 1.450093
385.70 1.44982
385.80 1.44951
385.90 1.449058
386.00 1.448639
386.10 1.448255
386.20 1.447901
386.30 1.447546
386.40 1.44712
386.50 1.446757
386.60 1.44652
386.70 1.445772
386.80 1.445535
386.90 1.445298
387.00 1.444819
387.10 1.444327
387.20 1.444078
387.30 1.443841
387.40 1.443228
387.50 1.44286
387.60 1.442704
387.70 1.442341
387.80 1.441978
387.90 1.441615
388.00 1.441173
388.10 1.440507
388.20 1.440356
388.30 1.439936
388.40 1.439516
388.50 1.439139
388.60 1.438749
388.70 1.438465
388.80 1.437963
388.90 1.43754
389.00 1.437305
389.10 1.436774
389.20 1.436552
389.30 1.436189
389.40 1.43571
389.50 1.435297
389.60 1.435017
389.70 1.43478
389.80 1.434386
389.90 1.433992
390.00 1.433599
390.10 1.433205
390.20 1.432812
390.30 1.432401
390.40 1.431969
390.50 1.431538
390.60 1.431108
390.70 1.430677
390.80 1.430378
390.90 1.430211
391.00 1.429698
391.10 1.429209
391.20 1.428812
391.30 1.428595
391.40 1.428197
391.50 1.4278
391.60 1.427403
391.70 1.427006
391.80 1.426609
391.90 1.426275
392.00 1.425913
392.10 1.4254
392.20 1.424945
392.30 1.424808
392.40 1.424409
392.50 1.42377
392.60 1.423454
392.70 1.423224
392.80 1.422833
392.90 1.422362
393.00 1.421901
393.10 1.421486
393.20 1.421133
393.30 1.420904
393.40 1.420631
393.50 1.419909
393.60 1.41968
393.70 1.419316
393.80 1.418775
393.90 1.418547
394.00 1.418275
394.10 1.417673
394.20 1.417203
394.30 1.416822
394.40 1.416422
394.50 1.416154
394.60 1.415711
394.70 1.415304
394.80 1.415037
394.90 1.414756
395.00 1.414111
395.10 1.413813
395.20 1.413353
395.30 1.412956
395.40 1.41256
395.50 1.412221
395.60 1.411904
395.70 1.411563
395.80 1.411156
395.90 1.41075
396.00 1.410369
396.10 1.410156
396.20 1.409688
396.30 1.409154
396.40 1.408929
396.50 1.408219
396.60 1.407994
396.70 1.40777
396.80 1.407257
396.90 1.406836
397.00 1.406612
397.10 1.405904
397.20 1.40568
397.30 1.405095
397.40 1.404845
397.50 1.404594
397.60 1.404317
397.70 1.403783
397.80 1.403248
397.90 1.402761
398.00 1.4024
398.10 1.40204
398.20 1.401704
398.30 1.401395
398.40 1.401085
398.50 1.400752
398.60 1.400149
398.70 1.39976
398.80 1.39945
398.90 1.399128
399.00 1.398782
399.10 1.398111
399.20 1.39774
399.30 1.39737
399.40 1.396999
399.50 1.396629
399.60 1.396242
399.70 1.395849
399.80 1.395455
399.90 1.395062
400.00 1.394671
400.10 1.394341
400.20 1.394078
400.30 1.393675
400.40 1.393167
400.50 1.392609
400.60 1.392261
400.70 1.392042
400.80 1.391475
400.90 1.391257
401.00 1.390591
401.10 1.390344
401.20 1.390024
401.30 1.389787
401.40 1.389343
401.50 1.388826
401.60 1.388316
401.70 1.387989
401.80 1.387767
401.90 1.387426
402.00 1.386961
402.10 1.386271
402.20 1.386054
402.30 1.385636
402.40 1.385148
402.50 1.384931
402.60 1.384269
402.70 1.384027
402.80 1.383811
402.90 1.383312
403.00 1.382861
403.10 1.382692
403.20 1.382017
403.30 1.381693
403.40 1.381473
403.50 1.381109
403.60 1.380674
403.70 1.37999
403.80 1.379783
403.90 1.379366
404.00 1.378877
404.10 1.378663
404.20 1.378214
404.30 1.377766
404.40 1.37734
404.50 1.376871
404.60 1.376657
404.70 1.375977
404.80 1.375776
404.90 1.375549
405.00 1.37487
405.10 1.374457
405.20 1.374111
405.30 1.373765
405.40 1.373397
405.50 1.37303
405.60 1.372662
405.70 1.372295
405.80 1.371928
405.90 1.371561
406.00 1.371165
406.10 1.370769
406.20 1.370374
406.30 1.369979
406.40 1.369575
406.50 1.369018
406.60 1.36869
406.70 1.368161
406.80 1.367669
406.90 1.367602
407.00 1.367161
407.10 1.366719
407.20 1.366279
407.30 1.365838
407.40 1.365398
407.50 1.364957
407.60 1.364518
407.70 1.364078
407.80 1.363639
407.90 1.363208
408.00 1.363041
408.10 1.362774
408.20 1.362345
408.30 1.361977
408.40 1.361608
408.50 1.361022
408.60 1.360672
408.70 1.360323
408.80 1.359939
408.90 1.359337
409.00 1.358935
409.10 1.358534
409.20 1.358132
409.30 1.357731
409.40 1.357332
409.50 1.356991
409.60 1.35665
409.70 1.356287
409.80 1.355835
409.90 1.35539
410.00 1.35517
410.10 1.354509
410.20 1.354133
410.30 1.353827
410.40 1.353508
410.50 1.353147
410.60 1.352786
410.70 1.352402
410.80 1.351927
410.90 1.351452
411.00 1.351031
411.10 1.35063
411.20 1.350229
411.30 1.349854
411.40 1.349577
411.50 1.34908
411.60 1.348584
411.70 1.348102
411.80 1.347672
411.90 1.347423
412.00 1.346994
412.10 1.346677
412.20 1.346137
412.30 1.345933
412.40 1.345296
412.50 1.345077
412.60 1.344425
412.70 1.344053
412.80 1.34375
412.90 1.343368
413.00 1.342781
413.10 1.342398
413.20 1.342014
413.30 1.341631
413.40 1.341248
413.50 1.340905
413.60 1.340664
413.70 1.340239
413.80 1.339814
413.90 1.33939
414.00 1.338966
414.10 1.338542
414.20 1.338064
414.30 1.337864
414.40 1.337218
414.50 1.337017
414.60 1.336426
414.70 1.336003
414.80 1.335581
414.90 1.335159
415.00 1.334738
415.10 1.334316
415.20 1.333908
415.30 1.333542
415.40 1.333175
415.50 1.332811
415.60 1.332486
415.70 1.332162
415.80 1.331797
415.90 1.331302
416.00 1.330807
416.10 1.330347
416.20 1.330025
416.30 1.329703
416.40 1.329381
416.50 1.329057
416.60 1.328639
416.70 1.328214
416.80 1.327577
416.90 1.327177
417.00 1.326743
417.10 1.326553
417.20 1.326136
417.30 1.325718
417.40 1.325238
417.50 1.324758
417.60 1.324322
417.70 1.324057
417.80 1.323642
417.90 1.323228
418.00 1.322813
418.10 1.322399
418.20 1.321985
418.30 1.321565
418.40 1.32099
418.50 1.320595
418.60 1.320201
418.70 1.319807
418.80 1.319413
418.90 1.31902
419.00 1.318626
419.10 1.318233
419.20 1.31784
419.30 1.317449
419.40 1.317128
419.50 1.316807
419.60 1.316454
419.70 1.315973
419.80 1.315493
419.90 1.315028
420.00 1.314614
420.10 1.3142
420.20 1.313787
420.30 1.313373
420.40 1.31296
420.50 1.312547
420.60 1.312135
420.70 1.311722
420.80 1.31131
420.90 1.310901
421.00 1.310588
421.10 1.310276
421.20 1.309932
421.30 1.309494
421.40 1.309057
421.50 1.30862
421.60 1.308183
421.70 1.307746
421.80 1.30731
421.90 1.30688
422.00 1.306471
422.10 1.306075
422.20 1.305726
422.30 1.305378
422.40 1.305028
422.50 1.304605
422.60 1.304182
422.70 1.303759
422.80 1.303337
422.90 1.302915
423.00 1.302493
423.10 1.302071
423.20 1.30165
423.30 1.301229
423.40 1.300808
423.50 1.300387
423.60 1.299967
423.70 1.299547
423.80 1.299127
423.90 1.298708
424.00 1.298288
424.10 1.297869
424.20 1.29745
424.30 1.297032
424.40 1.296996
424.50 1.296556
424.60 1.296117
424.70 1.295678
424.80 1.295239
424.90 1.2948
425.00 1.294362
425.10 1.293923
425.20 1.293486
425.30 1.293048
425.40 1.292614
425.50 1.292202
425.60 1.29179
425.70 1.291379
425.80 1.290968
425.90 1.290557
426.00 1.290146
426.10 1.289735
426.20 1.289325
426.30 1.288915
426.40 1.288505
426.50 1.288096
426.60 1.287686
426.70 1.287277
426.80 1.286869
426.90 1.28646
427.00 1.286056
427.10 1.285653
427.20 1.28525
427.30 1.284847
427.40 1.284444
427.50 1.284042
427.60 1.283639
427.70 1.283237
427.80 1.282836
427.90 1.282434
428.00 1.282033
428.10 1.281632
428.20 1.281231
428.30 1.28083
428.40 1.28043
428.50 1.28003
428.60 1.27963
428.70 1.27923
428.80 1.27883
428.90 1.278416
429.00 1.278003
429.10 1.27759
429.20 1.277177
429.30 1.276764
429.40 1.276352
429.50 1.27594
429.60 1.275528
429.70 1.275116
429.80 1.274705
429.90 1.274294
430.00 1.273883
430.10 1.273472
430.20 1.273062
430.30 1.272652
430.40 1.272242
430.50 1.271832
430.60 1.271423
430.70 1.271013
430.80 1.270604
430.90 1.270196
431.00 1.269787
431.10 1.269379
431.20 1.268971
431.30 1.268564
431.40 1.26816
431.50 1.267757
431.60 1.267354
431.70 1.266951
431.80 1.266549
431.90 1.266147
432.00 1.265745
432.10 1.265343
432.20 1.264942
432.30 1.26454
432.40 1.264139
432.50 1.263739
432.60 1.263338
432.70 1.262938
432.80 1.262538
432.90 1.262138
433.00 1.261738
433.10 1.261339
433.20 1.26094
433.30 1.26054
433.40 1.260135
433.50 1.259729
433.60 1.259324
433.70 1.258919
433.80 1.258535
433.90 1.258177
434.00 1.257769
434.10 1.257332
434.20 1.256895
434.30 1.256459
434.40 1.256022
434.50 1.255586
434.60 1.25515
434.70 1.254715
434.80 1.254283
434.90 1.253899
435.00 1.253516
435.10 1.253133
435.20 1.25275
435.30 1.252368
435.40 1.251986
435.50 1.251603
435.60 1.251222
435.70 1.25084
435.80 1.250458
435.90 1.250077
436.00 1.249696
436.10 1.249315
436.20 1.248935
436.30 1.248468
436.40 1.247907
436.50 1.247495
436.60 1.247082
436.70 1.24667
436.80 1.246259
436.90 1.245847
437.00 1.245436
437.10 1.245025
437.20 1.244617
437.30 1.24421
437.40 1.243807
437.50 1.243438
437.60 1.243069
437.70 1.242701
437.80 1.242332
437.90 1.241964
438.00 1.241593
438.10 1.241178
438.20 1.240763
438.30 1.24028
438.40 1.239729
438.50 1.239362
438.60 1.238981
438.70 1.238417
438.80 1.238249
438.90 1.237685
439.00 1.237517
439.10 1.236953
439.20 1.236404
439.30 1.236039
439.40 1.235674
439.50 1.23531
439.60 1.234932
439.70 1.234562
439.80 1.234244
439.90 1.233773
440.00 1.233302
440.10 1.232832
440.20 1.232367
440.30 1.231965
440.40 1.231563
440.50 1.231161
440.60 1.230759
440.70 1.230358
440.80 1.229957
440.90 1.229557
441.00 1.229156
441.10 1.228756
441.20 1.228362
441.30 1.228047
441.40 1.227684
441.50 1.227262
441.60 1.22684
441.70 1.226348
441.80 1.225972
441.90 1.225597
442.00 1.225221
442.10 1.224846
442.20 1.224471
442.30 1.224096
442.40 1.223699
442.50 1.223274
442.60 1.222849
442.70 1.222373
442.80 1.221838
442.90 1.221526
443.00 1.221198
443.10 1.220848
443.20 1.220394
443.30 1.219843
443.40 1.219381
443.50 1.219025
443.60 1.218582
443.70 1.218421
443.80 1.217872
443.90 1.217323
444.00 1.217162
444.10 1.216614
444.20 1.216066
444.30 1.215916
444.40 1.215517
444.50 1.215117
444.60 1.214652
444.70 1.214106
444.80 1.213659
444.90 1.213303
445.00 1.212947
445.10 1.212591
445.20 1.212209
445.30 1.211795
445.40 1.211381
445.50 1.210967
445.60 1.210553
445.70 1.210139
445.80 1.209757
445.90 1.209403
446.00 1.209049
446.10 1.208696
446.20 1.208258
446.30 1.207717
446.40 1.207275
446.50 1.206926
446.60 1.206577
446.70 1.206228
446.80 1.20578
446.90 1.205241
447.00 1.205084
447.10 1.204545
447.20 1.204006
447.30 1.203849
447.40 1.203311
447.50 1.202774
447.60 1.202367
447.70 1.20208
447.80 1.201632
447.90 1.201293
448.00 1.200917
448.10 1.200508
448.20 1.200099
448.30 1.19969
448.40 1.199282
448.50 1.198874
448.60 1.198481
448.70 1.198101
448.80 1.197717
448.90 1.197266
449.00 1.196814
449.10 1.196363
449.20 1.195913
449.30 1.195804
449.40 1.195272
449.50 1.19474
449.60 1.194287
449.70 1.193906
449.80 1.193526
449.90 1.193146
450.00 1.192766
450.10 1.192387
450.20 1.192007
450.30 1.191628
450.40 1.191225
450.50 1.190821
450.60 1.190418
450.70 1.190015
450.80 1.189613
450.90 1.18921
451.00 1.188834
451.10 1.188459
451.20 1.188005
451.30 1.187478
451.40 1.18714
451.50 1.186801
451.60 1.186275
451.70 1.185937
451.80 1.1856
451.90 1.185075
452.00 1.184738
452.10 1.1844
452.20 1.18397
452.30 1.18354
452.40 1.18311
452.50 1.18268
452.60 1.18241
452.70 1.182051
452.80 1.181611
452.90 1.181172
453.00 1.180733
453.10 1.180294
453.20 1.179887
453.30 1.17948
453.40 1.179073
453.50 1.178666
453.60 1.17826
453.70 1.177854
453.80 1.177446
453.90 1.177034
454.00 1.176623
454.10 1.176212
454.20 1.17583
454.30 1.175447
454.40 1.175065
454.50 1.174683
454.60 1.174301
454.70 1.173904
454.80 1.173493
454.90 1.173082
455.00 1.172672
455.10 1.172262
455.20 1.171852
455.30 1.171442
455.40 1.171033
455.50 1.170624
455.60 1.170215
455.70 1.169806
455.80 1.16949
455.90 1.169174
456.00 1.168858
456.10 1.168517
456.20 1.168107
456.30 1.167698
456.40 1.167288
456.50 1.166879
456.60 1.16647
456.70 1.166062
456.80 1.165653
456.90 1.165245
457.00 1.164837
457.10 1.16443
457.20 1.163969
457.30 1.163563
457.40 1.163156
457.50 1.16275
457.60 1.162344
457.70 1.161938
457.80 1.161532
457.90 1.161127
458.00 1.160722
458.10 1.160317
458.20 1.159913
458.30 1.159508
458.40 1.159104
458.50 1.1587
458.60 1.158297
458.70 1.157911
458.80 1.157534
458.90 1.157156
459.00 1.156779
459.10 1.156402
459.20 1.156025
459.30 1.155623
459.40 1.155221
459.50 1.154819
459.60 1.154418
459.70 1.154016
459.80 1.153615
459.90 1.153214
460.00 1.152814
460.10 1.152414
460.20 1.152013
460.30 1.151613
460.40 1.151214
460.50 1.150814
460.60 1.150415
460.70 1.150046
460.80 1.149692
460.90 1.149338
461.00 1.148985
461.10 1.148631
461.20 1.148175
461.30 1.147677
461.40 1.147255
461.50 1.146853
461.60 1.14645
461.70 1.146048
461.80 1.145652
461.90 1.145256
462.00 1.14486
462.10 1.144465
462.20 1.14407
462.30 1.143675
462.40 1.14328
462.50 1.142886
462.60 1.142492
462.70 1.142098
462.80 1.141704
462.90 1.141311
463.00 1.140918
463.10 1.140525
463.20 1.140134
463.30 1.139745
463.40 1.139356
463.50 1.138967
463.60 1.138579
463.70 1.138191
463.80 1.137803
463.90 1.137403
464.00 1.137
464.10 1.136598
464.20 1.136196
464.30 1.135794
464.40 1.135393
464.50 1.134991
464.60 1.13459
464.70 1.13421
464.80 1.133837
464.90 1.133465
465.00 1.133093
465.10 1.132722
465.20 1.13235
465.30 1.131946
465.40 1.131521
465.50 1.131095
465.60 1.13067
465.70 1.130246
465.80 1.129821
465.90 1.129417
466.00 1.129018
466.10 1.12862
466.20 1.128222
466.30 1.127838
466.40 1.127459
466.50 1.127081
466.60 1.126703
466.70 1.126326
466.80 1.125948
466.90 1.125571
467.00 1.125194
467.10 1.124818
467.20 1.124441
467.30 1.12399
467.40 1.123564
467.50 1.123152
467.60 1.122741
467.70 1.122329
467.80 1.121918
467.90 1.121582
468.00 1.121277
468.10 1.120972
468.20 1.120668
468.30 1.12024
468.40 1.119762
468.50 1.119284
468.60 1.11885
468.70 1.118676
468.80 1.118199
468.90 1.117722
469.00 1.117245
469.10 1.116831
469.20 1.116442
469.30 1.116052
469.40 1.115664
469.50 1.11532
469.60 1.114994
469.70 1.114669
469.80 1.114344
469.90 1.114007
470.00 1.113533
470.10 1.11311
470.20 1.112707
470.30 1.112304
470.40 1.111901
470.50 1.111499
470.60 1.11111
470.70 1.110724
470.80 1.110338
470.90 1.109953
471.00 1.109499
471.10 1.109296
471.20 1.108901
471.30 1.10843
471.40 1.10796
471.50 1.10749
471.60 1.107158
471.70 1.10686
471.80 1.106494
471.90 1.106111
472.00 1.105728
472.10 1.105345
472.20 1.104948
472.30 1.104547
472.40 1.104147
472.50 1.103747
472.60 1.103347
472.70 1.1029
472.80 1.102488
472.90 1.10209
473.00 1.101692
473.10 1.101295
473.20 1.100898
473.30 1.100501
473.40 1.100104
473.50 1.099707
473.60 1.099311
473.70 1.098915
473.80 1.098531
473.90 1.098151
474.00 1.097771
474.10 1.097391
474.20 1.097004
474.30 1.096615
474.40 1.096226
474.50 1.095838
474.60 1.095451
474.70 1.095083
474.80 1.094714
474.90 1.094346
475.00 1.093979
475.10 1.093611
475.20 1.093243
475.30 1.092876
475.40 1.092502
475.50 1.092126
475.60 1.09175
475.70 1.091375
475.80 1.090999
475.90 1.090624
476.00 1.090249
476.10 1.089875
476.20 1.089476
476.30 1.089067
476.40 1.088659
476.50 1.08825
476.60 1.087842
476.70 1.087435
476.80 1.087027
476.90 1.08664
477.00 1.086259
477.10 1.085878
477.20 1.085497
477.30 1.085116
477.40 1.084736
477.50 1.084356
477.60 1.083976
477.70 1.083596
477.80 1.083216
477.90 1.082837
478.00 1.082458
478.10 1.082079
478.20 1.0817
478.30 1.081322
478.40 1.080944
478.50 1.080566
478.60 1.080188
478.70 1.079758
478.80 1.079307
478.90 1.078908
479.00 1.078522
479.10 1.078136
479.20 1.07775
479.30 1.077365
479.40 1.076987
479.50 1.076613
479.60 1.076239
479.70 1.075866
479.80 1.075493
479.90 1.07512
480.00 1.074747
480.10 1.074375
480.20 1.074002
480.30 1.07363
480.40 1.073259
480.50 1.072887
480.60 1.072515
480.70 1.072144
480.80 1.071773
480.90 1.071403
481.00 1.071032
481.10 1.070662
481.20 1.070277
481.30 1.069893
481.40 1.069509
481.50 1.069125
481.60 1.068741
481.70 1.068357
481.80 1.067974
481.90 1.067591
482.00 1.067208
482.10 1.066826
482.20 1.066443
482.30 1.066047
482.40 1.065652
482.50 1.065257
482.60 1.064862
482.70 1.064467
482.80 1.064073
482.90 1.063679
483.00 1.063285
483.10 1.062891
483.20 1.062498
483.30 1.062105
483.40 1.061712
483.50 1.061319
483.60 1.060927
483.70 1.06055
483.80 1.060173
483.90 1.059796
484.00 1.05942
484.10 1.059044
484.20 1.058665
484.30 1.058286
484.40 1.057907
484.50 1.057528
484.60 1.057149
484.70 1.056772
484.80 1.056408
484.90 1.056044
485.00 1.05568
485.10 1.055316
485.20 1.054953
485.30 1.054589
485.40 1.054226
485.50 1.053864
485.60 1.053501
485.70 1.053126
485.80 1.052752
485.90 1.052378
486.00 1.052004
486.10 1.051631
486.20 1.051257
486.30 1.050884
486.40 1.050511
486.50 1.050138
486.60 1.049766
486.70 1.049389
486.80 1.048958
486.90 1.048527
487.00 1.048097
487.10 1.047666
487.20 1.047295
487.30 1.046924
487.40 1.046553
487.50 1.046183
487.60 1.045813
487.70 1.045443
487.80 1.045073
487.90 1.044703
488.00 1.044334
488.10 1.043964
488.20 1.043596
488.30 1.043232
488.40 1.042868
488.50 1.042504
488.60 1.04214
488.70 1.041777
488.80 1.041351
488.90 1.040925
489.00 1.040523
489.10 1.040186
489.20 1.039848
489.30 1.039511
489.40 1.039174
489.50 1.038837
489.60 1.0385
489.70 1.038163
489.80 1.037744
489.90 1.037383
490.00 1.037022
490.10 1.036662
490.20 1.036302
490.30 1.035942
490.40 1.035519
490.50 1.035097
490.60 1.034675
490.70 1.034253
490.80 1.033832
490.90 1.033411
491.00 1.033307
491.10 1.032886
491.20 1.032465
491.30 1.032045
491.40 1.031625
491.50 1.031205
491.60 1.030831
491.70 1.030552
491.80 1.030263
491.90 1.029845
492.00 1.029426
492.10 1.029008
492.20 1.02859
492.30 1.028384
492.40 1.028069
492.50 1.027652
492.60 1.02724
492.70 1.026902
492.80 1.026564
492.90 1.026226
493.00 1.025882
493.10 1.025466
493.20 1.025051
493.30 1.024635
493.40 1.02422
493.50 1.023805
493.60 1.023398
493.70 1.0231
493.80 1.022803
493.90 1.02246
494.00 1.022046
494.10 1.021652
494.20 1.021298
494.30 1.020944
494.40 1.020591
494.50 1.020237
494.60 1.01988
494.70 1.019468
494.80 1.019056
494.90 1.018644
495.00 1.018233
495.10 1.017821
495.20 1.017475
495.30 1.017128
495.40 1.016782
495.50 1.016436
495.60 1.01609
495.70 1.015744
495.80 1.015399
495.90 1.015053
496.00 1.014708
496.10 1.014343
496.20 1.013934
496.30 1.013525
496.40 1.013117
496.50 1.012709
496.60 1.012301
496.70 1.01194
496.80 1.011578
496.90 1.011217
497.00 1.010856
497.10 1.010495
497.20 1.010134
497.30 1.009789
497.40 1.009488
497.50 1.009188
497.60 1.008853
497.70 1.00845
497.80 1.008079
497.90 1.007708
498.00 1.007338
498.10 1.006967
498.20 1.006597
498.30 1.006227
498.40 1.005857
498.50 1.005487
498.60 1.005118
498.70 1.004715
498.80 1.004312
498.90 1.003909
499.00 1.003507
499.10 1.003105
499.20 1.002796
499.30 1.002608
499.40 1.002206
499.50 1.001805
499.60 1.001404
499.70 1.001008
499.80 1.000672
499.90 1.000336
500.00 1
500.10 0.9996644
500.20 0.9993084
500.30 0.998909
500.40 0.9985098
500.50 0.9981108
500.60 0.9977121
500.70 0.9973136
500.80 0.9969447
500.90 0.9966384
501.00 0.9963322
501.10 0.9960262
501.20 0.9956288
501.30 0.9952316
501.40 0.9948346
501.50 0.9944379
501.60 0.9940415
501.70 0.9936452
501.80 0.9932978
501.90 0.9930536
502.00 0.992761
502.10 0.9923656
502.20 0.9919704
502.30 0.9915755
502.40 0.9911969
502.50 0.9908529
502.60 0.990509
502.70 0.9901653
502.80 0.9898219
502.90 0.9894786
503.00 0.9891194
503.10 0.9887262
503.20 0.9883333
503.30 0.9879406
503.40 0.9875671
503.50 0.9872476
503.60 0.9869283
503.70 0.9866091
503.80 0.9862815
503.90 0.9858901
504.00 0.9854989
504.10 0.9851079
504.20 0.9847172
504.30 0.9843267
504.40 0.9839364
504.50 0.9835464
504.60 0.9831566
504.70 0.9827671
504.80 0.982625
504.90 0.9822882
505.00 0.9818992
505.10 0.9815105
505.20 0.9811219
505.30 0.9807336
505.40 0.9803456
505.50 0.9799577
505.60 0.9795859
505.70 0.9792478
505.80 0.9789099
505.90 0.9785722
506.00 0.9782347
506.10 0.9778973
506.20 0.977556
506.30 0.9772032
506.40 0.9768507
506.50 0.9764983
506.60 0.9761461
506.70 0.9757941
506.80 0.9754423
506.90 0.9750907
507.00 0.9747393
507.10 0.9743775
507.20 0.9739982
507.30 0.9736328
507.40 0.9732676
507.50 0.9729026
507.60 0.9725378
507.70 0.9721733
507.80 0.9718089
507.90 0.9714448
508.00 0.9710808
508.10 0.9707171
508.20 0.9703536
508.30 0.9699903
508.40 0.9696273
508.50 0.9692644
508.60 0.9689017
508.70 0.9685393
508.80 0.9681722
508.90 0.9677918
509.00 0.9674115
509.10 0.9670393
509.20 0.966684
509.30 0.9663288
509.40 0.9659739
509.50 0.9656191
509.60 0.9652646
509.70 0.9649102
509.80 0.9645561
509.90 0.9642021
510.00 0.9638484
510.10 0.9634949
510.20 0.9631415
510.30 0.962788
510.40 0.9624334
510.50 0.962079
510.60 0.9617249
510.70 0.9613709
510.80 0.9610171
510.90 0.9606636
511.00 0.9603102
511.10 0.9599571
511.20 0.9596041
511.30 0.9592514
511.40 0.9588988
511.50 0.9585465
511.60 0.9582003
511.70 0.9578672
511.80 0.9575342
511.90 0.9572014
512.00 0.9568688
512.10 0.9565364
512.20 0.9562041
512.30 0.955866
512.40 0.9555107
512.50 0.9551556
512.60 0.9548006
512.70 0.9544459
512.80 0.9540914
512.90 0.9537371
513.00 0.953383
513.10 0.9530291
513.20 0.9526754
513.30 0.952322
513.40 0.9519687
513.50 0.9516156
513.60 0.9512627
513.70 0.95091
513.80 0.9505576
513.90 0.9502053
514.00 0.9498477
514.10 0.9494895
514.20 0.9491315
514.30 0.9487736
514.40 0.948416
514.50 0.9480586
514.60 0.9477014
514.70 0.9473444
514.80 0.9469876
514.90 0.946631
515.00 0.9462746
515.10 0.9459185
515.20 0.9455625
515.30 0.9452067
515.40 0.9448511
515.50 0.9444958
515.60 0.9441406
515.70 0.9437857
515.80 0.9434309
515.90 0.9430764
516.00 0.9427221
516.10 0.9423679
516.20 0.942014
516.30 0.9416603
516.40 0.9413067
516.50 0.9409552
516.60 0.9406132
516.70 0.9402715
516.80 0.9399299
516.90 0.9395885
517.00 0.9392473
517.10 0.9389063
517.20 0.9385655
517.30 0.9382248
517.40 0.9378844
517.50 0.9375442
517.60 0.9372041
517.70 0.9368643
517.80 0.9365246
517.90 0.9361852
518.00 0.9358459
518.10 0.9355068
518.20 0.9351679
518.30 0.9348293
518.40 0.9344908
518.50 0.9341524
518.60 0.9338143
518.70 0.9334764
518.80 0.9331387
518.90 0.9328011
519.00 0.9324638
519.10 0.9321214
519.20 0.9317732
519.30 0.9314253
519.40 0.9310776
519.50 0.9307301
519.60 0.9303828
519.70 0.9300357
519.80 0.9296888
519.90 0.929342
520.00 0.9289955
520.10 0.9286492
520.20 0.9283031
520.30 0.9279571
520.40 0.9276114
520.50 0.9272659
520.60 0.9269205
520.70 0.9265754
520.80 0.9262304
520.90 0.9258857
521.00 0.9255411
521.10 0.9251968
521.20 0.9248526
521.30 0.9245086
521.40 0.9241649
521.50 0.9238213
521.60 0.9234779
521.70 0.9231347
521.80 0.9227918
521.90 0.922449
522.00 0.9221064
522.10 0.921764
522.20 0.9214218
522.30 0.9210797
522.40 0.9207379
522.50 0.9203963
522.60 0.9200549
522.70 0.9197136
522.80 0.9193726
522.90 0.9190317
523.00 0.9186911
523.10 0.9183506
523.20 0.9180104
523.30 0.9176703
523.40 0.9173304
523.50 0.9169907
523.60 0.9166512
523.70 0.9163119
523.80 0.9159728
523.90 0.9156339
524.00 0.9152951
524.10 0.9149566
524.20 0.9146183
524.30 0.9142771
524.40 0.9139337
524.50 0.9135905
524.60 0.9132476
524.70 0.9129048
524.80 0.9125622
524.90 0.9122198
525.00 0.9118776
525.10 0.9115356
525.20 0.9111938
525.30 0.9108522
525.40 0.9105108
525.50 0.9101696
525.60 0.9098285
525.70 0.9094877
525.80 0.9091471
525.90 0.9088066
526.00 0.9084664
526.10 0.9081263
526.20 0.9077864
526.30 0.9074468
526.40 0.9071073
526.50 0.906768
526.60 0.9064289
526.70 0.90609
526.80 0.9057513
526.90 0.9054127
527.00 0.9050744
527.10 0.9047363
527.20 0.9043983
527.30 0.9040605
527.40 0.903723
527.50 0.9033856
527.60 0.9030484
527.70 0.9027114
527.80 0.9023746
527.90 0.902038
528.00 0.9017016
528.10 0.9013654
528.20 0.9010293
528.30 0.9006935
528.40 0.9003578
528.50 0.9000223
528.60 0.899687
528.70 0.8993519
528.80 0.899017
528.90 0.8986823
529.00 0.8983478
529.10 0.8980134
529.20 0.8976793
529.30 0.8973453
529.40 0.8970116
529.50 0.8966772
529.60 0.8963387
529.70 0.8960003
529.80 0.895662
529.90 0.895324
530.00 0.8949862
530.10 0.8946486
530.20 0.8943111
530.30 0.8939739
530.40 0.8936368
530.50 0.8932999
530.60 0.8929633
530.70 0.8926268
530.80 0.8922905
530.90 0.8919544
531.00 0.8916184
531.10 0.8912827
531.20 0.8909472
531.30 0.8906118
531.40 0.8902766
531.50 0.8899417
531.60 0.8896069
531.70 0.8892723
531.80 0.8889379
531.90 0.8886037
532.00 0.8882696
532.10 0.8879358
532.20 0.8876021
532.30 0.8872687
532.40 0.8869354
532.50 0.8866023
532.60 0.8862694
532.70 0.8859367
532.80 0.8856042
532.90 0.8852718
533.00 0.8849397
533.10 0.8846077
533.20 0.8842759
533.30 0.8839443
533.40 0.8836129
533.50 0.8832817
533.60 0.8829507
533.70 0.8826198
533.80 0.8822892
533.90 0.8819587
534.00 0.8816284
534.10 0.8812983
534.20 0.8809684
534.30 0.8806386
534.40 0.8803091
534.50 0.8799797
534.60 0.8796505
534.70 0.8793215
534.80 0.8789927
534.90 0.8786641
535.00 0.8783357
535.10 0.8780074
535.20 0.8776793
535.30 0.8773514
535.40 0.8770237
535.50 0.8766962
535.60 0.8763689
535.70 0.8760417
535.80 0.8757147
535.90 0.875388
536.00 0.8750613
536.10 0.8747349
536.20 0.8744087
536.30 0.8740826
536.40 0.8737567
536.50 0.873431
536.60 0.8731055
536.70 0.8727802
536.80 0.8724551
536.90 0.8721301
537.00 0.8718053
537.10 0.8714807
537.20 0.8711563
537.30 0.870832
537.40 0.870508
537.50 0.8701841
537.60 0.8698604
537.70 0.8695369
537.80 0.8692135
537.90 0.8688904
538.00 0.8685674
538.10 0.8682446
538.20 0.867922
538.30 0.8675996
538.40 0.8672773
538.50 0.8669552
538.60 0.8666333
538.70 0.8663116
538.80 0.8659901
538.90 0.8656687
539.00 0.8653475
539.10 0.8650265
539.20 0.8647057
539.30 0.864385
539.40 0.8640646
539.50 0.8637443
539.60 0.8634242
539.70 0.8631042
539.80 0.8627845
539.90 0.8624649
540.00 0.8621455
540.10 0.8618263
540.20 0.8615003
540.30 0.8611718
540.40 0.8608434
540.50 0.8605152
540.60 0.8601872
540.70 0.8598594
540.80 0.8595318
540.90 0.8592043
541.00 0.858877
541.10 0.85855
541.20 0.8582231
541.30 0.8578963
541.40 0.8575698
541.50 0.8572435
541.60 0.8569173
541.70 0.8565913
541.80 0.8562655
541.90 0.8559399
542.00 0.8556144
542.10 0.8552892
542.20 0.8549641
542.30 0.8546392
542.40 0.8543145
542.50 0.8539899
542.60 0.8536656
542.70 0.8533414
542.80 0.8530174
542.90 0.8526936
543.00 0.85237
543.10 0.8520465
543.20 0.8517233
543.30 0.8514002
543.40 0.8510773
543.50 0.8507545
543.60 0.850432
543.70 0.8501096
543.80 0.8497874
543.90 0.8494654
544.00 0.8491436
544.10 0.8488219
544.20 0.8485005
544.30 0.8481792
544.40 0.8478581
544.50 0.8475371
544.60 0.8472164
544.70 0.8468958
544.80 0.8465754
544.90 0.8462552
545.00 0.8459351
545.10 0.8456152
545.20 0.8452956
545.30 0.844976
545.40 0.8446567
545.50 0.8443376
545.60 0.8440186
545.70 0.8436999
545.80 0.8433814
545.90 0.8430631
546.00 0.8427449
546.10 0.8424269
546.20 0.8421091
546.30 0.8417914
546.40 0.8414739
546.50 0.8411566
546.60 0.8408395
546.70 0.8405226
546.80 0.8402058
546.90 0.8398892
547.00 0.8395728
547.10 0.8392566
547.20 0.8389405
547.30 0.8386246
547.40 0.8383089
547.50 0.8379933
547.60 0.837678
547.70 0.8373628
547.80 0.8370478
547.90 0.8367329
548.00 0.8364182
548.10 0.8361037
548.20 0.8357894
548.30 0.8354753
548.40 0.8351613
548.50 0.8348475
548.60 0.8345339
548.70 0.8342204
548.80 0.8339071
548.90 0.833594
549.00 0.8332811
549.10 0.8329683
549.20 0.8326557
549.30 0.8323433
549.40 0.832031
549.50 0.8317189
549.60 0.831407
549.70 0.8310953
549.80 0.8307837
549.90 0.8304723
550.00 0.8301611
550.10 0.8298501
550.20 0.8295392
550.30 0.8292285
550.40 0.828918
550.50 0.8286076
550.60 0.8282974
550.70 0.8279874
550.80 0.8276775
550.90 0.8273678
551.00 0.8270583
551.10 0.8267491
551.20 0.82644
551.30 0.8261311
551.40 0.8258224
551.50 0.8255138
551.60 0.8252054
551.70 0.8248972
551.80 0.8245891
551.90 0.8242812
552.00 0.8239735
552.10 0.8236659
552.20 0.8233586
552.30 0.8230513
552.40 0.8227443
552.50 0.8224374
552.60 0.8221307
552.70 0.8218242
552.80 0.8215178
552.90 0.8212116
553.00 0.8209055
553.10 0.8205997
553.20 0.820294
553.30 0.8199884
553.40 0.819683
553.50 0.8193778
553.60 0.8190728
553.70 0.8187679
553.80 0.8184578
553.90 0.8181442
554.00 0.8178308
554.10 0.8175176
554.20 0.8172046
554.30 0.8168917
554.40 0.816579
554.50 0.8162665
554.60 0.8159541
554.70 0.8156419
554.80 0.8153299
554.90 0.8150181
555.00 0.8147064
555.10 0.8143949
555.20 0.8140836
555.30 0.8137724
555.40 0.8134614
555.50 0.8131506
555.60 0.81284
555.70 0.8125295
555.80 0.8122192
555.90 0.811909
556.00 0.8115991
556.10 0.8112893
556.20 0.8109797
556.30 0.8106702
556.40 0.8103609
556.50 0.8100521
556.60 0.8097477
556.70 0.8094436
556.80 0.8091396
556.90 0.8088357
557.00 0.8085321
557.10 0.8082286
557.20 0.8079252
557.30 0.807622
557.40 0.807319
557.50 0.8070162
557.60 0.8067135
557.70 0.806411
557.80 0.8061087
557.90 0.8058065
558.00 0.8055045
558.10 0.8052026
558.20 0.8049009
558.30 0.8045994
558.40 0.8042981
558.50 0.8039969
558.60 0.8036958
558.70 0.803395
558.80 0.8030943
558.90 0.8027937
559.00 0.8024934
559.10 0.8021931
559.20 0.8018931
559.30 0.8015932
559.40 0.8012935
559.50 0.8009939
559.60 0.8006945
559.70 0.8003953
559.80 0.8000962
559.90 0.7997973
560.00 0.7994986
560.10 0.7992
560.20 0.7989016
560.30 0.7986033
560.40 0.7983052
560.50 0.7980073
560.60 0.7977095
560.70 0.7974119
560.80 0.7971145
560.90 0.7968172
561.00 0.7965201
561.10 0.7962231
561.20 0.7959263
561.30 0.7956296
561.40 0.7953332
561.50 0.7950368
561.60 0.7947407
561.70 0.7944447
561.80 0.7941488
561.90 0.7938532
562.00 0.7935576
562.10 0.7932606
562.20 0.7929613
562.30 0.792662
562.40 0.792363
562.50 0.7920641
562.60 0.7917654
562.70 0.7914669
562.80 0.7911685
562.90 0.7908703
563.00 0.7905722
563.10 0.7902743
563.20 0.7899765
563.30 0.789679
563.40 0.7893815
563.50 0.7890843
563.60 0.7887872
563.70 0.7884903
563.80 0.7881935
563.90 0.7878969
564.00 0.7876004
564.10 0.7873041
564.20 0.787008
564.30 0.786712
564.40 0.7864162
564.50 0.7861206
564.60 0.7858251
564.70 0.7855297
564.80 0.7852346
564.90 0.7849371
565.00 0.7846337
565.10 0.7843305
565.20 0.7840275
565.30 0.7837246
565.40 0.7834219
565.50 0.7831193
565.60 0.782817
565.70 0.7825148
565.80 0.7822127
565.90 0.7819108
566.00 0.7816091
566.10 0.7813075
566.20 0.7810062
566.30 0.7807049
566.40 0.7804039
566.50 0.780103
566.60 0.7798022
566.70 0.7795017
566.80 0.7792013
566.90 0.778901
567.00 0.7786009
567.10 0.778301
567.20 0.7780013
567.30 0.7777017
567.40 0.7774022
567.50 0.777103
567.60 0.7768039
567.70 0.7765058
567.80 0.7762114
567.90 0.7759172
568.00 0.7756232
568.10 0.7753293
568.20 0.7750356
568.30 0.774742
568.40 0.7744486
568.50 0.7741554
568.60 0.7738623
568.70 0.7735694
568.80 0.7732766
568.90 0.772984
569.00 0.7726916
569.10 0.7723993
569.20 0.7721071
569.30 0.7718152
569.40 0.7715233
569.50 0.7712317
569.60 0.7709402
569.70 0.7706488
569.80 0.7703576
569.90 0.7700666
570.00 0.7697757
570.10 0.769485
570.20 0.7691944
570.30 0.768904
570.40 0.7686138
570.50 0.7683237
570.60 0.7680338
570.70 0.767744
570.80 0.7674543
570.90 0.7671649
571.00 0.7668756
571.10 0.7665864
571.20 0.7662974
571.30 0.7660085
571.40 0.7657199
571.50 0.7654313
571.60 0.7651429
571.70 0.7648547
571.80 0.7645666
571.90 0.7642787
572.00 0.7639909
572.10 0.7637033
572.20 0.7634159
572.30 0.7631286
572.40 0.7628414
572.50 0.7625544
572.60 0.7622676
572.70 0.7619809
572.80 0.7616944
572.90 0.761408
573.00 0.7611218
573.10 0.7608357
573.20 0.7605498
573.30 0.760264
573.40 0.7599777
573.50 0.7596906
573.60 0.7594037
573.70 0.7591169
573.80 0.7588303
573.90 0.7585438
574.00 0.7582574
574.10 0.7579713
574.20 0.7576852
574.30 0.7573994
574.40 0.7571136
574.50 0.7568281
574.60 0.7565427
574.70 0.7562574
574.80 0.7559723
574.90 0.7556873
575.00 0.7554025
575.10 0.7551179
575.20 0.7548334
575.30 0.754549
575.40 0.7542649
575.50 0.7539808
575.60 0.7536969
575.70 0.7534132
575.80 0.7531296
575.90 0.7528462
576.00 0.7525629
576.10 0.7522798
576.20 0.7519968
576.30 0.7517139
576.40 0.7514313
576.50 0.7511487
576.60 0.7508664
576.70 0.7505841
576.80 0.7503021
576.90 0.7500201
577.00 0.7497384
577.10 0.7494567
577.20 0.7491753
577.30 0.7488939
577.40 0.7486128
577.50 0.7483317
577.60 0.7480478
577.70 0.7477589
577.80 0.7474701
577.90 0.7471816
578.00 0.7468932
578.10 0.7466049
578.20 0.7463168
578.30 0.7460288
578.40 0.745741
578.50 0.7454534
578.60 0.7451659
578.70 0.7448786
578.80 0.7445914
578.90 0.7443043
579.00 0.7440175
579.10 0.7437313
579.20 0.7434511
579.30 0.743171
579.40 0.7428911
579.50 0.7426113
579.60 0.7423316
579.70 0.7420521
579.80 0.7417728
579.90 0.7414936
580.00 0.7412146
580.10 0.7409359
580.20 0.7406579
580.30 0.7403799
580.40 0.7401022
580.50 0.7398245
580.60 0.739547
580.70 0.7392697
580.80 0.7389925
580.90 0.7387155
581.00 0.7384386
581.10 0.7381618
581.20 0.7378852
581.30 0.7376088
581.40 0.7373325
581.50 0.7370563
581.60 0.7367803
581.70 0.7365045
581.80 0.7362287
581.90 0.7359532
582.00 0.7356777
582.10 0.7353996
582.20 0.7351169
582.30 0.7348344
582.40 0.7345521
582.50 0.7342699
582.60 0.7339879
582.70 0.733706
582.80 0.7334242
582.90 0.7331426
583.00 0.7328612
583.10 0.7325799
583.20 0.7322988
583.30 0.7320178
583.40 0.7317369
583.50 0.7314562
583.60 0.7311741
583.70 0.7308897
583.80 0.7306053
583.90 0.7303212
584.00 0.7300372
584.10 0.7297533
584.20 0.7294696
584.30 0.729186
584.40 0.7289026
584.50 0.7286194
584.60 0.7283362
584.70 0.7280533
584.80 0.7277705
584.90 0.7274939
585.00 0.7272452
585.10 0.7269967
585.20 0.7267397
585.30 0.7264691
585.40 0.7261987
585.50 0.7259284
585.60 0.7256582
585.70 0.7253882
585.80 0.7251183
585.90 0.7248485
586.00 0.7245789
586.10 0.7243095
586.20 0.7240345
586.30 0.7237505
586.40 0.7234667
586.50 0.723183
586.60 0.7228994
586.70 0.7226161
586.80 0.7223469
586.90 0.7221007
587.00 0.7218547
587.10 0.7216088
587.20 0.721321
587.30 0.7209647
587.40 0.7206506
587.50 0.7204053
587.60 0.7201601
587.70 0.7199151
587.80 0.7196701
587.90 0.7194253
588.00 0.7191597
588.10 0.7188599
588.20 0.7185603
588.30 0.7182609
588.40 0.7179686
588.50 0.7176879
588.60 0.7174073
588.70 0.7171269
588.80 0.7168466
588.90 0.7165665
589.00 0.7162921
589.10 0.7160269
589.20 0.7157619
589.30 0.715497
589.40 0.7152322
589.50 0.7149676
589.60 0.7147031
589.70 0.7144388
589.80 0.7141746
589.90 0.7139106
590.00 0.7136441
590.10 0.7133738
590.20 0.7131035
590.30 0.7128334
590.40 0.7125635
590.50 0.7122937
590.60 0.712024
590.70 0.7117545
590.80 0.7114866
590.90 0.7112195
591.00 0.7109525
591.10 0.7106857
591.20 0.710419
591.30 0.7101524
591.40 0.709886
591.50 0.7096197
591.60 0.7093525
591.70 0.7090837
591.80 0.708815
591.90 0.7085465
592.00 0.7082781
592.10 0.7080098
592.20 0.7077417
592.30 0.7074737
592.40 0.7072058
592.50 0.7069381
592.60 0.7066706
592.70 0.7064031
592.80 0.7061359
592.90 0.7058687
593.00 0.7056017
593.10 0.7053335
593.20 0.7050631
593.30 0.7047929
593.40 0.7045229
593.50 0.704253
593.60 0.7039832
593.70 0.7037136
593.80 0.7034441
593.90 0.7031747
594.00 0.7029055
594.10 0.7026365
594.20 0.7023675
594.30 0.7020988
594.40 0.7018301
594.50 0.7015616
594.60 0.7012933
594.70 0.701025
594.80 0.700757
594.90 0.700489
595.00 0.7002212
595.10 0.6999555
595.20 0.6996929
595.30 0.6994305
595.40 0.6991683
595.50 0.6989062
595.60 0.6986442
595.70 0.6983823
595.80 0.6981206
595.90 0.697859
596.00 0.6975976
596.10 0.6973363
596.20 0.6970751
596.30 0.6968141
596.40 0.6965532
596.50 0.6962924
596.60 0.6960318
596.70 0.6957737
596.80 0.6955174
596.90 0.6952612
597.00 0.6950051
597.10 0.6947491
597.20 0.6944933
597.30 0.6942376
597.40 0.6939821
597.50 0.6937266
597.60 0.6934661
597.70 0.6931972
597.80 0.6929284
597.90 0.6926598
598.00 0.6923913
598.10 0.6921229
598.20 0.6918547
598.30 0.6915866
598.40 0.6913187
598.50 0.6910509
598.60 0.6907832
598.70 0.6905157
598.80 0.6902483
598.90 0.6899811
599.00 0.689714
599.10 0.689447
599.20 0.6891802
599.30 0.6889135
599.40 0.6886518
599.50 0.6883902
599.60 0.6881287
599.70 0.6878674
599.80 0.6876062
599.90 0.6873452
600.00 0.6870843
600.10 0.6868235
600.20 0.6865628
600.30 0.6863023
600.40 0.6860419
600.50 0.6857817
600.60 0.6855216
600.70 0.6852616
600.80 0.6850018
600.90 0.6847421
601.00 0.6844825
601.10 0.6842231
601.20 0.6839638
601.30 0.6837047
601.40 0.683445
601.50 0.6831854
601.60 0.6829259
601.70 0.6826666
601.80 0.6824075
601.90 0.6821484
602.00 0.6818895
602.10 0.6816307
602.20 0.6813721
602.30 0.6811136
602.40 0.6808552
602.50 0.680597
602.60 0.6803389
602.70 0.6801116
602.80 0.6798859
602.90 0.679621
603.00 0.6793562
603.10 0.6790916
603.20 0.6788271
603.30 0.6785627
603.40 0.6782985
603.50 0.6780344
603.60 0.6777705
603.70 0.6775067
603.80 0.677243
603.90 0.6769795
604.00 0.6767161
604.10 0.6764528
604.20 0.6761897
604.30 0.6759267
604.40 0.6756639
604.50 0.6754194
604.60 0.6751751
604.70 0.674931
604.80 0.6746869
604.90 0.674443
605.00 0.6741992
605.10 0.6739555
605.20 0.673712
605.30 0.6734685
605.40 0.6732252
605.50 0.6729682
605.60 0.6727112
605.70 0.6724544
605.80 0.6721977
605.90 0.6719412
606.00 0.6716848
606.10 0.6714112
606.20 0.6711378
606.30 0.6708645
606.40 0.6705913
606.50 0.6703702
606.60 0.6701492
606.70 0.6699283
606.80 0.6697075
606.90 0.6693831
607.00 0.669059
607.10 0.6688386
607.20 0.6686183
607.30 0.6683463
607.40 0.6680746
607.50 0.6678029
607.60 0.6675314
607.70 0.6672772
607.80 0.6670232
607.90 0.6667694
608.00 0.6665156
608.10 0.666262
608.20 0.6660085
608.30 0.6657896
608.40 0.6655707
608.50 0.665352
608.60 0.6651333
608.70 0.6648898
608.80 0.6646352
608.90 0.6643807
609.00 0.6641264
609.10 0.6638721
609.20 0.663618
609.30 0.6633617
609.40 0.6631054
609.50 0.6628493
609.60 0.6625933
609.70 0.6623375
609.80 0.6620817
609.90 0.6618261
610.00 0.6615707
610.10 0.6613154
610.20 0.6610602
610.30 0.6608051
610.40 0.6605502
610.50 0.6602954
610.60 0.6600407
610.70 0.6597862
610.80 0.6595318
610.90 0.6592886
611.00 0.6590455
611.10 0.6588026
611.20 0.6585598
611.30 0.6583171
611.40 0.6580745
611.50 0.6578321
611.60 0.6575897
611.70 0.6573476
611.80 0.6571055
611.90 0.6568635
612.00 0.6566217
612.10 0.65638
612.20 0.6561384
612.30 0.6558969
612.40 0.655642
612.50 0.6553872
612.60 0.6551326
612.70 0.6548781
612.80 0.6546237
612.90 0.6543694
613.00 0.6541153
613.10 0.6538613
613.20 0.6536074
613.30 0.6533537
613.40 0.6531001
613.50 0.6528466
613.60 0.6525933
613.70 0.6523401
613.80 0.652087
613.90 0.6518341
614.00 0.6515812
614.10 0.6513285
614.20 0.651076
614.30 0.6508236
614.40 0.6506117
614.50 0.6504
614.60 0.6501883
614.70 0.6499768
614.80 0.6497332
614.90 0.6494831
615.00 0.6492331
615.10 0.6489833
615.20 0.6487336
615.30 0.648484
615.40 0.6482345
615.50 0.6479852
615.60 0.647736
615.70 0.6474869
615.80 0.647238
615.90 0.6469892
616.00 0.6467405
616.10 0.6464919
616.20 0.6462435
616.30 0.6459951
616.40 0.645747
616.50 0.6454989
616.60 0.645251
616.70 0.6450032
616.80 0.6447555
616.90 0.6445119
617.00 0.6442685
617.10 0.6440251
617.20 0.6437819
617.30 0.6435389
617.40 0.6432959
617.50 0.6430531
617.60 0.6428104
617.70 0.6425678
617.80 0.6423253
617.90 0.642083
618.00 0.6418407
618.10 0.6415986
618.20 0.6413567
618.30 0.6411148
618.40 0.6408731
618.50 0.6406315
618.60 0.64039
618.70 0.6401487
618.80 0.6399074
618.90 0.6396663
619.00 0.6394253
619.10 0.6391844
619.20 0.6389437
619.30 0.6387031
619.40 0.6384626
619.50 0.6382222
619.60 0.6379819
619.70 0.6377418
619.80 0.6375018
619.90 0.6372619
620.00 0.6370221
620.10 0.6367825
620.20 0.6365429
620.30 0.6363035
620.40 0.6360643
620.50 0.6358251
620.60 0.6355861
620.70 0.6353471
620.80 0.6351083
620.90 0.6348681
621.00 0.6346254
621.10 0.6343828
621.20 0.6341404
621.30 0.633898
621.40 0.6336558
621.50 0.6334137
621.60 0.6331717
621.70 0.6329298
621.80 0.6326881
621.90 0.6324465
622.00 0.632205
622.10 0.6319636
622.20 0.6317224
622.30 0.6314812
622.40 0.6312402
622.50 0.6309994
622.60 0.6307586
622.70 0.630518
622.80 0.6302774
622.90 0.6300371
623.00 0.6297968
623.10 0.6295566
623.20 0.6293166
623.30 0.6290767
623.40 0.6288369
623.50 0.6285973
623.60 0.6283577
623.70 0.6281183
623.80 0.627879
623.90 0.6276398
624.00 0.6274008
624.10 0.6271618
624.20 0.626923
624.30 0.6266843
624.40 0.6264458
624.50 0.6262073
624.60 0.625969
624.70 0.6257308
624.80 0.6254927
624.90 0.6252547
625.00 0.6250169
625.10 0.6247791
625.20 0.6245415
625.30 0.624304
625.40 0.6240667
625.50 0.6238294
625.60 0.6235923
625.70 0.6233553
625.80 0.6231184
625.90 0.6228816
626.00 0.622645
626.10 0.6224084
626.20 0.622172
626.30 0.6219357
626.40 0.6216995
626.50 0.6214635
626.60 0.6212276
626.70 0.6209917
626.80 0.620756
626.90 0.6205205
627.00 0.620285
627.10 0.6200498
627.20 0.6198149
627.30 0.6195802
627.40 0.6193455
627.50 0.619111
627.60 0.6188766
627.70 0.6186424
627.80 0.6184082
627.90 0.6181742
628.00 0.6179403
628.10 0.6177065
628.20 0.6174728
628.30 0.6172392
628.40 0.6170058
628.50 0.6167725
628.60 0.6165393
628.70 0.6163062
628.80 0.6160732
628.90 0.6158403
629.00 0.6156076
629.10 0.615375
629.20 0.6151425
629.30 0.6149101
629.40 0.6146778
629.50 0.6144456
629.60 0.6142136
629.70 0.6139817
629.80 0.6137498
629.90 0.6135182
630.00 0.6132866
630.10 0.6130551
630.20 0.6128238
630.30 0.6125926
630.40 0.6123615
630.50 0.6121305
630.60 0.6118996
630.70 0.6116688
630.80 0.6114382
630.90 0.6112077
631.00 0.6109773
631.10 0.610747
631.20 0.6105168
631.30 0.6102867
631.40 0.6100568
631.50 0.609827
631.60 0.6095972
631.70 0.6093676
631.80 0.6091382
631.90 0.6089088
632.00 0.6086795
632.10 0.6084504
632.20 0.6082214
632.30 0.6079924
632.40 0.6077636
632.50 0.607535
632.60 0.6073064
632.70 0.6070779
632.80 0.6068496
632.90 0.6066214
633.00 0.6063932
633.10 0.6061652
633.20 0.6059373
633.30 0.6057096
633.40 0.6054821
633.50 0.6052549
633.60 0.6050278
633.70 0.6048008
633.80 0.604574
633.90 0.6043472
634.00 0.6041206
634.10 0.6038941
634.20 0.6036677
634.30 0.6034414
634.40 0.6032152
634.50 0.6029891
634.60 0.6027631
634.70 0.6025373
634.80 0.6023116
634.90 0.6020859
635.00 0.6018604
635.10 0.601635
635.20 0.6014097
635.30 0.6011846
635.40 0.6009595
635.50 0.6007346
635.60 0.6005097
635.70 0.600285
635.80 0.6000604
635.90 0.5998359
636.00 0.5996115
636.10 0.5993872
636.20 0.599163
636.30 0.598939
636.40 0.598715
636.50 0.5984912
636.60 0.5982675
636.70 0.5980439
636.80 0.5978204
636.90 0.597597
637.00 0.5973737
637.10 0.5971506
637.20 0.5969275
637.30 0.5967046
637.40 0.5964818
637.50 0.596259
637.60 0.5960364
637.70 0.5958139
637.80 0.5955915
637.90 0.5953693
638.00 0.5951471
638.10 0.594925
638.20 0.5947031
638.30 0.5944813
638.40 0.5942595
638.50 0.5940379
638.60 0.5938164
638.70 0.593595
638.80 0.5933737
638.90 0.5931526
639.00 0.5929315
639.10 0.5927105
639.20 0.5924897
639.30 0.5922689
639.40 0.5920483
639.50 0.5918278
639.60 0.5916074
639.70 0.5913858
639.80 0.5911601
639.90 0.5909346
640.00 0.5907091
640.10 0.5904838
640.20 0.5902586
640.30 0.5900334
640.40 0.5898084
640.50 0.5895835
640.60 0.5893588
640.70 0.5891341
640.80 0.5889095
640.90 0.5886851
641.00 0.5884608
641.10 0.5882365
641.20 0.5880124
641.30 0.5877884
641.40 0.5875645
641.50 0.5873408
641.60 0.5871171
641.70 0.5868935
641.80 0.5866701
641.90 0.5864468
642.00 0.5862235
642.10 0.5860004
642.20 0.5857774
642.30 0.5855545
642.40 0.5853318
642.50 0.5851091
642.60 0.5848865
642.70 0.5846641
642.80 0.5844417
642.90 0.5842209
643.00 0.5840045
643.10 0.5837883
643.20 0.5835721
643.30 0.5833561
643.40 0.5831402
643.50 0.5829243
643.60 0.5827086
643.70 0.582493
643.80 0.5822775
643.90 0.5820621
644.00 0.5818468
644.10 0.5816316
644.20 0.5814165
644.30 0.5812015
644.40 0.5809867
644.50 0.5807719
644.60 0.5805572
644.70 0.5803427
644.80 0.5801282
644.90 0.5799139
645.00 0.5796996
645.10 0.5794855
645.20 0.5792714
645.30 0.5790575
645.40 0.5788437
645.50 0.57863
645.60 0.5784164
645.70 0.5782028
645.80 0.5779894
645.90 0.5777761
646.00 0.5775629
646.10 0.5773485
646.20 0.5771301
646.30 0.5769119
646.40 0.5766938
646.50 0.5764759
646.60 0.576258
646.70 0.5760402
646.80 0.5758225
646.90 0.575605
647.00 0.5753875
647.10 0.5751702
647.20 0.5749529
647.30 0.5747358
647.40 0.5745188
647.50 0.5743019
647.60 0.5740851
647.70 0.5738683
647.80 0.5736517
647.90 0.5734353
648.00 0.5732189
648.10 0.5730026
648.20 0.5727864
648.30 0.5725703
648.40 0.5723544
648.50 0.5721385
648.60 0.5719228
648.70 0.5717071
648.80 0.5714916
648.90 0.5712762
649.00 0.5710608
649.10 0.5708456
649.20 0.5706305
649.30 0.5704155
649.40 0.5702006
649.50 0.5699858
649.60 0.5697711
649.70 0.5695565
649.80 0.5693421
649.90 0.5691277
650.00 0.5689134
650.10 0.5686993
650.20 0.5684852
650.30 0.5682713
650.40 0.5680574
650.50 0.5678437
650.60 0.5676301
650.70 0.5674165
650.80 0.5672031
650.90 0.5669898
651.00 0.5667766
651.10 0.5665635
651.20 0.5663504
651.30 0.5661375
651.40 0.5659247
651.50 0.565712
651.60 0.5654994
651.70 0.565287
651.80 0.5650746
651.90 0.5648623
652.00 0.5646501
652.10 0.564438
652.20 0.5642261
652.30 0.5640142
652.40 0.5638024
652.50 0.5635908
652.60 0.5633787
652.70 0.5631664
652.80 0.5629543
652.90 0.5627422
653.00 0.5625303
653.10 0.5623184
653.20 0.5621067
653.30 0.561895
653.40 0.5616835
653.50 0.5614721
653.60 0.5612607
653.70 0.5610495
653.80 0.5608384
653.90 0.5606273
654.00 0.5604164
654.10 0.5602056
654.20 0.5599949
654.30 0.5597843
654.40 0.5595738
654.50 0.5593633
654.60 0.559153
654.70 0.5589428
654.80 0.5587327
654.90 0.5585227
655.00 0.5583128
655.10 0.558103
655.20 0.5578934
655.30 0.5576838
655.40 0.5574743
655.50 0.5572649
655.60 0.5570556
655.70 0.5568464
655.80 0.5566322
655.90 0.5564181
656.00 0.5562041
656.10 0.5559902
656.20 0.5557765
656.30 0.5555628
656.40 0.5553492
656.50 0.5551357
656.60 0.5549224
656.70 0.5547091
656.80 0.554496
656.90 0.5542829
657.00 0.55407
657.10 0.5538571
657.20 0.5536444
657.30 0.5534317
657.40 0.5532192
657.50 0.5530068
657.60 0.5527944
657.70 0.5525822
657.80 0.5524142
657.90 0.5522102
658.00 0.5519998
658.10 0.5517896
658.20 0.5515795
658.30 0.5513694
658.40 0.5511595
658.50 0.5509497
658.60 0.55074
658.70 0.5505304
658.80 0.5503208
658.90 0.5501114
659.00 0.5499021
659.10 0.5497098
659.20 0.5495431
659.30 0.5493449
659.40 0.5491468
659.50 0.5489487
659.60 0.5487508
659.70 0.548553
659.80 0.5483553
659.90 0.5481576
660.00 0.5479601
660.10 0.5477626
660.20 0.5475653
660.30 0.547368
660.40 0.5471669
660.50 0.5469651
660.60 0.5467634
660.70 0.5465619
660.80 0.5463604
660.90 0.5461426
661.00 0.5459249
661.10 0.5457074
661.20 0.5454899
661.30 0.5452726
661.40 0.5450553
661.50 0.5448382
661.60 0.5446212
661.70 0.5444042
661.80 0.5441874
661.90 0.5439892
662.00 0.543791
662.10 0.5435929
662.20 0.5433949
662.30 0.543197
662.40 0.543028
662.50 0.5428205
662.60 0.5426132
662.70 0.542406
662.80 0.5421989
662.90 0.5420353
663.00 0.5418718
663.10 0.5415347
663.20 0.5413714
663.30 0.5412082
663.40 0.5410451
663.50 0.5407952
663.60 0.5405456
663.70 0.5403827
663.80 0.5402199
663.90 0.5399775
664.00 0.5397213
664.10 0.5395299
664.20 0.5393386
664.30 0.5391474
664.40 0.5389563
664.50 0.5387652
664.60 0.5385743
664.70 0.5383699
664.80 0.5381655
664.90 0.5379612
665.00 0.5377571
665.10 0.537553
665.20 0.5373491
665.30 0.5371452
665.40 0.5369414
665.50 0.5367737
665.60 0.5366125
665.70 0.5364291
665.80 0.5362229
665.90 0.5360168
666.00 0.5358108
666.10 0.5356048
666.20 0.535399
666.30 0.5351933
666.40 0.5349877
666.50 0.534796
666.60 0.5346069
666.70 0.534418
666.80 0.534229
666.90 0.5340402
667.00 0.5338515
667.10 0.5336083
667.20 0.5333556
667.30 0.5331958
667.40 0.533036
667.50 0.5328035
667.60 0.5325582
667.70 0.5323859
667.80 0.5322264
667.90 0.5320457
668.00 0.5317366
668.10 0.5315775
668.20 0.5314184
668.30 0.531223
668.40 0.5310213
668.50 0.5308198
668.60 0.5306183
668.70 0.5304532
668.80 0.5302614
668.90 0.5300697
669.00 0.5298781
669.10 0.5296867
669.20 0.5294952
669.30 0.5292886
669.40 0.5290793
669.50 0.5288702
669.60 0.5286611
669.70 0.5284522
669.80 0.5282433
669.90 0.5280346
670.00 0.5278259
670.10 0.5276174
670.20 0.527409
670.30 0.5272142
670.40 0.5270219
670.50 0.5268296
670.60 0.5266375
670.70 0.5264455
670.80 0.5262429
670.90 0.5260404
671.00 0.5258379
671.10 0.5256356
671.20 0.5254334
671.30 0.5252313
671.40 0.5250292
671.50 0.5248273
671.60 0.5246255
671.70 0.5244237
671.80 0.5242221
671.90 0.52403
672.00 0.5238397
672.10 0.5236495
672.20 0.5234593
672.30 0.5232693
672.40 0.5230761
672.50 0.5228827
672.60 0.5226894
672.70 0.5224962
672.80 0.5223031
672.90 0.5221101
673.00 0.5219172
673.10 0.5217244
673.20 0.5215317
673.30 0.5213768
673.40 0.5211861
673.50 0.5209893
673.60 0.5207925
673.70 0.5205959
673.80 0.5203993
673.90 0.5202028
674.00 0.5200065
674.10 0.5198102
674.20 0.519614
674.30 0.5194179
674.40 0.5192219
674.50 0.519026
674.60 0.5188302
674.70 0.5186344
674.80 0.5184388
674.90 0.5182433
675.00 0.5180478
675.10 0.5178525
675.20 0.5176572
675.30 0.517462
675.40 0.5172684
675.50 0.5170751
675.60 0.5168819
675.70 0.5166888
675.80 0.5164957
675.90 0.5163028
676.00 0.5161099
676.10 0.5159172
676.20 0.5157245
676.30 0.5155319
676.40 0.5153395
676.50 0.5151471
676.60 0.5149548
676.70 0.5147626
676.80 0.5145704
676.90 0.5143784
677.00 0.5141865
677.10 0.5139946
677.20 0.5138029
677.30 0.5136112
677.40 0.5134196
677.50 0.5132282
677.60 0.5130368
677.70 0.5128455
677.80 0.5126542
677.90 0.5124738
678.00 0.5122953
678.10 0.5121168
678.20 0.5119385
678.30 0.5117602
678.40 0.5115821
678.50 0.511404
678.60 0.511226
678.70 0.511048
678.80 0.5108702
678.90 0.5106924
679.00 0.5105148
679.10 0.5103272
679.20 0.5101355
679.30 0.5099439
679.40 0.5097524
679.50 0.5095609
679.60 0.5093696
679.70 0.5091783
679.80 0.5089872
679.90 0.5087961
680.00 0.5086051
680.10 0.5084142
680.20 0.5082234
680.30 0.5080327
680.40 0.5078421
680.50 0.5076515
680.60 0.5074611
680.70 0.5072707
680.80 0.5070805
680.90 0.5068903
681.00 0.5067002
681.10 0.5065102
681.20 0.5063203
681.30 0.5061305
681.40 0.5059408
681.50 0.5057511
681.60 0.5055616
681.70 0.5053721
681.80 0.5051828
681.90 0.5049935
682.00 0.5048043
682.10 0.5046152
682.20 0.5044262
682.30 0.5042373
682.40 0.5040484
682.50 0.5038597
682.60 0.503671
682.70 0.5034825
682.80 0.503294
682.90 0.5031056
683.00 0.5029173
683.10 0.5027291
683.20 0.502541
683.30 0.502353
683.40 0.502165
683.50 0.5019772
683.60 0.5017894
683.70 0.5016017
683.80 0.5014141
683.90 0.5012266
684.00 0.5010392
684.10 0.5008519
684.20 0.5006646
684.30 0.5004775
684.40 0.5002904
684.50 0.5001035
684.60 0.4999166
684.70 0.4997298
684.80 0.4995431
684.90 0.4993564
685.00 0.4991699
685.10 0.4989835
685.20 0.4987971
685.30 0.4986108
685.40 0.4984246
685.50 0.4982385
685.60 0.4980525
685.70 0.4978666
685.80 0.4976808
685.90 0.4974954
686.00 0.4973101
686.10 0.4971249
686.20 0.4969399
686.30 0.4967549
686.40 0.49657
686.50 0.4963851
686.60 0.4962004
686.70 0.4960158
686.80 0.4958312
686.90 0.4956467
687.00 0.4954623
687.10 0.495278
687.20 0.4950938
687.30 0.4949097
687.40 0.4947257
687.50 0.4945417
687.60 0.4943578
687.70 0.4941741
687.80 0.4939904
687.90 0.4938068
688.00 0.4936232
688.10 0.4934398
688.20 0.4932564
688.30 0.4930732
688.40 0.49289
688.50 0.4927069
688.60 0.4925239
688.70 0.4923409
688.80 0.4921581
688.90 0.4919754
689.00 0.4917927
689.10 0.4916101
689.20 0.4914276
689.30 0.4912452
689.40 0.4910629
689.50 0.4908806
689.60 0.4906985
689.70 0.4905164
689.80 0.4903344
689.90 0.4901525
690.00 0.4899707
690.10 0.4897889
690.20 0.4896073
690.30 0.4894257
690.40 0.4892443
690.50 0.4890629
690.60 0.4888815
690.70 0.4887003
690.80 0.4885192
690.90 0.4883381
691.00 0.4881571
691.10 0.4879763
691.20 0.4877955
691.30 0.4876147
691.40 0.4874341
691.50 0.4872535
691.60 0.4870731
691.70 0.4868927
691.80 0.4867124
691.90 0.4865322
692.00 0.486352
692.10 0.486172
692.20 0.485992
692.30 0.4858122
692.40 0.4856324
692.50 0.4854526
692.60 0.485273
692.70 0.4850939
692.80 0.4849166
692.90 0.4847394
693.00 0.4845622
693.10 0.4843851
693.20 0.4842081
693.30 0.4840312
693.40 0.4838544
693.50 0.4836777
693.60 0.483501
693.70 0.4833244
693.80 0.4831479
693.90 0.4829715
694.00 0.4827952
694.10 0.4826189
694.20 0.4824427
694.30 0.4822666
694.40 0.4820906
694.50 0.4819147
694.60 0.4817388
694.70 0.4815631
694.80 0.4813874
694.90 0.4812118
695.00 0.4810363
695.10 0.4808608
695.20 0.4806855
695.30 0.4805102
695.40 0.480335
695.50 0.4801599
695.60 0.4799848
695.70 0.4798099
695.80 0.479635
695.90 0.4794602
696.00 0.4792855
696.10 0.4791108
696.20 0.4789363
696.30 0.4787618
696.40 0.4785874
696.50 0.4784131
696.60 0.4782382
696.70 0.4780631
696.80 0.4778882
696.90 0.4777133
697.00 0.4775385
697.10 0.4773638
697.20 0.4771892
697.30 0.4770146
697.40 0.4768401
697.50 0.4766657
697.60 0.4764914
697.70 0.4763172
697.80 0.476143
697.90 0.475969
698.00 0.475795
698.10 0.4756211
698.20 0.4754472
698.30 0.4752735
698.40 0.4750998
698.50 0.4749262
698.60 0.4747527
698.70 0.4745793
698.80 0.4744059
698.90 0.4742327
699.00 0.4740595
699.10 0.4738736
699.20 0.4736847
699.30 0.4734959
699.40 0.4733073
699.50 0.4731187
699.60 0.4729302
699.70 0.4727609
699.80 0.4725927
699.90 0.4724246
700.00 0.4722566
700.10 0.4720886
700.20 0.4719207
700.30 0.4717529
700.40 0.4715852
700.50 0.4714175
700.60 0.47125
700.70 0.4710825
700.80 0.4709151
700.90 0.4707477
701.00 0.4705804
701.10 0.4704064
701.20 0.4702308
701.30 0.4700553
701.40 0.4698799
701.50 0.4697045
701.60 0.4695293
701.70 0.4693541
701.80 0.469179
701.90 0.469004
702.00 0.4688291
702.10 0.4686542
702.20 0.4684794
702.30 0.4683048
702.40 0.4681301
702.50 0.4679556
702.60 0.4677832
702.70 0.4676115
702.80 0.4674397
702.90 0.4672681
703.00 0.4670965
703.10 0.4669251
703.20 0.4667537
703.30 0.4665823
703.40 0.4664111
703.50 0.4662399
703.60 0.4660689
703.70 0.4658978
703.80 0.4657269
703.90 0.4655561
704.00 0.4653853
704.10 0.4652146
704.20 0.4650377
704.30 0.4648595
704.40 0.4646814
704.50 0.4645033
704.60 0.4643253
704.70 0.4641474
704.80 0.4639696
704.90 0.4637918
705.00 0.4636142
705.10 0.4634366
705.20 0.4632757
705.30 0.4631188
705.40 0.4629619
705.50 0.4628051
705.60 0.4626483
705.70 0.4624917
705.80 0.4623247
705.90 0.4621554
706.00 0.4619862
706.10 0.4618171
706.20 0.461617
706.30 0.4614098
706.40 0.4612646
706.50 0.461134
706.60 0.4610035
706.70 0.4607201
706.80 0.4605898
706.90 0.4604595
707.00 0.4602983
707.10 0.4601299
707.20 0.4599616
707.30 0.4597934
707.40 0.459615
707.50 0.4594342
707.60 0.4592535
707.70 0.4590729
707.80 0.4588924
707.90 0.458712
708.00 0.4585481
708.10 0.4583881
708.20 0.4582282
708.30 0.4580684
708.40 0.4579086
708.50 0.4577489
708.60 0.4575893
708.70 0.4574298
708.80 0.4572703
708.90 0.4571109
709.00 0.4569455
709.10 0.4567786
709.20 0.4566119
709.30 0.4564452
709.40 0.4562786
709.50 0.456112
709.60 0.4559456
709.70 0.4557792
709.80 0.4556129
709.90 0.4554466
710.00 0.4552805
710.10 0.4551144
710.20 0.4549484
710.30 0.4547825
710.40 0.4546166
710.50 0.4544508
710.60 0.4542831
710.70 0.4541149
710.80 0.4539468
710.90 0.4537788
711.00 0.4536109
711.10 0.4534431
711.20 0.4532753
711.30 0.4531076
711.40 0.45294
711.50 0.4527725
711.60 0.452605
711.70 0.4524376
711.80 0.4522703
711.90 0.4521031
712.00 0.4519359
712.10 0.4517718
712.20 0.4516084
712.30 0.451445
712.40 0.4512818
712.50 0.4511186
712.60 0.4509555
712.70 0.4507925
712.80 0.4506295
712.90 0.4504666
713.00 0.4503038
713.10 0.4501411
713.20 0.4499784
713.30 0.4498158
713.40 0.4496533
713.50 0.4494909
713.60 0.4493285
713.70 0.4491641
713.80 0.4489957
713.90 0.4488274
714.00 0.4486591
714.10 0.4484914
714.20 0.4483239
714.30 0.4481565
714.40 0.4479891
714.50 0.4478218
714.60 0.4476546
714.70 0.4474875
714.80 0.4473205
714.90 0.4471535
715.00 0.4469866
715.10 0.4468198
715.20 0.446653
715.30 0.4464864
715.40 0.4463198
715.50 0.4461533
715.60 0.4459868
715.70 0.4458205
715.80 0.4456542
715.90 0.445488
716.00 0.4453218
716.10 0.4451557
716.20 0.4449898
716.30 0.4448238
716.40 0.444658
716.50 0.4444922
716.60 0.4443305
716.70 0.4441697
716.80 0.444009
716.90 0.4438483
717.00 0.4436878
717.10 0.4435273
717.20 0.4433668
717.30 0.4432065
717.40 0.4430462
717.50 0.442886
717.60 0.4427259
717.70 0.4425658
717.80 0.4424058
717.90 0.4422459
718.00 0.4420861
718.10 0.4419263
718.20 0.4417673
718.30 0.4416088
718.40 0.4414503
718.50 0.441292
718.60 0.4411337
718.70 0.4409754
718.80 0.4408173
718.90 0.4406592
719.00 0.4405011
719.10 0.4403432
719.20 0.4401853
719.30 0.4400275
719.40 0.4398698
719.50 0.4397121
719.60 0.4395545
719.70 0.439397
719.80 0.4392395
719.90 0.4390821
720.00 0.4389248
720.10 0.4387676
720.20 0.4386104
720.30 0.4384533
720.40 0.4382963
720.50 0.4381393
720.60 0.4379824
720.70 0.437792
720.80 0.4375835
720.90 0.4374202
721.00 0.4372587
721.10 0.4370973
721.20 0.436936
721.30 0.4367748
721.40 0.4366137
721.50 0.4364526
721.60 0.4362916
721.70 0.4361306
721.80 0.4359698
721.90 0.435809
722.00 0.4356483
722.10 0.4354876
722.20 0.435327
722.30 0.4351665
722.40 0.4350061
722.50 0.4348457
722.60 0.4346855
722.70 0.4345322
722.80 0.4343827
722.90 0.4342333
723.00 0.434084
723.10 0.4339347
723.20 0.4337855
723.30 0.4336364
723.40 0.4334873
723.50 0.4333383
723.60 0.4331894
723.70 0.4330405
723.80 0.4328917
723.90 0.432743
724.00 0.4325943
724.10 0.4324457
724.20 0.4322865
724.30 0.4321217
724.40 0.4319569
724.50 0.4317922
724.60 0.4316276
724.70 0.431463
724.80 0.4312985
724.90 0.4311341
725.00 0.4309698
725.10 0.4308056
725.20 0.4306414
725.30 0.4304773
725.40 0.4303132
725.50 0.4301493
725.60 0.4299854
725.70 0.4298216
725.80 0.4296685
725.90 0.4295211
726.00 0.4293738
726.10 0.4292266
726.20 0.4290794
726.30 0.4289323
726.40 0.4287853
726.50 0.4286383
726.60 0.4284914
726.70 0.4283446
726.80 0.4281852
726.90 0.4280193
727.00 0.4278534
727.10 0.4276875
727.20 0.4275218
727.30 0.4273561
727.40 0.4271983
727.50 0.4270448
727.60 0.4268914
727.70 0.426738
727.80 0.4266081
727.90 0.4264909
728.00 0.4262764
728.10 0.4261126
728.20 0.4259956
728.30 0.4258786
728.40 0.4257149
728.50 0.4255261
728.60 0.4253607
728.70 0.425208
728.80 0.4250554
728.90 0.4249028
729.00 0.4247426
729.10 0.4245782
729.20 0.4244139
729.30 0.4242496
729.40 0.4240855
729.50 0.4239214
729.60 0.4237698
729.70 0.423625
729.80 0.4234802
729.90 0.4233355
730.00 0.4231909
730.10 0.4230463
730.20 0.4229018
730.30 0.4227573
730.40 0.4226129
730.50 0.4224686
730.60 0.4223197
730.70 0.4221684
730.80 0.4220171
730.90 0.4218659
731.00 0.4217148
731.10 0.4215637
731.20 0.4214127
731.30 0.4212617
731.40 0.4211109
731.50 0.42096
731.60 0.4208093
731.70 0.4206586
731.80 0.420508
731.90 0.4203575
732.00 0.420207
732.10 0.4200566
732.20 0.4199047
732.30 0.4197521
732.40 0.4195995
732.50 0.419447
732.60 0.4192945
732.70 0.4191421
732.80 0.4189898
732.90 0.4188376
733.00 0.4186854
733.10 0.4185333
733.20 0.4183813
733.30 0.4182293
733.40 0.4180774
733.50 0.4179256
733.60 0.4177738
733.70 0.4176188
733.80 0.4174622
733.90 0.4173057
734.00 0.4171492
734.10 0.4169928
734.20 0.4168365
734.30 0.4166802
734.40 0.416524
734.50 0.4163679
734.60 0.4162118
734.70 0.4160559
734.80 0.4158999
734.90 0.4157441
735.00 0.4155883
735.10 0.4154326
735.20 0.415277
735.30 0.4151215
735.40 0.4149675
735.50 0.4148135
735.60 0.4146596
735.70 0.4145104
735.80 0.4143639
735.90 0.4142175
736.00 0.4140711
736.10 0.4139248
736.20 0.4137785
736.30 0.4136323
736.40 0.4134862
736.50 0.4133401
736.60 0.4131941
736.70 0.4130482
736.80 0.4129023
736.90 0.4127565
737.00 0.4126108
737.10 0.4124651
737.20 0.4123195
737.30 0.4121739
737.40 0.4120284
737.50 0.411883
737.60 0.4117376
737.70 0.4115923
737.80 0.4114471
737.90 0.4113019
738.00 0.4111568
738.10 0.4110118
738.20 0.4108644
738.30 0.4107158
738.40 0.4105673
738.50 0.4104189
738.60 0.4102705
738.70 0.4101222
738.80 0.409974
738.90 0.4098258
739.00 0.4096777
739.10 0.4095296
739.20 0.4093816
739.30 0.4092337
739.40 0.4090859
739.50 0.4089381
739.60 0.4087904
739.70 0.4086427
739.80 0.4084951
739.90 0.4083476
740.00 0.4082001
740.10 0.4080527
740.20 0.4079054
740.30 0.4077581
740.40 0.4076109
740.50 0.4074638
740.60 0.4073167
740.70 0.4071697
740.80 0.4070227
740.90 0.4068759
741.00 0.406729
741.10 0.4065823
741.20 0.4064356
741.30 0.406289
741.40 0.4061424
741.50 0.4059959
741.60 0.4058495
741.70 0.4057031
741.80 0.4055568
741.90 0.4054106
742.00 0.4052644
742.10 0.4051183
742.20 0.4049723
742.30 0.4048263
742.40 0.4046804
742.50 0.4045345
742.60 0.4043887
742.70 0.4042412
742.80 0.4040922
742.90 0.4039433
743.00 0.4037945
743.10 0.4036458
743.20 0.4034971
743.30 0.4033484
743.40 0.4031999
743.50 0.4030514
743.60 0.4029029
743.70 0.4027552
743.80 0.4026102
743.90 0.4024653
744.00 0.4023204
744.10 0.4021756
744.20 0.4020309
744.30 0.4018862
744.40 0.4017416
744.50 0.401597
744.60 0.4014525
744.70 0.4013081
744.80 0.4011637
744.90 0.4010194
745.00 0.4008752
745.10 0.400731
745.20 0.4005869
745.30 0.4004428
745.40 0.4002988
745.50 0.4001549
745.60 0.400011
745.70 0.3998672
745.80 0.3997235
745.90 0.3995798
746.00 0.3994362
746.10 0.3992926
746.20 0.3991491
746.30 0.3990057
746.40 0.3988624
746.50 0.3987191
746.60 0.3985758
746.70 0.3984326
746.80 0.3982895
746.90 0.3981465
747.00 0.3980035
747.10 0.3978606
747.20 0.3977177
747.30 0.3975749
747.40 0.3974321
747.50 0.3972895
747.60 0.3971468
747.70 0.3970043
747.80 0.3968618
747.90 0.3967194
748.00 0.396577
748.10 0.3964347
748.20 0.3962925
748.30 0.3961503
748.40 0.3960081
748.50 0.3958661
748.60 0.3957241
748.70 0.3955822
748.80 0.3954403
748.90 0.3952985
749.00 0.3951567
749.10 0.395015
749.20 0.3948734
749.30 0.3947318
749.40 0.3945903
749.50 0.3944489
749.60 0.3943075
749.70 0.3941662
749.80 0.3940249
749.90 0.3938837
750.00 0.3937426
750.10 0.3936015
750.20 0.3934604
750.30 0.3933193
750.40 0.3931783
750.50 0.3930374
750.60 0.3928966
750.70 0.3927558
750.80 0.392615
750.90 0.3924743
751.00 0.3923337
751.10 0.3921931
751.20 0.3920526
751.30 0.3919122
751.40 0.3917718
751.50 0.3916315
751.60 0.3914913
751.70 0.3913511
751.80 0.3912109
751.90 0.3910709
752.00 0.3909308
752.10 0.3907909
752.20 0.390651
752.30 0.3905112
752.40 0.3903714
752.50 0.3902317
752.60 0.390092
752.70 0.3899524
752.80 0.3898129
752.90 0.3896735
753.00 0.389534
753.10 0.3893947
753.20 0.3892554
753.30 0.3891162
753.40 0.388977
753.50 0.3888379
753.60 0.3886989
753.70 0.3885599
753.80 0.3884209
753.90 0.3882821
754.00 0.3881433
754.10 0.3880045
754.20 0.3878658
754.30 0.3877272
754.40 0.3875886
754.50 0.3874501
754.60 0.3873117
754.70 0.3871733
754.80 0.387035
754.90 0.3868967
755.00 0.3867585
755.10 0.3866204
755.20 0.3864823
755.30 0.3863442
755.40 0.3862063
755.50 0.3860684
755.60 0.3859305
755.70 0.3857927
755.80 0.385655
755.90 0.3855173
756.00 0.3853797
756.10 0.3852421
756.20 0.3851046
756.30 0.3849672
756.40 0.3848298
756.50 0.3846925
756.60 0.3845553
756.70 0.3844181
756.80 0.3842809
756.90 0.3841438
757.00 0.3840068
757.10 0.3838699
757.20 0.383733
757.30 0.3835961
757.40 0.3834593
757.50 0.3833226
757.60 0.383185
757.70 0.3830453
757.80 0.3829056
757.90 0.3827659
758.00 0.3826263
758.10 0.3824868
758.20 0.3823474
758.30 0.382208
758.40 0.3820686
758.50 0.3819293
758.60 0.3817901
758.70 0.3816509
758.80 0.3815118
758.90 0.3813728
759.00 0.3812338
759.10 0.3810949
759.20 0.380956
759.30 0.3808172
759.40 0.3806785
759.50 0.3805398
759.60 0.3804012
759.70 0.3802626
759.80 0.3801241
759.90 0.3799857
760.00 0.3798473
760.10 0.379709
760.20 0.3795707
760.30 0.3794325
760.40 0.3792944
760.50 0.3791563
760.60 0.3790182
760.70 0.3788803
760.80 0.3787424
760.90 0.3786045
761.00 0.3784667
761.10 0.378329
761.20 0.3781913
761.30 0.3780537
761.40 0.3779176
761.50 0.3777835
761.60 0.3776496
761.70 0.3775157
761.80 0.3773818
761.90 0.3772481
762.00 0.3771143
762.10 0.3769807
762.20 0.376847
762.30 0.3767135
762.40 0.37658
762.50 0.3764465
762.60 0.3763131
762.70 0.3761798
762.80 0.3760465
762.90 0.3759133
763.00 0.3757802
763.10 0.3756471
763.20 0.375514
763.30 0.375381
763.40 0.3752481
763.50 0.3751152
763.60 0.3749824
763.70 0.3748496
763.80 0.3747169
763.90 0.3745843
764.00 0.3744517
764.10 0.3743192
764.20 0.3741867
764.30 0.3740543
764.40 0.3739219
764.50 0.3737896
764.60 0.3736573
764.70 0.3735251
764.80 0.373393
764.90 0.3732609
765.00 0.3731289
765.10 0.3729969
765.20 0.3728643
765.30 0.3727311
765.40 0.3725979
765.50 0.3724648
765.60 0.3723318
765.70 0.3721988
765.80 0.3720658
765.90 0.371933
766.00 0.3718001
766.10 0.3716674
766.20 0.3715347
766.30 0.371402
766.40 0.3712694
766.50 0.3711369
766.60 0.3710044
766.70 0.370872
766.80 0.3707396
766.90 0.3706073
767.00 0.370475
767.10 0.3703428
767.20 0.3702107
767.30 0.3700786
767.40 0.3699465
767.50 0.3698146
767.60 0.3696827
767.70 0.3695508
767.80 0.369419
767.90 0.3692872
768.00 0.3691555
768.10 0.3690239
768.20 0.3688923
768.30 0.3687608
768.40 0.3686293
768.50 0.3684979
768.60 0.3683665
768.70 0.3682352
768.80 0.368104
768.90 0.3679728
769.00 0.3678417
769.10 0.3677106
769.20 0.3675796
769.30 0.3674486
769.40 0.3673177
769.50 0.3671868
769.60 0.367056
769.70 0.3669253
769.80 0.3667946
769.90 0.3666639
770.00 0.3665334
770.10 0.3664028
770.20 0.3662724
770.30 0.366142
770.40 0.3660116
770.50 0.3658813
770.60 0.3657511
770.70 0.3656209
770.80 0.3654907
770.90 0.3653606
771.00 0.3652306
771.10 0.3651006
771.20 0.3649707
771.30 0.3648409
771.40 0.3647111
771.50 0.3645813
771.60 0.3644516
771.70 0.364322
771.80 0.3641924
771.90 0.3640629
772.00 0.3639334
772.10 0.363804
772.20 0.3636746
772.30 0.3635453
772.40 0.363416
772.50 0.3632868
772.60 0.3631577
772.70 0.3630286
772.80 0.3628995
772.90 0.3627709
773.00 0.3626423
773.10 0.3625138
773.20 0.3623853
773.30 0.3622569
773.40 0.3621285
773.50 0.3620002
773.60 0.361872
773.70 0.3617437
773.80 0.3616156
773.90 0.3614875
774.00 0.3613595
774.10 0.3612315
774.20 0.3611035
774.30 0.3609757
774.40 0.3608478
774.50 0.3607201
774.60 0.3605923
774.70 0.3604647
774.80 0.3603371
774.90 0.3602095
775.00 0.360082
775.10 0.3599546
775.20 0.3598272
775.30 0.3596998
775.40 0.3595725
775.50 0.3594453
775.60 0.3593181
775.70 0.359191
775.80 0.3590639
775.90 0.3589369
776.00 0.3588099
776.10 0.358683
776.20 0.3585562
776.30 0.3584294
776.40 0.3583026
776.50 0.3581759
776.60 0.3580493
776.70 0.3579227
776.80 0.3577962
776.90 0.3576697
777.00 0.3575432
777.10 0.3574169
777.20 0.3572905
777.30 0.3571643
777.40 0.357038
777.50 0.3569119
777.60 0.3567858
777.70 0.3566597
777.80 0.3565337
777.90 0.3564077
778.00 0.3562818
778.10 0.356156
778.20 0.3560302
778.30 0.3559045
778.40 0.3557788
778.50 0.3556531
778.60 0.3555276
778.70 0.355402
778.80 0.3552765
778.90 0.3551511
779.00 0.3550257
779.10 0.3549004
779.20 0.3547752
779.30 0.3546499
779.40 0.3545248
779.50 0.3543997
779.60 0.3542746
779.70 0.3541496
779.80 0.3540247
779.90 0.3538998
780.00 0.3537749
780.10 0.3536501
780.20 0.3535254
780.30 0.3534007
780.40 0.3532761
780.50 0.3531515
780.60 0.3530269
780.70 0.3529024
780.80 0.3527779
780.90 0.3526535
781.00 0.3525291
781.10 0.3524048
781.20 0.3522805
781.30 0.3521563
781.40 0.3520321
781.50 0.351908
781.60 0.3517839
781.70 0.3516599
781.80 0.351536
781.90 0.3514121
782.00 0.3512882
782.10 0.3511644
782.20 0.3510406
782.30 0.3509169
782.40 0.3507933
782.50 0.3506697
782.60 0.3505462
782.70 0.3504227
782.80 0.3502992
782.90 0.3501758
783.00 0.3500525
783.10 0.3499292
783.20 0.349806
783.30 0.3496828
783.40 0.3495597
783.50 0.3494366
783.60 0.3493136
783.70 0.3491906
783.80 0.3490677
783.90 0.3489448
784.00 0.348822
784.10 0.3486992
784.20 0.3485765
784.30 0.3484538
784.40 0.3483312
784.50 0.3482086
784.60 0.3480863
784.70 0.3479647
784.80 0.347843
784.90 0.3477215
785.00 0.3476
785.10 0.3474785
785.20 0.3473571
785.30 0.3472357
785.40 0.3471144
785.50 0.3469931
785.60 0.3468719
785.70 0.3467507
785.80 0.3466296
785.90 0.3465086
786.00 0.3463875
786.10 0.3462666
786.20 0.3461457
786.30 0.3460248
786.40 0.345904
786.50 0.3457832
786.60 0.3456625
786.70 0.3455419
786.80 0.3454212
786.90 0.3453007
787.00 0.3451802
787.10 0.3450597
787.20 0.3449393
787.30 0.3448189
787.40 0.3446986
787.50 0.3445784
787.60 0.3444581
787.70 0.344338
787.80 0.3442179
787.90 0.3440978
788.00 0.3439778
788.10 0.3438578
788.20 0.3437379
788.30 0.3436181
788.40 0.3434972
788.50 0.3433758
788.60 0.3432544
788.70 0.3431331
788.80 0.3430119
788.90 0.3428907
789.00 0.3427695
789.10 0.3426484
789.20 0.3425274
789.30 0.3424064
789.40 0.3422855
789.50 0.3421646
789.60 0.3420437
789.70 0.3419229
789.80 0.3418022
789.90 0.3416815
790.00 0.3415609
790.10 0.3414403
790.20 0.3413197
790.30 0.3411992
790.40 0.3410788
790.50 0.3409584
790.60 0.3408381
790.70 0.3407178
790.80 0.3405975
790.90 0.3404773
791.00 0.3403572
791.10 0.3402371
791.20 0.3401171
791.30 0.3399971
791.40 0.3398771
791.50 0.3397572
791.60 0.3396374
791.70 0.3395176
791.80 0.3393979
791.90 0.3392782
792.00 0.3391585
792.10 0.3390389
792.20 0.3389194
792.30 0.3387999
792.40 0.3386804
792.50 0.338561
792.60 0.3384417
792.70 0.3383224
792.80 0.3382031
792.90 0.3380839
793.00 0.3379647
793.10 0.3378456
793.20 0.3377266
793.30 0.3376076
793.40 0.3374886
793.50 0.3373697
793.60 0.3372508
793.70 0.337132
793.80 0.3370133
793.90 0.3368945
794.00 0.3367759
794.10 0.3366573
794.20 0.3365387
794.30 0.3364202
794.40 0.3363017
794.50 0.3361833
794.60 0.3360649
794.70 0.3359466
794.80 0.3358283
794.90 0.3357101
795.00 0.3355919
795.10 0.3354738
795.20 0.3353557
795.30 0.3352377
795.40 0.3351197
795.50 0.3350018
795.60 0.3348839
795.70 0.3347661
795.80 0.3346483
795.90 0.3345305
796.00 0.3344128
796.10 0.3342952
796.20 0.3341776
796.30 0.3340604
796.40 0.3339432
796.50 0.3338261
796.60 0.333709
796.70 0.333592
796.80 0.3334751
796.90 0.3333581
797.00 0.3332413
797.10 0.3331245
797.20 0.3330077
797.30 0.332891
797.40 0.3327743
797.50 0.3326577
797.60 0.3325411
797.70 0.3324245
797.80 0.3323081
797.90 0.3321916
798.00 0.3320752
798.10 0.3319589
798.20 0.3318426
798.30 0.3317264
798.40 0.3316102
798.50 0.331494
798.60 0.3313779
798.70 0.3312619
798.80 0.3311459
798.90 0.3310299
799.00 0.330914
799.10 0.3307981
799.20 0.3306823
799.30 0.3305666
799.40 0.3304508
799.50 0.3303352
799.60 0.3302195
799.70 0.330104
799.80 0.3299884
799.90 0.329873
800.00 0.3297575
800.10 0.3296421
800.20 0.3295268
800.30 0.3294115
800.40 0.3292963
800.50 0.3291811
800.60 0.3290659
800.70 0.3289508
800.80 0.3288358
800.90 0.3287208
801.00 0.3286058
801.10 0.3284909
801.20 0.328376
801.30 0.3282612
801.40 0.3281464
801.50 0.3280317
801.60 0.327917
801.70 0.3278024
801.80 0.3276878
801.90 0.3275733
802.00 0.3274588
802.10 0.3273443
802.20 0.3272299
802.30 0.3271156
802.40 0.3270013
802.50 0.326887
802.60 0.3267728
802.70 0.3266586
802.80 0.3265445
802.90 0.3264305
803.00 0.3263164
803.10 0.3262025
803.20 0.3260885
803.30 0.3259747
803.40 0.3258608
803.50 0.325747
803.60 0.3256333
803.70 0.3255196
803.80 0.3254059
803.90 0.3252923
804.00 0.3251788
804.10 0.3250653
804.20 0.3249519
804.30 0.3248388
804.40 0.3247257
804.50 0.3246127
804.60 0.3244998
804.70 0.3243869
804.80 0.324274
804.90 0.3241612
805.00 0.3240484
805.10 0.3239357
805.20 0.323823
805.30 0.3237104
805.40 0.3235978
805.50 0.3234853
805.60 0.3233728
805.70 0.3232603
805.80 0.3231479
805.90 0.3230356
806.00 0.3229232
806.10 0.322811
806.20 0.3226988
806.30 0.3225866
806.40 0.3224745
806.50 0.3223624
806.60 0.3222503
806.70 0.3221383
806.80 0.3220264
806.90 0.3219145
807.00 0.3218026
807.10 0.3216908
807.20 0.3215791
807.30 0.3214674
807.40 0.3213557
807.50 0.3212441
807.60 0.3211325
807.70 0.3210209
807.80 0.3209094
807.90 0.320798
808.00 0.3206866
808.10 0.3205752
808.20 0.3204639
808.30 0.3203527
808.40 0.3202415
808.50 0.3201303
808.60 0.3200192
808.70 0.3199081
808.80 0.319797
808.90 0.319686
809.00 0.3195751
809.10 0.3194642
809.20 0.3193533
809.30 0.3192425
809.40 0.3191317
809.50 0.319021
809.60 0.3189103
809.70 0.3187997
809.80 0.3186891
809.90 0.3185786
810.00 0.3184681
810.10 0.3183576
810.20 0.3182472
810.30 0.3181369
810.40 0.3180265
810.50 0.3179163
810.60 0.317806
810.70 0.3176958
810.80 0.3175857
810.90 0.3174756
811.00 0.3173656
811.10 0.3172556
811.20 0.3171456
811.30 0.3170357
811.40 0.3169258
811.50 0.316816
811.60 0.3167062
811.70 0.3165965
811.80 0.3164868
811.90 0.3163771
812.00 0.3162675
812.10 0.3161579
812.20 0.3160484
812.30 0.3159392
812.40 0.3158301
812.50 0.3157211
812.60 0.3156121
812.70 0.3155031
812.80 0.3153942
812.90 0.3152853
813.00 0.3151765
813.10 0.3150677
813.20 0.314959
813.30 0.3148503
813.40 0.3147416
813.50 0.314633
813.60 0.3145245
813.70 0.3144159
813.80 0.3143075
813.90 0.314199
814.00 0.3140906
814.10 0.3139823
814.20 0.313874
814.30 0.3137657
814.40 0.3136575
814.50 0.3135494
814.60 0.3134412
814.70 0.3133332
814.80 0.3132251
814.90 0.3131171
815.00 0.3130092
815.10 0.3129013
815.20 0.3127934
815.30 0.3126856
815.40 0.3125778
815.50 0.3124701
815.60 0.3123624
815.70 0.3122547
815.80 0.3121471
815.90 0.3120396
816.00 0.311932
816.10 0.3118246
816.20 0.3117171
816.30 0.3116098
816.40 0.3115024
816.50 0.3113951
816.60 0.3112878
816.70 0.3111806
816.80 0.3110735
816.90 0.3109663
817.00 0.3108593
817.10 0.3107522
817.20 0.3106452
817.30 0.3105383
817.40 0.3104313
817.50 0.3103245
817.60 0.3102176
817.70 0.3101109
817.80 0.3100041
817.90 0.3098974
818.00 0.3097908
818.10 0.3096842
818.20 0.3095776
818.30 0.3094711
818.40 0.3093646
818.50 0.3092581
818.60 0.3091517
818.70 0.3090454
818.80 0.3089391
818.90 0.3088328
819.00 0.3087266
819.10 0.3086204
819.20 0.3085142
819.30 0.3084026
819.40 0.3082872
819.50 0.3081719
819.60 0.3080566
819.70 0.3079414
819.80 0.3078262
819.90 0.3077111
820.00 0.307596
820.10 0.3074845
820.20 0.3074096
820.30 0.3073346
820.40 0.3072407
820.50 0.3071332
820.60 0.3070256
820.70 0.3069181
820.80 0.3068107
820.90 0.3067033
821.00 0.3065959
821.10 0.3064886
821.20 0.3063813
821.30 0.3062741
821.40 0.3061669
821.50 0.3060597
821.60 0.3059526
821.70 0.3058455
821.80 0.3057385
821.90 0.3056315
822.00 0.3055246
822.10 0.3054177
822.20 0.3053109
822.30 0.3052041
822.40 0.3050973
822.50 0.3049906
822.60 0.3048839
822.70 0.3047773
822.80 0.3046707
822.90 0.3045641
823.00 0.3044576
823.10 0.3043511
823.20 0.3042447
823.30 0.3041383
823.40 0.304032
823.50 0.3039257
823.60 0.3038195
823.70 0.3037133
823.80 0.3036071
823.90 0.303501
824.00 0.3033949
824.10 0.3032889
824.20 0.3031829
824.30 0.3030769
824.40 0.302971
824.50 0.3028651
824.60 0.3027593
824.70 0.3026535
824.80 0.3025478
824.90 0.3024421
825.00 0.3023364
825.10 0.3022308
825.20 0.3021252
825.30 0.3020197
825.40 0.3019142
825.50 0.3018088
825.60 0.3017034
825.70 0.301598
825.80 0.3014927
825.90 0.3013874
826.00 0.3012822
826.10 0.301177
826.20 0.3010719
826.30 0.3009686
826.40 0.3008667
826.50 0.3007648
826.60 0.300663
826.70 0.3005612
826.80 0.3004594
826.90 0.3003577
827.00 0.300256
827.10 0.3001543
827.20 0.3000527
827.30 0.2999512
827.40 0.2998496
827.50 0.2997482
827.60 0.2996467
827.70 0.2995453
827.80 0.2994439
827.90 0.2993426
828.00 0.2992413
828.10 0.2991401
828.20 0.2990389
828.30 0.2989377
828.40 0.2988366
828.50 0.2987355
828.60 0.2986334
828.70 0.2985305
828.80 0.2984276
828.90 0.2983247
829.00 0.2982219
829.10 0.2981192
829.20 0.2980164
829.30 0.2979137
829.40 0.2978111
829.50 0.2977085
829.60 0.2976059
829.70 0.2975034
829.80 0.2974009
829.90 0.2972984
830.00 0.297196
830.10 0.2970936
830.20 0.2969913
830.30 0.296889
830.40 0.2967868
830.50 0.2966846
830.60 0.2965824
830.70 0.2964803
830.80 0.2963782
830.90 0.2962762
831.00 0.2961742
831.10 0.2960722
831.20 0.2959703
831.30 0.2958684
831.40 0.2957666
831.50 0.2956648
831.60 0.295563
831.70 0.2954613
831.80 0.2953596
831.90 0.295258
832.00 0.2951564
832.10 0.2950548
832.20 0.2949533
832.30 0.2948518
832.40 0.2947504
832.50 0.294649
832.60 0.2945476
832.70 0.2944463
832.80 0.294345
832.90 0.2942438
833.00 0.2941426
833.10 0.2940415
833.20 0.2939403
833.30 0.2938393
833.40 0.2937382
833.50 0.2936372
833.60 0.2935363
833.70 0.2934354
833.80 0.2933345
833.90 0.2932337
834.00 0.2931329
834.10 0.2930321
834.20 0.2929314
834.30 0.2928307
834.40 0.2927301
834.50 0.2926295
834.60 0.2925289
834.70 0.2924284
834.80 0.2923279
834.90 0.2922275
835.00 0.2921271
835.10 0.2920267
835.20 0.2919264
835.30 0.2918261
835.40 0.2917259
835.50 0.2916257
835.60 0.2915255
835.70 0.2914254
835.80 0.2913253
835.90 0.2912253
836.00 0.2911253
836.10 0.2910253
836.20 0.2909254
836.30 0.2908255
836.40 0.2907257
836.50 0.2906259
836.60 0.2905261
836.70 0.2904264
836.80 0.2903267
836.90 0.2902282
837.00 0.2901302
837.10 0.2900322
837.20 0.2899343
837.30 0.2898364
837.40 0.2897385
837.50 0.2896407
837.60 0.289543
837.70 0.2894452
837.80 0.2893475
837.90 0.2892499
838.00 0.2891522
838.10 0.2890547
838.20 0.2889571
838.30 0.2888596
838.40 0.2887621
838.50 0.2886647
838.60 0.2885673
838.70 0.28847
838.80 0.2883727
838.90 0.2882754
839.00 0.2881782
839.10 0.288081
839.20 0.2879838
839.30 0.2878867
839.40 0.2877896
839.50 0.2876925
839.60 0.2875955
839.70 0.2874986
839.80 0.2874016
839.90 0.2873047
840.00 0.2872079
840.10 0.2871111
840.20 0.2870143
840.30 0.2869175
840.40 0.2868208
840.50 0.2867242
840.60 0.2866275
840.70 0.2865309
840.80 0.2864344
840.90 0.2863379
841.00 0.2862414
841.10 0.2861428
841.20 0.2860438
841.30 0.2859449
841.40 0.285846
841.50 0.2857471
841.60 0.2856483
841.70 0.2855495
841.80 0.2854508
841.90 0.2853521
842.00 0.2852534
842.10 0.2851548
842.20 0.2850562
842.30 0.2849577
842.40 0.2848592
842.50 0.2847607
842.60 0.2846623
842.70 0.2845639
842.80 0.2844655
842.90 0.2843672
843.00 0.2842689
843.10 0.2841707
843.20 0.2840725
843.30 0.2839743
843.40 0.2838762
843.50 0.2837781
843.60 0.2836801
843.70 0.2835821
843.80 0.2834841
843.90 0.2833862
844.00 0.2832883
844.10 0.2831904
844.20 0.2830926
844.30 0.2829949
844.40 0.2828971
844.50 0.2827994
844.60 0.2827018
844.70 0.2826041
844.80 0.2825066
844.90 0.282409
845.00 0.2823115
845.10 0.282214
845.20 0.2821166
845.30 0.2820208
845.40 0.281925
845.50 0.2818292
845.60 0.2817335
845.70 0.2816378
845.80 0.2815422
845.90 0.2814466
846.00 0.281351
846.10 0.2812555
846.20 0.28116
846.30 0.2810645
846.40 0.2809691
846.50 0.2808737
846.60 0.2807784
846.70 0.2806831
846.80 0.2805878
846.90 0.2804926
847.00 0.2803974
847.10 0.2803022
847.20 0.2802071
847.30 0.280112
847.40 0.280017
847.50 0.279922
847.60 0.279827
847.70 0.2797321
847.80 0.2796372
847.90 0.2795423
848.00 0.2794475
848.10 0.2793527
848.20 0.2792579
848.30 0.2791632
848.40 0.2790686
848.50 0.2789739
848.60 0.2788793
848.70 0.2787847
848.80 0.2786902
848.90 0.2785957
849.00 0.2785013
849.10 0.2784068
849.20 0.2783125
849.30 0.2782181
849.40 0.2781238
849.50 0.2780295
849.60 0.2779353
849.70 0.2778411
849.80 0.2777469
849.90 0.2776528
850.00 0.2775587
850.10 0.2774647
850.20 0.2773706
850.30 0.2772767
850.40 0.2771827
850.50 0.2770888
850.60 0.2769949
850.70 0.2769011
850.80 0.2768073
850.90 0.2767136
851.00 0.2766198
851.10 0.2765261
851.20 0.2764325
851.30 0.2763389
851.40 0.2762453
851.50 0.2761518
851.60 0.2760582
851.70 0.2759648
851.80 0.2758713
851.90 0.2757779
852.00 0.2756846
852.10 0.2755913
852.20 0.275498
852.30 0.2754047
852.40 0.2753115
852.50 0.2752183
852.60 0.2751252
852.70 0.2750321
852.80 0.274939
852.90 0.274846
853.00 0.274753
853.10 0.27466
853.20 0.2745671
853.30 0.2744742
853.40 0.2743813
853.50 0.2742885
853.60 0.2741957
853.70 0.2741037
853.80 0.2740125
853.90 0.2739213
854.00 0.2738302
854.10 0.2737391
854.20 0.273648
854.30 0.273557
854.40 0.273466
854.50 0.273375
854.60 0.2732841
854.70 0.2731932
854.80 0.2731024
854.90 0.2730116
855.00 0.2729208
855.10 0.27283
855.20 0.2727393
855.30 0.2726486
855.40 0.272558
855.50 0.2724674
855.60 0.2723768
855.70 0.2722863
855.80 0.2721958
855.90 0.2721053
856.00 0.2720149
856.10 0.2719245
856.20 0.2718341
856.30 0.2717438
856.40 0.2716535
856.50 0.2715632
856.60 0.271473
856.70 0.2713828
856.80 0.2712927
856.90 0.2712025
857.00 0.2711124
857.10 0.2710224
857.20 0.2709324
857.30 0.2708424
857.40 0.2707525
857.50 0.2706625
857.60 0.2705727
857.70 0.2704828
857.80 0.270393
857.90 0.2703032
858.00 0.2702115
858.10 0.2701194
858.20 0.2700273
858.30 0.2699352
858.40 0.2698432
858.50 0.2697512
858.60 0.2696593
858.70 0.2695673
858.80 0.2694755
858.90 0.2693836
859.00 0.2692918
859.10 0.2692
859.20 0.2691083
859.30 0.2690166
859.40 0.2689249
859.50 0.2688332
859.60 0.2687416
859.70 0.2686501
859.80 0.2685585
859.90 0.268467
860.00 0.2683756
860.10 0.2682842
860.20 0.2681928
860.30 0.2681014
860.40 0.2680101
860.50 0.2679188
860.60 0.2678276
860.70 0.2677363
860.80 0.2676452
860.90 0.267554
861.00 0.2674629
861.10 0.2673718
861.20 0.2672808
861.30 0.2671898
861.40 0.2670988
861.50 0.2670079
861.60 0.266917
861.70 0.2668261
861.80 0.2667353
861.90 0.2666445
862.00 0.2665537
862.10 0.266463
862.20 0.2663725
862.30 0.2662833
862.40 0.2661942
862.50 0.2661051
862.60 0.266016
862.70 0.265927
862.80 0.2658379
862.90 0.265749
863.00 0.26566
863.10 0.2655711
863.20 0.2654823
863.30 0.2653934
863.40 0.2653046
863.50 0.2652159
863.60 0.2651271
863.70 0.2650384
863.80 0.2649498
863.90 0.2648611
864.00 0.2647725
864.10 0.264684
864.20 0.2645955
864.30 0.264507
864.40 0.2644185
864.50 0.2643301
864.60 0.2642417
864.70 0.2641533
864.80 0.264065
864.90 0.2639767
865.00 0.2638884
865.10 0.2638002
865.20 0.263712
865.30 0.2636239
865.40 0.2635357
865.50 0.2634477
865.60 0.2633596
865.70 0.2632716
865.80 0.2631836
865.90 0.2630956
866.00 0.2630077
866.10 0.2629198
866.20 0.262832
866.30 0.2627441
866.40 0.2626564
866.50 0.2625686
866.60 0.2624809
866.70 0.2623932
866.80 0.2623055
866.90 0.2622179
867.00 0.2621303
867.10 0.2620428
867.20 0.2619553
867.30 0.2618678
867.40 0.2617803
867.50 0.2616929
867.60 0.2616055
867.70 0.2615182
867.80 0.2614309
867.90 0.2613436
868.00 0.2612563
868.10 0.2611691
868.20 0.2610819
868.30 0.2609948
868.40 0.2609076
868.50 0.2608205
868.60 0.2607335
868.70 0.2606465
868.80 0.2605595
868.90 0.2604725
869.00 0.2603856
869.10 0.2602987
869.20 0.2602119
869.30 0.260125
869.40 0.2600383
869.50 0.2599515
869.60 0.2598648
869.70 0.2597781
869.80 0.2596914
869.90 0.2596048
870.00 0.2595182
870.10 0.2594317
870.20 0.2593451
870.30 0.2592586
870.40 0.2591722
870.50 0.2590858
870.60 0.2589994
870.70 0.258913
870.80 0.2588267
870.90 0.2587396
871.00 0.2586524
871.10 0.2585653
871.20 0.2584782
871.30 0.2583912
871.40 0.2583042
871.50 0.2582172
871.60 0.2581302
871.70 0.2580433
871.80 0.2579564
871.90 0.2578696
872.00 0.2577827
872.10 0.2576959
872.20 0.2576092
872.30 0.2575225
872.40 0.2574358
872.50 0.2573491
872.60 0.2572625
872.70 0.2571759
872.80 0.2570894
872.90 0.2570028
873.00 0.2569163
873.10 0.2568299
873.20 0.2567434
873.30 0.2566571
873.40 0.2565707
873.50 0.2564844
873.60 0.2563981
873.70 0.2563118
873.80 0.2562256
873.90 0.2561394
874.00 0.2560532
874.10 0.2559671
874.20 0.255881
874.30 0.2557949
874.40 0.2557089
874.50 0.2556229
874.60 0.2555369
874.70 0.255451
874.80 0.2553651
874.90 0.2552792
875.00 0.2551934
875.10 0.2551076
875.20 0.2550218
875.30 0.2549361
875.40 0.2548504
875.50 0.2547647
875.60 0.2546791
875.70 0.2545934
875.80 0.2545079
875.90 0.2544223
876.00 0.2543368
876.10 0.2542513
876.20 0.2541659
876.30 0.2540805
876.40 0.2539951
876.50 0.2539097
876.60 0.2538244
876.70 0.2537391
876.80 0.2536539
876.90 0.2535687
877.00 0.2534835
877.10 0.2533983
877.20 0.2533132
877.30 0.2532281
877.40 0.253143
877.50 0.253058
877.60 0.252973
877.70 0.2528881
877.80 0.2528031
877.90 0.2527182
878.00 0.2526334
878.10 0.2525485
878.20 0.2524637
878.30 0.2523789
878.40 0.2522942
878.50 0.2522095
878.60 0.2521248
878.70 0.2520402
878.80 0.2519556
878.90 0.251871
879.00 0.2517865
879.10 0.2517019
879.20 0.2516175
879.30 0.251533
879.40 0.2514486
879.50 0.2513642
879.60 0.2512801
879.70 0.251196
879.80 0.251112
879.90 0.251028
880.00 0.2509441
880.10 0.2508601
880.20 0.2507762
880.30 0.2506924
880.40 0.2506085
880.50 0.2505248
880.60 0.250441
880.70 0.2503573
880.80 0.2502735
880.90 0.2501899
881.00 0.2501062
881.10 0.2500226
881.20 0.2499391
881.30 0.2498555
881.40 0.249772
881.50 0.2496885
881.60 0.2496051
881.70 0.2495216
881.80 0.2494383
881.90 0.2493549
882.00 0.2492716
882.10 0.2491883
882.20 0.249105
882.30 0.2490218
882.40 0.2489386
882.50 0.2488554
882.60 0.2487723
882.70 0.2486892
882.80 0.2486061
882.90 0.2485231
883.00 0.24844
883.10 0.2483571
883.20 0.2482741
883.30 0.2481912
883.40 0.2481083
883.50 0.2480254
883.60 0.2479426
883.70 0.2478598
883.80 0.2477771
883.90 0.2476943
884.00 0.2476135
884.10 0.247533
884.20 0.2474526
884.30 0.2473722
884.40 0.2472919
884.50 0.2472115
884.60 0.2471312
884.70 0.247051
884.80 0.2469707
884.90 0.2468905
885.00 0.2468103
885.10 0.2467302
885.20 0.24665
885.30 0.2465699
885.40 0.2464899
885.50 0.2464098
885.60 0.2463298
885.70 0.2462499
885.80 0.2461699
885.90 0.24609
886.00 0.2460101
886.10 0.2459303
886.20 0.2458504
886.30 0.2457706
886.40 0.2456909
886.50 0.2456111
886.60 0.2455314
886.70 0.2454518
886.80 0.2453721
886.90 0.2452925
887.00 0.2452129
887.10 0.2451333
887.20 0.2450538
887.30 0.2449743
887.40 0.2448948
887.50 0.2448154
887.60 0.244736
887.70 0.2446566
887.80 0.2445773
887.90 0.2444979
888.00 0.2444186
888.10 0.2443394
888.20 0.2442602
888.30 0.2441809
888.40 0.2441001
888.50 0.244019
888.60 0.243938
888.70 0.2438569
888.80 0.243776
888.90 0.243695
889.00 0.2436141
889.10 0.2435332
889.20 0.2434523
889.30 0.2433715
889.40 0.2432907
889.50 0.2432099
889.60 0.2431291
889.70 0.2430484
889.80 0.2429677
889.90 0.2428871
890.00 0.2428064
890.10 0.2427258
890.20 0.2426453
890.30 0.2425647
890.40 0.2424842
890.50 0.2424038
890.60 0.2423233
890.70 0.2422429
890.80 0.2421625
890.90 0.2420822
891.00 0.2420018
891.10 0.2419215
891.20 0.2418413
891.30 0.241761
891.40 0.2416808
891.50 0.2416006
891.60 0.2415205
891.70 0.2414404
891.80 0.2413603
891.90 0.2412802
892.00 0.2412002
892.10 0.2411202
892.20 0.2410402
892.30 0.2409603
892.40 0.2408804
892.50 0.2408005
892.60 0.2407207
892.70 0.2406409
892.80 0.2405611
892.90 0.2404813
893.00 0.2404016
893.10 0.2403219
893.20 0.2402422
893.30 0.2401626
893.40 0.240083
893.50 0.2400034
893.60 0.2399238
893.70 0.2398443
893.80 0.2397648
893.90 0.2396853
894.00 0.2396059
894.10 0.2395265
894.20 0.2394471
894.30 0.2393678
894.40 0.2392885
894.50 0.2392092
894.60 0.2391299
894.70 0.2390507
894.80 0.2389715
894.90 0.2388923
895.00 0.2388132
895.10 0.2387341
895.20 0.238655
895.30 0.238576
895.40 0.2384969
895.50 0.2384179
895.60 0.238339
895.70 0.23826
895.80 0.2381811
895.90 0.2381023
896.00 0.2380234
896.10 0.2379446
896.20 0.2378658
896.30 0.2377871
896.40 0.2377083
896.50 0.2376296
896.60 0.237551
896.70 0.2374723
896.80 0.2373937
896.90 0.2373151
897.00 0.2372366
897.10 0.237158
897.20 0.2370796
897.30 0.2370014
897.40 0.2369232
897.50 0.236845
897.60 0.2367669
897.70 0.2366888
897.80 0.2366107
897.90 0.2365327
898.00 0.2364547
898.10 0.2363767
898.20 0.2362987
898.30 0.2362208
898.40 0.2361429
898.50 0.2360651
898.60 0.2359872
898.70 0.2359094
898.80 0.2358316
898.90 0.2357539
899.00 0.2356762
899.10 0.2355985
899.20 0.2355208
899.30 0.2354432
899.40 0.2353656
899.50 0.235288
899.60 0.2352104
899.70 0.2351329
899.80 0.2350554
899.90 0.234978
900.00 0.2349005
900.10 0.2348231
900.20 0.2347458
900.30 0.2346684
900.40 0.2345911
900.50 0.2345138
900.60 0.2344365
900.70 0.2343593
900.80 0.2342821
900.90 0.2342049
901.00 0.2341278
901.10 0.2340506
901.20 0.2339736
901.30 0.2338965
901.40 0.2338195
901.50 0.2337424
901.60 0.2336655
901.70 0.2335885
901.80 0.2335116
901.90 0.2334347
902.00 0.2333578
902.10 0.233281
902.20 0.2332042
902.30 0.2331274
902.40 0.2330507
902.50 0.2329739
902.60 0.2328972
902.70 0.2328206
902.80 0.2327439
902.90 0.2326673
903.00 0.2325907
903.10 0.2325142
903.20 0.2324377
903.30 0.2323612
903.40 0.2322847
903.50 0.2322083
903.60 0.2321318
903.70 0.2320555
903.80 0.2319791
903.90 0.2319028
904.00 0.2318265
904.10 0.2317502
904.20 0.231674
904.30 0.2315977
904.40 0.2315216
904.50 0.2314454
904.60 0.2313693
904.70 0.2312932
904.80 0.2312171
904.90 0.231141
905.00 0.231065
905.10 0.230989
905.20 0.2309131
905.30 0.2308371
905.40 0.2307612
905.50 0.2306853
905.60 0.2306095
905.70 0.2305337
905.80 0.2304579
905.90 0.2303821
906.00 0.2303063
906.10 0.2302306
906.20 0.230155
906.30 0.2300796
906.40 0.2300042
906.50 0.2299289
906.60 0.2298536
906.70 0.2297783
906.80 0.229703
906.90 0.2296277
907.00 0.2295525
907.10 0.2294773
907.20 0.2294022
907.30 0.229327
907.40 0.2292519
907.50 0.2291768
907.60 0.2291018
907.70 0.2290268
907.80 0.2289518
907.90 0.2288768
908.00 0.2288019
908.10 0.2287269
908.20 0.2286521
908.30 0.2285772
908.40 0.2285024
908.50 0.2284276
908.60 0.2283528
908.70 0.228278
908.80 0.2282033
908.90 0.2281286
909.00 0.2280539
909.10 0.2279793
909.20 0.2279047
909.30 0.2278301
909.40 0.2277555
909.50 0.227681
909.60 0.2276065
909.70 0.227532
909.80 0.2274576
909.90 0.2273832
910.00 0.2273088
910.10 0.2272344
910.20 0.2271601
910.30 0.2270857
910.40 0.2270115
910.50 0.2269372
910.60 0.226863
910.70 0.2267888
910.80 0.2267146
910.90 0.2266404
911.00 0.2265663
911.10 0.2264922
911.20 0.2264181
911.30 0.2263441
911.40 0.2262701
911.50 0.2261961
911.60 0.2261221
911.70 0.2260482
911.80 0.2259743
911.90 0.2259004
912.00 0.2258266
912.10 0.2257527
912.20 0.2256789
912.30 0.2256052
912.40 0.2255314
912.50 0.2254577
912.60 0.225384
912.70 0.2253103
912.80 0.2252367
912.90 0.2251631
913.00 0.2250895
913.10 0.2250159
913.20 0.2249424
913.30 0.2248689
913.40 0.2247954
913.50 0.224722
913.60 0.2246486
913.70 0.2245752
913.80 0.2245018
913.90 0.2244284
914.00 0.2243551
914.10 0.2242818
914.20 0.2242086
914.30 0.2241353
914.40 0.2240621
914.50 0.2239889
914.60 0.2239158
914.70 0.2238427
914.80 0.2237696
914.90 0.2236965
915.00 0.2236234
915.10 0.2235504
915.20 0.2234774
915.30 0.2234046
915.40 0.2233319
915.50 0.2232592
915.60 0.2231866
915.70 0.2231139
915.80 0.2230413
915.90 0.2229688
916.00 0.2228962
916.10 0.2228237
916.20 0.2227512
916.30 0.2226787
916.40 0.2226063
916.50 0.2225339
916.60 0.2224615
916.70 0.2223891
916.80 0.2223168
916.90 0.2222445
917.00 0.2221722
917.10 0.2220999
917.20 0.2220277
917.30 0.2219555
917.40 0.2218833
917.50 0.2218111
917.60 0.221739
917.70 0.2216669
917.80 0.2215948
917.90 0.2215228
918.00 0.2214508
918.10 0.2213788
918.20 0.2213068
918.30 0.2212348
918.40 0.2211629
918.50 0.221091
918.60 0.2210192
918.70 0.2209473
918.80 0.2208755
918.90 0.2208037
919.00 0.220732
919.10 0.2206602
919.20 0.2205885
919.30 0.2205168
919.40 0.2204452
919.50 0.2203735
919.60 0.2203019
919.70 0.2202304
919.80 0.2201588
919.90 0.2200873
920.00 0.2200158
920.10 0.2199443
920.20 0.2198728
920.30 0.2198014
920.40 0.21973
920.50 0.2196586
920.60 0.2195873
920.70 0.219516
920.80 0.2194447
920.90 0.2193734
921.00 0.2193022
921.10 0.2192309
921.20 0.2191597
921.30 0.2190886
921.40 0.2190174
921.50 0.2189463
921.60 0.2188752
921.70 0.2188042
921.80 0.2187331
921.90 0.2186621
922.00 0.2185911
922.10 0.2185202
922.20 0.2184492
922.30 0.2183783
922.40 0.2183074
922.50 0.2182366
922.60 0.2181657
922.70 0.2180949
922.80 0.2180241
922.90 0.2179534
923.00 0.2178827
923.10 0.2178119
923.20 0.2177413
923.30 0.2176706
923.40 0.2176
923.50 0.2175294
923.60 0.2174588
923.70 0.2173882
923.80 0.2173177
923.90 0.2172472
924.00 0.2171767
924.10 0.2171063
924.20 0.2170359
924.30 0.2169655
924.40 0.2168951
924.50 0.216825
924.60 0.2167549
924.70 0.2166849
924.80 0.2166148
924.90 0.2165448
925.00 0.2164748
925.10 0.2164048
925.20 0.2163349
925.30 0.216265
925.40 0.2161951
925.50 0.2161252
925.60 0.2160554
925.70 0.2159856
925.80 0.2159158
925.90 0.215846
926.00 0.2157763
926.10 0.2157066
926.20 0.2156369
926.30 0.2155672
926.40 0.2154976
926.50 0.215428
926.60 0.2153584
926.70 0.2152888
926.80 0.2152193
926.90 0.2151498
927.00 0.2150803
927.10 0.2150108
927.20 0.2149414
927.30 0.214872
927.40 0.2148026
927.50 0.2147332
927.60 0.2146639
927.70 0.2145945
927.80 0.2145253
927.90 0.214456
928.00 0.2143868
928.10 0.2143175
928.20 0.2142483
928.30 0.2141792
928.40 0.21411
928.50 0.2140409
928.60 0.2139718
928.70 0.2139028
928.80 0.2138337
928.90 0.2137647
929.00 0.2136957
929.10 0.2136268
929.20 0.2135578
929.30 0.2134889
929.40 0.21342
929.50 0.2133511
929.60 0.2132823
929.70 0.2132135
929.80 0.2131447
929.90 0.2130759
930.00 0.2130072
930.10 0.2129384
930.20 0.2128698
930.30 0.2128011
930.40 0.2127324
930.50 0.2126638
930.60 0.2125952
930.70 0.2125266
930.80 0.2124581
930.90 0.2123896
931.00 0.2123211
931.10 0.2122526
931.20 0.2121842
931.30 0.2121157
931.40 0.2120473
931.50 0.2119789
931.60 0.2119106
931.70 0.2118423
931.80 0.211774
931.90 0.2117057
932.00 0.2116374
932.10 0.2115692
932.20 0.211501
932.30 0.2114328
932.40 0.2113647
932.50 0.2112965
932.60 0.2112284
932.70 0.2111603
932.80 0.2110923
932.90 0.2110242
933.00 0.2109562
933.10 0.2108883
933.20 0.2108203
933.30 0.2107524
933.40 0.2106844
933.50 0.2106166
933.60 0.2105487
933.70 0.210481
933.80 0.2104134
933.90 0.2103459
934.00 0.2102783
934.10 0.2102108
934.20 0.2101433
934.30 0.2100758
934.40 0.2100084
934.50 0.209941
934.60 0.2098736
934.70 0.2098062
934.80 0.2097388
934.90 0.2096715
935.00 0.2096042
935.10 0.2095369
935.20 0.2094697
935.30 0.2094024
935.40 0.2093352
935.50 0.209268
935.60 0.2092009
935.70 0.2091337
935.80 0.2090666
935.90 0.2089995
936.00 0.2089325
936.10 0.2088654
936.20 0.2087984
936.30 0.2087314
936.40 0.2086645
936.50 0.2085975
936.60 0.2085306
936.70 0.2084637
936.80 0.2083968
936.90 0.20833
937.00 0.2082632
937.10 0.2081964
937.20 0.2081296
937.30 0.2080628
937.40 0.2079961
937.50 0.2079294
937.60 0.2078627
937.70 0.207796
937.80 0.2077294
937.90 0.2076628
938.00 0.2075962
938.10 0.2075296
938.20 0.2074631
938.30 0.2073966
938.40 0.2073301
938.50 0.2072636
938.60 0.2071972
938.70 0.2071307
938.80 0.2070644
938.90 0.206998
939.00 0.2069316
939.10 0.2068653
939.20 0.206799
939.30 0.2067327
939.40 0.2066665
939.50 0.2066002
939.60 0.206534
939.70 0.2064678
939.80 0.2064017
939.90 0.2063355
940.00 0.2062694
940.10 0.2062033
940.20 0.2061372
940.30 0.2060712
940.40 0.2060052
940.50 0.2059392
940.60 0.2058732
940.70 0.2058072
940.80 0.2057413
940.90 0.2056754
941.00 0.2056095
941.10 0.2055437
941.20 0.2054778
941.30 0.205412
941.40 0.2053462
941.50 0.2052805
941.60 0.2052147
941.70 0.205149
941.80 0.2050833
941.90 0.2050176
942.00 0.204952
942.10 0.2048863
942.20 0.2048207
942.30 0.2047552
942.40 0.2046896
942.50 0.2046241
942.60 0.2045586
942.70 0.2044931
942.80 0.2044276
942.90 0.2043622
943.00 0.2042968
943.10 0.2042317
943.20 0.2041665
943.30 0.2041014
943.40 0.2040363
943.50 0.2039712
943.60 0.2039061
943.70 0.2038411
943.80 0.2037761
943.90 0.2037111
944.00 0.2036461
944.10 0.2035812
944.20 0.2035163
944.30 0.2034514
944.40 0.2033865
944.50 0.2033216
944.60 0.2032568
944.70 0.203192
944.80 0.2031272
944.90 0.2030625
945.00 0.2029977
945.10 0.202933
945.20 0.2028683
945.30 0.2028036
945.40 0.202739
945.50 0.2026744
945.60 0.2026098
945.70 0.2025452
945.80 0.2024806
945.90 0.2024161
946.00 0.2023516
946.10 0.2022871
946.20 0.2022226
946.30 0.2021582
946.40 0.2020938
946.50 0.2020294
946.60 0.201965
946.70 0.2019007
946.80 0.2018363
946.90 0.201772
947.00 0.2017077
947.10 0.2016435
947.20 0.2015792
947.30 0.201515
947.40 0.2014508
947.50 0.2013867
947.60 0.2013225
947.70 0.2012584
947.80 0.2011943
947.90 0.2011302
948.00 0.2010662
948.10 0.2010021
948.20 0.2009381
948.30 0.2008741
948.40 0.2008102
948.50 0.2007462
948.60 0.2006823
948.70 0.2006184
948.80 0.2005545
948.90 0.2004907
949.00 0.2004268
949.10 0.200363
949.20 0.2002992
949.30 0.2002355
949.40 0.2001717
949.50 0.200108
949.60 0.2000443
949.70 0.1999806
949.80 0.199917
949.90 0.1998533
950.00 0.1997897
950.10 0.1997262
950.20 0.1996626
950.30 0.199599
950.40 0.1995355
950.50 0.199472
950.60 0.1994086
950.70 0.1993451
950.80 0.1992817
950.90 0.1992183
951.00 0.1991549
951.10 0.1990915
951.20 0.1990282
951.30 0.1989649
951.40 0.1989016
951.50 0.1988383
951.60 0.198775
951.70 0.1987118
951.80 0.1986486
951.90 0.1985854
952.00 0.1985223
952.10 0.1984591
952.20 0.198396
952.30 0.1983329
952.40 0.1982697
952.50 0.1982051
952.60 0.1981405
952.70 0.1980759
952.80 0.1980114
952.90 0.1979469
953.00 0.1978824
953.10 0.1978179
953.20 0.1977535
953.30 0.197689
953.40 0.1976246
953.50 0.1975603
953.60 0.1974959
953.70 0.1974316
953.80 0.1973673
953.90 0.197303
954.00 0.1972387
954.10 0.1971745
954.20 0.1971102
954.30 0.197046
954.40 0.1969819
954.50 0.1969177
954.60 0.1968536
954.70 0.1967895
954.80 0.1967254
954.90 0.1966613
955.00 0.1965973
955.10 0.1965332
955.20 0.1964692
955.30 0.1964053
955.40 0.1963413
955.50 0.1962774
955.60 0.1962135
955.70 0.1961496
955.80 0.1960857
955.90 0.1960219
956.00 0.1959581
956.10 0.1958943
956.20 0.1958305
956.30 0.1957668
956.40 0.195703
956.50 0.1956393
956.60 0.1955756
956.70 0.195512
956.80 0.1954483
956.90 0.1953847
957.00 0.1953211
957.10 0.1952576
957.20 0.1951948
957.30 0.195133
957.40 0.1950713
957.50 0.1950095
957.60 0.1949478
957.70 0.1948861
957.80 0.1948245
957.90 0.1947628
958.00 0.1947012
958.10 0.1946396
958.20 0.194578
958.30 0.1945164
958.40 0.1944549
958.50 0.1943934
958.60 0.1943319
958.70 0.1942704
958.80 0.194209
958.90 0.1941475
959.00 0.1940861
959.10 0.1940247
959.20 0.1939633
959.30 0.193902
959.40 0.1938407
959.50 0.1937794
959.60 0.1937181
959.70 0.1936568
959.80 0.1935956
959.90 0.1935344
960.00 0.1934732
960.10 0.193412
960.20 0.1933508
960.30 0.1932897
960.40 0.1932286
960.50 0.1931675
960.60 0.1931064
960.70 0.1930454
960.80 0.1929843
960.90 0.1929233
961.00 0.1928623
961.10 0.1928014
961.20 0.1927404
961.30 0.1926795
961.40 0.1926186
961.50 0.1925577
961.60 0.1924969
961.70 0.192436
961.80 0.1923752
961.90 0.1923144
962.00 0.1922538
962.10 0.1921933
962.20 0.1921327
962.30 0.1920722
962.40 0.1920117
962.50 0.1919513
962.60 0.1918908
962.70 0.1918304
962.80 0.19177
962.90 0.1917096
963.00 0.1916493
963.10 0.1915889
963.20 0.1915286
963.30 0.1914683
963.40 0.191408
963.50 0.1913478
963.60 0.1912876
963.70 0.1912273
963.80 0.1911672
963.90 0.191107
964.00 0.1910468
964.10 0.1909867
964.20 0.1909266
964.30 0.1908665
964.40 0.1908064
964.50 0.1907464
964.60 0.1906864
964.70 0.1906264
964.80 0.1905664
964.90 0.1905064
965.00 0.1904465
965.10 0.1903865
965.20 0.1903266
965.30 0.1902668
965.40 0.1902069
965.50 0.1901471
965.60 0.1900872
965.70 0.1900275
965.80 0.1899677
965.90 0.1899079
966.00 0.1898482
966.10 0.1897885
966.20 0.1897288
966.30 0.1896691
966.40 0.1896094
966.50 0.1895498
966.60 0.1894902
966.70 0.1894306
966.80 0.189371
966.90 0.1893115
967.00 0.189252
967.10 0.1891925
967.20 0.189133
967.30 0.1890735
967.40 0.1890141
967.50 0.1889546
967.60 0.1888952
967.70 0.1888358
967.80 0.1887765
967.90 0.1887171
968.00 0.1886578
968.10 0.1885985
968.20 0.1885392
968.30 0.18848
968.40 0.1884207
968.50 0.1883615
968.60 0.1883023
968.70 0.1882431
968.80 0.1881839
968.90 0.1881248
969.00 0.1880657
969.10 0.1880066
969.20 0.1879475
969.30 0.1878885
969.40 0.1878294
969.50 0.1877704
969.60 0.1877114
969.70 0.1876524
969.80 0.1875935
969.90 0.1875345
970.00 0.1874756
970.10 0.1874167
970.20 0.1873578
970.30 0.187299
970.40 0.1872402
970.50 0.1871813
970.60 0.1871225
970.70 0.1870638
970.80 0.187005
970.90 0.1869463
971.00 0.1868876
971.10 0.1868289
971.20 0.1867702
971.30 0.1867116
971.40 0.1866529
971.50 0.1865943
971.60 0.1865358
971.70 0.1864775
971.80 0.1864191
971.90 0.1863608
972.00 0.1863025
972.10 0.1862442
972.20 0.1861859
972.30 0.1861277
972.40 0.1860694
972.50 0.1860112
972.60 0.185953
972.70 0.1858949
972.80 0.1858367
972.90 0.1857786
973.00 0.1857205
973.10 0.1856624
973.20 0.1856043
973.30 0.1855462
973.40 0.1854882
973.50 0.1854302
973.60 0.1853722
973.70 0.1853142
973.80 0.1852563
973.90 0.1851983
974.00 0.1851404
974.10 0.1850825
974.20 0.1850247
974.30 0.1849668
974.40 0.184909
974.50 0.1848512
974.60 0.1847934
974.70 0.1847356
974.80 0.1846778
974.90 0.1846201
975.00 0.1845624
975.10 0.1845047
975.20 0.184447
975.30 0.1843894
975.40 0.1843317
975.50 0.1842741
975.60 0.1842165
975.70 0.1841589
975.80 0.1841014
975.90 0.1840438
976.00 0.1839863
976.10 0.1839288
976.20 0.1838714
976.30 0.1838139
976.40 0.1837565
976.50 0.183699
976.60 0.1836416
976.70 0.1835843
976.80 0.1835269
976.90 0.1834696
977.00 0.1834122
977.10 0.1833549
977.20 0.1832977
977.30 0.1832404
977.40 0.1831832
977.50 0.1831259
977.60 0.1830687
977.70 0.1830115
977.80 0.1829544
977.90 0.1828972
978.00 0.1828401
978.10 0.182783
978.20 0.1827259
978.30 0.1826689
978.40 0.1826118
978.50 0.1825548
978.60 0.1824978
978.70 0.1824408
978.80 0.1823838
978.90 0.1823269
979.00 0.1822699
979.10 0.182213
979.20 0.1821561
979.30 0.1820993
979.40 0.1820424
979.50 0.1819856
979.60 0.1819288
979.70 0.181872
979.80 0.1818152
979.90 0.1817585
980.00 0.1817017
980.10 0.181645
980.20 0.1815883
980.30 0.1815316
980.40 0.181475
980.50 0.1814183
980.60 0.1813617
980.70 0.1813051
980.80 0.1812485
980.90 0.181192
981.00 0.1811354
981.10 0.1810789
981.20 0.1810224
981.30 0.180966
981.40 0.1809097
981.50 0.1808535
981.60 0.1807973
981.70 0.1807411
981.80 0.1806849
981.90 0.1806287
982.00 0.1805725
982.10 0.1805164
982.20 0.1804603
982.30 0.1804042
982.40 0.1803481
982.50 0.180292
982.60 0.180236
982.70 0.18018
982.80 0.180124
982.90 0.180068
983.00 0.180012
983.10 0.1799561
983.20 0.1799002
983.30 0.1798443
983.40 0.1797884
983.50 0.1797325
983.60 0.1796767
983.70 0.1796208
983.80 0.179565
983.90 0.1795092
984.00 0.1794534
984.10 0.1793977
984.20 0.179342
984.30 0.1792862
984.40 0.1792305
984.50 0.1791749
984.60 0.1791192
984.70 0.1790636
984.80 0.1790079
984.90 0.1789523
985.00 0.1788968
985.10 0.1788412
985.20 0.1787856
985.30 0.1787301
985.40 0.1786746
985.50 0.1786191
985.60 0.1785636
985.70 0.1785082
985.80 0.1784528
985.90 0.1783973
986.00 0.1783419
986.10 0.1782866
986.20 0.1782312
986.30 0.1781759
986.40 0.1781206
986.50 0.1780652
986.60 0.17801
986.70 0.1779547
986.80 0.1778995
986.90 0.1778442
987.00 0.177789
987.10 0.1777338
987.20 0.1776787
987.30 0.1776235
987.40 0.1775684
987.50 0.1775133
987.60 0.1774582
987.70 0.1774031
987.80 0.177348
987.90 0.177293
988.00 0.177238
988.10 0.177183
988.20 0.177128
988.30 0.177073
988.40 0.1770181
988.50 0.1769631
988.60 0.1769082
988.70 0.1768533
988.80 0.1767985
988.90 0.1767436
989.00 0.1766888
989.10 0.176634
989.20 0.1765792
989.30 0.1765244
989.40 0.1764696
989.50 0.1764149
989.60 0.1763602
989.70 0.1763054
989.80 0.1762508
989.90 0.1761961
990.00 0.1761414
990.10 0.1760868
990.20 0.1760322
990.30 0.1759776
990.40 0.175923
990.50 0.1758685
990.60 0.1758139
990.70 0.1757594
990.80 0.1757049
990.90 0.1756504
991.00 0.175596
991.10 0.175541
991.20 0.1754852
991.30 0.1754294
991.40 0.1753736
991.50 0.1753179
991.60 0.1752621
991.70 0.1752064
991.80 0.1751507
991.90 0.175095
992.00 0.1750394
992.10 0.1749837
992.20 0.1749281
992.30 0.1748725
992.40 0.1748169
992.50 0.1747614
992.60 0.1747058
992.70 0.1746503
992.80 0.1745948
992.90 0.1745393
993.00 0.1744838
993.10 0.1744284
993.20 0.1743729
993.30 0.1743175
993.40 0.1742621
993.50 0.1742067
993.60 0.1741514
993.70 0.174096
993.80 0.1740407
993.90 0.1739854
994.00 0.1739301
994.10 0.1738749
994.20 0.1738196
994.30 0.1737644
994.40 0.1737092
994.50 0.173654
994.60 0.1735988
994.70 0.1735437
994.80 0.1734885
994.90 0.1734334
995.00 0.1733783
995.10 0.1733232
995.20 0.1732682
995.30 0.1732131
995.40 0.1731581
995.50 0.1731031
995.60 0.1730481
995.70 0.1729932
995.80 0.1729382
995.90 0.1728833
996.00 0.1728284
996.10 0.1727748
996.20 0.1727214
996.30 0.1726681
996.40 0.1726149
996.50 0.1725616
996.60 0.1725084
996.70 0.1724551
996.80 0.1724019
996.90 0.1723487
997.00 0.1722956
997.10 0.1722424
997.20 0.1721893
997.30 0.1721361
997.40 0.172083
997.50 0.1720299
997.60 0.1719769
997.70 0.1719238
997.80 0.1718708
997.90 0.1718178
998.00 0.1717648
998.10 0.1717118
998.20 0.1716589
998.30 0.1716059
998.40 0.171553
998.50 0.1715001
998.60 0.1714472
998.70 0.1713943
998.80 0.1713415
998.90 0.1712886
999.00 0.1712358
999.10 0.171183
999.20 0.1711302
999.30 0.1710775
999.40 0.1710247
999.50 0.170972
999.60 0.1709193
999.70 0.1708666
999.80 0.1708139
999.90 0.1707612
1000.00 0.1707086
1000.10 0.170656
1000.20 0.1706034
1000.30 0.1705508
1000.40 0.1704982
1000.50 0.1704457
1000.60 0.1703931
1000.70 0.1703406
1000.80 0.1702881
1000.90 0.1702356
1001.00 0.1701832
1001.10 0.1701309
1001.20 0.1700787
1001.30 0.1700265
1001.40 0.1699742
1001.50 0.169922
1001.60 0.1698699
1001.70 0.1698177
1001.80 0.1697656
1001.90 0.1697134
1002.00 0.1696613
1002.10 0.1696092
1002.20 0.1695572
1002.30 0.1695051
1002.40 0.1694531
1002.50 0.169401
1002.60 0.169349
1002.70 0.169297
1002.80 0.1692451
1002.90 0.1691931
1003.00 0.1691412
1003.10 0.1690893
1003.20 0.1690374
1003.30 0.1689855
1003.40 0.1689336
1003.50 0.1688818
1003.60 0.1688299
1003.70 0.1687781
1003.80 0.1687263
1003.90 0.1686745
1004.00 0.1686228
1004.10 0.168571
1004.20 0.1685193
1004.30 0.1684676
1004.40 0.1684159
1004.50 0.1683642
1004.60 0.1683125
1004.70 0.1682609
1004.80 0.1682093
1004.90 0.1681577
1005.00 0.1681061
1005.10 0.1680545
1005.20 0.168003
1005.30 0.1679514
1005.40 0.1678999
1005.50 0.1678484
1005.60 0.1677969
1005.70 0.1677454
1005.80 0.167694
1005.90 0.1676425
1006.00 0.1675911
1006.10 0.1675397
1006.20 0.1674883
1006.30 0.167437
1006.40 0.1673856
1006.50 0.1673343
1006.60 0.1672829
1006.70 0.1672316
1006.80 0.1671804
1006.90 0.1671291
1007.00 0.1670778
1007.10 0.1670266
1007.20 0.1669754
1007.30 0.1669242
1007.40 0.166873
1007.50 0.1668218
1007.60 0.1667707
1007.70 0.1667196
1007.80 0.1666684
1007.90 0.1666173
1008.00 0.1665663
1008.10 0.1665152
1008.20 0.1664641
1008.30 0.1664131
1008.40 0.1663621
1008.50 0.1663111
1008.60 0.1662601
1008.70 0.1662092
1008.80 0.1661582
1008.90 0.1661073
1009.00 0.1660564
1009.10 0.1660055
1009.20 0.1659546
1009.30 0.1659037
1009.40 0.1658529
1009.50 0.1658021
1009.60 0.1657513
1009.70 0.1657005
1009.80 0.1656497
1009.90 0.1655989
1010.00 0.1655482
1010.10 0.1654975
1010.20 0.1654468
1010.30 0.1653961
1010.40 0.1653454
1010.50 0.1652947
1010.60 0.1652441
1010.70 0.1651935
1010.80 0.1651428
1010.90 0.1650923
1011.00 0.1650417
1011.10 0.1649913
1011.20 0.164941
1011.30 0.1648906
1011.40 0.1648403
1011.50 0.16479
1011.60 0.1647397
1011.70 0.1646894
1011.80 0.1646392
1011.90 0.1645889
1012.00 0.1645387
1012.10 0.1644885
1012.20 0.1644383
1012.30 0.1643881
1012.40 0.1643379
1012.50 0.1642878
1012.60 0.1642377
1012.70 0.1641876
1012.80 0.1641375
1012.90 0.1640874
1013.00 0.1640373
1013.10 0.1639873
1013.20 0.1639373
1013.30 0.1638872
1013.40 0.1638373
1013.50 0.1637873
1013.60 0.1637373
1013.70 0.1636874
1013.80 0.1636374
1013.90 0.1635875
1014.00 0.1635376
1014.10 0.1634878
1014.20 0.1634379
1014.30 0.163388
1014.40 0.1633382
1014.50 0.1632884
1014.60 0.1632386
1014.70 0.1631888
1014.80 0.1631391
1014.90 0.1630893
1015.00 0.1630396
1015.10 0.1629899
1015.20 0.1629402
1015.30 0.1628905
1015.40 0.1628408
1015.50 0.1627912
1015.60 0.1627415
1015.70 0.1626919
1015.80 0.1626423
1015.90 0.1625927
1016.00 0.1625432
1016.10 0.1624936
1016.20 0.1624441
1016.30 0.1623946
1016.40 0.1623451
1016.50 0.1622956
1016.60 0.1622461
1016.70 0.1621967
1016.80 0.1621472
1016.90 0.1620978
1017.00 0.1620484
1017.10 0.161999
1017.20 0.1619496
1017.30 0.1619003
1017.40 0.1618509
1017.50 0.1618016
1017.60 0.1617523
1017.70 0.161703
1017.80 0.1616538
1017.90 0.1616045
1018.00 0.1615553
1018.10 0.161506
1018.20 0.1614568
1018.30 0.1614076
1018.40 0.1613585
1018.50 0.1613093
1018.60 0.1612601
1018.70 0.161211
1018.80 0.1611619
1018.90 0.1611128
1019.00 0.1610637
1019.10 0.1610147
1019.20 0.1609656
1019.30 0.1609166
1019.40 0.1608676
1019.50 0.1608186
1019.60 0.1607696
1019.70 0.1607206
1019.80 0.1606717
1019.90 0.1606227
1020.00 0.1605738
1020.10 0.1605249
1020.20 0.160476
1020.30 0.1604272
1020.40 0.1603783
1020.50 0.1603295
1020.60 0.1602807
1020.70 0.1602319
1020.80 0.1601831
1020.90 0.1601343
1021.00 0.1600855
1021.10 0.1600368
1021.20 0.1599883
1021.30 0.1599397
1021.40 0.1598912
1021.50 0.1598427
1021.60 0.1597942
1021.70 0.1597457
1021.80 0.1596973
1021.90 0.1596488
1022.00 0.1596004
1022.10 0.159552
1022.20 0.1595036
1022.30 0.1594552
1022.40 0.1594069
1022.50 0.1593585
1022.60 0.1593102
1022.70 0.1592619
1022.80 0.1592136
1022.90 0.1591653
1023.00 0.159117
1023.10 0.1590688
1023.20 0.1590206
1023.30 0.1589723
1023.40 0.1589241
1023.50 0.158876
1023.60 0.1588278
1023.70 0.1587796
1023.80 0.1587315
1023.90 0.1586834
1024.00 0.1586353
1024.10 0.1585872
1024.20 0.1585391
1024.30 0.158491
1024.40 0.158443
1024.50 0.158395
1024.60 0.1583469
1024.70 0.1582989
1024.80 0.158251
1024.90 0.158203
1025.00 0.158155
1025.10 0.1581071
1025.20 0.1580592
1025.30 0.1580113
1025.40 0.1579634
1025.50 0.1579155
1025.60 0.1578677
1025.70 0.1578198
1025.80 0.157772
1025.90 0.1577242
1026.00 0.1576764
1026.10 0.1576286
1026.20 0.1575809
1026.30 0.1575331
1026.40 0.1574854
1026.50 0.1574377
1026.60 0.15739
1026.70 0.1573423
1026.80 0.1572946
1026.90 0.1572469
1027.00 0.1571993
1027.10 0.1571517
1027.20 0.1571041
1027.30 0.1570565
1027.40 0.1570089
1027.50 0.1569613
1027.60 0.1569138
1027.70 0.1568663
1027.80 0.1568187
1027.90 0.1567712
1028.00 0.1567238
1028.10 0.1566763
1028.20 0.1566288
1028.30 0.1565814
1028.40 0.156534
1028.50 0.1564866
1028.60 0.1564392
1028.70 0.1563918
1028.80 0.1563444
1028.90 0.1562971
1029.00 0.1562497
1029.10 0.1562024
1029.20 0.1561551
1029.30 0.1561079
1029.40 0.1560606
1029.50 0.1560133
1029.60 0.1559661
1029.70 0.1559189
1029.80 0.1558717
1029.90 0.1558245
1030.00 0.1557773
1030.10 0.1557301
1030.20 0.155683
1030.30 0.1556359
1030.40 0.1555887
1030.50 0.1555416
1030.60 0.1554946
1030.70 0.1554475
1030.80 0.1554004
1030.90 0.1553534
1031.00 0.1553064
1031.10 0.1552594
1031.20 0.1552124
1031.30 0.1551654
1031.40 0.1551173
1031.50 0.1550691
1031.60 0.1550209
1031.70 0.1549728
1031.80 0.1549247
1031.90 0.1548766
1032.00 0.1548285
1032.10 0.1547804
1032.20 0.1547324
1032.30 0.1546843
1032.40 0.1546363
1032.50 0.1545883
1032.60 0.1545403
1032.70 0.1544923
1032.80 0.1544443
1032.90 0.1543964
1033.00 0.1543485
1033.10 0.1543005
1033.20 0.1542526
1033.30 0.1542048
1033.40 0.1541569
1033.50 0.154109
1033.60 0.1540612
1033.70 0.1540134
1033.80 0.1539656
1033.90 0.1539178
1034.00 0.15387
1034.10 0.1538222
1034.20 0.1537745
1034.30 0.1537268
1034.40 0.1536791
1034.50 0.1536314
1034.60 0.1535837
1034.70 0.153536
1034.80 0.1534884
1034.90 0.1534407
1035.00 0.1533931
1035.10 0.1533455
1035.20 0.1532979
1035.30 0.1532503
1035.40 0.1532028
1035.50 0.1531552
1035.60 0.1531077
1035.70 0.1530602
1035.80 0.1530127
1035.90 0.1529652
1036.00 0.1529178
1036.10 0.1528703
1036.20 0.1528229
1036.30 0.1527755
1036.40 0.1527281
1036.50 0.1526812
1036.60 0.1526352
1036.70 0.1525892
1036.80 0.1525433
1036.90 0.1524973
1037.00 0.1524514
1037.10 0.1524054
1037.20 0.1523595
1037.30 0.1523136
1037.40 0.1522678
1037.50 0.1522219
1037.60 0.152176
1037.70 0.1521302
1037.80 0.1520844
1037.90 0.1520386
1038.00 0.1519928
1038.10 0.151947
1038.20 0.1519013
1038.30 0.1518555
1038.40 0.1518098
1038.50 0.1517641
1038.60 0.1517184
1038.70 0.1516727
1038.80 0.151627
1038.90 0.1515814
1039.00 0.1515357
1039.10 0.1514901
1039.20 0.1514445
1039.30 0.1513989
1039.40 0.1513533
1039.50 0.1513077
1039.60 0.1512622
1039.70 0.1512166
1039.80 0.1511711
1039.90 0.1511256
1040.00 0.1510801
1040.10 0.1510346
1040.20 0.1509892
1040.30 0.1509437
1040.40 0.1508983
1040.50 0.1508529
1040.60 0.1508075
1040.70 0.1507621
1040.80 0.1507167
1040.90 0.1506713
1041.00 0.150626
1041.10 0.1505807
1041.20 0.1505353
1041.30 0.15049
1041.40 0.1504447
1041.50 0.1503995
1041.60 0.1503542
1041.70 0.1503091
1041.80 0.150264
1041.90 0.150219
1042.00 0.1501739
1042.10 0.1501289
1042.20 0.1500839
1042.30 0.1500389
1042.40 0.1499939
1042.50 0.149949
1042.60 0.149904
1042.70 0.1498591
1042.80 0.1498142
1042.90 0.1497693
1043.00 0.1497244
1043.10 0.1496795
1043.20 0.1496346
1043.30 0.1495898
1043.40 0.1495449
1043.50 0.1495001
1043.60 0.1494553
1043.70 0.1494105
1043.80 0.1493657
1043.90 0.149321
1044.00 0.1492762
1044.10 0.1492315
1044.20 0.1491868
1044.30 0.1491421
1044.40 0.1490974
1044.50 0.1490527
1044.60 0.149008
1044.70 0.1489634
1044.80 0.1489188
1044.90 0.1488741
1045.00 0.1488295
1045.10 0.148785
1045.20 0.1487404
1045.30 0.1486958
1045.40 0.1486513
1045.50 0.1486067
1045.60 0.1485622
1045.70 0.1485177
1045.80 0.1484732
1045.90 0.1484287
1046.00 0.1483843
1046.10 0.1483398
1046.20 0.1482954
1046.30 0.148251
1046.40 0.1482066
1046.50 0.1481622
1046.60 0.1481178
1046.70 0.1480735
1046.80 0.1480291
1046.90 0.1479848
1047.00 0.1479405
1047.10 0.1478961
1047.20 0.1478519
1047.30 0.1478076
1047.40 0.1477633
1047.50 0.1477191
1047.60 0.1476748
1047.70 0.1476306
1047.80 0.1475864
1047.90 0.1475422
1048.00 0.147498
1048.10 0.1474539
1048.20 0.1474097
1048.30 0.1473656
1048.40 0.1473215
1048.50 0.1472774
1048.60 0.1472333
1048.70 0.1471892
1048.80 0.1471451
1048.90 0.1471011
1049.00 0.1470571
1049.10 0.147013
1049.20 0.146969
1049.30 0.146925
1049.40 0.1468811
1049.50 0.1468371
1049.60 0.1467931
1049.70 0.1467492
1049.80 0.1467053
1049.90 0.1466614
1050.00 0.1466175
1050.10 0.1465736
1050.20 0.1465297
1050.30 0.1464859
1050.40 0.146442
1050.50 0.1463982
1050.60 0.1463544
1050.70 0.1463106
1050.80 0.1462668
1050.90 0.1462231
1051.00 0.1461793
1051.10 0.1461356
1051.20 0.1460918
1051.30 0.1460481
1051.40 0.1460044
1051.50 0.1459607
1051.60 0.1459171
1051.70 0.1458734
1051.80 0.1458298
1051.90 0.1457862
1052.00 0.1457425
1052.10 0.145699
1052.20 0.1456556
1052.30 0.1456122
1052.40 0.1455688
1052.50 0.1455254
1052.60 0.145482
1052.70 0.1454387
1052.80 0.1453953
1052.90 0.145352
1053.00 0.1453087
1053.10 0.1452654
1053.20 0.1452221
1053.30 0.1451788
1053.40 0.1451356
1053.50 0.1450923
1053.60 0.1450491
1053.70 0.1450059
1053.80 0.1449627
1053.90 0.1449195
1054.00 0.1448763
1054.10 0.1448331
1054.20 0.14479
1054.30 0.1447468
1054.40 0.1447037
1054.50 0.1446606
1054.60 0.1446175
1054.70 0.1445744
1054.80 0.1445313
1054.90 0.1444883
1055.00 0.1444452
1055.10 0.1444022
1055.20 0.1443592
1055.30 0.1443162
1055.40 0.1442732
1055.50 0.1442302
1055.60 0.1441873
1055.70 0.1441443
1055.80 0.1441014
1055.90 0.1440585
1056.00 0.1440156
1056.10 0.1439727
1056.20 0.1439298
1056.30 0.143887
1056.40 0.1438441
1056.50 0.1438013
1056.60 0.1437584
1056.70 0.1437156
1056.80 0.1436728
1056.90 0.1436301
1057.00 0.1435873
1057.10 0.1435445
1057.20 0.1435018
1057.30 0.1434591
1057.40 0.1434164
1057.50 0.1433737
1057.60 0.143331
1057.70 0.1432883
1057.80 0.1432456
1057.90 0.143203
1058.00 0.1431604
1058.10 0.1431177
1058.20 0.1430751
1058.30 0.1430325
1058.40 0.14299
1058.50 0.1429474
1058.60 0.1429049
1058.70 0.1428623
1058.80 0.1428198
1058.90 0.1427773
1059.00 0.1427348
1059.10 0.1426923
1059.20 0.1426498
1059.30 0.1426074
1059.40 0.1425649
1059.50 0.1425225
1059.60 0.1424801
1059.70 0.1424377
1059.80 0.1423953
1059.90 0.1423529
1060.00 0.1423106
1060.10 0.1422682
1060.20 0.1422259
1060.30 0.1421836
1060.40 0.1421412
1060.50 0.1420989
1060.60 0.1420567
1060.70 0.1420144
1060.80 0.1419721
1060.90 0.1419299
1061.00 0.1418877
1061.10 0.1418455
1061.20 0.1418033
1061.30 0.1417611
1061.40 0.1417189
1061.50 0.1416767
1061.60 0.1416346
1061.70 0.1415925
1061.80 0.1415503
1061.90 0.1415082
1062.00 0.1414661
1062.10 0.1414241
1062.20 0.141382
1062.30 0.1413399
1062.40 0.1412979
1062.50 0.1412559
1062.60 0.1412139
1062.70 0.1411721
1062.80 0.1411302
1062.90 0.1410884
1063.00 0.1410466
1063.10 0.1410048
1063.20 0.140963
1063.30 0.1409213
1063.40 0.1408795
1063.50 0.1408378
1063.60 0.140796
1063.70 0.1407543
1063.80 0.1407126
1063.90 0.1406709
1064.00 0.1406292
1064.10 0.1405876
1064.20 0.1405459
1064.30 0.1405043
1064.40 0.1404627
1064.50 0.1404211
1064.60 0.1403795
1064.70 0.1403379
1064.80 0.1402963
1064.90 0.1402548
1065.00 0.1402132
1065.10 0.1401717
1065.20 0.1401302
1065.30 0.1400887
1065.40 0.1400472
1065.50 0.1400057
1065.60 0.1399642
1065.70 0.1399228
1065.80 0.1398813
1065.90 0.1398399
1066.00 0.1397985
1066.10 0.1397571
1066.20 0.1397157
1066.30 0.1396743
1066.40 0.139633
1066.50 0.1395916
1066.60 0.1395503
1066.70 0.1395089
1066.80 0.1394676
1066.90 0.1394263
1067.00 0.1393851
1067.10 0.1393438
1067.20 0.1393025
1067.30 0.1392613
1067.40 0.1392201
1067.50 0.1391788
1067.60 0.1391376
1067.70 0.1390964
1067.80 0.1390553
1067.90 0.1390141
1068.00 0.1389729
1068.10 0.1389318
1068.20 0.1388907
1068.30 0.1388495
1068.40 0.1388084
1068.50 0.1387674
1068.60 0.1387263
1068.70 0.1386852
1068.80 0.1386442
1068.90 0.1386031
1069.00 0.1385621
1069.10 0.1385211
1069.20 0.1384801
1069.30 0.1384391
1069.40 0.1383981
1069.50 0.1383571
1069.60 0.1383162
1069.70 0.1382753
1069.80 0.1382343
1069.90 0.1381934
1070.00 0.1381525
1070.10 0.1381116
1070.20 0.1380708
1070.30 0.1380299
1070.40 0.1379891
1070.50 0.1379482
1070.60 0.1379074
1070.70 0.1378666
1070.80 0.1378258
1070.90 0.137785
1071.00 0.1377443
1071.10 0.1377035
1071.20 0.1376628
1071.30 0.137622
1071.40 0.1375813
1071.50 0.1375406
1071.60 0.1374999
1071.70 0.1374592
1071.80 0.1374186
1071.90 0.1373779
1072.00 0.1373373
1072.10 0.1372966
1072.20 0.137256
1072.30 0.1372154
1072.40 0.1371748
1072.50 0.1371343
1072.60 0.1370937
1072.70 0.1370531
1072.80 0.1370126
1072.90 0.1369721
1073.00 0.1369316
1073.10 0.1368911
1073.20 0.1368506
1073.30 0.1368103
1073.40 0.13677
1073.50 0.1367297
1073.60 0.1366894
1073.70 0.1366491
1073.80 0.1366089
1073.90 0.1365686
1074.00 0.1365284
1074.10 0.1364881
1074.20 0.1364479
1074.30 0.1364077
1074.40 0.1363675
1074.50 0.1363274
1074.60 0.1362872
1074.70 0.1362471
1074.80 0.1362069
1074.90 0.1361668
1075.00 0.1361267
1075.10 0.1360866
1075.20 0.1360465
1075.30 0.1360064
1075.40 0.1359664
1075.50 0.1359263
1075.60 0.1358863
1075.70 0.1358463
1075.80 0.1358063
1075.90 0.1357663
1076.00 0.1357263
1076.10 0.1356863
1076.20 0.1356463
1076.30 0.1356064
1076.40 0.1355665
1076.50 0.1355265
1076.60 0.1354866
1076.70 0.1354467
1076.80 0.1354069
1076.90 0.135367
1077.00 0.1353271
1077.10 0.1352873
1077.20 0.1352474
1077.30 0.1352076
1077.40 0.1351678
1077.50 0.135128
1077.60 0.1350882
1077.70 0.1350484
1077.80 0.1350087
1077.90 0.1349689
1078.00 0.1349292
1078.10 0.1348895
1078.20 0.1348498
1078.30 0.1348101
1078.40 0.1347704
1078.50 0.1347307
1078.60 0.1346911
1078.70 0.1346514
1078.80 0.1346118
1078.90 0.1345721
1079.00 0.1345325
1079.10 0.1344929
1079.20 0.1344533
1079.30 0.1344138
1079.40 0.1343742
1079.50 0.1343347
1079.60 0.1342951
1079.70 0.1342556
1079.80 0.1342161
1079.90 0.1341766
1080.00 0.1341371
1080.10 0.1340976
1080.20 0.1340582
1080.30 0.1340187
1080.40 0.1339793
1080.50 0.1339398
1080.60 0.1339004
1080.70 0.133861
1080.80 0.1338216
1080.90 0.1337823
1081.00 0.1337429
1081.10 0.1337035
1081.20 0.1336642
1081.30 0.1336249
1081.40 0.1335856
1081.50 0.1335463
1081.60 0.133507
1081.70 0.1334677
1081.80 0.1334284
1081.90 0.1333892
1082.00 0.1333499
1082.10 0.1333107
1082.20 0.1332715
1082.30 0.1332323
1082.40 0.1331931
1082.50 0.1331539
1082.60 0.1331147
1082.70 0.1330756
1082.80 0.1330364
1082.90 0.1329973
1083.00 0.1329582
1083.10 0.1329191
1083.20 0.13288
1083.30 0.1328409
1083.40 0.1328018
1083.50 0.1327627
1083.60 0.1327237
1083.70 0.1326847
1083.80 0.1326456
1083.90 0.1326066
1084.00 0.1325678
1084.10 0.1325289
1084.20 0.1324901
1084.30 0.1324513
1084.40 0.1324125
1084.50 0.1323737
1084.60 0.1323349
1084.70 0.1322961
1084.80 0.1322574
1084.90 0.1322186
1085.00 0.1321799
1085.10 0.1321412
1085.20 0.1321024
1085.30 0.1320638
1085.40 0.1320251
1085.50 0.1319864
1085.60 0.1319477
1085.70 0.1319091
1085.80 0.1318704
1085.90 0.1318318
1086.00 0.1317932
1086.10 0.1317546
1086.20 0.131716
1086.30 0.1316774
1086.40 0.1316389
1086.50 0.1316003
1086.60 0.1315618
1086.70 0.1315232
1086.80 0.1314847
1086.90 0.1314462
1087.00 0.1314077
1087.10 0.1313692
1087.20 0.1313308
1087.30 0.1312923
1087.40 0.1312539
1087.50 0.1312154
1087.60 0.131177
1087.70 0.1311386
1087.80 0.1311002
1087.90 0.1310618
1088.00 0.1310234
1088.10 0.1309851
1088.20 0.1309467
1088.30 0.1309084
1088.40 0.1308701
1088.50 0.1308318
1088.60 0.1307934
1088.70 0.1307552
1088.80 0.1307169
1088.90 0.1306786
1089.00 0.1306404
1089.10 0.1306021
1089.20 0.1305639
1089.30 0.1305257
1089.40 0.1304874
1089.50 0.1304492
1089.60 0.1304111
1089.70 0.1303729
1089.80 0.1303347
1089.90 0.1302966
1090.00 0.1302584
1090.10 0.1302203
1090.20 0.1301822
1090.30 0.1301441
1090.40 0.130106
1090.50 0.1300679
1090.60 0.1300298
1090.70 0.1299918
1090.80 0.1299537
1090.90 0.1299157
1091.00 0.1298777
1091.10 0.1298397
1091.20 0.1298017
1091.30 0.1297637
1091.40 0.1297257
1091.50 0.1296877
1091.60 0.1296498
1091.70 0.1296118
1091.80 0.1295739
1091.90 0.129536
1092.00 0.1294981
1092.10 0.1294602
1092.20 0.1294223
1092.30 0.1293845
1092.40 0.1293466
1092.50 0.1293087
1092.60 0.1292709
1092.70 0.1292331
1092.80 0.1291953
1092.90 0.1291575
1093.00 0.1291197
1093.10 0.1290819
1093.20 0.1290441
1093.30 0.1290064
1093.40 0.1289687
1093.50 0.1289309
1093.60 0.1288932
1093.70 0.1288555
1093.80 0.1288178
1093.90 0.1287801
1094.00 0.1287424
1094.10 0.1287048
1094.20 0.1286671
1094.30 0.1286295
1094.40 0.1285919
1094.50 0.1285543
1094.60 0.1285167
1094.70 0.1284791
1094.80 0.1284419
1094.90 0.128405
1095.00 0.1283682
1095.10 0.1283314
1095.20 0.1282945
1095.30 0.1282578
1095.40 0.128221
1095.50 0.1281842
1095.60 0.1281474
1095.70 0.1281107
1095.80 0.1280739
1095.90 0.1280372
1096.00 0.1280005
1096.10 0.1279638
1096.20 0.1279271
1096.30 0.1278904
1096.40 0.1278537
1096.50 0.127817
1096.60 0.1277804
1096.70 0.1277438
1096.80 0.1277071
1096.90 0.1276705
1097.00 0.1276339
1097.10 0.1275973
1097.20 0.1275607
1097.30 0.1275241
1097.40 0.1274876
1097.50 0.127451
1097.60 0.1274145
1097.70 0.127378
1097.80 0.1273414
1097.90 0.1273049
1098.00 0.1272684
1098.10 0.127232
1098.20 0.1271955
1098.30 0.127159
1098.40 0.1271226
1098.50 0.1270861
1098.60 0.1270497
1098.70 0.1270133
1098.80 0.1269769
1098.90 0.1269405
1099.00 0.1269041
1099.10 0.1268677
1099.20 0.1268314
1099.30 0.126795
1099.40 0.1267587
1099.50 0.1267224
1099.60 0.126686
1099.70 0.1266497
1099.80 0.1266134
1099.90 0.1265772
1100.00 0.1265409
1100.10 0.1265046
1100.20 0.1264684
1100.30 0.1264321
1100.40 0.1263959
1100.50 0.1263597
1100.60 0.1263235
1100.70 0.1262873
1100.80 0.1262511
1100.90 0.1262149
1101.00 0.1261788
1101.10 0.1261426
1101.20 0.1261065
1101.30 0.1260704
1101.40 0.1260342
1101.50 0.1259981
1101.60 0.125962
1101.70 0.125926
1101.80 0.1258899
1101.90 0.1258538
1102.00 0.1258178
1102.10 0.1257817
1102.20 0.1257457
1102.30 0.1257097
1102.40 0.1256737
1102.50 0.1256377
1102.60 0.1256017
1102.70 0.1255657
1102.80 0.1255298
1102.90 0.1254938
1103.00 0.1254579
1103.10 0.1254219
1103.20 0.125386
1103.30 0.1253501
1103.40 0.1253142
1103.50 0.1252783
1103.60 0.1252425
1103.70 0.1252066
1103.80 0.1251707
1103.90 0.1251349
1104.00 0.1250991
1104.10 0.1250632
1104.20 0.1250274
1104.30 0.1249916
1104.40 0.1249558
1104.50 0.1249201
1104.60 0.1248843
1104.70 0.1248485
1104.80 0.1248128
1104.90 0.1247771
1105.00 0.1247413
1105.10 0.1247056
1105.20 0.1246699
1105.30 0.1246342
1105.40 0.1245986
1105.50 0.1245629
1105.60 0.1245272
1105.70 0.1244916
1105.80 0.1244555
1105.90 0.1244195
1106.00 0.1243834
1106.10 0.1243474
1106.20 0.1243113
1106.30 0.1242753
1106.40 0.1242393
1106.50 0.1242033
1106.60 0.1241673
1106.70 0.1241314
1106.80 0.1240954
1106.90 0.1240595
1107.00 0.1240235
1107.10 0.1239876
1107.20 0.1239517
1107.30 0.1239158
1107.40 0.1238799
1107.50 0.123844
1107.60 0.1238081
1107.70 0.1237722
1107.80 0.1237364
1107.90 0.1237006
1108.00 0.1236647
1108.10 0.1236289
1108.20 0.1235931
1108.30 0.1235573
1108.40 0.1235215
1108.50 0.1234857
1108.60 0.12345
1108.70 0.1234142
1108.80 0.1233785
1108.90 0.1233427
1109.00 0.123307
1109.10 0.1232713
1109.20 0.1232356
1109.30 0.1231999
1109.40 0.1231643
1109.50 0.1231286
1109.60 0.1230929
1109.70 0.1230573
1109.80 0.1230217
1109.90 0.122986
1110.00 0.1229504
1110.10 0.1229148
1110.20 0.1228792
1110.30 0.1228436
1110.40 0.1228081
1110.50 0.1227725
1110.60 0.122737
1110.70 0.1227014
1110.80 0.1226659
1110.90 0.1226304
1111.00 0.1225949
1111.10 0.1225594
1111.20 0.1225239
1111.30 0.1224884
1111.40 0.122453
1111.50 0.1224175
1111.60 0.1223821
1111.70 0.1223467
1111.80 0.1223112
1111.90 0.1222758
1112.00 0.1222404
1112.10 0.1222051
1112.20 0.1221697
1112.30 0.1221343
1112.40 0.122099
1112.50 0.1220636
1112.60 0.1220283
1112.70 0.121993
1112.80 0.1219577
1112.90 0.1219224
1113.00 0.1218871
1113.10 0.1218518
1113.20 0.1218165
1113.30 0.1217813
1113.40 0.121746
1113.50 0.1217108
1113.60 0.1216756
1113.70 0.1216404
1113.80 0.1216051
1113.90 0.12157
1114.00 0.1215348
1114.10 0.1214996
1114.20 0.1214644
1114.30 0.1214293
1114.40 0.1213942
1114.50 0.121359
1114.60 0.1213239
1114.70 0.1212888
1114.80 0.1212537
1114.90 0.1212186
1115.00 0.1211835
1115.10 0.1211485
1115.20 0.1211134
1115.30 0.1210784
1115.40 0.1210433
1115.50 0.1210083
1115.60 0.1209733
1115.70 0.1209383
1115.80 0.1209033
1115.90 0.1208683
1116.00 0.1208334
1116.10 0.1207984
1116.20 0.1207635
1116.30 0.1207285
1116.40 0.1206936
1116.50 0.1206587
1116.60 0.1206238
1116.70 0.1205889
1116.80 0.1205541
1116.90 0.1205193
1117.00 0.1204846
1117.10 0.1204499
1117.20 0.1204152
1117.30 0.1203805
1117.40 0.1203458
1117.50 0.1203111
1117.60 0.1202764
1117.70 0.1202418
1117.80 0.1202071
1117.90 0.1201725
1118.00 0.1201378
1118.10 0.1201032
1118.20 0.1200686
1118.30 0.120034
1118.40 0.1199994
1118.50 0.1199649
1118.60 0.1199303
1118.70 0.1198958
1118.80 0.1198612
1118.90 0.1198267
1119.00 0.1197922
1119.10 0.1197576
1119.20 0.1197231
1119.30 0.1196886
1119.40 0.1196542
1119.50 0.1196197
1119.60 0.1195852
1119.70 0.1195508
1119.80 0.1195163
1119.90 0.1194819
1120.00 0.1194475
1120.10 0.1194131
1120.20 0.1193787
1120.30 0.1193443
1120.40 0.1193099
1120.50 0.1192756
1120.60 0.1192412
1120.70 0.1192069
1120.80 0.1191725
1120.90 0.1191382
1121.00 0.1191039
1121.10 0.1190696
1121.20 0.1190353
1121.30 0.119001
1121.40 0.1189667
1121.50 0.1189325
1121.60 0.1188982
1121.70 0.118864
1121.80 0.1188297
1121.90 0.1187955
1122.00 0.1187613
1122.10 0.1187271
1122.20 0.1186929
1122.30 0.1186587
1122.40 0.1186246
1122.50 0.1185904
1122.60 0.1185563
1122.70 0.1185221
1122.80 0.118488
1122.90 0.1184539
1123.00 0.1184198
1123.10 0.1183857
1123.20 0.1183516
1123.30 0.1183175
1123.40 0.1182834
1123.50 0.1182494
1123.60 0.1182153
1123.70 0.1181813
1123.80 0.1181472
1123.90 0.1181132
1124.00 0.1180792
1124.10 0.1180452
1124.20 0.1180112
1124.30 0.1179773
1124.40 0.1179433
1124.50 0.1179093
1124.60 0.1178754
1124.70 0.1178414
1124.80 0.1178075
1124.90 0.1177736
1125.00 0.1177397
1125.10 0.1177058
1125.20 0.1176719
1125.30 0.117638
1125.40 0.1176042
1125.50 0.1175703
1125.60 0.1175365
1125.70 0.1175026
1125.80 0.1174688
1125.90 0.117435
1126.00 0.1174012
1126.10 0.1173674
1126.20 0.1173336
1126.30 0.1172998
1126.40 0.1172661
1126.50 0.1172323
1126.60 0.1171986
1126.70 0.1171649
1126.80 0.1171311
1126.90 0.1170974
1127.00 0.1170637
1127.10 0.11703
1127.20 0.1169963
1127.30 0.1169627
1127.40 0.116929
1127.50 0.1168954
1127.60 0.1168617
1127.70 0.1168281
1127.80 0.1167945
1127.90 0.1167608
1128.00 0.1167278
1128.10 0.1166948
1128.20 0.1166619
1128.30 0.116629
1128.40 0.1165961
1128.50 0.1165632
1128.60 0.1165303
1128.70 0.1164975
1128.80 0.1164646
1128.90 0.1164317
1129.00 0.1163989
1129.10 0.1163661
1129.20 0.1163333
1129.30 0.1163004
1129.40 0.1162676
1129.50 0.1162348
1129.60 0.1162021
1129.70 0.1161693
1129.80 0.1161365
1129.90 0.1161038
1130.00 0.116071
1130.10 0.1160383
1130.20 0.1160056
1130.30 0.1159729
1130.40 0.1159402
1130.50 0.1159075
1130.60 0.1158748
1130.70 0.1158421
1130.80 0.1158094
1130.90 0.1157768
1131.00 0.1157441
1131.10 0.1157115
1131.20 0.1156789
1131.30 0.1156463
1131.40 0.1156137
1131.50 0.1155811
1131.60 0.1155485
1131.70 0.1155159
1131.80 0.1154833
1131.90 0.1154508
1132.00 0.1154182
1132.10 0.1153857
1132.20 0.1153532
1132.30 0.1153206
1132.40 0.1152881
1132.50 0.1152556
1132.60 0.1152231
1132.70 0.1151907
1132.80 0.1151582
1132.90 0.1151257
1133.00 0.1150933
1133.10 0.1150608
1133.20 0.1150284
1133.30 0.114996
1133.40 0.1149636
1133.50 0.1149312
1133.60 0.1148988
1133.70 0.1148664
1133.80 0.114834
1133.90 0.1148016
1134.00 0.1147693
1134.10 0.1147369
1134.20 0.1147046
1134.30 0.1146723
1134.40 0.11464
1134.50 0.1146077
1134.60 0.1145754
1134.70 0.1145431
1134.80 0.1145108
1134.90 0.1144785
1135.00 0.1144463
1135.10 0.114414
1135.20 0.1143818
1135.30 0.1143495
1135.40 0.1143173
1135.50 0.1142851
1135.60 0.1142529
1135.70 0.1142207
1135.80 0.1141885
1135.90 0.1141564
1136.00 0.1141242
1136.10 0.114092
1136.20 0.1140599
1136.30 0.1140278
1136.40 0.1139956
1136.50 0.1139635
1136.60 0.1139314
1136.70 0.1138993
1136.80 0.1138672
1136.90 0.1138352
1137.00 0.1138031
1137.10 0.113771
1137.20 0.113739
1137.30 0.1137069
1137.40 0.1136749
1137.50 0.1136429
1137.60 0.1136109
1137.70 0.1135789
1137.80 0.1135469
1137.90 0.1135149
1138.00 0.1134829
1138.10 0.113451
1138.20 0.113419
1138.30 0.1133871
1138.40 0.1133551
1138.50 0.1133232
1138.60 0.1132913
1138.70 0.1132594
1138.80 0.1132275
1138.90 0.1131956
1139.00 0.1131637
1139.10 0.1131319
1139.20 0.1131
1139.30 0.1130678
1139.40 0.1130355
1139.50 0.1130033
1139.60 0.1129711
1139.70 0.1129389
1139.80 0.1129067
1139.90 0.1128745
1140.00 0.1128423
1140.10 0.1128101
1140.20 0.112778
1140.30 0.1127458
1140.40 0.1127137
1140.50 0.1126815
1140.60 0.1126494
1140.70 0.1126173
1140.80 0.1125852
1140.90 0.1125531
1141.00 0.112521
1141.10 0.1124889
1141.20 0.1124569
1141.30 0.1124248
1141.40 0.1123928
1141.50 0.1123607
1141.60 0.1123287
1141.70 0.1122967
1141.80 0.1122647
1141.90 0.1122327
1142.00 0.1122007
1142.10 0.1121687
1142.20 0.1121367
1142.30 0.1121047
1142.40 0.1120728
1142.50 0.1120409
1142.60 0.1120089
1142.70 0.111977
1142.80 0.1119451
1142.90 0.1119132
1143.00 0.1118813
1143.10 0.1118494
1143.20 0.1118175
1143.30 0.1117856
1143.40 0.1117538
1143.50 0.1117219
1143.60 0.1116901
1143.70 0.1116583
1143.80 0.1116264
1143.90 0.1115946
1144.00 0.1115628
1144.10 0.111531
1144.20 0.1114993
1144.30 0.1114675
1144.40 0.1114357
1144.50 0.111404
1144.60 0.1113722
1144.70 0.1113405
1144.80 0.1113088
1144.90 0.111277
1145.00 0.1112453
1145.10 0.1112136
1145.20 0.1111819
1145.30 0.1111503
1145.40 0.1111186
1145.50 0.1110869
1145.60 0.1110553
1145.70 0.1110236
1145.80 0.110992
1145.90 0.1109604
1146.00 0.1109288
1146.10 0.1108972
1146.20 0.1108656
1146.30 0.110834
1146.40 0.1108024
1146.50 0.1107708
1146.60 0.1107393
1146.70 0.1107077
1146.80 0.1106762
1146.90 0.1106447
1147.00 0.1106131
1147.10 0.1105816
1147.20 0.1105501
1147.30 0.1105186
1147.40 0.1104871
1147.50 0.1104557
1147.60 0.1104242
1147.70 0.1103927
1147.80 0.1103613
1147.90 0.1103299
1148.00 0.1102984
1148.10 0.110267
1148.20 0.1102356
1148.30 0.1102042
1148.40 0.1101728
1148.50 0.1101414
1148.60 0.1101101
1148.70 0.1100787
1148.80 0.1100473
1148.90 0.110016
1149.00 0.1099847
1149.10 0.1099533
1149.20 0.109922
1149.30 0.1098907
1149.40 0.1098594
1149.50 0.1098281
1149.60 0.1097968
1149.70 0.1097656
1149.80 0.1097343
1149.90 0.1097031
1150.00 0.1096718
1150.10 0.1096406
1150.20 0.1096094
1150.30 0.1095781
1150.40 0.1095469
1150.50 0.1095157
1150.60 0.1094846
1150.70 0.1094546
1150.80 0.1094245
1150.90 0.1093945
1151.00 0.1093644
1151.10 0.1093344
1151.20 0.1093044
1151.30 0.1092744
1151.40 0.1092444
1151.50 0.1092144
1151.60 0.1091844
1151.70 0.1091545
1151.80 0.1091245
1151.90 0.1090945
1152.00 0.1090646
1152.10 0.1090347
1152.20 0.1090047
1152.30 0.1089748
1152.40 0.1089449
1152.50 0.108915
1152.60 0.1088851
1152.70 0.1088552
1152.80 0.1088254
1152.90 0.1087955
1153.00 0.1087656
1153.10 0.1087358
1153.20 0.108706
1153.30 0.1086761
1153.40 0.1086463
1153.50 0.1086165
1153.60 0.1085867
1153.70 0.1085569
1153.80 0.1085271
1153.90 0.1084973
1154.00 0.1084676
1154.10 0.1084378
1154.20 0.108408
1154.30 0.1083783
1154.40 0.1083486
1154.50 0.1083188
1154.60 0.1082891
1154.70 0.1082594
1154.80 0.1082297
1154.90 0.1082
1155.00 0.1081703
1155.10 0.1081407
1155.20 0.108111
1155.30 0.1080813
1155.40 0.1080517
1155.50 0.1080221
1155.60 0.1079924
1155.70 0.1079628
1155.80 0.1079332
1155.90 0.1079036
1156.00 0.107874
1156.10 0.1078444
1156.20 0.1078148
1156.30 0.1077853
1156.40 0.1077552
1156.50 0.1077246
1156.60 0.1076941
1156.70 0.1076636
1156.80 0.107633
1156.90 0.1076025
1157.00 0.107572
1157.10 0.1075416
1157.20 0.1075111
1157.30 0.1074806
1157.40 0.1074501
1157.50 0.1074197
1157.60 0.1073892
1157.70 0.1073588
1157.80 0.1073284
1157.90 0.107298
1158.00 0.1072676
1158.10 0.1072372
1158.20 0.1072068
1158.30 0.1071764
1158.40 0.107146
1158.50 0.1071157
1158.60 0.1070853
1158.70 0.107055
1158.80 0.1070246
1158.90 0.1069943
1159.00 0.106964
1159.10 0.1069337
1159.20 0.1069034
1159.30 0.1068731
1159.40 0.1068428
1159.50 0.1068125
1159.60 0.1067822
1159.70 0.106752
1159.80 0.1067217
1159.90 0.1066915
1160.00 0.1066613
1160.10 0.1066311
1160.20 0.1066008
1160.30 0.1065706
1160.40 0.1065404
1160.50 0.1065103
1160.60 0.1064801
1160.70 0.1064499
1160.80 0.1064198
1160.90 0.1063896
1161.00 0.1063595
1161.10 0.1063293
1161.20 0.1062992
1161.30 0.1062691
1161.40 0.106239
1161.50 0.1062089
1161.60 0.1061788
1161.70 0.1061487
1161.80 0.1061186
1161.90 0.1060886
1162.00 0.1060585
1162.10 0.1060285
1162.20 0.1059986
1162.30 0.1059686
1162.40 0.1059387
1162.50 0.1059088
1162.60 0.1058789
1162.70 0.1058491
1162.80 0.1058192
1162.90 0.1057893
1163.00 0.1057595
1163.10 0.1057296
1163.20 0.1056998
1163.30 0.10567
1163.40 0.1056402
1163.50 0.1056103
1163.60 0.1055805
1163.70 0.1055508
1163.80 0.105521
1163.90 0.1054912
1164.00 0.1054614
1164.10 0.1054317
1164.20 0.1054019
1164.30 0.1053722
1164.40 0.1053425
1164.50 0.1053127
1164.60 0.105283
1164.70 0.1052533
1164.80 0.1052236
1164.90 0.1051939
1165.00 0.1051642
1165.10 0.1051346
1165.20 0.1051049
1165.30 0.1050753
1165.40 0.1050456
1165.50 0.105016
1165.60 0.1049863
1165.70 0.1049567
1165.80 0.1049271
1165.90 0.1048975
1166.00 0.1048679
1166.10 0.1048383
1166.20 0.1048088
1166.30 0.1047792
1166.40 0.1047496
1166.50 0.1047201
1166.60 0.1046905
1166.70 0.104661
1166.80 0.1046315
1166.90 0.104602
1167.00 0.1045725
1167.10 0.104543
1167.20 0.1045135
1167.30 0.104484
1167.40 0.1044545
1167.50 0.104425
1167.60 0.1043956
1167.70 0.1043661
1167.80 0.1043367
1167.90 0.1043073
1168.00 0.1042787
1168.10 0.1042503
1168.20 0.1042218
1168.30 0.1041934
1168.40 0.104165
1168.50 0.1041366
1168.60 0.1041082
1168.70 0.1040798
1168.80 0.1040514
1168.90 0.104023
1169.00 0.1039946
1169.10 0.1039662
1169.20 0.1039379
1169.30 0.1039095
1169.40 0.1038812
1169.50 0.1038529
1169.60 0.1038245
1169.70 0.1037962
1169.80 0.1037679
1169.90 0.1037396
1170.00 0.1037113
1170.10 0.103683
1170.20 0.1036548
1170.30 0.1036265
1170.40 0.1035982
1170.50 0.10357
1170.60 0.1035417
1170.70 0.1035135
1170.80 0.1034853
1170.90 0.103457
1171.00 0.1034288
1171.10 0.1034006
1171.20 0.1033724
1171.30 0.1033442
1171.40 0.1033161
1171.50 0.1032879
1171.60 0.1032597
1171.70 0.1032316
1171.80 0.1032034
1171.90 0.1031753
1172.00 0.1031472
1172.10 0.103119
1172.20 0.1030909
1172.30 0.1030628
1172.40 0.1030347
1172.50 0.1030066
1172.60 0.1029786
1172.70 0.1029505
1172.80 0.1029224
1172.90 0.1028944
1173.00 0.1028663
1173.10 0.1028383
1173.20 0.1028102
1173.30 0.1027822
1173.40 0.1027542
1173.50 0.1027262
1173.60 0.1026982
1173.70 0.1026702
1173.80 0.1026415
1173.90 0.1026127
1174.00 0.1025839
1174.10 0.1025551
1174.20 0.1025263
1174.30 0.1024975
1174.40 0.1024687
1174.50 0.10244
1174.60 0.1024112
1174.70 0.1023825
1174.80 0.1023537
1174.90 0.102325
1175.00 0.1022963
1175.10 0.1022675
1175.20 0.1022388
1175.30 0.1022101
1175.40 0.1021814
1175.50 0.1021527
1175.60 0.1021241
1175.70 0.1020954
1175.80 0.1020667
1175.90 0.1020381
1176.00 0.1020094
1176.10 0.1019808
1176.20 0.1019522
1176.30 0.1019235
1176.40 0.1018949
1176.50 0.1018663
1176.60 0.1018377
1176.70 0.1018091
1176.80 0.1017806
1176.90 0.101752
1177.00 0.1017234
1177.10 0.1016949
1177.20 0.1016663
1177.30 0.1016378
1177.40 0.1016093
1177.50 0.1015807
1177.60 0.1015522
1177.70 0.1015237
1177.80 0.1014952
1177.90 0.1014667
1178.00 0.1014383
1178.10 0.1014098
1178.20 0.1013813
1178.30 0.1013529
1178.40 0.1013244
1178.50 0.101296
1178.60 0.1012676
1178.70 0.1012391
1178.80 0.1012107
1178.90 0.1011823
1179.00 0.1011539
1179.10 0.1011255
1179.20 0.1010971
1179.30 0.1010688
1179.40 0.1010404
1179.50 0.101012
1179.60 0.1009838
1179.70 0.1009564
1179.80 0.100929
1179.90 0.1009016
1180.00 0.1008742
1180.10 0.1008469
1180.20 0.1008195
1180.30 0.1007921
1180.40 0.1007648
1180.50 0.1007374
1180.60 0.1007101
1180.70 0.1006828
1180.80 0.1006555
1180.90 0.1006281
1181.00 0.1006008
1181.10 0.1005736
1181.20 0.1005463
1181.30 0.100519
1181.40 0.1004917
1181.50 0.1004645
1181.60 0.1004372
1181.70 0.1004099
1181.80 0.1003827
1181.90 0.1003555
1182.00 0.1003282
1182.10 0.100301
1182.20 0.1002738
1182.30 0.1002466
1182.40 0.1002194
1182.50 0.1001922
1182.60 0.1001651
1182.70 0.1001379
1182.80 0.1001107
1182.90 0.1000836
1183.00 0.1000564
1183.10 0.1000293
1183.20 0.1000022
1183.30 0.09997504
1183.40 0.09994792
1183.50 0.09992081
1183.60 0.09989371
1183.70 0.09986662
1183.80 0.09983953
1183.90 0.09981245
1184.00 0.09978538
1184.10 0.09975832
1184.20 0.09973127
1184.30 0.09970422
1184.40 0.09967718
1184.50 0.09965015
1184.60 0.09962313
1184.70 0.09959611
1184.80 0.09956911
1184.90 0.0995421
1185.00 0.09951511
1185.10 0.09948813
1185.20 0.09946115
1185.30 0.09943418
1185.40 0.09940722
1185.50 0.09937992
1185.60 0.09935216
1185.70 0.0993244
1185.80 0.09929666
1185.90 0.09926892
1186.00 0.09924118
1186.10 0.09921346
1186.20 0.09918574
1186.30 0.09915804
1186.40 0.09913034
1186.50 0.09910264
1186.60 0.09907496
1186.70 0.09904728
1186.80 0.09901962
1186.90 0.09899196
1187.00 0.0989643
1187.10 0.09893666
1187.20 0.09890902
1187.30 0.09888139
1187.40 0.09885377
1187.50 0.09882616
1187.60 0.09879856
1187.70 0.09877096
1187.80 0.09874337
1187.90 0.09871579
1188.00 0.09868822
1188.10 0.09866065
1188.20 0.09863309
1188.30 0.09860554
1188.40 0.098578
1188.50 0.09855047
1188.60 0.09852294
1188.70 0.09849542
1188.80 0.09846791
1188.90 0.09844041
1189.00 0.09841291
1189.10 0.09838543
1189.20 0.09835795
1189.30 0.09833048
1189.40 0.09830301
1189.50 0.09827556
1189.60 0.09824811
1189.70 0.09822067
1189.80 0.09819324
1189.90 0.09816582
1190.00 0.0981384
1190.10 0.09811099
1190.20 0.09808359
1190.30 0.0980562
1190.40 0.09802881
1190.50 0.09800144
1190.60 0.09797407
1190.70 0.09794671
1190.80 0.09791935
1190.90 0.09789201
1191.00 0.09786467
1191.10 0.09783734
1191.20 0.09781002
1191.30 0.0977827
1191.40 0.09775553
1191.50 0.09772914
1191.60 0.09770275
1191.70 0.09767638
1191.80 0.09765001
1191.90 0.09762365
1192.00 0.09759729
1192.10 0.09757095
1192.20 0.09754461
1192.30 0.09751828
1192.40 0.09749195
1192.50 0.09746563
1192.60 0.09743932
1192.70 0.09741302
1192.80 0.09738673
1192.90 0.09736044
1193.00 0.09733416
1193.10 0.09730789
1193.20 0.09728163
1193.30 0.09725537
1193.40 0.09722912
1193.50 0.09720288
1193.60 0.09717664
1193.70 0.09715041
1193.80 0.09712419
1193.90 0.09709798
1194.00 0.09707178
1194.10 0.09704558
1194.20 0.09701939
1194.30 0.0969932
1194.40 0.09696703
1194.50 0.09694086
1194.60 0.0969147
1194.70 0.09688855
1194.80 0.0968624
1194.90 0.09683626
1195.00 0.09681013
1195.10 0.09678401
1195.20 0.09675789
1195.30 0.09673178
1195.40 0.09670568
1195.50 0.09667958
1195.60 0.0966535
1195.70 0.09662742
1195.80 0.09660135
1195.90 0.09657528
1196.00 0.09654922
1196.10 0.09652317
1196.20 0.09649713
1196.30 0.0964711
1196.40 0.09644507
1196.50 0.09641905
1196.60 0.09639303
1196.70 0.09636703
1196.80 0.09634103
1196.90 0.09631504
1197.00 0.09628905
1197.10 0.09626308
1197.20 0.09623711
1197.30 0.09621115
1197.40 0.0961845
1197.50 0.09615776
1197.60 0.09613103
1197.70 0.09610431
1197.80 0.09607759
1197.90 0.09605088
1198.00 0.09602418
1198.10 0.09599749
1198.20 0.09597081
1198.30 0.09594413
1198.40 0.09591746
1198.50 0.0958908
1198.60 0.09586415
1198.70 0.0958375
1198.80 0.09581086
1198.90 0.09578423
1199.00 0.0957576
1199.10 0.09573099
1199.20 0.09570438
1199.30 0.09567778
1199.40 0.09565118
1199.50 0.0956246
1199.60 0.09559802
1199.70 0.09557145
1199.80 0.09554488
1199.90 0.09551833
1200.00 0.09549178
