# Version 2.1 - nm, norm@500 to 1, cut digits, bergeron_He_7500_80.dat_7500
# Wavelength(nm)  Flambda(ergs/cm^s/s/nm)
300.00 1.136654
300.10 1.137051
300.20 1.137447
300.30 1.137841
300.40 1.138232
300.50 1.138622
300.60 1.139011
300.70 1.139399
300.80 1.139787
300.90 1.140174
301.00 1.14056
301.10 1.140945
301.20 1.141329
301.30 1.141713
301.40 1.142096
301.50 1.142478
301.60 1.14286
301.70 1.143241
301.80 1.14362
301.90 1.144
302.00 1.144378
302.10 1.144766
302.20 1.145153
302.30 1.14554
302.40 1.145927
302.50 1.146312
302.60 1.146697
302.70 1.147081
302.80 1.147464
302.90 1.147847
303.00 1.148228
303.10 1.148609
303.20 1.148989
303.30 1.149368
303.40 1.149739
303.50 1.150108
303.60 1.150477
303.70 1.150846
303.80 1.151213
303.90 1.15158
304.00 1.151946
304.10 1.152311
304.20 1.152676
304.30 1.15304
304.40 1.153403
304.50 1.153766
304.60 1.154129
304.70 1.154492
304.80 1.154854
304.90 1.155216
305.00 1.155576
305.10 1.155936
305.20 1.156296
305.30 1.156654
305.40 1.157012
305.50 1.157369
305.60 1.157726
305.70 1.158082
305.80 1.158437
305.90 1.158791
306.00 1.159145
306.10 1.159497
306.20 1.15985
306.30 1.160201
306.40 1.160551
306.50 1.160901
306.60 1.16125
306.70 1.161598
306.80 1.161945
306.90 1.162292
307.00 1.162638
307.10 1.162983
307.20 1.163327
307.30 1.163671
307.40 1.164014
307.50 1.164357
307.60 1.164699
307.70 1.16504
307.80 1.16538
307.90 1.16572
308.00 1.166059
308.10 1.166397
308.20 1.166735
308.30 1.167072
308.40 1.167408
308.50 1.167744
308.60 1.168079
308.70 1.168413
308.80 1.168743
308.90 1.169065
309.00 1.169394
309.10 1.169722
309.20 1.17005
309.30 1.170377
309.40 1.170703
309.50 1.17102
309.60 1.171336
309.70 1.171652
309.80 1.171967
309.90 1.172281
310.00 1.172595
310.10 1.172908
310.20 1.173221
310.30 1.173533
310.40 1.173842
310.50 1.174149
310.60 1.174455
310.70 1.17476
310.80 1.175065
310.90 1.175369
311.00 1.175688
311.10 1.176006
311.20 1.176323
311.30 1.176638
311.40 1.176948
311.50 1.177257
311.60 1.177565
311.70 1.177872
311.80 1.178179
311.90 1.178486
312.00 1.178791
312.10 1.179096
312.20 1.17941
312.30 1.179729
312.40 1.18004
312.50 1.180383
312.60 1.180697
312.70 1.181011
312.80 1.181323
312.90 1.181625
313.00 1.181915
313.10 1.182204
313.20 1.182492
313.30 1.182782
313.40 1.183077
313.50 1.183372
313.60 1.183666
313.70 1.183959
313.80 1.184252
313.90 1.184544
314.00 1.184835
314.10 1.185117
314.20 1.185399
314.30 1.185681
314.40 1.185961
314.50 1.186242
314.60 1.186521
314.70 1.1868
314.80 1.187101
314.90 1.187445
315.00 1.18777
315.10 1.188055
315.20 1.18834
315.30 1.188624
315.40 1.188907
315.50 1.18919
315.60 1.189473
315.70 1.18973
315.80 1.189987
315.90 1.190244
316.00 1.1905
316.10 1.190827
316.20 1.191154
316.30 1.191336
316.40 1.191662
316.50 1.191915
316.60 1.192167
316.70 1.192419
316.80 1.192671
316.90 1.192957
317.00 1.193243
317.10 1.193529
317.20 1.193814
317.30 1.194047
317.40 1.194295
317.50 1.194582
317.60 1.194868
317.70 1.195154
317.80 1.195439
317.90 1.195718
318.00 1.195913
318.10 1.196192
318.20 1.196471
318.30 1.19675
318.40 1.197018
318.50 1.19726
318.60 1.19752
318.70 1.19769
318.80 1.198008
318.90 1.198311
319.00 1.19848
319.10 1.198789
319.20 1.199084
319.30 1.199342
319.40 1.199599
319.50 1.199856
319.60 1.200031
319.70 1.200286
319.80 1.200541
319.90 1.200796
320.00 1.20104
320.10 1.201273
320.20 1.201566
320.30 1.201841
320.40 1.202059
320.50 1.202304
320.60 1.202571
320.70 1.202801
320.80 1.20303
320.90 1.203259
321.00 1.203487
321.10 1.203715
321.20 1.20401
321.30 1.20425
321.40 1.204489
321.50 1.204728
321.60 1.204966
321.70 1.205204
321.80 1.205419
321.90 1.205609
322.00 1.205927
322.10 1.206162
322.20 1.206397
322.30 1.206631
322.40 1.206864
322.50 1.207097
322.60 1.207329
322.70 1.207561
322.80 1.207716
322.90 1.207949
323.00 1.208181
323.10 1.208413
323.20 1.208645
323.30 1.208876
323.40 1.209106
323.50 1.209336
323.60 1.209566
323.70 1.209794
323.80 1.210023
323.90 1.210251
324.00 1.210457
324.10 1.210663
324.20 1.210868
324.30 1.2111
324.40 1.211359
324.50 1.211567
324.60 1.211775
324.70 1.211983
324.80 1.21219
324.90 1.212396
325.00 1.212602
325.10 1.212808
325.20 1.213027
325.30 1.213277
325.40 1.213526
325.50 1.213743
325.60 1.213922
325.70 1.214099
325.80 1.214276
325.90 1.214473
326.00 1.214691
326.10 1.214909
326.20 1.215126
326.30 1.215343
326.40 1.215564
326.50 1.215768
326.60 1.215972
326.70 1.216175
326.80 1.216378
326.90 1.21658
327.00 1.216782
327.10 1.216983
327.20 1.217184
327.30 1.217384
327.40 1.217584
327.50 1.217783
327.60 1.217982
327.70 1.218181
327.80 1.218379
327.90 1.218561
328.00 1.218747
328.10 1.218955
328.20 1.219163
328.30 1.21937
328.40 1.219577
328.50 1.219745
328.60 1.219905
328.70 1.220063
328.80 1.220231
328.90 1.220424
329.00 1.220617
329.10 1.220809
329.20 1.221001
329.30 1.221193
329.40 1.221384
329.50 1.221574
329.60 1.221765
329.70 1.221954
329.80 1.222144
329.90 1.222332
330.00 1.222522
330.10 1.222713
330.20 1.222904
330.30 1.223094
330.40 1.223274
330.50 1.223442
330.60 1.223609
330.70 1.223776
330.80 1.223943
330.90 1.224109
331.00 1.224275
331.10 1.22444
331.20 1.224605
331.30 1.22477
331.40 1.224934
331.50 1.225118
331.60 1.225325
331.70 1.225532
331.80 1.225705
331.90 1.225876
332.00 1.226046
332.10 1.226216
332.20 1.226386
332.30 1.226555
332.40 1.226723
332.50 1.226891
332.60 1.227059
332.70 1.227227
332.80 1.227394
332.90 1.22756
333.00 1.227726
333.10 1.227888
333.20 1.228046
333.30 1.228204
333.40 1.228361
333.50 1.228517
333.60 1.228673
333.70 1.228829
333.80 1.228984
333.90 1.229139
334.00 1.229294
334.10 1.229444
334.20 1.229589
334.30 1.229734
334.40 1.229878
334.50 1.230022
334.60 1.230165
334.70 1.230303
334.80 1.23044
334.90 1.230587
335.00 1.230733
335.10 1.230972
335.20 1.231135
335.30 1.231198
335.40 1.231423
335.50 1.231521
335.60 1.231666
335.70 1.231813
335.80 1.231973
335.90 1.232119
336.00 1.232246
336.10 1.232373
336.20 1.2325
336.30 1.23264
336.40 1.232798
336.50 1.232955
336.60 1.233112
336.70 1.233269
336.80 1.233425
336.90 1.233563
337.00 1.233678
337.10 1.233793
337.20 1.233907
337.30 1.234031
337.40 1.23417
337.50 1.234308
337.60 1.234446
337.70 1.234583
337.80 1.23472
337.90 1.234851
338.00 1.234975
338.10 1.235099
338.20 1.235223
338.30 1.235346
338.40 1.235471
338.50 1.235605
338.60 1.235737
338.70 1.23587
338.80 1.236002
338.90 1.236134
339.00 1.236265
339.10 1.236396
339.20 1.236526
339.30 1.236645
339.40 1.236745
339.50 1.236856
339.60 1.236979
339.70 1.237102
339.80 1.237225
339.90 1.237348
340.00 1.23747
340.10 1.237592
340.20 1.237713
340.30 1.237834
340.40 1.237955
340.50 1.238076
340.60 1.238196
340.70 1.238315
340.80 1.238373
340.90 1.238342
341.00 1.238416
341.10 1.238618
341.20 1.238819
341.30 1.23902
341.40 1.239221
341.50 1.239421
341.60 1.23962
341.70 1.23982
341.80 1.239994
341.90 1.240138
342.00 1.240282
342.10 1.240425
342.20 1.240394
342.30 1.240377
342.40 1.240512
342.50 1.240611
342.60 1.24071
342.70 1.240809
342.80 1.240907
342.90 1.241005
343.00 1.241006
343.10 1.240888
343.20 1.24077
343.30 1.240652
343.40 1.240703
343.50 1.240997
343.60 1.241291
343.70 1.241584
343.80 1.241877
343.90 1.242169
344.00 1.242295
344.10 1.242181
344.20 1.242067
344.30 1.241952
344.40 1.242087
344.50 1.242579
344.60 1.242573
344.70 1.242488
344.80 1.242343
344.90 1.242833
345.00 1.242608
345.10 1.243097
345.20 1.243424
345.30 1.24352
345.40 1.243615
345.50 1.243344
345.60 1.242954
345.70 1.243038
345.80 1.243121
345.90 1.243205
346.00 1.243288
346.10 1.243371
346.20 1.24347
346.30 1.243592
346.40 1.243714
346.50 1.243836
346.60 1.243957
346.70 1.244078
346.80 1.244198
346.90 1.244318
347.00 1.244438
347.10 1.244557
347.20 1.244668
347.30 1.244766
347.40 1.244864
347.50 1.244961
347.60 1.245058
347.70 1.245155
347.80 1.245251
347.90 1.245347
348.00 1.245443
348.10 1.245539
348.20 1.245634
348.30 1.245729
348.40 1.245823
348.50 1.245917
348.60 1.246011
348.70 1.246157
348.80 1.246251
348.90 1.246246
349.00 1.246241
349.10 1.246236
349.20 1.246231
349.30 1.246225
349.40 1.246219
349.50 1.246214
349.60 1.246207
349.70 1.246201
349.80 1.246195
349.90 1.246188
350.00 1.246181
350.10 1.246174
350.20 1.246167
350.30 1.246219
350.40 1.246356
350.50 1.246494
350.60 1.24663
350.70 1.246767
350.80 1.246903
350.90 1.247039
351.00 1.247175
351.10 1.24731
351.20 1.247444
351.30 1.247579
351.40 1.24769
351.50 1.247761
351.60 1.247832
351.70 1.247903
351.80 1.247973
351.90 1.248043
352.00 1.248113
352.10 1.248182
352.20 1.248252
352.30 1.24829
352.40 1.24828
352.50 1.248271
352.60 1.248261
352.70 1.248251
352.80 1.248241
352.90 1.24823
353.00 1.24822
353.10 1.248209
353.20 1.248198
353.30 1.248187
353.40 1.248175
353.50 1.248231
353.60 1.248303
353.70 1.248375
353.80 1.248446
353.90 1.248515
354.00 1.24858
354.10 1.248645
354.20 1.248709
354.30 1.248773
354.40 1.248837
354.50 1.2489
354.60 1.248963
354.70 1.249026
354.80 1.249094
354.90 1.249167
355.00 1.249241
355.10 1.249314
355.20 1.249387
355.30 1.249477
355.40 1.249567
355.50 1.249657
355.60 1.249747
355.70 1.249627
355.80 1.249413
355.90 1.249023
356.00 1.24895
356.10 1.249035
356.20 1.24912
356.30 1.249204
356.40 1.249288
356.50 1.249372
356.60 1.249455
356.70 1.249538
356.80 1.249621
356.90 1.249703
357.00 1.249785
357.10 1.249867
357.20 1.249949
357.30 1.25003
357.40 1.250072
357.50 1.250043
357.60 1.250014
357.70 1.249985
357.80 1.249798
357.90 1.24961
358.00 1.249617
358.10 1.249672
358.20 1.249726
358.30 1.249781
358.40 1.249835
358.50 1.249888
358.60 1.249942
358.70 1.249995
358.80 1.250049
358.90 1.250101
359.00 1.250065
359.10 1.249869
359.20 1.249733
359.30 1.249995
359.40 1.250256
359.50 1.250388
359.60 1.250488
359.70 1.250587
359.80 1.250314
359.90 1.25004
360.00 1.249913
360.10 1.250045
360.20 1.250178
360.30 1.25031
360.40 1.250442
360.50 1.250573
360.60 1.250187
360.70 1.250324
360.80 1.25046
360.90 1.250596
361.00 1.250434
361.10 1.250355
361.20 1.250153
361.30 1.250564
361.40 1.249872
361.50 1.250282
361.60 1.249987
361.70 1.250396
361.80 1.250563
361.90 1.250302
362.00 1.25004
362.10 1.250045
362.20 1.250103
362.30 1.250134
362.40 1.250166
362.50 1.250197
362.60 1.250228
362.70 1.25029
362.80 1.250087
362.90 1.249942
363.00 1.249797
363.10 1.250101
363.20 1.25041
363.30 1.249921
363.40 1.250323
363.50 1.250725
363.60 1.250037
363.70 1.249954
363.80 1.24975
363.90 1.24984
364.00 1.24993
364.10 1.250019
364.20 1.250108
364.30 1.250058
364.40 1.249975
364.50 1.25038
364.60 1.250413
364.70 1.250447
364.80 1.25048
364.90 1.250335
365.00 1.250191
365.10 1.250046
365.20 1.249901
365.30 1.250296
365.40 1.249611
365.50 1.250005
365.60 1.250399
365.70 1.250204
365.80 1.25001
365.90 1.249902
366.00 1.249816
366.10 1.249925
366.20 1.250034
366.30 1.250142
366.40 1.25025
366.50 1.249624
366.60 1.250013
366.70 1.250142
366.80 1.250271
366.90 1.250316
367.00 1.250212
367.10 1.250107
367.20 1.250002
367.30 1.249897
367.40 1.249793
367.50 1.249701
367.60 1.249613
367.70 1.249494
367.80 1.249375
367.90 1.249255
368.00 1.249556
368.10 1.249408
368.20 1.249418
368.30 1.249435
368.40 1.249452
368.50 1.249469
368.60 1.249485
368.70 1.249502
368.80 1.249518
368.90 1.249284
369.00 1.249074
369.10 1.248981
369.20 1.249367
369.30 1.249394
369.40 1.249421
369.50 1.249448
369.60 1.249296
369.70 1.249144
369.80 1.249037
369.90 1.248931
370.00 1.248824
370.10 1.248553
370.20 1.248918
370.30 1.249294
370.40 1.24863
370.50 1.249004
370.60 1.248828
370.70 1.248705
370.80 1.248552
370.90 1.2484
371.00 1.248252
371.10 1.248105
371.20 1.248472
371.30 1.248839
371.40 1.248386
371.50 1.248297
371.60 1.248208
371.70 1.248118
371.80 1.248029
371.90 1.247939
372.00 1.248612
372.10 1.248683
372.20 1.248532
372.30 1.248381
372.40 1.248229
372.50 1.248078
372.60 1.247927
372.70 1.247775
372.80 1.247621
372.90 1.247467
373.00 1.247833
373.10 1.248204
373.20 1.248051
373.30 1.247899
373.40 1.247747
373.50 1.247595
373.60 1.247443
373.70 1.247291
373.80 1.247654
373.90 1.246987
374.00 1.247092
374.10 1.247197
374.20 1.247301
374.30 1.247406
374.40 1.247381
374.50 1.2471
374.60 1.246943
374.70 1.246792
374.80 1.24664
374.90 1.246489
375.00 1.246506
375.10 1.246524
375.20 1.246541
375.30 1.246461
375.40 1.246381
375.50 1.246301
375.60 1.24622
375.70 1.24614
375.80 1.246059
375.90 1.245978
376.00 1.246324
376.10 1.24633
376.20 1.246332
376.30 1.246334
376.40 1.246336
376.50 1.246212
376.60 1.245901
376.70 1.245589
376.80 1.245457
376.90 1.245505
377.00 1.245553
377.10 1.2456
377.20 1.245631
377.30 1.245601
377.40 1.245571
377.50 1.24554
377.60 1.24532
377.70 1.245099
377.80 1.244879
377.90 1.244658
378.00 1.245245
378.10 1.245188
378.20 1.245112
378.30 1.245036
378.40 1.24496
378.50 1.244884
378.60 1.244807
378.70 1.244731
378.80 1.244654
378.90 1.244635
379.00 1.24472
379.10 1.244464
379.20 1.244209
379.30 1.244076
379.40 1.244065
379.50 1.244054
379.60 1.244122
379.70 1.244231
379.80 1.244062
379.90 1.243892
380.00 1.243723
380.10 1.243553
380.20 1.243384
380.30 1.243214
380.40 1.243045
380.50 1.242876
380.60 1.243402
380.70 1.2432
380.80 1.242999
380.90 1.242797
381.00 1.242595
381.10 1.242563
381.20 1.242723
381.30 1.242621
381.40 1.242147
381.50 1.242003
381.60 1.241989
381.70 1.24225
381.80 1.242331
381.90 1.242174
382.00 1.242017
382.10 1.24186
382.20 1.2419
382.30 1.241743
382.40 1.241658
382.50 1.24168
382.60 1.241703
382.70 1.241409
382.80 1.241104
382.90 1.241143
383.00 1.241181
383.10 1.241219
383.20 1.241227
383.30 1.241121
383.40 1.241078
383.50 1.24113
383.60 1.240529
383.70 1.240398
383.80 1.240267
383.90 1.240135
384.00 1.240004
384.10 1.239873
384.20 1.239741
384.30 1.23961
384.40 1.239562
384.50 1.239599
384.60 1.239635
384.70 1.23967
384.80 1.239563
384.90 1.239211
385.00 1.239401
385.10 1.239574
385.20 1.239162
385.30 1.239011
385.40 1.238953
385.50 1.238988
385.60 1.239022
385.70 1.239057
385.80 1.239067
385.90 1.238991
386.00 1.238631
386.10 1.238057
386.20 1.238161
386.30 1.238265
386.40 1.237997
386.50 1.237753
386.60 1.237679
386.70 1.238002
386.80 1.237602
386.90 1.237684
387.00 1.237549
387.10 1.237366
387.20 1.237423
387.30 1.237048
387.40 1.237369
387.50 1.237156
387.60 1.237151
387.70 1.236992
387.80 1.236832
387.90 1.236673
388.00 1.236413
388.10 1.236732
388.20 1.236398
388.30 1.236368
388.40 1.236337
388.50 1.236094
388.60 1.235729
388.70 1.235775
388.80 1.235497
388.90 1.235456
389.00 1.235773
389.10 1.235529
389.20 1.235453
389.30 1.234989
389.40 1.234842
389.50 1.234819
389.60 1.234814
389.70 1.234407
389.80 1.234418
389.90 1.234429
390.00 1.23444
390.10 1.23445
390.20 1.234461
390.30 1.234348
390.40 1.234096
390.50 1.233844
390.60 1.233592
390.70 1.23334
390.80 1.233165
390.90 1.233066
391.00 1.233644
391.10 1.23347
391.20 1.2332
391.30 1.232791
391.40 1.232631
391.50 1.232471
391.60 1.232311
391.70 1.232151
391.80 1.231991
391.90 1.232022
392.00 1.232081
392.10 1.231858
392.20 1.231742
392.30 1.231907
392.40 1.231329
392.50 1.231586
392.60 1.231589
392.70 1.231265
392.80 1.231268
392.90 1.231118
393.00 1.230988
393.10 1.230941
393.20 1.230971
393.30 1.230811
393.40 1.230608
393.50 1.229983
393.60 1.230287
393.70 1.230335
393.80 1.230008
393.90 1.229847
394.00 1.229645
394.10 1.229242
394.20 1.229089
394.30 1.229103
394.40 1.229079
394.50 1.229305
394.60 1.229198
394.70 1.229072
394.80 1.228874
394.90 1.228662
395.00 1.228174
395.10 1.228341
395.20 1.228199
395.30 1.228178
395.40 1.228157
395.50 1.227971
395.60 1.227724
395.70 1.227533
395.80 1.22749
395.90 1.227448
396.00 1.227353
396.10 1.226858
396.20 1.226697
396.30 1.227031
396.40 1.22671
396.50 1.226858
396.60 1.226388
396.70 1.226685
396.80 1.226438
396.90 1.226363
397.00 1.225745
397.10 1.225888
397.20 1.225627
397.30 1.225796
397.40 1.225466
397.50 1.225136
397.60 1.224838
397.70 1.224868
397.80 1.224897
397.90 1.22484
398.00 1.224549
398.10 1.224259
398.20 1.224165
398.30 1.224295
398.40 1.224401
398.50 1.223787
398.60 1.223884
398.70 1.223761
398.80 1.223516
398.90 1.223378
399.00 1.223434
399.10 1.222877
399.20 1.222886
399.30 1.222895
399.40 1.222904
399.50 1.222912
399.60 1.222748
399.70 1.222519
399.80 1.222291
399.90 1.222063
400.00 1.221844
400.10 1.221925
400.20 1.221501
400.30 1.221459
400.40 1.221559
400.50 1.221467
400.60 1.221185
400.70 1.221023
400.80 1.220535
400.90 1.220822
401.00 1.220267
401.10 1.2205
401.20 1.220593
401.30 1.220177
401.40 1.219811
401.50 1.219534
401.60 1.219268
401.70 1.219347
401.80 1.219626
401.90 1.219211
402.00 1.219495
402.10 1.218888
402.20 1.219172
402.30 1.218566
402.40 1.218567
402.50 1.218244
402.60 1.218527
402.70 1.217922
402.80 1.218205
402.90 1.217955
403.00 1.217794
403.10 1.217278
403.20 1.21756
403.30 1.216956
403.40 1.217047
403.50 1.217048
403.60 1.216915
403.70 1.216312
403.80 1.216608
403.90 1.216507
404.00 1.21627
404.10 1.215669
404.20 1.215508
404.30 1.215347
404.40 1.215626
404.50 1.215465
404.60 1.215304
404.70 1.214703
404.80 1.214982
404.90 1.214382
405.00 1.21466
405.10 1.214561
405.20 1.214588
405.30 1.214615
405.40 1.214454
405.50 1.214293
405.60 1.214132
405.70 1.21397
405.80 1.213809
405.90 1.213648
406.00 1.213402
406.10 1.213155
406.20 1.212909
406.30 1.212663
406.40 1.212407
406.50 1.21203
406.60 1.212085
406.70 1.211761
406.80 1.211505
406.90 1.21205
407.00 1.211889
407.10 1.211728
407.20 1.211567
407.30 1.211406
407.40 1.211246
407.50 1.211085
407.60 1.210924
407.70 1.210763
407.80 1.210602
407.90 1.210442
408.00 1.210321
408.10 1.210106
408.20 1.209738
408.30 1.209427
408.40 1.209116
408.50 1.209463
408.60 1.209169
408.70 1.208876
408.80 1.208659
408.90 1.208899
409.00 1.208638
409.10 1.208378
409.20 1.208117
409.30 1.207857
409.40 1.207605
409.50 1.207622
409.60 1.207639
409.70 1.207613
409.80 1.207419
409.90 1.207213
410.00 1.206624
410.10 1.206749
410.20 1.20657
410.30 1.206316
410.40 1.20605
410.50 1.205743
410.60 1.205437
410.70 1.205213
410.80 1.205317
410.90 1.205421
411.00 1.205197
411.10 1.204852
411.20 1.204507
411.30 1.20426
411.40 1.204388
411.50 1.204103
411.60 1.203819
411.70 1.203559
411.80 1.203399
411.90 1.203578
412.00 1.203418
412.10 1.20347
412.20 1.203098
412.30 1.202659
412.40 1.202778
412.50 1.202316
412.60 1.202337
412.70 1.202138
412.80 1.201884
412.90 1.201587
413.00 1.201898
413.10 1.201651
413.20 1.201404
413.30 1.201157
413.40 1.20091
413.50 1.200772
413.60 1.200959
413.70 1.200799
413.80 1.200639
413.90 1.200479
414.00 1.200218
414.10 1.199639
414.20 1.199563
414.30 1.199319
414.40 1.199411
414.50 1.199
414.60 1.198522
414.70 1.198363
414.80 1.198203
414.90 1.198044
415.00 1.197885
415.10 1.197725
415.20 1.197591
415.30 1.197534
415.40 1.197477
415.50 1.197414
415.60 1.197136
415.70 1.196859
415.80 1.196642
415.90 1.196614
416.00 1.196586
416.10 1.196528
416.20 1.196352
416.30 1.196176
416.40 1.195999
416.50 1.195824
416.60 1.195664
416.70 1.195493
416.80 1.194919
416.90 1.194791
417.00 1.194601
417.10 1.194041
417.20 1.193882
417.30 1.193728
417.40 1.19374
417.50 1.193752
417.60 1.193647
417.70 1.193088
417.80 1.192929
417.90 1.192771
418.00 1.192612
418.10 1.192453
418.20 1.192295
418.30 1.192124
418.40 1.191661
418.50 1.191538
418.60 1.191415
418.70 1.191291
418.80 1.191168
418.90 1.191045
419.00 1.190921
419.10 1.190798
419.20 1.190675
419.30 1.190547
419.40 1.190268
419.50 1.18999
419.60 1.189709
419.70 1.189418
419.80 1.189128
419.90 1.188867
420.00 1.188701
420.10 1.188534
420.20 1.188368
420.30 1.188202
420.40 1.188035
420.50 1.187869
420.60 1.187703
420.70 1.187536
420.80 1.18737
420.90 1.187201
421.00 1.186929
421.10 1.186657
421.20 1.186429
421.30 1.186328
421.40 1.186228
421.50 1.186128
421.60 1.186027
421.70 1.185927
421.80 1.185826
421.90 1.18571
422.00 1.185544
422.10 1.18535
422.20 1.185044
422.30 1.184737
422.40 1.184434
422.50 1.18424
422.60 1.184046
422.70 1.183853
422.80 1.183659
422.90 1.183465
423.00 1.183272
423.10 1.183078
423.20 1.182885
423.30 1.182691
423.40 1.182498
423.50 1.182304
423.60 1.182111
423.70 1.181918
423.80 1.181725
423.90 1.181532
424.00 1.181338
424.10 1.181145
424.20 1.180952
424.30 1.180759
424.40 1.180491
424.50 1.180339
424.60 1.180186
424.70 1.180034
424.80 1.179881
424.90 1.179728
425.00 1.179576
425.10 1.179423
425.20 1.179271
425.30 1.179118
425.40 1.178954
425.50 1.178716
425.60 1.178478
425.70 1.17824
425.80 1.178002
425.90 1.177765
426.00 1.177527
426.10 1.177289
426.20 1.177052
426.30 1.176814
426.40 1.176577
426.50 1.17634
426.60 1.176103
426.70 1.175866
426.80 1.175629
426.90 1.175394
427.00 1.175218
427.10 1.175042
427.20 1.174867
427.30 1.174691
427.40 1.174516
427.50 1.17434
427.60 1.174165
427.70 1.173989
427.80 1.173814
427.90 1.173639
428.00 1.173463
428.10 1.173288
428.20 1.173113
428.30 1.172937
428.40 1.172762
428.50 1.172587
428.60 1.172412
428.70 1.172237
428.80 1.17206
428.90 1.171858
429.00 1.171656
429.10 1.171454
429.20 1.171252
429.30 1.17105
429.40 1.170848
429.50 1.170646
429.60 1.170444
429.70 1.170243
429.80 1.170041
429.90 1.16984
430.00 1.169638
430.10 1.169437
430.20 1.169235
430.30 1.169034
430.40 1.168833
430.50 1.168632
430.60 1.16843
430.70 1.168229
430.80 1.168028
430.90 1.167828
431.00 1.167627
431.10 1.167426
431.20 1.167225
431.30 1.167022
431.40 1.166791
431.50 1.166559
431.60 1.166328
431.70 1.166096
431.80 1.165865
431.90 1.165634
432.00 1.165403
432.10 1.165172
432.20 1.164941
432.30 1.164711
432.40 1.16448
432.50 1.164249
432.60 1.164019
432.70 1.163788
432.80 1.163558
432.90 1.163328
433.00 1.163098
433.10 1.162868
433.20 1.162638
433.30 1.162409
433.40 1.162205
433.50 1.162
433.60 1.161796
433.70 1.161592
433.80 1.161426
433.90 1.161309
434.00 1.161099
434.10 1.160832
434.20 1.160565
434.30 1.160299
434.40 1.160032
434.50 1.159766
434.60 1.159499
434.70 1.159233
434.80 1.158974
434.90 1.158806
435.00 1.158637
435.10 1.158469
435.20 1.1583
435.30 1.158132
435.40 1.157964
435.50 1.157795
435.60 1.157627
435.70 1.157459
435.80 1.157291
435.90 1.157122
436.00 1.156954
436.10 1.156786
436.20 1.156618
436.30 1.156287
436.40 1.155778
436.50 1.155549
436.60 1.15532
436.70 1.155091
436.80 1.154862
436.90 1.154633
437.00 1.154404
437.10 1.154175
437.20 1.153951
437.30 1.15373
437.40 1.153515
437.50 1.153364
437.60 1.153212
437.70 1.153061
437.80 1.15291
437.90 1.152759
438.00 1.152601
438.10 1.152362
438.20 1.152122
438.30 1.151754
438.40 1.151254
438.50 1.151104
438.60 1.150927
438.70 1.15115
438.80 1.150626
438.90 1.150606
439.00 1.15035
439.10 1.1502
439.20 1.150036
439.30 1.149699
439.40 1.149362
439.50 1.149026
439.60 1.148771
439.70 1.148898
439.80 1.148529
439.90 1.148346
440.00 1.148164
440.10 1.147982
440.20 1.147797
440.30 1.147572
440.40 1.147348
440.50 1.147124
440.60 1.1469
440.70 1.146676
440.80 1.146452
440.90 1.146228
441.00 1.146005
441.10 1.145781
441.20 1.145537
441.30 1.145018
441.40 1.144726
441.50 1.144711
441.60 1.144697
441.70 1.14442
441.80 1.144128
441.90 1.143835
442.00 1.143542
442.10 1.14325
442.20 1.142958
442.30 1.142666
442.40 1.14249
442.50 1.142456
442.60 1.142421
442.70 1.142194
442.80 1.14171
442.90 1.141648
443.00 1.141552
443.10 1.141417
443.20 1.141084
443.30 1.14057
443.40 1.14022
443.50 1.140072
443.60 1.139759
443.70 1.139976
443.80 1.139463
443.90 1.139406
444.00 1.139331
444.10 1.139183
444.20 1.138871
444.30 1.138378
444.40 1.138144
444.50 1.13791
444.60 1.13772
444.70 1.137586
444.80 1.137348
444.90 1.137016
445.00 1.136684
445.10 1.136351
445.20 1.136104
445.30 1.135962
445.40 1.135819
445.50 1.135676
445.60 1.135533
445.70 1.13539
445.80 1.135149
445.90 1.134818
446.00 1.134487
446.10 1.134156
446.20 1.133745
446.30 1.13396
446.40 1.13364
446.50 1.133493
446.60 1.133347
446.70 1.1332
446.80 1.132866
446.90 1.132359
447.00 1.132573
447.10 1.132066
447.20 1.13156
447.30 1.131774
447.40 1.131455
447.50 1.131309
447.60 1.130976
447.70 1.13047
447.80 1.130133
447.90 1.13
448.00 1.129798
448.10 1.129533
448.20 1.129268
448.30 1.129003
448.40 1.128738
448.50 1.128473
448.60 1.128237
448.70 1.128026
448.80 1.127816
448.90 1.127623
449.00 1.12743
449.10 1.127237
449.20 1.127044
449.30 1.126712
449.40 1.126498
449.50 1.126284
449.60 1.126069
449.70 1.125852
449.80 1.125635
449.90 1.125419
450.00 1.125202
450.10 1.124986
450.20 1.124769
450.30 1.124553
450.40 1.12429
450.50 1.124028
450.60 1.123765
450.70 1.123503
450.80 1.12324
450.90 1.122978
451.00 1.122766
451.10 1.122553
451.20 1.122536
451.30 1.122402
451.40 1.122258
451.50 1.122114
451.60 1.121617
451.70 1.121121
451.80 1.12133
451.90 1.120833
452.00 1.12069
452.10 1.120546
452.20 1.120227
452.30 1.119907
452.40 1.119588
452.50 1.119269
452.60 1.119249
452.70 1.119064
452.80 1.118725
452.90 1.118386
453.00 1.118048
453.10 1.117709
453.20 1.117537
453.30 1.117365
453.40 1.117193
453.50 1.117021
453.60 1.116849
453.70 1.116677
453.80 1.116452
453.90 1.116163
454.00 1.115873
454.10 1.115584
454.20 1.115348
454.30 1.115111
454.40 1.114875
454.50 1.114639
454.60 1.114403
454.70 1.114172
454.80 1.113947
454.90 1.113722
455.00 1.113497
455.10 1.113272
455.20 1.113047
455.30 1.112822
455.40 1.112597
455.50 1.112373
455.60 1.112148
455.70 1.111924
455.80 1.111621
455.90 1.11132
456.00 1.111018
456.10 1.110736
456.20 1.110506
456.30 1.110277
456.40 1.110047
456.50 1.109818
456.60 1.109589
456.70 1.10936
456.80 1.109131
456.90 1.108902
457.00 1.108673
457.10 1.108445
457.20 1.108083
457.30 1.107839
457.40 1.107596
457.50 1.107352
457.60 1.107109
457.70 1.106865
457.80 1.106622
457.90 1.106379
458.00 1.106136
458.10 1.105893
458.20 1.105651
458.30 1.105408
458.40 1.105165
458.50 1.104923
458.60 1.104681
458.70 1.104439
458.80 1.104197
458.90 1.103955
459.00 1.103713
459.10 1.103472
459.20 1.10323
459.30 1.102988
459.40 1.102746
459.50 1.102504
459.60 1.102262
459.70 1.10202
459.80 1.101779
459.90 1.101537
460.00 1.101295
460.10 1.101054
460.20 1.100813
460.30 1.100572
460.40 1.10033
460.50 1.10009
460.60 1.099849
460.70 1.099633
460.80 1.099429
460.90 1.099225
461.00 1.099021
461.10 1.098818
461.20 1.098672
461.30 1.09855
461.40 1.098287
461.50 1.097989
461.60 1.097691
461.70 1.097393
461.80 1.097154
461.90 1.096915
462.00 1.096676
462.10 1.096438
462.20 1.096199
462.30 1.095961
462.40 1.095722
462.50 1.095484
462.60 1.095246
462.70 1.095008
462.80 1.09477
462.90 1.094532
463.00 1.094294
463.10 1.094056
463.20 1.09379
463.30 1.093512
463.40 1.093234
463.50 1.092956
463.60 1.092679
463.70 1.092401
463.80 1.092124
463.90 1.09189
464.00 1.091668
464.10 1.091445
464.20 1.091223
464.30 1.091
464.40 1.090778
464.50 1.090556
464.60 1.090334
464.70 1.090091
464.80 1.08984
464.90 1.089589
465.00 1.089339
465.10 1.089088
465.20 1.088838
465.30 1.088594
465.40 1.088356
465.50 1.088117
465.60 1.087879
465.70 1.087641
465.80 1.087403
465.90 1.087111
466.00 1.086807
466.10 1.086503
466.20 1.086198
466.30 1.085968
466.40 1.085767
466.50 1.085566
466.60 1.085365
466.70 1.085164
466.80 1.084964
466.90 1.084763
467.00 1.084563
467.10 1.084362
467.20 1.084162
467.30 1.083774
467.40 1.083518
467.50 1.083313
467.60 1.083109
467.70 1.082904
467.80 1.0827
467.90 1.082428
468.00 1.08213
468.10 1.081832
468.20 1.081534
468.30 1.08112
468.40 1.080658
468.50 1.080853
468.60 1.080392
468.70 1.079931
468.80 1.080125
468.90 1.079664
469.00 1.079204
469.10 1.078976
469.20 1.078843
469.30 1.07871
469.40 1.078578
469.50 1.078313
469.60 1.077995
469.70 1.077677
469.80 1.077359
469.90 1.07703
470.00 1.07705
470.10 1.076859
470.20 1.076534
470.30 1.076209
470.40 1.075884
470.50 1.075559
470.60 1.075258
470.70 1.074964
470.80 1.07467
470.90 1.074376
471.00 1.074428
471.10 1.074145
471.20 1.073689
471.30 1.073881
471.40 1.073426
471.50 1.07297
471.60 1.072774
471.70 1.072643
471.80 1.072382
471.90 1.07209
472.00 1.071797
472.10 1.071504
472.20 1.071286
472.30 1.071086
472.40 1.070886
472.50 1.070686
472.60 1.070486
472.70 1.070107
472.80 1.069809
472.90 1.069549
473.00 1.06929
473.10 1.069031
473.20 1.068772
473.30 1.068513
473.40 1.068255
473.50 1.067996
473.60 1.067738
473.70 1.067479
473.80 1.067193
473.90 1.066899
474.00 1.066606
474.10 1.066312
474.20 1.066105
474.30 1.065932
474.40 1.06576
474.50 1.065588
474.60 1.065406
474.70 1.065133
474.80 1.064859
474.90 1.064586
475.00 1.064313
475.10 1.06404
475.20 1.063767
475.30 1.063494
475.40 1.063271
475.50 1.06306
475.60 1.062849
475.70 1.062638
475.80 1.062427
475.90 1.062216
476.00 1.062005
476.10 1.061795
476.20 1.061548
476.30 1.061286
476.40 1.061024
476.50 1.060762
476.60 1.0605
476.70 1.060239
476.80 1.059977
476.90 1.059709
477.00 1.05944
477.10 1.059171
477.20 1.058902
477.30 1.058633
477.40 1.058364
477.50 1.058095
477.60 1.057826
477.70 1.057558
477.80 1.05729
477.90 1.057021
478.00 1.056753
478.10 1.056485
478.20 1.056218
478.30 1.05595
478.40 1.055682
478.50 1.055415
478.60 1.055148
478.70 1.054991
478.80 1.054879
478.90 1.054601
479.00 1.054282
479.10 1.053963
479.20 1.053645
479.30 1.053326
479.40 1.053044
479.50 1.052782
479.60 1.052521
479.70 1.052259
479.80 1.051998
479.90 1.051737
480.00 1.051476
480.10 1.051215
480.20 1.050954
480.30 1.050694
480.40 1.050433
480.50 1.050173
480.60 1.049913
480.70 1.049653
480.80 1.049393
480.90 1.049133
481.00 1.048873
481.10 1.048614
481.20 1.048405
481.30 1.048197
481.40 1.047989
481.50 1.047781
481.60 1.047573
481.70 1.047365
481.80 1.047157
481.90 1.04695
482.00 1.046742
482.10 1.046535
482.20 1.046324
482.30 1.046066
482.40 1.045808
482.50 1.04555
482.60 1.045293
482.70 1.045035
482.80 1.044778
482.90 1.044521
483.00 1.044264
483.10 1.044007
483.20 1.04375
483.30 1.043493
483.40 1.043237
483.50 1.04298
483.60 1.042724
483.70 1.042409
483.80 1.042094
483.90 1.04178
484.00 1.041465
484.10 1.041151
484.20 1.040908
484.30 1.040697
484.40 1.040485
484.50 1.040273
484.60 1.040062
484.70 1.039844
484.80 1.039551
484.90 1.039257
485.00 1.038963
485.10 1.03867
485.20 1.038377
485.30 1.038084
485.40 1.037791
485.50 1.037498
485.60 1.037205
485.70 1.036946
485.80 1.036686
485.90 1.036427
486.00 1.036168
486.10 1.035909
486.20 1.03565
486.30 1.035391
486.40 1.035132
486.50 1.034874
486.60 1.034615
486.70 1.034356
486.80 1.03408
486.90 1.033804
487.00 1.033529
487.10 1.033254
487.20 1.032996
487.30 1.032739
487.40 1.032481
487.50 1.032224
487.60 1.031967
487.70 1.03171
487.80 1.031453
487.90 1.031196
488.00 1.030939
488.10 1.030683
488.20 1.030432
488.30 1.030248
488.40 1.030064
488.50 1.02988
488.60 1.029697
488.70 1.029513
488.80 1.029092
488.90 1.028671
489.00 1.028296
489.10 1.028041
489.20 1.027786
489.30 1.027531
489.40 1.027277
489.50 1.027022
489.60 1.026768
489.70 1.026513
489.80 1.026702
489.90 1.026402
490.00 1.026101
490.10 1.0258
490.20 1.0255
490.30 1.0252
490.40 1.024932
490.50 1.024663
490.60 1.024395
490.70 1.024127
490.80 1.023749
490.90 1.02389
491.00 1.023473
491.10 1.023056
491.20 1.02264
491.30 1.02282
491.40 1.022404
491.50 1.021988
491.60 1.021657
491.70 1.021506
491.80 1.021337
491.90 1.020921
492.00 1.02061
492.10 1.020686
492.20 1.020271
492.30 1.019857
492.40 1.019482
492.50 1.019622
492.60 1.019219
492.70 1.018953
492.80 1.018688
492.90 1.018423
493.00 1.018156
493.10 1.017859
493.20 1.017563
493.30 1.017268
493.40 1.016972
493.50 1.016676
493.60 1.016855
493.70 1.016444
493.80 1.016032
493.90 1.015732
494.00 1.015605
494.10 1.015424
494.20 1.015125
494.30 1.014827
494.40 1.014529
494.50 1.01423
494.60 1.013947
494.70 1.013863
494.80 1.013693
494.90 1.013284
495.00 1.012874
495.10 1.012465
495.20 1.012238
495.30 1.012011
495.40 1.011785
495.50 1.011558
495.60 1.011331
495.70 1.011105
495.80 1.010879
495.90 1.010652
496.00 1.010426
496.10 1.010142
496.20 1.009745
496.30 1.009482
496.40 1.009219
496.50 1.008956
496.60 1.008693
496.70 1.00846
496.80 1.008227
496.90 1.007994
497.00 1.007762
497.10 1.007529
497.20 1.007297
497.30 1.007071
497.40 1.006864
497.50 1.006657
497.60 1.006387
497.70 1.005991
497.80 1.005715
497.90 1.00544
498.00 1.005164
498.10 1.004888
498.20 1.004613
498.30 1.004337
498.40 1.004062
498.50 1.003787
498.60 1.003512
498.70 1.003399
498.80 1.003286
498.90 1.003041
499.00 1.002796
499.10 1.002552
499.20 1.002257
499.30 1.001891
499.40 1.001628
499.50 1.001364
499.60 1.001101
499.70 1.000837
499.80 1.000558
499.90 1.000279
500.00 1
500.10 0.9997213
500.20 0.9994347
500.30 0.999131
500.40 0.9988275
500.50 0.9985242
500.60 0.9982211
500.70 0.9979181
500.80 0.99764
500.90 0.9974145
501.00 0.9971891
501.10 0.9969638
501.20 0.9966577
501.30 0.9965466
501.40 0.9963438
501.50 0.9959465
501.60 0.9955494
501.70 0.9957245
501.80 0.9953277
501.90 0.9949311
502.00 0.994616
502.10 0.9944736
502.20 0.9943136
502.30 0.9939177
502.40 0.9935829
502.50 0.9933775
502.60 0.9931722
502.70 0.992967
502.80 0.9927619
502.90 0.9925568
503.00 0.992336
503.10 0.9920817
503.20 0.9918274
503.30 0.9915733
503.40 0.9913186
503.50 0.9910621
503.60 0.9908056
503.70 0.9905493
503.80 0.9902767
503.90 0.9898837
504.00 0.9895355
504.10 0.9892825
504.20 0.9890296
504.30 0.9887768
504.40 0.9884879
504.50 0.9880961
504.60 0.9877045
504.70 0.9878783
504.80 0.987487
504.90 0.9870958
505.00 0.9867783
505.10 0.9866698
505.20 0.9865251
505.30 0.9862778
505.40 0.9860306
505.50 0.9857835
505.60 0.9855205
505.70 0.9852236
505.80 0.984927
505.90 0.9846304
506.00 0.9843341
506.10 0.9840379
506.20 0.9837504
506.30 0.9834875
506.40 0.9832247
506.50 0.982962
506.60 0.9826995
506.70 0.982437
506.80 0.9821748
506.90 0.9819126
507.00 0.9816506
507.10 0.9813486
507.20 0.9809981
507.30 0.9807512
507.40 0.9805045
507.50 0.9802578
507.60 0.9800113
507.70 0.9797649
507.80 0.9795186
507.90 0.9792725
508.00 0.9790264
508.10 0.9787805
508.20 0.9785347
508.30 0.978289
508.40 0.9780434
508.50 0.977798
508.60 0.9775526
508.70 0.9773074
508.80 0.9770261
508.90 0.9768122
509.00 0.976658
509.10 0.9764599
509.20 0.9761685
509.30 0.9758772
509.40 0.9755861
509.50 0.9752952
509.60 0.9750044
509.70 0.9747137
509.80 0.9744232
509.90 0.9741329
510.00 0.9738427
510.10 0.9735526
510.20 0.9732628
510.30 0.9729825
510.40 0.9727294
510.50 0.9724764
510.60 0.9722235
510.70 0.9719708
510.80 0.9717182
510.90 0.9714657
511.00 0.9712133
511.10 0.9709611
511.20 0.9707089
511.30 0.9704569
511.40 0.9702051
511.50 0.9699533
511.60 0.9696858
511.70 0.9693847
511.80 0.9690838
511.90 0.968783
512.00 0.9684824
512.10 0.9681819
512.20 0.9678816
512.30 0.9675961
512.40 0.9673522
512.50 0.9671084
512.60 0.9668647
512.70 0.9666212
512.80 0.9663777
512.90 0.9661344
513.00 0.9658912
513.10 0.9656481
513.20 0.9654051
513.30 0.9651623
513.40 0.9649195
513.50 0.9646769
513.60 0.9644344
513.70 0.964192
513.80 0.9639497
513.90 0.9637076
514.00 0.9634424
514.10 0.9631736
514.20 0.9629049
514.30 0.9626364
514.40 0.962368
514.50 0.9620997
514.60 0.9618316
514.70 0.9615636
514.80 0.9612958
514.90 0.961028
515.00 0.9607605
515.10 0.960493
515.20 0.9602257
515.30 0.9599585
515.40 0.9596915
515.50 0.9594246
515.60 0.9591578
515.70 0.9588912
515.80 0.9586247
515.90 0.9583583
516.00 0.9580921
516.10 0.957826
516.20 0.95756
516.30 0.9572942
516.40 0.9570285
516.50 0.9567629
516.60 0.9564975
516.70 0.9562323
516.80 0.9559672
516.90 0.9557022
517.00 0.9554373
517.10 0.9551726
517.20 0.954908
517.30 0.9546436
517.40 0.9543793
517.50 0.9541151
517.60 0.953851
517.70 0.9535871
517.80 0.9533233
517.90 0.9530596
518.00 0.9527961
518.10 0.9525327
518.20 0.9522695
518.30 0.9520063
518.40 0.9517434
518.50 0.9514805
518.60 0.9512178
518.70 0.9509552
518.80 0.9506927
518.90 0.9504304
519.00 0.9501682
519.10 0.9499056
519.20 0.9496426
519.30 0.9493797
519.40 0.949117
519.50 0.9488544
519.60 0.9485919
519.70 0.9483296
519.80 0.9480674
519.90 0.9478053
520.00 0.9475433
520.10 0.9472815
520.20 0.9470198
520.30 0.9467583
520.40 0.9464968
520.50 0.9462356
520.60 0.9459744
520.70 0.9457134
520.80 0.9454525
520.90 0.9451917
521.00 0.9449311
521.10 0.9446706
521.20 0.9444102
521.30 0.9441499
521.40 0.9438898
521.50 0.9436298
521.60 0.94337
521.70 0.9431102
521.80 0.9428507
521.90 0.9425912
522.00 0.9423318
522.10 0.9420726
522.20 0.9418136
522.30 0.9415546
522.40 0.9412958
522.50 0.9410371
522.60 0.9407785
522.70 0.9405201
522.80 0.9402618
522.90 0.9400036
523.00 0.9397456
523.10 0.9394877
523.20 0.9392299
523.30 0.9389722
523.40 0.9387147
523.50 0.9384573
523.60 0.9382
523.70 0.9379428
523.80 0.9376858
523.90 0.9374289
524.00 0.9371722
524.10 0.9369155
524.20 0.936659
524.30 0.9364021
524.40 0.9361449
524.50 0.9358878
524.60 0.9356308
524.70 0.9353739
524.80 0.9351172
524.90 0.9348606
525.00 0.9346041
525.10 0.9343478
525.20 0.9340916
525.30 0.9338355
525.40 0.9335795
525.50 0.9333237
525.60 0.933068
525.70 0.9328124
525.80 0.932557
525.90 0.9323016
526.00 0.9320465
526.10 0.9317914
526.20 0.9315364
526.30 0.9312816
526.40 0.9310269
526.50 0.9307724
526.60 0.9305179
526.70 0.9302636
526.80 0.9300094
526.90 0.9297554
527.00 0.9295014
527.10 0.9292476
527.20 0.9289939
527.30 0.9287404
527.40 0.928487
527.50 0.9282336
527.60 0.9279805
527.70 0.9277274
527.80 0.9274745
527.90 0.9272217
528.00 0.926969
528.10 0.9267164
528.20 0.926464
528.30 0.9262117
528.40 0.9259595
528.50 0.9257075
528.60 0.9254555
528.70 0.9252037
528.80 0.924952
528.90 0.9247005
529.00 0.924449
529.10 0.9241977
529.20 0.9239465
529.30 0.9236955
529.40 0.9234445
529.50 0.9231909
529.60 0.9229198
529.70 0.9226489
529.80 0.9223781
529.90 0.9221074
530.00 0.9218369
530.10 0.9215665
530.20 0.9212963
530.30 0.9210262
530.40 0.9207562
530.50 0.9204864
530.60 0.9202167
530.70 0.9199471
530.80 0.9196777
530.90 0.9194084
531.00 0.9191393
531.10 0.9188703
531.20 0.9186014
531.30 0.9183327
531.40 0.9180641
531.50 0.9177957
531.60 0.9175274
531.70 0.9172592
531.80 0.9169911
531.90 0.9167232
532.00 0.9164555
532.10 0.9161878
532.20 0.915933
532.30 0.9156849
532.40 0.9154369
532.50 0.915189
532.60 0.9149412
532.70 0.9146935
532.80 0.914446
532.90 0.9141986
533.00 0.9139513
533.10 0.9137041
533.20 0.9134571
533.30 0.9132102
533.40 0.9129634
533.50 0.9127167
533.60 0.9124701
533.70 0.9122237
533.80 0.9119774
533.90 0.9117312
534.00 0.9114851
534.10 0.9112391
534.20 0.9109933
534.30 0.9107475
534.40 0.9105019
534.50 0.9102565
534.60 0.9100111
534.70 0.9097659
534.80 0.909517
534.90 0.9092522
535.00 0.9089876
535.10 0.9087231
535.20 0.9084587
535.30 0.9081945
535.40 0.9079304
535.50 0.9076664
535.60 0.9074025
535.70 0.9071388
535.80 0.9068753
535.90 0.9066118
536.00 0.9063485
536.10 0.9060854
536.20 0.9058223
536.30 0.9055594
536.40 0.9052967
536.50 0.905034
536.60 0.9047715
536.70 0.9045092
536.80 0.9042469
536.90 0.9039848
537.00 0.9037228
537.10 0.903461
537.20 0.9031993
537.30 0.9029377
537.40 0.9026763
537.50 0.902415
537.60 0.9021538
537.70 0.9018927
537.80 0.9016318
537.90 0.901371
538.00 0.9011104
538.10 0.9008499
538.20 0.9005895
538.30 0.9003292
538.40 0.9000691
538.50 0.8998091
538.60 0.8995492
538.70 0.8992895
538.80 0.8990299
538.90 0.8987704
539.00 0.8985111
539.10 0.8982519
539.20 0.8979928
539.30 0.8977338
539.40 0.897475
539.50 0.8972163
539.60 0.8969578
539.70 0.8966993
539.80 0.896441
539.90 0.8961828
540.00 0.8959248
540.10 0.8956669
540.20 0.8954086
540.30 0.8951502
540.40 0.894892
540.50 0.8946339
540.60 0.8943759
540.70 0.894118
540.80 0.8938603
540.90 0.8936027
541.00 0.8933452
541.10 0.8930879
541.20 0.8928307
541.30 0.8925736
541.40 0.8923166
541.50 0.8920598
541.60 0.8918031
541.70 0.8915466
541.80 0.8912901
541.90 0.8910338
542.00 0.8907776
542.10 0.8905216
542.20 0.8902657
542.30 0.8900099
542.40 0.8897542
542.50 0.8894987
542.60 0.8892433
542.70 0.888988
542.80 0.8887328
542.90 0.8884778
543.00 0.8882229
543.10 0.8879681
543.20 0.8877135
543.30 0.887459
543.40 0.8872046
543.50 0.8869503
543.60 0.8866962
543.70 0.8864422
543.80 0.8861883
543.90 0.8859345
544.00 0.8856809
544.10 0.8854274
544.20 0.885174
544.30 0.8849208
544.40 0.8846676
544.50 0.8844146
544.60 0.8841618
544.70 0.883909
544.80 0.8836564
544.90 0.8834039
545.00 0.8831515
545.10 0.8828993
545.20 0.8826472
545.30 0.8823952
545.40 0.8821433
545.50 0.8818916
545.60 0.8816395
545.70 0.8813873
545.80 0.8811352
545.90 0.8808832
546.00 0.8806314
546.10 0.8803797
546.20 0.8801281
546.30 0.8798766
546.40 0.8796253
546.50 0.8793741
546.60 0.879123
546.70 0.878872
546.80 0.8786212
546.90 0.8783705
547.00 0.8781199
547.10 0.8778695
547.20 0.8776191
547.30 0.8773689
547.40 0.8771188
547.50 0.8768689
547.60 0.876619
547.70 0.8763693
547.80 0.8761197
547.90 0.8758703
548.00 0.8756209
548.10 0.8753717
548.20 0.8751226
548.30 0.8748663
548.40 0.8745999
548.50 0.8743336
548.60 0.8740675
548.70 0.8738016
548.80 0.8735358
548.90 0.8732701
549.00 0.8730045
549.10 0.8727391
549.20 0.8724738
549.30 0.8722086
549.40 0.8719436
549.50 0.8716787
549.60 0.871414
549.70 0.8711494
549.80 0.8708849
549.90 0.8706206
550.00 0.8703564
550.10 0.8700923
550.20 0.8698283
550.30 0.8695645
550.40 0.8693009
550.50 0.8690373
550.60 0.8687739
550.70 0.8685107
550.80 0.8682475
550.90 0.8679845
551.00 0.8677242
551.10 0.8674781
551.20 0.8672322
551.30 0.8669863
551.40 0.8667407
551.50 0.8664951
551.60 0.8662496
551.70 0.8660043
551.80 0.8657591
551.90 0.865514
552.00 0.865269
552.10 0.8650242
552.20 0.8647794
552.30 0.8645348
552.40 0.8642904
552.50 0.864046
552.60 0.8638017
552.70 0.8635576
552.80 0.8633136
552.90 0.8630697
553.00 0.862826
553.10 0.8625823
553.20 0.8623388
553.30 0.8620954
553.40 0.8618521
553.50 0.8616089
553.60 0.8613659
553.70 0.8611229
553.80 0.8608699
553.90 0.8606102
554.00 0.8603506
554.10 0.8600912
554.20 0.8598318
554.30 0.8595726
554.40 0.8593136
554.50 0.8590546
554.60 0.8587958
554.70 0.8585372
554.80 0.8582786
554.90 0.8580202
555.00 0.8577619
555.10 0.8575038
555.20 0.8572458
555.30 0.8569879
555.40 0.8567301
555.50 0.8564725
555.60 0.856215
555.70 0.8559577
555.80 0.8557004
555.90 0.8554433
556.00 0.8551863
556.10 0.8549295
556.20 0.8546728
556.30 0.8544162
556.40 0.8541597
556.50 0.8539038
556.60 0.8536554
556.70 0.8534072
556.80 0.8531591
556.90 0.8529111
557.00 0.8526632
557.10 0.8524155
557.20 0.8521679
557.30 0.8519204
557.40 0.851673
557.50 0.8514258
557.60 0.8511787
557.70 0.8509317
557.80 0.8506848
557.90 0.850438
558.00 0.8501914
558.10 0.8499449
558.20 0.8496985
558.30 0.8494522
558.40 0.8492061
558.50 0.8489601
558.60 0.8487142
558.70 0.8484684
558.80 0.8482227
558.90 0.8479772
559.00 0.8477318
559.10 0.8474865
559.20 0.8472413
559.30 0.8469963
559.40 0.8467513
559.50 0.8465065
559.60 0.8462618
559.70 0.8460173
559.80 0.8457728
559.90 0.8455285
560.00 0.8452843
560.10 0.8450402
560.20 0.8447962
560.30 0.8445524
560.40 0.8443087
560.50 0.8440651
560.60 0.8438216
560.70 0.8435782
560.80 0.843335
560.90 0.8430918
561.00 0.8428488
561.10 0.8426059
561.20 0.8423632
561.30 0.8421205
561.40 0.841878
561.50 0.8416356
561.60 0.8413933
561.70 0.8411511
561.80 0.8409091
561.90 0.8406672
562.00 0.8404253
562.10 0.8401802
562.20 0.8399299
562.30 0.8396798
562.40 0.8394298
562.50 0.8391799
562.60 0.8389301
562.70 0.8386805
562.80 0.838431
562.90 0.8381816
563.00 0.8379324
563.10 0.8376832
563.20 0.8374342
563.30 0.8371853
563.40 0.8369366
563.50 0.8366879
563.60 0.8364394
563.70 0.836191
563.80 0.8359428
563.90 0.8356946
564.00 0.8354466
564.10 0.8351987
564.20 0.8349509
564.30 0.8347033
564.40 0.8344557
564.50 0.8342083
564.60 0.833961
564.70 0.8337139
564.80 0.8334669
564.90 0.8332199
565.00 0.8329732
565.10 0.8327265
565.20 0.83248
565.30 0.8322336
565.40 0.8319873
565.50 0.8317411
565.60 0.8314951
565.70 0.8312492
565.80 0.8310034
565.90 0.8307577
566.00 0.8305121
566.10 0.8302667
566.20 0.8300214
566.30 0.8297762
566.40 0.8295311
566.50 0.8292862
566.60 0.8290414
566.70 0.8287967
566.80 0.8285521
566.90 0.8283076
567.00 0.8280633
567.10 0.8278191
567.20 0.827575
567.30 0.827331
567.40 0.8270871
567.50 0.8268434
567.60 0.8265998
567.70 0.8263547
567.80 0.826103
567.90 0.8258514
568.00 0.8255999
568.10 0.8253486
568.20 0.8250974
568.30 0.8248463
568.40 0.8245953
568.50 0.8243445
568.60 0.8240937
568.70 0.8238432
568.80 0.8235927
568.90 0.8233424
569.00 0.8230921
569.10 0.8228421
569.20 0.8225921
569.30 0.8223422
569.40 0.8220925
569.50 0.8218429
569.60 0.8215935
569.70 0.8213441
569.80 0.8210949
569.90 0.8208458
570.00 0.8205969
570.10 0.820348
570.20 0.8200993
570.30 0.8198507
570.40 0.8196022
570.50 0.8193539
570.60 0.8191057
570.70 0.8188576
570.80 0.8186096
570.90 0.8183617
571.00 0.818114
571.10 0.8178664
571.20 0.8176189
571.30 0.8173716
571.40 0.8171243
571.50 0.8168772
571.60 0.8166302
571.70 0.8163834
571.80 0.8161366
571.90 0.81589
572.00 0.8156435
572.10 0.8153971
572.20 0.8151509
572.30 0.8149047
572.40 0.8146587
572.50 0.8144128
572.60 0.8141671
572.70 0.8139214
572.80 0.8136759
572.90 0.8134305
573.00 0.8131852
573.10 0.8129401
573.20 0.812695
573.30 0.8124501
573.40 0.8122066
573.50 0.811965
573.60 0.8117236
573.70 0.8114822
573.80 0.811241
573.90 0.8109999
574.00 0.8107589
574.10 0.8105181
574.20 0.8102773
574.30 0.8100367
574.40 0.8097962
574.50 0.8095558
574.60 0.8093155
574.70 0.8090754
574.80 0.8088354
574.90 0.8085954
575.00 0.8083556
575.10 0.808116
575.20 0.8078764
575.30 0.807637
575.40 0.8073976
575.50 0.8071584
575.60 0.8069193
575.70 0.8066803
575.80 0.8064415
575.90 0.8062027
576.00 0.8059641
576.10 0.8057256
576.20 0.8054872
576.30 0.805249
576.40 0.8050108
576.50 0.8047728
576.60 0.8045348
576.70 0.804297
576.80 0.8040593
576.90 0.8038218
577.00 0.8035843
577.10 0.803347
577.20 0.8031098
577.30 0.8028726
577.40 0.8026357
577.50 0.8023988
577.60 0.8021571
577.70 0.8019077
577.80 0.8016583
577.90 0.8014091
578.00 0.80116
578.10 0.800911
578.20 0.8006622
578.30 0.8004135
578.40 0.8001649
578.50 0.7999164
578.60 0.799668
578.70 0.7994198
578.80 0.7991717
578.90 0.7989237
579.00 0.7986758
579.10 0.7984296
579.20 0.7981981
579.30 0.7979667
579.40 0.7977354
579.50 0.7975043
579.60 0.7972733
579.70 0.7970423
579.80 0.7968115
579.90 0.7965808
580.00 0.7963502
580.10 0.7961111
580.20 0.7958581
580.30 0.7956052
580.40 0.7953525
580.50 0.7950998
580.60 0.7948473
580.70 0.7945949
580.80 0.7943427
580.90 0.7940905
581.00 0.7938385
581.10 0.7935866
581.20 0.7933349
581.30 0.7930833
581.40 0.7928318
581.50 0.7925804
581.60 0.7923291
581.70 0.792078
581.80 0.791827
581.90 0.7915761
582.00 0.7913254
582.10 0.7910775
582.20 0.7908341
582.30 0.7905908
582.40 0.7903476
582.50 0.7901045
582.60 0.7898616
582.70 0.7896188
582.80 0.7893761
582.90 0.7891335
583.00 0.788891
583.10 0.7886487
583.20 0.7884065
583.30 0.7881644
583.40 0.7879224
583.50 0.7876806
583.60 0.7874403
583.70 0.7872025
583.80 0.7869648
583.90 0.7867273
584.00 0.7864899
584.10 0.7862526
584.20 0.7860154
584.30 0.7857783
584.40 0.7855413
584.50 0.7853045
584.60 0.7850677
584.70 0.7848311
584.80 0.7845946
584.90 0.7843796
585.00 0.7842617
585.10 0.7841438
585.20 0.7839689
585.30 0.783701
585.40 0.7834333
585.50 0.7831657
585.60 0.7828983
585.70 0.7826309
585.80 0.7823638
585.90 0.7820967
586.00 0.7818298
586.10 0.7815631
586.20 0.781323
586.30 0.7811263
586.40 0.7809296
586.50 0.7807331
586.60 0.7805367
586.70 0.7803403
586.80 0.7801176
586.90 0.7798517
587.00 0.7795861
587.10 0.7793205
587.20 0.7790551
587.30 0.7787898
587.40 0.7785247
587.50 0.7782597
587.60 0.7779948
587.70 0.7777301
587.80 0.7775446
587.90 0.7774884
588.00 0.777353
588.10 0.7770887
588.20 0.7768245
588.30 0.7765604
588.40 0.7762965
588.50 0.7760327
588.60 0.775769
588.70 0.7755055
588.80 0.7752421
588.90 0.7749788
589.00 0.7747315
589.10 0.77451
589.20 0.7742885
589.30 0.7740672
589.40 0.773846
589.50 0.7736249
589.60 0.7734039
589.70 0.7731831
589.80 0.7729623
589.90 0.7727416
590.00 0.7725053
590.10 0.7722435
590.20 0.7719819
590.30 0.7717203
590.40 0.7714589
590.50 0.7711976
590.60 0.7709365
590.70 0.7706755
590.80 0.7704489
590.90 0.7702378
591.00 0.7700267
591.10 0.7698158
591.20 0.7696049
591.30 0.7693942
591.40 0.7691836
591.50 0.768973
591.60 0.7687542
591.70 0.7685218
591.80 0.7682895
591.90 0.7680573
592.00 0.7678252
592.10 0.7675932
592.20 0.7673614
592.30 0.7671297
592.40 0.766898
592.50 0.7666665
592.60 0.7664351
592.70 0.7662038
592.80 0.7659727
592.90 0.7657416
593.00 0.7655107
593.10 0.7652772
593.20 0.7650397
593.30 0.7648023
593.40 0.764565
593.50 0.7643278
593.60 0.7640907
593.70 0.7638538
593.80 0.7636169
593.90 0.7633802
594.00 0.7631436
594.10 0.7629071
594.20 0.7626707
594.30 0.7624344
594.40 0.7621983
594.50 0.7619623
594.60 0.7617264
594.70 0.7614906
594.80 0.7612549
594.90 0.7610193
595.00 0.7607839
595.10 0.7605506
595.20 0.7603208
595.30 0.7600912
595.40 0.7598617
595.50 0.7596322
595.60 0.7594029
595.70 0.7591737
595.80 0.7589446
595.90 0.7587157
596.00 0.7584868
596.10 0.758258
596.20 0.7580294
596.30 0.7578009
596.40 0.7575724
596.50 0.7573441
596.60 0.7571159
596.70 0.7568719
596.80 0.7566183
596.90 0.7563648
597.00 0.7561114
597.10 0.7558582
597.20 0.7556051
597.30 0.7553521
597.40 0.7550992
597.50 0.7548465
597.60 0.7546027
597.70 0.7543734
597.80 0.7541442
597.90 0.7539152
598.00 0.7536862
598.10 0.7534574
598.20 0.7532286
598.30 0.753
598.40 0.7527715
598.50 0.7525431
598.60 0.7523148
598.70 0.7520866
598.80 0.7518585
598.90 0.7516305
599.00 0.7514027
599.10 0.7511749
599.20 0.7509473
599.30 0.7507198
599.40 0.7504893
599.50 0.750259
599.60 0.7500288
599.70 0.7497987
599.80 0.7495687
599.90 0.7493388
600.00 0.7491091
600.10 0.7488794
600.20 0.7486499
600.30 0.7484204
600.40 0.7481911
600.50 0.7479619
600.60 0.7477328
600.70 0.7475038
600.80 0.747275
600.90 0.7470462
601.00 0.7468175
601.10 0.746589
601.20 0.7463606
601.30 0.7461322
601.40 0.7459146
601.50 0.7456971
601.60 0.7454797
601.70 0.7452624
601.80 0.7450452
601.90 0.7448281
602.00 0.7446111
602.10 0.7443942
602.20 0.7441775
602.30 0.7439608
602.40 0.7437442
602.50 0.7435277
602.60 0.7433113
602.70 0.7430662
602.80 0.7428197
602.90 0.7425981
603.00 0.7423765
603.10 0.7421551
603.20 0.7419338
603.30 0.7417125
603.40 0.7414914
603.50 0.7412704
603.60 0.7410495
603.70 0.7408287
603.80 0.740608
603.90 0.7403875
604.00 0.740167
604.10 0.7399466
604.20 0.7397263
604.30 0.7395062
604.40 0.7392861
604.50 0.7390415
604.60 0.7387971
604.70 0.7385528
604.80 0.7383086
604.90 0.7380645
605.00 0.7378205
605.10 0.7375766
605.20 0.7373329
605.30 0.7370893
605.40 0.7368458
605.50 0.7366025
605.60 0.7363592
605.70 0.7361161
605.80 0.7358731
605.90 0.7356302
606.00 0.7353875
606.10 0.7351448
606.20 0.7349023
606.30 0.7346599
606.40 0.7344176
606.50 0.7341754
606.60 0.7339334
606.70 0.7336915
606.80 0.7334497
606.90 0.7335988
607.00 0.7333571
607.10 0.7331156
607.20 0.7328741
607.30 0.7326328
607.40 0.7323916
607.50 0.7321505
607.60 0.7319095
607.70 0.7316686
607.80 0.7314279
607.90 0.7311873
608.00 0.7309468
608.10 0.7307064
608.20 0.7304661
608.30 0.730226
608.40 0.7299859
608.50 0.729746
608.60 0.7295062
608.70 0.7292666
608.80 0.729027
608.90 0.7287876
609.00 0.7285482
609.10 0.728309
609.20 0.72807
609.30 0.7278552
609.40 0.7276406
609.50 0.7274261
609.60 0.7272116
609.70 0.7269973
609.80 0.7267831
609.90 0.726569
610.00 0.726355
610.10 0.726141
610.20 0.7259272
610.30 0.7257135
610.40 0.7254999
610.50 0.7252864
610.60 0.725073
610.70 0.7248596
610.80 0.7246464
610.90 0.7244092
611.00 0.7241721
611.10 0.7239351
611.20 0.7236983
611.30 0.7234615
611.40 0.7232249
611.50 0.7229883
611.60 0.7227519
611.70 0.7225156
611.80 0.7222795
611.90 0.7220434
612.00 0.7218075
612.10 0.7215716
612.20 0.7213359
612.30 0.7211003
612.40 0.720884
612.50 0.7206679
612.60 0.7204518
612.70 0.7202358
612.80 0.7200199
612.90 0.7198041
613.00 0.7195885
613.10 0.7193729
613.20 0.7191574
613.30 0.7189421
613.40 0.7187268
613.50 0.7185116
613.60 0.7182966
613.70 0.7180816
613.80 0.7178668
613.90 0.717652
614.00 0.7174374
614.10 0.7172228
614.20 0.7170084
614.30 0.716794
614.40 0.7165607
614.50 0.7163275
614.60 0.7160944
614.70 0.7158615
614.80 0.7156438
614.90 0.7154293
615.00 0.7152149
615.10 0.7150007
615.20 0.7147865
615.30 0.7145724
615.40 0.7143585
615.50 0.7141446
615.60 0.7139309
615.70 0.7137172
615.80 0.7135036
615.90 0.7132902
616.00 0.7130768
616.10 0.7128636
616.20 0.7126504
616.30 0.7124374
616.40 0.7122244
616.50 0.7120116
616.60 0.7117988
616.70 0.7115862
616.80 0.7113736
616.90 0.7111523
617.00 0.7109311
617.10 0.71071
617.20 0.710489
617.30 0.7102682
617.40 0.7100474
617.50 0.7098267
617.60 0.7096062
617.70 0.7093857
617.80 0.7091654
617.90 0.7089451
618.00 0.708725
618.10 0.7085049
618.20 0.708285
618.30 0.7080652
618.40 0.7078455
618.50 0.7076259
618.60 0.7074063
618.70 0.7071869
618.80 0.7069676
618.90 0.7067485
619.00 0.7065294
619.10 0.7063104
619.20 0.7060915
619.30 0.7058727
619.40 0.7056541
619.50 0.7054355
619.60 0.705217
619.70 0.7049987
619.80 0.7047804
619.90 0.7045623
620.00 0.7043442
620.10 0.7041263
620.20 0.7039084
620.30 0.7036907
620.40 0.7034731
620.50 0.7032556
620.60 0.7030381
620.70 0.7028208
620.80 0.7026036
620.90 0.7023853
621.00 0.7021652
621.10 0.7019451
621.20 0.7017251
621.30 0.7015053
621.40 0.7012855
621.50 0.7010658
621.60 0.7008463
621.70 0.7006268
621.80 0.7004075
621.90 0.7001883
622.00 0.6999691
622.10 0.6997501
622.20 0.6995312
622.30 0.6993124
622.40 0.6990937
622.50 0.6988751
622.60 0.6986566
622.70 0.6984382
622.80 0.6982199
622.90 0.6980017
623.00 0.6977836
623.10 0.6975656
623.20 0.6973477
623.30 0.69713
623.40 0.6969123
623.50 0.6966947
623.60 0.6964773
623.70 0.6962599
623.80 0.6960426
623.90 0.6958255
624.00 0.6956084
624.10 0.6953915
624.20 0.6951747
624.30 0.6949579
624.40 0.6947413
624.50 0.6945247
624.60 0.6943083
624.70 0.694092
624.80 0.6938758
624.90 0.6936596
625.00 0.6934436
625.10 0.6932277
625.20 0.6930119
625.30 0.6927962
625.40 0.6925806
625.50 0.6923651
625.60 0.6921497
625.70 0.6919344
625.80 0.6917192
625.90 0.6915041
626.00 0.6912891
626.10 0.6910742
626.20 0.6908594
626.30 0.6906447
626.40 0.6904301
626.50 0.6902156
626.60 0.6900013
626.70 0.689787
626.80 0.6895728
626.90 0.6893587
627.00 0.6891448
627.10 0.6889293
627.20 0.6887096
627.30 0.6884901
627.40 0.6882706
627.50 0.6880512
627.60 0.687832
627.70 0.6876129
627.80 0.6873938
627.90 0.6871749
628.00 0.6869561
628.10 0.6867373
628.20 0.6865187
628.30 0.6863002
628.40 0.6860818
628.50 0.6858635
628.60 0.6856453
628.70 0.6854272
628.80 0.6852092
628.90 0.6849913
629.00 0.6847735
629.10 0.6845558
629.20 0.6843383
629.30 0.6841208
629.40 0.6839034
629.50 0.6836861
629.60 0.683469
629.70 0.6832519
629.80 0.683035
629.90 0.6828181
630.00 0.6826014
630.10 0.6823847
630.20 0.6821682
630.30 0.6819517
630.40 0.6817354
630.50 0.6815192
630.60 0.681303
630.70 0.681087
630.80 0.6808711
630.90 0.6806552
631.00 0.6804395
631.10 0.6802239
631.20 0.6800084
631.30 0.679793
631.40 0.6795777
631.50 0.6793624
631.60 0.6791473
631.70 0.6789323
631.80 0.6787174
631.90 0.6785026
632.00 0.6782879
632.10 0.6780733
632.20 0.6778588
632.30 0.6776444
632.40 0.6774302
632.50 0.677216
632.60 0.6770019
632.70 0.6767879
632.80 0.676574
632.90 0.6763602
633.00 0.6761465
633.10 0.675933
633.20 0.6757195
633.30 0.6755061
633.40 0.6752928
633.50 0.6750796
633.60 0.6748666
633.70 0.6746536
633.80 0.6744407
633.90 0.6742279
634.00 0.6740153
634.10 0.6738027
634.20 0.6735902
634.30 0.6733778
634.40 0.6731656
634.50 0.6729534
634.60 0.6727413
634.70 0.6725294
634.80 0.6723175
634.90 0.6721057
635.00 0.6718941
635.10 0.6716825
635.20 0.671471
635.30 0.6712596
635.40 0.6710484
635.50 0.6708372
635.60 0.6706261
635.70 0.6704152
635.80 0.6702043
635.90 0.6699935
636.00 0.6697828
636.10 0.6695723
636.20 0.6693618
636.30 0.6691514
636.40 0.6689411
636.50 0.668731
636.60 0.6685209
636.70 0.6683109
636.80 0.668101
636.90 0.6678912
637.00 0.6676816
637.10 0.667472
637.20 0.6672625
637.30 0.6670531
637.40 0.6668438
637.50 0.6666346
637.60 0.6664255
637.70 0.6662165
637.80 0.6660077
637.90 0.6657989
638.00 0.6655902
638.10 0.6653816
638.20 0.6651731
638.30 0.6649647
638.40 0.6647563
638.50 0.6645481
638.60 0.66434
638.70 0.664132
638.80 0.6639241
638.90 0.6637163
639.00 0.6635086
639.10 0.6633009
639.20 0.6630934
639.30 0.662886
639.40 0.6626787
639.50 0.6624714
639.60 0.6622643
639.70 0.6620573
639.80 0.6618503
639.90 0.6616435
640.00 0.6614367
640.10 0.6612301
640.20 0.6610235
640.30 0.6608171
640.40 0.6606107
640.50 0.6604044
640.60 0.6601983
640.70 0.6599922
640.80 0.6597862
640.90 0.6595803
641.00 0.6593746
641.10 0.6591689
641.20 0.6589633
641.30 0.6587578
641.40 0.6585524
641.50 0.6583471
641.60 0.6581419
641.70 0.6579368
641.80 0.6577318
641.90 0.6575269
642.00 0.657322
642.10 0.6571173
642.20 0.6569127
642.30 0.6567081
642.40 0.6565037
642.50 0.6562994
642.60 0.6560951
642.70 0.655891
642.80 0.6556869
642.90 0.6554829
643.00 0.6552791
643.10 0.6550753
643.20 0.6548716
643.30 0.654668
643.40 0.6544646
643.50 0.6542612
643.60 0.6540579
643.70 0.6538547
643.80 0.6536516
643.90 0.6534485
644.00 0.6532456
644.10 0.6530428
644.20 0.6528401
644.30 0.6526374
644.40 0.6524349
644.50 0.6522325
644.60 0.6520301
644.70 0.6518278
644.80 0.6516257
644.90 0.6514236
645.00 0.6512216
645.10 0.6510198
645.20 0.650818
645.30 0.6506163
645.40 0.6504147
645.50 0.6502132
645.60 0.6500117
645.70 0.6498104
645.80 0.6496092
645.90 0.6494081
646.00 0.649207
646.10 0.6490061
646.20 0.6488052
646.30 0.6486045
646.40 0.6484038
646.50 0.6482032
646.60 0.6480027
646.70 0.6478024
646.80 0.6476021
646.90 0.6474019
647.00 0.6472018
647.10 0.6470017
647.20 0.6468018
647.30 0.646602
647.40 0.6464022
647.50 0.6462026
647.60 0.646003
647.70 0.6458036
647.80 0.6456042
647.90 0.6454049
648.00 0.6452058
648.10 0.6450067
648.20 0.6448077
648.30 0.6446088
648.40 0.6444099
648.50 0.6442112
648.60 0.6440126
648.70 0.6438141
648.80 0.6436156
648.90 0.6434172
649.00 0.643219
649.10 0.6430208
649.20 0.6428227
649.30 0.6426247
649.40 0.6424167
649.50 0.6422083
649.60 0.6420001
649.70 0.6417919
649.80 0.6415838
649.90 0.6413759
650.00 0.641168
650.10 0.6409602
650.20 0.6407525
650.30 0.6405449
650.40 0.6403374
650.50 0.6401301
650.60 0.6399228
650.70 0.6397156
650.80 0.6395085
650.90 0.6393015
651.00 0.6390946
651.10 0.6388878
651.20 0.638681
651.30 0.6384744
651.40 0.6382679
651.50 0.6380615
651.60 0.6378552
651.70 0.6376489
651.80 0.6374428
651.90 0.6372368
652.00 0.6370308
652.10 0.636825
652.20 0.6366193
652.30 0.6364136
652.40 0.6362081
652.50 0.6360026
652.60 0.635804
652.70 0.6356092
652.80 0.6354145
652.90 0.6352199
653.00 0.6350253
653.10 0.6348309
653.20 0.6346365
653.30 0.6344423
653.40 0.6342481
653.50 0.634054
653.60 0.63386
653.70 0.6336661
653.80 0.6334722
653.90 0.6332785
654.00 0.6330849
654.10 0.6328913
654.20 0.6326978
654.30 0.6325044
654.40 0.6323112
654.50 0.632118
654.60 0.6319248
654.70 0.6317318
654.80 0.6315389
654.90 0.631346
655.00 0.6311533
655.10 0.6309606
655.20 0.630768
655.30 0.6305755
655.40 0.6303831
655.50 0.6301908
655.60 0.6299985
655.70 0.6298064
655.80 0.6295976
655.90 0.6293889
656.00 0.6291803
656.10 0.6289718
656.20 0.6287634
656.30 0.6285551
656.40 0.6283469
656.50 0.6281388
656.60 0.6279308
656.70 0.6277228
656.80 0.627515
656.90 0.6273073
657.00 0.6270997
657.10 0.6268922
657.20 0.6266847
657.30 0.6264774
657.40 0.6262702
657.50 0.626063
657.60 0.625856
657.70 0.6256491
657.80 0.6254588
657.90 0.6252687
658.00 0.6250787
658.10 0.6248887
658.20 0.6246989
658.30 0.6245091
658.40 0.6243194
658.50 0.6241298
658.60 0.6239403
658.70 0.6237509
658.80 0.6235615
658.90 0.6233722
659.00 0.6231831
659.10 0.622994
659.20 0.622805
659.30 0.6226161
659.40 0.6224272
659.50 0.6222385
659.60 0.6220498
659.70 0.6218613
659.80 0.6216728
659.90 0.6214844
660.00 0.6212961
660.10 0.6211078
660.20 0.6209197
660.30 0.6207316
660.40 0.6204858
660.50 0.6202299
660.60 0.6199741
660.70 0.6197185
660.80 0.619463
660.90 0.6192755
661.00 0.6190881
661.10 0.6189009
661.20 0.6187137
661.30 0.6185266
661.40 0.6183396
661.50 0.6181526
661.60 0.6179658
661.70 0.617779
661.80 0.6175923
661.90 0.6174057
662.00 0.6172192
662.10 0.6170328
662.20 0.6168464
662.30 0.6166602
662.40 0.616474
662.50 0.6162879
662.60 0.6161019
662.70 0.615916
662.80 0.6157301
662.90 0.6155444
663.00 0.6153587
663.10 0.6151731
663.20 0.6149876
663.30 0.6148022
663.40 0.6146169
663.50 0.6144316
663.60 0.6142464
663.70 0.6140614
663.80 0.6138764
663.90 0.6136914
664.00 0.6135066
664.10 0.6132675
664.20 0.6130284
664.30 0.6127895
664.40 0.6125507
664.50 0.612312
664.60 0.6120735
664.70 0.6118893
664.80 0.6117052
664.90 0.6115212
665.00 0.6113373
665.10 0.6111535
665.20 0.6109698
665.30 0.6107861
665.40 0.6106026
665.50 0.6104191
665.60 0.6102357
665.70 0.6100523
665.80 0.6098691
665.90 0.609686
666.00 0.6095029
666.10 0.6093199
666.20 0.609137
666.30 0.6089541
666.40 0.6087714
666.50 0.6085887
666.60 0.6084062
666.70 0.6082237
666.80 0.6080412
666.90 0.6078589
667.00 0.6076767
667.10 0.6074945
667.20 0.6073124
667.30 0.6071304
667.40 0.6069485
667.50 0.6067666
667.60 0.6065849
667.70 0.6064032
667.80 0.6062216
667.90 0.6060401
668.00 0.605657
668.10 0.6053548
668.20 0.6051736
668.30 0.6049925
668.40 0.6048115
668.50 0.6046305
668.60 0.6044497
668.70 0.6042689
668.80 0.6040882
668.90 0.6039076
669.00 0.6037271
669.10 0.6035466
669.20 0.6033663
669.30 0.603186
669.40 0.6030058
669.50 0.6028257
669.60 0.6026456
669.70 0.6024657
669.80 0.6022858
669.90 0.602106
670.00 0.6019263
670.10 0.6017466
670.20 0.6015671
670.30 0.6013876
670.40 0.6012082
670.50 0.6010289
670.60 0.6008496
670.70 0.6006705
670.80 0.6004627
670.90 0.600255
671.00 0.6000475
671.10 0.59984
671.20 0.5996326
671.30 0.5994253
671.40 0.5992181
671.50 0.599011
671.60 0.598804
671.70 0.5985971
671.80 0.5983903
671.90 0.598208
672.00 0.5980299
672.10 0.597852
672.20 0.5976741
672.30 0.5974963
672.40 0.5973186
672.50 0.597141
672.60 0.5969634
672.70 0.596786
672.80 0.5966086
672.90 0.5964313
673.00 0.596254
673.10 0.5960769
673.20 0.5958998
673.30 0.5957228
673.40 0.5955324
673.50 0.5953397
673.60 0.5951471
673.70 0.5949546
673.80 0.5947621
673.90 0.5945698
674.00 0.5943775
674.10 0.5941853
674.20 0.5939933
674.30 0.5938013
674.40 0.5936094
674.50 0.5934175
674.60 0.5932258
674.70 0.5930341
674.80 0.5928426
674.90 0.5926511
675.00 0.5924597
675.10 0.5922684
675.20 0.5920772
675.30 0.5918861
675.40 0.5916977
675.50 0.5915099
675.60 0.5913222
675.70 0.5911346
675.80 0.5909471
675.90 0.5907596
676.00 0.5905723
676.10 0.590385
676.20 0.5901978
676.30 0.5900107
676.40 0.5898236
676.50 0.5896367
676.60 0.5894498
676.70 0.5892631
676.80 0.5890764
676.90 0.5888898
677.00 0.5887032
677.10 0.5885168
677.20 0.5883304
677.30 0.5881442
677.40 0.587958
677.50 0.5877719
677.60 0.5875859
677.70 0.5873999
677.80 0.5872141
677.90 0.587039
678.00 0.5868658
678.10 0.5866928
678.20 0.5865198
678.30 0.5863468
678.40 0.586174
678.50 0.5860012
678.60 0.5858285
678.70 0.5856559
678.80 0.5854833
678.90 0.5853109
679.00 0.5851385
679.10 0.5849565
679.20 0.5847705
679.30 0.5845846
679.40 0.5843987
679.50 0.5842129
679.60 0.5840272
679.70 0.5838416
679.80 0.5836561
679.90 0.5834707
680.00 0.5832853
680.10 0.5831001
680.20 0.5829149
680.30 0.5827298
680.40 0.5825448
680.50 0.5823598
680.60 0.582175
680.70 0.5819902
680.80 0.5818055
680.90 0.5816209
681.00 0.5814364
681.10 0.581252
681.20 0.5810676
681.30 0.5808834
681.40 0.5806992
681.50 0.5805151
681.60 0.5803311
681.70 0.5801471
681.80 0.5799633
681.90 0.5797795
682.00 0.5795958
682.10 0.5794122
682.20 0.5792287
682.30 0.5790453
682.40 0.5788619
682.50 0.5786786
682.60 0.5784955
682.70 0.5783124
682.80 0.5781293
682.90 0.5779464
683.00 0.5777635
683.10 0.5775807
683.20 0.5773981
683.30 0.5772154
683.40 0.5770329
683.50 0.5768505
683.60 0.5766681
683.70 0.5764858
683.80 0.5763036
683.90 0.5761215
684.00 0.5759394
684.10 0.5757575
684.20 0.5755756
684.30 0.5753938
684.40 0.5752121
684.50 0.5750305
684.60 0.5748489
684.70 0.5746675
684.80 0.5744861
684.90 0.5743048
685.00 0.5741236
685.10 0.5739424
685.20 0.5737613
685.30 0.5735804
685.40 0.5733995
685.50 0.5732187
685.60 0.5730379
685.70 0.5728573
685.80 0.5726767
685.90 0.5724927
686.00 0.572308
686.10 0.5721234
686.20 0.5719388
686.30 0.5717543
686.40 0.5715699
686.50 0.5713856
686.60 0.5712013
686.70 0.5710172
686.80 0.5708331
686.90 0.5706491
687.00 0.5704652
687.10 0.5702814
687.20 0.5700977
687.30 0.569914
687.40 0.5697304
687.50 0.569547
687.60 0.5693636
687.70 0.5691802
687.80 0.568997
687.90 0.5688138
688.00 0.5686308
688.10 0.5684478
688.20 0.5682648
688.30 0.568082
688.40 0.5678993
688.50 0.5677166
688.60 0.567534
688.70 0.5673515
688.80 0.5671691
688.90 0.5669868
689.00 0.5668045
689.10 0.5666223
689.20 0.5664402
689.30 0.5662582
689.40 0.5660763
689.50 0.5658945
689.60 0.5657127
689.70 0.565531
689.80 0.5653494
689.90 0.5651679
690.00 0.5649865
690.10 0.5648051
690.20 0.5646238
690.30 0.5644426
690.40 0.5642615
690.50 0.5640805
690.60 0.5638995
690.70 0.5637187
690.80 0.5635379
690.90 0.5633572
691.00 0.5631765
691.10 0.562996
691.20 0.5628155
691.30 0.5626352
691.40 0.5624549
691.50 0.5622746
691.60 0.5620945
691.70 0.5619144
691.80 0.5617344
691.90 0.5615545
692.00 0.5613747
692.10 0.561195
692.20 0.5610153
692.30 0.5608358
692.40 0.5606563
692.50 0.5604768
692.60 0.5602975
692.70 0.5601186
692.80 0.5599413
692.90 0.5597641
693.00 0.559587
693.10 0.5594099
693.20 0.5592329
693.30 0.559056
693.40 0.5588792
693.50 0.5587024
693.60 0.5585257
693.70 0.5583491
693.80 0.5581726
693.90 0.5579962
694.00 0.5578198
694.10 0.5576435
694.20 0.5574673
694.30 0.5572912
694.40 0.5571151
694.50 0.5569392
694.60 0.5567633
694.70 0.5565875
694.80 0.5564117
694.90 0.5562361
695.00 0.5560605
695.10 0.555885
695.20 0.5557096
695.30 0.5555342
695.40 0.555359
695.50 0.5551838
695.60 0.5550087
695.70 0.5548336
695.80 0.5546587
695.90 0.5544838
696.00 0.554309
696.10 0.5541343
696.20 0.5539596
696.30 0.5537851
696.40 0.5536106
696.50 0.5534362
696.60 0.5532647
696.70 0.553094
696.80 0.5529234
696.90 0.5527529
697.00 0.5525825
697.10 0.5524121
697.20 0.5522418
697.30 0.5520716
697.40 0.5519014
697.50 0.5517313
697.60 0.5515613
697.70 0.5513914
697.80 0.5512216
697.90 0.5510518
698.00 0.5508821
698.10 0.5507125
698.20 0.5505429
698.30 0.5503734
698.40 0.550204
698.50 0.5500347
698.60 0.5498654
698.70 0.5496963
698.80 0.5495272
698.90 0.5493581
699.00 0.5491892
699.10 0.5489891
699.20 0.5487818
699.30 0.5485747
699.40 0.5483676
699.50 0.5481606
699.60 0.5479537
699.70 0.5477946
699.80 0.547638
699.90 0.5474816
700.00 0.5473251
700.10 0.5471688
700.20 0.5470125
700.30 0.5468563
700.40 0.5467002
700.50 0.5465441
700.60 0.5463881
700.70 0.5462321
700.80 0.5460763
700.90 0.5459205
701.00 0.5457647
701.10 0.5455932
701.20 0.5454181
701.30 0.545243
701.40 0.5450681
701.50 0.5448932
701.60 0.5447184
701.70 0.5445436
701.80 0.544369
701.90 0.5441944
702.00 0.5440199
702.10 0.5438455
702.20 0.5436711
702.30 0.5434968
702.40 0.5433226
702.50 0.5431485
702.60 0.5429755
702.70 0.5428027
702.80 0.54263
702.90 0.5424574
703.00 0.5422849
703.10 0.5421125
703.20 0.5419401
703.30 0.5417678
703.40 0.5415956
703.50 0.5414235
703.60 0.5412514
703.70 0.5410794
703.80 0.5409075
703.90 0.5407357
704.00 0.5405639
704.10 0.5403922
704.20 0.5402118
704.30 0.5400294
704.40 0.539847
704.50 0.5396648
704.60 0.5394826
704.70 0.5393005
704.80 0.5391185
704.90 0.5389366
705.00 0.5387548
705.10 0.538573
705.20 0.5384148
705.30 0.5382621
705.40 0.5381095
705.50 0.537957
705.60 0.5378045
705.70 0.5376521
705.80 0.5374997
705.90 0.5373475
706.00 0.5371953
706.10 0.5370431
706.20 0.5367741
706.30 0.5364779
706.40 0.5362986
706.50 0.5361468
706.60 0.535995
706.70 0.5358433
706.80 0.5356917
706.90 0.5355402
707.00 0.5353887
707.10 0.5352373
707.20 0.5350859
707.30 0.5349346
707.40 0.5347446
707.50 0.5345455
707.60 0.5343465
707.70 0.5341476
707.80 0.5339488
707.90 0.53375
708.00 0.5335902
708.10 0.5334395
708.20 0.5332888
708.30 0.5331383
708.40 0.5329878
708.50 0.5328373
708.60 0.5326869
708.70 0.5325366
708.80 0.5323864
708.90 0.5322362
709.00 0.5320715
709.10 0.5319036
709.20 0.5317357
709.30 0.5315679
709.40 0.5314002
709.50 0.5312325
709.60 0.5310649
709.70 0.5308974
709.80 0.53073
709.90 0.5305626
710.00 0.5303953
710.10 0.5302281
710.20 0.530061
710.30 0.5298939
710.40 0.5297269
710.50 0.52956
710.60 0.5293922
710.70 0.5292242
710.80 0.5290563
710.90 0.5288885
711.00 0.5287207
711.10 0.528553
711.20 0.5283854
711.30 0.5282179
711.40 0.5280505
711.50 0.5278831
711.60 0.5277158
711.70 0.5275485
711.80 0.5273814
711.90 0.5272143
712.00 0.5270473
712.10 0.5268817
712.20 0.5267165
712.30 0.5265514
712.40 0.5263864
712.50 0.5262215
712.60 0.5260566
712.70 0.5258918
712.80 0.525727
712.90 0.5255624
713.00 0.5253978
713.10 0.5252333
713.20 0.5250688
713.30 0.5249044
713.40 0.5247401
713.50 0.5245759
713.60 0.5244117
713.70 0.5242533
713.80 0.5241064
713.90 0.5239596
714.00 0.5238128
714.10 0.5236478
714.20 0.5234786
714.30 0.5233095
714.40 0.5231404
714.50 0.5229714
714.60 0.5228025
714.70 0.5226337
714.80 0.5224649
714.90 0.5222963
715.00 0.5221276
715.10 0.5219591
715.20 0.5217906
715.30 0.5216222
715.40 0.5214539
715.50 0.5212857
715.60 0.5211175
715.70 0.5209494
715.80 0.5207814
715.90 0.5206134
716.00 0.5204456
716.10 0.5202778
716.20 0.52011
716.30 0.5199424
716.40 0.5197748
716.50 0.5196073
716.60 0.519444
716.70 0.5192817
716.80 0.5191194
716.90 0.5189573
717.00 0.5187952
717.10 0.5186332
717.20 0.5184713
717.30 0.5183094
717.40 0.5181476
717.50 0.5179859
717.60 0.5178242
717.70 0.5176627
717.80 0.5175011
717.90 0.5173397
718.00 0.5171783
718.10 0.517017
718.20 0.5168525
718.30 0.5166863
718.40 0.5165201
718.50 0.516354
718.60 0.516188
718.70 0.5160221
718.80 0.5158563
718.90 0.5156905
719.00 0.5155248
719.10 0.5153591
719.20 0.5151935
719.30 0.515028
719.40 0.5148626
719.50 0.5146973
719.60 0.514532
719.70 0.5143668
719.80 0.5142016
719.90 0.5140366
720.00 0.5138716
720.10 0.5137067
720.20 0.5135418
720.30 0.513377
720.40 0.5132123
720.50 0.5130477
720.60 0.5128831
720.70 0.5127331
720.80 0.5125908
720.90 0.5124341
721.00 0.5122768
721.10 0.5121196
721.20 0.5119625
721.30 0.5118054
721.40 0.5116484
721.50 0.5114915
721.60 0.5113347
721.70 0.5111779
721.80 0.5110212
721.90 0.5108645
722.00 0.5107079
722.10 0.5105514
722.20 0.510395
722.30 0.5102386
722.40 0.5100822
722.50 0.509926
722.60 0.5097698
722.70 0.5095996
722.80 0.5094219
722.90 0.5092442
723.00 0.5090666
723.10 0.5088891
723.20 0.5087117
723.30 0.5085344
723.40 0.5083571
723.50 0.5081799
723.60 0.5080028
723.70 0.5078258
723.80 0.5076488
723.90 0.5074719
724.00 0.5072952
724.10 0.5071184
724.20 0.5069544
724.30 0.5067973
724.40 0.5066403
724.50 0.5064833
724.60 0.5063263
724.70 0.5061695
724.80 0.5060127
724.90 0.505856
725.00 0.5056993
725.10 0.5055427
725.20 0.5053862
725.30 0.5052298
725.40 0.5050734
725.50 0.5049171
725.60 0.5047608
725.70 0.5046046
725.80 0.5044596
725.90 0.5043206
726.00 0.5041817
726.10 0.5040428
726.20 0.503904
726.30 0.5037653
726.40 0.5036266
726.50 0.503488
726.60 0.5033494
726.70 0.5032109
726.80 0.5030429
726.90 0.5028591
727.00 0.5026753
727.10 0.5024917
727.20 0.5023081
727.30 0.5021247
727.40 0.5019707
727.50 0.5018328
727.60 0.5016948
727.70 0.5015569
727.80 0.5014191
727.90 0.5012814
728.00 0.5011437
728.10 0.500989
728.20 0.5005969
728.30 0.5004595
728.40 0.5003221
728.50 0.5001847
728.60 0.5000474
728.70 0.4999102
728.80 0.499773
728.90 0.4996359
729.00 0.4994695
729.10 0.4992874
729.20 0.4991053
729.30 0.4989233
729.40 0.4987414
729.50 0.4985596
729.60 0.4984072
729.70 0.4982706
729.80 0.4981341
729.90 0.4979976
730.00 0.4978612
730.10 0.4977248
730.20 0.4975885
730.30 0.4974522
730.40 0.497316
730.50 0.4971799
730.60 0.4970219
730.70 0.4968521
730.80 0.4966825
730.90 0.4965129
731.00 0.4963434
731.10 0.4961739
731.20 0.4960046
731.30 0.4958353
731.40 0.4956661
731.50 0.4954969
731.60 0.4953279
731.70 0.4951589
731.80 0.4949899
731.90 0.4948211
732.00 0.4946523
732.10 0.4944836
732.20 0.4943252
732.30 0.4941723
732.40 0.4940195
732.50 0.4938667
732.60 0.493714
732.70 0.4935614
732.80 0.4934088
732.90 0.4932563
733.00 0.4931039
733.10 0.4929515
733.20 0.4927992
733.30 0.4926469
733.40 0.4924948
733.50 0.4923426
733.60 0.4921906
733.70 0.4920397
733.80 0.4918895
733.90 0.4917393
734.00 0.4915892
734.10 0.4914392
734.20 0.4912892
734.30 0.4911393
734.40 0.4909894
734.50 0.4908396
734.60 0.4906899
734.70 0.4905402
734.80 0.4903906
734.90 0.4902411
735.00 0.4900916
735.10 0.4899422
735.20 0.4897929
735.30 0.4896449
735.40 0.4895117
735.50 0.4893786
735.60 0.4892456
735.70 0.4890988
735.80 0.4889446
735.90 0.4887904
736.00 0.4886363
736.10 0.4884823
736.20 0.4883284
736.30 0.4881745
736.40 0.4880207
736.50 0.487867
736.60 0.4877133
736.70 0.4875597
736.80 0.4874061
736.90 0.4872526
737.00 0.4870992
737.10 0.4869459
737.20 0.4867926
737.30 0.4866393
737.40 0.4864862
737.50 0.4863331
737.60 0.4861801
737.70 0.4860271
737.80 0.4858742
737.90 0.4857214
738.00 0.4855686
738.10 0.4854159
738.20 0.4852618
738.30 0.4851069
738.40 0.4849521
738.50 0.4847974
738.60 0.4846427
738.70 0.4844881
738.80 0.4843335
738.90 0.4841791
739.00 0.4840247
739.10 0.4838703
739.20 0.4837161
739.30 0.4835618
739.40 0.4834077
739.50 0.4832536
739.60 0.4830996
739.70 0.4829457
739.80 0.4827918
739.90 0.482638
740.00 0.4824842
740.10 0.4823305
740.20 0.4821769
740.30 0.4820234
740.40 0.4818699
740.50 0.4817165
740.60 0.4815631
740.70 0.4814098
740.80 0.4812566
740.90 0.4811034
741.00 0.4809503
741.10 0.4807973
741.20 0.4806443
741.30 0.4804914
741.40 0.4803386
741.50 0.4801858
741.60 0.4800331
741.70 0.4798805
741.80 0.4797279
741.90 0.4795754
742.00 0.4794229
742.10 0.4792705
742.20 0.4791182
742.30 0.478966
742.40 0.4788138
742.50 0.4786617
742.60 0.4785096
742.70 0.4783565
742.80 0.4782025
742.90 0.4780485
743.00 0.4778947
743.10 0.4777409
743.20 0.4775871
743.30 0.4774335
743.40 0.4772799
743.50 0.4771263
743.60 0.4769729
743.70 0.4768204
743.80 0.4766718
743.90 0.4765233
744.00 0.4763749
744.10 0.4762265
744.20 0.4760782
744.30 0.47593
744.40 0.4757818
744.50 0.4756337
744.60 0.4754856
744.70 0.4753376
744.80 0.4751897
744.90 0.4750418
745.00 0.474894
745.10 0.4747463
745.20 0.4745986
745.30 0.474451
745.40 0.4743034
745.50 0.4741559
745.60 0.4740085
745.70 0.4738611
745.80 0.4737138
745.90 0.4735666
746.00 0.4734194
746.10 0.4732722
746.20 0.4731252
746.30 0.4729782
746.40 0.4728312
746.50 0.4726844
746.60 0.4725375
746.70 0.4723908
746.80 0.4722441
746.90 0.4720975
747.00 0.4719509
747.10 0.4718044
747.20 0.4716579
747.30 0.4715116
747.40 0.4713652
747.50 0.471219
747.60 0.4710728
747.70 0.4709266
747.80 0.4707805
747.90 0.4706345
748.00 0.4704886
748.10 0.4703427
748.20 0.4701968
748.30 0.4700511
748.40 0.4699054
748.50 0.4697597
748.60 0.4696141
748.70 0.4694686
748.80 0.4693231
748.90 0.4691777
749.00 0.4690324
749.10 0.4688871
749.20 0.4687419
749.30 0.4685967
749.40 0.4684516
749.50 0.4683066
749.60 0.4681616
749.70 0.4680167
749.80 0.4678718
749.90 0.467727
750.00 0.4675823
750.10 0.4674356
750.20 0.4672837
750.30 0.4671318
750.40 0.4669801
750.50 0.4668284
750.60 0.4666767
750.70 0.4665252
750.80 0.4663737
750.90 0.4662222
751.00 0.4660708
751.10 0.4659195
751.20 0.4657683
751.30 0.4656171
751.40 0.465466
751.50 0.4653149
751.60 0.4651639
751.70 0.465013
751.80 0.4648621
751.90 0.4647113
752.00 0.4645606
752.10 0.4644099
752.20 0.4642593
752.30 0.4641088
752.40 0.4639583
752.50 0.4638079
752.60 0.4636575
752.70 0.4635072
752.80 0.463357
752.90 0.4632068
753.00 0.4630567
753.10 0.4629067
753.20 0.4627567
753.30 0.4626068
753.40 0.4624569
753.50 0.4623071
753.60 0.4621574
753.70 0.4620078
753.80 0.4618582
753.90 0.4617139
754.00 0.4615712
754.10 0.4614285
754.20 0.4612859
754.30 0.4611434
754.40 0.4610009
754.50 0.4608585
754.60 0.4607161
754.70 0.4605738
754.80 0.4604316
754.90 0.4602894
755.00 0.4601472
755.10 0.4600052
755.20 0.4598632
755.30 0.4597212
755.40 0.4595793
755.50 0.4594375
755.60 0.4592957
755.70 0.459154
755.80 0.4590124
755.90 0.4588708
756.00 0.4587292
756.10 0.4585878
756.20 0.4584463
756.30 0.458305
756.40 0.4581637
756.50 0.4580224
756.60 0.4578812
756.70 0.4577401
756.80 0.4575991
756.90 0.457458
757.00 0.4573171
757.10 0.4571762
757.20 0.4570354
757.30 0.4568946
757.40 0.4567539
757.50 0.4566132
757.60 0.4564708
757.70 0.4563239
757.80 0.456177
757.90 0.4560301
758.00 0.4558834
758.10 0.4557367
758.20 0.45559
758.30 0.4554434
758.40 0.4552969
758.50 0.4551504
758.60 0.455004
758.70 0.4548577
758.80 0.4547114
758.90 0.4545652
759.00 0.454419
759.10 0.4542729
759.20 0.4541269
759.30 0.4539809
759.40 0.453835
759.50 0.4536891
759.60 0.4535433
759.70 0.4533976
759.80 0.4532519
759.90 0.4531063
760.00 0.4529608
760.10 0.4528153
760.20 0.4526699
760.30 0.4525245
760.40 0.4523792
760.50 0.4522339
760.60 0.4520888
760.70 0.4519436
760.80 0.4517986
760.90 0.4516536
761.00 0.4515086
761.10 0.4513638
761.20 0.4512189
761.30 0.4510742
761.40 0.4509321
761.50 0.450794
761.60 0.450656
761.70 0.450518
761.80 0.4503801
761.90 0.4502422
762.00 0.4501044
762.10 0.4499667
762.20 0.449829
762.30 0.4496914
762.40 0.4495538
762.50 0.4494163
762.60 0.4492788
762.70 0.4491414
762.80 0.4490041
762.90 0.4488668
763.00 0.4487296
763.10 0.4485924
763.20 0.4484553
763.30 0.4483182
763.40 0.4481812
763.50 0.4480442
763.60 0.4479073
763.70 0.4477705
763.80 0.4476337
763.90 0.447497
764.00 0.4473603
764.10 0.4472237
764.20 0.4470871
764.30 0.4469506
764.40 0.4468142
764.50 0.4466778
764.60 0.4465415
764.70 0.4464052
764.80 0.446269
764.90 0.4461328
765.00 0.4459967
765.10 0.4458606
765.20 0.4457214
765.30 0.4455792
765.40 0.4454371
765.50 0.4452951
765.60 0.4451531
765.70 0.4450111
765.80 0.4448693
765.90 0.4447274
766.00 0.4445857
766.10 0.444444
766.20 0.4443023
766.30 0.4441608
766.40 0.4440192
766.50 0.4438778
766.60 0.4437364
766.70 0.443595
766.80 0.4434537
766.90 0.4433125
767.00 0.4431713
767.10 0.4430302
767.20 0.4428891
767.30 0.4427482
767.40 0.4426072
767.50 0.4424663
767.60 0.4423255
767.70 0.4421848
767.80 0.442044
767.90 0.4419034
768.00 0.4417628
768.10 0.4416223
768.20 0.4414818
768.30 0.4413414
768.40 0.441201
768.50 0.4410607
768.60 0.4409205
768.70 0.4407803
768.80 0.4406402
768.90 0.4405001
769.00 0.4403601
769.10 0.4402202
769.20 0.4400803
769.30 0.4399405
769.40 0.4398007
769.50 0.439661
769.60 0.4395213
769.70 0.4393817
769.80 0.4392422
769.90 0.4391027
770.00 0.4389632
770.10 0.4388239
770.20 0.4386846
770.30 0.4385453
770.40 0.4384061
770.50 0.438267
770.60 0.4381279
770.70 0.4379888
770.80 0.4378499
770.90 0.437711
771.00 0.4375721
771.10 0.4374333
771.20 0.4372946
771.30 0.4371559
771.40 0.4370173
771.50 0.4368787
771.60 0.4367402
771.70 0.4366017
771.80 0.4364633
771.90 0.436325
772.00 0.4361867
772.10 0.4360485
772.20 0.4359103
772.30 0.4357722
772.40 0.4356341
772.50 0.4354961
772.60 0.4353582
772.70 0.4352203
772.80 0.4350825
772.90 0.4349481
773.00 0.4348137
773.10 0.4346794
773.20 0.4345452
773.30 0.434411
773.40 0.4342769
773.50 0.4341428
773.60 0.4340088
773.70 0.4338748
773.80 0.4337409
773.90 0.4336071
774.00 0.4334733
774.10 0.4333395
774.20 0.4332058
774.30 0.4330722
774.40 0.4329386
774.50 0.4328051
774.60 0.4326716
774.70 0.4325382
774.80 0.4324048
774.90 0.4322715
775.00 0.4321382
775.10 0.432005
775.20 0.4318719
775.30 0.4317388
775.40 0.4316058
775.50 0.4314728
775.60 0.4313398
775.70 0.431207
775.80 0.4310741
775.90 0.4309414
776.00 0.4308087
776.10 0.430676
776.20 0.4305434
776.30 0.4304108
776.40 0.4302783
776.50 0.4301459
776.60 0.4300135
776.70 0.4298812
776.80 0.4297489
776.90 0.4296167
777.00 0.4294845
777.10 0.4293524
777.20 0.4292203
777.30 0.4290883
777.40 0.4289563
777.50 0.4288244
777.60 0.4286926
777.70 0.4285608
777.80 0.428429
777.90 0.4282973
778.00 0.4281657
778.10 0.4280341
778.20 0.4279026
778.30 0.4277711
778.40 0.4276397
778.50 0.4275083
778.60 0.427377
778.70 0.4272457
778.80 0.4271145
778.90 0.4269834
779.00 0.4268523
779.10 0.4267212
779.20 0.4265902
779.30 0.4264593
779.40 0.4263284
779.50 0.4261975
779.60 0.4260668
779.70 0.425936
779.80 0.4258053
779.90 0.4256747
780.00 0.4255441
780.10 0.4254136
780.20 0.4252832
780.30 0.4251527
780.40 0.4250224
780.50 0.4248921
780.60 0.4247604
780.70 0.4246282
780.80 0.4244961
780.90 0.424364
781.00 0.424232
781.10 0.4241
781.20 0.4239681
781.30 0.4238362
781.40 0.4237044
781.50 0.4235727
781.60 0.423441
781.70 0.4233093
781.80 0.4231778
781.90 0.4230462
782.00 0.4229147
782.10 0.4227833
782.20 0.4226519
782.30 0.4225206
782.40 0.4223893
782.50 0.4222581
782.60 0.4221269
782.70 0.4219958
782.80 0.4218648
782.90 0.4217338
783.00 0.4216028
783.10 0.4214719
783.20 0.4213411
783.30 0.4212103
783.40 0.4210795
783.50 0.4209488
783.60 0.4208182
783.70 0.4206876
783.80 0.4205571
783.90 0.4204266
784.00 0.4202962
784.10 0.4201658
784.20 0.4200355
784.30 0.4199053
784.40 0.4197751
784.50 0.4196449
784.60 0.4195143
784.70 0.4193825
784.80 0.4192508
784.90 0.4191191
785.00 0.4189875
785.10 0.418856
785.20 0.4187245
785.30 0.418593
785.40 0.4184616
785.50 0.4183303
785.60 0.418199
785.70 0.4180678
785.80 0.4179366
785.90 0.4178055
786.00 0.4176744
786.10 0.4175434
786.20 0.4174124
786.30 0.4172815
786.40 0.4171506
786.50 0.4170198
786.60 0.4168891
786.70 0.4167584
786.80 0.4166277
786.90 0.4164971
787.00 0.4163666
787.10 0.4162361
787.20 0.4161056
787.30 0.4159752
787.40 0.4158449
787.50 0.4157146
787.60 0.4155844
787.70 0.4154542
787.80 0.4153241
787.90 0.415194
788.00 0.415064
788.10 0.4149341
788.20 0.4148042
788.30 0.4146743
788.40 0.4145452
788.50 0.4144166
788.60 0.414288
788.70 0.4141595
788.80 0.414031
788.90 0.4139026
789.00 0.4137742
789.10 0.4136459
789.20 0.4135176
789.30 0.4133894
789.40 0.4132612
789.50 0.4131331
789.60 0.413005
789.70 0.412877
789.80 0.4127491
789.90 0.4126211
790.00 0.4124933
790.10 0.4123655
790.20 0.4122377
790.30 0.41211
790.40 0.4119824
790.50 0.4118548
790.60 0.4117272
790.70 0.4115997
790.80 0.4114723
790.90 0.4113449
791.00 0.4112175
791.10 0.4110902
791.20 0.410963
791.30 0.4108358
791.40 0.4107086
791.50 0.4105815
791.60 0.4104545
791.70 0.4103275
791.80 0.4102006
791.90 0.4100737
792.00 0.4099469
792.10 0.4098201
792.20 0.4096933
792.30 0.4095667
792.40 0.40944
792.50 0.4093134
792.60 0.4091869
792.70 0.4090604
792.80 0.408934
792.90 0.4088076
793.00 0.4086813
793.10 0.408555
793.20 0.4084288
793.30 0.4083026
793.40 0.4081765
793.50 0.4080504
793.60 0.4079243
793.70 0.4077984
793.80 0.4076724
793.90 0.4075466
794.00 0.4074207
794.10 0.407295
794.20 0.4071692
794.30 0.4070436
794.40 0.4069179
794.50 0.4067924
794.60 0.4066668
794.70 0.4065414
794.80 0.4064159
794.90 0.4062906
795.00 0.4061652
795.10 0.40604
795.20 0.4059147
795.30 0.4057896
795.40 0.4056645
795.50 0.4055394
795.60 0.4054144
795.70 0.4052894
795.80 0.4051645
795.90 0.4050396
796.00 0.4049148
796.10 0.40479
796.20 0.4046653
796.30 0.4045384
796.40 0.4044112
796.50 0.404284
796.60 0.4041568
796.70 0.4040297
796.80 0.4039027
796.90 0.4037757
797.00 0.4036488
797.10 0.4035219
797.20 0.4033951
797.30 0.4032683
797.40 0.4031416
797.50 0.4030149
797.60 0.4028882
797.70 0.4027617
797.80 0.4026351
797.90 0.4025087
798.00 0.4023822
798.10 0.4022559
798.20 0.4021295
798.30 0.4020033
798.40 0.401877
798.50 0.4017509
798.60 0.4016247
798.70 0.4014987
798.80 0.4013727
798.90 0.4012467
799.00 0.4011208
799.10 0.4009949
799.20 0.4008691
799.30 0.4007433
799.40 0.4006176
799.50 0.4004919
799.60 0.4003663
799.70 0.4002407
799.80 0.4001152
799.90 0.3999898
800.00 0.3998643
800.10 0.399739
800.20 0.3996137
800.30 0.3994884
800.40 0.3993632
800.50 0.399238
800.60 0.3991129
800.70 0.3989878
800.80 0.3988628
800.90 0.3987378
801.00 0.3986129
801.10 0.3984881
801.20 0.3983632
801.30 0.3982385
801.40 0.3981138
801.50 0.3979891
801.60 0.3978645
801.70 0.3977399
801.80 0.3976154
801.90 0.3974909
802.00 0.3973665
802.10 0.3972421
802.20 0.3971178
802.30 0.3969936
802.40 0.3968693
802.50 0.3967452
802.60 0.396621
802.70 0.396497
802.80 0.396373
802.90 0.396249
803.00 0.3961251
803.10 0.3960012
803.20 0.3958774
803.30 0.3957536
803.40 0.3956299
803.50 0.3955062
803.60 0.3953826
803.70 0.395259
803.80 0.3951355
803.90 0.395012
804.00 0.3948886
804.10 0.3947652
804.20 0.3946425
804.30 0.3945222
804.40 0.394402
804.50 0.3942819
804.60 0.3941617
804.70 0.3940417
804.80 0.3939216
804.90 0.3938017
805.00 0.3936817
805.10 0.3935618
805.20 0.393442
805.30 0.3933222
805.40 0.3932025
805.50 0.3930828
805.60 0.3929631
805.70 0.3928435
805.80 0.392724
805.90 0.3926045
806.00 0.392485
806.10 0.3923656
806.20 0.3922462
806.30 0.3921269
806.40 0.3920077
806.50 0.3918884
806.60 0.3917693
806.70 0.3916501
806.80 0.3915311
806.90 0.391412
807.00 0.391293
807.10 0.3911741
807.20 0.3910552
807.30 0.3909364
807.40 0.3908176
807.50 0.3906988
807.60 0.3905801
807.70 0.3904614
807.80 0.3903428
807.90 0.3902243
808.00 0.3901057
808.10 0.3899873
808.20 0.3898688
808.30 0.3897449
808.40 0.3896211
808.50 0.3894974
808.60 0.3893736
808.70 0.38925
808.80 0.3891264
808.90 0.3890028
809.00 0.3888793
809.10 0.3887558
809.20 0.3886324
809.30 0.3885091
809.40 0.3883857
809.50 0.3882625
809.60 0.3881392
809.70 0.3880161
809.80 0.387893
809.90 0.3877699
810.00 0.3876469
810.10 0.3875239
810.20 0.387401
810.30 0.3872781
810.40 0.3871553
810.50 0.3870325
810.60 0.3869098
810.70 0.3867871
810.80 0.3866644
810.90 0.3865419
811.00 0.3864193
811.10 0.3862968
811.20 0.3861744
811.30 0.386052
811.40 0.3859297
811.50 0.3858074
811.60 0.3856851
811.70 0.3855629
811.80 0.3854408
811.90 0.3853187
812.00 0.3851966
812.10 0.3850746
812.20 0.3849527
812.30 0.3848326
812.40 0.384713
812.50 0.3845935
812.60 0.384474
812.70 0.3843545
812.80 0.3842351
812.90 0.3841158
813.00 0.3839965
813.10 0.3838772
813.20 0.383758
813.30 0.3836388
813.40 0.3835197
813.50 0.3834006
813.60 0.3832816
813.70 0.3831626
813.80 0.3830437
813.90 0.3829248
814.00 0.382806
814.10 0.3826872
814.20 0.3825684
814.30 0.3824497
814.40 0.3823311
814.50 0.3822125
814.60 0.3820939
814.70 0.3819754
814.80 0.3818569
814.90 0.3817385
815.00 0.3816202
815.10 0.3815018
815.20 0.3813836
815.30 0.3812653
815.40 0.3811471
815.50 0.381029
815.60 0.3809109
815.70 0.3807929
815.80 0.3806749
815.90 0.3805569
816.00 0.380439
816.10 0.3803212
816.20 0.3802033
816.30 0.3800856
816.40 0.3799679
816.50 0.3798502
816.60 0.3797326
816.70 0.379615
816.80 0.3794974
816.90 0.3793799
817.00 0.3792625
817.10 0.3791451
817.20 0.3790278
817.30 0.3789104
817.40 0.3787932
817.50 0.378676
817.60 0.3785588
817.70 0.3784417
817.80 0.3783246
817.90 0.3782076
818.00 0.3780906
818.10 0.3779737
818.20 0.3778568
818.30 0.3777399
818.40 0.3776231
818.50 0.3775064
818.60 0.3773897
818.70 0.377273
818.80 0.3771564
818.90 0.3770398
819.00 0.3769233
819.10 0.3768068
819.20 0.3766904
819.30 0.3765735
819.40 0.3764564
819.50 0.3763394
819.60 0.3762224
819.70 0.3761054
819.80 0.3759885
819.90 0.3758716
820.00 0.3757548
820.10 0.3756403
820.20 0.3755487
820.30 0.3754571
820.40 0.3753509
820.50 0.375234
820.60 0.3751172
820.70 0.3750004
820.80 0.3748837
820.90 0.374767
821.00 0.3746503
821.10 0.3745338
821.20 0.3744172
821.30 0.3743007
821.40 0.3741843
821.50 0.3740678
821.60 0.3739515
821.70 0.3738352
821.80 0.3737189
821.90 0.3736027
822.00 0.3734865
822.10 0.3733703
822.20 0.3732543
822.30 0.3731382
822.40 0.3730222
822.50 0.3729063
822.60 0.3727904
822.70 0.3726745
822.80 0.3725587
822.90 0.3724429
823.00 0.3723272
823.10 0.3722115
823.20 0.3720959
823.30 0.3719803
823.40 0.3718647
823.50 0.3717492
823.60 0.3716338
823.70 0.3715183
823.80 0.371403
823.90 0.3712877
824.00 0.3711724
824.10 0.3710571
824.20 0.370942
824.30 0.3708268
824.40 0.3707117
824.50 0.3705967
824.60 0.3704817
824.70 0.3703667
824.80 0.3702518
824.90 0.3701369
825.00 0.3700221
825.10 0.3699073
825.20 0.3697926
825.30 0.3696779
825.40 0.3695632
825.50 0.3694486
825.60 0.3693341
825.70 0.3692196
825.80 0.3691051
825.90 0.3689907
826.00 0.3688763
826.10 0.3687619
826.20 0.3686477
826.30 0.3685374
826.40 0.36843
826.50 0.3683226
826.60 0.3682152
826.70 0.3681078
826.80 0.3680005
826.90 0.3678933
827.00 0.367786
827.10 0.3676789
827.20 0.3675717
827.30 0.3674646
827.40 0.3673576
827.50 0.3672506
827.60 0.3671436
827.70 0.3670366
827.80 0.3669298
827.90 0.3668229
828.00 0.3667161
828.10 0.3666093
828.20 0.3665026
828.30 0.3663959
828.40 0.3662893
828.50 0.3661827
828.60 0.3660722
828.70 0.3659586
828.80 0.365845
828.90 0.3657314
829.00 0.3656179
829.10 0.3655045
829.20 0.365391
829.30 0.3652777
829.40 0.3651643
829.50 0.365051
829.60 0.3649378
829.70 0.3648246
829.80 0.3647114
829.90 0.3645983
830.00 0.3644852
830.10 0.3643722
830.20 0.3642592
830.30 0.3641463
830.40 0.3640334
830.50 0.3639205
830.60 0.3638077
830.70 0.363695
830.80 0.3635822
830.90 0.3634696
831.00 0.3633569
831.10 0.3632443
831.20 0.3631318
831.30 0.3630193
831.40 0.3629068
831.50 0.3627944
831.60 0.362682
831.70 0.3625697
831.80 0.3624574
831.90 0.3623452
832.00 0.362233
832.10 0.3621208
832.20 0.3620087
832.30 0.3618967
832.40 0.3617846
832.50 0.3616726
832.60 0.3615607
832.70 0.3614488
832.80 0.361337
832.90 0.3612252
833.00 0.3611134
833.10 0.3610017
833.20 0.36089
833.30 0.3607784
833.40 0.3606668
833.50 0.3605552
833.60 0.3604437
833.70 0.3603323
833.80 0.3602208
833.90 0.3601095
834.00 0.3599981
834.10 0.3598868
834.20 0.3597756
834.30 0.3596644
834.40 0.3595532
834.50 0.3594421
834.60 0.359331
834.70 0.35922
834.80 0.359109
834.90 0.3589981
835.00 0.3588872
835.10 0.3587763
835.20 0.3586655
835.30 0.3585547
835.40 0.358444
835.50 0.3583333
835.60 0.3582226
835.70 0.358112
835.80 0.3580015
835.90 0.357891
836.00 0.3577805
836.10 0.3576701
836.20 0.3575597
836.30 0.3574493
836.40 0.357339
836.50 0.3572287
836.60 0.3571185
836.70 0.3570083
836.80 0.3568982
836.90 0.3567883
837.00 0.3566785
837.10 0.3565687
837.20 0.356459
837.30 0.3563493
837.40 0.3562397
837.50 0.3561301
837.60 0.3560205
837.70 0.355911
837.80 0.3558016
837.90 0.3556921
838.00 0.3555828
838.10 0.3554734
838.20 0.3553641
838.30 0.3552549
838.40 0.3551456
838.50 0.3550365
838.60 0.3549273
838.70 0.3548182
838.80 0.3547092
838.90 0.3546002
839.00 0.3544912
839.10 0.3543823
839.20 0.3542734
839.30 0.3541646
839.40 0.3540558
839.50 0.353947
839.60 0.3538383
839.70 0.3537297
839.80 0.353621
839.90 0.3535124
840.00 0.3534039
840.10 0.3532954
840.20 0.3531869
840.30 0.3530785
840.40 0.3529701
840.50 0.3528618
840.60 0.3527535
840.70 0.3526452
840.80 0.352537
840.90 0.3524289
841.00 0.3523207
841.10 0.3522127
841.20 0.3521046
841.30 0.3519966
841.40 0.3518887
841.50 0.3517807
841.60 0.3516729
841.70 0.351565
841.80 0.3514572
841.90 0.3513495
842.00 0.3512418
842.10 0.3511341
842.20 0.3510265
842.30 0.3509189
842.40 0.3508113
842.50 0.3507038
842.60 0.3505964
842.70 0.350489
842.80 0.3503816
842.90 0.3502742
843.00 0.3501669
843.10 0.3500597
843.20 0.3499525
843.30 0.3498453
843.40 0.3497381
843.50 0.3496311
843.60 0.349524
843.70 0.349417
843.80 0.34931
843.90 0.3492031
844.00 0.3490962
844.10 0.3489894
844.20 0.3488825
844.30 0.3487758
844.40 0.3486691
844.50 0.3485624
844.60 0.3484557
844.70 0.3483491
844.80 0.3482426
844.90 0.348136
845.00 0.3480296
845.10 0.3479231
845.20 0.3478167
845.30 0.3477106
845.40 0.3476045
845.50 0.3474985
845.60 0.3473924
845.70 0.3472865
845.80 0.3471806
845.90 0.3470747
846.00 0.3469688
846.10 0.346863
846.20 0.3467573
846.30 0.3466515
846.40 0.3465459
846.50 0.3464402
846.60 0.3463346
846.70 0.3462291
846.80 0.3461235
846.90 0.3460181
847.00 0.3459126
847.10 0.3458072
847.20 0.3457019
847.30 0.3455965
847.40 0.3454913
847.50 0.345386
847.60 0.3452808
847.70 0.3451757
847.80 0.3450705
847.90 0.3449655
848.00 0.3448604
848.10 0.3447554
848.20 0.3446505
848.30 0.3445455
848.40 0.3444407
848.50 0.3443358
848.60 0.344231
848.70 0.3441263
848.80 0.3440215
848.90 0.3439168
849.00 0.3438122
849.10 0.3437076
849.20 0.343603
849.30 0.3434985
849.40 0.343394
849.50 0.3432896
849.60 0.3431852
849.70 0.3430808
849.80 0.3429765
849.90 0.3428722
850.00 0.342768
850.10 0.3426638
850.20 0.3425596
850.30 0.3424555
850.40 0.3423514
850.50 0.3422473
850.60 0.3421433
850.70 0.3420394
850.80 0.3419354
850.90 0.3418315
851.00 0.3417277
851.10 0.3416239
851.20 0.3415201
851.30 0.3414164
851.40 0.3413127
851.50 0.341209
851.60 0.3411054
851.70 0.3410018
851.80 0.3408983
851.90 0.3407948
852.00 0.3406914
852.10 0.3405879
852.20 0.3404846
852.30 0.3403812
852.40 0.3402779
852.50 0.3401747
852.60 0.3400714
852.70 0.3399682
852.80 0.3398651
852.90 0.339762
853.00 0.3396589
853.10 0.3395559
853.20 0.3394529
853.30 0.33935
853.40 0.3392471
853.50 0.3391442
853.60 0.3390414
853.70 0.3389387
853.80 0.3388361
853.90 0.3387337
854.00 0.3386312
854.10 0.3385288
854.20 0.3384264
854.30 0.3383241
854.40 0.3382218
854.50 0.3381195
854.60 0.3380173
854.70 0.3379152
854.80 0.337813
854.90 0.3377109
855.00 0.3376089
855.10 0.3375068
855.20 0.3374048
855.30 0.3373029
855.40 0.337201
855.50 0.3370991
855.60 0.3369973
855.70 0.3368955
855.80 0.3367937
855.90 0.336692
856.00 0.3365904
856.10 0.3364887
856.20 0.3363871
856.30 0.3362855
856.40 0.336184
856.50 0.3360825
856.60 0.3359811
856.70 0.3358797
856.80 0.3357783
856.90 0.335677
857.00 0.3355757
857.10 0.3354744
857.20 0.3353732
857.30 0.335272
857.40 0.3351709
857.50 0.3350698
857.60 0.3349687
857.70 0.3348677
857.80 0.3347667
857.90 0.3346657
858.00 0.3345648
858.10 0.3344639
858.20 0.3343631
858.30 0.3342623
858.40 0.3341615
858.50 0.3340608
858.60 0.3339601
858.70 0.3338595
858.80 0.3337589
858.90 0.3336583
859.00 0.3335578
859.10 0.3334573
859.20 0.3333568
859.30 0.3332564
859.40 0.333156
859.50 0.3330556
859.60 0.3329553
859.70 0.3328551
859.80 0.3327548
859.90 0.3326546
860.00 0.3325545
860.10 0.3324543
860.20 0.3323543
860.30 0.3322542
860.40 0.3321542
860.50 0.3320542
860.60 0.3319543
860.70 0.3318544
860.80 0.3317545
860.90 0.3316547
861.00 0.3315549
861.10 0.3314552
861.20 0.3313555
861.30 0.3312558
861.40 0.3311562
861.50 0.3310566
861.60 0.330957
861.70 0.3308575
861.80 0.330758
861.90 0.3306586
862.00 0.3305592
862.10 0.3304598
862.20 0.3303602
862.30 0.3302589
862.40 0.3301576
862.50 0.3300564
862.60 0.3299552
862.70 0.329854
862.80 0.3297529
862.90 0.3296518
863.00 0.3295507
863.10 0.3294497
863.20 0.3293487
863.30 0.3292478
863.40 0.3291469
863.50 0.329046
863.60 0.3289452
863.70 0.3288444
863.80 0.3287437
863.90 0.328643
864.00 0.3285423
864.10 0.3284416
864.20 0.328341
864.30 0.3282405
864.40 0.32814
864.50 0.3280395
864.60 0.327939
864.70 0.3278386
864.80 0.3277383
864.90 0.3276379
865.00 0.3275376
865.10 0.3274374
865.20 0.3273371
865.30 0.327237
865.40 0.3271368
865.50 0.3270367
865.60 0.3269366
865.70 0.3268366
865.80 0.3267366
865.90 0.3266367
866.00 0.3265367
866.10 0.3264368
866.20 0.326337
866.30 0.3262372
866.40 0.3261374
866.50 0.3260377
866.60 0.325938
866.70 0.3258383
866.80 0.3257387
866.90 0.3256391
867.00 0.3255396
867.10 0.3254401
867.20 0.3253406
867.30 0.3252412
867.40 0.3251418
867.50 0.3250424
867.60 0.3249431
867.70 0.3248438
867.80 0.3247445
867.90 0.3246453
868.00 0.3245462
868.10 0.324447
868.20 0.3243479
868.30 0.3242489
868.40 0.3241498
868.50 0.3240508
868.60 0.3239519
868.70 0.323853
868.80 0.3237541
868.90 0.3236552
869.00 0.3235564
869.10 0.3234577
869.20 0.3233589
869.30 0.3232602
869.40 0.3231616
869.50 0.323063
869.60 0.3229644
869.70 0.3228658
869.80 0.3227673
869.90 0.3226688
870.00 0.3225704
870.10 0.322472
870.20 0.3223736
870.30 0.3222753
870.40 0.322177
870.50 0.3220788
870.60 0.3219806
870.70 0.3218824
870.80 0.3217842
870.90 0.3216883
871.00 0.3215926
871.10 0.321497
871.20 0.3214014
871.30 0.3213059
871.40 0.3212104
871.50 0.3211149
871.60 0.3210195
871.70 0.3209241
871.80 0.3208287
871.90 0.3207334
872.00 0.3206381
872.10 0.3205428
872.20 0.3204476
872.30 0.3203524
872.40 0.3202572
872.50 0.3201621
872.60 0.320067
872.70 0.319972
872.80 0.3198769
872.90 0.319782
873.00 0.319687
873.10 0.3195921
873.20 0.3194972
873.30 0.3194024
873.40 0.3193076
873.50 0.3192128
873.60 0.3191181
873.70 0.3190234
873.80 0.3189287
873.90 0.3188341
874.00 0.3187395
874.10 0.3186449
874.20 0.3185504
874.30 0.3184559
874.40 0.3183614
874.50 0.318267
874.60 0.3181726
874.70 0.3180783
874.80 0.3179839
874.90 0.3178897
875.00 0.3177954
875.10 0.3177012
875.20 0.317607
875.30 0.3175129
875.40 0.3174188
875.50 0.3173247
875.60 0.3172307
875.70 0.3171366
875.80 0.3170427
875.90 0.3169487
876.00 0.3168548
876.10 0.316761
876.20 0.3166671
876.30 0.3165733
876.40 0.3164796
876.50 0.3163858
876.60 0.3162922
876.70 0.3161985
876.80 0.3161049
876.90 0.3160113
877.00 0.3159177
877.10 0.3158242
877.20 0.3157307
877.30 0.3156373
877.40 0.3155438
877.50 0.3154505
877.60 0.3153571
877.70 0.3152638
877.80 0.3151705
877.90 0.3150773
878.00 0.3149841
878.10 0.3148909
878.20 0.3147977
878.30 0.3147046
878.40 0.3146116
878.50 0.3145185
878.60 0.3144255
878.70 0.3143325
878.80 0.3142396
878.90 0.3141467
879.00 0.3140538
879.10 0.313961
879.20 0.3138682
879.30 0.3137754
879.40 0.3136827
879.50 0.31359
879.60 0.313494
879.70 0.3133974
879.80 0.3133008
879.90 0.3132042
880.00 0.3131076
880.10 0.3130111
880.20 0.3129147
880.30 0.3128182
880.40 0.3127218
880.50 0.3126255
880.60 0.3125292
880.70 0.3124329
880.80 0.3123366
880.90 0.3122404
881.00 0.3121442
881.10 0.3120481
881.20 0.311952
881.30 0.3118559
881.40 0.3117598
881.50 0.3116638
881.60 0.3115679
881.70 0.3114719
881.80 0.311376
881.90 0.3112802
882.00 0.3111844
882.10 0.3110886
882.20 0.3109928
882.30 0.3108971
882.40 0.3108014
882.50 0.3107058
882.60 0.3106101
882.70 0.3105146
882.80 0.310419
882.90 0.3103235
883.00 0.310228
883.10 0.3101326
883.20 0.3100372
883.30 0.3099418
883.40 0.3098465
883.50 0.3097512
883.60 0.3096559
883.70 0.3095607
883.80 0.3094655
883.90 0.3093704
884.00 0.3092788
884.10 0.3091879
884.20 0.309097
884.30 0.3090061
884.40 0.3089153
884.50 0.3088246
884.60 0.3087338
884.70 0.3086431
884.80 0.3085525
884.90 0.3084618
885.00 0.3083712
885.10 0.3082806
885.20 0.3081901
885.30 0.3080996
885.40 0.3080091
885.50 0.3079187
885.60 0.3078283
885.70 0.3077379
885.80 0.3076476
885.90 0.3075572
886.00 0.307467
886.10 0.3073767
886.20 0.3072865
886.30 0.3071963
886.40 0.3071062
886.50 0.3070161
886.60 0.306926
886.70 0.306836
886.80 0.306746
886.90 0.306656
887.00 0.306566
887.10 0.3064761
887.20 0.3063862
887.30 0.3062964
887.40 0.3062066
887.50 0.3061168
887.60 0.306027
887.70 0.3059373
887.80 0.3058476
887.90 0.305758
888.00 0.3056684
888.10 0.3055788
888.20 0.3054892
888.30 0.3053997
888.40 0.3053068
888.50 0.3052135
888.60 0.3051201
888.70 0.3050268
888.80 0.3049336
888.90 0.3048404
889.00 0.3047472
889.10 0.304654
889.20 0.3045609
889.30 0.3044679
889.40 0.3043748
889.50 0.3042818
889.60 0.3041888
889.70 0.3040959
889.80 0.304003
889.90 0.3039101
890.00 0.3038172
890.10 0.3037244
890.20 0.3036317
890.30 0.3035389
890.40 0.3034462
890.50 0.3033535
890.60 0.3032609
890.70 0.3031683
890.80 0.3030757
890.90 0.3029832
891.00 0.3028907
891.10 0.3027982
891.20 0.3027058
891.30 0.3026134
891.40 0.302521
891.50 0.3024287
891.60 0.3023364
891.70 0.3022441
891.80 0.3021519
891.90 0.3020597
892.00 0.3019675
892.10 0.3018754
892.20 0.3017833
892.30 0.3016913
892.40 0.3015992
892.50 0.3015072
892.60 0.3014153
892.70 0.3013233
892.80 0.3012314
892.90 0.3011396
893.00 0.3010478
893.10 0.300956
893.20 0.3008642
893.30 0.3007725
893.40 0.3006808
893.50 0.3005891
893.60 0.3004975
893.70 0.3004059
893.80 0.3003144
893.90 0.3002228
894.00 0.3001313
894.10 0.3000399
894.20 0.2999484
894.30 0.2998571
894.40 0.2997657
894.50 0.2996744
894.60 0.2995831
894.70 0.2994918
894.80 0.2994006
894.90 0.2993094
895.00 0.2992182
895.10 0.2991271
895.20 0.299036
895.30 0.298945
895.40 0.2988539
895.50 0.298763
895.60 0.298672
895.70 0.2985811
895.80 0.2984902
895.90 0.2983993
896.00 0.2983085
896.10 0.2982177
896.20 0.2981269
896.30 0.2980362
896.40 0.2979455
896.50 0.2978549
896.60 0.2977642
896.70 0.2976736
896.80 0.2975831
896.90 0.2974925
897.00 0.297402
897.10 0.2973116
897.20 0.2972213
897.30 0.2971351
897.40 0.297049
897.50 0.2969629
897.60 0.2968768
897.70 0.2967908
897.80 0.2967047
897.90 0.2966188
898.00 0.2965328
898.10 0.2964469
898.20 0.296361
898.30 0.2962751
898.40 0.2961893
898.50 0.2961035
898.60 0.2960177
898.70 0.295932
898.80 0.2958463
898.90 0.2957606
899.00 0.295675
899.10 0.2955893
899.20 0.2955038
899.30 0.2954182
899.40 0.2953327
899.50 0.2952472
899.60 0.2951617
899.70 0.2950763
899.80 0.2949909
899.90 0.2949055
900.00 0.2948202
900.10 0.2947349
900.20 0.2946496
900.30 0.2945643
900.40 0.2944791
900.50 0.2943939
900.60 0.2943088
900.70 0.2942237
900.80 0.2941386
900.90 0.2940535
901.00 0.2939685
901.10 0.2938835
901.20 0.2937985
901.30 0.2937135
901.40 0.2936286
901.50 0.2935438
901.60 0.2934589
901.70 0.2933734
901.80 0.2932846
901.90 0.2931959
902.00 0.2931073
902.10 0.2930186
902.20 0.29293
902.30 0.2928414
902.40 0.2927529
902.50 0.2926644
902.60 0.2925759
902.70 0.2924875
902.80 0.292399
902.90 0.2923107
903.00 0.2922223
903.10 0.292134
903.20 0.2920457
903.30 0.2919574
903.40 0.2918692
903.50 0.291781
903.60 0.2916929
903.70 0.2916047
903.80 0.2915166
903.90 0.2914286
904.00 0.2913405
904.10 0.2912525
904.20 0.2911646
904.30 0.2910766
904.40 0.2909887
904.50 0.2909009
904.60 0.290813
904.70 0.2907252
904.80 0.2906374
904.90 0.2905497
905.00 0.290462
905.10 0.2903743
905.20 0.2902866
905.30 0.290199
905.40 0.2901114
905.50 0.2900239
905.60 0.2899363
905.70 0.2898489
905.80 0.2897614
905.90 0.289674
906.00 0.2895866
906.10 0.2894992
906.20 0.2894119
906.30 0.2893249
906.40 0.2892378
906.50 0.2891508
906.60 0.2890638
906.70 0.2889769
906.80 0.28889
906.90 0.2888031
907.00 0.2887162
907.10 0.2886294
907.20 0.2885426
907.30 0.2884559
907.40 0.2883691
907.50 0.2882825
907.60 0.2881958
907.70 0.2881092
907.80 0.2880226
907.90 0.287936
908.00 0.2878494
908.10 0.2877629
908.20 0.2876765
908.30 0.28759
908.40 0.2875036
908.50 0.2874172
908.60 0.2873309
908.70 0.2872445
908.80 0.2871582
908.90 0.287072
909.00 0.2869858
909.10 0.2868996
909.20 0.2868134
909.30 0.2867272
909.40 0.2866411
909.50 0.2865551
909.60 0.286469
909.70 0.286383
909.80 0.286297
909.90 0.2862111
910.00 0.2861252
910.10 0.2860393
910.20 0.2859534
910.30 0.2858676
910.40 0.2857818
910.50 0.285696
910.60 0.2856103
910.70 0.2855246
910.80 0.2854428
910.90 0.285361
911.00 0.2852792
911.10 0.2851974
911.20 0.2851157
911.30 0.285034
911.40 0.2849523
911.50 0.2848707
911.60 0.2847891
911.70 0.2847075
911.80 0.2846259
911.90 0.2845444
912.00 0.2844629
912.10 0.2843815
912.20 0.2843
912.30 0.2842186
912.40 0.2841372
912.50 0.2840559
912.60 0.2839745
912.70 0.2838933
912.80 0.283812
912.90 0.2837308
913.00 0.2836495
913.10 0.2835684
913.20 0.2834872
913.30 0.2834061
913.40 0.283325
913.50 0.2832439
913.60 0.2831629
913.70 0.2830819
913.80 0.2830009
913.90 0.28292
914.00 0.2828391
914.10 0.2827582
914.20 0.2826773
914.30 0.2825965
914.40 0.2825157
914.50 0.2824349
914.60 0.2823541
914.70 0.2822734
914.80 0.2821927
914.90 0.2821121
915.00 0.2820314
915.10 0.2819508
915.20 0.2818702
915.30 0.2817872
915.40 0.2817031
915.50 0.281619
915.60 0.281535
915.70 0.281451
915.80 0.2813671
915.90 0.2812831
916.00 0.2811992
916.10 0.2811153
916.20 0.2810315
916.30 0.2809477
916.40 0.2808639
916.50 0.2807801
916.60 0.2806964
916.70 0.2806127
916.80 0.280529
916.90 0.2804454
917.00 0.2803618
917.10 0.2802782
917.20 0.2801946
917.30 0.2801111
917.40 0.2800276
917.50 0.2799442
917.60 0.2798607
917.70 0.2797773
917.80 0.279694
917.90 0.2796106
918.00 0.2795273
918.10 0.279444
918.20 0.2793608
918.30 0.2792776
918.40 0.2791944
918.50 0.2791112
918.60 0.2790281
918.70 0.278945
918.80 0.2788619
918.90 0.2787788
919.00 0.2786958
919.10 0.2786128
919.20 0.2785299
919.30 0.2784469
919.40 0.2783641
919.50 0.2782812
919.60 0.2781983
919.70 0.2781155
919.80 0.2780328
919.90 0.27795
920.00 0.2778673
920.10 0.2777846
920.20 0.2777019
920.30 0.2776193
920.40 0.2775367
920.50 0.2774541
920.60 0.2773716
920.70 0.2772891
920.80 0.2772066
920.90 0.2771241
921.00 0.2770417
921.10 0.2769593
921.20 0.2768769
921.30 0.2767946
921.40 0.2767123
921.50 0.27663
921.60 0.2765477
921.70 0.2764655
921.80 0.2763833
921.90 0.2763011
922.00 0.276219
922.10 0.2761369
922.20 0.2760548
922.30 0.2759728
922.40 0.2758908
922.50 0.2758088
922.60 0.2757268
922.70 0.2756449
922.80 0.275563
922.90 0.2754811
923.00 0.2753993
923.10 0.2753174
923.20 0.2752356
923.30 0.2751539
923.40 0.2750722
923.50 0.2749905
923.60 0.2749088
923.70 0.2748271
923.80 0.2747455
923.90 0.2746639
924.00 0.2745824
924.10 0.2745009
924.20 0.2744194
924.30 0.2743379
924.40 0.2742565
924.50 0.2741753
924.60 0.2740941
924.70 0.274013
924.80 0.2739319
924.90 0.2738508
925.00 0.2737698
925.10 0.2736888
925.20 0.2736078
925.30 0.2735268
925.40 0.2734459
925.50 0.273365
925.60 0.2732841
925.70 0.2732032
925.80 0.2731224
925.90 0.2730416
926.00 0.2729609
926.10 0.2728801
926.20 0.2727994
926.30 0.2727187
926.40 0.2726381
926.50 0.2725575
926.60 0.2724769
926.70 0.2723963
926.80 0.2723158
926.90 0.2722353
927.00 0.2721548
927.10 0.2720744
927.20 0.2719939
927.30 0.2719135
927.40 0.2718332
927.50 0.2717528
927.60 0.2716725
927.70 0.2715923
927.80 0.271512
927.90 0.2714318
928.00 0.2713516
928.10 0.2712714
928.20 0.2711913
928.30 0.2711112
928.40 0.2710311
928.50 0.270951
928.60 0.270871
928.70 0.270791
928.80 0.270711
928.90 0.2706311
929.00 0.2705512
929.10 0.2704713
929.20 0.2703914
929.30 0.2703116
929.40 0.2702318
929.50 0.270152
929.60 0.2700723
929.70 0.2699926
929.80 0.2699129
929.90 0.2698332
930.00 0.2697536
930.10 0.269674
930.20 0.2695944
930.30 0.2695149
930.40 0.2694354
930.50 0.2693559
930.60 0.2692764
930.70 0.269197
930.80 0.2691176
930.90 0.2690382
931.00 0.2689588
931.10 0.2688795
931.20 0.2688002
931.30 0.2687209
931.40 0.2686417
931.50 0.2685625
931.60 0.2684833
931.70 0.2684041
931.80 0.268325
931.90 0.2682459
932.00 0.2681668
932.10 0.2680878
932.20 0.2680088
932.30 0.2679298
932.40 0.2678508
932.50 0.2677719
932.60 0.267693
932.70 0.2676141
932.80 0.2675352
932.90 0.2674564
933.00 0.2673776
933.10 0.2672988
933.20 0.2672201
933.30 0.2671414
933.40 0.2670627
933.50 0.266984
933.60 0.2669054
933.70 0.266827
933.80 0.2667486
933.90 0.2666703
934.00 0.2665919
934.10 0.2665137
934.20 0.2664354
934.30 0.2663572
934.40 0.266279
934.50 0.2662008
934.60 0.2661227
934.70 0.2660445
934.80 0.2659664
934.90 0.2658884
935.00 0.2658103
935.10 0.2657323
935.20 0.2656544
935.30 0.2655764
935.40 0.2654985
935.50 0.2654206
935.60 0.2653427
935.70 0.2652649
935.80 0.265187
935.90 0.2651092
936.00 0.2650315
936.10 0.2649537
936.20 0.264876
936.30 0.2647983
936.40 0.2647207
936.50 0.2646431
936.60 0.2645655
936.70 0.2644879
936.80 0.2644103
936.90 0.2643328
937.00 0.2642553
937.10 0.2641779
937.20 0.2641004
937.30 0.264023
937.40 0.2639456
937.50 0.2638683
937.60 0.2637909
937.70 0.2637136
937.80 0.2636364
937.90 0.2635591
938.00 0.2634819
938.10 0.2634047
938.20 0.2633275
938.30 0.2632504
938.40 0.2631733
938.50 0.2630962
938.60 0.2630191
938.70 0.2629421
938.80 0.2628651
938.90 0.2627881
939.00 0.2627111
939.10 0.2626342
939.20 0.2625573
939.30 0.2624804
939.40 0.2624036
939.50 0.2623268
939.60 0.26225
939.70 0.2621732
939.80 0.2620965
939.90 0.2620197
940.00 0.2619431
940.10 0.2618664
940.20 0.2617898
940.30 0.2617132
940.40 0.2616366
940.50 0.26156
940.60 0.2614835
940.70 0.261407
940.80 0.2613305
940.90 0.2612541
941.00 0.2611777
941.10 0.2611013
941.20 0.2610249
941.30 0.2609486
941.40 0.2608722
941.50 0.260796
941.60 0.2607197
941.70 0.2606435
941.80 0.2605672
941.90 0.2604911
942.00 0.2604149
942.10 0.2603388
942.20 0.2602627
942.30 0.2601866
942.40 0.2601106
942.50 0.2600345
942.60 0.2599585
942.70 0.2598826
942.80 0.2598066
942.90 0.2597307
943.00 0.2596549
943.10 0.2595792
943.20 0.2595036
943.30 0.259428
943.40 0.2593524
943.50 0.2592769
943.60 0.2592013
943.70 0.2591258
943.80 0.2590504
943.90 0.2589749
944.00 0.2588995
944.10 0.2588241
944.20 0.2587487
944.30 0.2586734
944.40 0.2585981
944.50 0.2585228
944.60 0.2584475
944.70 0.2583723
944.80 0.2582971
944.90 0.2582219
945.00 0.2581467
945.10 0.2580716
945.20 0.2579965
945.30 0.2579214
945.40 0.2578463
945.50 0.2577713
945.60 0.2576963
945.70 0.2576213
945.80 0.2575464
945.90 0.2574715
946.00 0.2573965
946.10 0.2573217
946.20 0.2572468
946.30 0.257172
946.40 0.2570972
946.50 0.2570224
946.60 0.2569477
946.70 0.256873
946.80 0.2567983
946.90 0.2567236
947.00 0.256649
947.10 0.2565743
947.20 0.2564998
947.30 0.2564252
947.40 0.2563507
947.50 0.2562761
947.60 0.2562017
947.70 0.2561272
947.80 0.2560528
947.90 0.2559783
948.00 0.255904
948.10 0.2558296
948.20 0.2557553
948.30 0.255681
948.40 0.2556067
948.50 0.2555324
948.60 0.2554582
948.70 0.255384
948.80 0.2553098
948.90 0.2552357
949.00 0.2551615
949.10 0.2550874
949.20 0.2550133
949.30 0.2549393
949.40 0.2548653
949.50 0.2547913
949.60 0.2547173
949.70 0.2546433
949.80 0.2545694
949.90 0.2544955
950.00 0.2544216
950.10 0.2543478
950.20 0.254274
950.30 0.2542002
950.40 0.2541264
950.50 0.2540527
950.60 0.2539789
950.70 0.2539052
950.80 0.2538316
950.90 0.2537579
951.00 0.2536843
951.10 0.2536107
951.20 0.2535372
951.30 0.2534636
951.40 0.2533901
951.50 0.2533166
951.60 0.2532431
951.70 0.2531697
951.80 0.2530963
951.90 0.2530229
952.00 0.2529495
952.10 0.2528762
952.20 0.2528029
952.30 0.2527296
952.40 0.2526563
952.50 0.2525833
952.60 0.2525103
952.70 0.2524373
952.80 0.2523643
952.90 0.2522914
953.00 0.2522185
953.10 0.2521456
953.20 0.2520727
953.30 0.2519999
953.40 0.251927
953.50 0.2518543
953.60 0.2517815
953.70 0.2517087
953.80 0.251636
953.90 0.2515633
954.00 0.2514907
954.10 0.251418
954.20 0.2513454
954.30 0.2512728
954.40 0.2512003
954.50 0.2511277
954.60 0.2510552
954.70 0.2509827
954.80 0.2509103
954.90 0.2508378
955.00 0.2507654
955.10 0.250693
955.20 0.2506206
955.30 0.2505483
955.40 0.250476
955.50 0.2504037
955.60 0.2503314
955.70 0.2502592
955.80 0.250187
955.90 0.2501148
956.00 0.2500426
956.10 0.2499705
956.20 0.2498983
956.30 0.2498262
956.40 0.2497542
956.50 0.2496821
956.60 0.2496101
956.70 0.2495381
956.80 0.2494661
956.90 0.2493942
957.00 0.2493223
957.10 0.2492504
957.20 0.249177
957.30 0.2491018
957.40 0.2490267
957.50 0.2489516
957.60 0.2488765
957.70 0.2488015
957.80 0.2487265
957.90 0.2486515
958.00 0.2485765
958.10 0.2485016
958.20 0.2484267
958.30 0.2483518
958.40 0.2482769
958.50 0.2482021
958.60 0.2481273
958.70 0.2480525
958.80 0.2479777
958.90 0.247903
959.00 0.2478283
959.10 0.2477536
959.20 0.247679
959.30 0.2476043
959.40 0.2475297
959.50 0.2474552
959.60 0.2473806
959.70 0.2473061
959.80 0.2472316
959.90 0.2471571
960.00 0.2470827
960.10 0.2470082
960.20 0.2469338
960.30 0.2468595
960.40 0.2467851
960.50 0.2467108
960.60 0.2466365
960.70 0.2465622
960.80 0.246488
960.90 0.2464138
961.00 0.2463396
961.10 0.2462654
961.20 0.2461913
961.30 0.2461171
961.40 0.246043
961.50 0.245969
961.60 0.2458949
961.70 0.2458209
961.80 0.2457469
961.90 0.245673
962.00 0.2456019
962.10 0.2455315
962.20 0.2454611
962.30 0.2453906
962.40 0.2453203
962.50 0.2452499
962.60 0.2451796
962.70 0.2451093
962.80 0.245039
962.90 0.2449687
963.00 0.2448985
963.10 0.2448283
963.20 0.2447581
963.30 0.2446879
963.40 0.2446178
963.50 0.2445476
963.60 0.2444775
963.70 0.2444075
963.80 0.2443374
963.90 0.2442674
964.00 0.2441974
964.10 0.2441274
964.20 0.2440575
964.30 0.2439875
964.40 0.2439176
964.50 0.2438477
964.60 0.2437779
964.70 0.2437081
964.80 0.2436382
964.90 0.2435685
965.00 0.2434987
965.10 0.243429
965.20 0.2433592
965.30 0.2432895
965.40 0.2432199
965.50 0.2431502
965.60 0.2430806
965.70 0.243011
965.80 0.2429414
965.90 0.2428719
966.00 0.2428024
966.10 0.2427329
966.20 0.2426634
966.30 0.2425939
966.40 0.2425245
966.50 0.2424551
966.60 0.2423857
966.70 0.2423163
966.80 0.242247
966.90 0.2421777
967.00 0.2421084
967.10 0.2420391
967.20 0.2419699
967.30 0.2419007
967.40 0.2418315
967.50 0.2417623
967.60 0.2416931
967.70 0.241624
967.80 0.2415549
967.90 0.2414858
968.00 0.2414168
968.10 0.2413477
968.20 0.2412787
968.30 0.2412097
968.40 0.2411408
968.50 0.2410718
968.60 0.2410029
968.70 0.240934
968.80 0.2408652
968.90 0.2407963
969.00 0.2407275
969.10 0.2406587
969.20 0.2405899
969.30 0.2405212
969.40 0.2404524
969.50 0.2403837
969.60 0.240315
969.70 0.2402464
969.80 0.2401777
969.90 0.2401091
970.00 0.2400405
970.10 0.239972
970.20 0.2399034
970.30 0.2398349
970.40 0.2397664
970.50 0.2396979
970.60 0.2396295
970.70 0.239561
970.80 0.2394926
970.90 0.2394242
971.00 0.2393559
971.10 0.2392875
971.20 0.2392192
971.30 0.2391509
971.40 0.2390827
971.50 0.2390144
971.60 0.2389453
971.70 0.2388757
971.80 0.2388062
971.90 0.2387366
972.00 0.2386671
972.10 0.2385976
972.20 0.2385282
972.30 0.2384587
972.40 0.2383893
972.50 0.2383199
972.60 0.2382506
972.70 0.2381812
972.80 0.2381119
972.90 0.2380426
973.00 0.2379733
973.10 0.2379041
973.20 0.2378349
973.30 0.2377656
973.40 0.2376965
973.50 0.2376273
973.60 0.2375582
973.70 0.2374891
973.80 0.23742
973.90 0.2373509
974.00 0.2372819
974.10 0.2372129
974.20 0.2371439
974.30 0.2370749
974.40 0.2370059
974.50 0.236937
974.60 0.2368681
974.70 0.2367992
974.80 0.2367304
974.90 0.2366616
975.00 0.2365928
975.10 0.236524
975.20 0.2364552
975.30 0.2363865
975.40 0.2363178
975.50 0.2362491
975.60 0.2361804
975.70 0.2361118
975.80 0.2360431
975.90 0.2359745
976.00 0.235906
976.10 0.2358374
976.20 0.2357689
976.30 0.2357004
976.40 0.2356319
976.50 0.2355634
976.60 0.235495
976.70 0.2354266
976.80 0.2353582
976.90 0.2352898
977.00 0.2352215
977.10 0.2351532
977.20 0.2350849
977.30 0.2350166
977.40 0.2349483
977.50 0.2348801
977.60 0.2348119
977.70 0.2347437
977.80 0.2346756
977.90 0.2346074
978.00 0.2345393
978.10 0.2344712
978.20 0.2344031
978.30 0.2343351
978.40 0.2342671
978.50 0.2341991
978.60 0.2341311
978.70 0.2340631
978.80 0.2339952
978.90 0.2339273
979.00 0.2338594
979.10 0.2337916
979.20 0.2337237
979.30 0.2336559
979.40 0.2335881
979.50 0.2335203
979.60 0.2334526
979.70 0.2333849
979.80 0.2333172
979.90 0.2332495
980.00 0.2331818
980.10 0.2331142
980.20 0.2330466
980.30 0.232979
980.40 0.2329114
980.50 0.2328439
980.60 0.2327764
980.70 0.2327089
980.80 0.2326414
980.90 0.2325739
981.00 0.2325065
981.10 0.2324391
981.20 0.2323717
981.30 0.2323052
981.40 0.2322396
981.50 0.232174
981.60 0.2321084
981.70 0.2320429
981.80 0.2319774
981.90 0.2319118
982.00 0.2318464
982.10 0.2317809
982.20 0.2317155
982.30 0.23165
982.40 0.2315846
982.50 0.2315193
982.60 0.2314539
982.70 0.2313886
982.80 0.2313233
982.90 0.231258
983.00 0.2311927
983.10 0.2311275
983.20 0.2310622
983.30 0.230997
983.40 0.2309319
983.50 0.2308667
983.60 0.2308016
983.70 0.2307364
983.80 0.2306714
983.90 0.2306063
984.00 0.2305412
984.10 0.2304762
984.20 0.2304112
984.30 0.2303462
984.40 0.2302812
984.50 0.2302163
984.60 0.2301514
984.70 0.2300865
984.80 0.2300216
984.90 0.2299568
985.00 0.2298919
985.10 0.2298271
985.20 0.2297623
985.30 0.2296976
985.40 0.2296328
985.50 0.2295681
985.60 0.2295034
985.70 0.2294387
985.80 0.229374
985.90 0.2293094
986.00 0.2292448
986.10 0.2291802
986.20 0.2291156
986.30 0.229051
986.40 0.2289865
986.50 0.228922
986.60 0.2288575
986.70 0.228793
986.80 0.2287286
986.90 0.2286642
987.00 0.2285998
987.10 0.2285354
987.20 0.228471
987.30 0.2284067
987.40 0.2283424
987.50 0.2282781
987.60 0.2282138
987.70 0.2281495
987.80 0.2280853
987.90 0.2280211
988.00 0.2279569
988.10 0.2278927
988.20 0.2278286
988.30 0.2277645
988.40 0.2277004
988.50 0.2276363
988.60 0.2275722
988.70 0.2275082
988.80 0.2274442
988.90 0.2273802
989.00 0.2273162
989.10 0.2272522
989.20 0.2271883
989.30 0.2271244
989.40 0.2270605
989.50 0.2269966
989.60 0.2269328
989.70 0.2268689
989.80 0.2268051
989.90 0.2267413
990.00 0.2266776
990.10 0.2266138
990.20 0.2265501
990.30 0.2264864
990.40 0.2264227
990.50 0.2263591
990.60 0.2262954
990.70 0.2262318
990.80 0.2261682
990.90 0.2261046
991.00 0.2260411
991.10 0.2259765
991.20 0.2259102
991.30 0.225844
991.40 0.2257777
991.50 0.2257115
991.60 0.2256453
991.70 0.2255791
991.80 0.2255129
991.90 0.2254468
992.00 0.2253807
992.10 0.2253146
992.20 0.2252485
992.30 0.2251825
992.40 0.2251164
992.50 0.2250504
992.60 0.2249844
992.70 0.2249185
992.80 0.2248525
992.90 0.2247866
993.00 0.2247207
993.10 0.2246548
993.20 0.224589
993.30 0.2245232
993.40 0.2244574
993.50 0.2243916
993.60 0.2243258
993.70 0.2242601
993.80 0.2241943
993.90 0.2241286
994.00 0.224063
994.10 0.2239973
994.20 0.2239317
994.30 0.2238661
994.40 0.2238005
994.50 0.2237349
994.60 0.2236694
994.70 0.2236038
994.80 0.2235383
994.90 0.2234729
995.00 0.2234074
995.10 0.223342
995.20 0.2232765
995.30 0.2232112
995.40 0.2231458
995.50 0.2230804
995.60 0.2230151
995.70 0.2229498
995.80 0.2228845
995.90 0.2228192
996.00 0.222754
996.10 0.2226912
996.20 0.2226289
996.30 0.2225667
996.40 0.2225045
996.50 0.2224422
996.60 0.2223801
996.70 0.2223179
996.80 0.2222558
996.90 0.2221936
997.00 0.2221315
997.10 0.2220694
997.20 0.2220074
997.30 0.2219453
997.40 0.2218833
997.50 0.2218213
997.60 0.2217593
997.70 0.2216974
997.80 0.2216354
997.90 0.2215735
998.00 0.2215116
998.10 0.2214497
998.20 0.2213879
998.30 0.221326
998.40 0.2212642
998.50 0.2212024
998.60 0.2211406
998.70 0.2210789
998.80 0.2210172
998.90 0.2209554
999.00 0.2208937
999.10 0.2208321
999.20 0.2207704
999.30 0.2207088
999.40 0.2206472
999.50 0.2205856
999.60 0.220524
999.70 0.2204624
999.80 0.2204009
999.90 0.2203394
1000.00 0.2202779
1000.10 0.2202164
1000.20 0.220155
1000.30 0.2200935
1000.40 0.2200321
1000.50 0.2199707
1000.60 0.2199094
1000.70 0.219848
1000.80 0.2197867
1000.90 0.2197254
1001.00 0.2196634
1001.10 0.2195994
1001.20 0.2195354
1001.30 0.2194715
1001.40 0.2194076
1001.50 0.2193437
1001.60 0.2192799
1001.70 0.219216
1001.80 0.2191522
1001.90 0.2190884
1002.00 0.2190246
1002.10 0.2189608
1002.20 0.2188971
1002.30 0.2188334
1002.40 0.2187697
1002.50 0.218706
1002.60 0.2186424
1002.70 0.2185787
1002.80 0.2185151
1002.90 0.2184515
1003.00 0.2183879
1003.10 0.2183244
1003.20 0.2182609
1003.30 0.2181974
1003.40 0.2181339
1003.50 0.2180704
1003.60 0.218007
1003.70 0.2179435
1003.80 0.2178801
1003.90 0.2178168
1004.00 0.2177534
1004.10 0.21769
1004.20 0.2176267
1004.30 0.2175634
1004.40 0.2175002
1004.50 0.2174369
1004.60 0.2173737
1004.70 0.2173104
1004.80 0.2172473
1004.90 0.2171841
1005.00 0.2171209
1005.10 0.2170578
1005.20 0.2169947
1005.30 0.2169316
1005.40 0.2168685
1005.50 0.2168055
1005.60 0.2167425
1005.70 0.2166794
1005.80 0.2166165
1005.90 0.2165535
1006.00 0.2164911
1006.10 0.2164311
1006.20 0.216371
1006.30 0.2163109
1006.40 0.2162509
1006.50 0.2161909
1006.60 0.2161309
1006.70 0.216071
1006.80 0.216011
1006.90 0.2159511
1007.00 0.2158912
1007.10 0.2158313
1007.20 0.2157714
1007.30 0.2157116
1007.40 0.2156517
1007.50 0.2155919
1007.60 0.2155321
1007.70 0.2154723
1007.80 0.2154126
1007.90 0.2153529
1008.00 0.2152931
1008.10 0.2152334
1008.20 0.2151738
1008.30 0.2151141
1008.40 0.2150545
1008.50 0.2149949
1008.60 0.2149353
1008.70 0.2148757
1008.80 0.2148161
1008.90 0.2147566
1009.00 0.2146971
1009.10 0.2146376
1009.20 0.2145781
1009.30 0.2145186
1009.40 0.2144592
1009.50 0.2143998
1009.60 0.2143404
1009.70 0.214281
1009.80 0.2142216
1009.90 0.2141623
1010.00 0.2141029
1010.10 0.2140436
1010.20 0.2139843
1010.30 0.2139251
1010.40 0.2138658
1010.50 0.2138066
1010.60 0.2137474
1010.70 0.2136882
1010.80 0.213629
1010.90 0.2135699
1011.00 0.2135107
1011.10 0.2134518
1011.20 0.2133929
1011.30 0.213334
1011.40 0.2132751
1011.50 0.2132162
1011.60 0.2131574
1011.70 0.2130985
1011.80 0.2130397
1011.90 0.2129809
1012.00 0.2129222
1012.10 0.2128634
1012.20 0.2128047
1012.30 0.212746
1012.40 0.2126873
1012.50 0.2126286
1012.60 0.2125699
1012.70 0.2125113
1012.80 0.2124527
1012.90 0.2123941
1013.00 0.2123355
1013.10 0.2122769
1013.20 0.2122184
1013.30 0.2121598
1013.40 0.2121013
1013.50 0.2120428
1013.60 0.2119844
1013.70 0.2119259
1013.80 0.2118675
1013.90 0.2118091
1014.00 0.2117507
1014.10 0.2116923
1014.20 0.211634
1014.30 0.2115756
1014.40 0.2115173
1014.50 0.211459
1014.60 0.2114007
1014.70 0.2113425
1014.80 0.2112842
1014.90 0.211226
1015.00 0.2111678
1015.10 0.2111096
1015.20 0.2110515
1015.30 0.2109933
1015.40 0.2109352
1015.50 0.2108771
1015.60 0.210819
1015.70 0.2107609
1015.80 0.2107028
1015.90 0.2106448
1016.00 0.2105868
1016.10 0.2105271
1016.20 0.2104664
1016.30 0.2104056
1016.40 0.2103449
1016.50 0.2102843
1016.60 0.2102236
1016.70 0.210163
1016.80 0.2101023
1016.90 0.2100418
1017.00 0.2099812
1017.10 0.2099206
1017.20 0.2098601
1017.30 0.2097996
1017.40 0.2097391
1017.50 0.2096786
1017.60 0.2096181
1017.70 0.2095577
1017.80 0.2094973
1017.90 0.2094369
1018.00 0.2093765
1018.10 0.2093161
1018.20 0.2092558
1018.30 0.2091955
1018.40 0.2091352
1018.50 0.2090749
1018.60 0.2090146
1018.70 0.2089544
1018.80 0.2088941
1018.90 0.2088339
1019.00 0.2087738
1019.10 0.2087136
1019.20 0.2086534
1019.30 0.2085933
1019.40 0.2085332
1019.50 0.2084731
1019.60 0.2084131
1019.70 0.208353
1019.80 0.208293
1019.90 0.208233
1020.00 0.208173
1020.10 0.208113
1020.20 0.2080531
1020.30 0.2079931
1020.40 0.2079332
1020.50 0.2078733
1020.60 0.2078135
1020.70 0.2077536
1020.80 0.2076938
1020.90 0.207634
1021.00 0.2075742
1021.10 0.2075144
1021.20 0.2074549
1021.30 0.2073953
1021.40 0.2073358
1021.50 0.2072763
1021.60 0.2072168
1021.70 0.2071573
1021.80 0.2070979
1021.90 0.2070385
1022.00 0.206979
1022.10 0.2069197
1022.20 0.2068603
1022.30 0.2068009
1022.40 0.2067416
1022.50 0.2066823
1022.60 0.206623
1022.70 0.2065637
1022.80 0.2065045
1022.90 0.2064452
1023.00 0.206386
1023.10 0.2063268
1023.20 0.2062676
1023.30 0.2062085
1023.40 0.2061493
1023.50 0.2060902
1023.60 0.2060311
1023.70 0.205972
1023.80 0.205913
1023.90 0.2058539
1024.00 0.2057949
1024.10 0.2057359
1024.20 0.2056769
1024.30 0.2056179
1024.40 0.205559
1024.50 0.2055001
1024.60 0.2054411
1024.70 0.2053823
1024.80 0.2053234
1024.90 0.2052645
1025.00 0.2052057
1025.10 0.2051469
1025.20 0.2050881
1025.30 0.2050293
1025.40 0.2049706
1025.50 0.2049118
1025.60 0.2048531
1025.70 0.2047944
1025.80 0.2047357
1025.90 0.204677
1026.00 0.2046184
1026.10 0.2045598
1026.20 0.2045012
1026.30 0.2044453
1026.40 0.2043894
1026.50 0.2043335
1026.60 0.2042777
1026.70 0.2042218
1026.80 0.204166
1026.90 0.2041102
1027.00 0.2040544
1027.10 0.2039986
1027.20 0.2039429
1027.30 0.2038871
1027.40 0.2038314
1027.50 0.2037757
1027.60 0.20372
1027.70 0.2036644
1027.80 0.2036087
1027.90 0.2035531
1028.00 0.2034975
1028.10 0.2034419
1028.20 0.2033863
1028.30 0.2033308
1028.40 0.2032752
1028.50 0.2032197
1028.60 0.2031642
1028.70 0.2031087
1028.80 0.2030532
1028.90 0.2029978
1029.00 0.2029424
1029.10 0.202887
1029.20 0.2028316
1029.30 0.2027762
1029.40 0.2027208
1029.50 0.2026655
1029.60 0.2026101
1029.70 0.2025548
1029.80 0.2024995
1029.90 0.2024443
1030.00 0.202389
1030.10 0.2023338
1030.20 0.2022786
1030.30 0.2022234
1030.40 0.2021682
1030.50 0.202113
1030.60 0.2020578
1030.70 0.2020027
1030.80 0.2019476
1030.90 0.2018925
1031.00 0.2018374
1031.10 0.2017824
1031.20 0.2017273
1031.30 0.2016723
1031.40 0.2016149
1031.50 0.2015575
1031.60 0.2015
1031.70 0.2014426
1031.80 0.2013852
1031.90 0.2013278
1032.00 0.2012705
1032.10 0.2012131
1032.20 0.2011558
1032.30 0.2010985
1032.40 0.2010412
1032.50 0.2009839
1032.60 0.2009267
1032.70 0.2008694
1032.80 0.2008122
1032.90 0.200755
1033.00 0.2006979
1033.10 0.2006407
1033.20 0.2005836
1033.30 0.2005264
1033.40 0.2004693
1033.50 0.2004122
1033.60 0.2003552
1033.70 0.2002981
1033.80 0.2002411
1033.90 0.2001841
1034.00 0.2001271
1034.10 0.2000701
1034.20 0.2000131
1034.30 0.1999562
1034.40 0.1998993
1034.50 0.1998424
1034.60 0.1997855
1034.70 0.1997286
1034.80 0.1996718
1034.90 0.199615
1035.00 0.1995581
1035.10 0.1995013
1035.20 0.1994446
1035.30 0.1993878
1035.40 0.1993311
1035.50 0.1992744
1035.60 0.1992177
1035.70 0.199161
1035.80 0.1991043
1035.90 0.1990477
1036.00 0.198991
1036.10 0.1989344
1036.20 0.1988778
1036.30 0.1988212
1036.40 0.1987647
1036.50 0.1987092
1036.60 0.1986552
1036.70 0.1986013
1036.80 0.1985474
1036.90 0.1984936
1037.00 0.1984397
1037.10 0.1983859
1037.20 0.198332
1037.30 0.1982782
1037.40 0.1982244
1037.50 0.1981707
1037.60 0.1981169
1037.70 0.1980632
1037.80 0.1980094
1037.90 0.1979557
1038.00 0.197902
1038.10 0.1978484
1038.20 0.1977947
1038.30 0.1977411
1038.40 0.1976875
1038.50 0.1976339
1038.60 0.1975803
1038.70 0.1975267
1038.80 0.1974732
1038.90 0.1974196
1039.00 0.1973661
1039.10 0.1973126
1039.20 0.1972591
1039.30 0.1972057
1039.40 0.1971522
1039.50 0.1970988
1039.60 0.1970454
1039.70 0.196992
1039.80 0.1969386
1039.90 0.1968852
1040.00 0.1968319
1040.10 0.1967785
1040.20 0.1967252
1040.30 0.1966719
1040.40 0.1966186
1040.50 0.1965654
1040.60 0.1965121
1040.70 0.1964589
1040.80 0.1964057
1040.90 0.1963525
1041.00 0.1962993
1041.10 0.1962461
1041.20 0.196193
1041.30 0.1961399
1041.40 0.1960867
1041.50 0.1960336
1041.60 0.1959806
1041.70 0.1959255
1041.80 0.1958701
1041.90 0.1958147
1042.00 0.1957593
1042.10 0.1957039
1042.20 0.1956485
1042.30 0.1955931
1042.40 0.1955378
1042.50 0.1954825
1042.60 0.1954272
1042.70 0.1953719
1042.80 0.1953167
1042.90 0.1952614
1043.00 0.1952062
1043.10 0.195151
1043.20 0.1950958
1043.30 0.1950406
1043.40 0.1949855
1043.50 0.1949303
1043.60 0.1948752
1043.70 0.1948201
1043.80 0.194765
1043.90 0.1947099
1044.00 0.1946549
1044.10 0.1945999
1044.20 0.1945448
1044.30 0.1944898
1044.40 0.1944349
1044.50 0.1943799
1044.60 0.1943249
1044.70 0.19427
1044.80 0.1942151
1044.90 0.1941602
1045.00 0.1941053
1045.10 0.1940505
1045.20 0.1939956
1045.30 0.1939408
1045.40 0.193886
1045.50 0.1938312
1045.60 0.1937764
1045.70 0.1937217
1045.80 0.193667
1045.90 0.1936122
1046.00 0.1935575
1046.10 0.1935028
1046.20 0.1934482
1046.30 0.1933935
1046.40 0.1933389
1046.50 0.1932843
1046.60 0.1932297
1046.70 0.1931751
1046.80 0.1931205
1046.90 0.1930679
1047.00 0.1930159
1047.10 0.1929639
1047.20 0.1929119
1047.30 0.19286
1047.40 0.192808
1047.50 0.1927561
1047.60 0.1927042
1047.70 0.1926523
1047.80 0.1926004
1047.90 0.1925485
1048.00 0.1924967
1048.10 0.1924449
1048.20 0.1923931
1048.30 0.1923413
1048.40 0.1922895
1048.50 0.1922377
1048.60 0.192186
1048.70 0.1921342
1048.80 0.1920825
1048.90 0.1920308
1049.00 0.1919791
1049.10 0.1919275
1049.20 0.1918758
1049.30 0.1918242
1049.40 0.1917726
1049.50 0.191721
1049.60 0.1916694
1049.70 0.1916178
1049.80 0.1915663
1049.90 0.1915147
1050.00 0.1914632
1050.10 0.1914117
1050.20 0.1913602
1050.30 0.1913088
1050.40 0.1912573
1050.50 0.1912059
1050.60 0.1911544
1050.70 0.191103
1050.80 0.1910516
1050.90 0.1910003
1051.00 0.1909489
1051.10 0.1908976
1051.20 0.1908462
1051.30 0.1907949
1051.40 0.1907436
1051.50 0.1906924
1051.60 0.1906411
1051.70 0.1905898
1051.80 0.1905386
1051.90 0.1904874
1052.00 0.1904362
1052.10 0.1903835
1052.20 0.19033
1052.30 0.1902765
1052.40 0.190223
1052.50 0.1901696
1052.60 0.1901162
1052.70 0.1900628
1052.80 0.1900094
1052.90 0.189956
1053.00 0.1899027
1053.10 0.1898493
1053.20 0.189796
1053.30 0.1897427
1053.40 0.1896894
1053.50 0.1896362
1053.60 0.1895829
1053.70 0.1895297
1053.80 0.1894765
1053.90 0.1894233
1054.00 0.1893701
1054.10 0.1893169
1054.20 0.1892637
1054.30 0.1892106
1054.40 0.1891575
1054.50 0.1891044
1054.60 0.1890513
1054.70 0.1889982
1054.80 0.1889452
1054.90 0.1888922
1055.00 0.1888391
1055.10 0.1887861
1055.20 0.1887331
1055.30 0.1886802
1055.40 0.1886272
1055.50 0.1885743
1055.60 0.1885214
1055.70 0.1884685
1055.80 0.1884156
1055.90 0.1883627
1056.00 0.1883099
1056.10 0.188257
1056.20 0.1882042
1056.30 0.1881514
1056.40 0.1880986
1056.50 0.1880459
1056.60 0.1879931
1056.70 0.1879404
1056.80 0.1878877
1056.90 0.187835
1057.00 0.1877823
1057.10 0.1877296
1057.20 0.187677
1057.30 0.1876243
1057.40 0.1875717
1057.50 0.1875191
1057.60 0.1874665
1057.70 0.1874139
1057.80 0.1873614
1057.90 0.1873089
1058.00 0.1872563
1058.10 0.1872038
1058.20 0.1871514
1058.30 0.1870989
1058.40 0.1870464
1058.50 0.186994
1058.60 0.1869416
1058.70 0.1868892
1058.80 0.1868368
1058.90 0.1867844
1059.00 0.1867321
1059.10 0.1866797
1059.20 0.1866274
1059.30 0.1865751
1059.40 0.1865228
1059.50 0.1864705
1059.60 0.1864183
1059.70 0.186366
1059.80 0.1863138
1059.90 0.1862616
1060.00 0.1862094
1060.10 0.1861572
1060.20 0.1861051
1060.30 0.1860529
1060.40 0.1860008
1060.50 0.1859487
1060.60 0.1858966
1060.70 0.1858445
1060.80 0.1857925
1060.90 0.1857404
1061.00 0.1856884
1061.10 0.1856364
1061.20 0.1855844
1061.30 0.1855324
1061.40 0.1854805
1061.50 0.1854285
1061.60 0.1853766
1061.70 0.1853247
1061.80 0.1852728
1061.90 0.1852209
1062.00 0.185169
1062.10 0.1851172
1062.20 0.1850653
1062.30 0.1850135
1062.40 0.1849617
1062.50 0.1849099
1062.60 0.1848583
1062.70 0.1848067
1062.80 0.1847551
1062.90 0.1847036
1063.00 0.184652
1063.10 0.1846005
1063.20 0.184549
1063.30 0.1844975
1063.40 0.184446
1063.50 0.1843946
1063.60 0.1843432
1063.70 0.1842917
1063.80 0.1842403
1063.90 0.1841889
1064.00 0.1841376
1064.10 0.1840862
1064.20 0.1840349
1064.30 0.1839835
1064.40 0.1839322
1064.50 0.1838809
1064.60 0.1838297
1064.70 0.1837784
1064.80 0.1837271
1064.90 0.1836759
1065.00 0.1836247
1065.10 0.1835735
1065.20 0.1835223
1065.30 0.1834712
1065.40 0.18342
1065.50 0.1833689
1065.60 0.1833178
1065.70 0.1832667
1065.80 0.1832156
1065.90 0.1831645
1066.00 0.1831134
1066.10 0.1830624
1066.20 0.1830114
1066.30 0.1829604
1066.40 0.1829094
1066.50 0.1828584
1066.60 0.1828075
1066.70 0.1827565
1066.80 0.1827056
1066.90 0.1826547
1067.00 0.1826038
1067.10 0.1825529
1067.20 0.182502
1067.30 0.1824512
1067.40 0.1824004
1067.50 0.1823495
1067.60 0.1822988
1067.70 0.182248
1067.80 0.1821972
1067.90 0.1821472
1068.00 0.1820989
1068.10 0.1820505
1068.20 0.1820022
1068.30 0.1819539
1068.40 0.1819056
1068.50 0.1818573
1068.60 0.181809
1068.70 0.1817607
1068.80 0.1817125
1068.90 0.1816643
1069.00 0.181616
1069.10 0.1815678
1069.20 0.1815197
1069.30 0.1814715
1069.40 0.1814233
1069.50 0.1813752
1069.60 0.1813271
1069.70 0.181279
1069.80 0.1812309
1069.90 0.1811828
1070.00 0.1811347
1070.10 0.1810867
1070.20 0.1810386
1070.30 0.1809906
1070.40 0.1809426
1070.50 0.1808946
1070.60 0.1808466
1070.70 0.1807987
1070.80 0.1807507
1070.90 0.1807028
1071.00 0.1806549
1071.10 0.180607
1071.20 0.1805591
1071.30 0.1805112
1071.40 0.1804633
1071.50 0.1804155
1071.60 0.1803677
1071.70 0.1803198
1071.80 0.180272
1071.90 0.1802243
1072.00 0.1801765
1072.10 0.1801287
1072.20 0.180081
1072.30 0.1800333
1072.40 0.1799855
1072.50 0.1799378
1072.60 0.1798902
1072.70 0.1798425
1072.80 0.1797948
1072.90 0.1797472
1073.00 0.1796996
1073.10 0.179652
1073.20 0.1796039
1073.30 0.1795541
1073.40 0.1795044
1073.50 0.1794547
1073.60 0.1794049
1073.70 0.1793552
1073.80 0.1793055
1073.90 0.1792559
1074.00 0.1792062
1074.10 0.1791566
1074.20 0.1791069
1074.30 0.1790573
1074.40 0.1790077
1074.50 0.1789581
1074.60 0.1789086
1074.70 0.178859
1074.80 0.1788095
1074.90 0.17876
1075.00 0.1787104
1075.10 0.178661
1075.20 0.1786115
1075.30 0.178562
1075.40 0.1785126
1075.50 0.1784631
1075.60 0.1784137
1075.70 0.1783643
1075.80 0.1783149
1075.90 0.1782656
1076.00 0.1782162
1076.10 0.1781669
1076.20 0.1781176
1076.30 0.1780683
1076.40 0.178019
1076.50 0.1779697
1076.60 0.1779204
1076.70 0.1778712
1076.80 0.1778219
1076.90 0.1777727
1077.00 0.1777235
1077.10 0.1776743
1077.20 0.1776252
1077.30 0.177576
1077.40 0.1775269
1077.50 0.1774778
1077.60 0.1774286
1077.70 0.1773795
1077.80 0.1773305
1077.90 0.1772814
1078.00 0.1772324
1078.10 0.1771833
1078.20 0.1771343
1078.30 0.1770853
1078.40 0.1770363
1078.50 0.1769873
1078.60 0.1769384
1078.70 0.1768894
1078.80 0.1768405
1078.90 0.1767916
1079.00 0.1767427
1079.10 0.1766938
1079.20 0.1766449
1079.30 0.1765961
1079.40 0.1765473
1079.50 0.1764984
1079.60 0.1764496
1079.70 0.1764008
1079.80 0.1763521
1079.90 0.1763033
1080.00 0.1762545
1080.10 0.1762058
1080.20 0.1761571
1080.30 0.1761084
1080.40 0.1760597
1080.50 0.176011
1080.60 0.1759624
1080.70 0.1759137
1080.80 0.1758651
1080.90 0.1758165
1081.00 0.1757679
1081.10 0.1757193
1081.20 0.1756707
1081.30 0.1756222
1081.40 0.1755737
1081.50 0.1755251
1081.60 0.1754766
1081.70 0.1754281
1081.80 0.1753797
1081.90 0.1753312
1082.00 0.1752827
1082.10 0.1752343
1082.20 0.1751859
1082.30 0.1751375
1082.40 0.1750891
1082.50 0.1750407
1082.60 0.1749924
1082.70 0.174944
1082.80 0.1748957
1082.90 0.1748474
1083.00 0.1747991
1083.10 0.1747508
1083.20 0.1747025
1083.30 0.1746543
1083.40 0.174606
1083.50 0.1745578
1083.60 0.1745096
1083.70 0.1744614
1083.80 0.1744132
1083.90 0.1743651
1084.00 0.1743191
1084.10 0.1742734
1084.20 0.1742276
1084.30 0.174182
1084.40 0.1741363
1084.50 0.1740906
1084.60 0.174045
1084.70 0.1739993
1084.80 0.1739537
1084.90 0.1739081
1085.00 0.1738625
1085.10 0.1738169
1085.20 0.1737714
1085.30 0.1737258
1085.40 0.1736803
1085.50 0.1736348
1085.60 0.1735893
1085.70 0.1735438
1085.80 0.1734983
1085.90 0.1734528
1086.00 0.1734074
1086.10 0.1733619
1086.20 0.1733165
1086.30 0.1732711
1086.40 0.1732257
1086.50 0.1731803
1086.60 0.1731349
1086.70 0.1730896
1086.80 0.1730442
1086.90 0.1729989
1087.00 0.1729536
1087.10 0.1729083
1087.20 0.172863
1087.30 0.1728177
1087.40 0.1727724
1087.50 0.1727272
1087.60 0.172682
1087.70 0.1726367
1087.80 0.1725915
1087.90 0.1725463
1088.00 0.1725012
1088.10 0.172456
1088.20 0.1724109
1088.30 0.1723657
1088.40 0.1723206
1088.50 0.1722755
1088.60 0.1722304
1088.70 0.1721853
1088.80 0.1721402
1088.90 0.1720952
1089.00 0.1720501
1089.10 0.1720051
1089.20 0.1719601
1089.30 0.1719151
1089.40 0.1718686
1089.50 0.1718213
1089.60 0.1717741
1089.70 0.171727
1089.80 0.1716798
1089.90 0.1716326
1090.00 0.1715855
1090.10 0.1715384
1090.20 0.1714912
1090.30 0.1714441
1090.40 0.1713971
1090.50 0.17135
1090.60 0.1713029
1090.70 0.1712559
1090.80 0.1712089
1090.90 0.1711619
1091.00 0.1711149
1091.10 0.1710679
1091.20 0.1710209
1091.30 0.1709739
1091.40 0.170927
1091.50 0.1708801
1091.60 0.1708332
1091.70 0.1707863
1091.80 0.1707394
1091.90 0.1706925
1092.00 0.1706457
1092.10 0.1705988
1092.20 0.170552
1092.30 0.1705052
1092.40 0.1704584
1092.50 0.1704116
1092.60 0.1703648
1092.70 0.1703181
1092.80 0.1702713
1092.90 0.1702246
1093.00 0.1701779
1093.10 0.1701312
1093.20 0.1700845
1093.30 0.1700378
1093.40 0.1699912
1093.50 0.1699445
1093.60 0.1698979
1093.70 0.1698513
1093.80 0.1698047
1093.90 0.1697581
1094.00 0.1697116
1094.10 0.169665
1094.20 0.1696185
1094.30 0.1695719
1094.40 0.1695254
1094.50 0.1694789
1094.60 0.1694324
1094.70 0.169386
1094.80 0.1693396
1094.90 0.1692933
1095.00 0.169247
1095.10 0.1692008
1095.20 0.1691545
1095.30 0.1691083
1095.40 0.1690621
1095.50 0.1690159
1095.60 0.1689697
1095.70 0.1689235
1095.80 0.1688773
1095.90 0.1688312
1096.00 0.1687851
1096.10 0.1687389
1096.20 0.1686928
1096.30 0.1686468
1096.40 0.1686007
1096.50 0.1685546
1096.60 0.1685086
1096.70 0.1684625
1096.80 0.1684165
1096.90 0.1683705
1097.00 0.1683245
1097.10 0.1682785
1097.20 0.1682326
1097.30 0.1681866
1097.40 0.1681407
1097.50 0.1680948
1097.60 0.1680489
1097.70 0.168003
1097.80 0.1679571
1097.90 0.1679112
1098.00 0.1678654
1098.10 0.1678195
1098.20 0.1677737
1098.30 0.1677279
1098.40 0.1676821
1098.50 0.1676363
1098.60 0.1675905
1098.70 0.1675448
1098.80 0.167499
1098.90 0.1674533
1099.00 0.1674076
1099.10 0.1673619
1099.20 0.1673162
1099.30 0.1672705
1099.40 0.1672249
1099.50 0.1671792
1099.60 0.1671336
1099.70 0.167088
1099.80 0.1670424
1099.90 0.1669968
1100.00 0.1669512
1100.10 0.1669057
1100.20 0.1668601
1100.30 0.1668146
1100.40 0.1667691
1100.50 0.1667235
1100.60 0.1666781
1100.70 0.1666326
1100.80 0.1665871
1100.90 0.1665417
1101.00 0.1664962
1101.10 0.1664508
1101.20 0.1664054
1101.30 0.16636
1101.40 0.1663146
1101.50 0.1662692
1101.60 0.1662239
1101.70 0.1661785
1101.80 0.1661332
1101.90 0.1660879
1102.00 0.1660426
1102.10 0.1659973
1102.20 0.165952
1102.30 0.1659068
1102.40 0.1658615
1102.50 0.1658163
1102.60 0.1657711
1102.70 0.1657259
1102.80 0.1656807
1102.90 0.1656355
1103.00 0.1655904
1103.10 0.1655452
1103.20 0.1655001
1103.30 0.1654549
1103.40 0.1654098
1103.50 0.1653647
1103.60 0.1653197
1103.70 0.1652746
1103.80 0.1652295
1103.90 0.1651845
1104.00 0.1651395
1104.10 0.1650945
1104.20 0.1650495
1104.30 0.1650045
1104.40 0.1649595
1104.50 0.1649145
1104.60 0.1648696
1104.70 0.1648247
1104.80 0.1647797
1104.90 0.1647348
1105.00 0.1646899
1105.10 0.1646451
1105.20 0.1646002
1105.30 0.1645554
1105.40 0.1645105
1105.50 0.1644657
1105.60 0.1644209
1105.70 0.1643761
1105.80 0.1643325
1105.90 0.164289
1106.00 0.1642454
1106.10 0.1642019
1106.20 0.1641584
1106.30 0.1641149
1106.40 0.1640714
1106.50 0.1640279
1106.60 0.1639845
1106.70 0.163941
1106.80 0.1638976
1106.90 0.1638541
1107.00 0.1638107
1107.10 0.1637673
1107.20 0.1637239
1107.30 0.1636806
1107.40 0.1636372
1107.50 0.1635938
1107.60 0.1635505
1107.70 0.1635072
1107.80 0.1634639
1107.90 0.1634206
1108.00 0.1633773
1108.10 0.163334
1108.20 0.1632908
1108.30 0.1632475
1108.40 0.1632043
1108.50 0.1631611
1108.60 0.1631179
1108.70 0.1630747
1108.80 0.1630315
1108.90 0.1629883
1109.00 0.1629452
1109.10 0.162902
1109.20 0.1628589
1109.30 0.1628158
1109.40 0.1627727
1109.50 0.1627296
1109.60 0.1626865
1109.70 0.1626435
1109.80 0.1626004
1109.90 0.1625574
1110.00 0.1625143
1110.10 0.1624713
1110.20 0.1624283
1110.30 0.1623853
1110.40 0.1623424
1110.50 0.1622994
1110.60 0.1622565
1110.70 0.1622135
1110.80 0.1621706
1110.90 0.1621277
1111.00 0.1620848
1111.10 0.1620419
1111.20 0.161999
1111.30 0.1619562
1111.40 0.1619133
1111.50 0.1618705
1111.60 0.1618277
1111.70 0.1617849
1111.80 0.1617421
1111.90 0.1616993
1112.00 0.1616565
1112.10 0.1616138
1112.20 0.161571
1112.30 0.1615283
1112.40 0.1614856
1112.50 0.1614429
1112.60 0.1614002
1112.70 0.1613575
1112.80 0.1613148
1112.90 0.1612722
1113.00 0.1612295
1113.10 0.1611869
1113.20 0.1611443
1113.30 0.1611017
1113.40 0.1610591
1113.50 0.1610165
1113.60 0.160974
1113.70 0.1609314
1113.80 0.1608889
1113.90 0.1608463
1114.00 0.1608038
1114.10 0.1607613
1114.20 0.1607188
1114.30 0.1606764
1114.40 0.1606339
1114.50 0.1605915
1114.60 0.160549
1114.70 0.1605066
1114.80 0.1604642
1114.90 0.1604218
1115.00 0.1603794
1115.10 0.160337
1115.20 0.1602946
1115.30 0.1602523
1115.40 0.16021
1115.50 0.1601676
1115.60 0.1601253
1115.70 0.160083
1115.80 0.1600407
1115.90 0.1599985
1116.00 0.1599562
1116.10 0.159914
1116.20 0.1598717
1116.30 0.1598295
1116.40 0.1597873
1116.50 0.1597451
1116.60 0.1597029
1116.70 0.1596607
1116.80 0.1596182
1116.90 0.1595751
1117.00 0.1595321
1117.10 0.1594891
1117.20 0.159446
1117.30 0.159403
1117.40 0.1593601
1117.50 0.1593171
1117.60 0.1592741
1117.70 0.1592312
1117.80 0.1591883
1117.90 0.1591453
1118.00 0.1591024
1118.10 0.1590595
1118.20 0.1590167
1118.30 0.1589738
1118.40 0.1589309
1118.50 0.1588881
1118.60 0.1588453
1118.70 0.1588025
1118.80 0.1587596
1118.90 0.1587169
1119.00 0.1586741
1119.10 0.1586313
1119.20 0.1585886
1119.30 0.1585458
1119.40 0.1585031
1119.50 0.1584604
1119.60 0.1584177
1119.70 0.158375
1119.80 0.1583323
1119.90 0.1582896
1120.00 0.158247
1120.10 0.1582044
1120.20 0.1581617
1120.30 0.1581191
1120.40 0.1580765
1120.50 0.1580339
1120.60 0.1579914
1120.70 0.1579488
1120.80 0.1579062
1120.90 0.1578637
1121.00 0.1578212
1121.10 0.1577787
1121.20 0.1577362
1121.30 0.1576937
1121.40 0.1576512
1121.50 0.1576088
1121.60 0.1575663
1121.70 0.1575239
1121.80 0.1574814
1121.90 0.157439
1122.00 0.1573966
1122.10 0.1573543
1122.20 0.1573119
1122.30 0.1572695
1122.40 0.1572272
1122.50 0.1571848
1122.60 0.1571425
1122.70 0.1571002
1122.80 0.1570579
1122.90 0.1570156
1123.00 0.1569733
1123.10 0.1569311
1123.20 0.1568888
1123.30 0.1568466
1123.40 0.1568044
1123.50 0.1567622
1123.60 0.15672
1123.70 0.1566778
1123.80 0.1566356
1123.90 0.1565934
1124.00 0.1565513
1124.10 0.1565091
1124.20 0.156467
1124.30 0.1564249
1124.40 0.1563828
1124.50 0.1563407
1124.60 0.1562987
1124.70 0.1562566
1124.80 0.1562145
1124.90 0.1561725
1125.00 0.1561305
1125.10 0.1560885
1125.20 0.1560465
1125.30 0.1560045
1125.40 0.1559625
1125.50 0.1559206
1125.60 0.1558786
1125.70 0.1558367
1125.80 0.1557947
1125.90 0.1557528
1126.00 0.1557109
1126.10 0.155669
1126.20 0.1556272
1126.30 0.1555853
1126.40 0.1555435
1126.50 0.1555016
1126.60 0.1554598
1126.70 0.155418
1126.80 0.1553762
1126.90 0.1553344
1127.00 0.1552926
1127.10 0.1552509
1127.20 0.1552091
1127.30 0.1551674
1127.40 0.1551256
1127.50 0.1550839
1127.60 0.1550422
1127.70 0.1550005
1127.80 0.1549589
1127.90 0.1549172
1128.00 0.1548757
1128.10 0.1548342
1128.20 0.1547927
1128.30 0.1547512
1128.40 0.1547097
1128.50 0.1546683
1128.60 0.1546269
1128.70 0.1545854
1128.80 0.154544
1128.90 0.1545026
1129.00 0.1544612
1129.10 0.1544199
1129.20 0.1543785
1129.30 0.1543372
1129.40 0.1542958
1129.50 0.1542545
1129.60 0.1542132
1129.70 0.1541719
1129.80 0.1541306
1129.90 0.1540893
1130.00 0.1540481
1130.10 0.1540068
1130.20 0.1539656
1130.30 0.1539243
1130.40 0.1538831
1130.50 0.1538419
1130.60 0.1538007
1130.70 0.1537596
1130.80 0.1537184
1130.90 0.1536772
1131.00 0.1536361
1131.10 0.153595
1131.20 0.1535539
1131.30 0.1535127
1131.40 0.1534717
1131.50 0.1534306
1131.60 0.1533895
1131.70 0.1533484
1131.80 0.1533074
1131.90 0.1532664
1132.00 0.1532253
1132.10 0.1531843
1132.20 0.1531433
1132.30 0.1531024
1132.40 0.1530614
1132.50 0.1530204
1132.60 0.1529795
1132.70 0.1529385
1132.80 0.1528976
1132.90 0.1528567
1133.00 0.1528158
1133.10 0.1527749
1133.20 0.152734
1133.30 0.1526932
1133.40 0.1526523
1133.50 0.1526115
1133.60 0.1525707
1133.70 0.1525298
1133.80 0.152489
1133.90 0.1524482
1134.00 0.1524075
1134.10 0.1523667
1134.20 0.1523259
1134.30 0.1522852
1134.40 0.1522445
1134.50 0.1522038
1134.60 0.152163
1134.70 0.1521223
1134.80 0.1520817
1134.90 0.152041
1135.00 0.1520003
1135.10 0.1519597
1135.20 0.1519191
1135.30 0.1518784
1135.40 0.1518378
1135.50 0.1517972
1135.60 0.1517566
1135.70 0.1517161
1135.80 0.1516755
1135.90 0.1516349
1136.00 0.1515944
1136.10 0.1515539
1136.20 0.1515134
1136.30 0.1514728
1136.40 0.1514324
1136.50 0.1513919
1136.60 0.1513514
1136.70 0.151311
1136.80 0.1512705
1136.90 0.1512301
1137.00 0.1511897
1137.10 0.1511492
1137.20 0.1511088
1137.30 0.1510685
1137.40 0.1510281
1137.50 0.1509877
1137.60 0.1509474
1137.70 0.150907
1137.80 0.1508667
1137.90 0.1508264
1138.00 0.1507861
1138.10 0.1507458
1138.20 0.1507055
1138.30 0.1506653
1138.40 0.150625
1138.50 0.1505848
1138.60 0.1505445
1138.70 0.1505043
1138.80 0.1504641
1138.90 0.1504239
1139.00 0.1503837
1139.10 0.1503435
1139.20 0.1503034
1139.30 0.1502643
1139.40 0.1502253
1139.50 0.1501863
1139.60 0.1501473
1139.70 0.1501083
1139.80 0.1500693
1139.90 0.1500303
1140.00 0.1499914
1140.10 0.1499524
1140.20 0.1499135
1140.30 0.1498746
1140.40 0.1498356
1140.50 0.1497967
1140.60 0.1497578
1140.70 0.149719
1140.80 0.1496801
1140.90 0.1496412
1141.00 0.1496024
1141.10 0.1495635
1141.20 0.1495247
1141.30 0.1494859
1141.40 0.1494471
1141.50 0.1494083
1141.60 0.1493695
1141.70 0.1493308
1141.80 0.149292
1141.90 0.1492533
1142.00 0.1492145
1142.10 0.1491758
1142.20 0.1491371
1142.30 0.1490984
1142.40 0.1490597
1142.50 0.149021
1142.60 0.1489824
1142.70 0.1489437
1142.80 0.1489051
1142.90 0.1488664
1143.00 0.1488278
1143.10 0.1487892
1143.20 0.1487506
1143.30 0.148712
1143.40 0.1486734
1143.50 0.1486349
1143.60 0.1485963
1143.70 0.1485578
1143.80 0.1485192
1143.90 0.1484807
1144.00 0.1484422
1144.10 0.1484037
1144.20 0.1483652
1144.30 0.1483268
1144.40 0.1482883
1144.50 0.1482498
1144.60 0.1482114
1144.70 0.148173
1144.80 0.1481345
1144.90 0.1480961
1145.00 0.1480577
1145.10 0.1480194
1145.20 0.147981
1145.30 0.1479426
1145.40 0.1479043
1145.50 0.1478659
1145.60 0.1478276
1145.70 0.1477893
1145.80 0.147751
1145.90 0.1477127
1146.00 0.1476744
1146.10 0.1476361
1146.20 0.1475978
1146.30 0.1475596
1146.40 0.1475213
1146.50 0.1474831
1146.60 0.1474449
1146.70 0.1474067
1146.80 0.1473685
1146.90 0.1473303
1147.00 0.1472921
1147.10 0.147254
1147.20 0.1472158
1147.30 0.1471777
1147.40 0.1471395
1147.50 0.1471014
1147.60 0.1470633
1147.70 0.1470252
1147.80 0.1469871
1147.90 0.146949
1148.00 0.146911
1148.10 0.1468729
1148.20 0.1468349
1148.30 0.1467969
1148.40 0.1467588
1148.50 0.1467208
1148.60 0.1466828
1148.70 0.1466448
1148.80 0.1466069
1148.90 0.1465689
1149.00 0.1465309
1149.10 0.146493
1149.20 0.1464551
1149.30 0.1464171
1149.40 0.1463792
1149.50 0.1463413
1149.60 0.1463034
1149.70 0.1462656
1149.80 0.1462277
1149.90 0.1461898
1150.00 0.146152
1150.10 0.1461142
1150.20 0.1460763
1150.30 0.1460385
1150.40 0.1460007
1150.50 0.1459629
1150.60 0.1459251
1150.70 0.1458865
1150.80 0.1458479
1150.90 0.1458094
1151.00 0.1457708
1151.10 0.1457323
1151.20 0.1456937
1151.30 0.1456552
1151.40 0.1456167
1151.50 0.1455782
1151.60 0.1455397
1151.70 0.1455012
1151.80 0.1454627
1151.90 0.1454243
1152.00 0.1453858
1152.10 0.1453474
1152.20 0.145309
1152.30 0.1452706
1152.40 0.1452322
1152.50 0.1451938
1152.60 0.1451554
1152.70 0.145117
1152.80 0.1450787
1152.90 0.1450403
1153.00 0.145002
1153.10 0.1449637
1153.20 0.1449253
1153.30 0.144887
1153.40 0.1448487
1153.50 0.1448105
1153.60 0.1447722
1153.70 0.1447339
1153.80 0.1446957
1153.90 0.1446575
1154.00 0.1446192
1154.10 0.144581
1154.20 0.1445428
1154.30 0.1445046
1154.40 0.1444664
1154.50 0.1444283
1154.60 0.1443901
1154.70 0.144352
1154.80 0.1443138
1154.90 0.1442757
1155.00 0.1442376
1155.10 0.1441995
1155.20 0.1441614
1155.30 0.1441233
1155.40 0.1440853
1155.50 0.1440472
1155.60 0.1440091
1155.70 0.1439711
1155.80 0.1439331
1155.90 0.1438951
1156.00 0.1438571
1156.10 0.1438191
1156.20 0.1437811
1156.30 0.1437431
1156.40 0.1437052
1156.50 0.1436672
1156.60 0.1436293
1156.70 0.1435914
1156.80 0.1435534
1156.90 0.1435155
1157.00 0.1434777
1157.10 0.1434398
1157.20 0.1434019
1157.30 0.1433641
1157.40 0.1433262
1157.50 0.1432884
1157.60 0.1432505
1157.70 0.1432127
1157.80 0.1431749
1157.90 0.1431371
1158.00 0.1430994
1158.10 0.1430616
1158.20 0.1430238
1158.30 0.1429861
1158.40 0.1429483
1158.50 0.1429106
1158.60 0.1428729
1158.70 0.1428352
1158.80 0.1427975
1158.90 0.1427598
1159.00 0.1427222
1159.10 0.1426845
1159.20 0.1426468
1159.30 0.1426092
1159.40 0.1425716
1159.50 0.142534
1159.60 0.1424964
1159.70 0.1424588
1159.80 0.1424212
1159.90 0.1423836
1160.00 0.142346
1160.10 0.1423085
1160.20 0.1422709
1160.30 0.1422334
1160.40 0.1421959
1160.50 0.1421584
1160.60 0.1421209
1160.70 0.1420834
1160.80 0.1420459
1160.90 0.1420085
1161.00 0.141971
1161.10 0.1419336
1161.20 0.1418961
1161.30 0.1418587
1161.40 0.1418213
1161.50 0.1417839
1161.60 0.1417465
1161.70 0.1417091
1161.80 0.1416718
1161.90 0.1416344
1162.00 0.1415971
1162.10 0.1415597
1162.20 0.1415225
1162.30 0.1414853
1162.40 0.1414482
1162.50 0.141411
1162.60 0.1413738
1162.70 0.1413367
1162.80 0.1412995
1162.90 0.1412624
1163.00 0.1412253
1163.10 0.1411882
1163.20 0.1411511
1163.30 0.141114
1163.40 0.141077
1163.50 0.1410399
1163.60 0.1410028
1163.70 0.1409658
1163.80 0.1409288
1163.90 0.1408918
1164.00 0.1408547
1164.10 0.1408177
1164.20 0.1407808
1164.30 0.1407438
1164.40 0.1407068
1164.50 0.1406699
1164.60 0.1406329
1164.70 0.140596
1164.80 0.1405591
1164.90 0.1405221
1165.00 0.1404852
1165.10 0.1404484
1165.20 0.1404115
1165.30 0.1403746
1165.40 0.1403377
1165.50 0.1403009
1165.60 0.1402641
1165.70 0.1402272
1165.80 0.1401904
1165.90 0.1401536
1166.00 0.1401168
1166.10 0.14008
1166.20 0.1400432
1166.30 0.1400065
1166.40 0.1399697
1166.50 0.139933
1166.60 0.1398963
1166.70 0.1398595
1166.80 0.1398228
1166.90 0.1397861
1167.00 0.1397494
1167.10 0.1397127
1167.20 0.1396761
1167.30 0.1396394
1167.40 0.1396028
1167.50 0.1395661
1167.60 0.1395295
1167.70 0.1394929
1167.80 0.1394563
1167.90 0.1394197
1168.00 0.1393831
1168.10 0.1393465
1168.20 0.13931
1168.30 0.1392734
1168.40 0.1392369
1168.50 0.1392003
1168.60 0.1391638
1168.70 0.1391273
1168.80 0.1390908
1168.90 0.1390543
1169.00 0.1390178
1169.10 0.1389814
1169.20 0.1389449
1169.30 0.1389085
1169.40 0.138872
1169.50 0.1388356
1169.60 0.1387992
1169.70 0.1387628
1169.80 0.1387264
1169.90 0.13869
1170.00 0.1386536
1170.10 0.1386173
1170.20 0.1385809
1170.30 0.1385446
1170.40 0.1385082
1170.50 0.1384719
1170.60 0.1384356
1170.70 0.1383993
1170.80 0.138363
1170.90 0.1383267
1171.00 0.1382905
1171.10 0.1382542
1171.20 0.1382179
1171.30 0.1381817
1171.40 0.1381455
1171.50 0.1381093
1171.60 0.138073
1171.70 0.1380368
1171.80 0.1380007
1171.90 0.1379645
1172.00 0.1379283
1172.10 0.1378922
1172.20 0.137856
1172.30 0.1378199
1172.40 0.1377837
1172.50 0.1377476
1172.60 0.1377115
1172.70 0.1376754
1172.80 0.1376393
1172.90 0.1376033
1173.00 0.1375672
1173.10 0.1375312
1173.20 0.1374951
1173.30 0.1374591
1173.40 0.1374231
1173.50 0.137387
1173.60 0.137351
1173.70 0.1373151
1173.80 0.1372792
1173.90 0.1372433
1174.00 0.1372075
1174.10 0.1371717
1174.20 0.1371358
1174.30 0.1371
1174.40 0.1370642
1174.50 0.1370284
1174.60 0.1369927
1174.70 0.1369569
1174.80 0.1369211
1174.90 0.1368854
1175.00 0.1368497
1175.10 0.1368139
1175.20 0.1367782
1175.30 0.1367425
1175.40 0.1367068
1175.50 0.1366711
1175.60 0.1366354
1175.70 0.1365998
1175.80 0.1365641
1175.90 0.1365285
1176.00 0.1364928
1176.10 0.1364572
1176.20 0.1364216
1176.30 0.136386
1176.40 0.1363504
1176.50 0.1363148
1176.60 0.1362792
1176.70 0.1362437
1176.80 0.1362081
1176.90 0.1361726
1177.00 0.136137
1177.10 0.1361015
1177.20 0.136066
1177.30 0.1360305
1177.40 0.135995
1177.50 0.1359595
1177.60 0.1359241
1177.70 0.1358886
1177.80 0.1358531
1177.90 0.1358177
1178.00 0.1357823
1178.10 0.1357468
1178.20 0.1357114
1178.30 0.135676
1178.40 0.1356406
1178.50 0.1356052
1178.60 0.1355699
1178.70 0.1355345
1178.80 0.1354992
1178.90 0.1354638
1179.00 0.1354285
1179.10 0.1353932
1179.20 0.1353578
1179.30 0.1353225
1179.40 0.1352873
1179.50 0.135252
1179.60 0.1352169
1179.70 0.1351834
1179.80 0.1351499
1179.90 0.1351164
1180.00 0.135083
1180.10 0.1350495
1180.20 0.135016
1180.30 0.1349826
1180.40 0.1349492
1180.50 0.1349158
1180.60 0.1348823
1180.70 0.1348489
1180.80 0.1348155
1180.90 0.1347822
1181.00 0.1347488
1181.10 0.1347154
1181.20 0.1346821
1181.30 0.1346487
1181.40 0.1346154
1181.50 0.134582
1181.60 0.1345487
1181.70 0.1345154
1181.80 0.1344821
1181.90 0.1344488
1182.00 0.1344155
1182.10 0.1343823
1182.20 0.134349
1182.30 0.1343157
1182.40 0.1342825
1182.50 0.1342493
1182.60 0.134216
1182.70 0.1341828
1182.80 0.1341496
1182.90 0.1341164
1183.00 0.1340832
1183.10 0.13405
1183.20 0.1340169
1183.30 0.1339837
1183.40 0.1339506
1183.50 0.1339174
1183.60 0.1338843
1183.70 0.1338512
1183.80 0.1338181
1183.90 0.1337849
1184.00 0.1337519
1184.10 0.1337188
1184.20 0.1336857
1184.30 0.1336526
1184.40 0.1336196
1184.50 0.1335865
1184.60 0.1335535
1184.70 0.1335204
1184.80 0.1334874
1184.90 0.1334544
1185.00 0.1334214
1185.10 0.1333884
1185.20 0.1333554
1185.30 0.1333224
1185.40 0.1332895
1185.50 0.1332558
1185.60 0.1332213
1185.70 0.1331867
1185.80 0.1331521
1185.90 0.1331176
1186.00 0.1330831
1186.10 0.1330485
1186.20 0.133014
1186.30 0.1329795
1186.40 0.132945
1186.50 0.1329105
1186.60 0.1328761
1186.70 0.1328416
1186.80 0.1328071
1186.90 0.1327727
1187.00 0.1327383
1187.10 0.1327038
1187.20 0.1326694
1187.30 0.132635
1187.40 0.1326006
1187.50 0.1325662
1187.60 0.1325318
1187.70 0.1324975
1187.80 0.1324631
1187.90 0.1324288
1188.00 0.1323944
1188.10 0.1323601
1188.20 0.1323258
1188.30 0.1322915
1188.40 0.1322572
1188.50 0.1322229
1188.60 0.1321886
1188.70 0.1321543
1188.80 0.1321201
1188.90 0.1320858
1189.00 0.1320516
1189.10 0.1320173
1189.20 0.1319831
1189.30 0.1319489
1189.40 0.1319147
1189.50 0.1318805
1189.60 0.1318463
1189.70 0.1318121
1189.80 0.131778
1189.90 0.1317438
1190.00 0.1317097
1190.10 0.1316755
1190.20 0.1316414
1190.30 0.1316073
1190.40 0.1315732
1190.50 0.1315391
1190.60 0.131505
1190.70 0.1314709
1190.80 0.1314368
1190.90 0.1314028
1191.00 0.1313687
1191.10 0.1313347
1191.20 0.1313006
1191.30 0.1312666
1191.40 0.1312326
1191.50 0.1311986
1191.60 0.1311646
1191.70 0.1311306
1191.80 0.1310967
1191.90 0.1310627
1192.00 0.1310287
1192.10 0.1309948
1192.20 0.1309609
1192.30 0.1309269
1192.40 0.130893
1192.50 0.1308591
1192.60 0.1308252
1192.70 0.1307913
1192.80 0.1307574
1192.90 0.1307236
1193.00 0.1306897
1193.10 0.1306559
1193.20 0.130622
1193.30 0.1305882
1193.40 0.1305544
1193.50 0.1305206
1193.60 0.1304867
1193.70 0.130453
1193.80 0.1304192
1193.90 0.1303854
1194.00 0.1303516
1194.10 0.1303179
1194.20 0.1302841
1194.30 0.1302504
1194.40 0.1302167
1194.50 0.130183
1194.60 0.1301492
1194.70 0.1301155
1194.80 0.1300819
1194.90 0.1300482
1195.00 0.1300145
1195.10 0.1299808
1195.20 0.1299472
1195.30 0.1299136
1195.40 0.1298799
1195.50 0.1298463
1195.60 0.1298127
1195.70 0.1297791
1195.80 0.1297455
1195.90 0.1297119
1196.00 0.1296783
1196.10 0.1296448
1196.20 0.1296112
1196.30 0.1295777
1196.40 0.1295441
1196.50 0.1295106
1196.60 0.1294771
1196.70 0.1294436
1196.80 0.1294101
1196.90 0.1293766
1197.00 0.1293431
1197.10 0.1293096
1197.20 0.1292761
1197.30 0.1292427
1197.40 0.1292094
1197.50 0.129176
1197.60 0.1291427
1197.70 0.1291094
1197.80 0.1290761
1197.90 0.1290429
1198.00 0.1290096
1198.10 0.1289763
1198.20 0.1289431
1198.30 0.1289098
1198.40 0.1288766
1198.50 0.1288434
1198.60 0.1288102
1198.70 0.128777
1198.80 0.1287438
1198.90 0.1287106
1199.00 0.1286774
1199.10 0.1286442
1199.20 0.1286111
1199.30 0.1285779
1199.40 0.1285448
1199.50 0.1285117
1199.60 0.1284785
1199.70 0.1284454
1199.80 0.1284123
1199.90 0.1283792
1200.00 0.1283462
