# Version 2.1 - nm, norm@500 to 1, cut digits, bergeron_He_4250_70.dat_4250
# Wavelength(nm)  Flambda(ergs/cm^s/s/nm)
300.00 0.03219715
300.10 0.03230211
300.20 0.03240741
300.30 0.0325129
300.40 0.03262043
300.50 0.03272781
300.60 0.03283504
300.70 0.03294212
300.80 0.03304905
300.90 0.03315583
301.00 0.03326246
301.10 0.03336894
301.20 0.03347527
301.30 0.03358146
301.40 0.03368749
301.50 0.03379338
301.60 0.03389912
301.70 0.03400471
301.80 0.03411016
301.90 0.03421546
302.00 0.03432061
302.10 0.03443148
302.20 0.03454284
302.30 0.03465405
302.40 0.03476511
302.50 0.03487601
302.60 0.03498676
302.70 0.03509735
302.80 0.03520779
302.90 0.03531808
303.00 0.03542821
303.10 0.03553819
303.20 0.03564802
303.30 0.03575821
303.40 0.03587296
303.50 0.03598755
303.60 0.03610198
303.70 0.03621625
303.80 0.03633036
303.90 0.03644431
304.00 0.03655811
304.10 0.03667175
304.20 0.03678523
304.30 0.03689855
304.40 0.03701172
304.50 0.03712473
304.60 0.03724324
304.70 0.03736222
304.80 0.03748103
304.90 0.03759968
305.00 0.03771816
305.10 0.03783648
305.20 0.03795464
305.30 0.03807263
305.40 0.03819047
305.50 0.03830814
305.60 0.03842565
305.70 0.03854299
305.80 0.03866018
305.90 0.0387772
306.00 0.03889406
306.10 0.03901076
306.20 0.0391273
306.30 0.03924368
306.40 0.03936739
306.50 0.03949317
306.60 0.03961878
306.70 0.03974422
306.80 0.03986948
306.90 0.03999458
307.00 0.0401195
307.10 0.04024425
307.20 0.04036882
307.30 0.04049323
307.40 0.04061747
307.50 0.04074154
307.60 0.04086544
307.70 0.04098916
307.80 0.04111272
307.90 0.04123611
308.00 0.04135933
308.10 0.04148239
308.20 0.04160527
308.30 0.04172799
308.40 0.04185053
308.50 0.04197291
308.60 0.04209513
308.70 0.04221717
308.80 0.04234093
308.90 0.04246987
309.00 0.04259803
309.10 0.04272601
309.20 0.04285382
309.30 0.04298146
309.40 0.0431095
309.50 0.04324096
309.60 0.04337224
309.70 0.04350334
309.80 0.04363426
309.90 0.043765
310.00 0.04389557
310.10 0.04402596
310.20 0.04415617
310.30 0.04428621
310.40 0.04441739
310.50 0.04454983
310.60 0.04468209
310.70 0.04481417
310.80 0.04494608
310.90 0.0450778
311.00 0.04521292
311.10 0.04534785
311.20 0.04548261
311.30 0.04561766
311.40 0.04575391
311.50 0.04588997
311.60 0.04602585
311.70 0.04616155
311.80 0.04629706
311.90 0.04643239
312.00 0.04656754
312.10 0.0467025
312.20 0.04683987
312.30 0.04697838
312.40 0.04711446
312.50 0.04725485
312.60 0.04739336
312.70 0.04753169
312.80 0.04766983
312.90 0.04780913
313.00 0.04794969
313.10 0.04809006
313.20 0.04823024
313.30 0.04837078
313.40 0.04851265
313.50 0.04865434
313.60 0.04879583
313.70 0.04893714
313.80 0.04907825
313.90 0.04921918
314.00 0.04935991
314.10 0.04950469
314.20 0.04964928
314.30 0.04979367
314.40 0.04993787
314.50 0.05008187
314.60 0.05022569
314.70 0.05036931
314.80 0.05051704
314.90 0.05066563
315.00 0.0508019
315.10 0.05095234
315.20 0.05110258
315.30 0.05125263
315.40 0.05140247
315.50 0.05155211
315.60 0.05170155
315.70 0.05184252
315.80 0.0519833
315.90 0.0521239
316.00 0.0522643
316.10 0.05242927
316.20 0.05259402
316.30 0.05273383
316.40 0.05289816
316.50 0.05303758
316.60 0.05320149
316.70 0.05334052
316.80 0.05347936
316.90 0.05363034
317.00 0.05378111
317.10 0.05393168
317.20 0.05408205
317.30 0.05424564
317.40 0.05440559
317.50 0.05455564
317.60 0.05470548
317.70 0.05485513
317.80 0.05500457
317.90 0.0551632
318.00 0.05532871
318.10 0.05548948
318.20 0.05565004
318.30 0.05581038
318.40 0.05596417
318.50 0.05609971
318.60 0.05625408
318.70 0.05641359
318.80 0.0565583
318.90 0.056732
319.00 0.05687824
319.10 0.05703693
319.20 0.05719834
319.30 0.0573679
319.40 0.05753723
319.50 0.05770634
319.60 0.05783013
319.70 0.05799883
319.80 0.0581673
319.90 0.05833555
320.00 0.05849818
320.10 0.05865475
320.20 0.05880998
320.30 0.05899041
320.40 0.05912707
320.50 0.05930208
320.60 0.05948263
320.70 0.05963793
320.80 0.0597988
320.90 0.0599657
321.00 0.06013238
321.10 0.06029884
321.20 0.06046913
321.30 0.06063876
321.40 0.06080817
321.50 0.06097735
321.60 0.06114631
321.70 0.06131504
321.80 0.06147734
321.90 0.06163269
322.00 0.06179784
322.10 0.06196704
322.20 0.06213602
322.30 0.06230478
322.40 0.06247331
322.50 0.06264163
322.60 0.06280972
322.70 0.06297759
322.80 0.06314943
322.90 0.06332521
323.00 0.06350077
323.10 0.0636761
323.20 0.06385119
323.30 0.06402606
323.40 0.0642007
323.50 0.06437511
323.60 0.0645493
323.70 0.06472325
323.80 0.06489698
323.90 0.06507048
324.00 0.06524452
324.10 0.06541833
324.20 0.06559191
324.30 0.06577239
324.40 0.06596228
324.50 0.0661404
324.60 0.06631829
324.70 0.06649595
324.80 0.06667338
324.90 0.06685058
325.00 0.06702754
325.10 0.06720428
325.20 0.06737888
325.30 0.06754921
325.40 0.06771932
325.50 0.06789459
325.60 0.06807621
325.70 0.06825759
325.80 0.06843874
325.90 0.06862391
326.00 0.06881344
326.10 0.06900274
326.20 0.06919178
326.30 0.069378
326.40 0.0695566
326.50 0.06974411
326.60 0.06993137
326.70 0.07011839
326.80 0.07030516
326.90 0.0704917
327.00 0.07067799
327.10 0.07086405
327.20 0.07104986
327.30 0.07123543
327.40 0.07142077
327.50 0.07160586
327.60 0.07179071
327.70 0.07197533
327.80 0.0721597
327.90 0.07234154
328.00 0.07252722
328.10 0.07272071
328.20 0.07291394
328.30 0.07310693
328.40 0.07329967
328.50 0.07348837
328.60 0.07367594
328.70 0.07386327
328.80 0.07405249
328.90 0.07424754
329.00 0.07444234
329.10 0.07463689
329.20 0.07483118
329.30 0.07502523
329.40 0.07521903
329.50 0.07541258
329.60 0.07560588
329.70 0.07579893
329.80 0.07599173
329.90 0.07618429
330.00 0.07637741
330.10 0.07657128
330.20 0.07676491
330.30 0.07695828
330.40 0.07715664
330.50 0.07736042
330.60 0.07756393
330.70 0.07776719
330.80 0.07797018
330.90 0.07817292
331.00 0.0783754
331.10 0.07857761
331.20 0.07877957
331.30 0.07898127
331.40 0.07918272
331.50 0.07937763
331.60 0.07956464
331.70 0.07975141
331.80 0.07995859
331.90 0.08016636
332.00 0.08037386
332.10 0.08058111
332.20 0.08078808
332.30 0.0809948
332.40 0.08120125
332.50 0.08140743
332.60 0.08161336
332.70 0.08181902
332.80 0.08202442
332.90 0.08222956
333.00 0.08243444
333.10 0.08264308
333.20 0.08285637
333.30 0.08306938
333.40 0.08328213
333.50 0.08349461
333.60 0.08370682
333.70 0.08391875
333.80 0.08413042
333.90 0.08434182
334.00 0.08455296
334.10 0.08476249
334.20 0.08497014
334.30 0.08517752
334.40 0.08538464
334.50 0.08559149
334.60 0.08579809
334.70 0.08602225
334.80 0.08624972
334.90 0.08645073
335.00 0.08665149
335.10 0.08686971
335.20 0.08710406
335.30 0.08730842
335.40 0.08752021
335.50 0.08773723
335.60 0.08797044
335.70 0.08817374
335.80 0.08838445
335.90 0.08859982
336.00 0.08882095
336.10 0.0890418
336.20 0.08926238
336.30 0.08948431
336.40 0.08970797
336.50 0.08993135
336.60 0.09015444
336.70 0.09037726
336.80 0.09059979
336.90 0.09082405
337.00 0.09105048
337.10 0.09127663
337.20 0.09150249
337.30 0.091727
337.40 0.09194969
337.50 0.09217211
337.60 0.09239424
337.70 0.0926161
337.80 0.09283768
337.90 0.09306314
338.00 0.09329339
338.10 0.09352336
338.20 0.09375304
338.30 0.09398243
338.40 0.09421081
338.50 0.09443713
338.60 0.09466318
338.70 0.09488894
338.80 0.09511442
338.90 0.09533962
339.00 0.09556453
339.10 0.09578916
339.20 0.09601351
339.30 0.09624835
339.40 0.09649838
339.50 0.09674197
339.60 0.09697776
339.70 0.09721326
339.80 0.09744846
339.90 0.09768336
340.00 0.09791798
340.10 0.0981523
340.20 0.09838633
340.30 0.09862006
340.40 0.09885351
340.50 0.09908666
340.60 0.09931953
340.70 0.0995521
340.80 0.09978102
340.90 0.1000048
341.00 0.1002378
341.10 0.1004819
341.20 0.1007258
341.30 0.1009694
341.40 0.1012126
341.50 0.1014556
341.60 0.1016982
341.70 0.1019406
341.80 0.1021814
341.90 0.1024203
342.00 0.102659
342.10 0.1028974
342.20 0.1031392
342.30 0.1033852
342.40 0.1036288
342.50 0.1038725
342.60 0.1041159
342.70 0.1043591
342.80 0.1046019
342.90 0.1048445
343.00 0.1050907
343.10 0.1053415
343.20 0.105592
343.30 0.1058422
343.40 0.1060904
343.50 0.1063361
343.60 0.1065815
343.70 0.1068266
343.80 0.1070714
343.90 0.1073158
344.00 0.1075629
344.10 0.1078137
344.20 0.1080642
344.30 0.1083144
344.40 0.1085644
344.50 0.1088139
344.60 0.1091049
344.70 0.1093539
344.80 0.1096025
344.90 0.1098508
345.00 0.1100989
345.10 0.1103466
345.20 0.1105986
345.30 0.110857
345.40 0.111115
345.50 0.1113712
345.60 0.1116278
345.70 0.1118874
345.80 0.1121468
345.90 0.1124058
346.00 0.1126646
346.10 0.112923
346.20 0.1131822
346.30 0.1134427
346.40 0.1137029
346.50 0.1139628
346.60 0.1142223
346.70 0.1144816
346.80 0.1147405
346.90 0.1149991
347.00 0.1152574
347.10 0.1155153
347.20 0.1157779
347.30 0.1160472
347.40 0.1163161
347.50 0.1165847
347.60 0.116853
347.70 0.117121
347.80 0.1173886
347.90 0.1176559
348.00 0.1179229
348.10 0.1181896
348.20 0.1184559
348.30 0.1187219
348.40 0.1189876
348.50 0.1192529
348.60 0.119518
348.70 0.1197813
348.80 0.1200493
348.90 0.1203245
349.00 0.1205995
349.10 0.120874
349.20 0.1211483
349.30 0.1214222
349.40 0.1216958
349.50 0.1219691
349.60 0.122242
349.70 0.1225146
349.80 0.1227868
349.90 0.1230587
350.00 0.1233303
350.10 0.1236016
350.20 0.1238725
350.30 0.1241468
350.40 0.124426
350.50 0.1247048
350.60 0.1249833
350.70 0.1252615
350.80 0.1255393
350.90 0.1258168
351.00 0.126094
351.10 0.1263708
351.20 0.1266473
351.30 0.1269234
351.40 0.1272035
351.50 0.1274907
351.60 0.1277776
351.70 0.1280641
351.80 0.1283503
351.90 0.1286361
352.00 0.1289216
352.10 0.1292068
352.20 0.1294824
352.30 0.1297633
352.40 0.1300533
352.50 0.130343
352.60 0.1306324
352.70 0.1309214
352.80 0.13121
352.90 0.1314983
353.00 0.1317863
353.10 0.1320739
353.20 0.1323612
353.30 0.1326481
353.40 0.1329347
353.50 0.1332242
353.60 0.1335142
353.70 0.1338038
353.80 0.1340931
353.90 0.1343843
354.00 0.1346788
354.10 0.1349731
354.20 0.1352669
354.30 0.1355604
354.40 0.1358536
354.50 0.1361464
354.60 0.1364389
354.70 0.136731
354.80 0.137025
354.90 0.1373218
355.00 0.1376183
355.10 0.1379144
355.20 0.1382102
355.30 0.1385052
355.40 0.1387998
355.50 0.1390941
355.60 0.139388
355.70 0.1396797
355.80 0.1399701
355.90 0.1402781
356.00 0.14059
356.10 0.1408947
356.20 0.141199
356.30 0.141503
356.40 0.1418065
356.50 0.1421098
356.60 0.1424126
356.70 0.1427151
356.80 0.1430172
356.90 0.143319
357.00 0.1436204
357.10 0.1439215
357.20 0.1442222
357.30 0.1445225
357.40 0.1448264
357.50 0.1451371
357.60 0.1454474
357.70 0.1457573
357.80 0.1460622
357.90 0.1463668
358.00 0.1466787
358.10 0.1469922
358.20 0.1473053
358.30 0.147618
358.40 0.1479303
358.50 0.1482423
358.60 0.1485539
358.70 0.1488651
358.80 0.149176
358.90 0.1494865
359.00 0.1497975
359.10 0.1501097
359.20 0.1504215
359.30 0.1507325
359.40 0.1510431
359.50 0.1513551
359.60 0.1516672
359.70 0.1519788
359.80 0.1522996
359.90 0.1526201
360.00 0.1529403
360.10 0.1532603
360.20 0.1535799
360.30 0.1538991
360.40 0.154218
360.50 0.1545365
360.60 0.1548683
360.70 0.1551912
360.80 0.1555137
360.90 0.1558358
361.00 0.1561571
361.10 0.156468
361.20 0.1567859
361.30 0.1571159
361.40 0.1574305
361.50 0.1577598
361.60 0.1581023
361.70 0.1584308
361.80 0.1587581
361.90 0.1590835
362.00 0.1594085
362.10 0.1597384
362.20 0.1600672
362.30 0.1603921
362.40 0.1607166
362.50 0.1610407
362.60 0.1613644
362.70 0.1616922
362.80 0.1620206
362.90 0.1623612
363.00 0.1627013
363.10 0.1630231
363.20 0.1633443
363.30 0.1636738
363.40 0.1640052
363.50 0.1643549
363.60 0.1646761
363.70 0.1650135
363.80 0.1653547
363.90 0.1656908
364.00 0.1660264
364.10 0.1663617
364.20 0.1666966
364.30 0.1670382
364.40 0.1673811
364.50 0.1677032
364.60 0.1680439
364.70 0.1683843
364.80 0.1687242
364.90 0.169059
365.00 0.1693934
365.10 0.1697274
365.20 0.1700795
365.30 0.1704313
365.40 0.1707641
365.50 0.1710965
365.60 0.1714285
365.70 0.1717719
365.80 0.1721149
365.90 0.1724695
366.00 0.1728266
366.10 0.1731675
366.20 0.1735079
366.30 0.173848
366.40 0.1741877
366.50 0.1745603
366.60 0.1749115
366.70 0.1752481
366.80 0.1755843
366.90 0.1759266
367.00 0.1762799
367.10 0.1766328
367.20 0.1769853
367.30 0.1773374
367.40 0.1776891
367.50 0.1780401
367.60 0.1783907
367.70 0.1787462
367.80 0.1791013
367.90 0.179456
368.00 0.1798113
368.10 0.1801654
368.20 0.1805219
368.30 0.1808779
368.40 0.1812336
368.50 0.1815888
368.60 0.1819436
368.70 0.182298
368.80 0.182652
368.90 0.1830062
369.00 0.1833672
369.10 0.1837293
369.20 0.1840699
369.30 0.1844296
369.40 0.184789
369.50 0.1851479
369.60 0.1855162
369.70 0.185884
369.80 0.1862431
369.90 0.1866016
370.00 0.1869598
370.10 0.1873241
370.20 0.1876923
370.30 0.1880599
370.40 0.1884093
370.50 0.1887756
370.60 0.1891425
370.70 0.1894949
370.80 0.189876
370.90 0.1902567
371.00 0.1906238
371.10 0.1909904
371.20 0.1913519
371.30 0.191713
371.40 0.192072
371.50 0.1924426
371.60 0.1928126
371.70 0.1931823
371.80 0.1935515
371.90 0.1939204
372.00 0.1943009
372.10 0.1946813
372.20 0.1950529
372.30 0.1954239
372.40 0.1957946
372.50 0.1961648
372.60 0.1965347
372.70 0.196904
372.80 0.1972943
372.90 0.197684
373.00 0.1980606
373.10 0.1984366
373.20 0.1988097
373.30 0.1991825
373.40 0.1995548
373.50 0.1999444
373.60 0.2003158
373.70 0.2007045
373.80 0.2010829
373.90 0.2014453
374.00 0.2018327
374.10 0.2022197
374.20 0.2026062
374.30 0.2029923
374.40 0.2033691
374.50 0.203758
374.60 0.2041354
374.70 0.2045122
374.80 0.2048885
374.90 0.2052643
375.00 0.2056591
375.10 0.2060534
375.20 0.2064472
375.30 0.2068339
375.40 0.2072202
375.50 0.207606
375.60 0.2079914
375.70 0.2083764
375.80 0.2087609
375.90 0.209145
376.00 0.2095534
376.10 0.209945
376.20 0.210336
376.30 0.2107266
376.40 0.2111167
376.50 0.2115078
376.60 0.2119006
376.70 0.212293
376.80 0.2126844
376.90 0.2130748
377.00 0.2134648
377.10 0.2138544
377.20 0.2142449
377.30 0.2146401
377.40 0.2150349
377.50 0.2154293
377.60 0.2158281
377.70 0.2162264
377.80 0.2166243
377.90 0.2170217
378.00 0.2174166
378.10 0.2178221
378.20 0.2182273
378.30 0.2186321
378.40 0.2190364
378.50 0.2194402
378.60 0.2198436
378.70 0.2202465
378.80 0.2206489
378.90 0.2210481
379.00 0.2214417
379.10 0.2218481
379.20 0.222254
379.30 0.2226588
379.40 0.2230625
379.50 0.2234657
379.60 0.223868
379.70 0.2242714
379.80 0.2246832
379.90 0.2250945
380.00 0.2255053
380.10 0.2259157
380.20 0.2263256
380.30 0.226735
380.40 0.227144
380.50 0.2275525
380.60 0.2279598
380.70 0.2283753
380.80 0.2287904
380.90 0.2292049
381.00 0.229619
381.10 0.2300307
381.20 0.230441
381.30 0.2308655
381.40 0.2312653
381.50 0.2316844
381.60 0.232104
381.70 0.2325251
381.80 0.2329337
381.90 0.2333544
382.00 0.2337746
382.10 0.2341944
382.20 0.2345934
382.30 0.2350122
382.40 0.2354311
382.50 0.2358504
382.60 0.2362692
382.70 0.2366948
382.80 0.237125
382.90 0.2375517
383.00 0.2379779
383.10 0.2384037
383.20 0.2388269
383.30 0.2392417
383.40 0.2396616
383.50 0.2400892
383.60 0.2405181
383.70 0.2409462
383.80 0.2413737
383.90 0.2418008
384.00 0.2422273
384.10 0.2426534
384.20 0.2430791
384.30 0.2435042
384.40 0.2439302
384.50 0.2443572
384.60 0.2447836
384.70 0.2452095
384.80 0.2456413
384.90 0.2460878
385.00 0.2465186
385.10 0.2469487
385.20 0.2473721
385.30 0.2478019
385.40 0.2482357
385.50 0.2486733
385.60 0.2491105
385.70 0.2495472
385.80 0.249983
385.90 0.2504168
386.00 0.2508511
386.10 0.2512859
386.20 0.2517193
386.30 0.2521521
386.40 0.2525901
386.50 0.2530257
386.60 0.253457
386.70 0.2539049
386.80 0.2543522
386.90 0.2547991
387.00 0.2552256
387.10 0.2556558
387.20 0.2561019
387.30 0.2565461
387.40 0.256989
387.50 0.2574323
387.60 0.2578778
387.70 0.2583207
387.80 0.2587632
387.90 0.2592051
388.00 0.2596461
388.10 0.260099
388.20 0.260535
388.30 0.2609841
388.40 0.2614327
388.50 0.2618882
388.60 0.262351
388.70 0.2627872
388.80 0.2632244
388.90 0.2636921
389.00 0.2641322
389.10 0.2645819
389.20 0.2650373
389.30 0.2654751
389.40 0.2659244
389.50 0.2663801
389.60 0.2668467
389.70 0.2673112
389.80 0.2677665
389.90 0.2682213
390.00 0.2686756
390.10 0.2691294
390.20 0.2695827
390.30 0.2700372
390.40 0.2704932
390.50 0.2709486
390.60 0.2714036
390.70 0.271858
390.80 0.2723083
390.90 0.2727543
391.00 0.2732251
391.10 0.2736819
391.20 0.2741415
391.30 0.2746088
391.40 0.2750713
391.50 0.2755333
391.60 0.2759947
391.70 0.2764556
391.80 0.2769161
391.90 0.2773764
392.00 0.2778412
392.10 0.2783124
392.20 0.2787819
392.30 0.2792346
392.40 0.2796836
392.50 0.2801716
392.60 0.2806227
392.70 0.2811053
392.80 0.2815553
392.90 0.2820201
393.00 0.2824899
393.10 0.2829655
393.20 0.283446
393.30 0.2839095
393.40 0.2843738
393.50 0.2848415
393.60 0.2853122
393.70 0.2857932
393.80 0.2862527
393.90 0.2867291
394.00 0.2872046
394.10 0.2876743
394.20 0.2881424
394.30 0.2886214
394.40 0.2891026
394.50 0.2895684
394.60 0.2900429
394.70 0.2905179
394.80 0.2909968
394.90 0.2914756
395.00 0.2919665
395.10 0.2924327
395.20 0.2929111
395.30 0.293392
395.40 0.2938723
395.50 0.2943532
395.60 0.2948341
395.70 0.2953161
395.80 0.2958024
395.90 0.2962882
396.00 0.2967717
396.10 0.2972413
396.20 0.2977215
396.30 0.2982012
396.40 0.2986804
396.50 0.2991591
396.60 0.2996687
396.70 0.3001419
396.80 0.300616
396.90 0.3011063
397.00 0.3015949
397.10 0.3020966
397.20 0.3025845
397.30 0.3030676
397.40 0.3035553
397.50 0.3040426
397.60 0.3045296
397.70 0.3050198
397.80 0.3055094
397.90 0.3059997
398.00 0.3064928
398.10 0.3069855
398.20 0.3074803
398.30 0.3079777
398.40 0.3084744
398.50 0.3089666
398.60 0.3094505
398.70 0.3099407
398.80 0.3104327
398.90 0.3109073
399.00 0.3113499
399.10 0.3118728
399.20 0.3123573
399.30 0.3128413
399.40 0.3133248
399.50 0.3138078
399.60 0.3143046
399.70 0.3148061
399.80 0.3153072
399.90 0.3158076
400.00 0.3163092
400.10 0.3168643
400.20 0.3174239
400.30 0.3179432
400.40 0.3185162
400.50 0.3188911
400.60 0.3194902
400.70 0.3199469
400.80 0.3205156
400.90 0.3208174
401.00 0.3214988
401.10 0.3220349
401.20 0.3225643
401.30 0.3229951
401.40 0.3234871
401.50 0.324008
401.60 0.324529
401.70 0.3250749
401.80 0.3255851
401.90 0.3260352
402.00 0.3266283
402.10 0.3270668
402.20 0.3275157
402.30 0.32814
402.40 0.3285238
402.50 0.3291651
402.60 0.3296284
402.70 0.3300584
402.80 0.3306568
402.90 0.3311327
403.00 0.3315775
403.10 0.3321437
403.20 0.3326086
403.30 0.3331455
403.40 0.333647
403.50 0.3341809
403.60 0.3347119
403.70 0.3351031
403.80 0.335868
403.90 0.3363908
404.00 0.3369013
404.10 0.3371664
404.20 0.3377566
404.30 0.3383461
404.40 0.3389487
404.50 0.3393721
404.60 0.3398087
404.70 0.3403959
404.80 0.3408579
404.90 0.3415684
405.00 0.3418732
405.10 0.342437
405.20 0.3430212
405.30 0.3436048
405.40 0.3441377
405.50 0.3446699
405.60 0.3452016
405.70 0.3457328
405.80 0.3462633
405.90 0.3467933
406.00 0.3472867
406.10 0.3477796
406.20 0.348272
406.30 0.3487638
406.40 0.3492651
406.50 0.3498887
406.60 0.3505374
406.70 0.3510754
406.80 0.3516034
406.90 0.3519843
407.00 0.3525281
407.10 0.3530713
407.20 0.3536139
407.30 0.3541559
407.40 0.3546974
407.50 0.3552383
407.60 0.3557786
407.70 0.3563184
407.80 0.3568576
407.90 0.3573943
408.00 0.3578687
408.10 0.3583612
408.20 0.358953
408.30 0.3595504
408.40 0.3601472
408.50 0.360476
408.60 0.3610172
408.70 0.3615579
408.80 0.362094
408.90 0.362611
409.00 0.3631716
409.10 0.3637316
409.20 0.364291
409.30 0.3648498
409.40 0.3654078
409.50 0.3659591
409.60 0.3665097
409.70 0.3670498
409.80 0.3675494
409.90 0.3680539
410.00 0.3687315
410.10 0.369287
410.20 0.3698052
410.30 0.3703137
410.40 0.3708419
410.50 0.3714338
410.60 0.372025
410.70 0.3726038
410.80 0.3731345
410.90 0.3736646
411.00 0.3742199
411.10 0.3747841
411.20 0.3753478
411.30 0.3759117
411.40 0.3764776
411.50 0.3770173
411.60 0.3775563
411.70 0.3780964
411.80 0.3786421
411.90 0.3791872
412.00 0.3797317
412.10 0.3802756
412.20 0.380819
412.30 0.3813655
412.40 0.3819251
412.50 0.3824665
412.60 0.3831113
412.70 0.3836341
412.80 0.384126
412.90 0.3847738
413.00 0.385325
413.10 0.3858862
413.20 0.3864468
413.30 0.3870068
413.40 0.3875662
413.50 0.3880963
413.60 0.3885574
413.70 0.3891644
413.80 0.3897708
413.90 0.3903766
414.00 0.3909644
414.10 0.3914968
414.20 0.3920287
414.30 0.3925599
414.40 0.3930907
414.50 0.3936142
414.60 0.3941504
414.70 0.3946795
414.80 0.3952252
414.90 0.395825
415.00 0.3964241
415.10 0.3970227
415.20 0.3976243
415.30 0.398237
415.40 0.398849
415.50 0.3994579
415.60 0.3999843
415.70 0.4005101
415.80 0.4010437
415.90 0.4016035
416.00 0.4021627
416.10 0.4027217
416.20 0.4032815
416.30 0.4038407
416.40 0.4043994
416.50 0.4049605
416.60 0.4056212
416.70 0.406277
416.80 0.4067969
416.90 0.4073104
417.00 0.4078963
417.10 0.4083458
417.20 0.4090027
417.30 0.4096575
417.40 0.4102638
417.50 0.4108696
417.60 0.4114598
417.70 0.4119907
417.80 0.4125492
417.90 0.4131072
418.00 0.4136645
418.10 0.4142213
418.20 0.4147775
418.30 0.4153427
418.40 0.4161438
418.50 0.4167117
418.60 0.4172789
418.70 0.4178456
418.80 0.4184116
418.90 0.4189771
419.00 0.419542
419.10 0.4201063
419.20 0.42067
419.30 0.4212341
419.40 0.4218283
419.50 0.4224218
419.60 0.4230078
419.70 0.4235652
419.80 0.4241221
419.90 0.4246877
420.00 0.425282
420.10 0.4258757
420.20 0.4264688
420.30 0.4270613
420.40 0.4276531
420.50 0.4282444
420.60 0.428835
420.70 0.4294251
420.80 0.4300145
420.90 0.4306036
421.00 0.4312023
421.10 0.4318003
421.20 0.432396
421.30 0.4329859
421.40 0.4335752
421.50 0.4341639
421.60 0.434752
421.70 0.4353395
421.80 0.4359264
421.90 0.4365185
422.00 0.4371287
422.10 0.4377325
422.20 0.4383131
422.30 0.438893
422.40 0.4394736
422.50 0.4400918
422.60 0.4407093
422.70 0.4413262
422.80 0.4419425
422.90 0.4425582
423.00 0.4431732
423.10 0.4437876
423.20 0.4444013
423.30 0.4450144
423.40 0.4456269
423.50 0.4462388
423.60 0.44685
423.70 0.4474607
423.80 0.4480706
423.90 0.44868
424.00 0.4492887
424.10 0.4498969
424.20 0.4505043
424.30 0.4511112
424.40 0.4515459
424.50 0.4521651
424.60 0.4527836
424.70 0.4534015
424.80 0.4540187
424.90 0.4546354
425.00 0.4552514
425.10 0.4558667
425.20 0.4564815
425.30 0.4570956
425.40 0.4577096
425.50 0.4583269
425.60 0.4589435
425.70 0.4595595
425.80 0.4601748
425.90 0.4607895
426.00 0.4614036
426.10 0.4620171
426.20 0.4626299
426.30 0.4632422
426.40 0.4638537
426.50 0.4644647
426.60 0.4650751
426.70 0.4656848
426.80 0.4662939
426.90 0.4669029
427.00 0.4675285
427.10 0.4681535
427.20 0.4687778
427.30 0.4694015
427.40 0.4700246
427.50 0.470647
427.60 0.4712688
427.70 0.47189
427.80 0.4725105
427.90 0.4731304
428.00 0.4737497
428.10 0.4743683
428.20 0.4749863
428.30 0.4756037
428.40 0.4762205
428.50 0.4768366
428.60 0.4774521
428.70 0.478067
428.80 0.4786829
428.90 0.4793202
429.00 0.4799569
429.10 0.480593
429.20 0.4812284
429.30 0.4818631
429.40 0.4824973
429.50 0.4831307
429.60 0.4837636
429.70 0.4843958
429.80 0.4850273
429.90 0.4856582
430.00 0.4862885
430.10 0.4869181
430.20 0.4875471
430.30 0.4881755
430.40 0.4888032
430.50 0.4894303
430.60 0.4900567
430.70 0.4906825
430.80 0.4913077
430.90 0.4919322
431.00 0.4925562
431.10 0.4931794
431.20 0.4938021
431.30 0.494426
431.40 0.4950739
431.50 0.4957213
431.60 0.4963679
431.70 0.4970139
431.80 0.4976593
431.90 0.498304
432.00 0.4989481
432.10 0.4995915
432.20 0.5002342
432.30 0.5008763
432.40 0.5015178
432.50 0.5021586
432.60 0.5027988
432.70 0.5034383
432.80 0.5040772
432.90 0.5047155
433.00 0.505353
433.10 0.50599
433.20 0.5066263
433.30 0.507261
433.40 0.507882
433.50 0.5085024
433.60 0.5091221
433.70 0.5097413
433.80 0.5103635
433.90 0.5109898
434.00 0.5116339
434.10 0.5122886
434.20 0.5129426
434.30 0.513596
434.40 0.5142487
434.50 0.5149008
434.60 0.5155522
434.70 0.5162029
434.80 0.5168536
434.90 0.5175104
435.00 0.5181665
435.10 0.518822
435.20 0.5194769
435.30 0.5201311
435.40 0.5207846
435.50 0.5214375
435.60 0.5220897
435.70 0.5227413
435.80 0.5233922
435.90 0.5240425
436.00 0.5246921
436.10 0.525341
436.20 0.5259894
436.30 0.526576
436.40 0.5271
436.50 0.527787
436.60 0.5284733
436.70 0.5291589
436.80 0.5298439
436.90 0.5305281
437.00 0.5312117
437.10 0.5318946
437.20 0.532535
437.30 0.5331362
437.40 0.533741
437.50 0.5344015
437.60 0.5350615
437.70 0.5357208
437.80 0.5363794
437.90 0.5370373
438.00 0.5376935
438.10 0.5383334
438.20 0.5389727
438.30 0.539675
438.40 0.5403173
438.50 0.5409713
438.60 0.5416517
438.70 0.5422595
438.80 0.5430625
438.90 0.5437363
439.00 0.5442317
439.10 0.5448818
439.20 0.5455358
439.30 0.5462487
439.40 0.5469609
439.50 0.5476724
439.60 0.5483812
439.70 0.5490758
439.80 0.5497461
439.90 0.5503716
440.00 0.5509966
440.10 0.5516208
440.20 0.5522477
440.30 0.5529154
440.40 0.5535826
440.50 0.554249
440.60 0.5549148
440.70 0.55558
440.80 0.5562445
440.90 0.5569083
441.00 0.5575714
441.10 0.5582339
441.20 0.5588976
441.30 0.5595852
441.40 0.5602778
441.50 0.5609768
441.60 0.5616751
441.70 0.5623848
441.80 0.5630589
441.90 0.5637323
442.00 0.564405
442.10 0.5650771
442.20 0.5657485
442.30 0.5664193
442.40 0.5670828
442.50 0.5677377
442.60 0.5683919
442.70 0.5690609
442.80 0.5697514
442.90 0.5704282
443.00 0.5710956
443.10 0.5717516
443.20 0.5724382
443.30 0.5731528
443.40 0.5738255
443.50 0.574447
443.60 0.5752061
443.70 0.5758264
443.80 0.5764773
443.90 0.5772218
444.00 0.5778527
444.10 0.5785957
444.20 0.5791375
444.30 0.5799462
444.40 0.5806413
444.50 0.5813357
444.60 0.582008
444.70 0.5826535
444.80 0.583338
444.90 0.5840583
445.00 0.5847778
445.10 0.5854967
445.20 0.58619
445.30 0.5868523
445.40 0.5875139
445.50 0.5881749
445.60 0.5888352
445.70 0.5894949
445.80 0.5901826
445.90 0.590896
446.00 0.5916087
446.10 0.5923207
446.20 0.5928409
446.30 0.5936319
446.40 0.5942833
446.50 0.5949477
446.60 0.5956113
446.70 0.5962744
446.80 0.5969689
446.90 0.5976926
447.00 0.5984699
447.10 0.5990684
447.20 0.5999136
447.30 0.6005108
447.40 0.6012358
447.50 0.6018317
447.60 0.6024845
447.70 0.6031896
447.80 0.604063
447.90 0.6046876
448.00 0.6053594
448.10 0.6060747
448.20 0.6067893
448.30 0.6075032
448.40 0.6082164
448.50 0.6089289
448.60 0.609599
448.70 0.6102299
448.80 0.6108678
448.90 0.6116052
449.00 0.6123419
449.10 0.6130779
449.20 0.6138132
449.30 0.6143394
449.40 0.6150536
449.50 0.6157672
449.60 0.6164747
449.70 0.6171764
449.80 0.6178774
449.90 0.6185778
450.00 0.6192774
450.10 0.6199764
450.20 0.6206747
450.30 0.6213723
450.40 0.6220718
450.50 0.6227707
450.60 0.6234688
450.70 0.6241663
450.80 0.6248631
450.90 0.6255592
451.00 0.6262625
451.10 0.6269651
451.20 0.627748
451.30 0.628337
451.40 0.6290297
451.50 0.6297218
451.60 0.6305344
451.70 0.6312251
451.80 0.6319151
451.90 0.6327255
452.00 0.6334141
452.10 0.634102
452.20 0.6347892
452.30 0.6354758
452.40 0.6361617
452.50 0.636847
452.60 0.6375446
452.70 0.6382603
452.80 0.6389926
452.90 0.6397242
453.00 0.6404552
453.10 0.6411854
453.20 0.6418952
453.30 0.6426044
453.40 0.643313
453.50 0.6440208
453.60 0.6447279
453.70 0.6454344
453.80 0.6461332
453.90 0.6468229
454.00 0.6475119
454.10 0.6482002
454.20 0.6489213
454.30 0.6496416
454.40 0.6503612
454.50 0.6510802
454.60 0.6517984
454.70 0.6525141
454.80 0.6532275
454.90 0.6539402
455.00 0.6546522
455.10 0.6553635
455.20 0.6560741
455.30 0.656784
455.40 0.6574932
455.50 0.6582018
455.60 0.6589097
455.70 0.6596168
455.80 0.6603488
455.90 0.6610801
456.00 0.6618107
456.10 0.6625399
456.20 0.6632666
456.30 0.6639925
456.40 0.6647178
456.50 0.6654424
456.60 0.6661663
456.70 0.6668894
456.80 0.6676119
456.90 0.6683337
457.00 0.6690548
457.10 0.6697752
457.20 0.6704416
457.30 0.6711748
457.40 0.6719072
457.50 0.6726389
457.60 0.67337
457.70 0.6741003
457.80 0.6748299
457.90 0.6755588
458.00 0.676287
458.10 0.6770145
458.20 0.6777414
458.30 0.6784675
458.40 0.6791929
458.50 0.6799176
458.60 0.6806416
458.70 0.6813716
458.80 0.6821035
458.90 0.6828347
459.00 0.6835653
459.10 0.6842951
459.20 0.6850242
459.30 0.6857569
459.40 0.6864889
459.50 0.6872201
459.60 0.6879507
459.70 0.6886806
459.80 0.6894097
459.90 0.6901382
460.00 0.690866
460.10 0.691593
460.20 0.6923194
460.30 0.6930451
460.40 0.69377
460.50 0.6944943
460.60 0.6952179
460.70 0.6959469
460.80 0.6966782
460.90 0.6974088
461.00 0.6981388
461.10 0.698868
461.20 0.6996421
461.30 0.7004342
461.40 0.7011813
461.50 0.7019165
461.60 0.702651
461.70 0.7033849
461.80 0.7041192
461.90 0.7048528
462.00 0.7055856
462.10 0.7063178
462.20 0.7070493
462.30 0.7077801
462.40 0.7085102
462.50 0.7092396
462.60 0.7099683
462.70 0.7106963
462.80 0.7114236
462.90 0.7121502
463.00 0.7128761
463.10 0.7136013
463.20 0.7143271
463.30 0.7150527
463.40 0.7157776
463.50 0.7165018
463.60 0.7172253
463.70 0.7179481
463.80 0.7186702
463.90 0.7194305
464.00 0.7201996
464.10 0.7209681
464.20 0.7217358
464.30 0.7225029
464.40 0.7232691
464.50 0.7240347
464.60 0.7247995
464.70 0.725545
464.80 0.7262822
464.90 0.7270186
465.00 0.7277544
465.10 0.7284894
465.20 0.7292238
465.30 0.7299674
465.40 0.7307169
465.50 0.7314658
465.60 0.7322139
465.70 0.7329613
465.80 0.7337079
465.90 0.7344522
466.00 0.7351952
466.10 0.7359376
466.20 0.7366792
466.30 0.737429
466.40 0.7381816
466.50 0.7389335
466.60 0.7396848
466.70 0.7404353
466.80 0.7411851
466.90 0.7419341
467.00 0.7426825
467.10 0.7434302
467.20 0.7441771
467.30 0.7448744
467.40 0.7456089
467.50 0.7463572
467.60 0.7471048
467.70 0.7478517
467.80 0.7485978
467.90 0.7493489
468.00 0.7501015
468.10 0.7508534
468.20 0.7516046
468.30 0.7523151
468.40 0.7530085
468.50 0.7537813
468.60 0.7545762
468.70 0.75539
468.80 0.7561271
468.90 0.7568496
469.00 0.7575993
469.10 0.7583336
469.20 0.7590777
469.30 0.7598211
469.40 0.7605639
469.50 0.7613061
469.60 0.7620478
469.70 0.7627888
469.80 0.7635291
469.90 0.7643115
470.00 0.7651281
470.10 0.7658772
470.20 0.7666451
470.30 0.7674124
470.40 0.7681789
470.50 0.7689447
470.60 0.7696851
470.70 0.7704186
470.80 0.7711515
470.90 0.7718836
471.00 0.7727497
471.10 0.7734731
471.20 0.7742319
471.30 0.775017
471.40 0.7758012
471.50 0.7765848
471.60 0.7772786
471.70 0.7779496
471.80 0.7787088
471.90 0.7794895
472.00 0.7802694
472.10 0.7810487
472.20 0.7818115
472.30 0.7825697
472.40 0.7833272
472.50 0.7840839
472.60 0.78484
472.70 0.7856869
472.80 0.7864653
472.90 0.7872166
473.00 0.7879672
473.10 0.7887171
473.20 0.7894663
473.30 0.7902148
473.40 0.7909626
473.50 0.7917096
473.60 0.792456
473.70 0.7932017
473.80 0.793988
473.90 0.794784
474.00 0.7955791
474.10 0.7963736
474.20 0.7971429
474.30 0.7979015
474.40 0.7986594
474.50 0.7994166
474.60 0.8001723
474.70 0.8009193
474.80 0.8016656
474.90 0.8024112
475.00 0.8031561
475.10 0.8039003
475.20 0.8046438
475.30 0.8053866
475.40 0.8061514
475.50 0.8069212
475.60 0.8076903
475.70 0.8084586
475.80 0.8092262
475.90 0.8099931
476.00 0.8107593
476.10 0.8115248
476.20 0.8123115
476.30 0.8131065
476.40 0.8139008
476.50 0.8146943
476.60 0.815487
476.70 0.816279
476.80 0.8170703
476.90 0.8178489
477.00 0.8186237
477.10 0.8193979
477.20 0.8201713
477.30 0.8209439
477.40 0.8217159
477.50 0.8224872
477.60 0.8232577
477.70 0.8240275
477.80 0.8247966
477.90 0.825565
478.00 0.8263326
478.10 0.8270996
478.20 0.8278658
478.30 0.8286313
478.40 0.8293961
478.50 0.8301602
478.60 0.8309236
478.70 0.8317008
478.80 0.8324832
478.90 0.8332626
479.00 0.8340407
479.10 0.8348181
479.20 0.8355947
479.30 0.8363706
479.40 0.8371453
479.50 0.8379189
479.60 0.8386918
479.70 0.839464
479.80 0.8402355
479.90 0.8410062
480.00 0.8417762
480.10 0.8425456
480.20 0.8433142
480.30 0.8440821
480.40 0.8448492
480.50 0.8456157
480.60 0.8463815
480.70 0.8471465
480.80 0.8479109
480.90 0.8486745
481.00 0.8494374
481.10 0.8501996
481.20 0.8509995
481.30 0.8517986
481.40 0.852597
481.50 0.8533947
481.60 0.8541916
481.70 0.8549878
481.80 0.8557833
481.90 0.856578
482.00 0.857372
482.10 0.8581653
482.20 0.8589568
482.30 0.8597342
482.40 0.860511
482.50 0.861287
482.60 0.8620623
482.70 0.8628368
482.80 0.8636107
482.90 0.8643838
483.00 0.8651563
483.10 0.865928
483.20 0.866699
483.30 0.8674693
483.40 0.8682389
483.50 0.8690077
483.60 0.8697759
483.70 0.8705732
483.80 0.8713698
483.90 0.8721656
484.00 0.8729607
484.10 0.8737551
484.20 0.8745276
484.30 0.8752903
484.40 0.8760524
484.50 0.8768137
484.60 0.8775743
484.70 0.878337
484.80 0.879135
484.90 0.8799322
485.00 0.8807287
485.10 0.8815245
485.20 0.8823195
485.30 0.8831138
485.40 0.8839074
485.50 0.8847003
485.60 0.8854924
485.70 0.8862789
485.80 0.8870647
485.90 0.8878498
486.00 0.8886342
486.10 0.8894179
486.20 0.8902008
486.30 0.890983
486.40 0.8917645
486.50 0.8925453
486.60 0.8933253
486.70 0.894107
486.80 0.8949194
486.90 0.895731
487.00 0.8965419
487.10 0.897352
487.20 0.8981468
487.30 0.8989409
487.40 0.8997342
487.50 0.9005268
487.60 0.9013186
487.70 0.9021098
487.80 0.9029002
487.90 0.9036899
488.00 0.9044789
488.10 0.9052671
488.20 0.9060538
488.30 0.9068286
488.40 0.9076026
488.50 0.9083759
488.60 0.9091484
488.70 0.9099203
488.80 0.9106898
488.90 0.9114587
489.00 0.9122336
489.10 0.9130252
489.20 0.9138161
489.30 0.9146063
489.40 0.9153958
489.50 0.9161845
489.60 0.9169725
489.70 0.9177598
489.80 0.918702
489.90 0.9194653
490.00 0.9202279
490.10 0.9209898
490.20 0.921751
490.30 0.9225115
490.40 0.9233181
490.50 0.9241239
490.60 0.924929
490.70 0.9257334
490.80 0.9264636
490.90 0.9272372
491.00 0.9280908
491.10 0.9289435
491.20 0.9296929
491.30 0.9304417
491.40 0.9313726
491.50 0.9321419
491.60 0.93296
491.70 0.9337627
491.80 0.9345623
491.90 0.9353288
492.00 0.9360419
492.10 0.9368872
492.20 0.9376475
492.30 0.9383713
492.40 0.9392231
492.50 0.9399853
492.60 0.940909
492.70 0.9416988
492.80 0.9424879
492.90 0.9432763
493.00 0.9440636
493.10 0.9448444
493.20 0.9456245
493.30 0.946404
493.40 0.9471827
493.50 0.9479607
493.60 0.9488744
493.70 0.949626
493.80 0.9503769
493.90 0.9511429
494.00 0.951933
494.10 0.9527294
494.20 0.9535398
494.30 0.9543495
494.40 0.9551585
494.50 0.9559668
494.60 0.9567768
494.70 0.9576184
494.80 0.9584463
494.90 0.9592361
495.00 0.9600252
495.10 0.9608137
495.20 0.9616135
495.30 0.9624126
495.40 0.963211
495.50 0.9640087
495.60 0.9648057
495.70 0.9656019
495.80 0.9663974
495.90 0.9671922
496.00 0.9679863
496.10 0.9687611
496.20 0.9695
496.30 0.9702936
496.40 0.9710865
496.50 0.9718787
496.60 0.9726702
496.70 0.9734685
496.80 0.9742662
496.90 0.9750631
497.00 0.9758593
497.10 0.9766548
497.20 0.9774495
497.30 0.9782533
497.40 0.9790842
497.50 0.9799143
497.60 0.9807103
497.70 0.9814411
497.80 0.9822573
497.90 0.9830728
498.00 0.9838876
498.10 0.9847017
498.20 0.985515
498.30 0.9863276
498.40 0.9871394
498.50 0.9879505
498.60 0.9887609
498.70 0.9895579
498.80 0.9903541
498.90 0.9911453
499.00 0.9919357
499.10 0.9927255
499.20 0.9935543
499.30 0.9944338
499.40 0.9952191
499.50 0.9960036
499.60 0.9967875
499.70 0.9975725
499.80 0.9983824
499.90 0.9991916
500.00 1
500.10 1.000808
500.20 1.001608
500.30 1.002393
500.40 1.003178
500.50 1.003962
500.60 1.004746
500.70 1.005528
500.80 1.006331
500.90 1.007176
501.00 1.008021
501.10 1.008864
501.20 1.009628
501.30 1.010406
501.40 1.011278
501.50 1.011957
501.60 1.012851
501.70 1.013646
501.80 1.014484
501.90 1.015258
502.00 1.016045
502.10 1.016861
502.20 1.017678
502.30 1.018505
502.40 1.019324
502.50 1.020126
502.60 1.020928
502.70 1.021729
502.80 1.022529
502.90 1.023329
503.00 1.024127
503.10 1.024924
503.20 1.025719
503.30 1.026514
503.40 1.027315
503.50 1.028132
503.60 1.028949
503.70 1.029765
503.80 1.030576
503.90 1.031358
504.00 1.032141
504.10 1.032931
504.20 1.033719
504.30 1.034507
504.40 1.035311
504.50 1.036164
504.60 1.036941
504.70 1.037724
504.80 1.038609
504.90 1.039396
505.00 1.040224
505.10 1.041072
505.20 1.041899
505.30 1.042667
505.40 1.043434
505.50 1.044201
505.60 1.044988
505.70 1.04582
505.80 1.04665
505.90 1.047481
506.00 1.04831
506.10 1.049139
506.20 1.049958
506.30 1.050752
506.40 1.051546
506.50 1.052338
506.60 1.05313
506.70 1.053922
506.80 1.054712
506.90 1.055502
507.00 1.056291
507.10 1.0571
507.20 1.057942
507.30 1.05875
507.40 1.059558
507.50 1.060365
507.60 1.061171
507.70 1.061977
507.80 1.062781
507.90 1.063585
508.00 1.064389
508.10 1.065191
508.20 1.065993
508.30 1.066795
508.40 1.067595
508.50 1.068395
508.60 1.069194
508.70 1.069992
508.80 1.070855
508.90 1.071693
509.00 1.072455
509.10 1.073233
509.20 1.074046
509.30 1.074857
509.40 1.075668
509.50 1.076479
509.60 1.077288
509.70 1.078097
509.80 1.078905
509.90 1.079713
510.00 1.080519
510.10 1.081325
510.20 1.082131
510.30 1.08294
510.40 1.083763
510.50 1.084586
510.60 1.085407
510.70 1.086228
510.80 1.087048
510.90 1.087868
511.00 1.088686
511.10 1.089504
511.20 1.090322
511.30 1.091138
511.40 1.091954
511.50 1.092769
511.60 1.09358
511.70 1.094384
511.80 1.095187
511.90 1.095989
512.00 1.09679
512.10 1.097591
512.20 1.098391
512.30 1.099194
512.40 1.100005
512.50 1.100816
512.60 1.101627
512.70 1.102436
512.80 1.103245
512.90 1.104054
513.00 1.104861
513.10 1.105668
513.20 1.106474
513.30 1.107279
513.40 1.108084
513.50 1.108888
513.60 1.109691
513.70 1.110493
513.80 1.111295
513.90 1.112096
514.00 1.112914
514.10 1.113734
514.20 1.114553
514.30 1.115371
514.40 1.116188
514.50 1.117005
514.60 1.117821
514.70 1.118637
514.80 1.119452
514.90 1.120265
515.00 1.121079
515.10 1.121891
515.20 1.122703
515.30 1.123514
515.40 1.124325
515.50 1.125134
515.60 1.125943
515.70 1.126752
515.80 1.127559
515.90 1.128366
516.00 1.129172
516.10 1.129977
516.20 1.130782
516.30 1.131586
516.40 1.132389
516.50 1.133194
516.60 1.134011
516.70 1.134827
516.80 1.135643
516.90 1.136457
517.00 1.137271
517.10 1.138084
517.20 1.138897
517.30 1.139709
517.40 1.14052
517.50 1.14133
517.60 1.14214
517.70 1.142949
517.80 1.143757
517.90 1.144564
518.00 1.145371
518.10 1.146177
518.20 1.146983
518.30 1.147787
518.40 1.148591
518.50 1.149395
518.60 1.150197
518.70 1.150999
518.80 1.1518
518.90 1.152601
519.00 1.153401
519.10 1.154214
519.20 1.155042
519.30 1.155869
519.40 1.156696
519.50 1.157522
519.60 1.158347
519.70 1.159171
519.80 1.159995
519.90 1.160818
520.00 1.16164
520.10 1.162462
520.20 1.163283
520.30 1.164103
520.40 1.164922
520.50 1.165741
520.60 1.166559
520.70 1.167376
520.80 1.168193
520.90 1.169009
521.00 1.169824
521.10 1.170638
521.20 1.171452
521.30 1.172265
521.40 1.173078
521.50 1.173889
521.60 1.1747
521.70 1.17551
521.80 1.17632
521.90 1.177128
522.00 1.177937
522.10 1.178744
522.20 1.179551
522.30 1.180357
522.40 1.181162
522.50 1.181966
522.60 1.18277
522.70 1.183573
522.80 1.184376
522.90 1.185178
523.00 1.185979
523.10 1.186779
523.20 1.187579
523.30 1.188377
523.40 1.189176
523.50 1.189973
523.60 1.19077
523.70 1.191566
523.80 1.192362
523.90 1.193157
524.00 1.193951
524.10 1.194744
524.20 1.195537
524.30 1.196347
524.40 1.197171
524.50 1.197994
524.60 1.198816
524.70 1.199638
524.80 1.200459
524.90 1.201279
525.00 1.202098
525.10 1.202917
525.20 1.203735
525.30 1.204553
525.40 1.205369
525.50 1.206185
525.60 1.207
525.70 1.207815
525.80 1.208629
525.90 1.209442
526.00 1.210254
526.10 1.211066
526.20 1.211877
526.30 1.212687
526.40 1.213497
526.50 1.214306
526.60 1.215114
526.70 1.215922
526.80 1.216728
526.90 1.217534
527.00 1.21834
527.10 1.219145
527.20 1.219949
527.30 1.220752
527.40 1.221554
527.50 1.222356
527.60 1.223158
527.70 1.223958
527.80 1.224758
527.90 1.225557
528.00 1.226355
528.10 1.227153
528.20 1.22795
528.30 1.228747
528.40 1.229542
528.50 1.230337
528.60 1.231132
528.70 1.231925
528.80 1.232718
528.90 1.23351
529.00 1.234302
529.10 1.235093
529.20 1.235883
529.30 1.236672
529.40 1.237461
529.50 1.238252
529.60 1.239064
529.70 1.239874
529.80 1.240684
529.90 1.241493
530.00 1.242302
530.10 1.24311
530.20 1.243917
530.30 1.244723
530.40 1.245529
530.50 1.246334
530.60 1.247138
530.70 1.247941
530.80 1.248744
530.90 1.249547
531.00 1.250348
531.10 1.251149
531.20 1.251949
531.30 1.252748
531.40 1.253547
531.50 1.254345
531.60 1.255143
531.70 1.255939
531.80 1.256735
531.90 1.257531
532.00 1.258325
532.10 1.259119
532.20 1.259926
532.30 1.260739
532.40 1.261551
532.50 1.262362
532.60 1.263173
532.70 1.263983
532.80 1.264792
532.90 1.265601
533.00 1.266409
533.10 1.267216
533.20 1.268022
533.30 1.268828
533.40 1.269633
533.50 1.270438
533.60 1.271242
533.70 1.272045
533.80 1.272847
533.90 1.273649
534.00 1.27445
534.10 1.27525
534.20 1.27605
534.30 1.276849
534.40 1.277647
534.50 1.278445
534.60 1.279241
534.70 1.280038
534.80 1.280837
534.90 1.281655
535.00 1.282472
535.10 1.283288
535.20 1.284103
535.30 1.284918
535.40 1.285732
535.50 1.286545
535.60 1.287358
535.70 1.28817
535.80 1.288981
535.90 1.289792
536.00 1.290602
536.10 1.291411
536.20 1.292219
536.30 1.293027
536.40 1.293834
536.50 1.29464
536.60 1.295446
536.70 1.296251
536.80 1.297055
536.90 1.297859
537.00 1.298662
537.10 1.299464
537.20 1.300266
537.30 1.301067
537.40 1.301867
537.50 1.302666
537.60 1.303465
537.70 1.304263
537.80 1.305061
537.90 1.305858
538.00 1.306654
538.10 1.307449
538.20 1.308244
538.30 1.309038
538.40 1.309831
538.50 1.310624
538.60 1.311416
538.70 1.312207
538.80 1.312998
538.90 1.313788
539.00 1.314577
539.10 1.315366
539.20 1.316154
539.30 1.316941
539.40 1.317728
539.50 1.318514
539.60 1.319299
539.70 1.320083
539.80 1.320867
539.90 1.32165
540.00 1.322433
540.10 1.323215
540.20 1.324018
540.30 1.32483
540.40 1.325642
540.50 1.326452
540.60 1.327262
540.70 1.328072
540.80 1.32888
540.90 1.329688
541.00 1.330495
541.10 1.331302
541.20 1.332107
541.30 1.332913
541.40 1.333717
541.50 1.334521
541.60 1.335324
541.70 1.336126
541.80 1.336928
541.90 1.337729
542.00 1.338529
542.10 1.339329
542.20 1.340128
542.30 1.340926
542.40 1.341724
542.50 1.342521
542.60 1.343317
542.70 1.344112
542.80 1.344907
542.90 1.345701
543.00 1.346495
543.10 1.347288
543.20 1.34808
543.30 1.348872
543.40 1.349662
543.50 1.350453
543.60 1.351242
543.70 1.352031
543.80 1.352819
543.90 1.353606
544.00 1.354393
544.10 1.355179
544.20 1.355965
544.30 1.35675
544.40 1.357534
544.50 1.358317
544.60 1.3591
544.70 1.359882
544.80 1.360664
544.90 1.361444
545.00 1.362225
545.10 1.363004
545.20 1.363783
545.30 1.364561
545.40 1.365338
545.50 1.366115
545.60 1.366906
545.70 1.367702
545.80 1.368497
545.90 1.369292
546.00 1.370086
546.10 1.37088
546.20 1.371672
546.30 1.372465
546.40 1.373256
546.50 1.374047
546.60 1.374837
546.70 1.375626
546.80 1.376415
546.90 1.377203
547.00 1.37799
547.10 1.378777
547.20 1.379563
547.30 1.380348
547.40 1.381133
547.50 1.381917
547.60 1.382701
547.70 1.383483
547.80 1.384265
547.90 1.385047
548.00 1.385827
548.10 1.386608
548.20 1.387387
548.30 1.388171
548.40 1.388962
548.50 1.389752
548.60 1.390541
548.70 1.391329
548.80 1.392117
548.90 1.392905
549.00 1.393691
549.10 1.394477
549.20 1.395262
549.30 1.396047
549.40 1.396831
549.50 1.397614
549.60 1.398397
549.70 1.399179
549.80 1.39996
549.90 1.400741
550.00 1.401521
550.10 1.4023
550.20 1.403079
550.30 1.403857
550.40 1.404634
550.50 1.405411
550.60 1.406187
550.70 1.406962
550.80 1.407737
550.90 1.408511
551.00 1.409287
551.10 1.410076
551.20 1.410865
551.30 1.411653
551.40 1.41244
551.50 1.413227
551.60 1.414013
551.70 1.414798
551.80 1.415583
551.90 1.416367
552.00 1.41715
552.10 1.417933
552.20 1.418715
552.30 1.419496
552.40 1.420277
552.50 1.421057
552.60 1.421836
552.70 1.422615
552.80 1.423393
552.90 1.42417
553.00 1.424947
553.10 1.425723
553.20 1.426498
553.30 1.427273
553.40 1.428047
553.50 1.428821
553.60 1.429593
553.70 1.430365
553.80 1.431144
553.90 1.431927
554.00 1.432708
554.10 1.43349
554.20 1.43427
554.30 1.43505
554.40 1.435829
554.50 1.436608
554.60 1.437386
554.70 1.438163
554.80 1.43894
554.90 1.439716
555.00 1.440491
555.10 1.441266
555.20 1.44204
555.30 1.442813
555.40 1.443586
555.50 1.444358
555.60 1.44513
555.70 1.445901
555.80 1.446671
555.90 1.44744
556.00 1.448209
556.10 1.448977
556.20 1.449745
556.30 1.450512
556.40 1.451278
556.50 1.452044
556.60 1.452828
556.70 1.453611
556.80 1.454394
556.90 1.455176
557.00 1.455957
557.10 1.456738
557.20 1.457517
557.30 1.458297
557.40 1.459075
557.50 1.459853
557.60 1.46063
557.70 1.461407
557.80 1.462183
557.90 1.462958
558.00 1.463733
558.10 1.464507
558.20 1.46528
558.30 1.466053
558.40 1.466825
558.50 1.467597
558.60 1.468368
558.70 1.469138
558.80 1.469907
558.90 1.470676
559.00 1.471444
559.10 1.472212
559.20 1.472979
559.30 1.473745
559.40 1.474511
559.50 1.475276
559.60 1.47604
559.70 1.476804
559.80 1.477567
559.90 1.478329
560.00 1.479091
560.10 1.479852
560.20 1.480613
560.30 1.481373
560.40 1.482132
560.50 1.48289
560.60 1.483648
560.70 1.484406
560.80 1.485162
560.90 1.485919
561.00 1.486674
561.10 1.487429
561.20 1.488183
561.30 1.488936
561.40 1.489689
561.50 1.490442
561.60 1.491193
561.70 1.491944
561.80 1.492695
561.90 1.493444
562.00 1.494194
562.10 1.494951
562.20 1.495723
562.30 1.496493
562.40 1.497263
562.50 1.498032
562.60 1.4988
562.70 1.499568
562.80 1.500336
562.90 1.501102
563.00 1.501868
563.10 1.502633
563.20 1.503398
563.30 1.504162
563.40 1.504926
563.50 1.505688
563.60 1.506451
563.70 1.507212
563.80 1.507973
563.90 1.508733
564.00 1.509493
564.10 1.510252
564.20 1.51101
564.30 1.511768
564.40 1.512525
564.50 1.513281
564.60 1.514037
564.70 1.514792
564.80 1.515547
564.90 1.516296
565.00 1.517033
565.10 1.51777
565.20 1.518506
565.30 1.519241
565.40 1.519976
565.50 1.52071
565.60 1.521444
565.70 1.522176
565.80 1.522909
565.90 1.52364
566.00 1.524371
566.10 1.525102
566.20 1.525832
566.30 1.526561
566.40 1.52729
566.50 1.528018
566.60 1.528745
566.70 1.529472
566.80 1.530198
566.90 1.530924
567.00 1.531649
567.10 1.532373
567.20 1.533097
567.30 1.53382
567.40 1.534542
567.50 1.535264
567.60 1.535986
567.70 1.536718
567.80 1.537501
567.90 1.538284
568.00 1.539066
568.10 1.539847
568.20 1.540628
568.30 1.541408
568.40 1.542187
568.50 1.542965
568.60 1.543743
568.70 1.544521
568.80 1.545297
568.90 1.546073
569.00 1.546849
569.10 1.547624
569.20 1.548398
569.30 1.549171
569.40 1.549944
569.50 1.550716
569.60 1.551488
569.70 1.552259
569.80 1.553029
569.90 1.553799
570.00 1.554568
570.10 1.555336
570.20 1.556104
570.30 1.556871
570.40 1.557638
570.50 1.558404
570.60 1.559169
570.70 1.559933
570.80 1.560697
570.90 1.561461
571.00 1.562223
571.10 1.562985
571.20 1.563747
571.30 1.564508
571.40 1.565268
571.50 1.566027
571.60 1.566786
571.70 1.567545
571.80 1.568302
571.90 1.569059
572.00 1.569816
572.10 1.570572
572.20 1.571327
572.30 1.572081
572.40 1.572835
572.50 1.573589
572.60 1.574341
572.70 1.575093
572.80 1.575845
572.90 1.576596
573.00 1.577346
573.10 1.578095
573.20 1.578844
573.30 1.579593
573.40 1.580336
573.50 1.581073
573.60 1.581809
573.70 1.582545
573.80 1.58328
573.90 1.584015
574.00 1.584748
574.10 1.585482
574.20 1.586214
574.30 1.586946
574.40 1.587678
574.50 1.588408
574.60 1.589139
574.70 1.589868
574.80 1.590597
574.90 1.591326
575.00 1.592053
575.10 1.592781
575.20 1.593507
575.30 1.594233
575.40 1.594959
575.50 1.595683
575.60 1.596407
575.70 1.597131
575.80 1.597854
575.90 1.598576
576.00 1.599298
576.10 1.600019
576.20 1.60074
576.30 1.60146
576.40 1.602179
576.50 1.602898
576.60 1.603616
576.70 1.604334
576.80 1.605051
576.90 1.605767
577.00 1.606483
577.10 1.607199
577.20 1.607913
577.30 1.608627
577.40 1.609341
577.50 1.610054
577.60 1.610762
577.70 1.611465
577.80 1.612167
577.90 1.612869
578.00 1.61357
578.10 1.61427
578.20 1.61497
578.30 1.615669
578.40 1.616367
578.50 1.617065
578.60 1.617763
578.70 1.61846
578.80 1.619156
578.90 1.619852
579.00 1.620547
579.10 1.621251
579.20 1.622058
579.30 1.622865
579.40 1.62367
579.50 1.624475
579.60 1.62528
579.70 1.626084
579.80 1.626887
579.90 1.627689
580.00 1.628491
580.10 1.629249
580.20 1.629936
580.30 1.630623
580.40 1.63131
580.50 1.631996
580.60 1.632681
580.70 1.633366
580.80 1.63405
580.90 1.634733
581.00 1.635416
581.10 1.636098
581.20 1.63678
581.30 1.637462
581.40 1.638142
581.50 1.638822
581.60 1.639502
581.70 1.640181
581.80 1.640859
581.90 1.641537
582.00 1.642215
582.10 1.642901
582.20 1.643601
582.30 1.644301
582.40 1.645
582.50 1.645699
582.60 1.646397
582.70 1.647095
582.80 1.647792
582.90 1.648488
583.00 1.649184
583.10 1.64988
583.20 1.650574
583.30 1.651269
583.40 1.651962
583.50 1.652655
583.60 1.653371
583.70 1.654125
583.80 1.654877
583.90 1.65563
584.00 1.656381
584.10 1.657132
584.20 1.657883
584.30 1.658633
584.40 1.659382
584.50 1.66013
584.60 1.660878
584.70 1.661626
584.80 1.662372
584.90 1.663068
585.00 1.663532
585.10 1.663995
585.20 1.664561
585.30 1.665291
585.40 1.666022
585.50 1.666751
585.60 1.66748
585.70 1.668209
585.80 1.668937
585.90 1.669664
586.00 1.670391
586.10 1.671117
586.20 1.671806
586.30 1.672435
586.40 1.673063
586.50 1.673691
586.60 1.674319
586.70 1.674946
586.80 1.675663
586.90 1.676528
587.00 1.677393
587.10 1.678257
587.20 1.67912
587.30 1.679982
587.40 1.680299
587.50 1.68116
587.60 1.681985
587.70 1.682881
587.80 1.682852
587.90 1.683711
588.00 1.684569
588.10 1.685427
588.20 1.686283
588.30 1.687139
588.40 1.687904
588.50 1.688521
588.60 1.689137
588.70 1.689753
588.80 1.690368
588.90 1.690983
589.00 1.691633
589.10 1.692342
589.20 1.69305
589.30 1.693757
589.40 1.694464
589.50 1.69517
589.60 1.695876
589.70 1.696581
589.80 1.697286
589.90 1.69799
590.00 1.698699
590.10 1.699416
590.20 1.700133
590.30 1.70085
590.40 1.701565
590.50 1.70228
590.60 1.702995
590.70 1.703709
590.80 1.704356
590.90 1.704973
591.00 1.705589
591.10 1.706204
591.20 1.706819
591.30 1.707434
591.40 1.708048
591.50 1.708661
591.60 1.709323
591.70 1.710064
591.80 1.710805
591.90 1.711545
592.00 1.712284
592.10 1.713022
592.20 1.71376
592.30 1.714498
592.40 1.715235
592.50 1.715971
592.60 1.716707
592.70 1.717442
592.80 1.718176
592.90 1.71891
593.00 1.719643
593.10 1.720358
593.20 1.721043
593.30 1.721728
593.40 1.722412
593.50 1.723096
593.60 1.723779
593.70 1.724461
593.80 1.725143
593.90 1.725825
594.00 1.726505
594.10 1.727186
594.20 1.727865
594.30 1.728544
594.40 1.729223
594.50 1.729901
594.60 1.730578
594.70 1.731255
594.80 1.731932
594.90 1.732607
595.00 1.733283
595.10 1.733951
595.20 1.734609
595.30 1.735266
595.40 1.735923
595.50 1.736579
595.60 1.737235
595.70 1.73789
595.80 1.738545
595.90 1.739199
596.00 1.739852
596.10 1.740505
596.20 1.741158
596.30 1.74181
596.40 1.742461
596.50 1.743112
596.60 1.743762
596.70 1.744393
596.80 1.74501
596.90 1.745628
597.00 1.746245
597.10 1.746861
597.20 1.747477
597.30 1.748093
597.40 1.748708
597.50 1.749322
597.60 1.749965
597.70 1.750654
597.80 1.751343
597.90 1.752031
598.00 1.752718
598.10 1.753405
598.20 1.754092
598.30 1.754778
598.40 1.755463
598.50 1.756148
598.60 1.756832
598.70 1.757516
598.80 1.758199
598.90 1.758881
599.00 1.759563
599.10 1.760245
599.20 1.760926
599.30 1.761606
599.40 1.762258
599.50 1.762909
599.60 1.763559
599.70 1.764209
599.80 1.764858
599.90 1.765507
600.00 1.766155
600.10 1.766803
600.20 1.76745
600.30 1.768097
600.40 1.768743
600.50 1.769388
600.60 1.770034
600.70 1.770678
600.80 1.771322
600.90 1.771966
601.00 1.772609
601.10 1.773251
601.20 1.773893
601.30 1.774534
601.40 1.775202
601.50 1.775869
601.60 1.776536
601.70 1.777201
601.80 1.777867
601.90 1.778532
602.00 1.779196
602.10 1.77986
602.20 1.780523
602.30 1.781186
602.40 1.781848
602.50 1.78251
602.60 1.783171
602.70 1.783969
602.80 1.784773
602.90 1.785457
603.00 1.78614
603.10 1.786823
603.20 1.787505
603.30 1.788187
603.40 1.788868
603.50 1.789549
603.60 1.790229
603.70 1.790908
603.80 1.791587
603.90 1.792265
604.00 1.792943
604.10 1.793621
604.20 1.794297
604.30 1.794973
604.40 1.795649
604.50 1.796273
604.60 1.796897
604.70 1.79752
604.80 1.798143
604.90 1.798766
605.00 1.799387
605.10 1.800009
605.20 1.800629
605.30 1.80125
605.40 1.801869
605.50 1.802399
605.60 1.802927
605.70 1.803456
605.80 1.803984
605.90 1.804511
606.00 1.805038
606.10 1.805789
606.20 1.80654
606.30 1.807289
606.40 1.808039
606.50 1.808787
606.60 1.809535
606.70 1.810283
606.80 1.810358
606.90 1.811105
607.00 1.812522
607.10 1.812596
607.20 1.81267
607.30 1.813414
607.40 1.814158
607.50 1.814901
607.60 1.815644
607.70 1.816386
607.80 1.817127
607.90 1.817868
608.00 1.818608
608.10 1.819348
608.20 1.820087
608.30 1.820729
608.40 1.821371
608.50 1.822012
608.60 1.822653
608.70 1.823248
608.80 1.823822
608.90 1.824395
609.00 1.824968
609.10 1.825541
609.20 1.826113
609.30 1.826763
609.40 1.827412
609.50 1.828061
609.60 1.828709
609.70 1.829357
609.80 1.830004
609.90 1.830651
610.00 1.831297
610.10 1.831943
610.20 1.832588
610.30 1.833232
610.40 1.833876
610.50 1.83452
610.60 1.835163
610.70 1.835806
610.80 1.836448
610.90 1.837084
611.00 1.837719
611.10 1.838354
611.20 1.838988
611.30 1.839622
611.40 1.840256
611.50 1.840889
611.60 1.841521
611.70 1.842153
611.80 1.842784
611.90 1.843415
612.00 1.844045
612.10 1.844675
612.20 1.845305
612.30 1.845933
612.40 1.846518
612.50 1.847102
612.60 1.847685
612.70 1.848268
612.80 1.84885
612.90 1.849432
613.00 1.850014
613.10 1.850595
613.20 1.851175
613.30 1.851755
613.40 1.852335
613.50 1.852914
613.60 1.853492
613.70 1.854071
613.80 1.854648
613.90 1.855225
614.00 1.855802
614.10 1.856378
614.20 1.856954
614.30 1.857529
614.40 1.858182
614.50 1.858834
614.60 1.859485
614.70 1.860136
614.80 1.860787
614.90 1.861438
615.00 1.862089
615.10 1.862739
615.20 1.863388
615.30 1.864037
615.40 1.864685
615.50 1.865333
615.60 1.865981
615.70 1.866628
615.80 1.867274
615.90 1.86792
616.00 1.868565
616.10 1.86921
616.20 1.869854
616.30 1.870498
616.40 1.871141
616.50 1.871784
616.60 1.872426
616.70 1.873068
616.80 1.873709
616.90 1.874317
617.00 1.874924
617.10 1.875531
617.20 1.876138
617.30 1.876744
617.40 1.877349
617.50 1.877955
617.60 1.878559
617.70 1.879163
617.80 1.879767
617.90 1.88037
618.00 1.880973
618.10 1.881575
618.20 1.882176
618.30 1.882777
618.40 1.883378
618.50 1.883978
618.60 1.884578
618.70 1.885177
618.80 1.885776
618.90 1.886374
619.00 1.886972
619.10 1.887569
619.20 1.888166
619.30 1.888762
619.40 1.889358
619.50 1.889953
619.60 1.890548
619.70 1.891143
619.80 1.891736
619.90 1.89233
620.00 1.892923
620.10 1.893515
620.20 1.894107
620.30 1.894699
620.40 1.89529
620.50 1.89588
620.60 1.89647
620.70 1.89706
620.80 1.897649
620.90 1.898237
621.00 1.898824
621.10 1.89941
621.20 1.899996
621.30 1.900582
621.40 1.901167
621.50 1.901752
621.60 1.902336
621.70 1.902919
621.80 1.903502
621.90 1.904085
622.00 1.904667
622.10 1.905249
622.20 1.90583
622.30 1.906411
622.40 1.906992
622.50 1.907571
622.60 1.908151
622.70 1.90873
622.80 1.909308
622.90 1.909886
623.00 1.910464
623.10 1.911041
623.20 1.911617
623.30 1.912193
623.40 1.912769
623.50 1.913344
623.60 1.913919
623.70 1.914493
623.80 1.915067
623.90 1.91564
624.00 1.916213
624.10 1.916785
624.20 1.917357
624.30 1.917928
624.40 1.918499
624.50 1.91907
624.60 1.91964
624.70 1.92021
624.80 1.920779
624.90 1.921347
625.00 1.921916
625.10 1.922483
625.20 1.923051
625.30 1.923617
625.40 1.924184
625.50 1.92475
625.60 1.925315
625.70 1.92588
625.80 1.926444
625.90 1.927008
626.00 1.927572
626.10 1.928135
626.20 1.928698
626.30 1.92926
626.40 1.929822
626.50 1.930383
626.60 1.930944
626.70 1.931504
626.80 1.932064
626.90 1.932624
627.00 1.933183
627.10 1.933749
627.20 1.934336
627.30 1.934922
627.40 1.935508
627.50 1.936093
627.60 1.936678
627.70 1.937263
627.80 1.937847
627.90 1.93843
628.00 1.939013
628.10 1.939596
628.20 1.940178
628.30 1.940759
628.40 1.941341
628.50 1.941921
628.60 1.942501
628.70 1.943081
628.80 1.94366
628.90 1.944239
629.00 1.944818
629.10 1.945395
629.20 1.945973
629.30 1.94655
629.40 1.947126
629.50 1.947702
629.60 1.948278
629.70 1.948853
629.80 1.949428
629.90 1.950002
630.00 1.950575
630.10 1.951149
630.20 1.951721
630.30 1.952257
630.40 1.952789
630.50 1.95332
630.60 1.953851
630.70 1.954381
630.80 1.954911
630.90 1.955441
631.00 1.95597
631.10 1.956499
631.20 1.957027
631.30 1.957555
631.40 1.958083
631.50 1.95861
631.60 1.959136
631.70 1.959662
631.80 1.960188
631.90 1.960713
632.00 1.961238
632.10 1.961763
632.20 1.962287
632.30 1.96281
632.40 1.963333
632.50 1.963856
632.60 1.964378
632.70 1.9649
632.80 1.965422
632.90 1.965943
633.00 1.966463
633.10 1.966983
633.20 1.967503
633.30 1.968022
633.40 1.968557
633.50 1.969104
633.60 1.96965
633.70 1.970195
633.80 1.970741
633.90 1.971285
634.00 1.97183
634.10 1.972374
634.20 1.972917
634.30 1.97346
634.40 1.974003
634.50 1.974545
634.60 1.975087
634.70 1.975628
634.80 1.976169
634.90 1.976709
635.00 1.977249
635.10 1.977789
635.20 1.978328
635.30 1.978866
635.40 1.979404
635.50 1.979942
635.60 1.98048
635.70 1.981016
635.80 1.981553
635.90 1.982089
636.00 1.982625
636.10 1.98316
636.20 1.983694
636.30 1.984229
636.40 1.984763
636.50 1.985296
636.60 1.985863
636.70 1.986434
636.80 1.987004
636.90 1.987574
637.00 1.988143
637.10 1.988712
637.20 1.989281
637.30 1.989849
637.40 1.990416
637.50 1.990983
637.60 1.99155
637.70 1.992116
637.80 1.992682
637.90 1.993247
638.00 1.993812
638.10 1.994376
638.20 1.99494
638.30 1.995504
638.40 1.996066
638.50 1.996629
638.60 1.997191
638.70 1.997753
638.80 1.998314
638.90 1.998875
639.00 1.999435
639.10 1.999995
639.20 2.000554
639.30 2.001113
639.40 2.001672
639.50 2.00223
639.60 2.002787
639.70 2.003333
639.80 2.00384
639.90 2.004347
640.00 2.004853
640.10 2.005359
640.20 2.005865
640.30 2.00637
640.40 2.006874
640.50 2.007378
640.60 2.007882
640.70 2.008386
640.80 2.008889
640.90 2.009391
641.00 2.009893
641.10 2.010395
641.20 2.010896
641.30 2.011397
641.40 2.011898
641.50 2.012398
641.60 2.012898
641.70 2.013397
641.80 2.013896
641.90 2.014394
642.00 2.014892
642.10 2.01539
642.20 2.015887
642.30 2.016384
642.40 2.016881
642.50 2.017377
642.60 2.017872
642.70 2.018367
642.80 2.018862
642.90 2.019357
643.00 2.019851
643.10 2.020345
643.20 2.020838
643.30 2.021332
643.40 2.021824
643.50 2.022317
643.60 2.022809
643.70 2.0233
643.80 2.023791
643.90 2.024282
644.00 2.024772
644.10 2.025262
644.20 2.025752
644.30 2.026241
644.40 2.026729
644.50 2.027218
644.60 2.027706
644.70 2.028193
644.80 2.02868
644.90 2.029167
645.00 2.029653
645.10 2.030139
645.20 2.030625
645.30 2.03111
645.40 2.031594
645.50 2.032079
645.60 2.032563
645.70 2.033046
645.80 2.033529
645.90 2.034012
646.00 2.034494
646.10 2.034983
646.20 2.03549
646.30 2.035997
646.40 2.036503
646.50 2.037009
646.60 2.037515
646.70 2.03802
646.80 2.038525
646.90 2.039029
647.00 2.039533
647.10 2.040036
647.20 2.04054
647.30 2.041042
647.40 2.041544
647.50 2.042046
647.60 2.042548
647.70 2.043049
647.80 2.04355
647.90 2.04405
648.00 2.04455
648.10 2.045049
648.20 2.045548
648.30 2.046047
648.40 2.046545
648.50 2.047043
648.60 2.04754
648.70 2.048037
648.80 2.048534
648.90 2.04903
649.00 2.049526
649.10 2.050021
649.20 2.050516
649.30 2.051011
649.40 2.051505
649.50 2.051998
649.60 2.052491
649.70 2.052984
649.80 2.053476
649.90 2.053968
650.00 2.054459
650.10 2.05495
650.20 2.055441
650.30 2.055931
650.40 2.056421
650.50 2.05691
650.60 2.057399
650.70 2.057888
650.80 2.058376
650.90 2.058864
651.00 2.059352
651.10 2.059839
651.20 2.060325
651.30 2.060812
651.40 2.061297
651.50 2.061783
651.60 2.062268
651.70 2.062753
651.80 2.063237
651.90 2.063721
652.00 2.064204
652.10 2.064687
652.20 2.06517
652.30 2.065652
652.40 2.066134
652.50 2.066616
652.60 2.067088
652.70 2.067556
652.80 2.068023
652.90 2.068489
653.00 2.068955
653.10 2.069421
653.20 2.069886
653.30 2.070351
653.40 2.070816
653.50 2.07128
653.60 2.071744
653.70 2.072208
653.80 2.072671
653.90 2.073133
654.00 2.073596
654.10 2.074058
654.20 2.074519
654.30 2.07498
654.40 2.075441
654.50 2.075902
654.60 2.076362
654.70 2.076821
654.80 2.077281
654.90 2.07774
655.00 2.078198
655.10 2.078656
655.20 2.079114
655.30 2.079572
655.40 2.080029
655.50 2.080485
655.60 2.080942
655.70 2.081398
655.80 2.081856
655.90 2.082313
656.00 2.08277
656.10 2.083227
656.20 2.083684
656.30 2.08414
656.40 2.084596
656.50 2.085051
656.60 2.085506
656.70 2.085961
656.80 2.086415
656.90 2.086869
657.00 2.087322
657.10 2.087775
657.20 2.088228
657.30 2.088681
657.40 2.089133
657.50 2.089584
657.60 2.090036
657.70 2.090486
657.80 2.090845
657.90 2.091295
658.00 2.09176
658.10 2.092226
658.20 2.092691
658.30 2.093155
658.40 2.093619
658.50 2.094083
658.60 2.094546
658.70 2.095009
658.80 2.095472
658.90 2.095934
659.00 2.096396
659.10 2.097069
659.20 2.098059
659.30 2.098444
659.40 2.098828
659.50 2.099211
659.60 2.099595
659.70 2.099977
659.80 2.10036
659.90 2.100742
660.00 2.101124
660.10 2.101506
660.20 2.101887
660.30 2.102268
660.40 2.102778
660.50 2.10331
660.60 2.103842
660.70 2.104374
660.80 2.104905
660.90 2.105401
661.00 2.105896
661.10 2.106391
661.20 2.106885
661.30 2.107379
661.40 2.107873
661.50 2.108366
661.60 2.108859
661.70 2.109351
661.80 2.109843
661.90 2.110083
662.00 2.110322
662.10 2.110561
662.20 2.1108
662.30 2.111038
662.40 2.11166
662.50 2.11215
662.60 2.112639
662.70 2.113128
662.80 2.113616
662.90 2.114104
663.00 2.114592
663.10 2.115079
663.20 2.115004
663.30 2.116053
663.40 2.116539
663.50 2.117025
663.60 2.11751
663.70 2.117916
663.80 2.118323
663.90 2.118357
664.00 2.118325
664.10 2.118809
664.20 2.119293
664.30 2.119775
664.40 2.120258
664.50 2.12074
664.60 2.121222
664.70 2.121683
664.80 2.122143
664.90 2.122603
665.00 2.123063
665.10 2.123522
665.20 2.123981
665.30 2.12444
665.40 2.124898
665.50 2.125451
665.60 2.126019
665.70 2.125882
665.80 2.126265
665.90 2.126649
666.00 2.127032
666.10 2.127415
666.20 2.127798
666.30 2.12818
666.40 2.128562
666.50 2.129023
666.60 2.129498
666.70 2.129972
666.80 2.130445
666.90 2.130919
667.00 2.131392
667.10 2.131941
667.20 2.132503
667.30 2.132898
667.40 2.133292
667.50 2.133751
667.60 2.134222
667.70 2.134859
667.80 2.134566
667.90 2.135798
668.00 2.135852
668.10 2.13657
668.20 2.137039
668.30 2.137271
668.40 2.137462
668.50 2.137653
668.60 2.137844
668.70 2.138435
668.80 2.138869
668.90 2.139303
669.00 2.139737
669.10 2.14017
669.20 2.140603
669.30 2.141063
669.40 2.141527
669.50 2.141991
669.60 2.142455
669.70 2.142918
669.80 2.143381
669.90 2.143843
670.00 2.144305
670.10 2.144767
670.20 2.145228
670.30 2.145525
670.40 2.145793
670.50 2.14606
670.60 2.146328
670.70 2.146595
670.80 2.147039
670.90 2.147484
671.00 2.147927
671.10 2.148371
671.20 2.148814
671.30 2.149257
671.40 2.149699
671.50 2.150141
671.60 2.150583
671.70 2.151025
671.80 2.151466
671.90 2.151934
672.00 2.152407
672.10 2.152879
672.20 2.153351
672.30 2.153823
672.40 2.154172
672.50 2.154511
672.60 2.15485
672.70 2.155189
672.80 2.155527
672.90 2.155865
673.00 2.156203
673.10 2.156541
673.20 2.156878
673.30 2.157186
673.40 2.157569
673.50 2.157964
673.60 2.158359
673.70 2.158754
673.80 2.159148
673.90 2.159542
674.00 2.159936
674.10 2.160329
674.20 2.160723
674.30 2.161115
674.40 2.161508
674.50 2.1619
674.60 2.162292
674.70 2.162683
674.80 2.163074
674.90 2.163465
675.00 2.163855
675.10 2.164246
675.20 2.164635
675.30 2.165025
675.40 2.165423
675.50 2.165823
675.60 2.166222
675.70 2.166621
675.80 2.16702
675.90 2.167418
676.00 2.167816
676.10 2.168214
676.20 2.168611
676.30 2.169008
676.40 2.169405
676.50 2.169801
676.60 2.170197
676.70 2.170593
676.80 2.170988
676.90 2.171383
677.00 2.171778
677.10 2.172173
677.20 2.172567
677.30 2.17296
677.40 2.173354
677.50 2.173747
677.60 2.17414
677.70 2.174532
677.80 2.174924
677.90 2.175266
678.00 2.175599
678.10 2.175931
678.20 2.176263
678.30 2.176595
678.40 2.176926
678.50 2.177258
678.60 2.177588
678.70 2.177919
678.80 2.178249
678.90 2.178579
679.00 2.178909
679.10 2.179267
679.20 2.179636
679.30 2.180004
679.40 2.180373
679.50 2.180741
679.60 2.181109
679.70 2.181476
679.80 2.181844
679.90 2.182211
680.00 2.182577
680.10 2.182943
680.20 2.183309
680.30 2.183675
680.40 2.18404
680.50 2.184405
680.60 2.18477
680.70 2.185135
680.80 2.185499
680.90 2.185862
681.00 2.186226
681.10 2.186589
681.20 2.186952
681.30 2.187315
681.40 2.187677
681.50 2.188039
681.60 2.188401
681.70 2.188762
681.80 2.189123
681.90 2.189484
682.00 2.189844
682.10 2.190204
682.20 2.190564
682.30 2.190924
682.40 2.191283
682.50 2.191642
682.60 2.192
682.70 2.192359
682.80 2.192717
682.90 2.193074
683.00 2.193432
683.10 2.193789
683.20 2.194146
683.30 2.194502
683.40 2.194858
683.50 2.195214
683.60 2.19557
683.70 2.195925
683.80 2.19628
683.90 2.196635
684.00 2.196989
684.10 2.197343
684.20 2.197697
684.30 2.19805
684.40 2.198403
684.50 2.198756
684.60 2.199109
684.70 2.199461
684.80 2.199813
684.90 2.200165
685.00 2.200516
685.10 2.200867
685.20 2.201218
685.30 2.201568
685.40 2.201918
685.50 2.202268
685.60 2.202618
685.70 2.202967
685.80 2.203316
685.90 2.203669
686.00 2.204023
686.10 2.204376
686.20 2.204729
686.30 2.205082
686.40 2.205435
686.50 2.205787
686.60 2.206139
686.70 2.206491
686.80 2.206842
686.90 2.207193
687.00 2.207544
687.10 2.207894
687.20 2.208244
687.30 2.208594
687.40 2.208944
687.50 2.209293
687.60 2.209642
687.70 2.209991
687.80 2.210339
687.90 2.210687
688.00 2.211035
688.10 2.211383
688.20 2.21173
688.30 2.212077
688.40 2.212423
688.50 2.21277
688.60 2.213116
688.70 2.213461
688.80 2.213807
688.90 2.214152
689.00 2.214497
689.10 2.214841
689.20 2.215186
689.30 2.215529
689.40 2.215873
689.50 2.216217
689.60 2.21656
689.70 2.216902
689.80 2.217245
689.90 2.217587
690.00 2.217929
690.10 2.218271
690.20 2.218612
690.30 2.218953
690.40 2.219294
690.50 2.219634
690.60 2.219974
690.70 2.220314
690.80 2.220654
690.90 2.220993
691.00 2.221332
691.10 2.221671
691.20 2.222009
691.30 2.222348
691.40 2.222685
691.50 2.223023
691.60 2.22336
691.70 2.223697
691.80 2.224034
691.90 2.22437
692.00 2.224706
692.10 2.225042
692.20 2.225378
692.30 2.225713
692.40 2.226048
692.50 2.226383
692.60 2.226717
692.70 2.227049
692.80 2.227373
692.90 2.227696
693.00 2.228018
693.10 2.228341
693.20 2.228663
693.30 2.228985
693.40 2.229307
693.50 2.229628
693.60 2.229949
693.70 2.23027
693.80 2.230591
693.90 2.230911
694.00 2.231231
694.10 2.231551
694.20 2.23187
694.30 2.23219
694.40 2.232509
694.50 2.232827
694.60 2.233146
694.70 2.233464
694.80 2.233781
694.90 2.234099
695.00 2.234416
695.10 2.234733
695.20 2.23505
695.30 2.235366
695.40 2.235683
695.50 2.235998
695.60 2.236314
695.70 2.236629
695.80 2.236945
695.90 2.237259
696.00 2.237574
696.10 2.237888
696.20 2.238202
696.30 2.238516
696.40 2.238829
696.50 2.239142
696.60 2.239441
696.70 2.239736
696.80 2.24003
696.90 2.240324
697.00 2.240618
697.10 2.240912
697.20 2.241206
697.30 2.241499
697.40 2.241792
697.50 2.242084
697.60 2.242377
697.70 2.242669
697.80 2.242961
697.90 2.243253
698.00 2.243544
698.10 2.243835
698.20 2.244126
698.30 2.244417
698.40 2.244707
698.50 2.244997
698.60 2.245287
698.70 2.245577
698.80 2.245866
698.90 2.246155
699.00 2.246444
699.10 2.246678
699.20 2.246899
699.30 2.247119
699.40 2.247339
699.50 2.24756
699.60 2.247779
699.70 2.248063
699.80 2.248349
699.90 2.248635
700.00 2.248921
700.10 2.249206
700.20 2.249491
700.30 2.249776
700.40 2.250061
700.50 2.250345
700.60 2.25063
700.70 2.250914
700.80 2.251197
700.90 2.251481
701.00 2.251764
701.10 2.252058
701.20 2.252355
701.30 2.252652
701.40 2.252948
701.50 2.253244
701.60 2.253539
701.70 2.253835
701.80 2.25413
701.90 2.254425
702.00 2.25472
702.10 2.255014
702.20 2.255308
702.30 2.255602
702.40 2.255896
702.50 2.256189
702.60 2.256485
702.70 2.256782
702.80 2.257079
702.90 2.257376
703.00 2.257672
703.10 2.257968
703.20 2.258264
703.30 2.258559
703.40 2.258854
703.50 2.259149
703.60 2.259444
703.70 2.259738
703.80 2.260032
703.90 2.260326
704.00 2.26062
704.10 2.260913
704.20 2.261176
704.30 2.261432
704.40 2.261687
704.50 2.261942
704.60 2.262197
704.70 2.262451
704.80 2.262706
704.90 2.26296
705.00 2.263213
705.10 2.263467
705.20 2.263801
705.30 2.264153
705.40 2.264506
705.50 2.264858
705.60 2.265209
705.70 2.265561
705.80 2.265711
705.90 2.265813
706.00 2.265916
706.10 2.266018
706.20 2.266321
706.30 2.266671
706.40 2.267209
706.50 2.267819
706.60 2.267908
706.70 2.268256
706.80 2.268417
706.90 2.268765
707.00 2.269113
707.10 2.26946
707.20 2.269808
707.30 2.270155
707.40 2.270368
707.50 2.27055
707.60 2.270731
707.70 2.270913
707.80 2.271094
707.90 2.271275
708.00 2.271509
708.10 2.271756
708.20 2.272002
708.30 2.272248
708.40 2.272494
708.50 2.272739
708.60 2.272984
708.70 2.273229
708.80 2.273474
708.90 2.273719
709.00 2.273993
709.10 2.274274
709.20 2.274555
709.30 2.274835
709.40 2.275115
709.50 2.275395
709.60 2.275675
709.70 2.275955
709.80 2.276234
709.90 2.276513
710.00 2.276792
710.10 2.27707
710.20 2.277348
710.30 2.277626
710.40 2.277904
710.50 2.278182
710.60 2.278456
710.70 2.278729
710.80 2.279001
710.90 2.279274
711.00 2.279546
711.10 2.279818
711.20 2.28009
711.30 2.280361
711.40 2.280632
711.50 2.280903
711.60 2.281174
711.70 2.281445
711.80 2.281715
711.90 2.281985
712.00 2.282255
712.10 2.282506
712.20 2.282753
712.30 2.282999
712.40 2.283246
712.50 2.283492
712.60 2.283738
712.70 2.283983
712.80 2.284229
712.90 2.284474
713.00 2.284719
713.10 2.284963
713.20 2.285208
713.30 2.285452
713.40 2.285696
713.50 2.28594
713.60 2.286184
713.70 2.286408
713.80 2.286595
713.90 2.286782
714.00 2.286968
714.10 2.287176
714.20 2.287389
714.30 2.287602
714.40 2.287815
714.50 2.288027
714.60 2.288239
714.70 2.288451
714.80 2.288663
714.90 2.288875
715.00 2.289086
715.10 2.289297
715.20 2.289508
715.30 2.289719
715.40 2.289929
715.50 2.290139
715.60 2.29035
715.70 2.290559
715.80 2.290769
715.90 2.290979
716.00 2.291188
716.10 2.291397
716.20 2.291606
716.30 2.291814
716.40 2.292023
716.50 2.292231
716.60 2.292477
716.70 2.292731
716.80 2.292985
716.90 2.293239
717.00 2.293492
717.10 2.293745
717.20 2.293999
717.30 2.294251
717.40 2.294504
717.50 2.294756
717.60 2.295009
717.70 2.295261
717.80 2.295512
717.90 2.295764
718.00 2.296015
718.10 2.296266
718.20 2.296512
718.30 2.296754
718.40 2.296997
718.50 2.297239
718.60 2.297481
718.70 2.297723
718.80 2.297964
718.90 2.298206
719.00 2.298447
719.10 2.298688
719.20 2.298928
719.30 2.299169
719.40 2.299409
719.50 2.299649
719.60 2.299889
719.70 2.300128
719.80 2.300368
719.90 2.300607
720.00 2.300846
720.10 2.301085
720.20 2.301323
720.30 2.301561
720.40 2.301799
720.50 2.302037
720.60 2.302275
720.70 2.302309
720.80 2.302233
720.90 2.302466
721.00 2.30271
721.10 2.302955
721.20 2.3032
721.30 2.303444
721.40 2.303688
721.50 2.303931
721.60 2.304175
721.70 2.304418
721.80 2.304661
721.90 2.304904
722.00 2.305147
722.10 2.305389
722.20 2.305632
722.30 2.305874
722.40 2.306115
722.50 2.306357
722.60 2.306598
722.70 2.306801
722.80 2.306984
722.90 2.307166
723.00 2.307348
723.10 2.307529
723.20 2.307711
723.30 2.307893
723.40 2.308074
723.50 2.308255
723.60 2.308436
723.70 2.308616
723.80 2.308797
723.90 2.308977
724.00 2.309157
724.10 2.309337
724.20 2.309522
724.30 2.309709
724.40 2.309897
724.50 2.310084
724.60 2.31027
724.70 2.310457
724.80 2.310644
724.90 2.31083
725.00 2.311016
725.10 2.311202
725.20 2.311387
725.30 2.311573
725.40 2.311758
725.50 2.311943
725.60 2.312128
725.70 2.312313
725.80 2.312513
725.90 2.312721
726.00 2.312928
726.10 2.313136
726.20 2.313343
726.30 2.31355
726.40 2.313757
726.50 2.313963
726.60 2.31417
726.70 2.314376
726.80 2.314643
726.90 2.314942
727.00 2.315241
727.10 2.31554
727.20 2.315839
727.30 2.316137
727.40 2.316284
727.50 2.316348
727.60 2.316412
727.70 2.316476
727.80 2.316692
727.90 2.316989
728.00 2.31731
728.10 2.317034
728.20 2.317272
728.30 2.317685
728.40 2.318168
728.50 2.317997
728.60 2.31813
728.70 2.318425
728.80 2.318721
728.90 2.319015
729.00 2.319209
729.10 2.319349
729.20 2.319488
729.30 2.319627
729.40 2.319766
729.50 2.319904
729.60 2.320083
729.70 2.320283
729.80 2.320484
729.90 2.320683
730.00 2.320883
730.10 2.321083
730.20 2.321282
730.30 2.321481
730.40 2.32168
730.50 2.321879
730.60 2.322062
730.70 2.322237
730.80 2.322412
730.90 2.322587
731.00 2.322762
731.10 2.322936
731.20 2.32311
731.30 2.323284
731.40 2.323458
731.50 2.323632
731.60 2.323806
731.70 2.323979
731.80 2.324152
731.90 2.324325
732.00 2.324498
732.10 2.32467
732.20 2.324838
732.30 2.325002
732.40 2.325167
732.50 2.325331
732.60 2.325495
732.70 2.325659
732.80 2.325823
732.90 2.325986
733.00 2.326149
733.10 2.326313
733.20 2.326476
733.30 2.326638
733.40 2.326801
733.50 2.326964
733.60 2.327126
733.70 2.327311
733.80 2.327508
733.90 2.327706
734.00 2.327903
734.10 2.328099
734.20 2.328296
734.30 2.328492
734.40 2.328689
734.50 2.328885
734.60 2.32908
734.70 2.329276
734.80 2.329471
734.90 2.329667
735.00 2.329862
735.10 2.330057
735.20 2.330251
735.30 2.330444
735.40 2.33061
735.50 2.330776
735.60 2.330942
735.70 2.331111
735.80 2.331281
735.90 2.331452
736.00 2.331622
736.10 2.331792
736.20 2.331961
736.30 2.332131
736.40 2.3323
736.50 2.33247
736.60 2.332639
736.70 2.332808
736.80 2.332976
736.90 2.333145
737.00 2.333313
737.10 2.333481
737.20 2.333649
737.30 2.333817
737.40 2.333985
737.50 2.334152
737.60 2.334319
737.70 2.334487
737.80 2.334654
737.90 2.33482
738.00 2.334987
738.10 2.335153
738.20 2.33531
738.30 2.335463
738.40 2.335615
738.50 2.335767
738.60 2.335918
738.70 2.33607
738.80 2.336221
738.90 2.336372
739.00 2.336523
739.10 2.336674
739.20 2.336825
739.30 2.336976
739.40 2.337126
739.50 2.337276
739.60 2.337426
739.70 2.337576
739.80 2.337726
739.90 2.337875
740.00 2.338025
740.10 2.338174
740.20 2.338323
740.30 2.338472
740.40 2.33862
740.50 2.338769
740.60 2.338917
740.70 2.339065
740.80 2.339214
740.90 2.339361
741.00 2.339509
741.10 2.339657
741.20 2.339804
741.30 2.339951
741.40 2.340098
741.50 2.340245
741.60 2.340392
741.70 2.340538
741.80 2.340685
741.90 2.340831
742.00 2.340977
742.10 2.341123
742.20 2.341269
742.30 2.341414
742.40 2.34156
742.50 2.341705
742.60 2.34185
742.70 2.341997
742.80 2.342146
742.90 2.342295
743.00 2.342444
743.10 2.342593
743.20 2.342741
743.30 2.342889
743.40 2.343038
743.50 2.343185
743.60 2.343333
743.70 2.343476
743.80 2.343602
743.90 2.343727
744.00 2.343852
744.10 2.343977
744.20 2.344101
744.30 2.344226
744.40 2.34435
744.50 2.344474
744.60 2.344599
744.70 2.344722
744.80 2.344846
744.90 2.34497
745.00 2.345093
745.10 2.345217
745.20 2.34534
745.30 2.345463
745.40 2.345586
745.50 2.345709
745.60 2.345831
745.70 2.345954
745.80 2.346076
745.90 2.346198
746.00 2.34632
746.10 2.346442
746.20 2.346563
746.30 2.346685
746.40 2.346806
746.50 2.346928
746.60 2.347049
746.70 2.34717
746.80 2.34729
746.90 2.347411
747.00 2.347531
747.10 2.347652
747.20 2.347772
747.30 2.347892
747.40 2.348012
747.50 2.348132
747.60 2.348251
747.70 2.348371
747.80 2.34849
747.90 2.348609
748.00 2.348728
748.10 2.348847
748.20 2.348966
748.30 2.349084
748.40 2.349203
748.50 2.349321
748.60 2.349439
748.70 2.349557
748.80 2.349675
748.90 2.349793
749.00 2.34991
749.10 2.350027
749.20 2.350145
749.30 2.350262
749.40 2.350379
749.50 2.350496
749.60 2.350612
749.70 2.350729
749.80 2.350845
749.90 2.350961
750.00 2.351077
750.10 2.351195
750.20 2.351319
750.30 2.351442
750.40 2.351565
750.50 2.351688
750.60 2.35181
750.70 2.351933
750.80 2.352055
750.90 2.352177
751.00 2.352299
751.10 2.352421
751.20 2.352543
751.30 2.352665
751.40 2.352786
751.50 2.352908
751.60 2.353029
751.70 2.35315
751.80 2.353271
751.90 2.353392
752.00 2.353512
752.10 2.353633
752.20 2.353753
752.30 2.353873
752.40 2.353993
752.50 2.354113
752.60 2.354233
752.70 2.354352
752.80 2.354472
752.90 2.354591
753.00 2.35471
753.10 2.354829
753.20 2.354948
753.30 2.355067
753.40 2.355185
753.50 2.355304
753.60 2.355422
753.70 2.35554
753.80 2.355658
753.90 2.355776
754.00 2.355893
754.10 2.356011
754.20 2.356128
754.30 2.356246
754.40 2.356363
754.50 2.35648
754.60 2.356597
754.70 2.356713
754.80 2.35683
754.90 2.356946
755.00 2.357062
755.10 2.357178
755.20 2.357294
755.30 2.35741
755.40 2.357526
755.50 2.357641
755.60 2.357757
755.70 2.357872
755.80 2.357987
755.90 2.358102
756.00 2.358217
756.10 2.358331
756.20 2.358446
756.30 2.35856
756.40 2.358674
756.50 2.358789
756.60 2.358902
756.70 2.359016
756.80 2.35913
756.90 2.359243
757.00 2.359357
757.10 2.35947
757.20 2.359583
757.30 2.359696
757.40 2.359809
757.50 2.359921
757.60 2.360026
757.70 2.360108
757.80 2.36019
757.90 2.360272
758.00 2.360354
758.10 2.360436
758.20 2.360517
758.30 2.360599
758.40 2.36068
758.50 2.360761
758.60 2.360842
758.70 2.360923
758.80 2.361004
758.90 2.361085
759.00 2.361166
759.10 2.361246
759.20 2.361327
759.30 2.361407
759.40 2.361487
759.50 2.361567
759.60 2.361647
759.70 2.361727
759.80 2.361806
759.90 2.361886
760.00 2.361965
760.10 2.362044
760.20 2.362123
760.30 2.362202
760.40 2.362281
760.50 2.36236
760.60 2.362439
760.70 2.362517
760.80 2.362596
760.90 2.362674
761.00 2.362752
761.10 2.36283
761.20 2.362908
761.30 2.362986
761.40 2.363063
761.50 2.363141
761.60 2.363218
761.70 2.363296
761.80 2.363373
761.90 2.36345
762.00 2.363527
762.10 2.363604
762.20 2.36368
762.30 2.363757
762.40 2.363833
762.50 2.36391
762.60 2.363986
762.70 2.364062
762.80 2.364138
762.90 2.364214
763.00 2.36429
763.10 2.364365
763.20 2.364441
763.30 2.364516
763.40 2.364591
763.50 2.364666
763.60 2.364741
763.70 2.364816
763.80 2.364891
763.90 2.364966
764.00 2.36504
764.10 2.365114
764.20 2.365189
764.30 2.365263
764.40 2.365337
764.50 2.365411
764.60 2.365485
764.70 2.365558
764.80 2.365632
764.90 2.365705
765.00 2.365779
765.10 2.365852
765.20 2.365921
765.30 2.365987
765.40 2.366053
765.50 2.366119
765.60 2.366185
765.70 2.366251
765.80 2.366316
765.90 2.366382
766.00 2.366447
766.10 2.366512
766.20 2.366577
766.30 2.366642
766.40 2.366707
766.50 2.366772
766.60 2.366836
766.70 2.366901
766.80 2.366965
766.90 2.367029
767.00 2.367093
767.10 2.367157
767.20 2.367221
767.30 2.367285
767.40 2.367349
767.50 2.367412
767.60 2.367476
767.70 2.367539
767.80 2.367603
767.90 2.367666
768.00 2.367729
768.10 2.367792
768.20 2.367854
768.30 2.367917
768.40 2.36798
768.50 2.368042
768.60 2.368104
768.70 2.368167
768.80 2.368229
768.90 2.368291
769.00 2.368353
769.10 2.368414
769.20 2.368476
769.30 2.368538
769.40 2.368599
769.50 2.36866
769.60 2.368721
769.70 2.368783
769.80 2.368844
769.90 2.368904
770.00 2.368965
770.10 2.369026
770.20 2.369086
770.30 2.369147
770.40 2.369207
770.50 2.369267
770.60 2.369327
770.70 2.369387
770.80 2.369447
770.90 2.369507
771.00 2.369567
771.10 2.369626
771.20 2.369686
771.30 2.369745
771.40 2.369804
771.50 2.369863
771.60 2.369922
771.70 2.369981
771.80 2.37004
771.90 2.370099
772.00 2.370157
772.10 2.370216
772.20 2.370274
772.30 2.370332
772.40 2.37039
772.50 2.370448
772.60 2.370506
772.70 2.370564
772.80 2.370622
772.90 2.370662
773.00 2.370702
773.10 2.370742
773.20 2.370782
773.30 2.370822
773.40 2.370862
773.50 2.370901
773.60 2.370941
773.70 2.37098
773.80 2.37102
773.90 2.371059
774.00 2.371098
774.10 2.371137
774.20 2.371176
774.30 2.371215
774.40 2.371254
774.50 2.371292
774.60 2.371331
774.70 2.371369
774.80 2.371408
774.90 2.371446
775.00 2.371484
775.10 2.371522
775.20 2.37156
775.30 2.371598
775.40 2.371636
775.50 2.371673
775.60 2.371711
775.70 2.371749
775.80 2.371786
775.90 2.371823
776.00 2.37186
776.10 2.371897
776.20 2.371934
776.30 2.371971
776.40 2.372008
776.50 2.372045
776.60 2.372081
776.70 2.372118
776.80 2.372154
776.90 2.372191
777.00 2.372227
777.10 2.372263
777.20 2.372299
777.30 2.372335
777.40 2.372371
777.50 2.372406
777.60 2.372442
777.70 2.372477
777.80 2.372513
777.90 2.372548
778.00 2.372583
778.10 2.372619
778.20 2.372654
778.30 2.372689
778.40 2.372723
778.50 2.372758
778.60 2.372793
778.70 2.372827
778.80 2.372862
778.90 2.372896
779.00 2.372931
779.10 2.372965
779.20 2.372999
779.30 2.373033
779.40 2.373067
779.50 2.3731
779.60 2.373134
779.70 2.373168
779.80 2.373201
779.90 2.373235
780.00 2.373268
780.10 2.373301
780.20 2.373334
780.30 2.373367
780.40 2.3734
780.50 2.373433
780.60 2.373467
780.70 2.373502
780.80 2.373536
780.90 2.373571
781.00 2.373605
781.10 2.373639
781.20 2.373673
781.30 2.373707
781.40 2.373741
781.50 2.373775
781.60 2.373809
781.70 2.373842
781.80 2.373876
781.90 2.373909
782.00 2.373942
782.10 2.373976
782.20 2.374009
782.30 2.374042
782.40 2.374075
782.50 2.374108
782.60 2.37414
782.70 2.374173
782.80 2.374206
782.90 2.374238
783.00 2.37427
783.10 2.374303
783.20 2.374335
783.30 2.374367
783.40 2.374399
783.50 2.374431
783.60 2.374463
783.70 2.374495
783.80 2.374526
783.90 2.374558
784.00 2.374589
784.10 2.37462
784.20 2.374652
784.30 2.374683
784.40 2.374714
784.50 2.374745
784.60 2.374771
784.70 2.374785
784.80 2.374799
784.90 2.374812
785.00 2.374826
785.10 2.374839
785.20 2.374853
785.30 2.374866
785.40 2.37488
785.50 2.374893
785.60 2.374906
785.70 2.374919
785.80 2.374932
785.90 2.374945
786.00 2.374958
786.10 2.374971
786.20 2.374983
786.30 2.374996
786.40 2.375008
786.50 2.375021
786.60 2.375033
786.70 2.375045
786.80 2.375057
786.90 2.375069
787.00 2.375081
787.10 2.375093
787.20 2.375105
787.30 2.375117
787.40 2.375128
787.50 2.37514
787.60 2.375151
787.70 2.375163
787.80 2.375174
787.90 2.375185
788.00 2.375197
788.10 2.375208
788.20 2.375219
788.30 2.37523
788.40 2.375235
788.50 2.375238
788.60 2.375241
788.70 2.375244
788.80 2.375247
788.90 2.37525
789.00 2.375253
789.10 2.375255
789.20 2.375258
789.30 2.37526
789.40 2.375263
789.50 2.375265
789.60 2.375267
789.70 2.375269
789.80 2.375271
789.90 2.375273
790.00 2.375275
790.10 2.375277
790.20 2.375279
790.30 2.375281
790.40 2.375282
790.50 2.375284
790.60 2.375285
790.70 2.375287
790.80 2.375288
790.90 2.375289
791.00 2.37529
791.10 2.375291
791.20 2.375292
791.30 2.375293
791.40 2.375294
791.50 2.375295
791.60 2.375296
791.70 2.375296
791.80 2.375297
791.90 2.375297
792.00 2.375298
792.10 2.375298
792.20 2.375298
792.30 2.375299
792.40 2.375299
792.50 2.375299
792.60 2.375299
792.70 2.375299
792.80 2.375299
792.90 2.375299
793.00 2.375299
793.10 2.375298
793.20 2.375298
793.30 2.375298
793.40 2.375297
793.50 2.375296
793.60 2.375296
793.70 2.375295
793.80 2.375294
793.90 2.375293
794.00 2.375292
794.10 2.375291
794.20 2.37529
794.30 2.375289
794.40 2.375288
794.50 2.375286
794.60 2.375285
794.70 2.375284
794.80 2.375282
794.90 2.37528
795.00 2.375279
795.10 2.375277
795.20 2.375275
795.30 2.375273
795.40 2.375271
795.50 2.375269
795.60 2.375267
795.70 2.375265
795.80 2.375262
795.90 2.37526
796.00 2.375258
796.10 2.375255
796.20 2.375252
796.30 2.375228
796.40 2.3752
796.50 2.375172
796.60 2.375143
796.70 2.375115
796.80 2.375086
796.90 2.375058
797.00 2.375029
797.10 2.375
797.20 2.374971
797.30 2.374943
797.40 2.374914
797.50 2.374885
797.60 2.374856
797.70 2.374827
797.80 2.374797
797.90 2.374768
798.00 2.374739
798.10 2.37471
798.20 2.37468
798.30 2.374651
798.40 2.374621
798.50 2.374592
798.60 2.374562
798.70 2.374533
798.80 2.374503
798.90 2.374473
799.00 2.374443
799.10 2.374413
799.20 2.374383
799.30 2.374353
799.40 2.374323
799.50 2.374293
799.60 2.374263
799.70 2.374233
799.80 2.374202
799.90 2.374172
800.00 2.374141
800.10 2.374111
800.20 2.37408
800.30 2.37405
800.40 2.374019
800.50 2.373988
800.60 2.373957
800.70 2.373927
800.80 2.373896
800.90 2.373865
801.00 2.373834
801.10 2.373803
801.20 2.373771
801.30 2.37374
801.40 2.373709
801.50 2.373678
801.60 2.373646
801.70 2.373615
801.80 2.373583
801.90 2.373552
802.00 2.37352
802.10 2.373488
802.20 2.373457
802.30 2.373425
802.40 2.373393
802.50 2.373361
802.60 2.373329
802.70 2.373297
802.80 2.373265
802.90 2.373233
803.00 2.373201
803.10 2.373168
803.20 2.373136
803.30 2.373104
803.40 2.373071
803.50 2.373039
803.60 2.373006
803.70 2.372974
803.80 2.372941
803.90 2.372908
804.00 2.372876
804.10 2.372843
804.20 2.372813
804.30 2.372793
804.40 2.372774
804.50 2.372754
804.60 2.372735
804.70 2.372715
804.80 2.372695
804.90 2.372675
805.00 2.372655
805.10 2.372635
805.20 2.372615
805.30 2.372595
805.40 2.372575
805.50 2.372555
805.60 2.372535
805.70 2.372514
805.80 2.372494
805.90 2.372473
806.00 2.372453
806.10 2.372432
806.20 2.372411
806.30 2.372391
806.40 2.37237
806.50 2.372349
806.60 2.372328
806.70 2.372307
806.80 2.372286
806.90 2.372265
807.00 2.372244
807.10 2.372223
807.20 2.372201
807.30 2.37218
807.40 2.372159
807.50 2.372137
807.60 2.372116
807.70 2.372094
807.80 2.372072
807.90 2.372051
808.00 2.372029
808.10 2.372007
808.20 2.371985
808.30 2.371925
808.40 2.371865
808.50 2.371806
808.60 2.371746
808.70 2.371686
808.80 2.371626
808.90 2.371566
809.00 2.371506
809.10 2.371446
809.20 2.371386
809.30 2.371326
809.40 2.371266
809.50 2.371206
809.60 2.371146
809.70 2.371086
809.80 2.371025
809.90 2.370965
810.00 2.370905
810.10 2.370844
810.20 2.370784
810.30 2.370723
810.40 2.370663
810.50 2.370602
810.60 2.370542
810.70 2.370481
810.80 2.37042
810.90 2.370359
811.00 2.370299
811.10 2.370238
811.20 2.370177
811.30 2.370116
811.40 2.370055
811.50 2.369994
811.60 2.369933
811.70 2.369872
811.80 2.369811
811.90 2.36975
812.00 2.369689
812.10 2.369627
812.20 2.369566
812.30 2.369514
812.40 2.369465
812.50 2.369415
812.60 2.369366
812.70 2.369316
812.80 2.369267
812.90 2.369217
813.00 2.369167
813.10 2.369117
813.20 2.369067
813.30 2.369018
813.40 2.368968
813.50 2.368918
813.60 2.368868
813.70 2.368818
813.80 2.368768
813.90 2.368717
814.00 2.368667
814.10 2.368617
814.20 2.368567
814.30 2.368516
814.40 2.368466
814.50 2.368415
814.60 2.368365
814.70 2.368314
814.80 2.368264
814.90 2.368213
815.00 2.368163
815.10 2.368112
815.20 2.368061
815.30 2.36801
815.40 2.367959
815.50 2.367908
815.60 2.367858
815.70 2.367807
815.80 2.367756
815.90 2.367704
816.00 2.367653
816.10 2.367602
816.20 2.367551
816.30 2.3675
816.40 2.367448
816.50 2.367397
816.60 2.367346
816.70 2.367294
816.80 2.367243
816.90 2.367191
817.00 2.367139
817.10 2.367088
817.20 2.367036
817.30 2.366984
817.40 2.366933
817.50 2.366881
817.60 2.366829
817.70 2.366777
817.80 2.366725
817.90 2.366673
818.00 2.366621
818.10 2.366569
818.20 2.366517
818.30 2.366465
818.40 2.366412
818.50 2.36636
818.60 2.366308
818.70 2.366255
818.80 2.366203
818.90 2.366151
819.00 2.366098
819.10 2.366046
819.20 2.365993
819.30 2.365885
819.40 2.365741
819.50 2.365596
819.60 2.365452
819.70 2.365307
819.80 2.365162
819.90 2.365018
820.00 2.364873
820.10 2.365021
820.20 2.365132
820.30 2.364874
820.40 2.364727
820.50 2.364662
820.60 2.364596
820.70 2.36453
820.80 2.364465
820.90 2.364399
821.00 2.364333
821.10 2.364267
821.20 2.364201
821.30 2.364136
821.40 2.36407
821.50 2.364004
821.60 2.363938
821.70 2.363872
821.80 2.363806
821.90 2.363739
822.00 2.363673
822.10 2.363607
822.20 2.363541
822.30 2.363475
822.40 2.363408
822.50 2.363342
822.60 2.363276
822.70 2.363209
822.80 2.363143
822.90 2.363076
823.00 2.36301
823.10 2.362943
823.20 2.362877
823.30 2.36281
823.40 2.362743
823.50 2.362677
823.60 2.36261
823.70 2.362543
823.80 2.362476
823.90 2.362409
824.00 2.362342
824.10 2.362275
824.20 2.362208
824.30 2.362141
824.40 2.362074
824.50 2.362007
824.60 2.36194
824.70 2.361873
824.80 2.361806
824.90 2.361739
825.00 2.361671
825.10 2.361604
825.20 2.361537
825.30 2.361469
825.40 2.361402
825.50 2.361334
825.60 2.361267
825.70 2.361199
825.80 2.361132
825.90 2.361064
826.00 2.360997
826.10 2.360929
826.20 2.360861
826.30 2.360774
826.40 2.360674
826.50 2.360574
826.60 2.360474
826.70 2.360373
826.80 2.360273
826.90 2.360173
827.00 2.360073
827.10 2.359972
827.20 2.359872
827.30 2.359772
827.40 2.359672
827.50 2.359571
827.60 2.359471
827.70 2.35937
827.80 2.35927
827.90 2.35917
828.00 2.359069
828.10 2.358969
828.20 2.358868
828.30 2.358768
828.40 2.358667
828.50 2.358566
828.60 2.358471
828.70 2.35838
828.80 2.358289
828.90 2.358198
829.00 2.358107
829.10 2.358016
829.20 2.357925
829.30 2.357834
829.40 2.357743
829.50 2.357651
829.60 2.35756
829.70 2.357469
829.80 2.357378
829.90 2.357287
830.00 2.357195
830.10 2.357104
830.20 2.357013
830.30 2.356921
830.40 2.35683
830.50 2.356738
830.60 2.356647
830.70 2.356556
830.80 2.356464
830.90 2.356373
831.00 2.356281
831.10 2.356189
831.20 2.356098
831.30 2.356006
831.40 2.355915
831.50 2.355823
831.60 2.355731
831.70 2.35564
831.80 2.355548
831.90 2.355456
832.00 2.355364
832.10 2.355273
832.20 2.355181
832.30 2.355089
832.40 2.354997
832.50 2.354905
832.60 2.354813
832.70 2.354721
832.80 2.354629
832.90 2.354537
833.00 2.354445
833.10 2.354353
833.20 2.354261
833.30 2.354169
833.40 2.354077
833.50 2.353985
833.60 2.353893
833.70 2.3538
833.80 2.353708
833.90 2.353616
834.00 2.353524
834.10 2.353432
834.20 2.353339
834.30 2.353247
834.40 2.353155
834.50 2.353062
834.60 2.35297
834.70 2.352877
834.80 2.352785
834.90 2.352693
835.00 2.3526
835.10 2.352508
835.20 2.352415
835.30 2.352322
835.40 2.35223
835.50 2.352137
835.60 2.352045
835.70 2.351952
835.80 2.351859
835.90 2.351767
836.00 2.351674
836.10 2.351581
836.20 2.351488
836.30 2.351396
836.40 2.351303
836.50 2.35121
836.60 2.351117
836.70 2.351024
836.80 2.350931
836.90 2.350829
837.00 2.350723
837.10 2.350617
837.20 2.350511
837.30 2.350405
837.40 2.350299
837.50 2.350193
837.60 2.350087
837.70 2.349981
837.80 2.349875
837.90 2.349768
838.00 2.349662
838.10 2.349556
838.20 2.34945
838.30 2.349344
838.40 2.349237
838.50 2.349131
838.60 2.349025
838.70 2.348918
838.80 2.348812
838.90 2.348706
839.00 2.348599
839.10 2.348493
839.20 2.348387
839.30 2.34828
839.40 2.348174
839.50 2.348067
839.60 2.347961
839.70 2.347855
839.80 2.347748
839.90 2.347642
840.00 2.347535
840.10 2.347429
840.20 2.347322
840.30 2.347215
840.40 2.347109
840.50 2.347002
840.60 2.346896
840.70 2.346789
840.80 2.346682
840.90 2.346576
841.00 2.346469
841.10 2.346348
841.20 2.346225
841.30 2.346101
841.40 2.345978
841.50 2.345854
841.60 2.345731
841.70 2.345607
841.80 2.345483
841.90 2.34536
842.00 2.345236
842.10 2.345113
842.20 2.344989
842.30 2.344866
842.40 2.344742
842.50 2.344618
842.60 2.344495
842.70 2.344371
842.80 2.344247
842.90 2.344124
843.00 2.344
843.10 2.343877
843.20 2.343753
843.30 2.343629
843.40 2.343506
843.50 2.343382
843.60 2.343258
843.70 2.343135
843.80 2.343011
843.90 2.342887
844.00 2.342763
844.10 2.34264
844.20 2.342516
844.30 2.342392
844.40 2.342268
844.50 2.342145
844.60 2.342021
844.70 2.341897
844.80 2.341773
844.90 2.34165
845.00 2.341526
845.10 2.341402
845.20 2.341278
845.30 2.34115
845.40 2.341022
845.50 2.340894
845.60 2.340766
845.70 2.340638
845.80 2.34051
845.90 2.340382
846.00 2.340254
846.10 2.340126
846.20 2.339998
846.30 2.33987
846.40 2.339742
846.50 2.339614
846.60 2.339486
846.70 2.339358
846.80 2.33923
846.90 2.339102
847.00 2.338974
847.10 2.338846
847.20 2.338718
847.30 2.33859
847.40 2.338462
847.50 2.338334
847.60 2.338205
847.70 2.338077
847.80 2.337949
847.90 2.337821
848.00 2.337693
848.10 2.337565
848.20 2.337437
848.30 2.337309
848.40 2.337181
848.50 2.337052
848.60 2.336924
848.70 2.336796
848.80 2.336668
848.90 2.33654
849.00 2.336412
849.10 2.336284
849.20 2.336155
849.30 2.336027
849.40 2.335899
849.50 2.335771
849.60 2.335643
849.70 2.335515
849.80 2.335386
849.90 2.335258
850.00 2.33513
850.10 2.335002
850.20 2.334874
850.30 2.334745
850.40 2.334617
850.50 2.334489
850.60 2.334361
850.70 2.334232
850.80 2.334104
850.90 2.333976
851.00 2.333848
851.10 2.333719
851.20 2.333591
851.30 2.333463
851.40 2.333335
851.50 2.333206
851.60 2.333078
851.70 2.33295
851.80 2.332822
851.90 2.332693
852.00 2.332565
852.10 2.332437
852.20 2.332309
852.30 2.33218
852.40 2.332052
852.50 2.331924
852.60 2.331795
852.70 2.331667
852.80 2.331539
852.90 2.33141
853.00 2.331282
853.10 2.331154
853.20 2.331025
853.30 2.330897
853.40 2.330769
853.50 2.33064
853.60 2.330512
853.70 2.330382
853.80 2.330249
853.90 2.330117
854.00 2.329984
854.10 2.329852
854.20 2.329719
854.30 2.329587
854.40 2.329455
854.50 2.329322
854.60 2.32919
854.70 2.329057
854.80 2.328925
854.90 2.328792
855.00 2.32866
855.10 2.328527
855.20 2.328395
855.30 2.328262
855.40 2.32813
855.50 2.327997
855.60 2.327865
855.70 2.327732
855.80 2.3276
855.90 2.327467
856.00 2.327335
856.10 2.327202
856.20 2.32707
856.30 2.326937
856.40 2.326805
856.50 2.326672
856.60 2.32654
856.70 2.326407
856.80 2.326275
856.90 2.326142
857.00 2.32601
857.10 2.325877
857.20 2.325745
857.30 2.325612
857.40 2.32548
857.50 2.325347
857.60 2.325215
857.70 2.325082
857.80 2.32495
857.90 2.324817
858.00 2.324672
858.10 2.324524
858.20 2.324375
858.30 2.324227
858.40 2.324079
858.50 2.323931
858.60 2.323782
858.70 2.323634
858.80 2.323486
858.90 2.323338
859.00 2.323189
859.10 2.323041
859.20 2.322893
859.30 2.322745
859.40 2.322597
859.50 2.322448
859.60 2.3223
859.70 2.322152
859.80 2.322004
859.90 2.321856
860.00 2.321708
860.10 2.32156
860.20 2.321411
860.30 2.321263
860.40 2.321115
860.50 2.320967
860.60 2.320819
860.70 2.320671
860.80 2.320523
860.90 2.320375
861.00 2.320226
861.10 2.320078
861.20 2.31993
861.30 2.319782
861.40 2.319634
861.50 2.319486
861.60 2.319338
861.70 2.31919
861.80 2.319042
861.90 2.318894
862.00 2.318746
862.10 2.318598
862.20 2.318449
862.30 2.318298
862.40 2.318146
862.50 2.317994
862.60 2.317842
862.70 2.31769
862.80 2.317538
862.90 2.317386
863.00 2.317234
863.10 2.317083
863.20 2.316931
863.30 2.316779
863.40 2.316627
863.50 2.316475
863.60 2.316324
863.70 2.316172
863.80 2.31602
863.90 2.315868
864.00 2.315717
864.10 2.315565
864.20 2.315413
864.30 2.315261
864.40 2.31511
864.50 2.314958
864.60 2.314806
864.70 2.314654
864.80 2.314503
864.90 2.314351
865.00 2.314199
865.10 2.314048
865.20 2.313896
865.30 2.313744
865.40 2.313593
865.50 2.313441
865.60 2.31329
865.70 2.313138
865.80 2.312986
865.90 2.312835
866.00 2.312683
866.10 2.312532
866.20 2.31238
866.30 2.312228
866.40 2.312077
866.50 2.311925
866.60 2.311774
866.70 2.311622
866.80 2.311471
866.90 2.311319
867.00 2.311168
867.10 2.311016
867.20 2.310865
867.30 2.310713
867.40 2.310562
867.50 2.31041
867.60 2.310259
867.70 2.310107
867.80 2.309956
867.90 2.309804
868.00 2.309653
868.10 2.309502
868.20 2.30935
868.30 2.309199
868.40 2.309047
868.50 2.308896
868.60 2.308745
868.70 2.308593
868.80 2.308442
868.90 2.308291
869.00 2.308139
869.10 2.307988
869.20 2.307837
869.30 2.307685
869.40 2.307534
869.50 2.307383
869.60 2.307231
869.70 2.30708
869.80 2.306929
869.90 2.306778
870.00 2.306626
870.10 2.306475
870.20 2.306324
870.30 2.306173
870.40 2.306021
870.50 2.30587
870.60 2.305719
870.70 2.305568
870.80 2.305417
870.90 2.305262
871.00 2.305107
871.10 2.304952
871.20 2.304797
871.30 2.304643
871.40 2.304488
871.50 2.304333
871.60 2.304178
871.70 2.304023
871.80 2.303868
871.90 2.303714
872.00 2.303559
872.10 2.303404
872.20 2.303249
872.30 2.303094
872.40 2.30294
872.50 2.302785
872.60 2.30263
872.70 2.302475
872.80 2.302321
872.90 2.302166
873.00 2.302011
873.10 2.301857
873.20 2.301702
873.30 2.301547
873.40 2.301393
873.50 2.301238
873.60 2.301083
873.70 2.300929
873.80 2.300774
873.90 2.30062
874.00 2.300465
874.10 2.30031
874.20 2.300156
874.30 2.300001
874.40 2.299847
874.50 2.299692
874.60 2.299538
874.70 2.299383
874.80 2.299229
874.90 2.299074
875.00 2.29892
875.10 2.298765
875.20 2.2986
875.30 2.298416
875.40 2.298232
875.50 2.298048
875.60 2.297864
875.70 2.29768
875.80 2.297496
875.90 2.297312
876.00 2.297128
876.10 2.296944
876.20 2.29676
876.30 2.296576
876.40 2.296392
876.50 2.296209
876.60 2.296025
876.70 2.295841
876.80 2.295657
876.90 2.295474
877.00 2.29529
877.10 2.295106
877.20 2.294923
877.30 2.294739
877.40 2.294555
877.50 2.294372
877.60 2.294188
877.70 2.294005
877.80 2.293821
877.90 2.293638
878.00 2.293454
878.10 2.293271
878.20 2.293087
878.30 2.292904
878.40 2.292721
878.50 2.292537
878.60 2.292354
878.70 2.292171
878.80 2.291987
878.90 2.291804
879.00 2.291621
879.10 2.291438
879.20 2.291255
879.30 2.291071
879.40 2.290888
879.50 2.290705
879.60 2.290531
879.70 2.290359
879.80 2.290188
879.90 2.290016
880.00 2.289844
880.10 2.289672
880.20 2.2895
880.30 2.289328
880.40 2.289157
880.50 2.288985
880.60 2.288813
880.70 2.288642
880.80 2.28847
880.90 2.288298
881.00 2.288127
881.10 2.287955
881.20 2.287783
881.30 2.287612
881.40 2.28744
881.50 2.287269
881.60 2.287097
881.70 2.286926
881.80 2.286754
881.90 2.286583
882.00 2.286411
882.10 2.28624
882.20 2.286068
882.30 2.285897
882.40 2.285725
882.50 2.285554
882.60 2.285383
882.70 2.285211
882.80 2.28504
882.90 2.284869
883.00 2.284698
883.10 2.284526
883.20 2.284355
883.30 2.284184
883.40 2.284013
883.50 2.283842
883.60 2.28367
883.70 2.283499
883.80 2.283328
883.90 2.283157
884.00 2.282974
884.10 2.282789
884.20 2.282603
884.30 2.282418
884.40 2.282233
884.50 2.282047
884.60 2.281862
884.70 2.281677
884.80 2.281492
884.90 2.281306
885.00 2.281121
885.10 2.280936
885.20 2.280751
885.30 2.280566
885.40 2.280381
885.50 2.280196
885.60 2.280011
885.70 2.279826
885.80 2.279641
885.90 2.279456
886.00 2.279271
886.10 2.279086
886.20 2.278902
886.30 2.278717
886.40 2.278532
886.50 2.278347
886.60 2.278163
886.70 2.277978
886.80 2.277793
886.90 2.277608
887.00 2.277424
887.10 2.277239
887.20 2.277055
887.30 2.27687
887.40 2.276686
887.50 2.276501
887.60 2.276317
887.70 2.276132
887.80 2.275948
887.90 2.275763
888.00 2.275579
888.10 2.275395
888.20 2.27521
888.30 2.275026
888.40 2.274839
888.50 2.274651
888.60 2.274464
888.70 2.274276
888.80 2.274089
888.90 2.273901
889.00 2.273714
889.10 2.273527
889.20 2.273339
889.30 2.273152
889.40 2.272965
889.50 2.272777
889.60 2.27259
889.70 2.272403
889.80 2.272216
889.90 2.272029
890.00 2.271841
890.10 2.271654
890.20 2.271467
890.30 2.27128
890.40 2.271093
890.50 2.270906
890.60 2.270719
890.70 2.270532
890.80 2.270345
890.90 2.270158
891.00 2.269972
891.10 2.269785
891.20 2.269598
891.30 2.269411
891.40 2.269224
891.50 2.269038
891.60 2.268851
891.70 2.268664
891.80 2.268478
891.90 2.268291
892.00 2.268104
892.10 2.267918
892.20 2.267731
892.30 2.267545
892.40 2.267358
892.50 2.267172
892.60 2.266985
892.70 2.266799
892.80 2.266612
892.90 2.266426
893.00 2.26624
893.10 2.266053
893.20 2.265867
893.30 2.265681
893.40 2.265495
893.50 2.265308
893.60 2.265122
893.70 2.264936
893.80 2.26475
893.90 2.264564
894.00 2.264378
894.10 2.264192
894.20 2.264006
894.30 2.26382
894.40 2.263634
894.50 2.263448
894.60 2.263262
894.70 2.263076
894.80 2.26289
894.90 2.262704
895.00 2.262519
895.10 2.262333
895.20 2.262147
895.30 2.261961
895.40 2.261776
895.50 2.26159
895.60 2.261404
895.70 2.261219
895.80 2.261033
895.90 2.260848
896.00 2.260662
896.10 2.260477
896.20 2.260291
896.30 2.260106
896.40 2.25992
896.50 2.259735
896.60 2.259549
896.70 2.259364
896.80 2.259179
896.90 2.258993
897.00 2.258808
897.10 2.258623
897.20 2.258437
897.30 2.258235
897.40 2.258033
897.50 2.257831
897.60 2.257629
897.70 2.257427
897.80 2.257225
897.90 2.257023
898.00 2.256822
898.10 2.25662
898.20 2.256418
898.30 2.256216
898.40 2.256015
898.50 2.255813
898.60 2.255611
898.70 2.25541
898.80 2.255208
898.90 2.255007
899.00 2.254805
899.10 2.254604
899.20 2.254402
899.30 2.254201
899.40 2.254
899.50 2.253798
899.60 2.253597
899.70 2.253396
899.80 2.253195
899.90 2.252994
900.00 2.252792
900.10 2.252591
900.20 2.25239
900.30 2.252189
900.40 2.251988
900.50 2.251787
900.60 2.251586
900.70 2.251386
900.80 2.251185
900.90 2.250984
901.00 2.250783
901.10 2.250582
901.20 2.250382
901.30 2.250181
901.40 2.24998
901.50 2.24978
901.60 2.249579
901.70 2.249378
901.80 2.249178
901.90 2.248977
902.00 2.248777
902.10 2.248577
902.20 2.248376
902.30 2.248176
902.40 2.247975
902.50 2.247775
902.60 2.247575
902.70 2.247375
902.80 2.247174
902.90 2.246974
903.00 2.246774
903.10 2.246574
903.20 2.246374
903.30 2.246174
903.40 2.245974
903.50 2.245774
903.60 2.245574
903.70 2.245374
903.80 2.245174
903.90 2.244975
904.00 2.244775
904.10 2.244575
904.20 2.244375
904.30 2.244176
904.40 2.243976
904.50 2.243776
904.60 2.243577
904.70 2.243377
904.80 2.243178
904.90 2.242978
905.00 2.242779
905.10 2.242579
905.20 2.24238
905.30 2.242181
905.40 2.241981
905.50 2.241782
905.60 2.241583
905.70 2.241384
905.80 2.241184
905.90 2.240985
906.00 2.240786
906.10 2.240587
906.20 2.240383
906.30 2.240168
906.40 2.239952
906.50 2.239737
906.60 2.239522
906.70 2.239307
906.80 2.239092
906.90 2.238877
907.00 2.238662
907.10 2.238447
907.20 2.238232
907.30 2.238017
907.40 2.237803
907.50 2.237588
907.60 2.237373
907.70 2.237158
907.80 2.236944
907.90 2.236729
908.00 2.236515
908.10 2.2363
908.20 2.236086
908.30 2.235871
908.40 2.235657
908.50 2.235442
908.60 2.235228
908.70 2.235014
908.80 2.2348
908.90 2.234585
909.00 2.234371
909.10 2.234157
909.20 2.233943
909.30 2.233729
909.40 2.233515
909.50 2.233301
909.60 2.233087
909.70 2.232873
909.80 2.232659
909.90 2.232446
910.00 2.232232
910.10 2.232018
910.20 2.231804
910.30 2.231591
910.40 2.231377
910.50 2.231164
910.60 2.23095
910.70 2.230737
910.80 2.230523
910.90 2.23031
911.00 2.230097
911.10 2.229883
911.20 2.22967
911.30 2.229457
911.40 2.229243
911.50 2.22903
911.60 2.228817
911.70 2.228604
911.80 2.228391
911.90 2.228178
912.00 2.227965
912.10 2.227752
912.20 2.227539
912.30 2.227327
912.40 2.227114
912.50 2.226901
912.60 2.226688
912.70 2.226476
912.80 2.226263
912.90 2.22605
913.00 2.225838
913.10 2.225625
913.20 2.225413
913.30 2.2252
913.40 2.224988
913.50 2.224776
913.60 2.224563
913.70 2.224351
913.80 2.224139
913.90 2.223927
914.00 2.223714
914.10 2.223502
914.20 2.22329
914.30 2.223078
914.40 2.222866
914.50 2.222654
914.60 2.222442
914.70 2.22223
914.80 2.222019
914.90 2.221807
915.00 2.221595
915.10 2.221383
915.20 2.221172
915.30 2.220958
915.40 2.220744
915.50 2.220529
915.60 2.220315
915.70 2.220101
915.80 2.219887
915.90 2.219673
916.00 2.219459
916.10 2.219245
916.20 2.219031
916.30 2.218817
916.40 2.218603
916.50 2.218389
916.60 2.218175
916.70 2.217962
916.80 2.217748
916.90 2.217534
917.00 2.21732
917.10 2.217107
917.20 2.216893
917.30 2.21668
917.40 2.216466
917.50 2.216253
917.60 2.216039
917.70 2.215826
917.80 2.215613
917.90 2.215399
918.00 2.215186
918.10 2.214973
918.20 2.21476
918.30 2.214547
918.40 2.214334
918.50 2.214121
918.60 2.213908
918.70 2.213695
918.80 2.213482
918.90 2.213269
919.00 2.213056
919.10 2.212843
919.20 2.21263
919.30 2.212418
919.40 2.212205
919.50 2.211992
919.60 2.21178
919.70 2.211567
919.80 2.211355
919.90 2.21113
920.00 2.210905
920.10 2.21068
920.20 2.210455
920.30 2.21023
920.40 2.210005
920.50 2.20978
920.60 2.209555
920.70 2.20933
920.80 2.209105
920.90 2.20888
921.00 2.208655
921.10 2.208431
921.20 2.208206
921.30 2.207981
921.40 2.207757
921.50 2.207532
921.60 2.207308
921.70 2.207083
921.80 2.206859
921.90 2.206635
922.00 2.20641
922.10 2.206186
922.20 2.205962
922.30 2.205738
922.40 2.205514
922.50 2.205289
922.60 2.205065
922.70 2.204841
922.80 2.204618
922.90 2.204394
923.00 2.20417
923.10 2.203946
923.20 2.203722
923.30 2.203499
923.40 2.203275
923.50 2.203051
923.60 2.202828
923.70 2.202604
923.80 2.202381
923.90 2.202157
924.00 2.201934
924.10 2.20171
924.20 2.201487
924.30 2.201264
924.40 2.20104
924.50 2.200815
924.60 2.200589
924.70 2.200363
924.80 2.200138
924.90 2.199912
925.00 2.199687
925.10 2.199461
925.20 2.199236
925.30 2.199011
925.40 2.198785
925.50 2.19856
925.60 2.198335
925.70 2.19811
925.80 2.197885
925.90 2.19766
926.00 2.197435
926.10 2.19721
926.20 2.196985
926.30 2.19676
926.40 2.196535
926.50 2.19631
926.60 2.196086
926.70 2.195861
926.80 2.195636
926.90 2.195412
927.00 2.195187
927.10 2.194963
927.20 2.194738
927.30 2.194514
927.40 2.19429
927.50 2.194065
927.60 2.193841
927.70 2.193617
927.80 2.193393
927.90 2.193169
928.00 2.192944
928.10 2.19272
928.20 2.192496
928.30 2.192272
928.40 2.192049
928.50 2.191825
928.60 2.191601
928.70 2.191377
928.80 2.191153
928.90 2.19093
929.00 2.190706
929.10 2.190483
929.20 2.190259
929.30 2.190036
929.40 2.189812
929.50 2.189589
929.60 2.189365
929.70 2.189142
929.80 2.188919
929.90 2.188696
930.00 2.188472
930.10 2.188249
930.20 2.188026
930.30 2.187803
930.40 2.18758
930.50 2.187357
930.60 2.187134
930.70 2.186911
930.80 2.186689
930.90 2.186466
931.00 2.186243
931.10 2.186021
931.20 2.185798
931.30 2.185575
931.40 2.185353
931.50 2.18513
931.60 2.184908
931.70 2.184685
931.80 2.184463
931.90 2.184241
932.00 2.184019
932.10 2.183796
932.20 2.183574
932.30 2.183352
932.40 2.18313
932.50 2.182908
932.60 2.182686
932.70 2.182464
932.80 2.182242
932.90 2.18202
933.00 2.181798
933.10 2.181577
933.20 2.181355
933.30 2.181133
933.40 2.180912
933.50 2.18069
933.60 2.180468
933.70 2.180236
933.80 2.18
933.90 2.179764
934.00 2.179528
934.10 2.179292
934.20 2.179057
934.30 2.178821
934.40 2.178585
934.50 2.178349
934.60 2.178114
934.70 2.177878
934.80 2.177643
934.90 2.177407
935.00 2.177172
935.10 2.176936
935.20 2.176701
935.30 2.176466
935.40 2.176231
935.50 2.175995
935.60 2.17576
935.70 2.175525
935.80 2.17529
935.90 2.175055
936.00 2.17482
936.10 2.174586
936.20 2.174351
936.30 2.174116
936.40 2.173881
936.50 2.173647
936.60 2.173412
936.70 2.173178
936.80 2.172943
936.90 2.172709
937.00 2.172474
937.10 2.17224
937.20 2.172006
937.30 2.171771
937.40 2.171537
937.50 2.171303
937.60 2.171069
937.70 2.170835
937.80 2.170601
937.90 2.170367
938.00 2.170133
938.10 2.169899
938.20 2.169665
938.30 2.169432
938.40 2.169198
938.50 2.168964
938.60 2.168731
938.70 2.168497
938.80 2.168264
938.90 2.16803
939.00 2.167797
939.10 2.167563
939.20 2.16733
939.30 2.167097
939.40 2.166864
939.50 2.166631
939.60 2.166398
939.70 2.166164
939.80 2.165931
939.90 2.165699
940.00 2.165466
940.10 2.165233
940.20 2.165
940.30 2.164767
940.40 2.164535
940.50 2.164302
940.60 2.164069
940.70 2.163837
940.80 2.163604
940.90 2.163372
941.00 2.16314
941.10 2.162907
941.20 2.162675
941.30 2.162443
941.40 2.16221
941.50 2.161978
941.60 2.161746
941.70 2.161514
941.80 2.161282
941.90 2.16105
942.00 2.160818
942.10 2.160587
942.20 2.160355
942.30 2.160123
942.40 2.159891
942.50 2.15966
942.60 2.159428
942.70 2.159197
942.80 2.158965
942.90 2.158734
943.00 2.158497
943.10 2.158251
943.20 2.158006
943.30 2.157761
943.40 2.157516
943.50 2.15727
943.60 2.157025
943.70 2.15678
943.80 2.156535
943.90 2.15629
944.00 2.156045
944.10 2.155801
944.20 2.155556
944.30 2.155311
944.40 2.155066
944.50 2.154822
944.60 2.154577
944.70 2.154333
944.80 2.154088
944.90 2.153844
945.00 2.153599
945.10 2.153355
945.20 2.153111
945.30 2.152867
945.40 2.152623
945.50 2.152379
945.60 2.152135
945.70 2.151891
945.80 2.151647
945.90 2.151403
946.00 2.151159
946.10 2.150915
946.20 2.150672
946.30 2.150428
946.40 2.150184
946.50 2.149941
946.60 2.149697
946.70 2.149454
946.80 2.149211
946.90 2.148967
947.00 2.148724
947.10 2.148481
947.20 2.148238
947.30 2.147995
947.40 2.147752
947.50 2.147509
947.60 2.147266
947.70 2.147023
947.80 2.14678
947.90 2.146537
948.00 2.146295
948.10 2.146052
948.20 2.14581
948.30 2.145567
948.40 2.145325
948.50 2.145082
948.60 2.14484
948.70 2.144597
948.80 2.144355
948.90 2.144113
949.00 2.143871
949.10 2.143629
949.20 2.143387
949.30 2.143145
949.40 2.142903
949.50 2.142661
949.60 2.142419
949.70 2.142177
949.80 2.141936
949.90 2.141694
950.00 2.141452
950.10 2.141211
950.20 2.140969
950.30 2.140728
950.40 2.140486
950.50 2.140245
950.60 2.140004
950.70 2.139763
950.80 2.139521
950.90 2.13928
951.00 2.139039
951.10 2.138798
951.20 2.138557
951.30 2.138316
951.40 2.138075
951.50 2.137835
951.60 2.137594
951.70 2.137353
951.80 2.137113
951.90 2.136872
952.00 2.136632
952.10 2.136391
952.20 2.136151
952.30 2.13591
952.40 2.13567
952.50 2.135427
952.60 2.135185
952.70 2.134943
952.80 2.134701
952.90 2.134459
953.00 2.134217
953.10 2.133975
953.20 2.133733
953.30 2.133491
953.40 2.133249
953.50 2.133007
953.60 2.132766
953.70 2.132524
953.80 2.132282
953.90 2.132041
954.00 2.131799
954.10 2.131558
954.20 2.131317
954.30 2.131075
954.40 2.130834
954.50 2.130593
954.60 2.130352
954.70 2.13011
954.80 2.129869
954.90 2.129628
955.00 2.129387
955.10 2.129147
955.20 2.128906
955.30 2.128665
955.40 2.128424
955.50 2.128184
955.60 2.127943
955.70 2.127702
955.80 2.127462
955.90 2.127221
956.00 2.126981
956.10 2.126741
956.20 2.1265
956.30 2.12626
956.40 2.12602
956.50 2.12578
956.60 2.12554
956.70 2.1253
956.80 2.12506
956.90 2.12482
957.00 2.12458
957.10 2.12434
957.20 2.124095
957.30 2.123844
957.40 2.123593
957.50 2.123342
957.60 2.123091
957.70 2.12284
957.80 2.12259
957.90 2.122339
958.00 2.122088
958.10 2.121838
958.20 2.121587
958.30 2.121337
958.40 2.121086
958.50 2.120836
958.60 2.120586
958.70 2.120336
958.80 2.120085
958.90 2.119835
959.00 2.119585
959.10 2.119335
959.20 2.119085
959.30 2.118835
959.40 2.118586
959.50 2.118336
959.60 2.118086
959.70 2.117837
959.80 2.117587
959.90 2.117337
960.00 2.117088
960.10 2.116839
960.20 2.116589
960.30 2.11634
960.40 2.116091
960.50 2.115841
960.60 2.115592
960.70 2.115343
960.80 2.115094
960.90 2.114845
961.00 2.114596
961.10 2.114348
961.20 2.114099
961.30 2.11385
961.40 2.113601
961.50 2.113353
961.60 2.113104
961.70 2.112856
961.80 2.112607
961.90 2.112359
962.00 2.112105
962.10 2.111849
962.20 2.111593
962.30 2.111338
962.40 2.111082
962.50 2.110827
962.60 2.110571
962.70 2.110316
962.80 2.110061
962.90 2.109805
963.00 2.10955
963.10 2.109295
963.20 2.10904
963.30 2.108785
963.40 2.10853
963.50 2.108275
963.60 2.108021
963.70 2.107766
963.80 2.107511
963.90 2.107257
964.00 2.107002
964.10 2.106748
964.20 2.106493
964.30 2.106239
964.40 2.105985
964.50 2.10573
964.60 2.105476
964.70 2.105222
964.80 2.104968
964.90 2.104714
965.00 2.10446
965.10 2.104206
965.20 2.103952
965.30 2.103699
965.40 2.103445
965.50 2.103191
965.60 2.102938
965.70 2.102684
965.80 2.102431
965.90 2.102177
966.00 2.101924
966.10 2.101671
966.20 2.101417
966.30 2.101164
966.40 2.100911
966.50 2.100658
966.60 2.100405
966.70 2.100152
966.80 2.099899
966.90 2.099647
967.00 2.099394
967.10 2.099141
967.20 2.098888
967.30 2.098636
967.40 2.098383
967.50 2.098131
967.60 2.097879
967.70 2.097626
967.80 2.097374
967.90 2.097122
968.00 2.09687
968.10 2.096617
968.20 2.096365
968.30 2.096113
968.40 2.095862
968.50 2.09561
968.60 2.095358
968.70 2.095106
968.80 2.094855
968.90 2.094603
969.00 2.094351
969.10 2.0941
969.20 2.093848
969.30 2.093597
969.40 2.093346
969.50 2.093094
969.60 2.092843
969.70 2.092592
969.80 2.092341
969.90 2.09209
970.00 2.091839
970.10 2.091588
970.20 2.091337
970.30 2.091086
970.40 2.090836
970.50 2.090585
970.60 2.090334
970.70 2.090084
970.80 2.089833
970.90 2.089583
971.00 2.089333
971.10 2.089082
971.20 2.088832
971.30 2.088582
971.40 2.088332
971.50 2.088082
971.60 2.087827
971.70 2.08757
971.80 2.087313
971.90 2.087056
972.00 2.086799
972.10 2.086542
972.20 2.086285
972.30 2.086028
972.40 2.085772
972.50 2.085515
972.60 2.085258
972.70 2.085002
972.80 2.084745
972.90 2.084489
973.00 2.084233
973.10 2.083976
973.20 2.08372
973.30 2.083464
973.40 2.083208
973.50 2.082952
973.60 2.082696
973.70 2.08244
973.80 2.082184
973.90 2.081928
974.00 2.081673
974.10 2.081417
974.20 2.081161
974.30 2.080906
974.40 2.08065
974.50 2.080395
974.60 2.08014
974.70 2.079884
974.80 2.079629
974.90 2.079374
975.00 2.079119
975.10 2.078864
975.20 2.078609
975.30 2.078354
975.40 2.078099
975.50 2.077844
975.60 2.077589
975.70 2.077335
975.80 2.07708
975.90 2.076826
976.00 2.076571
976.10 2.076317
976.20 2.076062
976.30 2.075808
976.40 2.075554
976.50 2.0753
976.60 2.075045
976.70 2.074791
976.80 2.074537
976.90 2.074283
977.00 2.074029
977.10 2.073776
977.20 2.073522
977.30 2.073268
977.40 2.073014
977.50 2.072761
977.60 2.072507
977.70 2.072254
977.80 2.072
977.90 2.071747
978.00 2.071494
978.10 2.071241
978.20 2.070987
978.30 2.070734
978.40 2.070481
978.50 2.070228
978.60 2.069975
978.70 2.069722
978.80 2.06947
978.90 2.069217
979.00 2.068964
979.10 2.068712
979.20 2.068459
979.30 2.068206
979.40 2.067954
979.50 2.067702
979.60 2.067449
979.70 2.067197
979.80 2.066945
979.90 2.066693
980.00 2.066441
980.10 2.066189
980.20 2.065937
980.30 2.065685
980.40 2.065433
980.50 2.065181
980.60 2.064929
980.70 2.064678
980.80 2.064426
980.90 2.064174
981.00 2.063923
981.10 2.063671
981.20 2.06342
981.30 2.06316
981.40 2.062891
981.50 2.062623
981.60 2.062354
981.70 2.062086
981.80 2.061818
981.90 2.061549
982.00 2.061281
982.10 2.061013
982.20 2.060745
982.30 2.060477
982.40 2.060209
982.50 2.059941
982.60 2.059673
982.70 2.059405
982.80 2.059137
982.90 2.05887
983.00 2.058602
983.10 2.058335
983.20 2.058067
983.30 2.0578
983.40 2.057533
983.50 2.057265
983.60 2.056998
983.70 2.056731
983.80 2.056464
983.90 2.056197
984.00 2.05593
984.10 2.055663
984.20 2.055396
984.30 2.05513
984.40 2.054863
984.50 2.054596
984.60 2.05433
984.70 2.054063
984.80 2.053797
984.90 2.053531
985.00 2.053264
985.10 2.052998
985.20 2.052732
985.30 2.052466
985.40 2.0522
985.50 2.051934
985.60 2.051668
985.70 2.051402
985.80 2.051137
985.90 2.050871
986.00 2.050605
986.10 2.05034
986.20 2.050074
986.30 2.049809
986.40 2.049544
986.50 2.049278
986.60 2.049013
986.70 2.048748
986.80 2.048483
986.90 2.048218
987.00 2.047953
987.10 2.047688
987.20 2.047423
987.30 2.047159
987.40 2.046894
987.50 2.046629
987.60 2.046365
987.70 2.0461
987.80 2.045836
987.90 2.045571
988.00 2.045307
988.10 2.045043
988.20 2.044779
988.30 2.044515
988.40 2.044251
988.50 2.043987
988.60 2.043723
988.70 2.043459
988.80 2.043195
988.90 2.042931
989.00 2.042668
989.10 2.042404
989.20 2.042141
989.30 2.041877
989.40 2.041614
989.50 2.04135
989.60 2.041087
989.70 2.040824
989.80 2.040561
989.90 2.040298
990.00 2.040035
990.10 2.039772
990.20 2.039509
990.30 2.039246
990.40 2.038983
990.50 2.038721
990.60 2.038458
990.70 2.038196
990.80 2.037933
990.90 2.037671
991.00 2.037408
991.10 2.037147
991.20 2.036889
991.30 2.03663
991.40 2.036372
991.50 2.036113
991.60 2.035855
991.70 2.035597
991.80 2.035338
991.90 2.03508
992.00 2.034822
992.10 2.034564
992.20 2.034306
992.30 2.034048
992.40 2.03379
992.50 2.033533
992.60 2.033275
992.70 2.033017
992.80 2.03276
992.90 2.032502
993.00 2.032245
993.10 2.031987
993.20 2.03173
993.30 2.031473
993.40 2.031215
993.50 2.030958
993.60 2.030701
993.70 2.030444
993.80 2.030187
993.90 2.02993
994.00 2.029673
994.10 2.029417
994.20 2.02916
994.30 2.028903
994.40 2.028647
994.50 2.02839
994.60 2.028134
994.70 2.027877
994.80 2.027621
994.90 2.027364
995.00 2.027108
995.10 2.026852
995.20 2.026596
995.30 2.02634
995.40 2.026084
995.50 2.025828
995.60 2.025572
995.70 2.025316
995.80 2.025061
995.90 2.024805
996.00 2.024549
996.10 2.024286
996.20 2.02402
996.30 2.023754
996.40 2.023489
996.50 2.023224
996.60 2.022958
996.70 2.022693
996.80 2.022428
996.90 2.022163
997.00 2.021898
997.10 2.021633
997.20 2.021368
997.30 2.021103
997.40 2.020838
997.50 2.020574
997.60 2.020309
997.70 2.020044
997.80 2.01978
997.90 2.019515
998.00 2.019251
998.10 2.018987
998.20 2.018722
998.30 2.018458
998.40 2.018194
998.50 2.01793
998.60 2.017666
998.70 2.017402
998.80 2.017138
998.90 2.016874
999.00 2.016611
999.10 2.016347
999.20 2.016083
999.30 2.01582
999.40 2.015556
999.50 2.015293
999.60 2.01503
999.70 2.014766
999.80 2.014503
999.90 2.01424
1000.00 2.013977
1000.10 2.013714
1000.20 2.013451
1000.30 2.013188
1000.40 2.012925
1000.50 2.012662
1000.60 2.0124
1000.70 2.012137
1000.80 2.011874
1000.90 2.011612
1001.00 2.011347
1001.10 2.011073
1001.20 2.010799
1001.30 2.010526
1001.40 2.010253
1001.50 2.009979
1001.60 2.009706
1001.70 2.009433
1001.80 2.00916
1001.90 2.008887
1002.00 2.008614
1002.10 2.008341
1002.20 2.008068
1002.30 2.007795
1002.40 2.007522
1002.50 2.00725
1002.60 2.006977
1002.70 2.006705
1002.80 2.006432
1002.90 2.00616
1003.00 2.005888
1003.10 2.005615
1003.20 2.005343
1003.30 2.005071
1003.40 2.004799
1003.50 2.004527
1003.60 2.004255
1003.70 2.003984
1003.80 2.003712
1003.90 2.00344
1004.00 2.003169
1004.10 2.002897
1004.20 2.002626
1004.30 2.002354
1004.40 2.002083
1004.50 2.001812
1004.60 2.00154
1004.70 2.001269
1004.80 2.000998
1004.90 2.000727
1005.00 2.000456
1005.10 2.000185
1005.20 1.999915
1005.30 1.999644
1005.40 1.999373
1005.50 1.999103
1005.60 1.998832
1005.70 1.998562
1005.80 1.998291
1005.90 1.998021
1006.00 1.997751
1006.10 1.997481
1006.20 1.997211
1006.30 1.996941
1006.40 1.996671
1006.50 1.996401
1006.60 1.996131
1006.70 1.995861
1006.80 1.995592
1006.90 1.995322
1007.00 1.995052
1007.10 1.994783
1007.20 1.994514
1007.30 1.994244
1007.40 1.993975
1007.50 1.993706
1007.60 1.993437
1007.70 1.993168
1007.80 1.992899
1007.90 1.99263
1008.00 1.992361
1008.10 1.992092
1008.20 1.991823
1008.30 1.991555
1008.40 1.991286
1008.50 1.991017
1008.60 1.990749
1008.70 1.990481
1008.80 1.990212
1008.90 1.989944
1009.00 1.989676
1009.10 1.989408
1009.20 1.98914
1009.30 1.988872
1009.40 1.988604
1009.50 1.988336
1009.60 1.988068
1009.70 1.9878
1009.80 1.987533
1009.90 1.987265
1010.00 1.986998
1010.10 1.98673
1010.20 1.986463
1010.30 1.986196
1010.40 1.985928
1010.50 1.985661
1010.60 1.985394
1010.70 1.985127
1010.80 1.98486
1010.90 1.984593
1011.00 1.984326
1011.10 1.984058
1011.20 1.98379
1011.30 1.983522
1011.40 1.983254
1011.50 1.982986
1011.60 1.982719
1011.70 1.982451
1011.80 1.982183
1011.90 1.981916
1012.00 1.981649
1012.10 1.981381
1012.20 1.981114
1012.30 1.980847
1012.40 1.980579
1012.50 1.980312
1012.60 1.980045
1012.70 1.979778
1012.80 1.979511
1012.90 1.979245
1013.00 1.978978
1013.10 1.978711
1013.20 1.978444
1013.30 1.978178
1013.40 1.977911
1013.50 1.977645
1013.60 1.977378
1013.70 1.977112
1013.80 1.976846
1013.90 1.97658
1014.00 1.976314
1014.10 1.976048
1014.20 1.975782
1014.30 1.975516
1014.40 1.97525
1014.50 1.974984
1014.60 1.974718
1014.70 1.974453
1014.80 1.974187
1014.90 1.973922
1015.00 1.973656
1015.10 1.973391
1015.20 1.973126
1015.30 1.97286
1015.40 1.972595
1015.50 1.97233
1015.60 1.972065
1015.70 1.9718
1015.80 1.971535
1015.90 1.97127
1016.00 1.971005
1016.10 1.970735
1016.20 1.970461
1016.30 1.970187
1016.40 1.969913
1016.50 1.969639
1016.60 1.969365
1016.70 1.969091
1016.80 1.968817
1016.90 1.968544
1017.00 1.96827
1017.10 1.967997
1017.20 1.967723
1017.30 1.96745
1017.40 1.967177
1017.50 1.966903
1017.60 1.96663
1017.70 1.966357
1017.80 1.966084
1017.90 1.965811
1018.00 1.965538
1018.10 1.965266
1018.20 1.964993
1018.30 1.96472
1018.40 1.964448
1018.50 1.964175
1018.60 1.963903
1018.70 1.96363
1018.80 1.963358
1018.90 1.963086
1019.00 1.962813
1019.10 1.962541
1019.20 1.962269
1019.30 1.961997
1019.40 1.961725
1019.50 1.961453
1019.60 1.961182
1019.70 1.96091
1019.80 1.960638
1019.90 1.960367
1020.00 1.960095
1020.10 1.959824
1020.20 1.959553
1020.30 1.959281
1020.40 1.95901
1020.50 1.958739
1020.60 1.958468
1020.70 1.958197
1020.80 1.957926
1020.90 1.957655
1021.00 1.957384
1021.10 1.957113
1021.20 1.956842
1021.30 1.95657
1021.40 1.956298
1021.50 1.956027
1021.60 1.955755
1021.70 1.955484
1021.80 1.955212
1021.90 1.954941
1022.00 1.95467
1022.10 1.954398
1022.20 1.954127
1022.30 1.953856
1022.40 1.953585
1022.50 1.953314
1022.60 1.953044
1022.70 1.952773
1022.80 1.952502
1022.90 1.952232
1023.00 1.951961
1023.10 1.95169
1023.20 1.95142
1023.30 1.95115
1023.40 1.950879
1023.50 1.950609
1023.60 1.950339
1023.70 1.950069
1023.80 1.949799
1023.90 1.949529
1024.00 1.949259
1024.10 1.948989
1024.20 1.94872
1024.30 1.94845
1024.40 1.94818
1024.50 1.947911
1024.60 1.947641
1024.70 1.947372
1024.80 1.947103
1024.90 1.946833
1025.00 1.946564
1025.10 1.946295
1025.20 1.946026
1025.30 1.945757
1025.40 1.945488
1025.50 1.945219
1025.60 1.94495
1025.70 1.944682
1025.80 1.944413
1025.90 1.944144
1026.00 1.943876
1026.10 1.943607
1026.20 1.943339
1026.30 1.943071
1026.40 1.942803
1026.50 1.942534
1026.60 1.942266
1026.70 1.941998
1026.80 1.94173
1026.90 1.941462
1027.00 1.941195
1027.10 1.940927
1027.20 1.940659
1027.30 1.940392
1027.40 1.940124
1027.50 1.939857
1027.60 1.939589
1027.70 1.939322
1027.80 1.939055
1027.90 1.938787
1028.00 1.93852
1028.10 1.938253
1028.20 1.937986
1028.30 1.937719
1028.40 1.937452
1028.50 1.937185
1028.60 1.936919
1028.70 1.936652
1028.80 1.936385
1028.90 1.936119
1029.00 1.935852
1029.10 1.935586
1029.20 1.93532
1029.30 1.935053
1029.40 1.934787
1029.50 1.934521
1029.60 1.934255
1029.70 1.933989
1029.80 1.933723
1029.90 1.933457
1030.00 1.933191
1030.10 1.932926
1030.20 1.93266
1030.30 1.932394
1030.40 1.932129
1030.50 1.931863
1030.60 1.931598
1030.70 1.931333
1030.80 1.931067
1030.90 1.930802
1031.00 1.930537
1031.10 1.930272
1031.20 1.930007
1031.30 1.929742
1031.40 1.929467
1031.50 1.929193
1031.60 1.928918
1031.70 1.928643
1031.80 1.928368
1031.90 1.928094
1032.00 1.927819
1032.10 1.927544
1032.20 1.92727
1032.30 1.926996
1032.40 1.926721
1032.50 1.926447
1032.60 1.926173
1032.70 1.925899
1032.80 1.925625
1032.90 1.925351
1033.00 1.925077
1033.10 1.924803
1033.20 1.92453
1033.30 1.924256
1033.40 1.923982
1033.50 1.923709
1033.60 1.923435
1033.70 1.923162
1033.80 1.922889
1033.90 1.922615
1034.00 1.922342
1034.10 1.922069
1034.20 1.921796
1034.30 1.921523
1034.40 1.92125
1034.50 1.920978
1034.60 1.920705
1034.70 1.920432
1034.80 1.920159
1034.90 1.919887
1035.00 1.919614
1035.10 1.919342
1035.20 1.91907
1035.30 1.918797
1035.40 1.918525
1035.50 1.918253
1035.60 1.917981
1035.70 1.917709
1035.80 1.917437
1035.90 1.917165
1036.00 1.916894
1036.10 1.916622
1036.20 1.91635
1036.30 1.916079
1036.40 1.915807
1036.50 1.915536
1036.60 1.915264
1036.70 1.914993
1036.80 1.914722
1036.90 1.914451
1037.00 1.91418
1037.10 1.913909
1037.20 1.913638
1037.30 1.913367
1037.40 1.913096
1037.50 1.912825
1037.60 1.912555
1037.70 1.912284
1037.80 1.912014
1037.90 1.911743
1038.00 1.911473
1038.10 1.911202
1038.20 1.910932
1038.30 1.910662
1038.40 1.910392
1038.50 1.910122
1038.60 1.909852
1038.70 1.909582
1038.80 1.909312
1038.90 1.909042
1039.00 1.908773
1039.10 1.908503
1039.20 1.908233
1039.30 1.907964
1039.40 1.907695
1039.50 1.907425
1039.60 1.907156
1039.70 1.906887
1039.80 1.906618
1039.90 1.906348
1040.00 1.906079
1040.10 1.905811
1040.20 1.905542
1040.30 1.905273
1040.40 1.905004
1040.50 1.904735
1040.60 1.904467
1040.70 1.904198
1040.80 1.90393
1040.90 1.903661
1041.00 1.903393
1041.10 1.903125
1041.20 1.902857
1041.30 1.902589
1041.40 1.90232
1041.50 1.902052
1041.60 1.901785
1041.70 1.901509
1041.80 1.901231
1041.90 1.900954
1042.00 1.900676
1042.10 1.900399
1042.20 1.900122
1042.30 1.899845
1042.40 1.899568
1042.50 1.899291
1042.60 1.899014
1042.70 1.898737
1042.80 1.89846
1042.90 1.898183
1043.00 1.897907
1043.10 1.89763
1043.20 1.897353
1043.30 1.897077
1043.40 1.896801
1043.50 1.896524
1043.60 1.896248
1043.70 1.895972
1043.80 1.895696
1043.90 1.89542
1044.00 1.895144
1044.10 1.894868
1044.20 1.894592
1044.30 1.894317
1044.40 1.894041
1044.50 1.893765
1044.60 1.89349
1044.70 1.893214
1044.80 1.892939
1044.90 1.892664
1045.00 1.892388
1045.10 1.892113
1045.20 1.891838
1045.30 1.891563
1045.40 1.891288
1045.50 1.891013
1045.60 1.890738
1045.70 1.890464
1045.80 1.890189
1045.90 1.889914
1046.00 1.88964
1046.10 1.889365
1046.20 1.889091
1046.30 1.888817
1046.40 1.888543
1046.50 1.888268
1046.60 1.887994
1046.70 1.88772
1046.80 1.887446
1046.90 1.887172
1047.00 1.886899
1047.10 1.886625
1047.20 1.886351
1047.30 1.886077
1047.40 1.885804
1047.50 1.88553
1047.60 1.885257
1047.70 1.884984
1047.80 1.88471
1047.90 1.884437
1048.00 1.884164
1048.10 1.883891
1048.20 1.883618
1048.30 1.883345
1048.40 1.883072
1048.50 1.8828
1048.60 1.882527
1048.70 1.882254
1048.80 1.881982
1048.90 1.881709
1049.00 1.881437
1049.10 1.881164
1049.20 1.880892
1049.30 1.88062
1049.40 1.880348
1049.50 1.880076
1049.60 1.879804
1049.70 1.879532
1049.80 1.87926
1049.90 1.878988
1050.00 1.878716
1050.10 1.878445
1050.20 1.878173
1050.30 1.877902
1050.40 1.87763
1050.50 1.877359
1050.60 1.877087
1050.70 1.876816
1050.80 1.876545
1050.90 1.876274
1051.00 1.876003
1051.10 1.875732
1051.20 1.875461
1051.30 1.87519
1051.40 1.874919
1051.50 1.874649
1051.60 1.874378
1051.70 1.874107
1051.80 1.873837
1051.90 1.873567
1052.00 1.873296
1052.10 1.87302
1052.20 1.87274
1052.30 1.872461
1052.40 1.872181
1052.50 1.871902
1052.60 1.871623
1052.70 1.871343
1052.80 1.871064
1052.90 1.870785
1053.00 1.870506
1053.10 1.870227
1053.20 1.869949
1053.30 1.86967
1053.40 1.869391
1053.50 1.869112
1053.60 1.868834
1053.70 1.868555
1053.80 1.868277
1053.90 1.867999
1054.00 1.86772
1054.10 1.867442
1054.20 1.867164
1054.30 1.866886
1054.40 1.866608
1054.50 1.86633
1054.60 1.866052
1054.70 1.865775
1054.80 1.865497
1054.90 1.865219
1055.00 1.864942
1055.10 1.864664
1055.20 1.864387
1055.30 1.86411
1055.40 1.863832
1055.50 1.863555
1055.60 1.863278
1055.70 1.863001
1055.80 1.862724
1055.90 1.862447
1056.00 1.86217
1056.10 1.861894
1056.20 1.861617
1056.30 1.86134
1056.40 1.861064
1056.50 1.860787
1056.60 1.860511
1056.70 1.860235
1056.80 1.859958
1056.90 1.859682
1057.00 1.859406
1057.10 1.85913
1057.20 1.858854
1057.30 1.858578
1057.40 1.858302
1057.50 1.858027
1057.60 1.857751
1057.70 1.857475
1057.80 1.8572
1057.90 1.856924
1058.00 1.856649
1058.10 1.856373
1058.20 1.856098
1058.30 1.855823
1058.40 1.855548
1058.50 1.855273
1058.60 1.854998
1058.70 1.854723
1058.80 1.854448
1058.90 1.854173
1059.00 1.853899
1059.10 1.853624
1059.20 1.85335
1059.30 1.853075
1059.40 1.852801
1059.50 1.852526
1059.60 1.852252
1059.70 1.851978
1059.80 1.851704
1059.90 1.85143
1060.00 1.851156
1060.10 1.850882
1060.20 1.850608
1060.30 1.850334
1060.40 1.85006
1060.50 1.849787
1060.60 1.849513
1060.70 1.84924
1060.80 1.848966
1060.90 1.848693
1061.00 1.84842
1061.10 1.848146
1061.20 1.847873
1061.30 1.8476
1061.40 1.847327
1061.50 1.847054
1061.60 1.846781
1061.70 1.846509
1061.80 1.846236
1061.90 1.845963
1062.00 1.845691
1062.10 1.845418
1062.20 1.845146
1062.30 1.844873
1062.40 1.844601
1062.50 1.844329
1062.60 1.844056
1062.70 1.843784
1062.80 1.843511
1062.90 1.843238
1063.00 1.842965
1063.10 1.842693
1063.20 1.84242
1063.30 1.842148
1063.40 1.841876
1063.50 1.841603
1063.60 1.841331
1063.70 1.841059
1063.80 1.840787
1063.90 1.840515
1064.00 1.840243
1064.10 1.839971
1064.20 1.839699
1064.30 1.839428
1064.40 1.839156
1064.50 1.838884
1064.60 1.838613
1064.70 1.838341
1064.80 1.83807
1064.90 1.837799
1065.00 1.837528
1065.10 1.837256
1065.20 1.836985
1065.30 1.836714
1065.40 1.836443
1065.50 1.836172
1065.60 1.835902
1065.70 1.835631
1065.80 1.83536
1065.90 1.83509
1066.00 1.834819
1066.10 1.834549
1066.20 1.834278
1066.30 1.834008
1066.40 1.833738
1066.50 1.833467
1066.60 1.833197
1066.70 1.832927
1066.80 1.832657
1066.90 1.832387
1067.00 1.832118
1067.10 1.831848
1067.20 1.831578
1067.30 1.831308
1067.40 1.831039
1067.50 1.830769
1067.60 1.8305
1067.70 1.830231
1067.80 1.829961
1067.90 1.829689
1068.00 1.829412
1068.10 1.829135
1068.20 1.828858
1068.30 1.828581
1068.40 1.828304
1068.50 1.828027
1068.60 1.82775
1068.70 1.827473
1068.80 1.827196
1068.90 1.82692
1069.00 1.826643
1069.10 1.826366
1069.20 1.82609
1069.30 1.825814
1069.40 1.825537
1069.50 1.825261
1069.60 1.824985
1069.70 1.824709
1069.80 1.824433
1069.90 1.824157
1070.00 1.823881
1070.10 1.823605
1070.20 1.823329
1070.30 1.823054
1070.40 1.822778
1070.50 1.822503
1070.60 1.822227
1070.70 1.821952
1070.80 1.821677
1070.90 1.821401
1071.00 1.821126
1071.10 1.820851
1071.20 1.820576
1071.30 1.820301
1071.40 1.820026
1071.50 1.819751
1071.60 1.819477
1071.70 1.819202
1071.80 1.818927
1071.90 1.818653
1072.00 1.818378
1072.10 1.818104
1072.20 1.81783
1072.30 1.817555
1072.40 1.817281
1072.50 1.817007
1072.60 1.816733
1072.70 1.816459
1072.80 1.816185
1072.90 1.815911
1073.00 1.815638
1073.10 1.815364
1073.20 1.81509
1073.30 1.814816
1073.40 1.814542
1073.50 1.814268
1073.60 1.813994
1073.70 1.81372
1073.80 1.813446
1073.90 1.813172
1074.00 1.812899
1074.10 1.812625
1074.20 1.812352
1074.30 1.812078
1074.40 1.811805
1074.50 1.811531
1074.60 1.811258
1074.70 1.810985
1074.80 1.810712
1074.90 1.810439
1075.00 1.810166
1075.10 1.809893
1075.20 1.80962
1075.30 1.809347
1075.40 1.809074
1075.50 1.808802
1075.60 1.808529
1075.70 1.808257
1075.80 1.807984
1075.90 1.807712
1076.00 1.80744
1076.10 1.807167
1076.20 1.806895
1076.30 1.806623
1076.40 1.806351
1076.50 1.806079
1076.60 1.805807
1076.70 1.805536
1076.80 1.805264
1076.90 1.804992
1077.00 1.804721
1077.10 1.804449
1077.20 1.804178
1077.30 1.803906
1077.40 1.803635
1077.50 1.803364
1077.60 1.803092
1077.70 1.802821
1077.80 1.80255
1077.90 1.802279
1078.00 1.802008
1078.10 1.801738
1078.20 1.801467
1078.30 1.801196
1078.40 1.800926
1078.50 1.800655
1078.60 1.800385
1078.70 1.800114
1078.80 1.799844
1078.90 1.799574
1079.00 1.799303
1079.10 1.799033
1079.20 1.798763
1079.30 1.798493
1079.40 1.798223
1079.50 1.797953
1079.60 1.797684
1079.70 1.797414
1079.80 1.797144
1079.90 1.796875
1080.00 1.796605
1080.10 1.796336
1080.20 1.796066
1080.30 1.795797
1080.40 1.795528
1080.50 1.795259
1080.60 1.79499
1080.70 1.79472
1080.80 1.794452
1080.90 1.794183
1081.00 1.793914
1081.10 1.793645
1081.20 1.793376
1081.30 1.793108
1081.40 1.792839
1081.50 1.792571
1081.60 1.792302
1081.70 1.792034
1081.80 1.791766
1081.90 1.791498
1082.00 1.791229
1082.10 1.790961
1082.20 1.790693
1082.30 1.790425
1082.40 1.790158
1082.50 1.78989
1082.60 1.789622
1082.70 1.789354
1082.80 1.789087
1082.90 1.788819
1083.00 1.788552
1083.10 1.788284
1083.20 1.788017
1083.30 1.78775
1083.40 1.787483
1083.50 1.787216
1083.60 1.786949
1083.70 1.786682
1083.80 1.786415
1083.90 1.786148
1084.00 1.785874
1084.10 1.785598
1084.20 1.785323
1084.30 1.785049
1084.40 1.784774
1084.50 1.784499
1084.60 1.784224
1084.70 1.783949
1084.80 1.783675
1084.90 1.7834
1085.00 1.783126
1085.10 1.782851
1085.20 1.782577
1085.30 1.782303
1085.40 1.782029
1085.50 1.781755
1085.60 1.781481
1085.70 1.781207
1085.80 1.780933
1085.90 1.780659
1086.00 1.780385
1086.10 1.780112
1086.20 1.779838
1086.30 1.779564
1086.40 1.779291
1086.50 1.779018
1086.60 1.778744
1086.70 1.778471
1086.80 1.778198
1086.90 1.777925
1087.00 1.777652
1087.10 1.777379
1087.20 1.777106
1087.30 1.776833
1087.40 1.77656
1087.50 1.776288
1087.60 1.776015
1087.70 1.775742
1087.80 1.77547
1087.90 1.775197
1088.00 1.774925
1088.10 1.774653
1088.20 1.774381
1088.30 1.774109
1088.40 1.773837
1088.50 1.773565
1088.60 1.773293
1088.70 1.773021
1088.80 1.772749
1088.90 1.772477
1089.00 1.772206
1089.10 1.771934
1089.20 1.771663
1089.30 1.771391
1089.40 1.771115
1089.50 1.770836
1089.60 1.770557
1089.70 1.770278
1089.80 1.769999
1089.90 1.76972
1090.00 1.769442
1090.10 1.769163
1090.20 1.768885
1090.30 1.768606
1090.40 1.768328
1090.50 1.76805
1090.60 1.767772
1090.70 1.767494
1090.80 1.767216
1090.90 1.766938
1091.00 1.76666
1091.10 1.766382
1091.20 1.766104
1091.30 1.765827
1091.40 1.765549
1091.50 1.765271
1091.60 1.764994
1091.70 1.764717
1091.80 1.764439
1091.90 1.764162
1092.00 1.763885
1092.10 1.763608
1092.20 1.763331
1092.30 1.763054
1092.40 1.762777
1092.50 1.7625
1092.60 1.762223
1092.70 1.761947
1092.80 1.76167
1092.90 1.761394
1093.00 1.761117
1093.10 1.760841
1093.20 1.760565
1093.30 1.760288
1093.40 1.760012
1093.50 1.759736
1093.60 1.75946
1093.70 1.759184
1093.80 1.758908
1093.90 1.758632
1094.00 1.758357
1094.10 1.758081
1094.20 1.757806
1094.30 1.75753
1094.40 1.757255
1094.50 1.756979
1094.60 1.756704
1094.70 1.756429
1094.80 1.756155
1094.90 1.755883
1095.00 1.755612
1095.10 1.75534
1095.20 1.755069
1095.30 1.754797
1095.40 1.754526
1095.50 1.754254
1095.60 1.753983
1095.70 1.753712
1095.80 1.753441
1095.90 1.75317
1096.00 1.752898
1096.10 1.752628
1096.20 1.752357
1096.30 1.752086
1096.40 1.751815
1096.50 1.751545
1096.60 1.751274
1096.70 1.751003
1096.80 1.750733
1096.90 1.750463
1097.00 1.750192
1097.10 1.749922
1097.20 1.749652
1097.30 1.749382
1097.40 1.749112
1097.50 1.748842
1097.60 1.748572
1097.70 1.748302
1097.80 1.748032
1097.90 1.747763
1098.00 1.747493
1098.10 1.747223
1098.20 1.746954
1098.30 1.746685
1098.40 1.746415
1098.50 1.746146
1098.60 1.745877
1098.70 1.745608
1098.80 1.745339
1098.90 1.74507
1099.00 1.744801
1099.10 1.744532
1099.20 1.744263
1099.30 1.743994
1099.40 1.743726
1099.50 1.743457
1099.60 1.743189
1099.70 1.74292
1099.80 1.742652
1099.90 1.742383
1100.00 1.742115
1100.10 1.741847
1100.20 1.741579
1100.30 1.741311
1100.40 1.741043
1100.50 1.740775
1100.60 1.740507
1100.70 1.740239
1100.80 1.739972
1100.90 1.739704
1101.00 1.739437
1101.10 1.739169
1101.20 1.738902
1101.30 1.738634
1101.40 1.738367
1101.50 1.7381
1101.60 1.737833
1101.70 1.737566
1101.80 1.737299
1101.90 1.737032
1102.00 1.736765
1102.10 1.736498
1102.20 1.736231
1102.30 1.735965
1102.40 1.735698
1102.50 1.735431
1102.60 1.735165
1102.70 1.734899
1102.80 1.734632
1102.90 1.734366
1103.00 1.7341
1103.10 1.733834
1103.20 1.733568
1103.30 1.733302
1103.40 1.733036
1103.50 1.73277
1103.60 1.732504
1103.70 1.732238
1103.80 1.731973
1103.90 1.731707
1104.00 1.731442
1104.10 1.731176
1104.20 1.730911
1104.30 1.730646
1104.40 1.73038
1104.50 1.730115
1104.60 1.72985
1104.70 1.729585
1104.80 1.72932
1104.90 1.729055
1105.00 1.72879
1105.10 1.728526
1105.20 1.728261
1105.30 1.727996
1105.40 1.727732
1105.50 1.727467
1105.60 1.727203
1105.70 1.726938
1105.80 1.726663
1105.90 1.726387
1106.00 1.726111
1106.10 1.725836
1106.20 1.72556
1106.30 1.725285
1106.40 1.72501
1106.50 1.724734
1106.60 1.724459
1106.70 1.724184
1106.80 1.723909
1106.90 1.723634
1107.00 1.723359
1107.10 1.723084
1107.20 1.72281
1107.30 1.722535
1107.40 1.72226
1107.50 1.721986
1107.60 1.721711
1107.70 1.721437
1107.80 1.721163
1107.90 1.720888
1108.00 1.720614
1108.10 1.72034
1108.20 1.720066
1108.30 1.719792
1108.40 1.719518
1108.50 1.719245
1108.60 1.718971
1108.70 1.718697
1108.80 1.718423
1108.90 1.71815
1109.00 1.717876
1109.10 1.717603
1109.20 1.71733
1109.30 1.717057
1109.40 1.716783
1109.50 1.71651
1109.60 1.716237
1109.70 1.715964
1109.80 1.715691
1109.90 1.715418
1110.00 1.715146
1110.10 1.714873
1110.20 1.7146
1110.30 1.714328
1110.40 1.714055
1110.50 1.713783
1110.60 1.713511
1110.70 1.713238
1110.80 1.712966
1110.90 1.712694
1111.00 1.712422
1111.10 1.71215
1111.20 1.711878
1111.30 1.711606
1111.40 1.711334
1111.50 1.711063
1111.60 1.710791
1111.70 1.71052
1111.80 1.710248
1111.90 1.709977
1112.00 1.709705
1112.10 1.709434
1112.20 1.709163
1112.30 1.708892
1112.40 1.708621
1112.50 1.70835
1112.60 1.708079
1112.70 1.707808
1112.80 1.707537
1112.90 1.707266
1113.00 1.706996
1113.10 1.706725
1113.20 1.706454
1113.30 1.706184
1113.40 1.705914
1113.50 1.705643
1113.60 1.705373
1113.70 1.705103
1113.80 1.704833
1113.90 1.704563
1114.00 1.704293
1114.10 1.704023
1114.20 1.703753
1114.30 1.703483
1114.40 1.703214
1114.50 1.702944
1114.60 1.702675
1114.70 1.702405
1114.80 1.702136
1114.90 1.701866
1115.00 1.701597
1115.10 1.701328
1115.20 1.701059
1115.30 1.70079
1115.40 1.700521
1115.50 1.700252
1115.60 1.699983
1115.70 1.699714
1115.80 1.699445
1115.90 1.699177
1116.00 1.698908
1116.10 1.69864
1116.20 1.698371
1116.30 1.698103
1116.40 1.697835
1116.50 1.697566
1116.60 1.697298
1116.70 1.69703
1116.80 1.696762
1116.90 1.696494
1117.00 1.696225
1117.10 1.695957
1117.20 1.695689
1117.30 1.695421
1117.40 1.695153
1117.50 1.694885
1117.60 1.694617
1117.70 1.69435
1117.80 1.694082
1117.90 1.693814
1118.00 1.693547
1118.10 1.693279
1118.20 1.693012
1118.30 1.692744
1118.40 1.692477
1118.50 1.69221
1118.60 1.691943
1118.70 1.691676
1118.80 1.691409
1118.90 1.691142
1119.00 1.690875
1119.10 1.690608
1119.20 1.690341
1119.30 1.690075
1119.40 1.689808
1119.50 1.689542
1119.60 1.689275
1119.70 1.689009
1119.80 1.688742
1119.90 1.688476
1120.00 1.68821
1120.10 1.687944
1120.20 1.687678
1120.30 1.687412
1120.40 1.687146
1120.50 1.68688
1120.60 1.686614
1120.70 1.686349
1120.80 1.686083
1120.90 1.685817
1121.00 1.685552
1121.10 1.685286
1121.20 1.685021
1121.30 1.684756
1121.40 1.68449
1121.50 1.684225
1121.60 1.68396
1121.70 1.683695
1121.80 1.68343
1121.90 1.683165
1122.00 1.6829
1122.10 1.682636
1122.20 1.682371
1122.30 1.682106
1122.40 1.681842
1122.50 1.681577
1122.60 1.681313
1122.70 1.681049
1122.80 1.680784
1122.90 1.68052
1123.00 1.680256
1123.10 1.679992
1123.20 1.679728
1123.30 1.679464
1123.40 1.6792
1123.50 1.678936
1123.60 1.678672
1123.70 1.678409
1123.80 1.678145
1123.90 1.677882
1124.00 1.677618
1124.10 1.677355
1124.20 1.677091
1124.30 1.676828
1124.40 1.676565
1124.50 1.676302
1124.60 1.676039
1124.70 1.675776
1124.80 1.675513
1124.90 1.67525
1125.00 1.674987
1125.10 1.674724
1125.20 1.674462
1125.30 1.674199
1125.40 1.673936
1125.50 1.673674
1125.60 1.673412
1125.70 1.673149
1125.80 1.672887
1125.90 1.672625
1126.00 1.672363
1126.10 1.672101
1126.20 1.671839
1126.30 1.671577
1126.40 1.671315
1126.50 1.671053
1126.60 1.670791
1126.70 1.67053
1126.80 1.670268
1126.90 1.670006
1127.00 1.669745
1127.10 1.669484
1127.20 1.669222
1127.30 1.668961
1127.40 1.6687
1127.50 1.668439
1127.60 1.668178
1127.70 1.667917
1127.80 1.667656
1127.90 1.667395
1128.00 1.667126
1128.10 1.666854
1128.20 1.666583
1128.30 1.666312
1128.40 1.66604
1128.50 1.665769
1128.60 1.665498
1128.70 1.665227
1128.80 1.664956
1128.90 1.664685
1129.00 1.664414
1129.10 1.664144
1129.20 1.663873
1129.30 1.663602
1129.40 1.663332
1129.50 1.663062
1129.60 1.662791
1129.70 1.662521
1129.80 1.662251
1129.90 1.66198
1130.00 1.66171
1130.10 1.66144
1130.20 1.66117
1130.30 1.6609
1130.40 1.660631
1130.50 1.660361
1130.60 1.660091
1130.70 1.659822
1130.80 1.659552
1130.90 1.659283
1131.00 1.659013
1131.10 1.658744
1131.20 1.658475
1131.30 1.658205
1131.40 1.657936
1131.50 1.657667
1131.60 1.657398
1131.70 1.657129
1131.80 1.65686
1131.90 1.656592
1132.00 1.656323
1132.10 1.656054
1132.20 1.655786
1132.30 1.655517
1132.40 1.655249
1132.50 1.65498
1132.60 1.654712
1132.70 1.654444
1132.80 1.654176
1132.90 1.653908
1133.00 1.65364
1133.10 1.653372
1133.20 1.653104
1133.30 1.652836
1133.40 1.652568
1133.50 1.6523
1133.60 1.652033
1133.70 1.651765
1133.80 1.651498
1133.90 1.65123
1134.00 1.650963
1134.10 1.650696
1134.20 1.650429
1134.30 1.650161
1134.40 1.649894
1134.50 1.649627
1134.60 1.64936
1134.70 1.649094
1134.80 1.648827
1134.90 1.64856
1135.00 1.648293
1135.10 1.648027
1135.20 1.64776
1135.30 1.647494
1135.40 1.647228
1135.50 1.646961
1135.60 1.646695
1135.70 1.646429
1135.80 1.646163
1135.90 1.645897
1136.00 1.645631
1136.10 1.645365
1136.20 1.645099
1136.30 1.644833
1136.40 1.644567
1136.50 1.644302
1136.60 1.644036
1136.70 1.643771
1136.80 1.643505
1136.90 1.64324
1137.00 1.642975
1137.10 1.64271
1137.20 1.642444
1137.30 1.642179
1137.40 1.641914
1137.50 1.641649
1137.60 1.641384
1137.70 1.64112
1137.80 1.640855
1137.90 1.64059
1138.00 1.640326
1138.10 1.640061
1138.20 1.639797
1138.30 1.639532
1138.40 1.639268
1138.50 1.639004
1138.60 1.638739
1138.70 1.638475
1138.80 1.638211
1138.90 1.637947
1139.00 1.637683
1139.10 1.637419
1139.20 1.637156
1139.30 1.636888
1139.40 1.636621
1139.50 1.636354
1139.60 1.636087
1139.70 1.63582
1139.80 1.635553
1139.90 1.635286
1140.00 1.635019
1140.10 1.634752
1140.20 1.634486
1140.30 1.634219
1140.40 1.633952
1140.50 1.633686
1140.60 1.633419
1140.70 1.633153
1140.80 1.632887
1140.90 1.632621
1141.00 1.632354
1141.10 1.632088
1141.20 1.631822
1141.30 1.631556
1141.40 1.631291
1141.50 1.631025
1141.60 1.630759
1141.70 1.630493
1141.80 1.630228
1141.90 1.629962
1142.00 1.629697
1142.10 1.629431
1142.20 1.629166
1142.30 1.628901
1142.40 1.628636
1142.50 1.62837
1142.60 1.628105
1142.70 1.62784
1142.80 1.627575
1142.90 1.627311
1143.00 1.627046
1143.10 1.626781
1143.20 1.626516
1143.30 1.626252
1143.40 1.625987
1143.50 1.625723
1143.60 1.625458
1143.70 1.625194
1143.80 1.62493
1143.90 1.624666
1144.00 1.624402
1144.10 1.624138
1144.20 1.623874
1144.30 1.62361
1144.40 1.623346
1144.50 1.623082
1144.60 1.622818
1144.70 1.622555
1144.80 1.622291
1144.90 1.622028
1145.00 1.621764
1145.10 1.621501
1145.20 1.621238
1145.30 1.620974
1145.40 1.620711
1145.50 1.620448
1145.60 1.620185
1145.70 1.619922
1145.80 1.619659
1145.90 1.619396
1146.00 1.619134
1146.10 1.618871
1146.20 1.618608
1146.30 1.618346
1146.40 1.618083
1146.50 1.617821
1146.60 1.617558
1146.70 1.617296
1146.80 1.617034
1146.90 1.616772
1147.00 1.61651
1147.10 1.616248
1147.20 1.615986
1147.30 1.615724
1147.40 1.615462
1147.50 1.6152
1147.60 1.614938
1147.70 1.614677
1147.80 1.614415
1147.90 1.614154
1148.00 1.613892
1148.10 1.613631
1148.20 1.61337
1148.30 1.613108
1148.40 1.612847
1148.50 1.612586
1148.60 1.612325
1148.70 1.612064
1148.80 1.611803
1148.90 1.611542
1149.00 1.611282
1149.10 1.611021
1149.20 1.61076
1149.30 1.6105
1149.40 1.610239
1149.50 1.609979
1149.60 1.609718
1149.70 1.609458
1149.80 1.609198
1149.90 1.608938
1150.00 1.608678
1150.10 1.608418
1150.20 1.608158
1150.30 1.607898
1150.40 1.607638
1150.50 1.607378
1150.60 1.607118
1150.70 1.606859
1150.80 1.606599
1150.90 1.606339
1151.00 1.606079
1151.10 1.60582
1151.20 1.60556
1151.30 1.605301
1151.40 1.605042
1151.50 1.604782
1151.60 1.604523
1151.70 1.604264
1151.80 1.604005
1151.90 1.603746
1152.00 1.603487
1152.10 1.603228
1152.20 1.602969
1152.30 1.60271
1152.40 1.602451
1152.50 1.602193
1152.60 1.601934
1152.70 1.601676
1152.80 1.601417
1152.90 1.601159
1153.00 1.600901
1153.10 1.600642
1153.20 1.600384
1153.30 1.600126
1153.40 1.599868
1153.50 1.59961
1153.60 1.599352
1153.70 1.599094
1153.80 1.598836
1153.90 1.598579
1154.00 1.598321
1154.10 1.598063
1154.20 1.597806
1154.30 1.597548
1154.40 1.597291
1154.50 1.597034
1154.60 1.596776
1154.70 1.596519
1154.80 1.596262
1154.90 1.596005
1155.00 1.595748
1155.10 1.595491
1155.20 1.595234
1155.30 1.594977
1155.40 1.594721
1155.50 1.594464
1155.60 1.594207
1155.70 1.593951
1155.80 1.593694
1155.90 1.593438
1156.00 1.593181
1156.10 1.592925
1156.20 1.592669
1156.30 1.592413
1156.40 1.592153
1156.50 1.591891
1156.60 1.591628
1156.70 1.591366
1156.80 1.591104
1156.90 1.590841
1157.00 1.590579
1157.10 1.590317
1157.20 1.590055
1157.30 1.589793
1157.40 1.589531
1157.50 1.58927
1157.60 1.589008
1157.70 1.588746
1157.80 1.588485
1157.90 1.588223
1158.00 1.587962
1158.10 1.5877
1158.20 1.587439
1158.30 1.587178
1158.40 1.586916
1158.50 1.586655
1158.60 1.586394
1158.70 1.586133
1158.80 1.585872
1158.90 1.585611
1159.00 1.585351
1159.10 1.58509
1159.20 1.584829
1159.30 1.584569
1159.40 1.584308
1159.50 1.584048
1159.60 1.583787
1159.70 1.583527
1159.80 1.583266
1159.90 1.583006
1160.00 1.582746
1160.10 1.582486
1160.20 1.582226
1160.30 1.581966
1160.40 1.581706
1160.50 1.581446
1160.60 1.581187
1160.70 1.580927
1160.80 1.580667
1160.90 1.580408
1161.00 1.580148
1161.10 1.579889
1161.20 1.57963
1161.30 1.57937
1161.40 1.579111
1161.50 1.578852
1161.60 1.578593
1161.70 1.578334
1161.80 1.578075
1161.90 1.577816
1162.00 1.577557
1162.10 1.577298
1162.20 1.57704
1162.30 1.576781
1162.40 1.576522
1162.50 1.576264
1162.60 1.576005
1162.70 1.575747
1162.80 1.575488
1162.90 1.57523
1163.00 1.574971
1163.10 1.574713
1163.20 1.574455
1163.30 1.574197
1163.40 1.573939
1163.50 1.573681
1163.60 1.573423
1163.70 1.573165
1163.80 1.572907
1163.90 1.57265
1164.00 1.572392
1164.10 1.572135
1164.20 1.571877
1164.30 1.57162
1164.40 1.571362
1164.50 1.571105
1164.60 1.570848
1164.70 1.570591
1164.80 1.570333
1164.90 1.570076
1165.00 1.569819
1165.10 1.569562
1165.20 1.569306
1165.30 1.569049
1165.40 1.568792
1165.50 1.568535
1165.60 1.568279
1165.70 1.568022
1165.80 1.567766
1165.90 1.567509
1166.00 1.567253
1166.10 1.566997
1166.20 1.566741
1166.30 1.566485
1166.40 1.566228
1166.50 1.565972
1166.60 1.565717
1166.70 1.565461
1166.80 1.565205
1166.90 1.564949
1167.00 1.564693
1167.10 1.564438
1167.20 1.564182
1167.30 1.563927
1167.40 1.563671
1167.50 1.563416
1167.60 1.563161
1167.70 1.562905
1167.80 1.56265
1167.90 1.562395
1168.00 1.562134
1168.10 1.561873
1168.20 1.561612
1168.30 1.561351
1168.40 1.56109
1168.50 1.560829
1168.60 1.560568
1168.70 1.560307
1168.80 1.560047
1168.90 1.559786
1169.00 1.559525
1169.10 1.559265
1169.20 1.559004
1169.30 1.558744
1169.40 1.558483
1169.50 1.558223
1169.60 1.557963
1169.70 1.557703
1169.80 1.557443
1169.90 1.557183
1170.00 1.556923
1170.10 1.556663
1170.20 1.556403
1170.30 1.556143
1170.40 1.555884
1170.50 1.555624
1170.60 1.555364
1170.70 1.555105
1170.80 1.554846
1170.90 1.554586
1171.00 1.554327
1171.10 1.554068
1171.20 1.553808
1171.30 1.553549
1171.40 1.55329
1171.50 1.553031
1171.60 1.552772
1171.70 1.552514
1171.80 1.552255
1171.90 1.551996
1172.00 1.551738
1172.10 1.551479
1172.20 1.55122
1172.30 1.550962
1172.40 1.550704
1172.50 1.550445
1172.60 1.550187
1172.70 1.549929
1172.80 1.549671
1172.90 1.549413
1173.00 1.549155
1173.10 1.548897
1173.20 1.548639
1173.30 1.548381
1173.40 1.548123
1173.50 1.547866
1173.60 1.547608
1173.70 1.547351
1173.80 1.547098
1173.90 1.546847
1174.00 1.546595
1174.10 1.546344
1174.20 1.546093
1174.30 1.545842
1174.40 1.545591
1174.50 1.54534
1174.60 1.545089
1174.70 1.544838
1174.80 1.544588
1174.90 1.544337
1175.00 1.544086
1175.10 1.543836
1175.20 1.543585
1175.30 1.543335
1175.40 1.543084
1175.50 1.542834
1175.60 1.542584
1175.70 1.542333
1175.80 1.542083
1175.90 1.541833
1176.00 1.541583
1176.10 1.541333
1176.20 1.541083
1176.30 1.540834
1176.40 1.540584
1176.50 1.540334
1176.60 1.540084
1176.70 1.539835
1176.80 1.539585
1176.90 1.539336
1177.00 1.539087
1177.10 1.538837
1177.20 1.538588
1177.30 1.538339
1177.40 1.53809
1177.50 1.537841
1177.60 1.537592
1177.70 1.537343
1177.80 1.537094
1177.90 1.536845
1178.00 1.536596
1178.10 1.536347
1178.20 1.536099
1178.30 1.53585
1178.40 1.535602
1178.50 1.535353
1178.60 1.535105
1178.70 1.534856
1178.80 1.534608
1178.90 1.53436
1179.00 1.534112
1179.10 1.533864
1179.20 1.533616
1179.30 1.533368
1179.40 1.53312
1179.50 1.532872
1179.60 1.532623
1179.70 1.532363
1179.80 1.532103
1179.90 1.531844
1180.00 1.531584
1180.10 1.531325
1180.20 1.531065
1180.30 1.530806
1180.40 1.530546
1180.50 1.530287
1180.60 1.530028
1180.70 1.529769
1180.80 1.529509
1180.90 1.52925
1181.00 1.528991
1181.10 1.528733
1181.20 1.528474
1181.30 1.528215
1181.40 1.527956
1181.50 1.527698
1181.60 1.527439
1181.70 1.527181
1181.80 1.526922
1181.90 1.526664
1182.00 1.526405
1182.10 1.526147
1182.20 1.525889
1182.30 1.525631
1182.40 1.525373
1182.50 1.525115
1182.60 1.524857
1182.70 1.524599
1182.80 1.524341
1182.90 1.524084
1183.00 1.523826
1183.10 1.523568
1183.20 1.523311
1183.30 1.523053
1183.40 1.522796
1183.50 1.522539
1183.60 1.522281
1183.70 1.522024
1183.80 1.521767
1183.90 1.52151
1184.00 1.521253
1184.10 1.520996
1184.20 1.520739
1184.30 1.520482
1184.40 1.520226
1184.50 1.519969
1184.60 1.519712
1184.70 1.519456
1184.80 1.519199
1184.90 1.518943
1185.00 1.518687
1185.10 1.51843
1185.20 1.518174
1185.30 1.517918
1185.40 1.517662
1185.50 1.517408
1185.60 1.517158
1185.70 1.516908
1185.80 1.516658
1185.90 1.516409
1186.00 1.516159
1186.10 1.515909
1186.20 1.515659
1186.30 1.51541
1186.40 1.51516
1186.50 1.514911
1186.60 1.514662
1186.70 1.514412
1186.80 1.514163
1186.90 1.513914
1187.00 1.513665
1187.10 1.513415
1187.20 1.513166
1187.30 1.512917
1187.40 1.512669
1187.50 1.51242
1187.60 1.512171
1187.70 1.511922
1187.80 1.511674
1187.90 1.511425
1188.00 1.511176
1188.10 1.510928
1188.20 1.51068
1188.30 1.510431
1188.40 1.510183
1188.50 1.509935
1188.60 1.509687
1188.70 1.509439
1188.80 1.509191
1188.90 1.508943
1189.00 1.508695
1189.10 1.508447
1189.20 1.508199
1189.30 1.507951
1189.40 1.507704
1189.50 1.507456
1189.60 1.507209
1189.70 1.506961
1189.80 1.506714
1189.90 1.506466
1190.00 1.506219
1190.10 1.505972
1190.20 1.505725
1190.30 1.505478
1190.40 1.505231
1190.50 1.504984
1190.60 1.504737
1190.70 1.50449
1190.80 1.504243
1190.90 1.503996
1191.00 1.50375
1191.10 1.503503
1191.20 1.503256
1191.30 1.50301
1191.40 1.502763
1191.50 1.50251
1191.60 1.502258
1191.70 1.502006
1191.80 1.501754
1191.90 1.501502
1192.00 1.50125
1192.10 1.500998
1192.20 1.500747
1192.30 1.500495
1192.40 1.500243
1192.50 1.499992
1192.60 1.49974
1192.70 1.499489
1192.80 1.499237
1192.90 1.498986
1193.00 1.498735
1193.10 1.498483
1193.20 1.498232
1193.30 1.497981
1193.40 1.49773
1193.50 1.497479
1193.60 1.497228
1193.70 1.496977
1193.80 1.496726
1193.90 1.496476
1194.00 1.496225
1194.10 1.495975
1194.20 1.495724
1194.30 1.495474
1194.40 1.495223
1194.50 1.494973
1194.60 1.494723
1194.70 1.494472
1194.80 1.494222
1194.90 1.493972
1195.00 1.493722
1195.10 1.493472
1195.20 1.493222
1195.30 1.492972
1195.40 1.492723
1195.50 1.492473
1195.60 1.492223
1195.70 1.491974
1195.80 1.491724
1195.90 1.491475
1196.00 1.491225
1196.10 1.490976
1196.20 1.490727
1196.30 1.490477
1196.40 1.490228
1196.50 1.489979
1196.60 1.48973
1196.70 1.489481
1196.80 1.489232
1196.90 1.488983
1197.00 1.488735
1197.10 1.488486
1197.20 1.488237
1197.30 1.487989
1197.40 1.48774
1197.50 1.487492
1197.60 1.487243
1197.70 1.486995
1197.80 1.486747
1197.90 1.486498
1198.00 1.48625
1198.10 1.486002
1198.20 1.485754
1198.30 1.485506
1198.40 1.485258
1198.50 1.48501
1198.60 1.484763
1198.70 1.484515
1198.80 1.484267
1198.90 1.48402
1199.00 1.483772
1199.10 1.483525
1199.20 1.483277
1199.30 1.48303
1199.40 1.482783
1199.50 1.482535
1199.60 1.482288
1199.70 1.482041
1199.80 1.481794
1199.90 1.481547
1200.00 1.4813
