# Version 2.1 - nm, norm@500 to 1, cut digits, bergeron_He_9500_80.dat_9500
# Wavelength(nm)  Flambda(ergs/cm^s/s/nm)
300.00 1.821813
300.10 1.821657
300.20 1.821494
300.30 1.821336
300.40 1.82122
300.50 1.821103
300.60 1.820986
300.70 1.820869
300.80 1.820751
300.90 1.820634
301.00 1.820516
301.10 1.820397
301.20 1.820279
301.30 1.82016
301.40 1.820041
301.50 1.819922
301.60 1.819803
301.70 1.819683
301.80 1.819563
301.90 1.819443
302.00 1.819322
302.10 1.819186
302.20 1.819047
302.30 1.818909
302.40 1.81877
302.50 1.81863
302.60 1.818491
302.70 1.818351
302.80 1.818212
302.90 1.818072
303.00 1.817931
303.10 1.817791
303.20 1.81765
303.30 1.817509
303.40 1.817361
303.50 1.817214
303.60 1.817066
303.70 1.816918
303.80 1.816769
303.90 1.816621
304.00 1.816472
304.10 1.816323
304.20 1.816174
304.30 1.816025
304.40 1.815876
304.50 1.815726
304.60 1.81555
304.70 1.815371
304.80 1.815191
304.90 1.815012
305.00 1.814832
305.10 1.814652
305.20 1.814472
305.30 1.814292
305.40 1.814112
305.50 1.813932
305.60 1.813751
305.70 1.81357
305.80 1.813389
305.90 1.813208
306.00 1.813027
306.10 1.812846
306.20 1.812664
306.30 1.812483
306.40 1.81232
306.50 1.812162
306.60 1.812004
306.70 1.811846
306.80 1.811688
306.90 1.811529
307.00 1.811371
307.10 1.811212
307.20 1.811053
307.30 1.810894
307.40 1.810734
307.50 1.810575
307.60 1.810415
307.70 1.810255
307.80 1.810095
307.90 1.809935
308.00 1.809775
308.10 1.809614
308.20 1.809453
308.30 1.809293
308.40 1.809131
308.50 1.80897
308.60 1.808809
308.70 1.808647
308.80 1.808365
308.90 1.807739
309.00 1.807558
309.10 1.807377
309.20 1.807195
309.30 1.807013
309.40 1.806832
309.50 1.806657
309.60 1.806481
309.70 1.806305
309.80 1.806128
309.90 1.805952
310.00 1.805775
310.10 1.805598
310.20 1.805422
310.30 1.805245
310.40 1.805071
310.50 1.804901
310.60 1.80473
310.70 1.80456
310.80 1.804389
310.90 1.804219
311.00 1.803964
311.10 1.80371
311.20 1.803456
311.30 1.803219
311.40 1.803031
311.50 1.802842
311.60 1.802654
311.70 1.802465
311.80 1.802276
311.90 1.802088
312.00 1.801899
312.10 1.80171
312.20 1.801327
312.30 1.80107
312.40 1.801036
312.50 1.800735
312.60 1.800485
312.70 1.800234
312.80 1.799984
312.90 1.799758
313.00 1.799559
313.10 1.799361
313.20 1.799162
313.30 1.798955
313.40 1.798726
313.50 1.798497
313.60 1.798268
313.70 1.798039
313.80 1.79781
313.90 1.797581
314.00 1.797352
314.10 1.797152
314.20 1.796951
314.30 1.796751
314.40 1.79655
314.50 1.79635
314.60 1.796149
314.70 1.795948
314.80 1.795723
314.90 1.795452
315.00 1.795205
315.10 1.794946
315.20 1.794687
315.30 1.794427
315.40 1.794168
315.50 1.793909
315.60 1.79365
315.70 1.793335
315.80 1.793021
315.90 1.792707
316.00 1.792393
316.10 1.792243
316.20 1.792093
316.30 1.791942
316.40 1.791465
316.50 1.791314
316.60 1.790837
316.70 1.790686
316.80 1.790535
316.90 1.790384
317.00 1.790233
317.10 1.790082
317.20 1.78993
317.30 1.78955
317.40 1.789214
317.50 1.789003
317.60 1.788792
317.70 1.788581
317.80 1.788369
317.90 1.788097
318.00 1.787627
318.10 1.787313
318.20 1.786999
318.30 1.786685
318.40 1.786413
318.50 1.78626
318.60 1.786275
318.70 1.786026
318.80 1.78555
318.90 1.785172
319.00 1.784851
319.10 1.784698
319.20 1.784515
319.30 1.784248
319.40 1.783981
319.50 1.783713
319.60 1.783259
319.70 1.782992
319.80 1.782725
319.90 1.782457
320.00 1.782245
320.10 1.782091
320.20 1.781763
320.30 1.78145
320.40 1.781168
320.50 1.781141
320.60 1.780681
320.70 1.780526
320.80 1.780295
320.90 1.779981
321.00 1.779668
321.10 1.779354
321.20 1.778888
321.30 1.778659
321.40 1.778431
321.50 1.778202
321.60 1.777973
321.70 1.777745
321.80 1.777506
321.90 1.777256
322.00 1.776602
322.10 1.776364
322.20 1.776125
322.30 1.775886
322.40 1.775647
322.50 1.775408
322.60 1.775169
322.70 1.77493
322.80 1.774496
322.90 1.774235
323.00 1.773973
323.10 1.773711
323.20 1.77345
323.30 1.773188
323.40 1.772926
323.50 1.772665
323.60 1.772403
323.70 1.772141
323.80 1.77188
323.90 1.771618
324.00 1.771192
324.10 1.770767
324.20 1.770341
324.30 1.769951
324.40 1.769678
324.50 1.769426
324.60 1.769175
324.70 1.768923
324.80 1.768671
324.90 1.76842
325.00 1.768168
325.10 1.767916
325.20 1.767674
325.30 1.76745
325.40 1.767227
325.50 1.766966
325.60 1.766659
325.70 1.766353
325.80 1.766046
325.90 1.765717
326.00 1.765365
326.10 1.765013
326.20 1.76466
326.30 1.764246
326.40 1.763653
326.50 1.763377
326.60 1.763102
326.70 1.762826
326.80 1.76255
326.90 1.762274
327.00 1.761999
327.10 1.761723
327.20 1.761447
327.30 1.761172
327.40 1.760896
327.50 1.760621
327.60 1.760345
327.70 1.760069
327.80 1.759794
327.90 1.759419
328.00 1.759026
328.10 1.758742
328.20 1.758457
328.30 1.758172
328.40 1.757887
328.50 1.757521
328.60 1.757135
328.70 1.756749
328.80 1.756387
328.90 1.756088
329.00 1.75579
329.10 1.755492
329.20 1.755193
329.30 1.754895
329.40 1.754597
329.50 1.754299
329.60 1.754001
329.70 1.753702
329.80 1.753404
329.90 1.753106
330.00 1.752737
330.10 1.752282
330.20 1.751826
330.30 1.751371
330.40 1.750991
330.50 1.750693
330.60 1.750395
330.70 1.750097
330.80 1.7498
330.90 1.749502
331.00 1.749204
331.10 1.748907
331.20 1.748609
331.30 1.748311
331.40 1.748014
331.50 1.747699
331.60 1.747363
331.70 1.747027
331.80 1.74668
331.90 1.746332
332.00 1.745985
332.10 1.745637
332.20 1.745289
332.30 1.744942
332.40 1.744595
332.50 1.744248
332.60 1.743901
332.70 1.743554
332.80 1.743207
332.90 1.74286
333.00 1.742513
333.10 1.742171
333.20 1.741834
333.30 1.741497
333.40 1.74116
333.50 1.740823
333.60 1.740486
333.70 1.740149
333.80 1.739812
333.90 1.739476
334.00 1.739139
334.10 1.738794
334.20 1.738438
334.30 1.738083
334.40 1.737727
334.50 1.737372
334.60 1.737016
334.70 1.736607
334.80 1.736176
334.90 1.735808
335.00 1.735441
335.10 1.735392
335.20 1.73494
335.30 1.734809
335.40 1.734357
335.50 1.733905
335.60 1.733454
335.70 1.733265
335.80 1.732814
335.90 1.732428
336.00 1.732123
336.10 1.731818
336.20 1.731512
336.30 1.731185
336.40 1.730832
336.50 1.730478
336.60 1.730125
336.70 1.729772
336.80 1.729419
336.90 1.72902
337.00 1.728566
337.10 1.728111
337.20 1.727657
337.30 1.727247
337.40 1.726899
337.50 1.726552
337.60 1.726205
337.70 1.725857
337.80 1.72551
337.90 1.72516
338.00 1.724807
338.10 1.724453
338.20 1.7241
338.30 1.723746
338.40 1.723387
338.50 1.723013
338.60 1.722639
338.70 1.722266
338.80 1.721892
338.90 1.721519
339.00 1.721145
339.10 1.720772
339.20 1.720399
339.30 1.720121
339.40 1.719978
339.50 1.719718
339.60 1.719316
339.70 1.718914
339.80 1.718511
339.90 1.718109
340.00 1.717707
340.10 1.717306
340.20 1.716904
340.30 1.716503
340.40 1.716102
340.50 1.715701
340.60 1.7153
340.70 1.714899
340.80 1.714487
340.90 1.714056
341.00 1.713653
341.10 1.713282
341.20 1.712911
341.30 1.712541
341.40 1.71217
341.50 1.7118
341.60 1.711429
341.70 1.711059
341.80 1.710702
341.90 1.710361
342.00 1.71002
342.10 1.70968
342.20 1.709207
342.30 1.708853
342.40 1.708598
342.50 1.708257
342.60 1.707916
342.70 1.707575
342.80 1.707233
342.90 1.706892
343.00 1.706505
343.10 1.706062
343.20 1.705619
343.30 1.705176
343.40 1.704773
343.50 1.704429
343.60 1.704085
343.70 1.70374
343.80 1.703396
343.90 1.703052
344.00 1.702671
344.10 1.702235
344.20 1.701799
344.30 1.701363
344.40 1.700928
344.50 1.700493
344.60 1.699845
344.70 1.699687
344.80 1.699514
344.90 1.69908
345.00 1.698433
345.10 1.698275
345.20 1.698006
345.30 1.69758
345.40 1.697154
345.50 1.696715
345.60 1.69627
345.70 1.695837
345.80 1.695404
345.90 1.694972
346.00 1.69454
346.10 1.694108
346.20 1.693698
346.30 1.693321
346.40 1.692945
346.50 1.692568
346.60 1.692192
346.70 1.691815
346.80 1.691439
346.90 1.691063
347.00 1.690687
347.10 1.690312
347.20 1.689919
347.30 1.689503
347.40 1.689086
347.50 1.68867
347.60 1.688254
347.70 1.687838
347.80 1.687422
347.90 1.687007
348.00 1.686591
348.10 1.686176
348.20 1.685761
348.30 1.685346
348.40 1.684932
348.50 1.684518
348.60 1.684103
348.70 1.683877
348.80 1.683603
348.90 1.683177
349.00 1.68275
349.10 1.682324
349.20 1.681898
349.30 1.681473
349.40 1.681047
349.50 1.680622
349.60 1.680197
349.70 1.679772
349.80 1.679347
349.90 1.678923
350.00 1.678498
350.10 1.678074
350.20 1.67765
350.30 1.677246
350.40 1.676868
350.50 1.676491
350.60 1.676114
350.70 1.675737
350.80 1.67536
350.90 1.674983
351.00 1.674606
351.10 1.67423
351.20 1.673854
351.30 1.673477
351.40 1.673073
351.50 1.672619
351.60 1.672165
351.70 1.671712
351.80 1.671258
351.90 1.670805
352.00 1.670352
352.10 1.6699
352.20 1.669639
352.30 1.669315
352.40 1.668868
352.50 1.668421
352.60 1.667974
352.70 1.667527
352.80 1.667081
352.90 1.666635
353.00 1.666189
353.10 1.665744
353.20 1.665298
353.30 1.664853
353.40 1.664408
353.50 1.664039
353.60 1.663688
353.70 1.663337
353.80 1.662987
353.90 1.662614
354.00 1.6622
354.10 1.661787
354.20 1.661374
354.30 1.660962
354.40 1.660549
354.50 1.660137
354.60 1.659725
354.70 1.659313
354.80 1.65888
354.90 1.658417
355.00 1.657955
355.10 1.657492
355.20 1.65703
355.30 1.65658
355.40 1.656129
355.50 1.655679
355.60 1.655229
355.70 1.654754
355.80 1.654268
355.90 1.653956
356.00 1.653612
356.10 1.653185
356.20 1.652758
356.30 1.65233
356.40 1.651904
356.50 1.651477
356.60 1.651051
356.70 1.650624
356.80 1.650198
356.90 1.649773
357.00 1.649347
357.10 1.648922
357.20 1.648496
357.30 1.648072
357.40 1.647633
357.50 1.647169
357.60 1.646705
357.70 1.646242
357.80 1.645787
357.90 1.645333
358.00 1.644899
358.10 1.64447
358.20 1.644041
358.30 1.643612
358.40 1.643184
358.50 1.642756
358.60 1.642328
358.70 1.6419
358.80 1.641473
358.90 1.641046
359.00 1.640607
359.10 1.64015
359.20 1.639689
359.30 1.639213
359.40 1.638736
359.50 1.638346
359.60 1.637978
359.70 1.63761
359.80 1.637275
359.90 1.636941
360.00 1.636569
360.10 1.63613
360.20 1.635692
360.30 1.635255
360.40 1.634817
360.50 1.63438
360.60 1.63366
360.70 1.633258
360.80 1.632856
360.90 1.632454
361.00 1.631872
361.10 1.631527
361.20 1.63107
361.30 1.630669
361.40 1.630243
361.50 1.629868
361.60 1.629147
361.70 1.628748
361.80 1.628379
361.90 1.628066
362.00 1.627752
362.10 1.627248
362.20 1.62673
362.30 1.62627
362.40 1.62581
362.50 1.625351
362.60 1.624891
362.70 1.62436
362.80 1.624184
362.90 1.623784
363.00 1.623384
363.10 1.622944
363.20 1.622505
363.30 1.621702
363.40 1.62143
363.50 1.62091
363.60 1.620514
363.70 1.619899
363.80 1.619724
363.90 1.619305
364.00 1.618886
364.10 1.618468
364.20 1.61805
364.30 1.617475
364.40 1.616862
364.50 1.616473
364.60 1.616078
364.70 1.615683
364.80 1.615288
364.90 1.614895
365.00 1.614502
365.10 1.613864
365.20 1.613471
365.30 1.612833
365.40 1.612442
365.50 1.61205
365.60 1.611659
365.70 1.611223
365.80 1.610787
365.90 1.610214
366.00 1.609606
366.10 1.609207
366.20 1.608808
366.30 1.60841
366.40 1.608012
366.50 1.607651
366.60 1.607267
366.70 1.60676
366.80 1.606253
366.90 1.605771
367.00 1.605334
367.10 1.604896
367.20 1.604459
367.30 1.604023
367.40 1.603586
367.50 1.603017
367.60 1.602414
367.70 1.602053
367.80 1.601692
367.90 1.601331
368.00 1.600868
368.10 1.600476
368.20 1.599989
368.30 1.599501
368.40 1.599012
368.50 1.598524
368.60 1.598036
368.70 1.597548
368.80 1.597061
368.90 1.596747
369.00 1.596267
369.10 1.595667
369.20 1.595287
369.30 1.594903
369.40 1.59452
369.50 1.594137
369.60 1.593513
369.70 1.59289
369.80 1.592544
369.90 1.592201
370.00 1.591858
370.10 1.591365
370.20 1.590742
370.30 1.590122
370.40 1.589744
370.50 1.589596
370.60 1.588983
370.70 1.588602
370.80 1.58822
370.90 1.587838
371.00 1.587223
371.10 1.586607
371.20 1.586226
371.30 1.585844
371.40 1.585155
371.50 1.584743
371.60 1.584333
371.70 1.583922
371.80 1.583511
371.90 1.583101
372.00 1.582525
372.10 1.582351
372.20 1.581816
372.30 1.581282
372.40 1.580748
372.50 1.580214
372.60 1.57968
372.70 1.579147
372.80 1.57877
372.90 1.578392
373.00 1.578019
373.10 1.577646
373.20 1.577036
373.30 1.576427
373.40 1.576052
373.50 1.575678
373.60 1.575305
373.70 1.574931
373.80 1.574191
373.90 1.573715
374.00 1.573225
374.10 1.572735
374.20 1.572246
374.30 1.571757
374.40 1.571502
374.50 1.571013
374.60 1.570522
374.70 1.570035
374.80 1.569548
374.90 1.569061
375.00 1.568691
375.10 1.56832
375.20 1.56795
375.30 1.567447
375.40 1.566944
375.50 1.566441
375.60 1.565939
375.70 1.565437
375.80 1.564936
375.90 1.564435
376.00 1.564062
376.10 1.563634
376.20 1.563207
376.30 1.562779
376.40 1.562352
376.50 1.561892
376.60 1.561381
376.70 1.560871
376.80 1.560363
376.90 1.559857
377.00 1.559353
377.10 1.558848
377.20 1.558366
377.30 1.557971
377.40 1.557575
377.50 1.55718
377.60 1.556655
377.70 1.55613
377.80 1.555606
377.90 1.555082
378.00 1.554887
378.10 1.554391
378.20 1.553887
378.30 1.553383
378.40 1.55288
378.50 1.552378
378.60 1.551875
378.70 1.551373
378.80 1.550871
378.90 1.550377
379.00 1.549897
379.10 1.549444
379.20 1.548992
379.30 1.548578
379.40 1.548202
379.50 1.547827
379.60 1.547428
379.70 1.546985
379.80 1.546502
379.90 1.546019
380.00 1.545537
380.10 1.545055
380.20 1.544573
380.30 1.544092
380.40 1.543611
380.50 1.54313
380.60 1.542487
380.70 1.542088
380.80 1.541689
380.90 1.54129
381.00 1.540892
381.10 1.540365
381.20 1.539726
381.30 1.539369
381.40 1.538724
381.50 1.538379
381.60 1.538001
381.70 1.537494
381.80 1.537138
381.90 1.536334
382.00 1.535978
382.10 1.535623
382.20 1.534999
382.30 1.534645
382.40 1.534234
382.50 1.533737
382.60 1.533241
382.70 1.532819
382.80 1.532405
382.90 1.531917
383.00 1.53143
383.10 1.530943
383.20 1.530442
383.30 1.52989
383.40 1.529367
383.50 1.528888
383.60 1.528563
383.70 1.52806
383.80 1.527556
383.90 1.527054
384.00 1.526551
384.10 1.526049
384.20 1.525547
384.30 1.525046
384.40 1.524554
384.50 1.524071
384.60 1.523588
384.70 1.523106
384.80 1.522667
384.90 1.522343
385.00 1.521932
385.10 1.521513
385.20 1.520829
385.30 1.520263
385.40 1.519741
385.50 1.519261
385.60 1.518781
385.70 1.518302
385.80 1.517866
385.90 1.517594
386.00 1.517221
386.10 1.516735
386.20 1.516119
386.30 1.515504
386.40 1.515243
386.50 1.51464
386.60 1.514114
386.70 1.513769
386.80 1.513096
386.90 1.512643
387.00 1.512299
387.10 1.511955
387.20 1.511174
387.30 1.51083
387.40 1.510487
387.50 1.509902
387.60 1.509434
387.70 1.508982
387.80 1.508531
387.90 1.50808
388.00 1.507561
388.10 1.507219
388.20 1.506581
388.30 1.506081
388.40 1.505581
388.50 1.505119
388.60 1.504645
388.70 1.504263
388.80 1.503693
388.90 1.503191
389.00 1.502851
389.10 1.502257
389.20 1.501928
389.30 1.501478
389.40 1.500929
389.50 1.500437
389.60 1.499953
389.70 1.499286
389.80 1.49881
389.90 1.498335
390.00 1.49786
390.10 1.497385
390.20 1.49691
390.30 1.496461
390.40 1.496041
390.50 1.49562
390.60 1.4952
390.70 1.494781
390.80 1.49431
390.90 1.493788
391.00 1.493145
391.10 1.49259
391.20 1.492112
391.30 1.491791
391.40 1.491314
391.50 1.490837
391.60 1.490361
391.70 1.489884
391.80 1.489409
391.90 1.488987
392.00 1.48854
392.10 1.487966
392.20 1.487375
392.30 1.486761
392.40 1.486307
392.50 1.485953
392.60 1.485621
392.70 1.484939
392.80 1.484533
392.90 1.483936
393.00 1.483632
393.10 1.483261
393.20 1.482805
393.30 1.482263
393.40 1.481702
393.50 1.481292
393.60 1.48062
393.70 1.480291
393.80 1.479577
393.90 1.479248
394.00 1.478882
394.10 1.478232
394.20 1.477696
394.30 1.477237
394.40 1.476761
394.50 1.476399
394.60 1.475886
394.70 1.475364
394.80 1.47481
394.90 1.474263
395.00 1.473923
395.10 1.473472
395.20 1.47307
395.30 1.472598
395.40 1.472127
395.50 1.47158
395.60 1.471007
395.70 1.470459
395.80 1.469979
395.90 1.469499
396.00 1.469042
396.10 1.468729
396.20 1.468196
396.30 1.467608
396.40 1.467284
396.50 1.466893
396.60 1.466221
396.70 1.465899
396.80 1.465329
396.90 1.464838
397.00 1.464516
397.10 1.463778
397.20 1.463457
397.30 1.462791
397.40 1.462316
397.50 1.461841
397.60 1.461369
397.70 1.460928
397.80 1.460488
397.90 1.460048
398.00 1.45961
398.10 1.459172
398.20 1.458675
398.30 1.458112
398.40 1.457554
398.50 1.45714
398.60 1.456495
398.70 1.456033
398.80 1.45564
398.90 1.455235
399.00 1.454811
399.10 1.454107
399.20 1.453662
399.30 1.453217
399.40 1.452772
399.50 1.452327
399.60 1.451868
399.70 1.451403
399.80 1.450939
399.90 1.450475
400.00 1.450003
400.10 1.449279
400.20 1.448964
400.30 1.448498
400.40 1.448098
400.50 1.447611
400.60 1.447037
400.70 1.446519
400.80 1.446189
400.90 1.445539
401.00 1.445226
401.10 1.444505
401.20 1.444105
401.30 1.443777
401.40 1.44327
401.50 1.442702
401.60 1.442139
401.70 1.441734
401.80 1.4411
401.90 1.440595
402.00 1.440087
402.10 1.439761
402.20 1.439451
402.30 1.438735
402.40 1.438425
402.50 1.43771
402.60 1.437401
402.70 1.437091
402.80 1.436377
402.90 1.435826
403.00 1.435315
403.10 1.435047
403.20 1.434344
403.30 1.433943
403.40 1.433632
403.50 1.433196
403.60 1.4327
403.70 1.431991
403.80 1.43169
403.90 1.43121
404.00 1.430668
404.10 1.430361
404.20 1.429854
404.30 1.429347
404.40 1.428641
404.50 1.428335
404.60 1.427629
404.70 1.427324
404.80 1.42663
404.90 1.426314
405.00 1.425923
405.10 1.425419
405.20 1.424858
405.30 1.424298
405.40 1.423861
405.50 1.423424
405.60 1.422988
405.70 1.422552
405.80 1.422117
405.90 1.421681
406.00 1.421141
406.10 1.420601
406.20 1.420061
406.30 1.419522
406.40 1.418979
406.50 1.418677
406.60 1.417979
406.70 1.41753
406.80 1.417142
406.90 1.416687
407.00 1.416189
407.10 1.415691
407.20 1.415193
407.30 1.414696
407.40 1.414199
407.50 1.413702
407.60 1.413206
407.70 1.41271
407.80 1.412214
407.90 1.411719
408.00 1.411242
408.10 1.41092
408.20 1.410528
408.30 1.409965
408.40 1.409402
408.50 1.40914
408.60 1.408586
408.70 1.408032
408.80 1.407514
408.90 1.407204
409.00 1.406666
409.10 1.406129
409.20 1.405592
409.30 1.405056
409.40 1.404523
409.50 1.404114
409.60 1.403704
409.70 1.403276
409.80 1.402771
409.90 1.402261
410.00 1.401577
410.10 1.401218
410.20 1.400722
410.30 1.400191
410.40 1.399686
410.50 1.39926
410.60 1.398834
410.70 1.398389
410.80 1.397865
410.90 1.397342
411.00 1.396865
411.10 1.396405
411.20 1.395946
411.30 1.395509
411.40 1.395156
411.50 1.394615
411.60 1.394074
411.70 1.393544
411.80 1.393061
411.90 1.392539
412.00 1.392249
412.10 1.391574
412.20 1.391284
412.30 1.390675
412.40 1.390321
412.50 1.389702
412.60 1.389303
412.70 1.388805
412.80 1.388281
412.90 1.387739
413.00 1.387473
413.10 1.386954
413.20 1.386435
413.30 1.385916
413.40 1.385398
413.50 1.38493
413.60 1.384586
413.70 1.384013
413.80 1.38344
413.90 1.382867
414.00 1.382317
414.10 1.381841
414.20 1.381548
414.30 1.381034
414.40 1.380673
414.50 1.380083
414.60 1.379463
414.70 1.378988
414.80 1.378514
414.90 1.37804
415.00 1.377566
415.10 1.377093
415.20 1.376631
415.30 1.376205
415.40 1.375779
415.50 1.37535
415.60 1.374824
415.70 1.374299
415.80 1.373801
415.90 1.37339
416.00 1.372979
416.10 1.372554
416.20 1.372076
416.30 1.371599
416.40 1.371121
416.50 1.370644
416.60 1.370175
416.70 1.369701
416.80 1.369044
416.90 1.36859
417.00 1.368108
417.10 1.367457
417.20 1.36699
417.30 1.366526
417.40 1.366137
417.50 1.365748
417.60 1.365306
417.70 1.364658
417.80 1.364193
417.90 1.363728
418.00 1.363263
418.10 1.362798
418.20 1.362334
418.30 1.361864
418.40 1.361262
418.50 1.360815
418.60 1.360368
418.70 1.359921
418.80 1.359475
418.90 1.359028
419.00 1.358582
419.10 1.358137
419.20 1.357691
419.30 1.357244
419.40 1.356729
419.50 1.356213
419.60 1.355697
419.70 1.355177
419.80 1.354657
419.90 1.354151
420.00 1.353688
420.10 1.353226
420.20 1.352764
420.30 1.352302
420.40 1.35184
420.50 1.351379
420.60 1.350918
420.70 1.350457
420.80 1.349996
420.90 1.349535
421.00 1.349026
421.10 1.348519
421.20 1.348018
421.30 1.347536
421.40 1.347054
421.50 1.346573
421.60 1.346092
421.70 1.345612
421.80 1.345131
421.90 1.344657
422.00 1.3442
422.10 1.343731
422.20 1.34321
422.30 1.34269
422.40 1.342172
422.50 1.341703
422.60 1.341235
422.70 1.340768
422.80 1.3403
422.90 1.339833
423.00 1.339366
423.10 1.3389
423.20 1.338433
423.30 1.337967
423.40 1.337502
423.50 1.337036
423.60 1.336571
423.70 1.336106
423.80 1.335642
423.90 1.335178
424.00 1.334714
424.10 1.33425
424.20 1.333787
424.30 1.333324
424.40 1.332826
424.50 1.332345
424.60 1.331864
424.70 1.331384
424.80 1.330904
424.90 1.330424
425.00 1.329945
425.10 1.329466
425.20 1.328987
425.30 1.328508
425.40 1.32803
425.50 1.327549
425.60 1.327069
425.70 1.32659
425.80 1.32611
425.90 1.325631
426.00 1.325152
426.10 1.324674
426.20 1.324196
426.30 1.323718
426.40 1.32324
426.50 1.322763
426.60 1.322286
426.70 1.321809
426.80 1.321333
426.90 1.320857
427.00 1.320371
427.10 1.319885
427.20 1.3194
427.30 1.318915
427.40 1.31843
427.50 1.317946
427.60 1.317462
427.70 1.316978
427.80 1.316495
427.90 1.316012
428.00 1.315529
428.10 1.315046
428.20 1.314564
428.30 1.314082
428.40 1.313601
428.50 1.313119
428.60 1.312638
428.70 1.312158
428.80 1.311678
428.90 1.311209
429.00 1.31074
429.10 1.310272
429.20 1.309804
429.30 1.309336
429.40 1.308868
429.50 1.308401
429.60 1.307934
429.70 1.307467
429.80 1.307001
429.90 1.306535
430.00 1.306069
430.10 1.305603
430.20 1.305138
430.30 1.304673
430.40 1.304208
430.50 1.303744
430.60 1.30328
430.70 1.302816
430.80 1.302353
430.90 1.301889
431.00 1.301426
431.10 1.300964
431.20 1.300501
431.30 1.300038
431.40 1.299559
431.50 1.29908
431.60 1.298601
431.70 1.298122
431.80 1.297644
431.90 1.297166
432.00 1.296689
432.10 1.296211
432.20 1.295735
432.30 1.295258
432.40 1.294782
432.50 1.294305
432.60 1.29383
432.70 1.293354
432.80 1.292879
432.90 1.292404
433.00 1.29193
433.10 1.291456
433.20 1.290982
433.30 1.29051
433.40 1.290066
433.50 1.289621
433.60 1.289178
433.70 1.288734
433.80 1.288223
433.90 1.287629
434.00 1.287111
434.10 1.286641
434.20 1.28617
434.30 1.2857
434.40 1.28523
434.50 1.28476
434.60 1.28429
434.70 1.283821
434.80 1.283352
434.90 1.282881
435.00 1.282409
435.10 1.281938
435.20 1.281468
435.30 1.280997
435.40 1.280527
435.50 1.280057
435.60 1.279588
435.70 1.279118
435.80 1.27865
435.90 1.278181
436.00 1.277713
436.10 1.277244
436.20 1.276777
436.30 1.276369
436.40 1.276022
436.50 1.275528
436.60 1.275035
436.70 1.274542
436.80 1.27405
436.90 1.273558
437.00 1.273066
437.10 1.272574
437.20 1.272109
437.30 1.271667
437.40 1.271223
437.50 1.270756
437.60 1.27029
437.70 1.269823
437.80 1.269357
437.90 1.268892
438.00 1.268427
438.10 1.267979
438.20 1.26753
438.30 1.267091
438.40 1.266787
438.50 1.266209
438.60 1.265632
438.70 1.265284
438.80 1.264818
438.90 1.264242
439.00 1.263678
439.10 1.263273
439.20 1.262861
439.30 1.262371
439.40 1.261882
439.50 1.261392
439.60 1.260941
439.70 1.260663
439.80 1.260125
439.90 1.259629
440.00 1.259134
440.10 1.258639
440.20 1.258146
440.30 1.257676
440.40 1.257206
440.50 1.256737
440.60 1.256268
440.70 1.255799
440.80 1.25533
440.90 1.254862
441.00 1.254394
441.10 1.253927
441.20 1.253467
441.30 1.253106
441.40 1.252705
441.50 1.252252
441.60 1.2518
441.70 1.251288
441.80 1.250824
441.90 1.25036
442.00 1.249897
442.10 1.249434
442.20 1.248971
442.30 1.248509
442.40 1.24805
442.50 1.247596
442.60 1.247142
442.70 1.246644
442.80 1.246096
442.90 1.245739
443.00 1.24529
443.10 1.244728
443.20 1.244251
443.30 1.24385
443.40 1.243453
443.50 1.243059
443.60 1.24259
443.70 1.24203
443.80 1.24147
443.90 1.241119
444.00 1.240685
444.10 1.240126
444.20 1.239568
444.30 1.239342
444.40 1.238784
444.50 1.238227
444.60 1.237747
444.70 1.237362
444.80 1.236931
444.90 1.236456
445.00 1.235982
445.10 1.235508
445.20 1.235048
445.30 1.234604
445.40 1.234161
445.50 1.233719
445.60 1.233276
445.70 1.232834
445.80 1.232377
445.90 1.231905
446.00 1.231434
446.10 1.230963
446.20 1.230455
446.30 1.229946
446.40 1.229725
446.50 1.229256
446.60 1.228788
446.70 1.22832
446.80 1.22781
446.90 1.22726
447.00 1.226711
447.10 1.226425
447.20 1.225942
447.30 1.225394
447.40 1.224931
447.50 1.224547
447.60 1.224079
447.70 1.223532
447.80 1.223062
447.90 1.222685
448.00 1.222249
448.10 1.221758
448.20 1.221267
448.30 1.220776
448.40 1.220286
448.50 1.219797
448.60 1.219348
448.70 1.218937
448.80 1.218523
448.90 1.21805
449.00 1.217578
449.10 1.217106
449.20 1.216635
449.30 1.216132
449.40 1.215722
449.50 1.215311
449.60 1.214879
449.70 1.214424
449.80 1.213971
449.90 1.213517
450.00 1.213064
450.10 1.212611
450.20 1.212158
450.30 1.211706
450.40 1.211276
450.50 1.210846
450.60 1.210416
450.70 1.209986
450.80 1.209557
450.90 1.209128
451.00 1.208592
451.10 1.208056
451.20 1.207521
451.30 1.207307
451.40 1.206773
451.50 1.206238
451.60 1.205704
451.70 1.205491
451.80 1.204958
451.90 1.204425
452.00 1.204052
452.10 1.20368
452.20 1.203228
452.30 1.202776
452.40 1.202324
452.50 1.201873
452.60 1.201342
452.70 1.200848
452.80 1.200388
452.90 1.199929
453.00 1.19947
453.10 1.199011
453.20 1.198579
453.30 1.198148
453.40 1.197717
453.50 1.197286
453.60 1.196855
453.70 1.196425
453.80 1.195951
453.90 1.195424
454.00 1.194898
454.10 1.194372
454.20 1.193962
454.30 1.193552
454.40 1.193143
454.50 1.192733
454.60 1.192325
454.70 1.191887
454.80 1.191423
454.90 1.19096
455.00 1.190496
455.10 1.190033
455.20 1.189571
455.30 1.189108
455.40 1.188646
455.50 1.188184
455.60 1.187723
455.70 1.187262
455.80 1.186825
455.90 1.186389
456.00 1.185954
456.10 1.185511
456.20 1.18505
456.30 1.184589
456.40 1.184129
456.50 1.183668
456.60 1.183208
456.70 1.182749
456.80 1.182289
456.90 1.18183
457.00 1.181372
457.10 1.180913
457.20 1.180738
457.30 1.180288
457.40 1.179837
457.50 1.179387
457.60 1.178938
457.70 1.178488
457.80 1.178039
457.90 1.17759
458.00 1.177142
458.10 1.176693
458.20 1.176245
458.30 1.175798
458.40 1.17535
458.50 1.174903
458.60 1.174456
458.70 1.174002
458.80 1.173544
458.90 1.173088
459.00 1.172631
459.10 1.172175
459.20 1.171719
459.30 1.171273
459.40 1.170829
459.50 1.170384
459.60 1.16994
459.70 1.169496
459.80 1.169052
459.90 1.168609
460.00 1.168165
460.10 1.167722
460.20 1.16728
460.30 1.166837
460.40 1.166395
460.50 1.165953
460.60 1.165512
460.70 1.165069
460.80 1.164626
460.90 1.164183
461.00 1.16374
461.10 1.163297
461.20 1.162811
461.30 1.162307
461.40 1.161868
461.50 1.161445
461.60 1.161023
461.70 1.160601
461.80 1.160163
461.90 1.159725
462.00 1.159288
462.10 1.15885
462.20 1.158413
462.30 1.157977
462.40 1.15754
462.50 1.157104
462.60 1.156668
462.70 1.156232
462.80 1.155797
462.90 1.155362
463.00 1.154927
463.10 1.154493
463.20 1.154044
463.30 1.15359
463.40 1.153136
463.50 1.152683
463.60 1.15223
463.70 1.151777
463.80 1.151325
463.90 1.150867
464.00 1.150409
464.10 1.149951
464.20 1.149493
464.30 1.149035
464.40 1.148578
464.50 1.148121
464.60 1.147665
464.70 1.147252
464.80 1.146858
464.90 1.146464
465.00 1.14607
465.10 1.145676
465.20 1.145283
465.30 1.144862
465.40 1.144422
465.50 1.143982
465.60 1.143543
465.70 1.143104
465.80 1.142666
465.90 1.142186
466.00 1.141695
466.10 1.141206
466.20 1.140716
466.30 1.14027
466.40 1.139841
466.50 1.139413
466.60 1.138984
466.70 1.138557
466.80 1.138129
466.90 1.137702
467.00 1.137274
467.10 1.136848
467.20 1.136421
467.30 1.135952
467.40 1.135513
467.50 1.135087
467.60 1.13466
467.70 1.134234
467.80 1.133808
467.90 1.133393
468.00 1.132984
468.10 1.132574
468.20 1.132165
468.30 1.131704
468.40 1.13122
468.50 1.130738
468.60 1.130255
468.70 1.129773
468.80 1.129367
468.90 1.129107
469.00 1.128626
469.10 1.128145
469.20 1.127664
469.30 1.127183
469.40 1.126703
469.50 1.126269
469.60 1.125853
469.70 1.125438
469.80 1.125023
469.90 1.124604
470.00 1.124125
470.10 1.12369
470.20 1.123272
470.30 1.122855
470.40 1.122438
470.50 1.122021
470.60 1.121616
470.70 1.121213
470.80 1.120811
470.90 1.120409
471.00 1.119948
471.10 1.119472
471.20 1.118997
471.30 1.118522
471.40 1.118048
471.50 1.117868
471.60 1.117394
471.70 1.116921
471.80 1.116447
471.90 1.115974
472.00 1.115501
472.10 1.115029
472.20 1.114603
472.30 1.114188
472.40 1.113775
472.50 1.113361
472.60 1.112947
472.70 1.112493
472.80 1.11207
472.90 1.111658
473.00 1.111247
473.10 1.110835
473.20 1.110424
473.30 1.110014
473.40 1.109603
473.50 1.109193
473.60 1.108783
473.70 1.108374
473.80 1.107917
473.90 1.10745
474.00 1.106983
474.10 1.106516
474.20 1.106094
474.30 1.105691
474.40 1.105288
474.50 1.104885
474.60 1.10448
474.70 1.104055
474.80 1.10363
474.90 1.103205
475.00 1.10278
475.10 1.102356
475.20 1.101932
475.30 1.101508
475.40 1.101081
475.50 1.100654
475.60 1.100227
475.70 1.0998
475.80 1.099374
475.90 1.098947
476.00 1.098521
476.10 1.098096
476.20 1.097675
476.30 1.097256
476.40 1.096837
476.50 1.096418
476.60 1.096
476.70 1.095582
476.80 1.095164
476.90 1.094739
477.00 1.094312
477.10 1.093885
477.20 1.093458
477.30 1.093032
477.40 1.092606
477.50 1.09218
477.60 1.091754
477.70 1.091329
477.80 1.090904
477.90 1.090479
478.00 1.090055
478.10 1.089631
478.20 1.089207
478.30 1.088783
478.40 1.088359
478.50 1.087936
478.60 1.087513
478.70 1.087068
478.80 1.086614
478.90 1.086205
479.00 1.085806
479.10 1.085408
479.20 1.085011
479.30 1.084613
479.40 1.084191
479.50 1.083755
479.60 1.083319
479.70 1.082884
479.80 1.082449
479.90 1.082014
480.00 1.081579
480.10 1.081145
480.20 1.080711
480.30 1.080277
480.40 1.079843
480.50 1.07941
480.60 1.078977
480.70 1.078544
480.80 1.078112
480.90 1.077679
481.00 1.077247
481.10 1.076816
481.20 1.076394
481.30 1.075973
481.40 1.075552
481.50 1.075131
481.60 1.07471
481.70 1.07429
481.80 1.07387
481.90 1.07345
482.00 1.07303
482.10 1.072611
482.20 1.072193
482.30 1.071788
482.40 1.071384
482.50 1.07098
482.60 1.070576
482.70 1.070173
482.80 1.06977
482.90 1.069366
483.00 1.068964
483.10 1.068561
483.20 1.068159
483.30 1.067757
483.40 1.067355
483.50 1.066953
483.60 1.066552
483.70 1.066111
483.80 1.06567
483.90 1.06523
484.00 1.06479
484.10 1.06435
484.20 1.063945
484.30 1.063555
484.40 1.063166
484.50 1.062776
484.60 1.062387
484.70 1.061995
484.80 1.061557
484.90 1.061119
485.00 1.060682
485.10 1.060245
485.20 1.059808
485.30 1.059371
485.40 1.058934
485.50 1.058498
485.60 1.058062
485.70 1.057652
485.80 1.057242
485.90 1.056832
486.00 1.056423
486.10 1.056014
486.20 1.055605
486.30 1.055196
486.40 1.054787
486.50 1.054379
486.60 1.053971
486.70 1.053566
486.80 1.053202
486.90 1.052837
487.00 1.052473
487.10 1.052108
487.20 1.051676
487.30 1.051245
487.40 1.050814
487.50 1.050382
487.60 1.049952
487.70 1.049521
487.80 1.049091
487.90 1.048661
488.00 1.048231
488.10 1.047802
488.20 1.047376
488.30 1.047002
488.40 1.046627
488.50 1.046253
488.60 1.045879
488.70 1.045505
488.80 1.045077
488.90 1.04465
489.00 1.044222
489.10 1.043795
489.20 1.043369
489.30 1.042942
489.40 1.042516
489.50 1.04209
489.60 1.041665
489.70 1.041239
489.80 1.040818
489.90 1.040447
490.00 1.040076
490.10 1.039705
490.20 1.039335
490.30 1.038965
490.40 1.038541
490.50 1.038118
490.60 1.037695
490.70 1.037272
490.80 1.036849
490.90 1.036427
491.00 1.036005
491.10 1.035583
491.20 1.035161
491.30 1.03474
491.40 1.034319
491.50 1.033898
491.60 1.033516
491.70 1.033216
491.80 1.032908
491.90 1.032488
492.00 1.032068
492.10 1.031649
492.20 1.03123
492.30 1.030811
492.40 1.030392
492.50 1.029974
492.60 1.029556
492.70 1.029138
492.80 1.02872
492.90 1.028303
493.00 1.027886
493.10 1.027469
493.20 1.027052
493.30 1.026636
493.40 1.02622
493.50 1.025804
493.60 1.025395
493.70 1.02508
493.80 1.024765
493.90 1.024412
494.00 1.023997
494.10 1.023582
494.20 1.023168
494.30 1.022754
494.40 1.022341
494.50 1.021927
494.60 1.021514
494.70 1.021101
494.80 1.020688
494.90 1.020276
495.00 1.019864
495.10 1.019452
495.20 1.01904
495.30 1.018629
495.40 1.018217
495.50 1.017806
495.60 1.017396
495.70 1.016985
495.80 1.016575
495.90 1.016165
496.00 1.015756
496.10 1.015346
496.20 1.014941
496.30 1.014598
496.40 1.014254
496.50 1.013911
496.60 1.013568
496.70 1.01316
496.80 1.012752
496.90 1.012345
497.00 1.011937
497.10 1.01153
497.20 1.011123
497.30 1.010717
497.40 1.01031
497.50 1.009904
497.60 1.009498
497.70 1.009093
497.80 1.008687
497.90 1.008282
498.00 1.007877
498.10 1.007473
498.20 1.007068
498.30 1.006664
498.40 1.00626
498.50 1.005857
498.60 1.005453
498.70 1.00505
498.80 1.004647
498.90 1.004244
499.00 1.003842
499.10 1.00344
499.20 1.003038
499.30 1.002636
499.40 1.002234
499.50 1.001833
499.60 1.001432
499.70 1.001035
499.80 1.00069
499.90 1.000345
500.00 1
500.10 0.9996553
500.20 0.9992931
500.30 0.9988937
500.40 0.9984945
500.50 0.9980955
500.60 0.9976968
500.70 0.9972983
500.80 0.9969001
500.90 0.9965021
501.00 0.9961043
501.10 0.9957068
501.20 0.9953095
501.30 0.9949124
501.40 0.9945156
501.50 0.9941191
501.60 0.9937227
501.70 0.9933266
501.80 0.9929307
501.90 0.9925351
502.00 0.9921397
502.10 0.9917446
502.20 0.9913496
502.30 0.990955
502.40 0.9905605
502.50 0.9901663
502.60 0.9897723
502.70 0.9893786
502.80 0.9889851
502.90 0.9885918
503.00 0.9881988
503.10 0.987806
503.20 0.9874134
503.30 0.987021
503.40 0.9866289
503.50 0.9862371
503.60 0.9858454
503.70 0.985454
503.80 0.9850629
503.90 0.9846719
504.00 0.9842812
504.10 0.9838908
504.20 0.9835005
504.30 0.9831105
504.40 0.9827207
504.50 0.9823312
504.60 0.9819419
504.70 0.9815528
504.80 0.9811639
504.90 0.9807753
505.00 0.9803869
505.10 0.9799988
505.20 0.9796109
505.30 0.9792232
505.40 0.9788357
505.50 0.9784485
505.60 0.9780615
505.70 0.9776747
505.80 0.9772881
505.90 0.9769018
506.00 0.9765157
506.10 0.9761299
506.20 0.9757442
506.30 0.9753588
506.40 0.9749737
506.50 0.9745887
506.60 0.974204
506.70 0.9738195
506.80 0.9734352
506.90 0.9730512
507.00 0.9726674
507.10 0.9722838
507.20 0.9719005
507.30 0.9715173
507.40 0.9711344
507.50 0.9707517
507.60 0.9703693
507.70 0.9699871
507.80 0.9696051
507.90 0.9692233
508.00 0.9688418
508.10 0.9684604
508.20 0.9680793
508.30 0.9676985
508.40 0.9673178
508.50 0.9669374
508.60 0.9665572
508.70 0.9661772
508.80 0.9657975
508.90 0.965418
509.00 0.9650387
509.10 0.9646596
509.20 0.9642807
509.30 0.9639021
509.40 0.9635237
509.50 0.9631455
509.60 0.9627675
509.70 0.9623898
509.80 0.9620123
509.90 0.961635
510.00 0.9612579
510.10 0.960881
510.20 0.9605044
510.30 0.9601229
510.40 0.9597273
510.50 0.9593319
510.60 0.9589368
510.70 0.9585419
510.80 0.9581472
510.90 0.9577527
511.00 0.9573585
511.10 0.9569645
511.20 0.9565708
511.30 0.9561773
511.40 0.955784
511.50 0.955391
511.60 0.9550043
511.70 0.9546311
511.80 0.9542581
511.90 0.9538853
512.00 0.9535127
512.10 0.9531404
512.20 0.9527682
512.30 0.9523963
512.40 0.9520246
512.50 0.9516531
512.60 0.9512819
512.70 0.9509108
512.80 0.95054
512.90 0.9501694
513.00 0.949799
513.10 0.9494288
513.20 0.9490588
513.30 0.9486891
513.40 0.9483195
513.50 0.9479502
513.60 0.9475811
513.70 0.9472122
513.80 0.9468435
513.90 0.9464751
514.00 0.9460985
514.10 0.9457209
514.20 0.9453434
514.30 0.9449662
514.40 0.9445892
514.50 0.9442124
514.60 0.9438358
514.70 0.9434595
514.80 0.9430834
514.90 0.9427075
515.00 0.9423318
515.10 0.9419563
515.20 0.9415811
515.30 0.9412061
515.40 0.9408313
515.50 0.9404567
515.60 0.9400823
515.70 0.9397082
515.80 0.9393343
515.90 0.9389606
516.00 0.9385871
516.10 0.9382138
516.20 0.9378408
516.30 0.937468
516.40 0.9370954
516.50 0.936723
516.60 0.9363508
516.70 0.9359789
516.80 0.9356071
516.90 0.9352356
517.00 0.9348643
517.10 0.9344932
517.20 0.9341223
517.30 0.9337517
517.40 0.9333813
517.50 0.933011
517.60 0.932641
517.70 0.9322712
517.80 0.9319017
517.90 0.9315323
518.00 0.9311632
518.10 0.9307943
518.20 0.9304256
518.30 0.9300571
518.40 0.9296888
518.50 0.9293207
518.60 0.9289529
518.70 0.9285853
518.80 0.9282178
518.90 0.9278506
519.00 0.9274836
519.10 0.9271147
519.20 0.9267436
519.30 0.9263726
519.40 0.9260019
519.50 0.9256314
519.60 0.9252611
519.70 0.9248911
519.80 0.9245212
519.90 0.9241516
520.00 0.9237822
520.10 0.923413
520.20 0.923044
520.30 0.9226752
520.40 0.9223067
520.50 0.9219383
520.60 0.9215702
520.70 0.9212023
520.80 0.9208346
520.90 0.9204671
521.00 0.9200999
521.10 0.9197328
521.20 0.919366
521.30 0.9189993
521.40 0.9186329
521.50 0.9182667
521.60 0.9179008
521.70 0.917535
521.80 0.9171694
521.90 0.9168041
522.00 0.9164389
522.10 0.916074
522.20 0.9157093
522.30 0.9153448
522.40 0.9149805
522.50 0.9146165
522.60 0.9142526
522.70 0.913889
522.80 0.9135255
522.90 0.9131623
523.00 0.9127993
523.10 0.9124365
523.20 0.9120739
523.30 0.9117115
523.40 0.9113493
523.50 0.9109874
523.60 0.9106256
523.70 0.9102641
523.80 0.9099027
523.90 0.9095416
524.00 0.9091807
524.10 0.90882
524.20 0.9084595
524.30 0.9080967
524.40 0.9077322
524.50 0.907368
524.60 0.9070039
524.70 0.9066401
524.80 0.9062764
524.90 0.905913
525.00 0.9055498
525.10 0.9051867
525.20 0.9048239
525.30 0.9044614
525.40 0.904099
525.50 0.9037368
525.60 0.9033749
525.70 0.9030131
525.80 0.9026516
525.90 0.9022902
526.00 0.9019291
526.10 0.9015682
526.20 0.9012075
526.30 0.900847
526.40 0.9004867
526.50 0.9001267
526.60 0.8997668
526.70 0.8994071
526.80 0.8990477
526.90 0.8986885
527.00 0.8983294
527.10 0.8979706
527.20 0.897612
527.30 0.8972536
527.40 0.8968954
527.50 0.8965374
527.60 0.8961796
527.70 0.895822
527.80 0.8954646
527.90 0.8951075
528.00 0.8947505
528.10 0.8943937
528.20 0.8940372
528.30 0.8936809
528.40 0.8933247
528.50 0.8929688
528.60 0.8926131
528.70 0.8922575
528.80 0.8919022
528.90 0.8915471
529.00 0.8911922
529.10 0.8908375
529.20 0.890483
529.30 0.8901287
529.40 0.8897746
529.50 0.8894195
529.60 0.8890572
529.70 0.8886951
529.80 0.8883332
529.90 0.8879715
530.00 0.88761
530.10 0.8872487
530.20 0.8868877
530.30 0.8865268
530.40 0.8861661
530.50 0.8858057
530.60 0.8854455
530.70 0.8850855
530.80 0.8847256
530.90 0.884366
531.00 0.8840066
531.10 0.8836475
531.20 0.8832885
531.30 0.8829297
531.40 0.8825711
531.50 0.8822128
531.60 0.8818546
531.70 0.8814967
531.80 0.8811389
531.90 0.8807814
532.00 0.8804241
532.10 0.880067
532.20 0.8797158
532.30 0.8793679
532.40 0.8790201
532.50 0.8786725
532.60 0.8783251
532.70 0.8779779
532.80 0.8776309
532.90 0.8772842
533.00 0.8769376
533.10 0.8765912
533.20 0.876245
533.30 0.875899
533.40 0.8755532
533.50 0.8752076
533.60 0.8748622
533.70 0.874517
533.80 0.874172
533.90 0.8738272
534.00 0.8734826
534.10 0.8731382
534.20 0.872794
534.30 0.8724499
534.40 0.8721061
534.50 0.8717625
534.60 0.871419
534.70 0.8710758
534.80 0.8707312
534.90 0.8703799
535.00 0.8700289
535.10 0.8696781
535.20 0.8693274
535.30 0.868977
535.40 0.8686268
535.50 0.8682768
535.60 0.8679269
535.70 0.8675773
535.80 0.8672279
535.90 0.8668787
536.00 0.8665296
536.10 0.8661808
536.20 0.8658322
536.30 0.8654838
536.40 0.8651355
536.50 0.8647875
536.60 0.8644397
536.70 0.8640921
536.80 0.8637446
536.90 0.8633974
537.00 0.8630504
537.10 0.8627035
537.20 0.8623569
537.30 0.8620105
537.40 0.8616642
537.50 0.8613182
537.60 0.8609723
537.70 0.8606267
537.80 0.8602813
537.90 0.859936
538.00 0.859591
538.10 0.8592461
538.20 0.8589014
538.30 0.858557
538.40 0.8582127
538.50 0.8578686
538.60 0.8575248
538.70 0.8571811
538.80 0.8568376
538.90 0.8564943
539.00 0.8561512
539.10 0.8558084
539.20 0.8554657
539.30 0.8551232
539.40 0.8547809
539.50 0.8544387
539.60 0.8540968
539.70 0.8537551
539.80 0.8534136
539.90 0.8530722
540.00 0.8527311
540.10 0.8523902
540.20 0.8520496
540.30 0.8517093
540.40 0.8513692
540.50 0.8510292
540.60 0.8506895
540.70 0.85035
540.80 0.8500106
540.90 0.8496715
541.00 0.8493325
541.10 0.8489938
541.20 0.8486552
541.30 0.8483168
541.40 0.8479786
541.50 0.8476406
541.60 0.8473028
541.70 0.8469652
541.80 0.8466278
541.90 0.8462905
542.00 0.8459535
542.10 0.8456167
542.20 0.84528
542.30 0.8449435
542.40 0.8446073
542.50 0.8442712
542.60 0.8439353
542.70 0.8435996
542.80 0.8432641
542.90 0.8429287
543.00 0.8425936
543.10 0.8422587
543.20 0.8419239
543.30 0.8415893
543.40 0.841255
543.50 0.8409208
543.60 0.8405868
543.70 0.840253
543.80 0.8399193
543.90 0.8395859
544.00 0.8392527
544.10 0.8389196
544.20 0.8385867
544.30 0.8382541
544.40 0.8379216
544.50 0.8375893
544.60 0.8372571
544.70 0.8369252
544.80 0.8365935
544.90 0.8362619
545.00 0.8359305
545.10 0.8355994
545.20 0.8352684
545.30 0.8349376
545.40 0.8346069
545.50 0.8342765
545.60 0.8339408
545.70 0.8336029
545.80 0.8332652
545.90 0.8329277
546.00 0.8325904
546.10 0.8322533
546.20 0.8319164
546.30 0.8315796
546.40 0.8312431
546.50 0.8309067
546.60 0.8305706
546.70 0.8302346
546.80 0.8298988
546.90 0.8295632
547.00 0.8292278
547.10 0.8288926
547.20 0.8285576
547.30 0.8282227
547.40 0.8278881
547.50 0.8275536
547.60 0.8272194
547.70 0.8268853
547.80 0.8265514
547.90 0.8262177
548.00 0.8258842
548.10 0.8255509
548.20 0.8252177
548.30 0.8248848
548.40 0.824552
548.50 0.8242194
548.60 0.823887
548.70 0.8235548
548.80 0.8232228
548.90 0.822891
549.00 0.8225593
549.10 0.8222279
549.20 0.8218966
549.30 0.8215655
549.40 0.8212346
549.50 0.8209039
549.60 0.8205734
549.70 0.820243
549.80 0.8199129
549.90 0.8195829
550.00 0.8192531
550.10 0.8189236
550.20 0.8185941
550.30 0.8182649
550.40 0.8179359
550.50 0.817607
550.60 0.8172784
550.70 0.8169499
550.80 0.8166216
550.90 0.8162934
551.00 0.8159656
551.10 0.8156381
551.20 0.8153109
551.30 0.8149838
551.40 0.814657
551.50 0.8143303
551.60 0.8140038
551.70 0.8136774
551.80 0.8133513
551.90 0.8130253
552.00 0.8126996
552.10 0.812374
552.20 0.8120486
552.30 0.8117233
552.40 0.8113983
552.50 0.8110734
552.60 0.8107487
552.70 0.8104242
552.80 0.8100999
552.90 0.8097758
553.00 0.8094518
553.10 0.8091281
553.20 0.8088045
553.30 0.8084811
553.40 0.8081578
553.50 0.8078348
553.60 0.8075119
553.70 0.8071892
553.80 0.8068667
553.90 0.8065444
554.00 0.8062222
554.10 0.8059003
554.20 0.8055785
554.30 0.8052569
554.40 0.8049354
554.50 0.8046142
554.60 0.8042931
554.70 0.8039722
554.80 0.8036515
554.90 0.803331
555.00 0.8030106
555.10 0.8026905
555.20 0.8023705
555.30 0.8020506
555.40 0.801731
555.50 0.8014115
555.60 0.8010922
555.70 0.8007731
555.80 0.8004542
555.90 0.8001355
556.00 0.7998169
556.10 0.7994985
556.20 0.7991803
556.30 0.7988622
556.40 0.7985444
556.50 0.7982265
556.60 0.7979055
556.70 0.7975847
556.80 0.797264
556.90 0.7969436
557.00 0.7966233
557.10 0.7963031
557.20 0.7959832
557.30 0.7956635
557.40 0.7953439
557.50 0.7950245
557.60 0.7947052
557.70 0.7943862
557.80 0.7940673
557.90 0.7937486
558.00 0.7934301
558.10 0.7931118
558.20 0.7927936
558.30 0.7924757
558.40 0.7921579
558.50 0.7918402
558.60 0.7915228
558.70 0.7912055
558.80 0.7908884
558.90 0.7905715
559.00 0.7902547
559.10 0.7899382
559.20 0.7896218
559.30 0.7893056
559.40 0.7889895
559.50 0.7886736
559.60 0.788358
559.70 0.7880424
559.80 0.7877271
559.90 0.7874119
560.00 0.7870969
560.10 0.7867821
560.20 0.7864675
560.30 0.786153
560.40 0.7858387
560.50 0.7855246
560.60 0.7852107
560.70 0.7848969
560.80 0.7845833
560.90 0.7842699
561.00 0.7839566
561.10 0.7836435
561.20 0.7833306
561.30 0.7830179
561.40 0.7827054
561.50 0.782393
561.60 0.7820808
561.70 0.7817687
561.80 0.7814569
561.90 0.7811452
562.00 0.7808336
562.10 0.7805239
562.20 0.7802168
562.30 0.7799098
562.40 0.779603
562.50 0.7792963
562.60 0.7789899
562.70 0.7786835
562.80 0.7783774
562.90 0.7780714
563.00 0.7777656
563.10 0.77746
563.20 0.7771546
563.30 0.7768493
563.40 0.7765441
563.50 0.7762392
563.60 0.7759344
563.70 0.7756298
563.80 0.7753253
563.90 0.775021
564.00 0.7747169
564.10 0.7744129
564.20 0.7741091
564.30 0.7738055
564.40 0.7735021
564.50 0.7731988
564.60 0.7728956
564.70 0.7725927
564.80 0.7722899
564.90 0.7719851
565.00 0.7716754
565.10 0.7713658
565.20 0.7710563
565.30 0.7707471
565.40 0.770438
565.50 0.7701291
565.60 0.7698203
565.70 0.7695117
565.80 0.7692033
565.90 0.7688951
566.00 0.768587
566.10 0.7682791
566.20 0.7679714
566.30 0.7676638
566.40 0.7673564
566.50 0.7670492
566.60 0.7667421
566.70 0.7664352
566.80 0.7661285
566.90 0.765822
567.00 0.7655156
567.10 0.7652094
567.20 0.7649033
567.30 0.7645975
567.40 0.7642918
567.50 0.7639862
567.60 0.7636808
567.70 0.763375
567.80 0.7630668
567.90 0.7627587
568.00 0.7624508
568.10 0.762143
568.20 0.7618355
568.30 0.7615281
568.40 0.7612208
568.50 0.7609138
568.60 0.7606069
568.70 0.7603001
568.80 0.7599936
568.90 0.7596872
569.00 0.7593809
569.10 0.7590749
569.20 0.758769
569.30 0.7584633
569.40 0.7581577
569.50 0.7578523
569.60 0.7575471
569.70 0.7572421
569.80 0.7569372
569.90 0.7566325
570.00 0.7563279
570.10 0.7560236
570.20 0.7557193
570.30 0.7554153
570.40 0.7551114
570.50 0.7548077
570.60 0.7545042
570.70 0.7542008
570.80 0.7538976
570.90 0.7535945
571.00 0.7532916
571.10 0.7529889
571.20 0.7526864
571.30 0.752384
571.40 0.7520818
571.50 0.7517797
571.60 0.7514778
571.70 0.7511761
571.80 0.7508746
571.90 0.7505732
572.00 0.7502719
572.10 0.7499709
572.20 0.74967
572.30 0.7493692
572.40 0.7490687
572.50 0.7487683
572.60 0.748468
572.70 0.7481679
572.80 0.747868
572.90 0.7475683
573.00 0.7472687
573.10 0.7469693
573.20 0.74667
573.30 0.7463709
573.40 0.7460723
573.50 0.7457742
573.60 0.7454763
573.70 0.7451785
573.80 0.744881
573.90 0.7445835
574.00 0.7442863
574.10 0.7439892
574.20 0.7436922
574.30 0.7433954
574.40 0.7430988
574.50 0.7428024
574.60 0.7425061
574.70 0.7422099
574.80 0.7419139
574.90 0.7416181
575.00 0.7413225
575.10 0.741027
575.20 0.7407317
575.30 0.7404365
575.40 0.7401415
575.50 0.7398466
575.60 0.7395519
575.70 0.7392574
575.80 0.738963
575.90 0.7386688
576.00 0.7383748
576.10 0.7380809
576.20 0.7377872
576.30 0.7374936
576.40 0.7372002
576.50 0.7369069
576.60 0.7366138
576.70 0.7363209
576.80 0.7360281
576.90 0.7357355
577.00 0.735443
577.10 0.7351507
577.20 0.7348586
577.30 0.7345666
577.40 0.7342748
577.50 0.7339831
577.60 0.7336912
577.70 0.7333987
577.80 0.7331063
577.90 0.7328141
578.00 0.7325221
578.10 0.7322302
578.20 0.7319385
578.30 0.7316469
578.40 0.7313555
578.50 0.7310643
578.60 0.7307732
578.70 0.7304823
578.80 0.7301915
578.90 0.7299009
579.00 0.7296104
579.10 0.7293199
579.20 0.7290279
579.30 0.728736
579.40 0.7284442
579.50 0.7281527
579.60 0.7278612
579.70 0.72757
579.80 0.7272789
579.90 0.7269879
580.00 0.7266971
580.10 0.7264069
580.20 0.7261176
580.30 0.7258285
580.40 0.7255395
580.50 0.7252506
580.60 0.7249619
580.70 0.7246734
580.80 0.724385
580.90 0.7240968
581.00 0.7238087
581.10 0.7235208
581.20 0.7232331
581.30 0.7229455
581.40 0.722658
581.50 0.7223707
581.60 0.7220836
581.70 0.7217966
581.80 0.7215098
581.90 0.7212231
582.00 0.7209366
582.10 0.7206453
582.20 0.7203462
582.30 0.7200473
582.40 0.7197485
582.50 0.7194499
582.60 0.7191515
582.70 0.7188532
582.80 0.7185551
582.90 0.7182571
583.00 0.7179593
583.10 0.7176617
583.20 0.7173642
583.30 0.7170669
583.40 0.7167697
583.50 0.7164727
583.60 0.7161843
583.70 0.7159098
583.80 0.7156354
583.90 0.7153612
584.00 0.7150871
584.10 0.7148132
584.20 0.7145394
584.30 0.7142658
584.40 0.7139923
584.50 0.7137189
584.60 0.7134457
584.70 0.7131726
584.80 0.7128997
584.90 0.7126199
585.00 0.7123079
585.10 0.711996
585.20 0.7116958
585.30 0.7114144
585.40 0.7111331
585.50 0.710852
585.60 0.710571
585.70 0.7102901
585.80 0.7100095
585.90 0.7097289
586.00 0.7094486
586.10 0.7091683
586.20 0.7088907
586.30 0.7086171
586.40 0.7083437
586.50 0.7080704
586.60 0.7077973
586.70 0.7075243
586.80 0.7072454
586.90 0.7069568
587.00 0.7066684
587.10 0.7063802
587.20 0.706074
587.30 0.7057386
587.40 0.7054395
587.50 0.7051993
587.60 0.7049593
587.70 0.704634
587.80 0.70429
587.90 0.7040504
588.00 0.703793
588.10 0.7035063
588.20 0.7032197
588.30 0.7029333
588.40 0.7026531
588.50 0.7023828
588.60 0.7021126
588.70 0.7018426
588.80 0.7015727
588.90 0.701303
589.00 0.701031
589.10 0.7007552
589.20 0.7004796
589.30 0.7002042
589.40 0.6999288
589.50 0.6996537
589.60 0.6993787
589.70 0.6991038
589.80 0.6988291
589.90 0.6985545
590.00 0.6982758
590.10 0.6979902
590.20 0.6977047
590.30 0.6974194
590.40 0.6971343
590.50 0.6968493
590.60 0.6965645
590.70 0.6962798
590.80 0.6959978
590.90 0.6957171
591.00 0.6954365
591.10 0.6951561
591.20 0.6948758
591.30 0.6945957
591.40 0.6943157
591.50 0.6940359
591.60 0.6937591
591.70 0.6934872
591.80 0.6932154
591.90 0.6929438
592.00 0.6926723
592.10 0.692401
592.20 0.6921298
592.30 0.6918587
592.40 0.6915878
592.50 0.6913171
592.60 0.6910464
592.70 0.690776
592.80 0.6905056
592.90 0.6902354
593.00 0.6899654
593.10 0.6896919
593.20 0.6894129
593.30 0.6891339
593.40 0.6888552
593.50 0.6885765
593.60 0.6882981
593.70 0.6880197
593.80 0.6877415
593.90 0.6874635
594.00 0.6871856
594.10 0.6869079
594.20 0.6866303
594.30 0.6863529
594.40 0.6860756
594.50 0.6857984
594.60 0.6855214
594.70 0.6852446
594.80 0.6849679
594.90 0.6846913
595.00 0.6844149
595.10 0.6841384
595.20 0.6838616
595.30 0.6835849
595.40 0.6833084
595.50 0.683032
595.60 0.6827558
595.70 0.6824797
595.80 0.6822037
595.90 0.6819279
596.00 0.6816523
596.10 0.6813768
596.20 0.6811015
596.30 0.6808263
596.40 0.6805512
596.50 0.6802763
596.60 0.6800015
596.70 0.6797312
596.80 0.6794636
596.90 0.6791961
597.00 0.6789288
597.10 0.6786616
597.20 0.6783946
597.30 0.6781277
597.40 0.6778609
597.50 0.6775943
597.60 0.6773269
597.70 0.677058
597.80 0.6767893
597.90 0.6765208
598.00 0.6762523
598.10 0.6759841
598.20 0.6757159
598.30 0.6754479
598.40 0.6751801
598.50 0.6749124
598.60 0.6746448
598.70 0.6743774
598.80 0.6741101
598.90 0.6738429
599.00 0.6735759
599.10 0.673309
599.20 0.6730423
599.30 0.6727757
599.40 0.6725057
599.50 0.6722357
599.60 0.671966
599.70 0.6716963
599.80 0.6714268
599.90 0.6711575
600.00 0.6708882
600.10 0.6706192
600.20 0.6703503
600.30 0.6700815
600.40 0.6698128
600.50 0.6695443
600.60 0.669276
600.70 0.6690077
600.80 0.6687397
600.90 0.6684717
601.00 0.6682039
601.10 0.6679363
601.20 0.6676688
601.30 0.6674014
601.40 0.6671378
601.50 0.6668744
601.60 0.666611
601.70 0.6663479
601.80 0.6660848
601.90 0.6658219
602.00 0.6655592
602.10 0.6652966
602.20 0.6650341
602.30 0.6647717
602.40 0.6645095
602.50 0.6642475
602.60 0.6639855
602.70 0.6637631
602.80 0.6635429
602.90 0.6632778
603.00 0.6630127
603.10 0.6627478
603.20 0.6624831
603.30 0.6622185
603.40 0.661954
603.50 0.6616896
603.60 0.6614254
603.70 0.6611614
603.80 0.6608975
603.90 0.6606337
604.00 0.66037
604.10 0.6601065
604.20 0.6598432
604.30 0.6595799
604.40 0.6593168
604.50 0.6590449
604.60 0.6587731
604.70 0.6585015
604.80 0.65823
604.90 0.6579587
605.00 0.6576875
605.10 0.6574164
605.20 0.6571455
605.30 0.6568747
605.40 0.6566041
605.50 0.6563574
605.60 0.6561109
605.70 0.6558645
605.80 0.6556182
605.90 0.6553721
606.00 0.655126
606.10 0.6548653
606.20 0.6546047
606.30 0.6543442
606.40 0.6540838
606.50 0.6537791
606.60 0.6534745
606.70 0.6532591
606.80 0.6530438
606.90 0.6527396
607.00 0.6524356
607.10 0.6522207
607.20 0.6520059
607.30 0.6517468
607.40 0.6514878
607.50 0.6512289
607.60 0.6509702
607.70 0.6506968
607.80 0.6504236
607.90 0.6501505
608.00 0.6498776
608.10 0.6496048
608.20 0.6493321
608.30 0.6490775
608.40 0.6488231
608.50 0.6485688
608.60 0.6483146
608.70 0.6480675
608.80 0.6478235
608.90 0.6475797
609.00 0.647336
609.10 0.6470924
609.20 0.6468489
609.30 0.6465925
609.40 0.6463362
609.50 0.64608
609.60 0.645824
609.70 0.6455681
609.80 0.6453123
609.90 0.6450566
610.00 0.6448011
610.10 0.6445458
610.20 0.6442905
610.30 0.6440354
610.40 0.6437804
610.50 0.6435256
610.60 0.6432709
610.70 0.6430163
610.80 0.6427618
610.90 0.6425046
611.00 0.6422475
611.10 0.6419905
611.20 0.6417337
611.30 0.641477
611.40 0.6412204
611.50 0.6409639
611.60 0.6407076
611.70 0.6404515
611.80 0.6401954
611.90 0.6399395
612.00 0.6396837
612.10 0.6394281
612.20 0.6391726
612.30 0.6389172
612.40 0.6386649
612.50 0.6384127
612.60 0.6381606
612.70 0.6379087
612.80 0.6376569
612.90 0.6374052
613.00 0.6371536
613.10 0.6369022
613.20 0.6366509
613.30 0.6363998
613.40 0.6361488
613.50 0.6358979
613.60 0.6356471
613.70 0.6353965
613.80 0.6351459
613.90 0.6348956
614.00 0.6346453
614.10 0.6343952
614.20 0.6341452
614.30 0.6338953
614.40 0.6336474
614.50 0.6333995
614.60 0.6331518
614.70 0.6329043
614.80 0.6326499
614.90 0.6323942
615.00 0.6321386
615.10 0.6318832
615.20 0.6316279
615.30 0.6313728
615.40 0.6311178
615.50 0.6308629
615.60 0.6306081
615.70 0.6303535
615.80 0.630099
615.90 0.6298446
616.00 0.6295904
616.10 0.6293363
616.20 0.6290823
616.30 0.6288285
616.40 0.6285748
616.50 0.6283212
616.60 0.6280678
616.70 0.6278145
616.80 0.6275613
616.90 0.6273113
617.00 0.6270614
617.10 0.6268116
617.20 0.6265619
617.30 0.6263124
617.40 0.626063
617.50 0.6258137
617.60 0.6255645
617.70 0.6253155
617.80 0.6250666
617.90 0.6248178
618.00 0.6245692
618.10 0.6243207
618.20 0.6240723
618.30 0.6238241
618.40 0.6235759
618.50 0.623328
618.60 0.6230801
618.70 0.6228323
618.80 0.6225847
618.90 0.6223372
619.00 0.6220899
619.10 0.6218427
619.20 0.6215956
619.30 0.6213486
619.40 0.6211017
619.50 0.620855
619.60 0.6206084
619.70 0.6203619
619.80 0.6201156
619.90 0.6198694
620.00 0.6196233
620.10 0.6193773
620.20 0.6191315
620.30 0.6188858
620.40 0.6186402
620.50 0.6183947
620.60 0.6181494
620.70 0.6179042
620.80 0.6176591
620.90 0.617414
621.00 0.6171686
621.10 0.6169234
621.20 0.6166783
621.30 0.6164333
621.40 0.6161885
621.50 0.6159437
621.60 0.6156991
621.70 0.6154546
621.80 0.6152103
621.90 0.6149661
622.00 0.614722
622.10 0.614478
622.20 0.6142341
622.30 0.6139904
622.40 0.6137468
622.50 0.6135033
622.60 0.61326
622.70 0.6130167
622.80 0.6127736
622.90 0.6125307
623.00 0.6122878
623.10 0.6120451
623.20 0.6118025
623.30 0.61156
623.40 0.6113176
623.50 0.6110754
623.60 0.6108333
623.70 0.6105913
623.80 0.6103494
623.90 0.6101077
624.00 0.6098661
624.10 0.6096246
624.20 0.6093832
624.30 0.609142
624.40 0.6089009
624.50 0.6086599
624.60 0.608419
624.70 0.6081782
624.80 0.6079376
624.90 0.6076971
625.00 0.6074567
625.10 0.6072165
625.20 0.6069763
625.30 0.6067363
625.40 0.6064964
625.50 0.6062566
625.60 0.606017
625.70 0.6057775
625.80 0.6055381
625.90 0.6052988
626.00 0.6050596
626.10 0.6048206
626.20 0.6045817
626.30 0.6043429
626.40 0.6041042
626.50 0.6038656
626.60 0.6036272
626.70 0.6033889
626.80 0.6031507
626.90 0.6029126
627.00 0.6026747
627.10 0.6024377
627.20 0.6022031
627.30 0.6019686
627.40 0.6017343
627.50 0.6015
627.60 0.6012659
627.70 0.6010319
627.80 0.600798
627.90 0.6005642
628.00 0.6003306
628.10 0.600097
628.20 0.5998636
628.30 0.5996303
628.40 0.5993971
628.50 0.5991641
628.60 0.5989311
628.70 0.5986983
628.80 0.5984656
628.90 0.598233
629.00 0.5980005
629.10 0.5977682
629.20 0.597536
629.30 0.5973038
629.40 0.5970718
629.50 0.5968399
629.60 0.5966082
629.70 0.5963765
629.80 0.596145
629.90 0.5959136
630.00 0.5956823
630.10 0.5954511
630.20 0.59522
630.30 0.5949842
630.40 0.5947482
630.50 0.5945122
630.60 0.5942764
630.70 0.5940407
630.80 0.5938051
630.90 0.5935696
631.00 0.5933342
631.10 0.593099
631.20 0.5928639
631.30 0.5926289
631.40 0.592394
631.50 0.5921592
631.60 0.5919246
631.70 0.59169
631.80 0.5914556
631.90 0.5912213
632.00 0.5909872
632.10 0.5907531
632.20 0.5905192
632.30 0.5902854
632.40 0.5900517
632.50 0.5898181
632.60 0.5895846
632.70 0.5893513
632.80 0.5891181
632.90 0.588885
633.00 0.588652
633.10 0.5884191
633.20 0.5881864
633.30 0.5879537
633.40 0.5877215
633.50 0.5874895
633.60 0.5872577
633.70 0.587026
633.80 0.5867944
633.90 0.5865629
634.00 0.5863315
634.10 0.5861002
634.20 0.5858691
634.30 0.5856381
634.40 0.5854072
634.50 0.5851764
634.60 0.5849457
634.70 0.5847152
634.80 0.5844847
634.90 0.5842544
635.00 0.5840242
635.10 0.5837941
635.20 0.5835641
635.30 0.5833343
635.40 0.5831045
635.50 0.5828749
635.60 0.5826454
635.70 0.582416
635.80 0.5821867
635.90 0.5819576
636.00 0.5817285
636.10 0.5814996
636.20 0.5812708
636.30 0.5810421
636.40 0.5808135
636.50 0.580585
636.60 0.5803567
636.70 0.5801284
636.80 0.5799003
636.90 0.5796723
637.00 0.5794444
637.10 0.5792167
637.20 0.578989
637.30 0.5787615
637.40 0.578534
637.50 0.5783067
637.60 0.5780795
637.70 0.5778524
637.80 0.5776255
637.90 0.5773986
638.00 0.5771719
638.10 0.5769452
638.20 0.5767187
638.30 0.5764923
638.40 0.576266
638.50 0.5760398
638.60 0.5758138
638.70 0.5755878
638.80 0.575362
638.90 0.5751363
639.00 0.5749107
639.10 0.5746852
639.20 0.5744598
639.30 0.5742345
639.40 0.5740094
639.50 0.5737843
639.60 0.5735594
639.70 0.5733347
639.80 0.5731104
639.90 0.5728863
640.00 0.5726623
640.10 0.5724383
640.20 0.5722145
640.30 0.5719908
640.40 0.5717673
640.50 0.5715438
640.60 0.5713204
640.70 0.5710972
640.80 0.5708741
640.90 0.570651
641.00 0.5704281
641.10 0.5702053
641.20 0.5699826
641.30 0.5697601
641.40 0.5695376
641.50 0.5693152
641.60 0.569093
641.70 0.5688709
641.80 0.5686488
641.90 0.5684269
642.00 0.5682051
642.10 0.5679834
642.20 0.5677619
642.30 0.5675404
642.40 0.567319
642.50 0.5670978
642.60 0.5668766
642.70 0.5666556
642.80 0.5664347
642.90 0.5662127
643.00 0.565987
643.10 0.5657615
643.20 0.565536
643.30 0.5653107
643.40 0.5650855
643.50 0.5648604
643.60 0.5646354
643.70 0.5644105
643.80 0.5641857
643.90 0.5639611
644.00 0.5637365
644.10 0.5635121
644.20 0.5632878
644.30 0.5630636
644.40 0.5628395
644.50 0.5626155
644.60 0.5623916
644.70 0.5621679
644.80 0.5619442
644.90 0.5617207
645.00 0.5614973
645.10 0.561274
645.20 0.5610508
645.30 0.5608277
645.40 0.5606047
645.50 0.5603818
645.60 0.5601591
645.70 0.5599364
645.80 0.5597139
645.90 0.5594915
646.00 0.5592692
646.10 0.5590484
646.20 0.5588316
646.30 0.558615
646.40 0.5583985
646.50 0.558182
646.60 0.5579657
646.70 0.5577495
646.80 0.5575334
646.90 0.5573174
647.00 0.5571015
647.10 0.5568858
647.20 0.5566701
647.30 0.5564545
647.40 0.5562391
647.50 0.5560237
647.60 0.5558085
647.70 0.5555933
647.80 0.5553783
647.90 0.5551633
648.00 0.5549485
648.10 0.5547338
648.20 0.5545192
648.30 0.5543047
648.40 0.5540903
648.50 0.553876
648.60 0.5536618
648.70 0.5534477
648.80 0.5532338
648.90 0.5530199
649.00 0.5528061
649.10 0.5525925
649.20 0.5523789
649.30 0.5521655
649.40 0.5519475
649.50 0.5517295
649.60 0.5515116
649.70 0.5512938
649.80 0.5510761
649.90 0.5508585
650.00 0.550641
650.10 0.5504236
650.20 0.5502063
650.30 0.5499891
650.40 0.5497721
650.50 0.5495551
650.60 0.5493383
650.70 0.5491215
650.80 0.5489049
650.90 0.5486884
651.00 0.548472
651.10 0.5482557
651.20 0.5480395
651.30 0.5478234
651.40 0.5476074
651.50 0.5473915
651.60 0.5471757
651.70 0.54696
651.80 0.5467445
651.90 0.546529
652.00 0.5463137
652.10 0.5460984
652.20 0.5458833
652.30 0.5456683
652.40 0.5454533
652.50 0.5452385
652.60 0.5450263
652.70 0.5448156
652.80 0.544605
652.90 0.5443944
653.00 0.544184
653.10 0.5439737
653.20 0.5437635
653.30 0.5435533
653.40 0.5433433
653.50 0.5431334
653.60 0.5429236
653.70 0.5427139
653.80 0.5425043
653.90 0.5422948
654.00 0.5420854
654.10 0.5418761
654.20 0.5416669
654.30 0.5414578
654.40 0.5412488
654.50 0.5410399
654.60 0.5408312
654.70 0.5406225
654.80 0.5404139
654.90 0.5402054
655.00 0.539997
655.10 0.5397888
655.20 0.5395806
655.30 0.5393725
655.40 0.5391646
655.50 0.5389567
655.60 0.5387489
655.70 0.5385413
655.80 0.5383313
655.90 0.5381215
656.00 0.5379118
656.10 0.5377021
656.20 0.5374926
656.30 0.5372832
656.40 0.5370738
656.50 0.5368646
656.60 0.5366555
656.70 0.5364465
656.80 0.5362376
656.90 0.5360288
657.00 0.53582
657.10 0.5356114
657.20 0.5354029
657.30 0.5351945
657.40 0.5349862
657.50 0.534778
657.60 0.5345699
657.70 0.5343619
657.80 0.5340678
657.90 0.5338443
658.00 0.5336334
658.10 0.5334227
658.20 0.533212
658.30 0.5330014
658.40 0.5327909
658.50 0.5325806
658.60 0.5323703
658.70 0.5321602
658.80 0.5319501
658.90 0.5317401
659.00 0.5315303
659.10 0.5313399
659.20 0.5311787
659.30 0.5309771
659.40 0.5307755
659.50 0.530574
659.60 0.5303726
659.70 0.5301713
659.80 0.5299701
659.90 0.529769
660.00 0.529568
660.10 0.5293671
660.20 0.5291663
660.30 0.5289655
660.40 0.5287466
660.50 0.5285246
660.60 0.5283027
660.70 0.5280808
660.80 0.5278591
660.90 0.5276544
661.00 0.5274497
661.10 0.5272452
661.20 0.5270408
661.30 0.5268364
661.40 0.5266322
661.50 0.526428
661.60 0.526224
661.70 0.52602
661.80 0.5258162
661.90 0.5256283
662.00 0.5254405
662.10 0.5252527
662.20 0.5250651
662.30 0.5248775
662.40 0.5245653
662.50 0.5243697
662.60 0.5241741
662.70 0.5239786
662.80 0.5237832
662.90 0.5235506
663.00 0.5233181
663.10 0.5231603
663.20 0.5230026
663.30 0.5227704
663.40 0.5225383
663.50 0.5223808
663.60 0.5222234
663.70 0.5219969
663.80 0.5217704
663.90 0.5215346
664.00 0.5212971
664.10 0.5211154
664.20 0.5209337
664.30 0.5207521
664.40 0.5205707
664.50 0.5203893
664.60 0.5202079
664.70 0.5199968
664.80 0.5197858
664.90 0.5195749
665.00 0.5193641
665.10 0.5191534
665.20 0.5189428
665.30 0.5187323
665.40 0.5185219
665.50 0.5182899
665.60 0.5180543
665.70 0.5178797
665.80 0.5176854
665.90 0.5174912
666.00 0.5172972
666.10 0.5171032
666.20 0.5169093
666.30 0.5167155
666.40 0.5165218
666.50 0.5163192
666.60 0.5161152
666.70 0.5159112
666.80 0.5157074
666.90 0.5155036
667.00 0.5152999
667.10 0.5150704
667.20 0.5148365
667.30 0.5146822
667.40 0.5145279
667.50 0.5143113
667.60 0.5140837
667.70 0.5139187
667.80 0.5137189
667.90 0.513464
668.00 0.5133103
668.10 0.5130943
668.20 0.5128673
668.30 0.5126716
668.40 0.5124816
668.50 0.5122916
668.60 0.5121017
668.70 0.5119431
668.80 0.5117331
668.90 0.5115232
669.00 0.5113134
669.10 0.5111038
669.20 0.5108942
669.30 0.5106957
669.40 0.5104993
669.50 0.5103029
669.60 0.5101066
669.70 0.5099105
669.80 0.5097144
669.90 0.5095184
670.00 0.5093225
670.10 0.5091268
670.20 0.5089311
670.30 0.5087471
670.40 0.5085653
670.50 0.5083835
670.60 0.5082019
670.70 0.5080203
670.80 0.5078166
670.90 0.507613
671.00 0.5074095
671.10 0.5072061
671.20 0.5070028
671.30 0.5067995
671.40 0.5065964
671.50 0.5063934
671.60 0.5061905
671.70 0.5059877
671.80 0.505785
671.90 0.5056015
672.00 0.5054216
672.10 0.5052417
672.20 0.5050619
672.30 0.5048822
672.40 0.5046847
672.50 0.5044859
672.60 0.5042872
672.70 0.5040887
672.80 0.5038902
672.90 0.5036918
673.00 0.5034935
673.10 0.5032953
673.20 0.5030973
673.30 0.5028221
673.40 0.5026171
673.50 0.5024245
673.60 0.502232
673.70 0.5020396
673.80 0.5018473
673.90 0.5016551
674.00 0.5014629
674.10 0.5012709
674.20 0.5010789
674.30 0.5008871
674.40 0.5006953
674.50 0.5005037
674.60 0.5003121
674.70 0.5001206
674.80 0.4999292
674.90 0.4997379
675.00 0.4995467
675.10 0.4993556
675.20 0.4991645
675.30 0.4989736
675.40 0.4987803
675.50 0.4985867
675.60 0.4983932
675.70 0.4981997
675.80 0.4980064
675.90 0.4978131
676.00 0.49762
676.10 0.4974269
676.20 0.4972339
676.30 0.497041
676.40 0.4968482
676.50 0.4966555
676.60 0.4964629
676.70 0.4962704
676.80 0.496078
676.90 0.4958856
677.00 0.4956934
677.10 0.4955012
677.20 0.4953092
677.30 0.4951172
677.40 0.4949253
677.50 0.4947336
677.60 0.4945419
677.70 0.4943503
677.80 0.4941588
677.90 0.4939662
678.00 0.4937736
678.10 0.493581
678.20 0.4933886
678.30 0.4931962
678.40 0.493004
678.50 0.4928118
678.60 0.4926197
678.70 0.4924277
678.80 0.4922358
678.90 0.492044
679.00 0.4918523
679.10 0.4916626
679.20 0.4914739
679.30 0.4912853
679.40 0.4910968
679.50 0.4909083
679.60 0.49072
679.70 0.4905317
679.80 0.4903436
679.90 0.4901555
680.00 0.4899675
680.10 0.4897796
680.20 0.4895918
680.30 0.4894041
680.40 0.4892165
680.50 0.4890289
680.60 0.4888415
680.70 0.4886541
680.80 0.4884668
680.90 0.4882796
681.00 0.4880925
681.10 0.4879055
681.20 0.4877186
681.30 0.4875318
681.40 0.487345
681.50 0.4871584
681.60 0.4869718
681.70 0.4867854
681.80 0.486599
681.90 0.4864127
682.00 0.4862265
682.10 0.4860403
682.20 0.4858543
682.30 0.4856684
682.40 0.4854825
682.50 0.4852967
682.60 0.485111
682.70 0.4849255
682.80 0.4847399
682.90 0.4845545
683.00 0.4843692
683.10 0.484184
683.20 0.4839988
683.30 0.4838137
683.40 0.4836288
683.50 0.4834439
683.60 0.4832591
683.70 0.4830743
683.80 0.4828897
683.90 0.4827052
684.00 0.4825207
684.10 0.4823363
684.20 0.4821521
684.30 0.4819679
684.40 0.4817838
684.50 0.4815997
684.60 0.4814158
684.70 0.481232
684.80 0.4810482
684.90 0.4808645
685.00 0.480681
685.10 0.4804975
685.20 0.480314
685.30 0.4801307
685.40 0.4799475
685.50 0.4797643
685.60 0.4795813
685.70 0.4793983
685.80 0.4792154
685.90 0.4790313
686.00 0.478847
686.10 0.4786628
686.20 0.4784786
686.30 0.4782946
686.40 0.4781106
686.50 0.4779267
686.60 0.4777429
686.70 0.4775592
686.80 0.4773756
686.90 0.477192
687.00 0.4770086
687.10 0.4768252
687.20 0.476642
687.30 0.4764588
687.40 0.4762757
687.50 0.4760926
687.60 0.4759097
687.70 0.4757269
687.80 0.4755441
687.90 0.4753614
688.00 0.4751789
688.10 0.4749964
688.20 0.4748139
688.30 0.4746316
688.40 0.4744494
688.50 0.4742672
688.60 0.4740852
688.70 0.4739032
688.80 0.4737213
688.90 0.4735395
689.00 0.4733577
689.10 0.4731761
689.20 0.4729945
689.30 0.4728131
689.40 0.4726317
689.50 0.4724504
689.60 0.4722692
689.70 0.472088
689.80 0.471907
689.90 0.471726
690.00 0.4715452
690.10 0.4713644
690.20 0.4711837
690.30 0.471003
690.40 0.4708225
690.50 0.4706421
690.60 0.4704617
690.70 0.4702814
690.80 0.4701012
690.90 0.4699211
691.00 0.4697411
691.10 0.4695611
691.20 0.4693813
691.30 0.4692015
691.40 0.4690218
691.50 0.4688422
691.60 0.4686627
691.70 0.4684833
691.80 0.4683039
691.90 0.4681246
692.00 0.4679455
692.10 0.4677664
692.20 0.4675873
692.30 0.4674084
692.40 0.4672296
692.50 0.4670508
692.60 0.4668721
692.70 0.466693
692.80 0.4665121
692.90 0.4663312
693.00 0.4661504
693.10 0.4659698
693.20 0.4657892
693.30 0.4656086
693.40 0.4654282
693.50 0.4652479
693.60 0.4650676
693.70 0.4648874
693.80 0.4647073
693.90 0.4645273
694.00 0.4643474
694.10 0.4641675
694.20 0.4639878
694.30 0.4638081
694.40 0.4636285
694.50 0.463449
694.60 0.4632696
694.70 0.4630903
694.80 0.462911
694.90 0.4627318
695.00 0.4625528
695.10 0.4623738
695.20 0.4621948
695.30 0.462016
695.40 0.4618373
695.50 0.4616586
695.60 0.46148
695.70 0.4613015
695.80 0.4611231
695.90 0.4609448
696.00 0.4607665
696.10 0.4605884
696.20 0.4604103
696.30 0.4602323
696.40 0.4600544
696.50 0.4598765
696.60 0.4597008
696.70 0.4595257
696.80 0.4593506
696.90 0.4591756
697.00 0.4590007
697.10 0.4588258
697.20 0.4586511
697.30 0.4584764
697.40 0.4583018
697.50 0.4581273
697.60 0.4579529
697.70 0.4577785
697.80 0.4576042
697.90 0.4574301
698.00 0.457256
698.10 0.4570819
698.20 0.456908
698.30 0.4567341
698.40 0.4565603
698.50 0.4563866
698.60 0.456213
698.70 0.4560395
698.80 0.455866
698.90 0.4556927
699.00 0.4555194
699.10 0.4553438
699.20 0.4551678
699.30 0.4549919
699.40 0.4548161
699.50 0.4546404
699.60 0.4544647
699.70 0.4542965
699.80 0.4541289
699.90 0.4539613
700.00 0.4537937
700.10 0.4536263
700.20 0.4534589
700.30 0.4532916
700.40 0.4531244
700.50 0.4529572
700.60 0.4527902
700.70 0.4526232
700.80 0.4524563
700.90 0.4522894
701.00 0.4521227
701.10 0.4519505
701.20 0.4517772
701.30 0.451604
701.40 0.4514308
701.50 0.4512577
701.60 0.4510847
701.70 0.4509118
701.80 0.4507389
701.90 0.4505662
702.00 0.4503935
702.10 0.4502209
702.20 0.4500483
702.30 0.4498759
702.40 0.4497035
702.50 0.4495312
702.60 0.4493613
702.70 0.4491919
702.80 0.4490226
702.90 0.4488534
703.00 0.4486843
703.10 0.4485152
703.20 0.4483463
703.30 0.4481774
703.40 0.4480086
703.50 0.4478398
703.60 0.4476712
703.70 0.4475026
703.80 0.4473341
703.90 0.4471656
704.00 0.4469973
704.10 0.446829
704.20 0.4466515
704.30 0.4464718
704.40 0.4462922
704.50 0.4461127
704.60 0.4459333
704.70 0.4457539
704.80 0.4455747
704.90 0.4453955
705.00 0.4452164
705.10 0.4450374
705.20 0.4448656
705.30 0.4446955
705.40 0.4445256
705.50 0.4443557
705.60 0.4441859
705.70 0.4440161
705.80 0.4438553
705.90 0.4436967
706.00 0.4435381
706.10 0.4433797
706.20 0.4431946
706.30 0.4430035
706.40 0.4428656
706.50 0.4427402
706.60 0.4424836
706.70 0.4423584
706.80 0.4421801
706.90 0.4419895
707.00 0.4418254
707.10 0.4416677
707.20 0.44151
707.30 0.4413525
707.40 0.4411861
707.50 0.4410178
707.60 0.4408495
707.70 0.4406813
707.80 0.4405132
707.90 0.4403451
708.00 0.4401807
708.10 0.4400172
708.20 0.4398537
708.30 0.4396903
708.40 0.439527
708.50 0.4393638
708.60 0.4392006
708.70 0.4390375
708.80 0.4388745
708.90 0.4387116
709.00 0.4385474
709.10 0.438383
709.20 0.4382187
709.30 0.4380544
709.40 0.4378902
709.50 0.4377261
709.60 0.4375621
709.70 0.4373981
709.80 0.4372342
709.90 0.4370704
710.00 0.4369067
710.10 0.436743
710.20 0.4365794
710.30 0.4364159
710.40 0.4362525
710.50 0.4360891
710.60 0.4359236
710.70 0.4357577
710.80 0.4355919
710.90 0.4354261
711.00 0.4352604
711.10 0.4350948
711.20 0.4349293
711.30 0.4347638
711.40 0.4345984
711.50 0.4344331
711.60 0.4342679
711.70 0.4341027
711.80 0.4339377
711.90 0.4337726
712.00 0.4336077
712.10 0.4334396
712.20 0.4332709
712.30 0.4331022
712.40 0.4329336
712.50 0.4327651
712.60 0.4325967
712.70 0.4324283
712.80 0.43226
712.90 0.4320918
713.00 0.4319237
713.10 0.4317556
713.20 0.4315876
713.30 0.4314197
713.40 0.4312519
713.50 0.4310842
713.60 0.4309165
713.70 0.4307523
713.80 0.4305951
713.90 0.4304379
714.00 0.4302809
714.10 0.4301201
714.20 0.4299586
714.30 0.4297971
714.40 0.4296357
714.50 0.4294743
714.60 0.4293131
714.70 0.4291519
714.80 0.4289908
714.90 0.4288297
715.00 0.4286688
715.10 0.4285079
715.20 0.428347
715.30 0.4281863
715.40 0.4280256
715.50 0.427865
715.60 0.4277045
715.70 0.427544
715.80 0.4273837
715.90 0.4272234
716.00 0.4270631
716.10 0.426903
716.20 0.4267429
716.30 0.4265828
716.40 0.4264229
716.50 0.426263
716.60 0.4260979
716.70 0.4259317
716.80 0.4257655
716.90 0.4255994
717.00 0.4254333
717.10 0.4252673
717.20 0.4251015
717.30 0.4249356
717.40 0.4247699
717.50 0.4246042
717.60 0.4244387
717.70 0.4242732
717.80 0.4241077
717.90 0.4239424
718.00 0.4237771
718.10 0.4236119
718.20 0.423451
718.30 0.4232924
718.40 0.423134
718.50 0.4229756
718.60 0.4228172
718.70 0.422659
718.80 0.4225008
718.90 0.4223427
719.00 0.4221847
719.10 0.4220267
719.20 0.4218688
719.30 0.421711
719.40 0.4215532
719.50 0.4213955
719.60 0.4212379
719.70 0.4210804
719.80 0.4209229
719.90 0.4207655
720.00 0.4206082
720.10 0.4204509
720.20 0.4202937
720.30 0.4201366
720.40 0.4199796
720.50 0.4198226
720.60 0.4196657
720.70 0.4195351
720.80 0.4194187
720.90 0.4192627
721.00 0.4191051
721.10 0.4189476
721.20 0.4187901
721.30 0.4186327
721.40 0.4184754
721.50 0.4183182
721.60 0.418161
721.70 0.4180039
721.80 0.4178468
721.90 0.4176899
722.00 0.417533
722.10 0.4173762
722.20 0.4172194
722.30 0.4170627
722.40 0.4169061
722.50 0.4167496
722.60 0.4165931
722.70 0.4164362
722.80 0.4162792
722.90 0.4161222
723.00 0.4159654
723.10 0.4158085
723.20 0.4156518
723.30 0.4154951
723.40 0.4153385
723.50 0.4151819
723.60 0.4150255
723.70 0.4148691
723.80 0.4147128
723.90 0.4145565
724.00 0.4144003
724.10 0.4142442
724.20 0.4140848
724.30 0.4139236
724.40 0.4137625
724.50 0.4136014
724.60 0.4134405
724.70 0.4132796
724.80 0.4131188
724.90 0.412958
725.00 0.4127974
725.10 0.4126368
725.20 0.4124763
725.30 0.4123158
725.40 0.4121554
725.50 0.4119951
725.60 0.4118349
725.70 0.4116747
725.80 0.4115207
725.90 0.41137
726.00 0.4112194
726.10 0.4110689
726.20 0.4109184
726.30 0.410768
726.40 0.4106176
726.50 0.4104673
726.60 0.4103171
726.70 0.410167
726.80 0.4100142
726.90 0.40986
727.00 0.409706
727.10 0.409552
727.20 0.409398
727.30 0.4092441
727.40 0.409097
727.50 0.4089536
727.60 0.4088103
727.70 0.408667
727.80 0.4085037
727.90 0.4083296
728.00 0.4081958
728.10 0.40796
728.20 0.407848
728.30 0.407736
728.40 0.4075839
728.50 0.4074103
728.60 0.4072568
728.70 0.4071142
728.80 0.4069716
728.90 0.4068291
729.00 0.40668
729.10 0.4065273
729.20 0.4063748
729.30 0.4062223
729.40 0.4060698
729.50 0.4059174
729.60 0.4057598
729.70 0.4055994
729.80 0.405439
729.90 0.4052787
730.00 0.4051185
730.10 0.4049583
730.20 0.4047983
730.30 0.4046383
730.40 0.4044783
730.50 0.4043185
730.60 0.4041657
730.70 0.4040167
730.80 0.4038678
730.90 0.4037189
731.00 0.4035702
731.10 0.4034215
731.20 0.4032728
731.30 0.4031242
731.40 0.4029757
731.50 0.4028273
731.60 0.4026789
731.70 0.4025306
731.80 0.4023823
731.90 0.4022342
732.00 0.4020861
732.10 0.401938
732.20 0.4017884
732.30 0.4016379
732.40 0.4014875
732.50 0.4013372
732.60 0.4011869
732.70 0.4010367
732.80 0.4008866
732.90 0.4007365
733.00 0.4005865
733.10 0.4004366
733.20 0.4002868
733.30 0.400137
733.40 0.3999872
733.50 0.3998376
733.60 0.399688
733.70 0.3995362
733.80 0.3993832
733.90 0.3992303
734.00 0.3990775
734.10 0.3989248
734.20 0.3987721
734.30 0.3986195
734.40 0.3984669
734.50 0.3983144
734.60 0.398162
734.70 0.3980097
734.80 0.3978574
734.90 0.3977052
735.00 0.3975531
735.10 0.397401
735.20 0.397249
735.30 0.3970977
735.40 0.3969544
735.50 0.3968112
735.60 0.396668
735.70 0.3965226
735.80 0.3963761
735.90 0.3962296
736.00 0.3960833
736.10 0.3959369
736.20 0.3957907
736.30 0.3956445
736.40 0.3954984
736.50 0.3953523
736.60 0.3952064
736.70 0.3950604
736.80 0.3949146
736.90 0.3947688
737.00 0.394623
737.10 0.3944774
737.20 0.3943318
737.30 0.3941862
737.40 0.3940408
737.50 0.3938953
737.60 0.39375
737.70 0.3936047
737.80 0.3934595
737.90 0.3933144
738.00 0.3931693
738.10 0.3930242
738.20 0.3928783
738.30 0.3927319
738.40 0.3925855
738.50 0.3924393
738.60 0.3922931
738.70 0.3921469
738.80 0.3920008
738.90 0.3918548
739.00 0.3917088
739.10 0.391563
739.20 0.3914171
739.30 0.3912714
739.40 0.3911257
739.50 0.39098
739.60 0.3908345
739.70 0.390689
739.80 0.3905435
739.90 0.3903981
740.00 0.3902528
740.10 0.3901076
740.20 0.3899624
740.30 0.3898173
740.40 0.3896722
740.50 0.3895272
740.60 0.3893823
740.70 0.3892375
740.80 0.3890927
740.90 0.3889479
741.00 0.3888033
741.10 0.3886587
741.20 0.3885141
741.30 0.3883696
741.40 0.3882252
741.50 0.3880809
741.60 0.3879366
741.70 0.3877924
741.80 0.3876482
741.90 0.3875041
742.00 0.3873601
742.10 0.3872161
742.20 0.3870722
742.30 0.3869284
742.40 0.3867846
742.50 0.3866409
742.60 0.3864972
742.70 0.3863501
742.80 0.3862002
742.90 0.3860503
743.00 0.3859005
743.10 0.3857508
743.20 0.3856012
743.30 0.3854516
743.40 0.385302
743.50 0.3851526
743.60 0.3850032
743.70 0.3848552
743.80 0.3847128
743.90 0.3845705
744.00 0.3844282
744.10 0.384286
744.20 0.3841439
744.30 0.3840018
744.40 0.3838598
744.50 0.3837178
744.60 0.3835759
744.70 0.3834341
744.80 0.3832923
744.90 0.3831506
745.00 0.383009
745.10 0.3828674
745.20 0.3827259
745.30 0.3825844
745.40 0.382443
745.50 0.3823017
745.60 0.3821604
745.70 0.3820192
745.80 0.3818781
745.90 0.381737
746.00 0.3815959
746.10 0.381455
746.20 0.3813141
746.30 0.3811732
746.40 0.3810325
746.50 0.3808917
746.60 0.3807511
746.70 0.3806105
746.80 0.38047
746.90 0.3803295
747.00 0.3801891
747.10 0.3800487
747.20 0.3799085
747.30 0.3797682
747.40 0.3796281
747.50 0.379488
747.60 0.3793479
747.70 0.379208
747.80 0.379068
747.90 0.3789282
748.00 0.3787884
748.10 0.3786487
748.20 0.378509
748.30 0.3783694
748.40 0.3782298
748.50 0.3780903
748.60 0.3779509
748.70 0.3778116
748.80 0.3776722
748.90 0.377533
749.00 0.3773938
749.10 0.3772547
749.20 0.3771156
749.30 0.3769766
749.40 0.3768377
749.50 0.3766988
749.60 0.37656
749.70 0.3764212
749.80 0.3762825
749.90 0.3761439
750.00 0.3760053
750.10 0.3758662
750.20 0.3757257
750.30 0.3755852
750.40 0.3754447
750.50 0.3753043
750.60 0.375164
750.70 0.3750238
750.80 0.3748836
750.90 0.3747434
751.00 0.3746033
751.10 0.3744633
751.20 0.3743234
751.30 0.3741835
751.40 0.3740437
751.50 0.3739039
751.60 0.3737642
751.70 0.3736245
751.80 0.373485
751.90 0.3733454
752.00 0.373206
752.10 0.3730666
752.20 0.3729272
752.30 0.3727879
752.40 0.3726487
752.50 0.3725096
752.60 0.3723705
752.70 0.3722314
752.80 0.3720925
752.90 0.3719535
753.00 0.3718147
753.10 0.3716759
753.20 0.3715372
753.30 0.3713985
753.40 0.3712599
753.50 0.3711213
753.60 0.3709828
753.70 0.3708444
753.80 0.370706
753.90 0.3705701
754.00 0.3704349
754.10 0.3702998
754.20 0.3701648
754.30 0.3700298
754.40 0.3698948
754.50 0.3697599
754.60 0.3696251
754.70 0.3694903
754.80 0.3693556
754.90 0.369221
755.00 0.3690864
755.10 0.3689519
755.20 0.3688174
755.30 0.368683
755.40 0.3685486
755.50 0.3684143
755.60 0.3682801
755.70 0.3681459
755.80 0.3680118
755.90 0.3678777
756.00 0.3677437
756.10 0.3676097
756.20 0.3674758
756.30 0.367342
756.40 0.3672082
756.50 0.3670745
756.60 0.3669408
756.70 0.3668072
756.80 0.3666737
756.90 0.3665402
757.00 0.3664068
757.10 0.3662734
757.20 0.3661401
757.30 0.3660068
757.40 0.3658736
757.50 0.3657405
757.60 0.3656067
757.70 0.365471
757.80 0.3653354
757.90 0.3651998
758.00 0.3650643
758.10 0.3649289
758.20 0.3647935
758.30 0.3646582
758.40 0.3645229
758.50 0.3643877
758.60 0.3642526
758.70 0.3641175
758.80 0.3639824
758.90 0.3638475
759.00 0.3637126
759.10 0.3635777
759.20 0.3634429
759.30 0.3633082
759.40 0.3631735
759.50 0.3630389
759.60 0.3629043
759.70 0.3627698
759.80 0.3626354
759.90 0.362501
760.00 0.3623667
760.10 0.3622324
760.20 0.3620982
760.30 0.361964
760.40 0.3618299
760.50 0.3616959
760.60 0.3615619
760.70 0.361428
760.80 0.3612941
760.90 0.3611603
761.00 0.3610266
761.10 0.3608929
761.20 0.3607592
761.30 0.3606257
761.40 0.3604921
761.50 0.3603587
761.60 0.3602253
761.70 0.3600919
761.80 0.3599587
761.90 0.3598254
762.00 0.3596923
762.10 0.3595591
762.20 0.3594261
762.30 0.3592931
762.40 0.3591601
762.50 0.3590273
762.60 0.3588944
762.70 0.3587617
762.80 0.3586289
762.90 0.3584963
763.00 0.3583637
763.10 0.3582312
763.20 0.3580987
763.30 0.3579662
763.40 0.3578339
763.50 0.3577016
763.60 0.3575693
763.70 0.3574371
763.80 0.357305
763.90 0.3571729
764.00 0.3570409
764.10 0.3569089
764.20 0.356777
764.30 0.3566451
764.40 0.3565133
764.50 0.3563816
764.60 0.3562499
764.70 0.3561183
764.80 0.3559867
764.90 0.3558552
765.00 0.3557237
765.10 0.3555923
765.20 0.3554611
765.30 0.3553302
765.40 0.3551994
765.50 0.3550686
765.60 0.3549379
765.70 0.3548072
765.80 0.3546765
765.90 0.354546
766.00 0.3544154
766.10 0.354285
766.20 0.3541546
766.30 0.3540242
766.40 0.3538939
766.50 0.3537637
766.60 0.3536335
766.70 0.3535034
766.80 0.3533733
766.90 0.3532433
767.00 0.3531134
767.10 0.3529835
767.20 0.3528536
767.30 0.3527238
767.40 0.3525941
767.50 0.3524644
767.60 0.3523348
767.70 0.3522052
767.80 0.3520757
767.90 0.3519463
768.00 0.3518169
768.10 0.3516875
768.20 0.3515582
768.30 0.351429
768.40 0.3512998
768.50 0.3511707
768.60 0.3510416
768.70 0.3509126
768.80 0.3507837
768.90 0.3506547
769.00 0.3505259
769.10 0.3503971
769.20 0.3502684
769.30 0.3501397
769.40 0.3500111
769.50 0.3498825
769.60 0.349754
769.70 0.3496255
769.80 0.3494971
769.90 0.3493688
770.00 0.3492405
770.10 0.3491122
770.20 0.348984
770.30 0.3488559
770.40 0.3487278
770.50 0.3485998
770.60 0.3484718
770.70 0.3483439
770.80 0.348216
770.90 0.3480882
771.00 0.3479605
771.10 0.3478328
771.20 0.3477052
771.30 0.3475776
771.40 0.34745
771.50 0.3473226
771.60 0.3471951
771.70 0.3470678
771.80 0.3469405
771.90 0.3468132
772.00 0.346686
772.10 0.3465588
772.20 0.3464317
772.30 0.3463047
772.40 0.3461777
772.50 0.3460508
772.60 0.3459239
772.70 0.3457971
772.80 0.3456703
772.90 0.3455439
773.00 0.3454176
773.10 0.3452914
773.20 0.3451652
773.30 0.3450391
773.40 0.344913
773.50 0.344787
773.60 0.344661
773.70 0.3445351
773.80 0.3444092
773.90 0.3442834
774.00 0.3441576
774.10 0.3440319
774.20 0.3439063
774.30 0.3437807
774.40 0.3436551
774.50 0.3435296
774.60 0.3434042
774.70 0.3432788
774.80 0.3431534
774.90 0.3430282
775.00 0.3429029
775.10 0.3427778
775.20 0.3426526
775.30 0.3425276
775.40 0.3424026
775.50 0.3422776
775.60 0.3421527
775.70 0.3420278
775.80 0.341903
775.90 0.3417783
776.00 0.3416536
776.10 0.3415289
776.20 0.3414043
776.30 0.3412798
776.40 0.3411553
776.50 0.3410309
776.60 0.3409065
776.70 0.3407822
776.80 0.3406579
776.90 0.3405337
777.00 0.3404095
777.10 0.3402854
777.20 0.3401613
777.30 0.3400373
777.40 0.3399134
777.50 0.3397895
777.60 0.3396656
777.70 0.3395418
777.80 0.339418
777.90 0.3392943
778.00 0.3391707
778.10 0.3390471
778.20 0.3389236
778.30 0.3388001
778.40 0.3386767
778.50 0.3385533
778.60 0.3384299
778.70 0.3383067
778.80 0.3381834
778.90 0.3380603
779.00 0.3379371
779.10 0.3378141
779.20 0.337691
779.30 0.3375681
779.40 0.3374452
779.50 0.3373223
779.60 0.3371995
779.70 0.3370767
779.80 0.336954
779.90 0.3368314
780.00 0.3367088
780.10 0.3365862
780.20 0.3364637
780.30 0.3363413
780.40 0.3362189
780.50 0.3360965
780.60 0.3359754
780.70 0.3358547
780.80 0.3357341
780.90 0.3356136
781.00 0.3354931
781.10 0.3353727
781.20 0.3352523
781.30 0.3351319
781.40 0.3350116
781.50 0.3348914
781.60 0.3347712
781.70 0.3346511
781.80 0.334531
781.90 0.3344109
782.00 0.3342909
782.10 0.334171
782.20 0.3340511
782.30 0.3339313
782.40 0.3338115
782.50 0.3336917
782.60 0.3335721
782.70 0.3334524
782.80 0.3333328
782.90 0.3332133
783.00 0.3330938
783.10 0.3329744
783.20 0.332855
783.30 0.3327356
783.40 0.3326164
783.50 0.3324971
783.60 0.3323779
783.70 0.3322588
783.80 0.3321397
783.90 0.3320207
784.00 0.3319017
784.10 0.3317828
784.20 0.3316639
784.30 0.331545
784.40 0.3314262
784.50 0.3313075
784.60 0.3311881
784.70 0.3310669
784.80 0.3309458
784.90 0.3308247
785.00 0.3307037
785.10 0.3305827
785.20 0.3304618
785.30 0.3303409
785.40 0.3302201
785.50 0.3300993
785.60 0.3299786
785.70 0.3298579
785.80 0.3297373
785.90 0.3296167
786.00 0.3294962
786.10 0.3293758
786.20 0.3292554
786.30 0.329135
786.40 0.3290147
786.50 0.3288944
786.60 0.3287742
786.70 0.328654
786.80 0.3285339
786.90 0.3284139
787.00 0.3282939
787.10 0.3281739
787.20 0.328054
787.30 0.3279341
787.40 0.3278143
787.50 0.3276946
787.60 0.3275749
787.70 0.3274552
787.80 0.3273356
787.90 0.327216
788.00 0.3270965
788.10 0.3269771
788.20 0.3268577
788.30 0.3267383
788.40 0.3266201
788.50 0.3265025
788.60 0.326385
788.70 0.3262675
788.80 0.32615
788.90 0.3260326
789.00 0.3259152
789.10 0.3257979
789.20 0.3256807
789.30 0.3255635
789.40 0.3254463
789.50 0.3253292
789.60 0.3252121
789.70 0.3250951
789.80 0.3249781
789.90 0.3248612
790.00 0.3247444
790.10 0.3246275
790.20 0.3245108
790.30 0.324394
790.40 0.3242774
790.50 0.3241607
790.60 0.3240442
790.70 0.3239276
790.80 0.3238112
790.90 0.3236947
791.00 0.3235783
791.10 0.323462
791.20 0.3233457
791.30 0.3232295
791.40 0.3231133
791.50 0.3229972
791.60 0.3228811
791.70 0.322765
791.80 0.322649
791.90 0.3225331
792.00 0.3224172
792.10 0.3223013
792.20 0.3221855
792.30 0.3220698
792.40 0.3219541
792.50 0.3218384
792.60 0.3217228
792.70 0.3216072
792.80 0.3214917
792.90 0.3213762
793.00 0.3212608
793.10 0.3211454
793.20 0.3210301
793.30 0.3209148
793.40 0.3207996
793.50 0.3206844
793.60 0.3205692
793.70 0.3204542
793.80 0.3203391
793.90 0.3202241
794.00 0.3201092
794.10 0.3199943
794.20 0.3198794
794.30 0.3197646
794.40 0.3196499
794.50 0.3195351
794.60 0.3194205
794.70 0.3193059
794.80 0.3191913
794.90 0.3190768
795.00 0.3189623
795.10 0.3188479
795.20 0.3187335
795.30 0.3186192
795.40 0.3185049
795.50 0.3183907
795.60 0.3182765
795.70 0.3181624
795.80 0.3180483
795.90 0.3179342
796.00 0.3178202
796.10 0.3177063
796.20 0.3175924
796.30 0.3174777
796.40 0.3173629
796.50 0.3172482
796.60 0.3171336
796.70 0.3170189
796.80 0.3169044
796.90 0.3167898
797.00 0.3166754
797.10 0.3165609
797.20 0.3164466
797.30 0.3163322
797.40 0.3162179
797.50 0.3161037
797.60 0.3159895
797.70 0.3158753
797.80 0.3157613
797.90 0.3156472
798.00 0.3155332
798.10 0.3154192
798.20 0.3153053
798.30 0.3151915
798.40 0.3150776
798.50 0.3149639
798.60 0.3148502
798.70 0.3147365
798.80 0.3146229
798.90 0.3145093
799.00 0.3143957
799.10 0.3142823
799.20 0.3141688
799.30 0.3140554
799.40 0.3139421
799.50 0.3138288
799.60 0.3137155
799.70 0.3136023
799.80 0.3134892
799.90 0.3133761
800.00 0.313263
800.10 0.31315
800.20 0.313037
800.30 0.3129241
800.40 0.3128112
800.50 0.3126984
800.60 0.3125856
800.70 0.3124728
800.80 0.3123602
800.90 0.3122475
801.00 0.3121349
801.10 0.3120224
801.20 0.3119099
801.30 0.3117974
801.40 0.311685
801.50 0.3115726
801.60 0.3114603
801.70 0.311348
801.80 0.3112358
801.90 0.3111236
802.00 0.3110115
802.10 0.3108994
802.20 0.3107874
802.30 0.3106754
802.40 0.3105634
802.50 0.3104515
802.60 0.3103396
802.70 0.3102278
802.80 0.3101161
802.90 0.3100044
803.00 0.3098927
803.10 0.309781
803.20 0.3096695
803.30 0.3095579
803.40 0.3094464
803.50 0.309335
803.60 0.3092236
803.70 0.3091123
803.80 0.3090009
803.90 0.3088897
804.00 0.3087785
804.10 0.3086673
804.20 0.3085565
804.30 0.3084471
804.40 0.3083376
804.50 0.3082282
804.60 0.3081189
804.70 0.3080096
804.80 0.3079004
804.90 0.3077911
805.00 0.307682
805.10 0.3075729
805.20 0.3074638
805.30 0.3073548
805.40 0.3072458
805.50 0.3071368
805.60 0.307028
805.70 0.3069191
805.80 0.3068103
805.90 0.3067015
806.00 0.3065928
806.10 0.3064842
806.20 0.3063755
806.30 0.3062669
806.40 0.3061584
806.50 0.3060499
806.60 0.3059415
806.70 0.3058331
806.80 0.3057247
806.90 0.3056164
807.00 0.3055081
807.10 0.3053999
807.20 0.3052917
807.30 0.3051836
807.40 0.3050755
807.50 0.3049674
807.60 0.3048594
807.70 0.3047515
807.80 0.3046435
807.90 0.3045357
808.00 0.3044278
808.10 0.30432
808.20 0.3042123
808.30 0.3041021
808.40 0.3039919
808.50 0.3038818
808.60 0.3037718
808.70 0.3036618
808.80 0.3035518
808.90 0.3034419
809.00 0.303332
809.10 0.3032222
809.20 0.3031124
809.30 0.3030026
809.40 0.3028929
809.50 0.3027833
809.60 0.3026737
809.70 0.3025641
809.80 0.3024546
809.90 0.3023451
810.00 0.3022357
810.10 0.3021263
810.20 0.302017
810.30 0.3019077
810.40 0.3017985
810.50 0.3016893
810.60 0.3015801
810.70 0.301471
810.80 0.3013619
810.90 0.3012529
811.00 0.3011439
811.10 0.301035
811.20 0.3009261
811.30 0.3008172
811.40 0.3007084
811.50 0.3005997
811.60 0.300491
811.70 0.3003823
811.80 0.3002737
811.90 0.3001651
812.00 0.3000566
812.10 0.2999481
812.20 0.2998396
812.30 0.2997328
812.40 0.2996265
812.50 0.2995203
812.60 0.299414
812.70 0.2993078
812.80 0.2992017
812.90 0.2990956
813.00 0.2989895
813.10 0.2988835
813.20 0.2987775
813.30 0.2986716
813.40 0.2985657
813.50 0.2984599
813.60 0.2983541
813.70 0.2982483
813.80 0.2981426
813.90 0.2980369
814.00 0.2979313
814.10 0.2978257
814.20 0.2977202
814.30 0.2976147
814.40 0.2975092
814.50 0.2974038
814.60 0.2972984
814.70 0.2971931
814.80 0.2970878
814.90 0.2969826
815.00 0.2968774
815.10 0.2967722
815.20 0.2966671
815.30 0.296562
815.40 0.296457
815.50 0.296352
815.60 0.296247
815.70 0.2961421
815.80 0.2960373
815.90 0.2959325
816.00 0.2958277
816.10 0.295723
816.20 0.2956183
816.30 0.2955136
816.40 0.295409
816.50 0.2953044
816.60 0.2951999
816.70 0.2950954
816.80 0.294991
816.90 0.2948866
817.00 0.2947823
817.10 0.294678
817.20 0.2945737
817.30 0.2944695
817.40 0.2943653
817.50 0.2942611
817.60 0.294157
817.70 0.294053
817.80 0.293949
817.90 0.293845
818.00 0.2937411
818.10 0.2936372
818.20 0.2935333
818.30 0.2934295
818.40 0.2933258
818.50 0.293222
818.60 0.2931184
818.70 0.2930147
818.80 0.2929111
818.90 0.2928076
819.00 0.2927041
819.10 0.2926006
819.20 0.2924972
819.30 0.2923923
819.40 0.2922866
819.50 0.2921808
819.60 0.2920751
819.70 0.2919695
819.80 0.2918639
819.90 0.2917583
820.00 0.2916528
820.10 0.2915504
820.20 0.2914418
820.30 0.2913286
820.40 0.2912217
820.50 0.2911193
820.60 0.291017
820.70 0.2909148
820.80 0.2908126
820.90 0.2907104
821.00 0.2906083
821.10 0.2905062
821.20 0.2904041
821.30 0.2903021
821.40 0.2902001
821.50 0.2900982
821.60 0.2899963
821.70 0.2898944
821.80 0.2897926
821.90 0.2896909
822.00 0.2895891
822.10 0.2894875
822.20 0.2893858
822.30 0.2892842
822.40 0.2891827
822.50 0.2890811
822.60 0.2889797
822.70 0.2888782
822.80 0.2887768
822.90 0.2886755
823.00 0.2885741
823.10 0.2884729
823.20 0.2883716
823.30 0.2882704
823.40 0.2881693
823.50 0.2880682
823.60 0.2879671
823.70 0.2878661
823.80 0.2877651
823.90 0.2876641
824.00 0.2875632
824.10 0.2874623
824.20 0.2873615
824.30 0.2872607
824.40 0.28716
824.50 0.2870592
824.60 0.2869586
824.70 0.2868579
824.80 0.2867574
824.90 0.2866568
825.00 0.2865563
825.10 0.2864558
825.20 0.2863554
825.30 0.286255
825.40 0.2861547
825.50 0.2860544
825.60 0.2859541
825.70 0.2858539
825.80 0.2857537
825.90 0.2856536
826.00 0.2855534
826.10 0.2854534
826.20 0.2853534
826.30 0.2852519
826.40 0.2851496
826.50 0.2850473
826.60 0.2849451
826.70 0.2848429
826.80 0.2847407
826.90 0.2846386
827.00 0.2845366
827.10 0.2844345
827.20 0.2843325
827.30 0.2842306
827.40 0.2841287
827.50 0.2840268
827.60 0.283925
827.70 0.2838232
827.80 0.2837214
827.90 0.2836197
828.00 0.283518
828.10 0.2834164
828.20 0.2833148
828.30 0.2832133
828.40 0.2831118
828.50 0.2830103
828.60 0.28291
828.70 0.2828106
828.80 0.2827113
828.90 0.282612
829.00 0.2825127
829.10 0.2824135
829.20 0.2823143
829.30 0.2822152
829.40 0.2821161
829.50 0.2820171
829.60 0.281918
829.70 0.2818191
829.80 0.2817201
829.90 0.2816212
830.00 0.2815224
830.10 0.2814235
830.20 0.2813248
830.30 0.281226
830.40 0.2811273
830.50 0.2810287
830.60 0.28093
830.70 0.2808315
830.80 0.2807329
830.90 0.2806344
831.00 0.2805359
831.10 0.2804375
831.20 0.2803391
831.30 0.2802408
831.40 0.2801425
831.50 0.2800442
831.60 0.279946
831.70 0.2798478
831.80 0.2797496
831.90 0.2796515
832.00 0.2795534
832.10 0.2794554
832.20 0.2793574
832.30 0.2792595
832.40 0.2791615
832.50 0.2790637
832.60 0.2789658
832.70 0.278868
832.80 0.2787703
832.90 0.2786725
833.00 0.2785748
833.10 0.2784772
833.20 0.2783796
833.30 0.278282
833.40 0.2781845
833.50 0.278087
833.60 0.2779896
833.70 0.2778921
833.80 0.2777948
833.90 0.2776974
834.00 0.2776001
834.10 0.2775029
834.20 0.2774057
834.30 0.2773085
834.40 0.2772113
834.50 0.2771142
834.60 0.2770172
834.70 0.2769201
834.80 0.2768232
834.90 0.2767262
835.00 0.2766293
835.10 0.2765324
835.20 0.2764356
835.30 0.2763388
835.40 0.276242
835.50 0.2761453
835.60 0.2760486
835.70 0.275952
835.80 0.2758554
835.90 0.2757588
836.00 0.2756623
836.10 0.2755658
836.20 0.2754694
836.30 0.275373
836.40 0.2752766
836.50 0.2751803
836.60 0.275084
836.70 0.2749877
836.80 0.2748915
836.90 0.2747947
837.00 0.2746978
837.10 0.2746008
837.20 0.274504
837.30 0.2744071
837.40 0.2743103
837.50 0.2742135
837.60 0.2741168
837.70 0.2740201
837.80 0.2739235
837.90 0.2738269
838.00 0.2737303
838.10 0.2736337
838.20 0.2735372
838.30 0.2734408
838.40 0.2733444
838.50 0.273248
838.60 0.2731516
838.70 0.2730553
838.80 0.2729591
838.90 0.2728628
839.00 0.2727666
839.10 0.2726705
839.20 0.2725744
839.30 0.2724783
839.40 0.2723822
839.50 0.2722862
839.60 0.2721903
839.70 0.2720943
839.80 0.2719985
839.90 0.2719026
840.00 0.2718068
840.10 0.271711
840.20 0.2716153
840.30 0.2715196
840.40 0.2714239
840.50 0.2713283
840.60 0.2712327
840.70 0.2711372
840.80 0.2710416
840.90 0.2709462
841.00 0.2708507
841.10 0.2707553
841.20 0.27066
841.30 0.2705647
841.40 0.2704694
841.50 0.2703742
841.60 0.270279
841.70 0.2701838
841.80 0.2700887
841.90 0.2699936
842.00 0.2698985
842.10 0.2698035
842.20 0.2697085
842.30 0.2696136
842.40 0.2695187
842.50 0.2694238
842.60 0.269329
842.70 0.2692342
842.80 0.2691395
842.90 0.2690447
843.00 0.2689501
843.10 0.2688554
843.20 0.2687608
843.30 0.2686663
843.40 0.2685717
843.50 0.2684772
843.60 0.2683828
843.70 0.2682884
843.80 0.268194
843.90 0.2680997
844.00 0.2680053
844.10 0.2679111
844.20 0.2678169
844.30 0.2677227
844.40 0.2676285
844.50 0.2675344
844.60 0.2674403
844.70 0.2673463
844.80 0.2672522
844.90 0.2671583
845.00 0.2670643
845.10 0.2669704
845.20 0.2668766
845.30 0.2667841
845.40 0.2666917
845.50 0.2665994
845.60 0.266507
845.70 0.2664148
845.80 0.2663225
845.90 0.2662303
846.00 0.2661381
846.10 0.2660459
846.20 0.2659538
846.30 0.2658617
846.40 0.2657697
846.50 0.2656777
846.60 0.2655857
846.70 0.2654938
846.80 0.2654019
846.90 0.26531
847.00 0.2652182
847.10 0.2651264
847.20 0.2650347
847.30 0.2649429
847.40 0.2648513
847.50 0.2647596
847.60 0.264668
847.70 0.2645764
847.80 0.2644849
847.90 0.2643934
848.00 0.2643019
848.10 0.2642105
848.20 0.2641191
848.30 0.2640277
848.40 0.2639364
848.50 0.2638451
848.60 0.2637539
848.70 0.2636627
848.80 0.2635715
848.90 0.2634803
849.00 0.2633892
849.10 0.2632981
849.20 0.2632071
849.30 0.2631161
849.40 0.2630251
849.50 0.2629342
849.60 0.2628433
849.70 0.2627524
849.80 0.2626616
849.90 0.2625708
850.00 0.2624801
850.10 0.2623894
850.20 0.2622987
850.30 0.262208
850.40 0.2621174
850.50 0.2620268
850.60 0.2619363
850.70 0.2618458
850.80 0.2617553
850.90 0.2616649
851.00 0.2615745
851.10 0.2614841
851.20 0.2613938
851.30 0.2613035
851.40 0.2612132
851.50 0.261123
851.60 0.2610328
851.70 0.2609426
851.80 0.2608525
851.90 0.2607624
852.00 0.2606724
852.10 0.2605824
852.20 0.2604924
852.30 0.2604025
852.40 0.2603125
852.50 0.2602227
852.60 0.2601328
852.70 0.260043
852.80 0.2599533
852.90 0.2598635
853.00 0.2597738
853.10 0.2596842
853.20 0.2595945
853.30 0.2595049
853.40 0.2594154
853.50 0.2593259
853.60 0.2592364
853.70 0.2591465
853.80 0.2590564
853.90 0.2589662
854.00 0.2588761
854.10 0.258786
854.20 0.2586959
854.30 0.2586059
854.40 0.2585159
854.50 0.258426
854.60 0.2583361
854.70 0.2582462
854.80 0.2581564
854.90 0.2580666
855.00 0.2579768
855.10 0.2578871
855.20 0.2577974
855.30 0.2577077
855.40 0.2576181
855.50 0.2575285
855.60 0.2574389
855.70 0.2573494
855.80 0.2572599
855.90 0.2571704
856.00 0.257081
856.10 0.2569916
856.20 0.2569023
856.30 0.256813
856.40 0.2567237
856.50 0.2566344
856.60 0.2565452
856.70 0.256456
856.80 0.2563669
856.90 0.2562778
857.00 0.2561887
857.10 0.2560997
857.20 0.2560107
857.30 0.2559217
857.40 0.2558327
857.50 0.2557438
857.60 0.255655
857.70 0.2555661
857.80 0.2554773
857.90 0.2553886
858.00 0.2552999
858.10 0.2552112
858.20 0.2551225
858.30 0.2550339
858.40 0.2549453
858.50 0.2548567
858.60 0.2547682
858.70 0.2546797
858.80 0.2545913
858.90 0.2545028
859.00 0.2544144
859.10 0.2543261
859.20 0.2542378
859.30 0.2541495
859.40 0.2540612
859.50 0.253973
859.60 0.2538848
859.70 0.2537967
859.80 0.2537086
859.90 0.2536205
860.00 0.2535325
860.10 0.2534445
860.20 0.2533565
860.30 0.2532685
860.40 0.2531806
860.50 0.2530928
860.60 0.2530049
860.70 0.2529171
860.80 0.2528293
860.90 0.2527416
861.00 0.2526539
861.10 0.2525662
861.20 0.2524786
861.30 0.252391
861.40 0.2523034
861.50 0.2522159
861.60 0.2521284
861.70 0.2520409
861.80 0.2519535
861.90 0.2518661
862.00 0.2517787
862.10 0.2516914
862.20 0.2516041
862.30 0.2515171
862.40 0.2514302
862.50 0.2513433
862.60 0.2512564
862.70 0.2511696
862.80 0.2510828
862.90 0.250996
863.00 0.2509092
863.10 0.2508225
863.20 0.2507359
863.30 0.2506492
863.40 0.2505626
863.50 0.250476
863.60 0.2503895
863.70 0.250303
863.80 0.2502165
863.90 0.2501301
864.00 0.2500437
864.10 0.2499573
864.20 0.2498709
864.30 0.2497846
864.40 0.2496984
864.50 0.2496121
864.60 0.2495259
864.70 0.2494397
864.80 0.2493536
864.90 0.2492675
865.00 0.2491814
865.10 0.2490954
865.20 0.2490094
865.30 0.2489234
865.40 0.2488374
865.50 0.2487515
865.60 0.2486657
865.70 0.2485798
865.80 0.248494
865.90 0.2484082
866.00 0.2483225
866.10 0.2482368
866.20 0.2481511
866.30 0.2480654
866.40 0.2479798
866.50 0.2478942
866.60 0.2478087
866.70 0.2477232
866.80 0.2476377
866.90 0.2475523
867.00 0.2474668
867.10 0.2473815
867.20 0.2472961
867.30 0.2472108
867.40 0.2471255
867.50 0.2470402
867.60 0.246955
867.70 0.2468698
867.80 0.2467847
867.90 0.2466996
868.00 0.2466145
868.10 0.2465294
868.20 0.2464444
868.30 0.2463594
868.40 0.2462744
868.50 0.2461895
868.60 0.2461046
868.70 0.2460198
868.80 0.2459349
868.90 0.2458501
869.00 0.2457654
869.10 0.2456807
869.20 0.245596
869.30 0.2455113
869.40 0.2454267
869.50 0.2453421
869.60 0.2452575
869.70 0.245173
869.80 0.2450885
869.90 0.245004
870.00 0.2449195
870.10 0.2448351
870.20 0.2447508
870.30 0.2446664
870.40 0.2445821
870.50 0.2444978
870.60 0.2444136
870.70 0.2443294
870.80 0.2442452
870.90 0.2441613
871.00 0.2440775
871.10 0.2439937
871.20 0.2439099
871.30 0.2438261
871.40 0.2437424
871.50 0.2436588
871.60 0.2435751
871.70 0.2434915
871.80 0.2434079
871.90 0.2433244
872.00 0.2432408
872.10 0.2431574
872.20 0.2430739
872.30 0.2429905
872.40 0.2429071
872.50 0.2428237
872.60 0.2427404
872.70 0.2426571
872.80 0.2425738
872.90 0.2424906
873.00 0.2424074
873.10 0.2423242
873.20 0.2422411
873.30 0.242158
873.40 0.2420749
873.50 0.2419919
873.60 0.2419089
873.70 0.2418259
873.80 0.2417429
873.90 0.24166
874.00 0.2415771
874.10 0.2414943
874.20 0.2414115
874.30 0.2413287
874.40 0.2412459
874.50 0.2411632
874.60 0.2410805
874.70 0.2409978
874.80 0.2409152
874.90 0.2408326
875.00 0.24075
875.10 0.2406675
875.20 0.2405857
875.30 0.2405052
875.40 0.2404247
875.50 0.2403443
875.60 0.2402639
875.70 0.2401835
875.80 0.2401031
875.90 0.2400228
876.00 0.2399425
876.10 0.2398622
876.20 0.239782
876.30 0.2397018
876.40 0.2396216
876.50 0.2395415
876.60 0.2394613
876.70 0.2393813
876.80 0.2393012
876.90 0.2392212
877.00 0.2391412
877.10 0.2390612
877.20 0.2389813
877.30 0.2389014
877.40 0.2388215
877.50 0.2387417
877.60 0.2386619
877.70 0.2385821
877.80 0.2385023
877.90 0.2384226
878.00 0.2383429
878.10 0.2382633
878.20 0.2381836
878.30 0.238104
878.40 0.2380245
878.50 0.2379449
878.60 0.2378654
878.70 0.2377859
878.80 0.2377065
878.90 0.2376271
879.00 0.2375477
879.10 0.2374683
879.20 0.237389
879.30 0.2373097
879.40 0.2372304
879.50 0.2371512
879.60 0.2370706
879.70 0.2369897
879.80 0.2369089
879.90 0.2368281
880.00 0.2367474
880.10 0.2366666
880.20 0.2365859
880.30 0.2365053
880.40 0.2364246
880.50 0.236344
880.60 0.2362634
880.70 0.2361829
880.80 0.2361024
880.90 0.2360219
881.00 0.2359414
881.10 0.235861
881.20 0.2357806
881.30 0.2357002
881.40 0.2356199
881.50 0.2355396
881.60 0.2354593
881.70 0.2353791
881.80 0.2352989
881.90 0.2352187
882.00 0.2351385
882.10 0.2350584
882.20 0.2349783
882.30 0.2348983
882.40 0.2348182
882.50 0.2347382
882.60 0.2346583
882.70 0.2345783
882.80 0.2344984
882.90 0.2344185
883.00 0.2343387
883.10 0.2342589
883.20 0.2341791
883.30 0.2340993
883.40 0.2340196
883.50 0.2339399
883.60 0.2338602
883.70 0.2337806
883.80 0.233701
883.90 0.2336214
884.00 0.2335418
884.10 0.2334623
884.20 0.2333828
884.30 0.2333034
884.40 0.2332239
884.50 0.2331445
884.60 0.2330651
884.70 0.2329858
884.80 0.2329065
884.90 0.2328272
885.00 0.2327479
885.10 0.2326687
885.20 0.2325895
885.30 0.2325103
885.40 0.2324312
885.50 0.2323521
885.60 0.232273
885.70 0.232194
885.80 0.232115
885.90 0.232036
886.00 0.231957
886.10 0.2318781
886.20 0.2317992
886.30 0.2317203
886.40 0.2316415
886.50 0.2315627
886.60 0.2314839
886.70 0.2314051
886.80 0.2313264
886.90 0.2312477
887.00 0.2311691
887.10 0.2310904
887.20 0.2310118
887.30 0.2309333
887.40 0.2308547
887.50 0.2307762
887.60 0.2306977
887.70 0.2306193
887.80 0.2305409
887.90 0.2304625
888.00 0.2303841
888.10 0.2303058
888.20 0.2302275
888.30 0.2301492
888.40 0.2300712
888.50 0.2299932
888.60 0.2299153
888.70 0.2298374
888.80 0.2297595
888.90 0.2296817
889.00 0.2296039
889.10 0.2295261
889.20 0.2294483
889.30 0.2293706
889.40 0.2292929
889.50 0.2292153
889.60 0.2291376
889.70 0.22906
889.80 0.2289825
889.90 0.2289049
890.00 0.2288274
890.10 0.2287499
890.20 0.2286725
890.30 0.228595
890.40 0.2285176
890.50 0.2284403
890.60 0.2283629
890.70 0.2282856
890.80 0.2282083
890.90 0.2281311
891.00 0.2280538
891.10 0.2279766
891.20 0.2278995
891.30 0.2278223
891.40 0.2277452
891.50 0.2276681
891.60 0.2275911
891.70 0.2275141
891.80 0.2274371
891.90 0.2273601
892.00 0.2272832
892.10 0.2272063
892.20 0.2271294
892.30 0.2270525
892.40 0.2269757
892.50 0.2268989
892.60 0.2268221
892.70 0.2267454
892.80 0.2266687
892.90 0.226592
893.00 0.2265154
893.10 0.2264387
893.20 0.2263621
893.30 0.2262856
893.40 0.226209
893.50 0.2261325
893.60 0.2260561
893.70 0.2259796
893.80 0.2259032
893.90 0.2258268
894.00 0.2257504
894.10 0.2256741
894.20 0.2255978
894.30 0.2255215
894.40 0.2254453
894.50 0.225369
894.60 0.2252928
894.70 0.2252167
894.80 0.2251405
894.90 0.2250644
895.00 0.2249884
895.10 0.2249123
895.20 0.2248363
895.30 0.2247603
895.40 0.2246843
895.50 0.2246084
895.60 0.2245325
895.70 0.2244566
895.80 0.2243807
895.90 0.2243049
896.00 0.2242291
896.10 0.2241533
896.20 0.2240776
896.30 0.2240019
896.40 0.2239262
896.50 0.2238505
896.60 0.2237749
896.70 0.2236993
896.80 0.2236237
896.90 0.2235482
897.00 0.2234727
897.10 0.2233972
897.20 0.2233218
897.30 0.2232466
897.40 0.2231714
897.50 0.2230963
897.60 0.2230212
897.70 0.2229462
897.80 0.2228711
897.90 0.2227961
898.00 0.2227211
898.10 0.2226462
898.20 0.2225712
898.30 0.2224964
898.40 0.2224215
898.50 0.2223466
898.60 0.2222718
898.70 0.222197
898.80 0.2221223
898.90 0.2220476
899.00 0.2219728
899.10 0.2218982
899.20 0.2218235
899.30 0.2217489
899.40 0.2216743
899.50 0.2215998
899.60 0.2215252
899.70 0.2214507
899.80 0.2213762
899.90 0.2213018
900.00 0.2212273
900.10 0.2211529
900.20 0.2210786
900.30 0.2210042
900.40 0.2209299
900.50 0.2208556
900.60 0.2207814
900.70 0.2207071
900.80 0.2206329
900.90 0.2205588
901.00 0.2204846
901.10 0.2204105
901.20 0.2203364
901.30 0.2202623
901.40 0.2201883
901.50 0.2201143
901.60 0.2200403
901.70 0.2199663
901.80 0.2198924
901.90 0.2198185
902.00 0.2197446
902.10 0.2196708
902.20 0.2195969
902.30 0.2195231
902.40 0.2194494
902.50 0.2193756
902.60 0.2193019
902.70 0.2192282
902.80 0.2191546
902.90 0.219081
903.00 0.2190073
903.10 0.2189338
903.20 0.2188602
903.30 0.2187867
903.40 0.2187132
903.50 0.2186397
903.60 0.2185663
903.70 0.2184929
903.80 0.2184195
903.90 0.2183461
904.00 0.2182728
904.10 0.2181995
904.20 0.2181262
904.30 0.218053
904.40 0.2179798
904.50 0.2179066
904.60 0.2178334
904.70 0.2177603
904.80 0.2176871
904.90 0.217614
905.00 0.217541
905.10 0.217468
905.20 0.2173949
905.30 0.217322
905.40 0.217249
905.50 0.2171761
905.60 0.2171032
905.70 0.2170303
905.80 0.2169575
905.90 0.2168846
906.00 0.2168119
906.10 0.2167391
906.20 0.2166664
906.30 0.216594
906.40 0.2165215
906.50 0.2164491
906.60 0.2163767
906.70 0.2163044
906.80 0.216232
906.90 0.2161597
907.00 0.2160875
907.10 0.2160152
907.20 0.215943
907.30 0.2158708
907.40 0.2157986
907.50 0.2157265
907.60 0.2156544
907.70 0.2155823
907.80 0.2155102
907.90 0.2154382
908.00 0.2153662
908.10 0.2152942
908.20 0.2152222
908.30 0.2151503
908.40 0.2150784
908.50 0.2150065
908.60 0.2149346
908.70 0.2148628
908.80 0.214791
908.90 0.2147192
909.00 0.2146475
909.10 0.2145758
909.20 0.2145041
909.30 0.2144324
909.40 0.2143608
909.50 0.2142891
909.60 0.2142176
909.70 0.214146
909.80 0.2140745
909.90 0.2140029
910.00 0.2139315
910.10 0.21386
910.20 0.2137886
910.30 0.2137172
910.40 0.2136458
910.50 0.2135744
910.60 0.2135031
910.70 0.2134318
910.80 0.2133605
910.90 0.2132893
911.00 0.2132181
911.10 0.2131469
911.20 0.2130757
911.30 0.2130046
911.40 0.2129334
911.50 0.2128623
911.60 0.2127913
911.70 0.2127202
911.80 0.2126492
911.90 0.2125782
912.00 0.2125073
912.10 0.2124363
912.20 0.2123654
912.30 0.2122945
912.40 0.2122237
912.50 0.2121529
912.60 0.2120821
912.70 0.2120113
912.80 0.2119405
912.90 0.2118698
913.00 0.2117991
913.10 0.2117284
913.20 0.2116578
913.30 0.2115871
913.40 0.2115165
913.50 0.211446
913.60 0.2113754
913.70 0.2113049
913.80 0.2112344
913.90 0.2111639
914.00 0.2110935
914.10 0.2110231
914.20 0.2109527
914.30 0.2108823
914.40 0.210812
914.50 0.2107417
914.60 0.2106714
914.70 0.2106011
914.80 0.2105309
914.90 0.2104607
915.00 0.2103905
915.10 0.2103203
915.20 0.2102502
915.30 0.2101802
915.40 0.2101104
915.50 0.2100406
915.60 0.2099708
915.70 0.209901
915.80 0.2098312
915.90 0.2097615
916.00 0.2096918
916.10 0.2096222
916.20 0.2095525
916.30 0.2094829
916.40 0.2094133
916.50 0.2093438
916.60 0.2092742
916.70 0.2092047
916.80 0.2091352
916.90 0.2090657
917.00 0.2089963
917.10 0.2089269
917.20 0.2088575
917.30 0.2087881
917.40 0.2087188
917.50 0.2086495
917.60 0.2085802
917.70 0.2085109
917.80 0.2084417
917.90 0.2083725
918.00 0.2083033
918.10 0.2082341
918.20 0.208165
918.30 0.2080959
918.40 0.2080268
918.50 0.2079577
918.60 0.2078887
918.70 0.2078197
918.80 0.2077507
918.90 0.2076817
919.00 0.2076128
919.10 0.2075439
919.20 0.207475
919.30 0.2074061
919.40 0.2073373
919.50 0.2072685
919.60 0.2071997
919.70 0.207131
919.80 0.2070622
919.90 0.2069935
920.00 0.2069248
920.10 0.2068562
920.20 0.2067875
920.30 0.2067189
920.40 0.2066503
920.50 0.2065818
920.60 0.2065132
920.70 0.2064447
920.80 0.2063762
920.90 0.2063078
921.00 0.2062393
921.10 0.2061709
921.20 0.2061025
921.30 0.2060342
921.40 0.2059658
921.50 0.2058975
921.60 0.2058292
921.70 0.205761
921.80 0.2056927
921.90 0.2056245
922.00 0.2055563
922.10 0.2054882
922.20 0.20542
922.30 0.2053519
922.40 0.2052838
922.50 0.2052158
922.60 0.2051477
922.70 0.2050797
922.80 0.2050117
922.90 0.2049438
923.00 0.2048758
923.10 0.2048079
923.20 0.20474
923.30 0.2046721
923.40 0.2046043
923.50 0.2045365
923.60 0.2044687
923.70 0.2044009
923.80 0.2043332
923.90 0.2042655
924.00 0.2041978
924.10 0.2041301
924.20 0.2040624
924.30 0.2039948
924.40 0.2039273
924.50 0.2038599
924.60 0.2037926
924.70 0.2037253
924.80 0.2036581
924.90 0.2035908
925.00 0.2035236
925.10 0.2034564
925.20 0.2033892
925.30 0.2033221
925.40 0.203255
925.50 0.2031879
925.60 0.2031208
925.70 0.2030537
925.80 0.2029867
925.90 0.2029197
926.00 0.2028527
926.10 0.2027858
926.20 0.2027189
926.30 0.202652
926.40 0.2025851
926.50 0.2025182
926.60 0.2024514
926.70 0.2023846
926.80 0.2023178
926.90 0.2022511
927.00 0.2021843
927.10 0.2021176
927.20 0.2020509
927.30 0.2019843
927.40 0.2019176
927.50 0.201851
927.60 0.2017844
927.70 0.2017179
927.80 0.2016513
927.90 0.2015848
928.00 0.2015183
928.10 0.2014518
928.20 0.2013854
928.30 0.201319
928.40 0.2012526
928.50 0.2011862
928.60 0.2011198
928.70 0.2010535
928.80 0.2009872
928.90 0.2009209
929.00 0.2008547
929.10 0.2007885
929.20 0.2007222
929.30 0.2006561
929.40 0.2005899
929.50 0.2005238
929.60 0.2004577
929.70 0.2003916
929.80 0.2003255
929.90 0.2002595
930.00 0.2001935
930.10 0.2001275
930.20 0.2000615
930.30 0.1999955
930.40 0.1999296
930.50 0.1998637
930.60 0.1997979
930.70 0.199732
930.80 0.1996662
930.90 0.1996004
931.00 0.1995346
931.10 0.1994688
931.20 0.1994031
931.30 0.1993374
931.40 0.1992717
931.50 0.1992061
931.60 0.1991404
931.70 0.1990748
931.80 0.1990092
931.90 0.1989437
932.00 0.1988781
932.10 0.1988126
932.20 0.1987471
932.30 0.1986816
932.40 0.1986162
932.50 0.1985507
932.60 0.1984853
932.70 0.19842
932.80 0.1983546
932.90 0.1982893
933.00 0.198224
933.10 0.1981587
933.20 0.1980934
933.30 0.1980282
933.40 0.197963
933.50 0.1978978
933.60 0.1978326
933.70 0.197767
933.80 0.1977013
933.90 0.1976357
934.00 0.19757
934.10 0.1975044
934.20 0.1974388
934.30 0.1973732
934.40 0.1973076
934.50 0.1972421
934.60 0.1971766
934.70 0.1971111
934.80 0.1970456
934.90 0.1969802
935.00 0.1969148
935.10 0.1968494
935.20 0.196784
935.30 0.1967186
935.40 0.1966533
935.50 0.196588
935.60 0.1965227
935.70 0.1964575
935.80 0.1963923
935.90 0.196327
936.00 0.1962619
936.10 0.1961967
936.20 0.1961316
936.30 0.1960665
936.40 0.1960014
936.50 0.1959363
936.60 0.1958712
936.70 0.1958062
936.80 0.1957412
936.90 0.1956763
937.00 0.1956113
937.10 0.1955464
937.20 0.1954815
937.30 0.1954166
937.40 0.1953517
937.50 0.1952869
937.60 0.1952221
937.70 0.1951573
937.80 0.1950925
937.90 0.1950278
938.00 0.1949631
938.10 0.1948984
938.20 0.1948337
938.30 0.194769
938.40 0.1947044
938.50 0.1946398
938.60 0.1945752
938.70 0.1945107
938.80 0.1944461
938.90 0.1943816
939.00 0.1943171
939.10 0.1942527
939.20 0.1941882
939.30 0.1941238
939.40 0.1940594
939.50 0.1939951
939.60 0.1939307
939.70 0.1938664
939.80 0.1938021
939.90 0.1937378
940.00 0.1936735
940.10 0.1936093
940.20 0.1935451
940.30 0.1934809
940.40 0.1934167
940.50 0.1933526
940.60 0.1932885
940.70 0.1932244
940.80 0.1931603
940.90 0.1930962
941.00 0.1930322
941.10 0.1929682
941.20 0.1929042
941.30 0.1928403
941.40 0.1927763
941.50 0.1927124
941.60 0.1926485
941.70 0.1925847
941.80 0.1925208
941.90 0.192457
942.00 0.1923932
942.10 0.1923294
942.20 0.1922657
942.30 0.1922019
942.40 0.1921382
942.50 0.1920745
942.60 0.1920109
942.70 0.1919472
942.80 0.1918836
942.90 0.19182
943.00 0.1917568
943.10 0.1916943
943.20 0.1916318
943.30 0.1915693
943.40 0.1915068
943.50 0.1914443
943.60 0.1913819
943.70 0.1913195
943.80 0.1912571
943.90 0.1911947
944.00 0.1911324
944.10 0.1910701
944.20 0.1910078
944.30 0.1909455
944.40 0.1908833
944.50 0.190821
944.60 0.1907588
944.70 0.1906966
944.80 0.1906345
944.90 0.1905723
945.00 0.1905102
945.10 0.1904481
945.20 0.190386
945.30 0.190324
945.40 0.1902619
945.50 0.1901999
945.60 0.1901379
945.70 0.190076
945.80 0.190014
945.90 0.1899521
946.00 0.1898902
946.10 0.1898283
946.20 0.1897665
946.30 0.1897046
946.40 0.1896428
946.50 0.189581
946.60 0.1895192
946.70 0.1894575
946.80 0.1893958
946.90 0.1893341
947.00 0.1892724
947.10 0.1892107
947.20 0.1891491
947.30 0.1890875
947.40 0.1890259
947.50 0.1889643
947.60 0.1889027
947.70 0.1888412
947.80 0.1887797
947.90 0.1887182
948.00 0.1886568
948.10 0.1885953
948.20 0.1885339
948.30 0.1884725
948.40 0.1884111
948.50 0.1883498
948.60 0.1882884
948.70 0.1882271
948.80 0.1881658
948.90 0.1881045
949.00 0.1880433
949.10 0.1879821
949.20 0.1879209
949.30 0.1878597
949.40 0.1877985
949.50 0.1877374
949.60 0.1876763
949.70 0.1876152
949.80 0.1875541
949.90 0.187493
950.00 0.187432
950.10 0.187371
950.20 0.18731
950.30 0.187249
950.40 0.1871881
950.50 0.1871272
950.60 0.1870663
950.70 0.1870054
950.80 0.1869445
950.90 0.1868837
951.00 0.1868229
951.10 0.1867621
951.20 0.1867013
951.30 0.1866406
951.40 0.1865798
951.50 0.1865191
951.60 0.1864584
951.70 0.1863978
951.80 0.1863371
951.90 0.1862765
952.00 0.1862159
952.10 0.1861553
952.20 0.1860947
952.30 0.1860342
952.40 0.1859737
952.50 0.1859134
952.60 0.1858532
952.70 0.1857929
952.80 0.1857327
952.90 0.1856725
953.00 0.1856123
953.10 0.1855522
953.20 0.185492
953.30 0.1854319
953.40 0.1853718
953.50 0.1853117
953.60 0.1852517
953.70 0.1851917
953.80 0.1851316
953.90 0.1850717
954.00 0.1850117
954.10 0.1849517
954.20 0.1848918
954.30 0.1848319
954.40 0.184772
954.50 0.1847122
954.60 0.1846523
954.70 0.1845925
954.80 0.1845327
954.90 0.1844729
955.00 0.1844132
955.10 0.1843534
955.20 0.1842937
955.30 0.184234
955.40 0.1841744
955.50 0.1841147
955.60 0.1840551
955.70 0.1839955
955.80 0.1839359
955.90 0.1838763
956.00 0.1838168
956.10 0.1837572
956.20 0.1836977
956.30 0.1836382
956.40 0.1835788
956.50 0.1835193
956.60 0.1834599
956.70 0.1834005
956.80 0.1833411
956.90 0.1832818
957.00 0.1832224
957.10 0.1831631
957.20 0.1831038
957.30 0.1830445
957.40 0.1829853
957.50 0.182926
957.60 0.1828668
957.70 0.1828076
957.80 0.1827485
957.90 0.1826893
958.00 0.1826302
958.10 0.1825711
958.20 0.182512
958.30 0.1824529
958.40 0.1823939
958.50 0.1823348
958.60 0.1822758
958.70 0.1822168
958.80 0.1821579
958.90 0.1820989
959.00 0.18204
959.10 0.1819811
959.20 0.1819222
959.30 0.1818633
959.40 0.1818045
959.50 0.1817457
959.60 0.1816869
959.70 0.1816281
959.80 0.1815693
959.90 0.1815106
960.00 0.1814519
960.10 0.1813932
960.20 0.1813345
960.30 0.1812758
960.40 0.1812172
960.50 0.1811586
960.60 0.1811
960.70 0.1810414
960.80 0.1809829
960.90 0.1809243
961.00 0.1808658
961.10 0.1808073
961.20 0.1807488
961.30 0.1806904
961.40 0.180632
961.50 0.1805735
961.60 0.1805152
961.70 0.1804568
961.80 0.1803984
961.90 0.1803401
962.00 0.180282
962.10 0.1802239
962.20 0.1801658
962.30 0.1801078
962.40 0.1800497
962.50 0.1799917
962.60 0.1799338
962.70 0.1798758
962.80 0.1798179
962.90 0.1797599
963.00 0.179702
963.10 0.1796441
963.20 0.1795863
963.30 0.1795284
963.40 0.1794706
963.50 0.1794128
963.60 0.179355
963.70 0.1792973
963.80 0.1792395
963.90 0.1791818
964.00 0.1791241
964.10 0.1790664
964.20 0.1790088
964.30 0.1789511
964.40 0.1788935
964.50 0.1788359
964.60 0.1787783
964.70 0.1787208
964.80 0.1786632
964.90 0.1786057
965.00 0.1785482
965.10 0.1784907
965.20 0.1784333
965.30 0.1783758
965.40 0.1783184
965.50 0.178261
965.60 0.1782036
965.70 0.1781463
965.80 0.1780889
965.90 0.1780316
966.00 0.1779743
966.10 0.177917
966.20 0.1778597
966.30 0.1778025
966.40 0.1777453
966.50 0.1776881
966.60 0.1776309
966.70 0.1775737
966.80 0.1775166
966.90 0.1774595
967.00 0.1774024
967.10 0.1773453
967.20 0.1772882
967.30 0.1772312
967.40 0.1771742
967.50 0.1771172
967.60 0.1770602
967.70 0.1770032
967.80 0.1769463
967.90 0.1768893
968.00 0.1768324
968.10 0.1767755
968.20 0.1767187
968.30 0.1766618
968.40 0.176605
968.50 0.1765482
968.60 0.1764914
968.70 0.1764346
968.80 0.1763779
968.90 0.1763212
969.00 0.1762645
969.10 0.1762078
969.20 0.1761511
969.30 0.1760945
969.40 0.1760378
969.50 0.1759812
969.60 0.1759246
969.70 0.1758681
969.80 0.1758115
969.90 0.175755
970.00 0.1756985
970.10 0.175642
970.20 0.1755855
970.30 0.175529
970.40 0.1754726
970.50 0.1754162
970.60 0.1753598
970.70 0.1753034
970.80 0.1752471
970.90 0.1751907
971.00 0.1751344
971.10 0.1750781
971.20 0.1750218
971.30 0.1749656
971.40 0.1749094
971.50 0.1748531
971.60 0.1747971
971.70 0.1747411
971.80 0.1746851
971.90 0.1746292
972.00 0.1745733
972.10 0.1745174
972.20 0.1744615
972.30 0.1744056
972.40 0.1743498
972.50 0.1742939
972.60 0.1742381
972.70 0.1741823
972.80 0.1741266
972.90 0.1740708
973.00 0.1740151
973.10 0.1739594
973.20 0.1739037
973.30 0.173848
973.40 0.1737924
973.50 0.1737367
973.60 0.1736811
973.70 0.1736255
973.80 0.1735699
973.90 0.1735144
974.00 0.1734588
974.10 0.1734033
974.20 0.1733478
974.30 0.1732923
974.40 0.1732369
974.50 0.1731814
974.60 0.173126
974.70 0.1730706
974.80 0.1730152
974.90 0.1729599
975.00 0.1729045
975.10 0.1728492
975.20 0.1727939
975.30 0.1727386
975.40 0.1726833
975.50 0.1726281
975.60 0.1725728
975.70 0.1725176
975.80 0.1724624
975.90 0.1724073
976.00 0.1723521
976.10 0.172297
976.20 0.1722418
976.30 0.1721867
976.40 0.1721317
976.50 0.1720766
976.60 0.1720216
976.70 0.1719665
976.80 0.1719115
976.90 0.1718565
977.00 0.1718016
977.10 0.1717466
977.20 0.1716917
977.30 0.1716368
977.40 0.1715819
977.50 0.171527
977.60 0.1714722
977.70 0.1714173
977.80 0.1713625
977.90 0.1713077
978.00 0.1712529
978.10 0.1711982
978.20 0.1711434
978.30 0.1710887
978.40 0.171034
978.50 0.1709793
978.60 0.1709247
978.70 0.17087
978.80 0.1708154
978.90 0.1707608
979.00 0.1707062
979.10 0.1706516
979.20 0.1705971
979.30 0.1705425
979.40 0.170488
979.50 0.1704335
979.60 0.170379
979.70 0.1703246
979.80 0.1702701
979.90 0.1702157
980.00 0.1701613
980.10 0.1701069
980.20 0.1700526
980.30 0.1699982
980.40 0.1699439
980.50 0.1698896
980.60 0.1698353
980.70 0.169781
980.80 0.1697268
980.90 0.1696725
981.00 0.1696183
981.10 0.1695641
981.20 0.1695099
981.30 0.1694559
981.40 0.1694019
981.50 0.169348
981.60 0.1692941
981.70 0.1692402
981.80 0.1691863
981.90 0.1691325
982.00 0.1690786
982.10 0.1690248
982.20 0.168971
982.30 0.1689172
982.40 0.1688635
982.50 0.1688097
982.60 0.168756
982.70 0.1687023
982.80 0.1686486
982.90 0.1685949
983.00 0.1685413
983.10 0.1684876
983.20 0.168434
983.30 0.1683804
983.40 0.1683268
983.50 0.1682733
983.60 0.1682197
983.70 0.1681662
983.80 0.1681127
983.90 0.1680592
984.00 0.1680057
984.10 0.1679523
984.20 0.1678989
984.30 0.1678454
984.40 0.167792
984.50 0.1677387
984.60 0.1676853
984.70 0.167632
984.80 0.1675786
984.90 0.1675253
985.00 0.167472
985.10 0.1674188
985.20 0.1673655
985.30 0.1673123
985.40 0.1672591
985.50 0.1672059
985.60 0.1671527
985.70 0.1670995
985.80 0.1670464
985.90 0.1669933
986.00 0.1669402
986.10 0.1668871
986.20 0.166834
986.30 0.166781
986.40 0.1667279
986.50 0.1666749
986.60 0.1666219
986.70 0.1665689
986.80 0.166516
986.90 0.166463
987.00 0.1664101
987.10 0.1663572
987.20 0.1663043
987.30 0.1662514
987.40 0.1661986
987.50 0.1661458
987.60 0.1660929
987.70 0.1660401
987.80 0.1659874
987.90 0.1659346
988.00 0.1658818
988.10 0.1658291
988.20 0.1657764
988.30 0.1657237
988.40 0.165671
988.50 0.1656184
988.60 0.1655658
988.70 0.1655131
988.80 0.1654605
988.90 0.1654079
989.00 0.1653554
989.10 0.1653028
989.20 0.1652503
989.30 0.1651978
989.40 0.1651453
989.50 0.1650928
989.60 0.1650404
989.70 0.1649879
989.80 0.1649355
989.90 0.1648831
990.00 0.1648307
990.10 0.1647783
990.20 0.164726
990.30 0.1646736
990.40 0.1646213
990.50 0.164569
990.60 0.1645167
990.70 0.1644645
990.80 0.1644122
990.90 0.16436
991.00 0.1643078
991.10 0.1642557
991.20 0.1642037
991.30 0.1641517
991.40 0.1640998
991.50 0.1640478
991.60 0.1639959
991.70 0.163944
991.80 0.1638921
991.90 0.1638403
992.00 0.1637884
992.10 0.1637366
992.20 0.1636848
992.30 0.163633
992.40 0.1635812
992.50 0.1635294
992.60 0.1634777
992.70 0.163426
992.80 0.1633743
992.90 0.1633226
993.00 0.1632709
993.10 0.1632193
993.20 0.1631676
993.30 0.163116
993.40 0.1630644
993.50 0.1630128
993.60 0.1629612
993.70 0.1629097
993.80 0.1628582
993.90 0.1628066
994.00 0.1627551
994.10 0.1627037
994.20 0.1626522
994.30 0.1626008
994.40 0.1625493
994.50 0.1624979
994.60 0.1624465
994.70 0.1623952
994.80 0.1623438
994.90 0.1622925
995.00 0.1622411
995.10 0.1621898
995.20 0.1621385
995.30 0.1620873
995.40 0.162036
995.50 0.1619848
995.60 0.1619336
995.70 0.1618823
995.80 0.1618312
995.90 0.16178
996.00 0.1617288
996.10 0.1616777
996.20 0.1616266
996.30 0.1615755
996.40 0.1615244
996.50 0.1614734
996.60 0.1614223
996.70 0.1613713
996.80 0.1613203
996.90 0.1612693
997.00 0.1612183
997.10 0.1611674
997.20 0.1611164
997.30 0.1610655
997.40 0.1610146
997.50 0.1609637
997.60 0.1609128
997.70 0.160862
997.80 0.1608112
997.90 0.1607603
998.00 0.1607095
998.10 0.1606587
998.20 0.160608
998.30 0.1605572
998.40 0.1605065
998.50 0.1604558
998.60 0.1604051
998.70 0.1603544
998.80 0.1603037
998.90 0.1602531
999.00 0.1602025
999.10 0.1601518
999.20 0.1601012
999.30 0.1600507
999.40 0.1600001
999.50 0.1599495
999.60 0.159899
999.70 0.1598485
999.80 0.159798
999.90 0.1597475
1000.00 0.1596971
1000.10 0.1596466
1000.20 0.1595962
1000.30 0.1595458
1000.40 0.1594954
1000.50 0.159445
1000.60 0.1593947
1000.70 0.1593443
1000.80 0.159294
1000.90 0.1592437
1001.00 0.1591934
1001.10 0.1591433
1001.20 0.1590933
1001.30 0.1590432
1001.40 0.1589932
1001.50 0.1589431
1001.60 0.1588931
1001.70 0.1588431
1001.80 0.1587932
1001.90 0.1587432
1002.00 0.1586933
1002.10 0.1586433
1002.20 0.1585934
1002.30 0.1585435
1002.40 0.1584937
1002.50 0.1584438
1002.60 0.158394
1002.70 0.1583441
1002.80 0.1582943
1002.90 0.1582445
1003.00 0.1581948
1003.10 0.158145
1003.20 0.1580953
1003.30 0.1580455
1003.40 0.1579958
1003.50 0.1579461
1003.60 0.1578965
1003.70 0.1578468
1003.80 0.1577972
1003.90 0.1577475
1004.00 0.1576979
1004.10 0.1576483
1004.20 0.1575988
1004.30 0.1575492
1004.40 0.1574997
1004.50 0.1574501
1004.60 0.1574006
1004.70 0.1573511
1004.80 0.1573017
1004.90 0.1572522
1005.00 0.1572028
1005.10 0.1571533
1005.20 0.1571039
1005.30 0.1570545
1005.40 0.1570051
1005.50 0.1569558
1005.60 0.1569064
1005.70 0.1568571
1005.80 0.1568078
1005.90 0.1567585
1006.00 0.1567092
1006.10 0.15666
1006.20 0.1566107
1006.30 0.1565615
1006.40 0.1565123
1006.50 0.1564631
1006.60 0.1564139
1006.70 0.1563647
1006.80 0.1563156
1006.90 0.1562665
1007.00 0.1562173
1007.10 0.1561682
1007.20 0.1561192
1007.30 0.1560701
1007.40 0.156021
1007.50 0.155972
1007.60 0.155923
1007.70 0.155874
1007.80 0.155825
1007.90 0.155776
1008.00 0.1557271
1008.10 0.1556781
1008.20 0.1556292
1008.30 0.1555803
1008.40 0.1555314
1008.50 0.1554826
1008.60 0.1554337
1008.70 0.1553849
1008.80 0.155336
1008.90 0.1552872
1009.00 0.1552385
1009.10 0.1551897
1009.20 0.1551409
1009.30 0.1550922
1009.40 0.1550435
1009.50 0.1549948
1009.60 0.1549461
1009.70 0.1548974
1009.80 0.1548487
1009.90 0.1548001
1010.00 0.1547515
1010.10 0.1547028
1010.20 0.1546543
1010.30 0.1546057
1010.40 0.1545571
1010.50 0.1545086
1010.60 0.15446
1010.70 0.1544115
1010.80 0.154363
1010.90 0.1543145
1011.00 0.1542663
1011.10 0.1542193
1011.20 0.1541723
1011.30 0.1541254
1011.40 0.1540784
1011.50 0.1540315
1011.60 0.1539846
1011.70 0.1539377
1011.80 0.1538908
1011.90 0.1538439
1012.00 0.153797
1012.10 0.1537502
1012.20 0.1537034
1012.30 0.1536566
1012.40 0.1536098
1012.50 0.153563
1012.60 0.1535162
1012.70 0.1534695
1012.80 0.1534227
1012.90 0.153376
1013.00 0.1533293
1013.10 0.1532826
1013.20 0.1532359
1013.30 0.1531893
1013.40 0.1531426
1013.50 0.153096
1013.60 0.1530494
1013.70 0.1530028
1013.80 0.1529562
1013.90 0.1529097
1014.00 0.1528631
1014.10 0.1528166
1014.20 0.15277
1014.30 0.1527235
1014.40 0.1526771
1014.50 0.1526306
1014.60 0.1525841
1014.70 0.1525377
1014.80 0.1524913
1014.90 0.1524448
1015.00 0.1523984
1015.10 0.1523521
1015.20 0.1523057
1015.30 0.1522593
1015.40 0.152213
1015.50 0.1521667
1015.60 0.1521204
1015.70 0.1520741
1015.80 0.1520278
1015.90 0.1519816
1016.00 0.1519353
1016.10 0.1518883
1016.20 0.1518408
1016.30 0.1517934
1016.40 0.151746
1016.50 0.1516985
1016.60 0.1516511
1016.70 0.1516037
1016.80 0.1515564
1016.90 0.151509
1017.00 0.1514617
1017.10 0.1514143
1017.20 0.151367
1017.30 0.1513197
1017.40 0.1512725
1017.50 0.1512252
1017.60 0.1511779
1017.70 0.1511307
1017.80 0.1510835
1017.90 0.1510363
1018.00 0.1509891
1018.10 0.1509419
1018.20 0.1508948
1018.30 0.1508476
1018.40 0.1508005
1018.50 0.1507534
1018.60 0.1507063
1018.70 0.1506592
1018.80 0.1506122
1018.90 0.1505651
1019.00 0.1505181
1019.10 0.1504711
1019.20 0.1504241
1019.30 0.1503771
1019.40 0.1503301
1019.50 0.1502832
1019.60 0.1502362
1019.70 0.1501893
1019.80 0.1501424
1019.90 0.1500955
1020.00 0.1500486
1020.10 0.1500018
1020.20 0.1499549
1020.30 0.1499081
1020.40 0.1498613
1020.50 0.1498145
1020.60 0.1497677
1020.70 0.149721
1020.80 0.1496742
1020.90 0.1496275
1021.00 0.1495807
1021.10 0.1495341
1021.20 0.1494875
1021.30 0.149441
1021.40 0.1493946
1021.50 0.1493481
1021.60 0.1493016
1021.70 0.1492552
1021.80 0.1492088
1021.90 0.1491624
1022.00 0.149116
1022.10 0.1490696
1022.20 0.1490232
1022.30 0.1489769
1022.40 0.1489306
1022.50 0.1488842
1022.60 0.1488379
1022.70 0.1487916
1022.80 0.1487454
1022.90 0.1486991
1023.00 0.1486529
1023.10 0.1486067
1023.20 0.1485604
1023.30 0.1485143
1023.40 0.1484681
1023.50 0.1484219
1023.60 0.1483758
1023.70 0.1483296
1023.80 0.1482835
1023.90 0.1482374
1024.00 0.1481913
1024.10 0.1481452
1024.20 0.1480992
1024.30 0.1480531
1024.40 0.1480071
1024.50 0.1479611
1024.60 0.1479151
1024.70 0.1478691
1024.80 0.1478232
1024.90 0.1477772
1025.00 0.1477313
1025.10 0.1476853
1025.20 0.1476394
1025.30 0.1475935
1025.40 0.1475477
1025.50 0.1475018
1025.60 0.147456
1025.70 0.1474101
1025.80 0.1473643
1025.90 0.1473185
1026.00 0.1472727
1026.10 0.147227
1026.20 0.1471812
1026.30 0.1471355
1026.40 0.1470897
1026.50 0.147044
1026.60 0.1469983
1026.70 0.1469526
1026.80 0.146907
1026.90 0.1468613
1027.00 0.1468157
1027.10 0.14677
1027.20 0.1467244
1027.30 0.1466788
1027.40 0.1466333
1027.50 0.1465877
1027.60 0.1465422
1027.70 0.1464966
1027.80 0.1464511
1027.90 0.1464056
1028.00 0.1463601
1028.10 0.1463146
1028.20 0.1462692
1028.30 0.1462237
1028.40 0.1461783
1028.50 0.1461329
1028.60 0.1460875
1028.70 0.1460421
1028.80 0.1459967
1028.90 0.1459514
1029.00 0.145906
1029.10 0.1458607
1029.20 0.1458154
1029.30 0.1457701
1029.40 0.1457248
1029.50 0.1456796
1029.60 0.1456343
1029.70 0.1455891
1029.80 0.1455438
1029.90 0.1454986
1030.00 0.1454534
1030.10 0.1454083
1030.20 0.1453631
1030.30 0.145318
1030.40 0.1452728
1030.50 0.1452277
1030.60 0.1451826
1030.70 0.1451375
1030.80 0.1450924
1030.90 0.1450474
1031.00 0.1450023
1031.10 0.1449573
1031.20 0.1449123
1031.30 0.1448673
1031.40 0.1448225
1031.50 0.1447777
1031.60 0.1447329
1031.70 0.1446881
1031.80 0.1446434
1031.90 0.1445986
1032.00 0.1445539
1032.10 0.1445092
1032.20 0.1444645
1032.30 0.1444198
1032.40 0.1443751
1032.50 0.1443305
1032.60 0.1442858
1032.70 0.1442412
1032.80 0.1441966
1032.90 0.144152
1033.00 0.1441074
1033.10 0.1440629
1033.20 0.1440183
1033.30 0.1439738
1033.40 0.1439292
1033.50 0.1438847
1033.60 0.1438402
1033.70 0.1437958
1033.80 0.1437513
1033.90 0.1437068
1034.00 0.1436624
1034.10 0.143618
1034.20 0.1435736
1034.30 0.1435292
1034.40 0.1434848
1034.50 0.1434405
1034.60 0.1433961
1034.70 0.1433518
1034.80 0.1433074
1034.90 0.1432631
1035.00 0.1432189
1035.10 0.1431746
1035.20 0.1431303
1035.30 0.1430861
1035.40 0.1430418
1035.50 0.1429976
1035.60 0.1429534
1035.70 0.1429092
1035.80 0.142865
1035.90 0.1428209
1036.00 0.1427767
1036.10 0.1427326
1036.20 0.1426885
1036.30 0.1426444
1036.40 0.1426003
1036.50 0.1425562
1036.60 0.1425121
1036.70 0.1424681
1036.80 0.1424241
1036.90 0.14238
1037.00 0.142336
1037.10 0.142292
1037.20 0.1422481
1037.30 0.1422041
1037.40 0.1421602
1037.50 0.1421162
1037.60 0.1420723
1037.70 0.1420284
1037.80 0.1419845
1037.90 0.1419406
1038.00 0.1418968
1038.10 0.1418529
1038.20 0.1418091
1038.30 0.1417653
1038.40 0.1417214
1038.50 0.1416777
1038.60 0.1416339
1038.70 0.1415901
1038.80 0.1415464
1038.90 0.1415026
1039.00 0.1414589
1039.10 0.1414152
1039.20 0.1413715
1039.30 0.1413278
1039.40 0.1412842
1039.50 0.1412405
1039.60 0.1411969
1039.70 0.1411533
1039.80 0.1411096
1039.90 0.1410661
1040.00 0.1410225
1040.10 0.1409789
1040.20 0.1409354
1040.30 0.1408918
1040.40 0.1408483
1040.50 0.1408048
1040.60 0.1407613
1040.70 0.1407178
1040.80 0.1406743
1040.90 0.1406309
1041.00 0.1405875
1041.10 0.140544
1041.20 0.1405006
1041.30 0.1404572
1041.40 0.1404138
1041.50 0.1403705
1041.60 0.1403271
1041.70 0.1402849
1041.80 0.1402429
1041.90 0.1402009
1042.00 0.1401589
1042.10 0.140117
1042.20 0.140075
1042.30 0.1400331
1042.40 0.1399911
1042.50 0.1399492
1042.60 0.1399073
1042.70 0.1398655
1042.80 0.1398236
1042.90 0.1397817
1043.00 0.1397399
1043.10 0.1396981
1043.20 0.1396563
1043.30 0.1396145
1043.40 0.1395727
1043.50 0.1395309
1043.60 0.1394891
1043.70 0.1394474
1043.80 0.1394057
1043.90 0.1393639
1044.00 0.1393222
1044.10 0.1392805
1044.20 0.1392389
1044.30 0.1391972
1044.40 0.1391556
1044.50 0.1391139
1044.60 0.1390723
1044.70 0.1390307
1044.80 0.1389891
1044.90 0.1389475
1045.00 0.1389059
1045.10 0.1388644
1045.20 0.1388228
1045.30 0.1387813
1045.40 0.1387398
1045.50 0.1386983
1045.60 0.1386568
1045.70 0.1386153
1045.80 0.1385738
1045.90 0.1385324
1046.00 0.1384909
1046.10 0.1384495
1046.20 0.1384081
1046.30 0.1383667
1046.40 0.1383253
1046.50 0.1382839
1046.60 0.1382426
1046.70 0.1382012
1046.80 0.1381599
1046.90 0.1381177
1047.00 0.1380753
1047.10 0.1380328
1047.20 0.1379904
1047.30 0.137948
1047.40 0.1379056
1047.50 0.1378632
1047.60 0.1378208
1047.70 0.1377785
1047.80 0.1377361
1047.90 0.1376938
1048.00 0.1376515
1048.10 0.1376092
1048.20 0.1375669
1048.30 0.1375246
1048.40 0.1374824
1048.50 0.1374401
1048.60 0.1373979
1048.70 0.1373556
1048.80 0.1373134
1048.90 0.1372712
1049.00 0.1372291
1049.10 0.1371869
1049.20 0.1371447
1049.30 0.1371026
1049.40 0.1370605
1049.50 0.1370184
1049.60 0.1369763
1049.70 0.1369342
1049.80 0.1368921
1049.90 0.1368501
1050.00 0.136808
1050.10 0.136766
1050.20 0.136724
1050.30 0.136682
1050.40 0.13664
1050.50 0.136598
1050.60 0.136556
1050.70 0.1365141
1050.80 0.1364721
1050.90 0.1364302
1051.00 0.1363883
1051.10 0.1363464
1051.20 0.1363045
1051.30 0.1362627
1051.40 0.1362208
1051.50 0.136179
1051.60 0.1361371
1051.70 0.1360953
1051.80 0.1360535
1051.90 0.1360117
1052.00 0.1359699
1052.10 0.1359283
1052.20 0.1358867
1052.30 0.1358451
1052.40 0.1358036
1052.50 0.135762
1052.60 0.1357205
1052.70 0.1356789
1052.80 0.1356374
1052.90 0.1355959
1053.00 0.1355545
1053.10 0.135513
1053.20 0.1354715
1053.30 0.1354301
1053.40 0.1353887
1053.50 0.1353472
1053.60 0.1353058
1053.70 0.1352645
1053.80 0.1352231
1053.90 0.1351817
1054.00 0.1351404
1054.10 0.135099
1054.20 0.1350577
1054.30 0.1350164
1054.40 0.1349751
1054.50 0.1349338
1054.60 0.1348925
1054.70 0.1348513
1054.80 0.13481
1054.90 0.1347688
1055.00 0.1347276
1055.10 0.1346864
1055.20 0.1346452
1055.30 0.134604
1055.40 0.1345628
1055.50 0.1345217
1055.60 0.1344806
1055.70 0.1344394
1055.80 0.1343983
1055.90 0.1343572
1056.00 0.1343161
1056.10 0.1342751
1056.20 0.134234
1056.30 0.134193
1056.40 0.1341519
1056.50 0.1341109
1056.60 0.1340699
1056.70 0.1340289
1056.80 0.1339879
1056.90 0.133947
1057.00 0.133906
1057.10 0.1338651
1057.20 0.1338241
1057.30 0.1337832
1057.40 0.1337423
1057.50 0.1337014
1057.60 0.1336605
1057.70 0.1336197
1057.80 0.1335788
1057.90 0.133538
1058.00 0.1334972
1058.10 0.1334564
1058.20 0.1334156
1058.30 0.1333748
1058.40 0.133334
1058.50 0.1332932
1058.60 0.1332525
1058.70 0.1332118
1058.80 0.133171
1058.90 0.1331303
1059.00 0.1330896
1059.10 0.133049
1059.20 0.1330083
1059.30 0.1329676
1059.40 0.132927
1059.50 0.1328864
1059.60 0.1328458
1059.70 0.1328052
1059.80 0.1327646
1059.90 0.132724
1060.00 0.1326834
1060.10 0.1326429
1060.20 0.1326023
1060.30 0.1325618
1060.40 0.1325213
1060.50 0.1324808
1060.60 0.1324403
1060.70 0.1323998
1060.80 0.1323594
1060.90 0.1323189
1061.00 0.1322785
1061.10 0.1322381
1061.20 0.1321977
1061.30 0.1321573
1061.40 0.1321169
1061.50 0.1320765
1061.60 0.1320362
1061.70 0.1319958
1061.80 0.1319555
1061.90 0.1319152
1062.00 0.1318749
1062.10 0.1318346
1062.20 0.1317943
1062.30 0.131754
1062.40 0.1317138
1062.50 0.1316735
1062.60 0.1316339
1062.70 0.1315949
1062.80 0.1315559
1062.90 0.131517
1063.00 0.131478
1063.10 0.1314391
1063.20 0.1314002
1063.30 0.1313613
1063.40 0.1313224
1063.50 0.1312836
1063.60 0.1312447
1063.70 0.1312058
1063.80 0.131167
1063.90 0.1311282
1064.00 0.1310894
1064.10 0.1310506
1064.20 0.1310118
1064.30 0.130973
1064.40 0.1309343
1064.50 0.1308955
1064.60 0.1308568
1064.70 0.130818
1064.80 0.1307793
1064.90 0.1307406
1065.00 0.1307019
1065.10 0.1306633
1065.20 0.1306246
1065.30 0.1305859
1065.40 0.1305473
1065.50 0.1305087
1065.60 0.1304701
1065.70 0.1304314
1065.80 0.1303929
1065.90 0.1303543
1066.00 0.1303157
1066.10 0.1302772
1066.20 0.1302386
1066.30 0.1302001
1066.40 0.1301616
1066.50 0.1301231
1066.60 0.1300846
1066.70 0.1300461
1066.80 0.1300076
1066.90 0.1299692
1067.00 0.1299307
1067.10 0.1298923
1067.20 0.1298539
1067.30 0.1298154
1067.40 0.129777
1067.50 0.1297387
1067.60 0.1297003
1067.70 0.1296619
1067.80 0.1296236
1067.90 0.1295849
1068.00 0.1295455
1068.10 0.1295061
1068.20 0.1294667
1068.30 0.1294273
1068.40 0.129388
1068.50 0.1293486
1068.60 0.1293093
1068.70 0.12927
1068.80 0.1292307
1068.90 0.1291914
1069.00 0.1291521
1069.10 0.1291128
1069.20 0.1290735
1069.30 0.1290343
1069.40 0.1289951
1069.50 0.1289558
1069.60 0.1289166
1069.70 0.1288774
1069.80 0.1288383
1069.90 0.1287991
1070.00 0.1287599
1070.10 0.1287208
1070.20 0.1286816
1070.30 0.1286425
1070.40 0.1286034
1070.50 0.1285643
1070.60 0.1285252
1070.70 0.1284861
1070.80 0.1284471
1070.90 0.128408
1071.00 0.128369
1071.10 0.12833
1071.20 0.128291
1071.30 0.128252
1071.40 0.128213
1071.50 0.128174
1071.60 0.128135
1071.70 0.1280961
1071.80 0.1280572
1071.90 0.1280182
1072.00 0.1279793
1072.10 0.1279404
1072.20 0.1279015
1072.30 0.1278626
1072.40 0.1278238
1072.50 0.1277849
1072.60 0.1277461
1072.70 0.1277073
1072.80 0.1276685
1072.90 0.1276296
1073.00 0.1275909
1073.10 0.1275521
1073.20 0.1275136
1073.30 0.127476
1073.40 0.1274385
1073.50 0.127401
1073.60 0.1273635
1073.70 0.127326
1073.80 0.1272885
1073.90 0.127251
1074.00 0.1272136
1074.10 0.1271761
1074.20 0.1271387
1074.30 0.1271012
1074.40 0.1270638
1074.50 0.1270264
1074.60 0.126989
1074.70 0.1269517
1074.80 0.1269143
1074.90 0.1268769
1075.00 0.1268396
1075.10 0.1268023
1075.20 0.1267649
1075.30 0.1267276
1075.40 0.1266903
1075.50 0.1266531
1075.60 0.1266158
1075.70 0.1265785
1075.80 0.1265413
1075.90 0.126504
1076.00 0.1264668
1076.10 0.1264296
1076.20 0.1263924
1076.30 0.1263552
1076.40 0.126318
1076.50 0.1262809
1076.60 0.1262437
1076.70 0.1262066
1076.80 0.1261694
1076.90 0.1261323
1077.00 0.1260952
1077.10 0.1260581
1077.20 0.126021
1077.30 0.1259839
1077.40 0.1259469
1077.50 0.1259098
1077.60 0.1258728
1077.70 0.1258357
1077.80 0.1257987
1077.90 0.1257617
1078.00 0.1257247
1078.10 0.1256877
1078.20 0.1256508
1078.30 0.1256138
1078.40 0.1255769
1078.50 0.1255399
1078.60 0.1255024
1078.70 0.1254645
1078.80 0.1254265
1078.90 0.1253886
1079.00 0.1253506
1079.10 0.1253127
1079.20 0.1252748
1079.30 0.1252369
1079.40 0.1251991
1079.50 0.1251612
1079.60 0.1251233
1079.70 0.1250855
1079.80 0.1250477
1079.90 0.1250098
1080.00 0.124972
1080.10 0.1249342
1080.20 0.1248964
1080.30 0.1248587
1080.40 0.1248209
1080.50 0.1247832
1080.60 0.1247454
1080.70 0.1247077
1080.80 0.12467
1080.90 0.1246323
1081.00 0.1245946
1081.10 0.1245569
1081.20 0.1245193
1081.30 0.1244816
1081.40 0.124444
1081.50 0.1244063
1081.60 0.1243687
1081.70 0.1243311
1081.80 0.1242935
1081.90 0.1242559
1082.00 0.1242183
1082.10 0.1241808
1082.20 0.1241432
1082.30 0.1241057
1082.40 0.1240682
1082.50 0.1240307
1082.60 0.1239932
1082.70 0.1239557
1082.80 0.1239182
1082.90 0.1238807
1083.00 0.1238433
1083.10 0.1238058
1083.20 0.1237684
1083.30 0.123731
1083.40 0.1236936
1083.50 0.1236562
1083.60 0.1236188
1083.70 0.1235814
1083.80 0.1235441
1083.90 0.1235067
1084.00 0.1234695
1084.10 0.1234323
1084.20 0.1233951
1084.30 0.123358
1084.40 0.1233208
1084.50 0.1232837
1084.60 0.1232466
1084.70 0.1232095
1084.80 0.1231724
1084.90 0.1231353
1085.00 0.1230982
1085.10 0.1230611
1085.20 0.1230241
1085.30 0.1229871
1085.40 0.12295
1085.50 0.122913
1085.60 0.122876
1085.70 0.122839
1085.80 0.122802
1085.90 0.122765
1086.00 0.1227281
1086.10 0.1226911
1086.20 0.1226542
1086.30 0.1226173
1086.40 0.1225804
1086.50 0.1225434
1086.60 0.1225066
1086.70 0.1224697
1086.80 0.1224328
1086.90 0.122396
1087.00 0.1223591
1087.10 0.1223223
1087.20 0.1222854
1087.30 0.1222486
1087.40 0.1222118
1087.50 0.122175
1087.60 0.1221383
1087.70 0.1221015
1087.80 0.1220648
1087.90 0.122028
1088.00 0.1219913
1088.10 0.1219546
1088.20 0.1219178
1088.30 0.1218812
1088.40 0.1218445
1088.50 0.1218078
1088.60 0.1217711
1088.70 0.1217345
1088.80 0.1216978
1088.90 0.1216612
1089.00 0.1216246
1089.10 0.121588
1089.20 0.1215514
1089.30 0.1215148
1089.40 0.1214789
1089.50 0.1214434
1089.60 0.1214079
1089.70 0.1213723
1089.80 0.1213368
1089.90 0.1213013
1090.00 0.1212658
1090.10 0.1212304
1090.20 0.1211949
1090.30 0.1211594
1090.40 0.121124
1090.50 0.1210886
1090.60 0.1210531
1090.70 0.1210177
1090.80 0.1209823
1090.90 0.1209469
1091.00 0.1209116
1091.10 0.1208762
1091.20 0.1208408
1091.30 0.1208055
1091.40 0.1207701
1091.50 0.1207348
1091.60 0.1206995
1091.70 0.1206642
1091.80 0.1206289
1091.90 0.1205936
1092.00 0.1205584
1092.10 0.1205231
1092.20 0.1204879
1092.30 0.1204526
1092.40 0.1204174
1092.50 0.1203822
1092.60 0.120347
1092.70 0.1203118
1092.80 0.1202766
1092.90 0.1202414
1093.00 0.1202063
1093.10 0.1201711
1093.20 0.120136
1093.30 0.1201008
1093.40 0.1200657
1093.50 0.1200306
1093.60 0.1199955
1093.70 0.1199604
1093.80 0.1199254
1093.90 0.1198903
1094.00 0.1198552
1094.10 0.1198202
1094.20 0.1197852
1094.30 0.1197501
1094.40 0.1197151
1094.50 0.1196801
1094.60 0.1196451
1094.70 0.1196102
1094.80 0.119575
1094.90 0.1195397
1095.00 0.1195044
1095.10 0.1194691
1095.20 0.1194338
1095.30 0.1193985
1095.40 0.1193632
1095.50 0.119328
1095.60 0.1192927
1095.70 0.1192575
1095.80 0.1192223
1095.90 0.1191871
1096.00 0.1191519
1096.10 0.1191167
1096.20 0.1190815
1096.30 0.1190463
1096.40 0.1190111
1096.50 0.118976
1096.60 0.1189409
1096.70 0.1189057
1096.80 0.1188706
1096.90 0.1188355
1097.00 0.1188004
1097.10 0.1187653
1097.20 0.1187303
1097.30 0.1186952
1097.40 0.1186601
1097.50 0.1186251
1097.60 0.1185901
1097.70 0.118555
1097.80 0.11852
1097.90 0.118485
1098.00 0.1184501
1098.10 0.1184151
1098.20 0.1183801
1098.30 0.1183452
1098.40 0.1183102
1098.50 0.1182753
1098.60 0.1182404
1098.70 0.1182054
1098.80 0.1181705
1098.90 0.1181357
1099.00 0.1181008
1099.10 0.1180659
1099.20 0.118031
1099.30 0.1179962
1099.40 0.1179614
1099.50 0.1179265
1099.60 0.1178917
1099.70 0.1178569
1099.80 0.1178221
1099.90 0.1177873
1100.00 0.1177526
1100.10 0.1177178
1100.20 0.1176831
1100.30 0.1176483
1100.40 0.1176136
1100.50 0.1175789
1100.60 0.1175442
1100.70 0.1175095
1100.80 0.1174748
1100.90 0.1174401
1101.00 0.1174054
1101.10 0.1173708
1101.20 0.1173361
1101.30 0.1173015
1101.40 0.1172669
1101.50 0.1172323
1101.60 0.1171977
1101.70 0.1171631
1101.80 0.1171285
1101.90 0.1170939
1102.00 0.1170594
1102.10 0.1170248
1102.20 0.1169903
1102.30 0.1169557
1102.40 0.1169212
1102.50 0.1168867
1102.60 0.1168522
1102.70 0.1168177
1102.80 0.1167833
1102.90 0.1167488
1103.00 0.1167143
1103.10 0.1166799
1103.20 0.1166455
1103.30 0.116611
1103.40 0.1165766
1103.50 0.1165422
1103.60 0.1165078
1103.70 0.1164735
1103.80 0.1164391
1103.90 0.1164047
1104.00 0.1163704
1104.10 0.1163361
1104.20 0.1163017
1104.30 0.1162674
1104.40 0.1162331
1104.50 0.1161988
1104.60 0.1161645
1104.70 0.1161303
1104.80 0.116096
1104.90 0.1160617
1105.00 0.1160275
1105.10 0.1159933
1105.20 0.115959
1105.30 0.1159248
1105.40 0.1158906
1105.50 0.1158564
1105.60 0.1158223
1105.70 0.1157881
1105.80 0.1157541
1105.90 0.11572
1106.00 0.115686
1106.10 0.115652
1106.20 0.115618
1106.30 0.1155841
1106.40 0.1155501
1106.50 0.1155162
1106.60 0.1154822
1106.70 0.1154483
1106.80 0.1154143
1106.90 0.1153804
1107.00 0.1153465
1107.10 0.1153126
1107.20 0.1152788
1107.30 0.1152449
1107.40 0.115211
1107.50 0.1151772
1107.60 0.1151433
1107.70 0.1151095
1107.80 0.1150757
1107.90 0.1150419
1108.00 0.1150081
1108.10 0.1149743
1108.20 0.1149405
1108.30 0.1149067
1108.40 0.114873
1108.50 0.1148392
1108.60 0.1148055
1108.70 0.1147717
1108.80 0.114738
1108.90 0.1147043
1109.00 0.1146706
1109.10 0.1146369
1109.20 0.1146033
1109.30 0.1145696
1109.40 0.1145359
1109.50 0.1145023
1109.60 0.1144687
1109.70 0.114435
1109.80 0.1144014
1109.90 0.1143678
1110.00 0.1143342
1110.10 0.1143006
1110.20 0.1142671
1110.30 0.1142335
1110.40 0.1141999
1110.50 0.1141664
1110.60 0.1141329
1110.70 0.1140993
1110.80 0.1140658
1110.90 0.1140323
1111.00 0.1139988
1111.10 0.1139653
1111.20 0.1139319
1111.30 0.1138984
1111.40 0.113865
1111.50 0.1138315
1111.60 0.1137981
1111.70 0.1137647
1111.80 0.1137313
1111.90 0.1136979
1112.00 0.1136645
1112.10 0.1136311
1112.20 0.1135977
1112.30 0.1135644
1112.40 0.113531
1112.50 0.1134977
1112.60 0.1134643
1112.70 0.113431
1112.80 0.1133977
1112.90 0.1133644
1113.00 0.1133311
1113.10 0.1132978
1113.20 0.1132646
1113.30 0.1132313
1113.40 0.1131981
1113.50 0.1131648
1113.60 0.1131316
1113.70 0.1130984
1113.80 0.1130652
1113.90 0.113032
1114.00 0.1129988
1114.10 0.1129656
1114.20 0.1129324
1114.30 0.1128993
1114.40 0.1128661
1114.50 0.112833
1114.60 0.1127999
1114.70 0.1127668
1114.80 0.1127337
1114.90 0.1127006
1115.00 0.1126675
1115.10 0.1126344
1115.20 0.1126013
1115.30 0.1125683
1115.40 0.1125352
1115.50 0.1125022
1115.60 0.1124692
1115.70 0.1124361
1115.80 0.1124031
1115.90 0.1123701
1116.00 0.1123372
1116.10 0.1123042
1116.20 0.1122712
1116.30 0.1122383
1116.40 0.1122053
1116.50 0.1121724
1116.60 0.1121394
1116.70 0.1121065
1116.80 0.1120739
1116.90 0.1120416
1117.00 0.1120093
1117.10 0.111977
1117.20 0.1119448
1117.30 0.1119125
1117.40 0.1118802
1117.50 0.111848
1117.60 0.1118158
1117.70 0.1117836
1117.80 0.1117513
1117.90 0.1117191
1118.00 0.1116869
1118.10 0.1116548
1118.20 0.1116226
1118.30 0.1115904
1118.40 0.1115583
1118.50 0.1115261
1118.60 0.111494
1118.70 0.1114619
1118.80 0.1114298
1118.90 0.1113977
1119.00 0.1113656
1119.10 0.1113335
1119.20 0.1113014
1119.30 0.1112693
1119.40 0.1112373
1119.50 0.1112052
1119.60 0.1111732
1119.70 0.1111412
1119.80 0.1111092
1119.90 0.1110772
1120.00 0.1110452
1120.10 0.1110132
1120.20 0.1109812
1120.30 0.1109492
1120.40 0.1109173
1120.50 0.1108853
1120.60 0.1108534
1120.70 0.1108214
1120.80 0.1107895
1120.90 0.1107576
1121.00 0.1107257
1121.10 0.1106938
1121.20 0.1106619
1121.30 0.1106301
1121.40 0.1105982
1121.50 0.1105664
1121.60 0.1105345
1121.70 0.1105027
1121.80 0.1104709
1121.90 0.110439
1122.00 0.1104072
1122.10 0.1103754
1122.20 0.1103437
1122.30 0.1103119
1122.40 0.1102795
1122.50 0.1102468
1122.60 0.1102142
1122.70 0.1101815
1122.80 0.1101488
1122.90 0.1101162
1123.00 0.1100835
1123.10 0.1100509
1123.20 0.1100183
1123.30 0.1099857
1123.40 0.1099531
1123.50 0.1099205
1123.60 0.1098879
1123.70 0.1098553
1123.80 0.1098228
1123.90 0.1097902
1124.00 0.1097577
1124.10 0.1097251
1124.20 0.1096926
1124.30 0.1096601
1124.40 0.1096276
1124.50 0.1095951
1124.60 0.1095626
1124.70 0.1095301
1124.80 0.1094977
1124.90 0.1094652
1125.00 0.1094328
1125.10 0.1094003
1125.20 0.1093679
1125.30 0.1093355
1125.40 0.1093031
1125.50 0.1092707
1125.60 0.1092383
1125.70 0.1092059
1125.80 0.1091736
1125.90 0.1091412
1126.00 0.1091089
1126.10 0.1090765
1126.20 0.1090442
1126.30 0.1090119
1126.40 0.1089796
1126.50 0.1089473
1126.60 0.108915
1126.70 0.1088827
1126.80 0.1088505
1126.90 0.1088182
1127.00 0.1087859
1127.10 0.1087537
1127.20 0.1087215
1127.30 0.1086893
1127.40 0.108657
1127.50 0.1086248
1127.60 0.1085927
1127.70 0.1085605
1127.80 0.1085283
1127.90 0.1084961
1128.00 0.1084648
1128.10 0.1084337
1128.20 0.1084026
1128.30 0.1083715
1128.40 0.1083405
1128.50 0.1083094
1128.60 0.1082783
1128.70 0.1082473
1128.80 0.1082163
1128.90 0.1081852
1129.00 0.1081542
1129.10 0.1081232
1129.20 0.1080922
1129.30 0.1080612
1129.40 0.1080303
1129.50 0.1079993
1129.60 0.1079683
1129.70 0.1079374
1129.80 0.1079064
1129.90 0.1078755
1130.00 0.1078446
1130.10 0.1078137
1130.20 0.1077828
1130.30 0.1077519
1130.40 0.107721
1130.50 0.1076901
1130.60 0.1076592
1130.70 0.1076284
1130.80 0.1075975
1130.90 0.1075667
1131.00 0.1075359
1131.10 0.1075051
1131.20 0.1074742
1131.30 0.1074434
1131.40 0.1074126
1131.50 0.1073819
1131.60 0.1073511
1131.70 0.1073203
1131.80 0.1072896
1131.90 0.1072588
1132.00 0.1072281
1132.10 0.1071974
1132.20 0.1071666
1132.30 0.1071359
1132.40 0.1071052
1132.50 0.1070745
1132.60 0.1070438
1132.70 0.1070132
1132.80 0.1069825
1132.90 0.1069519
1133.00 0.1069212
1133.10 0.1068906
1133.20 0.1068599
1133.30 0.1068293
1133.40 0.1067987
1133.50 0.1067681
1133.60 0.1067375
1133.70 0.1067069
1133.80 0.1066764
1133.90 0.1066458
1134.00 0.1066152
1134.10 0.1065847
1134.20 0.1065542
1134.30 0.1065236
1134.40 0.1064931
1134.50 0.1064626
1134.60 0.1064321
1134.70 0.1064016
1134.80 0.1063711
1134.90 0.1063407
1135.00 0.1063102
1135.10 0.1062797
1135.20 0.1062493
1135.30 0.1062189
1135.40 0.1061884
1135.50 0.106158
1135.60 0.1061276
1135.70 0.1060972
1135.80 0.1060668
1135.90 0.1060364
1136.00 0.1060061
1136.10 0.1059757
1136.20 0.1059453
1136.30 0.105915
1136.40 0.1058847
1136.50 0.1058543
1136.60 0.105824
1136.70 0.1057937
1136.80 0.1057634
1136.90 0.1057331
1137.00 0.1057028
1137.10 0.1056726
1137.20 0.1056423
1137.30 0.105612
1137.40 0.1055818
1137.50 0.1055515
1137.60 0.1055213
1137.70 0.1054911
1137.80 0.1054609
1137.90 0.1054307
1138.00 0.1054005
1138.10 0.1053703
1138.20 0.1053401
1138.30 0.10531
1138.40 0.1052798
1138.50 0.1052497
1138.60 0.1052195
1138.70 0.1051894
1138.80 0.1051593
1138.90 0.1051292
1139.00 0.1050991
1139.10 0.105069
1139.20 0.1050389
1139.30 0.1050089
1139.40 0.104979
1139.50 0.104949
1139.60 0.1049191
1139.70 0.1048892
1139.80 0.1048592
1139.90 0.1048293
1140.00 0.1047994
1140.10 0.1047695
1140.20 0.1047397
1140.30 0.1047098
1140.40 0.1046799
1140.50 0.1046501
1140.60 0.1046202
1140.70 0.1045904
1140.80 0.1045606
1140.90 0.1045307
1141.00 0.1045009
1141.10 0.1044711
1141.20 0.1044413
1141.30 0.1044115
1141.40 0.1043818
1141.50 0.104352
1141.60 0.1043222
1141.70 0.1042925
1141.80 0.1042628
1141.90 0.104233
1142.00 0.1042033
1142.10 0.1041736
1142.20 0.1041439
1142.30 0.1041142
1142.40 0.1040845
1142.50 0.1040548
1142.60 0.1040251
1142.70 0.1039955
1142.80 0.1039658
1142.90 0.1039362
1143.00 0.1039066
1143.10 0.1038769
1143.20 0.1038473
1143.30 0.1038177
1143.40 0.1037881
1143.50 0.1037585
1143.60 0.1037289
1143.70 0.1036994
1143.80 0.1036698
1143.90 0.1036402
1144.00 0.1036107
1144.10 0.1035812
1144.20 0.1035516
1144.30 0.1035221
1144.40 0.1034926
1144.50 0.1034631
1144.60 0.1034336
1144.70 0.1034041
1144.80 0.1033746
1144.90 0.1033452
1145.00 0.1033157
1145.10 0.1032862
1145.20 0.1032568
1145.30 0.1032274
1145.40 0.1031979
1145.50 0.1031685
1145.60 0.1031391
1145.70 0.1031097
1145.80 0.1030803
1145.90 0.103051
1146.00 0.1030216
1146.10 0.1029922
1146.20 0.1029629
1146.30 0.1029335
1146.40 0.1029042
1146.50 0.1028748
1146.60 0.1028455
1146.70 0.1028162
1146.80 0.1027869
1146.90 0.1027576
1147.00 0.1027283
1147.10 0.1026991
1147.20 0.1026698
1147.30 0.1026405
1147.40 0.1026113
1147.50 0.102582
1147.60 0.1025528
1147.70 0.1025236
1147.80 0.1024944
1147.90 0.1024651
1148.00 0.1024359
1148.10 0.1024068
1148.20 0.1023776
1148.30 0.1023484
1148.40 0.1023192
1148.50 0.1022901
1148.60 0.1022609
1148.70 0.1022318
1148.80 0.1022027
1148.90 0.1021735
1149.00 0.1021444
1149.10 0.1021153
1149.20 0.1020862
1149.30 0.1020571
1149.40 0.1020281
1149.50 0.101999
1149.60 0.1019699
1149.70 0.1019409
1149.80 0.1019118
1149.90 0.1018828
1150.00 0.1018538
1150.10 0.1018247
1150.20 0.1017957
1150.30 0.1017667
1150.40 0.1017377
1150.50 0.1017087
1150.60 0.1016797
1150.70 0.10165
1150.80 0.1016203
1150.90 0.1015906
1151.00 0.1015609
1151.10 0.1015312
1151.20 0.1015015
1151.30 0.1014719
1151.40 0.1014422
1151.50 0.1014126
1151.60 0.1013829
1151.70 0.1013533
1151.80 0.1013237
1151.90 0.1012941
1152.00 0.1012645
1152.10 0.1012349
1152.20 0.1012053
1152.30 0.1011757
1152.40 0.1011461
1152.50 0.1011166
1152.60 0.101087
1152.70 0.1010575
1152.80 0.1010279
1152.90 0.1009984
1153.00 0.1009689
1153.10 0.1009394
1153.20 0.1009099
1153.30 0.1008804
1153.40 0.1008509
1153.50 0.1008214
1153.60 0.100792
1153.70 0.1007625
1153.80 0.1007331
1153.90 0.1007036
1154.00 0.1006742
1154.10 0.1006448
1154.20 0.1006154
1154.30 0.100586
1154.40 0.1005566
1154.50 0.1005272
1154.60 0.1004978
1154.70 0.1004684
1154.80 0.1004391
1154.90 0.1004097
1155.00 0.1003804
1155.10 0.100351
1155.20 0.1003217
1155.30 0.1002924
1155.40 0.1002631
1155.50 0.1002338
1155.60 0.1002045
1155.70 0.1001752
1155.80 0.1001459
1155.90 0.1001167
1156.00 0.1000874
1156.10 0.1000582
1156.20 0.1000289
1156.30 0.0999997
1156.40 0.09997094
1156.50 0.09994258
1156.60 0.09991423
1156.70 0.09988589
1156.80 0.09985755
1156.90 0.09982923
1157.00 0.09980091
1157.10 0.0997726
1157.20 0.0997443
1157.30 0.09971601
1157.40 0.09968773
1157.50 0.09965945
1157.60 0.09963118
1157.70 0.09960293
1157.80 0.09957468
1157.90 0.09954643
1158.00 0.0995182
1158.10 0.09948997
1158.20 0.09946176
1158.30 0.09943355
1158.40 0.09940535
1158.50 0.09937715
1158.60 0.09934897
1158.70 0.09932079
1158.80 0.09929262
1158.90 0.09926447
1159.00 0.09923631
1159.10 0.09920817
1159.20 0.09918004
1159.30 0.09915191
1159.40 0.09912379
1159.50 0.09909568
1159.60 0.09906758
1159.70 0.09903948
1159.80 0.0990114
1159.90 0.09898332
1160.00 0.09895525
1160.10 0.09892719
1160.20 0.09889914
1160.30 0.09887109
1160.40 0.09884306
1160.50 0.09881503
1160.60 0.09878701
1160.70 0.098759
1160.80 0.09873099
1160.90 0.098703
1161.00 0.09867501
1161.10 0.09864703
1161.20 0.09861906
1161.30 0.0985911
1161.40 0.09856314
1161.50 0.0985352
1161.60 0.09850726
1161.70 0.09847933
1161.80 0.09845141
1161.90 0.09842349
1162.00 0.09839559
1162.10 0.09836769
1162.20 0.09833991
1162.30 0.09831213
1162.40 0.09828436
1162.50 0.09825661
1162.60 0.09822885
1162.70 0.09820111
1162.80 0.09817338
1162.90 0.09814565
1163.00 0.09811793
1163.10 0.09809022
1163.20 0.09806252
1163.30 0.09803482
1163.40 0.09800713
1163.50 0.09797946
1163.60 0.09795179
1163.70 0.09792412
1163.80 0.09789647
1163.90 0.09786882
1164.00 0.09784118
1164.10 0.09781355
1164.20 0.09778593
1164.30 0.09775832
1164.40 0.09773071
1164.50 0.09770311
1164.60 0.09767552
1164.70 0.09764794
1164.80 0.09762037
1164.90 0.0975928
1165.00 0.09756525
1165.10 0.0975377
1165.20 0.09751015
1165.30 0.09748262
1165.40 0.09745509
1165.50 0.09742758
1165.60 0.09740007
1165.70 0.09737256
1165.80 0.09734507
1165.90 0.09731759
1166.00 0.09729011
1166.10 0.09726264
1166.20 0.09723518
1166.30 0.09720772
1166.40 0.09718028
1166.50 0.09715284
1166.60 0.09712541
1166.70 0.09709799
1166.80 0.09707057
1166.90 0.09704317
1167.00 0.09701577
1167.10 0.09698838
1167.20 0.096961
1167.30 0.09693362
1167.40 0.09690626
1167.50 0.0968789
1167.60 0.09685155
1167.70 0.09682421
1167.80 0.09679687
1167.90 0.09676955
1168.00 0.09674223
1168.10 0.09671492
1168.20 0.09668762
1168.30 0.09666033
1168.40 0.09663304
1168.50 0.09660577
1168.60 0.0965785
1168.70 0.09655124
1168.80 0.09652398
1168.90 0.09649674
1169.00 0.0964695
1169.10 0.09644227
1169.20 0.09641505
1169.30 0.09638784
1169.40 0.09636063
1169.50 0.09633343
1169.60 0.09630624
1169.70 0.09627906
1169.80 0.09625189
1169.90 0.09622472
1170.00 0.09619756
1170.10 0.09617041
1170.20 0.09614327
1170.30 0.09611613
1170.40 0.09608901
1170.50 0.09606189
1170.60 0.09603478
1170.70 0.09600767
1170.80 0.09598058
1170.90 0.09595349
1171.00 0.09592641
1171.10 0.09589934
1171.20 0.09587227
1171.30 0.09584522
1171.40 0.09581817
1171.50 0.09579113
1171.60 0.0957641
1171.70 0.09573707
1171.80 0.09571005
1171.90 0.09568305
1172.00 0.09565604
1172.10 0.09562905
1172.20 0.09560206
1172.30 0.09557509
1172.40 0.09554812
1172.50 0.09552115
1172.60 0.0954942
1172.70 0.09546725
1172.80 0.09544031
1172.90 0.09541338
1173.00 0.09538646
1173.10 0.09535954
1173.20 0.09533264
1173.30 0.09530574
1173.40 0.09527885
1173.50 0.09525196
1173.60 0.09522508
1173.70 0.09519822
1173.80 0.09517144
1173.90 0.09514469
1174.00 0.09511794
1174.10 0.09509121
1174.20 0.09506448
1174.30 0.09503776
1174.40 0.09501105
1174.50 0.09498435
1174.60 0.09495765
1174.70 0.09493097
1174.80 0.09490428
1174.90 0.09487761
1175.00 0.09485095
1175.10 0.09482429
1175.20 0.09479764
1175.30 0.094771
1175.40 0.09474436
1175.50 0.09471774
1175.60 0.09469112
1175.70 0.09466451
1175.80 0.0946379
1175.90 0.09461131
1176.00 0.09458472
1176.10 0.09455814
1176.20 0.09453157
1176.30 0.094505
1176.40 0.09447844
1176.50 0.09445189
1176.60 0.09442535
1176.70 0.09439882
1176.80 0.09437229
1176.90 0.09434577
1177.00 0.09431926
1177.10 0.09429276
1177.20 0.09426626
1177.30 0.09423977
1177.40 0.09421329
1177.50 0.09418682
1177.60 0.09416035
1177.70 0.09413389
1177.80 0.09410744
1177.90 0.094081
1178.00 0.09405457
1178.10 0.09402814
1178.20 0.09400172
1178.30 0.09397531
1178.40 0.0939489
1178.50 0.0939225
1178.60 0.09389612
1178.70 0.09386973
1178.80 0.09384336
1178.90 0.09381699
1179.00 0.09379063
1179.10 0.09376428
1179.20 0.09373794
1179.30 0.0937116
1179.40 0.09368527
1179.50 0.09365895
1179.60 0.09363264
1179.70 0.09360633
1179.80 0.09358004
1179.90 0.09355375
1180.00 0.09352747
1180.10 0.09350119
1180.20 0.09347493
1180.30 0.09344867
1180.40 0.09342242
1180.50 0.09339617
1180.60 0.09336994
1180.70 0.09334371
1180.80 0.09331749
1180.90 0.09329127
1181.00 0.09326507
1181.10 0.09323887
1181.20 0.09321268
1181.30 0.09318649
1181.40 0.09316032
1181.50 0.09313415
1181.60 0.09310799
1181.70 0.09308184
1181.80 0.09305569
1181.90 0.09302955
1182.00 0.09300342
1182.10 0.0929773
1182.20 0.09295118
1182.30 0.09292507
1182.40 0.09289897
1182.50 0.09287288
1182.60 0.0928468
1182.70 0.09282072
1182.80 0.09279465
1182.90 0.09276858
1183.00 0.09274253
1183.10 0.09271648
1183.20 0.09269044
1183.30 0.09266441
1183.40 0.09263838
1183.50 0.09261236
1183.60 0.09258635
1183.70 0.09256035
1183.80 0.09253435
1183.90 0.09250836
1184.00 0.09248238
1184.10 0.09245641
1184.20 0.09243044
1184.30 0.09240448
1184.40 0.09237853
1184.50 0.09235259
1184.60 0.09232665
1184.70 0.09230072
1184.80 0.0922748
1184.90 0.09224889
1185.00 0.09222298
1185.10 0.09219708
1185.20 0.09217119
1185.30 0.09214531
1185.40 0.09211943
1185.50 0.0920936
1185.60 0.09206784
1185.70 0.09204209
1185.80 0.09201634
1185.90 0.0919906
1186.00 0.09196487
1186.10 0.09193915
1186.20 0.09191343
1186.30 0.09188772
1186.40 0.09186202
1186.50 0.09183632
1186.60 0.09181064
1186.70 0.09178496
1186.80 0.09175928
1186.90 0.09173362
1187.00 0.09170796
1187.10 0.09168231
1187.20 0.09165667
1187.30 0.09163103
1187.40 0.0916054
1187.50 0.09157978
1187.60 0.09155417
1187.70 0.09152856
1187.80 0.09150296
1187.90 0.09147737
1188.00 0.09145178
1188.10 0.09142621
1188.20 0.09140064
1188.30 0.09137507
1188.40 0.09134952
1188.50 0.09132397
1188.60 0.09129843
1188.70 0.0912729
1188.80 0.09124737
1188.90 0.09122185
1189.00 0.09119634
1189.10 0.09117084
1189.20 0.09114534
1189.30 0.09111985
1189.40 0.09109437
1189.50 0.09106889
1189.60 0.09104342
1189.70 0.09101796
1189.80 0.09099251
1189.90 0.09096706
1190.00 0.09094163
1190.10 0.09091619
1190.20 0.09089077
1190.30 0.09086535
1190.40 0.09083994
1190.50 0.09081454
1190.60 0.09078915
1190.70 0.09076376
1190.80 0.09073838
1190.90 0.090713
1191.00 0.09068764
1191.10 0.09066228
1191.20 0.09063693
1191.30 0.09061158
1191.40 0.09058636
1191.50 0.09056181
1191.60 0.09053727
1191.70 0.09051273
1191.80 0.0904882
1191.90 0.09046368
1192.00 0.09043916
1192.10 0.09041465
1192.20 0.09039015
1192.30 0.09036565
1192.40 0.09034116
1192.50 0.09031668
1192.60 0.09029221
1192.70 0.09026774
1192.80 0.09024328
1192.90 0.09021882
1193.00 0.09019438
1193.10 0.09016994
1193.20 0.0901455
1193.30 0.09012108
1193.40 0.09009666
1193.50 0.09007225
1193.60 0.09004784
1193.70 0.09002344
1193.80 0.08999905
1193.90 0.08997467
1194.00 0.08995029
1194.10 0.08992592
1194.20 0.08990155
1194.30 0.0898772
1194.40 0.08985285
1194.50 0.0898285
1194.60 0.08980417
1194.70 0.08977984
1194.80 0.08975551
1194.90 0.0897312
1195.00 0.08970689
1195.10 0.08968259
1195.20 0.08965829
1195.30 0.089634
1195.40 0.08960972
1195.50 0.08958545
1195.60 0.08956118
1195.70 0.08953692
1195.80 0.08951267
1195.90 0.08948842
1196.00 0.08946418
1196.10 0.08943995
1196.20 0.08941572
1196.30 0.0893915
1196.40 0.08936729
1196.50 0.08934308
1196.60 0.08931888
1196.70 0.08929469
1196.80 0.0892705
1196.90 0.08924633
1197.00 0.08922215
1197.10 0.08919799
1197.20 0.08917383
1197.30 0.08914968
1197.40 0.08912495
1197.50 0.08910014
1197.60 0.08907534
1197.70 0.08905054
1197.80 0.08902575
1197.90 0.08900098
1198.00 0.0889762
1198.10 0.08895144
1198.20 0.08892668
1198.30 0.08890193
1198.40 0.08887718
1198.50 0.08885244
1198.60 0.08882771
1198.70 0.08880299
1198.80 0.08877827
1198.90 0.08875356
1199.00 0.08872886
1199.10 0.08870416
1199.20 0.08867947
1199.30 0.08865479
1199.40 0.08863012
1199.50 0.08860545
1199.60 0.08858079
1199.70 0.08855614
1199.80 0.08853149
1199.90 0.08850685
1200.00 0.08848222
