# Version 2.1 - nm, norm@500 to 1, cut digits, bergeron_He_11000_90.dat_11000
# Wavelength(nm)  Flambda(ergs/cm^s/s/nm)
300.00 2.319915
300.10 2.319254
300.20 2.318591
300.30 2.317928
300.40 2.317262
300.50 2.316597
300.60 2.315933
300.70 2.315268
300.80 2.314604
300.90 2.313941
301.00 2.313278
301.10 2.312615
301.20 2.311952
301.30 2.31129
301.40 2.310628
301.50 2.309967
301.60 2.309306
301.70 2.308645
301.80 2.307985
301.90 2.307325
302.00 2.306666
302.10 2.306006
302.20 2.305346
302.30 2.304686
302.40 2.304027
302.50 2.303368
302.60 2.30271
302.70 2.302052
302.80 2.301394
302.90 2.300737
303.00 2.30008
303.10 2.299423
303.20 2.298767
303.30 2.298111
303.40 2.297459
303.50 2.296807
303.60 2.296155
303.70 2.295504
303.80 2.294853
303.90 2.294202
304.00 2.293552
304.10 2.292902
304.20 2.292252
304.30 2.291603
304.40 2.290954
304.50 2.290306
304.60 2.289641
304.70 2.288976
304.80 2.28831
304.90 2.287645
305.00 2.28698
305.10 2.286316
305.20 2.285652
305.30 2.284988
305.40 2.284325
305.50 2.283662
305.60 2.283
305.70 2.282338
305.80 2.281676
305.90 2.281015
306.00 2.280354
306.10 2.279693
306.20 2.279033
306.30 2.278373
306.40 2.27768
306.50 2.276978
306.60 2.276276
306.70 2.275575
306.80 2.274874
306.90 2.274173
307.00 2.273473
307.10 2.272773
307.20 2.272074
307.30 2.271375
307.40 2.270677
307.50 2.269979
307.60 2.269281
307.70 2.268584
307.80 2.267887
307.90 2.267191
308.00 2.266495
308.10 2.2658
308.20 2.265105
308.30 2.26441
308.40 2.263716
308.50 2.263022
308.60 2.262329
308.70 2.261636
308.80 2.260934
308.90 2.260202
309.00 2.259593
309.10 2.258984
309.20 2.258376
309.30 2.257768
309.40 2.257147
309.50 2.25645
309.60 2.255753
309.70 2.255057
309.80 2.254361
309.90 2.253665
310.00 2.25297
310.10 2.252275
310.20 2.251581
310.30 2.250887
310.40 2.250151
310.50 2.249368
310.60 2.248586
310.70 2.247804
310.80 2.247023
310.90 2.246243
311.00 2.24565
311.10 2.245058
311.20 2.244466
311.30 2.243836
311.40 2.243096
311.50 2.242357
311.60 2.241618
311.70 2.24088
311.80 2.240143
311.90 2.239406
312.00 2.238669
312.10 2.237933
312.20 2.237284
312.30 2.236678
312.40 2.235998
312.50 2.235164
312.60 2.23446
312.70 2.233757
312.80 2.233055
312.90 2.232363
313.00 2.231682
313.10 2.231001
313.20 2.230321
313.30 2.229625
313.40 2.228881
313.50 2.228138
313.60 2.227395
313.70 2.226653
313.80 2.225911
313.90 2.22517
314.00 2.224429
314.10 2.223705
314.20 2.222981
314.30 2.222257
314.40 2.221534
314.50 2.220811
314.60 2.220089
314.70 2.219368
314.80 2.218615
314.90 2.21779
315.00 2.216982
315.10 2.21624
315.20 2.215498
315.30 2.214757
315.40 2.214017
315.50 2.213277
315.60 2.212537
315.70 2.211798
315.80 2.21106
315.90 2.210322
316.00 2.209584
316.10 2.208847
316.20 2.20811
316.30 2.207374
316.40 2.206419
316.50 2.205684
316.60 2.20473
316.70 2.203996
316.80 2.203263
316.90 2.20242
317.00 2.201578
317.10 2.200737
317.20 2.199897
317.30 2.199264
317.40 2.198569
317.50 2.197697
317.60 2.196825
317.70 2.195954
317.80 2.195084
317.90 2.194276
318.00 2.193336
318.10 2.192501
318.20 2.191666
318.30 2.190832
318.40 2.189971
318.50 2.18903
318.60 2.188259
318.70 2.187471
318.80 2.186532
318.90 2.186091
319.00 2.185313
319.10 2.184808
319.20 2.184257
319.30 2.183574
319.40 2.182892
319.50 2.18221
319.60 2.181809
319.70 2.181128
319.80 2.180447
319.90 2.179767
320.00 2.179172
320.10 2.17867
320.20 2.177948
320.30 2.177555
320.40 2.176753
320.50 2.176123
320.60 2.175631
320.70 2.174916
320.80 2.174253
320.90 2.173646
321.00 2.17304
321.10 2.172434
321.20 2.171642
321.30 2.170954
321.40 2.170267
321.50 2.16958
321.60 2.168894
321.70 2.168208
321.80 2.16748
321.90 2.166708
322.00 2.166116
322.10 2.165405
322.20 2.164694
322.30 2.163983
322.40 2.163273
322.50 2.162563
322.60 2.161854
322.70 2.161145
322.80 2.160712
322.90 2.159974
323.00 2.159236
323.10 2.158499
323.20 2.157762
323.30 2.157026
323.40 2.15629
323.50 2.155555
323.60 2.15482
323.70 2.154086
323.80 2.153352
323.90 2.152619
324.00 2.151851
324.10 2.151083
324.20 2.150316
324.30 2.149544
324.40 2.148793
324.50 2.148083
324.60 2.147374
324.70 2.146666
324.80 2.145958
324.90 2.14525
325.00 2.144543
325.10 2.143836
325.20 2.14312
325.30 2.142382
325.40 2.141645
325.50 2.140883
325.60 2.140091
325.70 2.1393
325.80 2.138509
325.90 2.137751
326.00 2.137028
326.10 2.136306
326.20 2.135585
326.30 2.134882
326.40 2.134229
326.50 2.133463
326.60 2.132696
326.70 2.13193
326.80 2.131165
326.90 2.1304
327.00 2.129636
327.10 2.128873
327.20 2.12811
327.30 2.127347
327.40 2.126585
327.50 2.125823
327.60 2.125062
327.70 2.124302
327.80 2.123542
327.90 2.122907
328.00 2.122288
328.10 2.121523
328.20 2.120759
328.30 2.119995
328.40 2.119232
328.50 2.118507
328.60 2.117792
328.70 2.117078
328.80 2.116349
328.90 2.115579
329.00 2.114809
329.10 2.114041
329.20 2.113272
329.30 2.112504
329.40 2.111737
329.50 2.110971
329.60 2.110204
329.70 2.109439
329.80 2.108674
329.90 2.107909
330.00 2.107143
330.10 2.106376
330.20 2.105608
330.30 2.104842
330.40 2.104095
330.50 2.10337
330.60 2.102645
330.70 2.101921
330.80 2.101197
330.90 2.100474
331.00 2.099752
331.10 2.099029
331.20 2.098308
331.30 2.097587
331.40 2.096866
331.50 2.096118
331.60 2.095336
331.70 2.094555
331.80 2.093795
331.90 2.093036
332.00 2.092278
332.10 2.09152
332.20 2.090763
332.30 2.090006
332.40 2.08925
332.50 2.088495
332.60 2.08774
332.70 2.086985
332.80 2.086231
332.90 2.085478
333.00 2.084725
333.10 2.083962
333.20 2.083187
333.30 2.082413
333.40 2.081639
333.50 2.080865
333.60 2.080093
333.70 2.07932
333.80 2.078549
333.90 2.077778
334.00 2.077007
334.10 2.076231
334.20 2.075449
334.30 2.074667
334.40 2.073885
334.50 2.073104
334.60 2.072324
334.70 2.071678
334.80 2.071071
334.90 2.070283
335.00 2.069496
335.10 2.06862
335.20 2.067974
335.30 2.067112
335.40 2.066467
335.50 2.065773
335.60 2.064786
335.70 2.063966
335.80 2.063323
335.90 2.062636
336.00 2.061895
336.10 2.061156
336.20 2.060416
336.30 2.059663
336.40 2.058893
336.50 2.058122
336.60 2.057353
336.70 2.056584
336.80 2.055816
336.90 2.05506
337.00 2.05432
337.10 2.053581
337.20 2.052842
337.30 2.052067
337.40 2.05124
337.50 2.050414
337.60 2.049588
337.70 2.048763
337.80 2.047939
337.90 2.047142
338.00 2.046379
338.10 2.045616
338.20 2.044854
338.30 2.044092
338.40 2.04334
338.50 2.042609
338.60 2.041878
338.70 2.041148
338.80 2.040418
338.90 2.039689
339.00 2.03896
339.10 2.038232
339.20 2.037504
339.30 2.036742
339.40 2.035932
339.50 2.035132
339.60 2.034343
339.70 2.033555
339.80 2.032768
339.90 2.031981
340.00 2.031194
340.10 2.030409
340.20 2.029623
340.30 2.028839
340.40 2.028055
340.50 2.027271
340.60 2.026488
340.70 2.025706
340.80 2.024995
340.90 2.024387
341.00 2.02371
341.10 2.022949
341.20 2.022189
341.30 2.021429
341.40 2.02067
341.50 2.019912
341.60 2.019153
341.70 2.018396
341.80 2.017608
341.90 2.016782
342.00 2.015957
342.10 2.015132
342.20 2.014426
342.30 2.013653
342.40 2.012817
342.50 2.012083
342.60 2.011349
342.70 2.010615
342.80 2.009882
342.90 2.00915
343.00 2.008387
343.10 2.007586
343.20 2.006786
343.30 2.005987
343.40 2.00519
343.50 2.004396
343.60 2.003602
343.70 2.002809
343.80 2.002016
343.90 2.001224
344.00 2.000471
344.10 1.999773
344.20 1.999076
344.30 1.998379
344.40 1.997644
344.50 1.996856
344.60 1.995925
344.70 1.995128
344.80 1.99435
344.90 1.993555
345.00 1.992921
345.10 1.992136
345.20 1.991353
345.30 1.990574
345.40 1.989795
345.50 1.989009
345.60 1.988218
345.70 1.987436
345.80 1.986655
345.90 1.985874
346.00 1.985094
346.10 1.984315
346.20 1.983551
346.30 1.982809
346.40 1.982068
346.50 1.981327
346.60 1.980587
346.70 1.979848
346.80 1.979109
346.90 1.97837
347.00 1.977632
347.10 1.976894
347.20 1.976136
347.30 1.975347
347.40 1.974558
347.50 1.97377
347.60 1.972983
347.70 1.972196
347.80 1.97141
347.90 1.970624
348.00 1.969839
348.10 1.969055
348.20 1.968271
348.30 1.967487
348.40 1.966705
348.50 1.965922
348.60 1.965141
348.70 1.964504
348.80 1.963833
348.90 1.963045
349.00 1.962257
349.10 1.96147
349.20 1.960684
349.30 1.959898
349.40 1.959113
349.50 1.958328
349.60 1.957544
349.70 1.956761
349.80 1.955978
349.90 1.955195
350.00 1.954414
350.10 1.953633
350.20 1.952852
350.30 1.952081
350.40 1.951324
350.50 1.950567
350.60 1.949811
350.70 1.949056
350.80 1.948301
350.90 1.947546
351.00 1.946792
351.10 1.946039
351.20 1.945286
351.30 1.944534
351.40 1.943775
351.50 1.943003
351.60 1.942232
351.70 1.941462
351.80 1.940692
351.90 1.939922
352.00 1.939154
352.10 1.938385
352.20 1.937532
352.30 1.936711
352.40 1.935948
352.50 1.935185
352.60 1.934423
352.70 1.933661
352.80 1.9329
352.90 1.93214
353.00 1.93138
353.10 1.930621
353.20 1.929862
353.30 1.929104
353.40 1.928346
353.50 1.927576
353.60 1.926803
353.70 1.92603
353.80 1.925259
353.90 1.924486
354.00 1.923713
354.10 1.922941
354.20 1.922169
354.30 1.921397
354.40 1.920626
354.50 1.919856
354.60 1.919086
354.70 1.918317
354.80 1.91755
354.90 1.916786
355.00 1.916023
355.10 1.915261
355.20 1.914499
355.30 1.913745
355.40 1.912992
355.50 1.912239
355.60 1.911487
355.70 1.910718
355.80 1.909943
355.90 1.90906
356.00 1.908238
356.10 1.907479
356.20 1.906721
356.30 1.905963
356.40 1.905205
356.50 1.904448
356.60 1.903692
356.70 1.902936
356.80 1.902181
356.90 1.901426
357.00 1.900672
357.10 1.899918
357.20 1.899165
357.30 1.898413
357.40 1.897623
357.50 1.896766
357.60 1.89591
357.70 1.895055
357.80 1.894309
357.90 1.893563
358.00 1.892804
358.10 1.892043
358.20 1.891283
358.30 1.890523
358.40 1.889763
358.50 1.889004
358.60 1.888246
358.70 1.887488
358.80 1.886731
358.90 1.885974
359.00 1.885222
359.10 1.884479
359.20 1.883734
359.30 1.882978
359.40 1.882223
359.50 1.881429
359.60 1.880626
359.70 1.879823
359.80 1.879036
359.90 1.878249
360.00 1.877485
360.10 1.876758
360.20 1.876032
360.30 1.875306
360.40 1.874581
360.50 1.873857
360.60 1.872912
360.70 1.872128
360.80 1.871344
360.90 1.87056
361.00 1.869903
361.10 1.869176
361.20 1.868291
361.30 1.867594
361.40 1.866881
361.50 1.866202
361.60 1.865291
361.70 1.864596
361.80 1.863875
361.90 1.863108
362.00 1.862341
362.10 1.861551
362.20 1.860779
362.30 1.860046
362.40 1.859313
362.50 1.858581
362.60 1.85785
362.70 1.85707
362.80 1.856195
362.90 1.855505
363.00 1.854815
363.10 1.853948
363.20 1.85308
363.30 1.852423
363.40 1.851487
363.50 1.850719
363.60 1.850034
363.70 1.849386
363.80 1.848665
363.90 1.847887
364.00 1.847109
364.10 1.846332
364.20 1.845555
364.30 1.844737
364.40 1.843908
364.50 1.84323
364.60 1.842439
364.70 1.841649
364.80 1.840859
364.90 1.840181
365.00 1.839503
365.10 1.838661
365.20 1.837984
365.30 1.837143
365.40 1.836467
365.50 1.835627
365.60 1.834787
365.70 1.834083
365.80 1.83338
365.90 1.832584
366.00 1.831765
366.10 1.831006
366.20 1.830248
366.30 1.829491
366.40 1.828734
366.50 1.828077
366.60 1.827411
366.70 1.826663
366.80 1.825915
366.90 1.825163
367.00 1.824403
367.10 1.823644
367.20 1.822886
367.30 1.822128
367.40 1.821371
367.50 1.820572
367.60 1.819762
367.70 1.818944
367.80 1.818126
367.90 1.817309
368.00 1.816621
368.10 1.815797
368.20 1.815063
368.30 1.814333
368.40 1.813603
368.50 1.812874
368.60 1.812145
368.70 1.811417
368.80 1.810689
368.90 1.80987
369.00 1.809032
369.10 1.808231
369.20 1.807576
369.30 1.806812
369.40 1.806049
369.50 1.805287
369.60 1.80447
369.70 1.803654
369.80 1.802939
369.90 1.802225
370.00 1.801512
370.10 1.800723
370.20 1.799909
370.30 1.799098
370.40 1.798449
370.50 1.797635
370.60 1.796981
370.70 1.79618
370.80 1.795371
370.90 1.794562
371.00 1.793914
371.10 1.793269
371.20 1.792462
371.30 1.791655
371.40 1.790777
371.50 1.790051
371.60 1.789325
371.70 1.7886
371.80 1.787875
371.90 1.787151
372.00 1.786283
372.10 1.78555
372.20 1.784803
372.30 1.784056
372.40 1.783309
372.50 1.782563
372.60 1.781818
372.70 1.781073
372.80 1.780276
372.90 1.779478
373.00 1.778841
373.10 1.778205
373.20 1.77741
373.30 1.776616
373.40 1.775822
373.50 1.775187
373.60 1.774395
373.70 1.773445
373.80 1.77288
373.90 1.772178
374.00 1.771388
374.10 1.770598
374.20 1.769809
374.30 1.769021
374.40 1.768272
374.50 1.767445
374.60 1.766735
374.70 1.766028
374.80 1.765321
374.90 1.764615
375.00 1.763883
375.10 1.763151
375.20 1.76242
375.30 1.761659
375.40 1.760899
375.50 1.76014
375.60 1.759381
375.70 1.758623
375.80 1.757865
375.90 1.757108
376.00 1.756173
376.10 1.755441
376.20 1.754711
376.30 1.753982
376.40 1.753253
376.50 1.752529
376.60 1.751813
376.70 1.751097
376.80 1.750346
376.90 1.749562
377.00 1.748779
377.10 1.747995
377.20 1.747223
377.30 1.74649
377.40 1.745757
377.50 1.745025
377.60 1.744302
377.70 1.743579
377.80 1.742858
377.90 1.742136
378.00 1.741335
378.10 1.740591
378.20 1.739848
378.30 1.739107
378.40 1.738365
378.50 1.737625
378.60 1.736885
378.70 1.736145
378.80 1.735406
378.90 1.734685
379.00 1.733997
379.10 1.733205
379.20 1.732413
379.30 1.73161
379.40 1.730796
379.50 1.729983
379.60 1.729233
379.70 1.728556
379.80 1.727795
379.90 1.727034
380.00 1.726273
380.10 1.725513
380.20 1.724754
380.30 1.723995
380.40 1.723237
380.50 1.722479
380.60 1.721934
380.70 1.721168
380.80 1.720402
380.90 1.719637
381.00 1.718872
381.10 1.718159
381.20 1.717372
381.30 1.716528
381.40 1.715928
381.50 1.715183
381.60 1.714378
381.70 1.713558
381.80 1.712884
381.90 1.712138
382.00 1.711392
382.10 1.710497
382.20 1.709963
382.30 1.70922
382.40 1.708457
382.50 1.707667
382.60 1.706877
382.70 1.706039
382.80 1.705218
382.90 1.704467
383.00 1.703717
383.10 1.702968
383.20 1.702224
383.30 1.701502
383.40 1.700799
383.50 1.700126
383.60 1.69925
383.70 1.698483
383.80 1.697716
383.90 1.69695
384.00 1.696184
384.10 1.695419
384.20 1.694654
384.30 1.69389
384.40 1.693102
384.50 1.692291
384.60 1.691481
384.70 1.690671
384.80 1.689847
384.90 1.689014
385.00 1.688264
385.10 1.687512
385.20 1.686707
385.30 1.685982
385.40 1.685182
385.50 1.684308
385.60 1.683434
385.70 1.682562
385.80 1.681726
385.90 1.681027
386.00 1.680243
386.10 1.679362
386.20 1.678379
386.30 1.677396
386.40 1.676471
386.50 1.675603
386.60 1.674737
386.70 1.673871
386.80 1.672711
386.90 1.671847
387.00 1.670828
387.10 1.669826
387.20 1.668751
387.30 1.667801
387.40 1.666578
387.50 1.66537
387.60 1.664272
387.70 1.663047
387.80 1.661824
387.90 1.660601
388.00 1.659385
388.10 1.658265
388.20 1.656978
388.30 1.655754
388.40 1.654531
388.50 1.653349
388.60 1.652296
388.70 1.651446
388.80 1.650305
388.90 1.649457
389.00 1.649051
389.10 1.648463
389.20 1.648039
389.30 1.64773
389.40 1.647479
389.50 1.647283
389.60 1.647156
389.70 1.646956
389.80 1.646702
389.90 1.646449
390.00 1.646195
390.10 1.645941
390.20 1.645688
390.30 1.645376
390.40 1.644998
390.50 1.64462
390.60 1.644242
390.70 1.643865
390.80 1.643418
390.90 1.642903
391.00 1.642264
391.10 1.641843
391.20 1.641416
391.30 1.640896
391.40 1.640297
391.50 1.639699
391.60 1.6391
391.70 1.638503
391.80 1.637905
391.90 1.637322
392.00 1.636747
392.10 1.63616
392.20 1.635551
392.30 1.634814
392.40 1.634185
392.50 1.633623
392.60 1.633076
392.70 1.632295
392.80 1.631699
392.90 1.630922
393.00 1.630243
393.10 1.629591
393.20 1.628963
393.30 1.628277
393.40 1.62765
393.50 1.627036
393.60 1.626383
393.70 1.625667
393.80 1.624855
393.90 1.624171
394.00 1.623517
394.10 1.622936
394.20 1.622112
394.30 1.621413
394.40 1.620751
394.50 1.619929
394.60 1.619266
394.70 1.618598
394.80 1.617907
394.90 1.617223
395.00 1.616677
395.10 1.615859
395.20 1.615114
395.30 1.614389
395.40 1.613664
395.50 1.612957
395.60 1.612256
395.70 1.611548
395.80 1.610822
395.90 1.610097
396.00 1.609395
396.10 1.60887
396.20 1.608198
396.30 1.607489
396.40 1.606678
396.50 1.605868
396.60 1.605338
396.70 1.604529
396.80 1.603834
396.90 1.603191
397.00 1.602384
397.10 1.601809
397.20 1.601049
397.30 1.600291
397.40 1.599661
397.50 1.599031
397.60 1.598395
397.70 1.59769
397.80 1.596986
397.90 1.596282
398.00 1.595579
398.10 1.594877
398.20 1.594182
398.30 1.593495
398.40 1.592806
398.50 1.592006
398.60 1.591425
398.70 1.590777
398.80 1.590092
398.90 1.589368
399.00 1.588572
399.10 1.588058
399.20 1.587326
399.30 1.586594
399.40 1.585863
399.50 1.585132
399.60 1.584442
399.70 1.583766
399.80 1.583091
399.90 1.582417
400.00 1.581739
400.10 1.580949
400.20 1.580351
400.30 1.579731
400.40 1.57905
400.50 1.578341
400.60 1.577553
400.70 1.576766
400.80 1.576205
400.90 1.575467
401.00 1.574681
401.10 1.57417
401.20 1.573385
401.30 1.572601
401.40 1.571891
401.50 1.57121
401.60 1.570532
401.70 1.56996
401.80 1.569235
401.90 1.568454
402.00 1.567684
402.10 1.567166
402.20 1.566387
402.30 1.565608
402.40 1.565016
402.50 1.564325
402.60 1.563548
402.70 1.563043
402.80 1.562267
402.90 1.5616
403.00 1.56096
403.10 1.560213
403.20 1.559445
403.30 1.55888
403.40 1.558164
403.50 1.557392
403.60 1.556642
403.70 1.556119
403.80 1.555353
403.90 1.554736
404.00 1.554078
404.10 1.553309
404.20 1.552675
404.30 1.552042
404.40 1.551275
404.50 1.550508
404.60 1.549876
404.70 1.549244
404.80 1.548487
404.90 1.547983
405.00 1.547218
405.10 1.546531
405.20 1.545864
405.30 1.545197
405.40 1.544479
405.50 1.543762
405.60 1.543045
405.70 1.542329
405.80 1.541614
405.90 1.540899
406.00 1.540247
406.10 1.539596
406.20 1.538946
406.30 1.538296
406.40 1.537643
406.50 1.536886
406.60 1.536263
406.70 1.535641
406.80 1.534886
406.90 1.534134
407.00 1.53346
407.10 1.532787
407.20 1.532114
407.30 1.531441
407.40 1.530769
407.50 1.530097
407.60 1.529426
407.70 1.528755
407.80 1.528085
407.90 1.527413
408.00 1.526664
408.10 1.525916
408.20 1.525237
408.30 1.524576
408.40 1.523916
408.50 1.523193
408.60 1.522539
408.70 1.521885
408.80 1.521221
408.90 1.520502
409.00 1.519859
409.10 1.519217
409.20 1.518576
409.30 1.517935
409.40 1.517291
409.50 1.51655
409.60 1.51581
409.70 1.515094
409.80 1.514475
409.90 1.513854
410.00 1.513115
410.10 1.512377
410.20 1.511722
410.30 1.511087
410.40 1.510449
410.50 1.509799
410.60 1.50915
410.70 1.508484
410.80 1.507749
410.90 1.507015
411.00 1.506336
411.10 1.505677
411.20 1.505019
411.30 1.504346
411.40 1.503617
411.50 1.502978
411.60 1.50234
411.70 1.501684
411.80 1.500954
411.90 1.500226
412.00 1.499757
412.10 1.499029
412.20 1.498302
412.30 1.497575
412.40 1.496858
412.50 1.496382
412.60 1.495657
412.70 1.494932
412.80 1.494208
412.90 1.493494
413.00 1.493031
413.10 1.49236
413.20 1.491689
413.30 1.491018
413.40 1.490348
413.50 1.489668
413.60 1.488963
413.70 1.488308
413.80 1.487653
413.90 1.486998
414.00 1.486329
414.10 1.485611
414.20 1.484894
414.30 1.484177
414.40 1.483461
414.50 1.483001
414.60 1.482286
414.70 1.481571
414.80 1.480872
414.90 1.480222
415.00 1.479573
415.10 1.478924
415.20 1.47826
415.30 1.477548
415.40 1.476837
415.50 1.476129
415.60 1.47551
415.70 1.474892
415.80 1.474272
415.90 1.473647
416.00 1.473022
416.10 1.472381
416.20 1.471673
416.30 1.470966
416.40 1.47026
416.50 1.469558
416.60 1.468979
416.70 1.468397
416.80 1.467693
416.90 1.466989
417.00 1.466285
417.10 1.465586
417.20 1.46501
417.30 1.46443
417.40 1.463729
417.50 1.463028
417.60 1.462327
417.70 1.461628
417.80 1.460971
417.90 1.460314
418.00 1.459657
418.10 1.459001
418.20 1.458345
418.30 1.457688
418.40 1.457005
418.50 1.456363
418.60 1.455722
418.70 1.455081
418.80 1.454441
418.90 1.453801
419.00 1.453162
419.10 1.452523
419.20 1.451884
419.30 1.451244
419.40 1.450553
419.50 1.449861
419.60 1.44917
419.70 1.44848
419.80 1.44779
419.90 1.447112
420.00 1.446472
420.10 1.445832
420.20 1.445193
420.30 1.444554
420.40 1.443916
420.50 1.443278
420.60 1.44264
420.70 1.442003
420.80 1.441366
420.90 1.440729
421.00 1.440045
421.10 1.439361
421.20 1.438686
421.30 1.438039
421.40 1.437392
421.50 1.436745
421.60 1.436099
421.70 1.435453
421.80 1.434808
421.90 1.434155
422.00 1.433475
422.10 1.432811
422.20 1.432211
422.30 1.43161
422.40 1.431009
422.50 1.430356
422.60 1.429704
422.70 1.429053
422.80 1.428402
422.90 1.427751
423.00 1.427101
423.10 1.426451
423.20 1.425802
423.30 1.425154
423.40 1.424505
423.50 1.423857
423.60 1.42321
423.70 1.422563
423.80 1.421917
423.90 1.42127
424.00 1.420625
424.10 1.41998
424.20 1.419335
424.30 1.418691
424.40 1.418042
424.50 1.417399
424.60 1.416756
424.70 1.416113
424.80 1.415471
424.90 1.41483
425.00 1.414188
425.10 1.413548
425.20 1.412908
425.30 1.412268
425.40 1.411627
425.50 1.41098
425.60 1.410333
425.70 1.409687
425.80 1.409041
425.90 1.408395
426.00 1.40775
426.10 1.407106
426.20 1.406461
426.30 1.405818
426.40 1.405174
426.50 1.404532
426.60 1.403889
426.70 1.403247
426.80 1.402606
426.90 1.401965
427.00 1.401321
427.10 1.400677
427.20 1.400034
427.30 1.399392
427.40 1.39875
427.50 1.398108
427.60 1.397467
427.70 1.396826
427.80 1.396186
427.90 1.395546
428.00 1.394907
428.10 1.394268
428.20 1.393629
428.30 1.392991
428.40 1.392354
428.50 1.391717
428.60 1.39108
428.70 1.390444
428.80 1.389808
428.90 1.389169
429.00 1.388531
429.10 1.387894
429.20 1.387257
429.30 1.38662
429.40 1.385984
429.50 1.385348
429.60 1.384713
429.70 1.384078
429.80 1.383443
429.90 1.382809
430.00 1.382176
430.10 1.381543
430.20 1.38091
430.30 1.380278
430.40 1.379646
430.50 1.379014
430.60 1.378383
430.70 1.377753
430.80 1.377123
430.90 1.376493
431.00 1.375864
431.10 1.375235
431.20 1.374607
431.30 1.373979
431.40 1.373354
431.50 1.37273
431.60 1.372105
431.70 1.371481
431.80 1.370858
431.90 1.370235
432.00 1.369613
432.10 1.368991
432.20 1.368369
432.30 1.367748
432.40 1.367127
432.50 1.366507
432.60 1.365887
432.70 1.365267
432.80 1.364648
432.90 1.364029
433.00 1.363411
433.10 1.362793
433.20 1.362176
433.30 1.361558
433.40 1.36093
433.50 1.360302
433.60 1.359675
433.70 1.359048
433.80 1.358421
433.90 1.357795
434.00 1.35717
434.10 1.356544
434.20 1.35592
434.30 1.355295
434.40 1.354671
434.50 1.354048
434.60 1.353425
434.70 1.352802
434.80 1.35218
434.90 1.351558
435.00 1.350937
435.10 1.350316
435.20 1.349696
435.30 1.349076
435.40 1.348456
435.50 1.347837
435.60 1.347218
435.70 1.3466
435.80 1.345982
435.90 1.345364
436.00 1.344747
436.10 1.344131
436.20 1.343514
436.30 1.342898
436.40 1.342281
436.50 1.341635
436.60 1.34099
436.70 1.340346
436.80 1.339701
436.90 1.339058
437.00 1.338414
437.10 1.337772
437.20 1.337145
437.30 1.336534
437.40 1.335923
437.50 1.335312
437.60 1.334702
437.70 1.334092
437.80 1.333482
437.90 1.332874
438.00 1.332265
438.10 1.331657
438.20 1.331049
438.30 1.330442
438.40 1.329835
438.50 1.329228
438.60 1.328622
438.70 1.327862
438.80 1.327183
438.90 1.326578
439.00 1.325974
439.10 1.32537
439.20 1.324767
439.30 1.324164
439.40 1.323561
439.50 1.322959
439.60 1.322357
439.70 1.321755
439.80 1.321131
439.90 1.320479
440.00 1.319826
440.10 1.319175
440.20 1.318526
440.30 1.317904
440.40 1.317283
440.50 1.316662
440.60 1.316042
440.70 1.315422
440.80 1.314803
440.90 1.314184
441.00 1.313565
441.10 1.312947
441.20 1.312331
441.30 1.311736
441.40 1.311142
441.50 1.310548
441.60 1.309955
441.70 1.309362
441.80 1.3087
441.90 1.308039
442.00 1.307378
442.10 1.306718
442.20 1.306059
442.30 1.305399
442.40 1.304772
442.50 1.304182
442.60 1.303593
442.70 1.302936
442.80 1.302191
442.90 1.301603
443.00 1.301015
443.10 1.300428
443.20 1.299785
443.30 1.299091
443.40 1.298395
443.50 1.297697
443.60 1.297051
443.70 1.296466
443.80 1.295854
443.90 1.295075
444.00 1.294441
444.10 1.293747
444.20 1.293103
444.30 1.292515
444.40 1.291849
444.50 1.291182
444.60 1.290503
444.70 1.289807
444.80 1.289115
444.90 1.288427
445.00 1.287738
445.10 1.287051
445.20 1.286362
445.30 1.285672
445.40 1.284982
445.50 1.284293
445.60 1.283605
445.70 1.282917
445.80 1.282231
445.90 1.281547
446.00 1.280864
446.10 1.280181
446.20 1.279547
446.30 1.278946
446.40 1.278152
446.50 1.277524
446.60 1.276897
446.70 1.27627
446.80 1.275615
446.90 1.274934
447.00 1.274311
447.10 1.273741
447.20 1.273171
447.30 1.272602
447.40 1.272033
447.50 1.271465
447.60 1.270972
447.70 1.270548
447.80 1.269981
447.90 1.269414
448.00 1.268885
448.10 1.268392
448.20 1.267899
448.30 1.267407
448.40 1.266914
448.50 1.266423
448.60 1.265939
448.70 1.265464
448.80 1.264987
448.90 1.264471
449.00 1.263955
449.10 1.263439
449.20 1.262924
449.30 1.262388
449.40 1.261914
449.50 1.26144
449.60 1.260951
449.70 1.260449
449.80 1.259946
449.90 1.259444
450.00 1.258942
450.10 1.25844
450.20 1.257939
450.30 1.257438
450.40 1.256916
450.50 1.256394
450.60 1.255873
450.70 1.255352
450.80 1.254831
450.90 1.25431
451.00 1.253754
451.10 1.253198
451.20 1.252643
451.30 1.252088
451.40 1.251641
451.50 1.251195
451.60 1.250641
451.70 1.250087
451.80 1.249534
451.90 1.248981
452.00 1.248428
452.10 1.247876
452.20 1.247324
452.30 1.246773
452.40 1.246222
452.50 1.245671
452.60 1.24512
452.70 1.24457
452.80 1.244021
452.90 1.243471
453.00 1.242922
453.10 1.242374
453.20 1.241826
453.30 1.241278
453.40 1.24073
453.50 1.240183
453.60 1.239636
453.70 1.23909
453.80 1.238544
453.90 1.237998
454.00 1.237453
454.10 1.236908
454.20 1.236364
454.30 1.235819
454.40 1.235275
454.50 1.234732
454.60 1.234189
454.70 1.233635
454.80 1.233073
454.90 1.23251
455.00 1.231949
455.10 1.231387
455.20 1.230826
455.30 1.230265
455.40 1.229705
455.50 1.229145
455.60 1.228585
455.70 1.228026
455.80 1.227487
455.90 1.226948
456.00 1.22641
456.10 1.225867
456.20 1.22531
456.30 1.224754
456.40 1.224197
456.50 1.223641
456.60 1.223086
456.70 1.222531
456.80 1.221976
456.90 1.221421
457.00 1.220867
457.10 1.220314
457.20 1.21977
457.30 1.219208
457.40 1.218645
457.50 1.218083
457.60 1.217521
457.70 1.21696
457.80 1.216399
457.90 1.215838
458.00 1.215278
458.10 1.214718
458.20 1.214159
458.30 1.213599
458.40 1.213041
458.50 1.212482
458.60 1.211924
458.70 1.211361
458.80 1.210797
458.90 1.210233
459.00 1.209669
459.10 1.209105
459.20 1.208542
459.30 1.207987
459.40 1.207432
459.50 1.206877
459.60 1.206323
459.70 1.205769
459.80 1.205216
459.90 1.204663
460.00 1.20411
460.10 1.203558
460.20 1.203006
460.30 1.202454
460.40 1.201903
460.50 1.201352
460.60 1.200801
460.70 1.20027
460.80 1.19975
460.90 1.199229
461.00 1.198709
461.10 1.198189
461.20 1.197592
461.30 1.196965
461.40 1.196425
461.50 1.195906
461.60 1.195388
461.70 1.19487
461.80 1.194309
461.90 1.193749
462.00 1.193189
462.10 1.192629
462.20 1.19207
462.30 1.191511
462.40 1.190953
462.50 1.190395
462.60 1.189837
462.70 1.189279
462.80 1.188722
462.90 1.188166
463.00 1.187609
463.10 1.187054
463.20 1.186507
463.30 1.185966
463.40 1.185424
463.50 1.184883
463.60 1.184342
463.70 1.183802
463.80 1.183262
463.90 1.182726
464.00 1.182191
464.10 1.181656
464.20 1.181122
464.30 1.180588
464.40 1.180054
464.50 1.179521
464.60 1.178988
464.70 1.17845
464.80 1.177909
464.90 1.177369
465.00 1.17683
465.10 1.17629
465.20 1.175751
465.30 1.175212
465.40 1.174672
465.50 1.174132
465.60 1.173593
465.70 1.173054
465.80 1.172515
465.90 1.171965
466.00 1.171413
466.10 1.170861
466.20 1.170309
466.30 1.169764
466.40 1.169222
466.50 1.16868
466.60 1.168139
466.70 1.167598
466.80 1.167057
466.90 1.166517
467.00 1.165977
467.10 1.165438
467.20 1.164898
467.30 1.164388
467.40 1.163827
467.50 1.16325
467.60 1.162673
467.70 1.162097
467.80 1.161521
467.90 1.161002
468.00 1.160506
468.10 1.16001
468.20 1.159514
468.30 1.158948
468.40 1.158353
468.50 1.157829
468.60 1.157335
468.70 1.156842
468.80 1.156148
468.90 1.155655
469.00 1.155162
469.10 1.154634
469.20 1.154092
469.30 1.15355
469.40 1.153009
469.50 1.152473
469.60 1.151939
469.70 1.151405
469.80 1.150872
469.90 1.150343
470.00 1.149853
470.10 1.149335
470.20 1.148806
470.30 1.148277
470.40 1.147748
470.50 1.14722
470.60 1.146684
470.70 1.146148
470.80 1.145611
470.90 1.145075
471.00 1.144433
471.10 1.143895
471.20 1.143409
471.30 1.142924
471.40 1.142241
471.50 1.141757
471.60 1.141273
471.70 1.140789
471.80 1.140266
471.90 1.139733
472.00 1.139201
472.10 1.138669
472.20 1.138146
472.30 1.137625
472.40 1.137105
472.50 1.136585
472.60 1.136065
472.70 1.135573
472.80 1.135061
472.90 1.134542
473.00 1.134023
473.10 1.133504
473.20 1.132986
473.30 1.132468
473.40 1.13195
473.50 1.131433
473.60 1.130916
473.70 1.130399
473.80 1.129876
473.90 1.129351
474.00 1.128827
474.10 1.128303
474.20 1.127783
474.30 1.127265
474.40 1.126748
474.50 1.126231
474.60 1.125713
474.70 1.125185
474.80 1.124657
474.90 1.12413
475.00 1.123603
475.10 1.123077
475.20 1.122551
475.30 1.122025
475.40 1.121504
475.50 1.120984
475.60 1.120465
475.70 1.119946
475.80 1.119427
475.90 1.118908
476.00 1.11839
476.10 1.117873
476.20 1.117369
476.30 1.116872
476.40 1.116375
476.50 1.115879
476.60 1.115382
476.70 1.114886
476.80 1.114391
476.90 1.113875
477.00 1.113355
477.10 1.112834
477.20 1.112315
477.30 1.111795
477.40 1.111276
477.50 1.110757
477.60 1.110239
477.70 1.109721
477.80 1.109203
477.90 1.108686
478.00 1.108169
478.10 1.107652
478.20 1.107135
478.30 1.106619
478.40 1.106104
478.50 1.105588
478.60 1.105073
478.70 1.104596
478.80 1.104135
478.90 1.103644
479.00 1.103146
479.10 1.102649
479.20 1.102151
479.30 1.101654
479.40 1.101147
479.50 1.100633
479.60 1.10012
479.70 1.099607
479.80 1.099095
479.90 1.098583
480.00 1.098071
480.10 1.097559
480.20 1.097048
480.30 1.096537
480.40 1.096027
480.50 1.095516
480.60 1.095006
480.70 1.094497
480.80 1.093988
480.90 1.093479
481.00 1.09297
481.10 1.092462
481.20 1.091956
481.30 1.09145
481.40 1.090944
481.50 1.090439
481.60 1.089934
481.70 1.08943
481.80 1.088926
481.90 1.088422
482.00 1.087918
482.10 1.087415
482.20 1.086912
482.30 1.086407
482.40 1.085903
482.50 1.085399
482.60 1.084896
482.70 1.084393
482.80 1.08389
482.90 1.083387
483.00 1.082885
483.10 1.082383
483.20 1.081882
483.30 1.08138
483.40 1.08088
483.50 1.080379
483.60 1.079879
483.70 1.079361
483.80 1.078844
483.90 1.078327
484.00 1.077811
484.10 1.077295
484.20 1.076805
484.30 1.076327
484.40 1.07585
484.50 1.075372
484.60 1.074895
484.70 1.074416
484.80 1.073911
484.90 1.073406
485.00 1.072902
485.10 1.072398
485.20 1.071894
485.30 1.07139
485.40 1.070887
485.50 1.070384
485.60 1.069882
485.70 1.069373
485.80 1.068865
485.90 1.068356
486.00 1.067849
486.10 1.067341
486.20 1.066834
486.30 1.066327
486.40 1.065821
486.50 1.065315
486.60 1.064809
486.70 1.064305
486.80 1.063822
486.90 1.063339
487.00 1.062857
487.10 1.062375
487.20 1.061871
487.30 1.061368
487.40 1.060864
487.50 1.060361
487.60 1.059859
487.70 1.059356
487.80 1.058855
487.90 1.058353
488.00 1.057851
488.10 1.05735
488.20 1.056852
488.30 1.056383
488.40 1.055914
488.50 1.055445
488.60 1.054977
488.70 1.054509
488.80 1.05401
488.90 1.053511
489.00 1.05301
489.10 1.052504
489.20 1.051998
489.30 1.051492
489.40 1.050986
489.50 1.050481
489.60 1.049977
489.70 1.049472
489.80 1.048858
489.90 1.048393
490.00 1.047929
490.10 1.047466
490.20 1.047002
490.30 1.046539
490.40 1.046021
490.50 1.045503
490.60 1.044985
490.70 1.044468
490.80 1.04403
490.90 1.043434
491.00 1.043009
491.10 1.042493
491.20 1.041978
491.30 1.041554
491.40 1.040948
491.50 1.040524
491.60 1.040075
491.70 1.039571
491.80 1.039073
491.90 1.038651
492.00 1.038047
492.10 1.037625
492.20 1.037096
492.30 1.0366
492.40 1.036167
492.50 1.035577
492.60 1.035153
492.70 1.034688
492.80 1.034223
492.90 1.033758
493.00 1.033294
493.10 1.032839
493.20 1.032385
493.30 1.031931
493.40 1.031477
493.50 1.031023
493.60 1.030425
493.70 1.030007
493.80 1.02959
493.90 1.029139
494.00 1.028635
494.10 1.028149
494.20 1.027699
494.30 1.027248
494.40 1.026799
494.50 1.026349
494.60 1.025895
494.70 1.025381
494.80 1.024879
494.90 1.02441
495.00 1.023941
495.10 1.023472
495.20 1.023003
495.30 1.022535
495.40 1.022066
495.50 1.021598
495.60 1.02113
495.70 1.020663
495.80 1.020196
495.90 1.019729
496.00 1.019262
496.10 1.018814
496.20 1.018397
496.30 1.017899
496.40 1.017401
496.50 1.016903
496.60 1.016406
496.70 1.015944
496.80 1.015482
496.90 1.015021
497.00 1.014559
497.10 1.014098
497.20 1.013638
497.30 1.013175
497.40 1.012707
497.50 1.01224
497.60 1.011746
497.70 1.011202
497.80 1.010718
497.90 1.010233
498.00 1.009749
498.10 1.009266
498.20 1.008782
498.30 1.008299
498.40 1.007817
498.50 1.007334
498.60 1.006852
498.70 1.00636
498.80 1.005868
498.90 1.005369
499.00 1.00487
499.10 1.004371
499.20 1.003903
499.30 1.003479
499.40 1.002993
499.50 1.002508
499.60 1.002022
499.70 1.001535
499.80 1.001023
499.90 1.000511
500.00 1
500.10 0.999489
500.20 0.9989763
500.30 0.9984598
500.40 0.9979436
500.50 0.9974277
500.60 0.9969121
500.70 0.9963969
500.80 0.9959026
500.90 0.9954521
501.00 0.995002
501.10 0.9945521
501.20 0.99398
501.30 0.9935835
501.40 0.9930472
501.50 0.9926162
501.60 0.992063
501.70 0.9916501
501.80 0.9912549
501.90 0.9908599
502.00 0.9904404
502.10 0.9899683
502.20 0.9895019
502.30 0.989108
502.40 0.988705
502.50 0.9882824
502.60 0.9878602
502.70 0.9874382
502.80 0.9870164
502.90 0.9865949
503.00 0.986183
503.10 0.985791
503.20 0.9853992
503.30 0.9850076
503.40 0.9846054
503.50 0.9841724
503.60 0.9837397
503.70 0.9833072
503.80 0.9828801
503.90 0.98249
504.00 0.9820865
504.10 0.9816542
504.20 0.9812222
504.30 0.9807905
504.40 0.9803476
504.50 0.9798726
504.60 0.9794203
504.70 0.9790322
504.80 0.9786443
504.90 0.9782567
505.00 0.9776967
505.10 0.9773096
505.20 0.9769114
505.30 0.976481
505.40 0.9760509
505.50 0.9756211
505.60 0.9751873
505.70 0.9747448
505.80 0.9743027
505.90 0.9738608
506.00 0.9734191
506.10 0.9729778
506.20 0.9725365
506.30 0.9720947
506.40 0.9716532
506.50 0.971212
506.60 0.9707711
506.70 0.9703304
506.80 0.96989
506.90 0.9694499
507.00 0.9690101
507.10 0.9685889
507.20 0.9681903
507.30 0.9677445
507.40 0.967299
507.50 0.9668537
507.60 0.9664088
507.70 0.9659641
507.80 0.9655196
507.90 0.9650755
508.00 0.9646316
508.10 0.964188
508.20 0.9637447
508.30 0.9633017
508.40 0.9628589
508.50 0.9624164
508.60 0.9619742
508.70 0.9615322
508.80 0.9611071
508.90 0.9606774
509.00 0.9602298
509.10 0.9597869
509.20 0.9593536
509.30 0.9589207
509.40 0.9584879
509.50 0.9580555
509.60 0.9576233
509.70 0.9571914
509.80 0.9567598
509.90 0.9563284
510.00 0.9558973
510.10 0.9554664
510.20 0.9550358
510.30 0.9546031
510.40 0.9541638
510.50 0.9537247
510.60 0.953286
510.70 0.9528475
510.80 0.9524093
510.90 0.9519713
511.00 0.9515336
511.10 0.9510962
511.20 0.950659
511.30 0.9502222
511.40 0.9497856
511.50 0.9493492
511.60 0.9489111
511.70 0.9484688
511.80 0.9480268
511.90 0.9475851
512.00 0.9471436
512.10 0.9467024
512.20 0.9462615
512.30 0.9458261
512.40 0.9454059
512.50 0.9449859
512.60 0.9445661
512.70 0.9441466
512.80 0.9437274
512.90 0.9433084
513.00 0.9428897
513.10 0.9424713
513.20 0.9420531
513.30 0.9416351
513.40 0.9412174
513.50 0.9408
513.60 0.9403828
513.70 0.9399658
513.80 0.9395492
513.90 0.9391327
514.00 0.9387045
514.10 0.9382745
514.20 0.9378449
514.30 0.9374154
514.40 0.9369863
514.50 0.9365574
514.60 0.9361288
514.70 0.9357004
514.80 0.9352723
514.90 0.9348444
515.00 0.9344169
515.10 0.9339895
515.20 0.9335625
515.30 0.9331357
515.40 0.9327091
515.50 0.9322829
515.60 0.9318569
515.70 0.9314311
515.80 0.9310056
515.90 0.9305804
516.00 0.9301554
516.10 0.9297307
516.20 0.9293062
516.30 0.928882
516.40 0.9284581
516.50 0.9280334
516.60 0.9276035
516.70 0.9271739
516.80 0.9267446
516.90 0.9263155
517.00 0.9258867
517.10 0.9254581
517.20 0.9250298
517.30 0.9246018
517.40 0.924174
517.50 0.9237465
517.60 0.9233193
517.70 0.9228923
517.80 0.9224656
517.90 0.9220391
518.00 0.9216129
518.10 0.921187
518.20 0.9207613
518.30 0.9203359
518.40 0.9199107
518.50 0.9194858
518.60 0.9190612
518.70 0.9186368
518.80 0.9182127
518.90 0.9177888
519.00 0.9173652
519.10 0.9169422
519.20 0.9165198
519.30 0.9160977
519.40 0.9156758
519.50 0.9152542
519.60 0.9148329
519.70 0.9144118
519.80 0.9139909
519.90 0.9135703
520.00 0.91315
520.10 0.91273
520.20 0.9123101
520.30 0.9118906
520.40 0.9114713
520.50 0.9110522
520.60 0.9106334
520.70 0.9102149
520.80 0.9097966
520.90 0.9093786
521.00 0.9089608
521.10 0.9085433
521.20 0.908126
521.30 0.907709
521.40 0.9072922
521.50 0.9068757
521.60 0.9064595
521.70 0.9060435
521.80 0.9056277
521.90 0.9052122
522.00 0.904797
522.10 0.904382
522.20 0.9039672
522.30 0.9035527
522.40 0.9031385
522.50 0.9027245
522.60 0.9023108
522.70 0.9018973
522.80 0.901484
522.90 0.901071
523.00 0.9006583
523.10 0.9002458
523.20 0.8998336
523.30 0.8994216
523.40 0.8990098
523.50 0.8985983
523.60 0.8981871
523.70 0.8977761
523.80 0.8973653
523.90 0.8969548
524.00 0.8965446
524.10 0.8961346
524.20 0.8957248
524.30 0.895314
524.40 0.8949023
524.50 0.8944909
524.60 0.8940798
524.70 0.8936689
524.80 0.8932582
524.90 0.8928478
525.00 0.8924376
525.10 0.8920277
525.20 0.891618
525.30 0.8912086
525.40 0.8907994
525.50 0.8903905
525.60 0.8899818
525.70 0.8895734
525.80 0.8891652
525.90 0.8887573
526.00 0.8883496
526.10 0.8879421
526.20 0.8875349
526.30 0.8871279
526.40 0.8867212
526.50 0.8863148
526.60 0.8859085
526.70 0.8855026
526.80 0.8850968
526.90 0.8846913
527.00 0.8842861
527.10 0.8838811
527.20 0.8834763
527.30 0.8830718
527.40 0.8826675
527.50 0.8822635
527.60 0.8818597
527.70 0.8814562
527.80 0.8810529
527.90 0.8806498
528.00 0.880247
528.10 0.8798444
528.20 0.8794421
528.30 0.87904
528.40 0.8786381
528.50 0.8782365
528.60 0.8778351
528.70 0.877434
528.80 0.8770331
528.90 0.8766325
529.00 0.8762321
529.10 0.8758319
529.20 0.875432
529.30 0.8750323
529.40 0.8746328
529.50 0.8742333
529.60 0.8738321
529.70 0.8734311
529.80 0.8730303
529.90 0.8726298
530.00 0.8722296
530.10 0.8718295
530.20 0.8714297
530.30 0.8710302
530.40 0.8706309
530.50 0.8702318
530.60 0.869833
530.70 0.8694344
530.80 0.869036
530.90 0.8686379
531.00 0.86824
531.10 0.8678424
531.20 0.867445
531.30 0.8670478
531.40 0.8666509
531.50 0.8662542
531.60 0.8658577
531.70 0.8654615
531.80 0.8650655
531.90 0.8646698
532.00 0.8642743
532.10 0.863879
532.20 0.863484
532.30 0.8630891
532.40 0.8626945
532.50 0.8623002
532.60 0.8619061
532.70 0.8615122
532.80 0.8611185
532.90 0.8607251
533.00 0.8603319
533.10 0.859939
533.20 0.8595463
533.30 0.8591538
533.40 0.8587616
533.50 0.8583696
533.60 0.8579778
533.70 0.8575862
533.80 0.8571949
533.90 0.8568039
534.00 0.856413
534.10 0.8560224
534.20 0.855632
534.30 0.8552419
534.40 0.854852
534.50 0.8544623
534.60 0.8540728
534.70 0.8536836
534.80 0.8532937
534.90 0.8528999
535.00 0.8525063
535.10 0.852113
535.20 0.8517199
535.30 0.851327
535.40 0.8509344
535.50 0.850542
535.60 0.8501498
535.70 0.8497579
535.80 0.8493662
535.90 0.8489747
536.00 0.8485835
536.10 0.8481925
536.20 0.8478017
536.30 0.8474112
536.40 0.8470209
536.50 0.8466308
536.60 0.846241
536.70 0.8458514
536.80 0.845462
536.90 0.8450728
537.00 0.8446839
537.10 0.8442952
537.20 0.8439068
537.30 0.8435186
537.40 0.8431306
537.50 0.8427428
537.60 0.8423553
537.70 0.841968
537.80 0.8415809
537.90 0.8411941
538.00 0.8408075
538.10 0.8404211
538.20 0.8400349
538.30 0.839649
538.40 0.8392633
538.50 0.8388779
538.60 0.8384926
538.70 0.8381076
538.80 0.8377228
538.90 0.8373383
539.00 0.836954
539.10 0.8365699
539.20 0.836186
539.30 0.8358024
539.40 0.8354189
539.50 0.8350357
539.60 0.8346528
539.70 0.83427
539.80 0.8338875
539.90 0.8335053
540.00 0.8331232
540.10 0.8327414
540.20 0.8323603
540.30 0.8319796
540.40 0.8315992
540.50 0.831219
540.60 0.830839
540.70 0.8304592
540.80 0.8300797
540.90 0.8297004
541.00 0.8293213
541.10 0.8289424
541.20 0.8285637
541.30 0.8281853
541.40 0.8278071
541.50 0.8274291
541.60 0.8270514
541.70 0.8266739
541.80 0.8262966
541.90 0.8259195
542.00 0.8255426
542.10 0.825166
542.20 0.8247895
542.30 0.8244133
542.40 0.8240374
542.50 0.8236616
542.60 0.8232861
542.70 0.8229108
542.80 0.8225357
542.90 0.8221608
543.00 0.8217861
543.10 0.8214117
543.20 0.8210375
543.30 0.8206635
543.40 0.8202897
543.50 0.8199162
543.60 0.8195428
543.70 0.8191697
543.80 0.8187968
543.90 0.8184241
544.00 0.8180517
544.10 0.8176794
544.20 0.8173074
544.30 0.8169356
544.40 0.816564
544.50 0.8161927
544.60 0.8158215
544.70 0.8154506
544.80 0.8150799
544.90 0.8147094
545.00 0.8143391
545.10 0.813969
545.20 0.8135992
545.30 0.8132295
545.40 0.8128601
545.50 0.8124909
545.60 0.8121224
545.70 0.8117544
545.80 0.8113865
545.90 0.8110189
546.00 0.8106515
546.10 0.8102843
546.20 0.8099174
546.30 0.8095506
546.40 0.809184
546.50 0.8088177
546.60 0.8084516
546.70 0.8080857
546.80 0.80772
546.90 0.8073545
547.00 0.8069892
547.10 0.8066242
547.20 0.8062594
547.30 0.8058947
547.40 0.8055303
547.50 0.8051661
547.60 0.8048021
547.70 0.8044383
547.80 0.8040748
547.90 0.8037114
548.00 0.8033483
548.10 0.8029854
548.20 0.8026226
548.30 0.8022579
548.40 0.8018902
548.50 0.8015227
548.60 0.8011554
548.70 0.8007884
548.80 0.8004216
548.90 0.800055
549.00 0.7996886
549.10 0.7993224
549.20 0.7989564
549.30 0.7985906
549.40 0.7982251
549.50 0.7978597
549.60 0.7974946
549.70 0.7971297
549.80 0.796765
549.90 0.7964005
550.00 0.7960363
550.10 0.7956722
550.20 0.7953084
550.30 0.7949447
550.40 0.7945813
550.50 0.7942181
550.60 0.7938551
550.70 0.7934923
550.80 0.7931297
550.90 0.7927674
551.00 0.7924053
551.10 0.7920441
551.20 0.7916831
551.30 0.7913224
551.40 0.7909618
551.50 0.7906015
551.60 0.7902413
551.70 0.7898814
551.80 0.7895217
551.90 0.7891622
552.00 0.7888028
552.10 0.7884437
552.20 0.7880849
552.30 0.7877262
552.40 0.7873677
552.50 0.7870094
552.60 0.7866514
552.70 0.7862935
552.80 0.7859359
552.90 0.7855785
553.00 0.7852212
553.10 0.7848642
553.20 0.7845074
553.30 0.7841508
553.40 0.7837944
553.50 0.7834382
553.60 0.7830822
553.70 0.7827264
553.80 0.7823708
553.90 0.7820155
554.00 0.7816603
554.10 0.7813054
554.20 0.7809506
554.30 0.7805961
554.40 0.7802417
554.50 0.7798876
554.60 0.7795336
554.70 0.7791799
554.80 0.7788264
554.90 0.7784731
555.00 0.7781199
555.10 0.777767
555.20 0.7774143
555.30 0.7770618
555.40 0.7767095
555.50 0.7763574
555.60 0.7760055
555.70 0.7756538
555.80 0.7753023
555.90 0.774951
556.00 0.7746
556.10 0.7742491
556.20 0.7738984
556.30 0.7735479
556.40 0.7731976
556.50 0.7728475
556.60 0.7724958
556.70 0.7721442
556.80 0.7717929
556.90 0.7714418
557.00 0.7710909
557.10 0.7707402
557.20 0.7703897
557.30 0.7700394
557.40 0.7696893
557.50 0.7693395
557.60 0.7689898
557.70 0.7686403
557.80 0.768291
557.90 0.7679419
558.00 0.767593
558.10 0.7672443
558.20 0.7668958
558.30 0.7665476
558.40 0.7661995
558.50 0.7658516
558.60 0.7655039
558.70 0.7651564
558.80 0.7648091
558.90 0.764462
559.00 0.7641152
559.10 0.7637685
559.20 0.763422
559.30 0.7630757
559.40 0.7627296
559.50 0.7623837
559.60 0.762038
559.70 0.7616925
559.80 0.7613472
559.90 0.7610021
560.00 0.7606572
560.10 0.7603125
560.20 0.759968
560.30 0.7596237
560.40 0.7592796
560.50 0.7589357
560.60 0.758592
560.70 0.7582485
560.80 0.7579051
560.90 0.757562
561.00 0.7572191
561.10 0.7568764
561.20 0.7565338
561.30 0.7561915
561.40 0.7558493
561.50 0.7555074
561.60 0.7551656
561.70 0.7548241
561.80 0.7544827
561.90 0.7541415
562.00 0.7538006
562.10 0.7534591
562.20 0.7531168
562.30 0.7527746
562.40 0.7524327
562.50 0.752091
562.60 0.7517494
562.70 0.7514081
562.80 0.7510669
562.90 0.750726
563.00 0.7503852
563.10 0.7500446
563.20 0.7497043
563.30 0.7493641
563.40 0.7490241
563.50 0.7486843
563.60 0.7483447
563.70 0.7480053
563.80 0.7476661
563.90 0.7473271
564.00 0.7469883
564.10 0.7466497
564.20 0.7463112
564.30 0.745973
564.40 0.7456349
564.50 0.7452971
564.60 0.7449594
564.70 0.7446219
564.80 0.7442847
564.90 0.7439462
565.00 0.7436043
565.10 0.7432627
565.20 0.7429213
565.30 0.74258
565.40 0.742239
565.50 0.7418981
565.60 0.7415575
565.70 0.741217
565.80 0.7408767
565.90 0.7405367
566.00 0.7401968
566.10 0.7398571
566.20 0.7395176
566.30 0.7391783
566.40 0.7388392
566.50 0.7385003
566.60 0.7381616
566.70 0.737823
566.80 0.7374847
566.90 0.7371466
567.00 0.7368086
567.10 0.7364709
567.20 0.7361333
567.30 0.7357959
567.40 0.7354588
567.50 0.7351218
567.60 0.734785
567.70 0.7344485
567.80 0.7341129
567.90 0.7337775
568.00 0.7334422
568.10 0.7331072
568.20 0.7327723
568.30 0.7324376
568.40 0.7321031
568.50 0.7317688
568.60 0.7314347
568.70 0.7311008
568.80 0.7307671
568.90 0.7304335
569.00 0.7301002
569.10 0.729767
569.20 0.7294341
569.30 0.7291013
569.40 0.7287687
569.50 0.7284363
569.60 0.7281041
569.70 0.727772
569.80 0.7274402
569.90 0.7271085
570.00 0.7267771
570.10 0.7264458
570.20 0.7261147
570.30 0.7257838
570.40 0.7254531
570.50 0.7251226
570.60 0.7247922
570.70 0.7244621
570.80 0.7241321
570.90 0.7238023
571.00 0.7234727
571.10 0.7231433
571.20 0.7228141
571.30 0.7224851
571.40 0.7221562
571.50 0.7218276
571.60 0.7214991
571.70 0.7211708
571.80 0.7208427
571.90 0.7205148
572.00 0.720187
572.10 0.7198595
572.20 0.7195321
572.30 0.719205
572.40 0.718878
572.50 0.7185512
572.60 0.7182245
572.70 0.7178981
572.80 0.7175718
572.90 0.7172458
573.00 0.7169199
573.10 0.7165942
573.20 0.7162686
573.30 0.7159433
573.40 0.7156137
573.50 0.7152783
573.60 0.714943
573.70 0.7146079
573.80 0.7142729
573.90 0.7139382
574.00 0.7136037
574.10 0.7132693
574.20 0.7129352
574.30 0.7126012
574.40 0.7122675
574.50 0.7119339
574.60 0.7116005
574.70 0.7112673
574.80 0.7109342
574.90 0.7106014
575.00 0.7102688
575.10 0.7099363
575.20 0.7096041
575.30 0.709272
575.40 0.7089401
575.50 0.7086084
575.60 0.7082769
575.70 0.7079456
575.80 0.7076144
575.90 0.7072835
576.00 0.7069527
576.10 0.7066221
576.20 0.7062917
576.30 0.7059615
576.40 0.7056315
576.50 0.7053017
576.60 0.704972
576.70 0.7046426
576.80 0.7043133
576.90 0.7039842
577.00 0.7036553
577.10 0.7033266
577.20 0.7029981
577.30 0.7026697
577.40 0.7023416
577.50 0.7020136
577.60 0.7016819
577.70 0.7013442
577.80 0.7010066
577.90 0.7006692
578.00 0.700332
578.10 0.699995
578.20 0.6996581
578.30 0.6993215
578.40 0.6989851
578.50 0.6986488
578.60 0.6983128
578.70 0.6979769
578.80 0.6976412
578.90 0.6973057
579.00 0.6969704
579.10 0.6966341
579.20 0.6962855
579.30 0.695937
579.40 0.6955888
579.50 0.6952408
579.60 0.694893
579.70 0.6945453
579.80 0.6941979
579.90 0.6938507
580.00 0.6935036
580.10 0.693148
580.20 0.6927784
580.30 0.6924089
580.40 0.6920397
580.50 0.6916707
580.60 0.6913019
580.70 0.6909333
580.80 0.6905649
580.90 0.6901967
581.00 0.6898288
581.10 0.689461
581.20 0.6890935
581.30 0.6887262
581.40 0.6883591
581.50 0.6879922
581.60 0.6876255
581.70 0.687259
581.80 0.6868928
581.90 0.6865267
582.00 0.6861609
582.10 0.6857755
582.20 0.6853582
582.30 0.684941
582.40 0.6845242
582.50 0.6841076
582.60 0.6836912
582.70 0.6832751
582.80 0.6828592
582.90 0.6824436
583.00 0.6820282
583.10 0.6816131
583.20 0.6811982
583.30 0.6807835
583.40 0.6803691
583.50 0.6799549
583.60 0.679513
583.70 0.6790258
583.80 0.6785388
583.90 0.6780521
584.00 0.6775658
584.10 0.6770797
584.20 0.6765939
584.30 0.6761084
584.40 0.6756232
584.50 0.6751382
584.60 0.6746536
584.70 0.6741693
584.80 0.6736852
584.90 0.6731809
585.00 0.6725834
585.10 0.6719861
585.20 0.6713921
585.30 0.6708029
585.40 0.6702142
585.50 0.6696258
585.60 0.6690377
585.70 0.66845
585.80 0.6678627
585.90 0.6672757
586.00 0.6666891
586.10 0.6661029
586.20 0.6655235
586.30 0.6649551
586.40 0.664387
586.50 0.6638192
586.60 0.6632518
586.70 0.6626848
586.80 0.6621262
586.90 0.6615811
587.00 0.6610364
587.10 0.660492
587.20 0.6599722
587.30 0.6594922
587.40 0.6589883
587.50 0.6583878
587.60 0.6578993
587.70 0.6579844
587.80 0.6580064
587.90 0.6579099
588.00 0.6578255
588.10 0.6577609
588.20 0.6576963
588.30 0.6576317
588.40 0.6575872
588.50 0.6575756
588.60 0.6575639
588.70 0.6575522
588.80 0.6575404
588.90 0.6575287
589.00 0.6575137
589.10 0.6574934
589.20 0.6574731
589.30 0.6574527
589.40 0.6574324
589.50 0.657412
589.60 0.6573916
589.70 0.6573711
589.80 0.6573507
589.90 0.6573302
590.00 0.6572953
590.10 0.6572369
590.20 0.6571785
590.30 0.6571202
590.40 0.6570618
590.50 0.6570034
590.60 0.656945
590.70 0.6568866
590.80 0.6567779
590.90 0.6566467
591.00 0.6565155
591.10 0.6563843
591.20 0.6562532
591.30 0.6561221
591.40 0.6559911
591.50 0.6558602
591.60 0.6557075
591.70 0.6555194
591.80 0.6553314
591.90 0.6551435
592.00 0.6549557
592.10 0.6547679
592.20 0.6545803
592.30 0.6543927
592.40 0.6542053
592.50 0.6540179
592.60 0.6538306
592.70 0.6536434
592.80 0.6534563
592.90 0.6532693
593.00 0.6530823
593.10 0.6528781
593.20 0.6526454
593.30 0.652413
593.40 0.6521806
593.50 0.6519483
593.60 0.6517162
593.70 0.6514842
593.80 0.6512523
593.90 0.6510205
594.00 0.6507889
594.10 0.6505573
594.20 0.6503259
594.30 0.6500946
594.40 0.6498634
594.50 0.6496324
594.60 0.6494014
594.70 0.6491706
594.80 0.6489399
594.90 0.6487093
595.00 0.6484789
595.10 0.6482382
595.20 0.647981
595.30 0.6477239
595.40 0.647467
595.50 0.6472102
595.60 0.6469535
595.70 0.646697
595.80 0.6464406
595.90 0.6461843
596.00 0.6459282
596.10 0.6456722
596.20 0.6454163
596.30 0.6451606
596.40 0.644905
596.50 0.6446495
596.60 0.6443942
596.70 0.6441302
596.80 0.6438608
596.90 0.6435916
597.00 0.6433226
597.10 0.6430537
597.20 0.6427849
597.30 0.6425163
597.40 0.6422478
597.50 0.6419795
597.60 0.6417127
597.70 0.6414484
597.80 0.6411842
597.90 0.6409201
598.00 0.6406562
598.10 0.6403925
598.20 0.6401288
598.30 0.6398653
598.40 0.639602
598.50 0.6393388
598.60 0.6390757
598.70 0.6388128
598.80 0.63855
598.90 0.6382874
599.00 0.6380249
599.10 0.6377625
599.20 0.6375003
599.30 0.6372382
599.40 0.6369643
599.50 0.6366906
599.60 0.636417
599.70 0.6361436
599.80 0.6358704
599.90 0.6355972
600.00 0.6353243
600.10 0.6350514
600.20 0.6347787
600.30 0.6345062
600.40 0.6342338
600.50 0.6339616
600.60 0.6336895
600.70 0.6334175
600.80 0.6331457
600.90 0.632874
601.00 0.6326025
601.10 0.6323312
601.20 0.6320599
601.30 0.6317888
601.40 0.6315135
601.50 0.6312383
601.60 0.6309632
601.70 0.6306883
601.80 0.6304135
601.90 0.6301389
602.00 0.6298644
602.10 0.6295901
602.20 0.6293159
602.30 0.6290419
602.40 0.628768
602.50 0.6284942
602.60 0.6282206
602.70 0.6279499
602.80 0.6276795
602.90 0.6274032
603.00 0.627127
603.10 0.626851
603.20 0.6265751
603.30 0.6262994
603.40 0.6260238
603.50 0.6257484
603.60 0.6254731
603.70 0.625198
603.80 0.624923
603.90 0.6246482
604.00 0.6243735
604.10 0.624099
604.20 0.6238246
604.30 0.6235503
604.40 0.6232762
604.50 0.6230098
604.60 0.6227435
604.70 0.6224774
604.80 0.6222114
604.90 0.6219456
605.00 0.6216799
605.10 0.6214143
605.20 0.6211489
605.30 0.6208836
605.40 0.6206184
605.50 0.6203534
605.60 0.6200886
605.70 0.6198239
605.80 0.6195593
605.90 0.6192948
606.00 0.6190305
606.10 0.6187664
606.20 0.6185024
606.30 0.6182385
606.40 0.6179748
606.50 0.6176513
606.60 0.6173281
606.70 0.6171246
606.80 0.6168017
606.90 0.6165985
607.00 0.6162759
607.10 0.6160131
607.20 0.6157506
607.30 0.6154881
607.40 0.6152258
607.50 0.6149637
607.60 0.6147017
607.70 0.6144199
607.80 0.6141383
607.90 0.6138569
608.00 0.6135756
608.10 0.6132945
608.20 0.6130135
608.30 0.6127568
608.40 0.6125002
608.50 0.6122437
608.60 0.6119874
608.70 0.611726
608.80 0.6114625
608.90 0.611199
609.00 0.6109358
609.10 0.6106726
609.20 0.6104096
609.30 0.6101426
609.40 0.6098757
609.50 0.609609
609.60 0.6093424
609.70 0.6090759
609.80 0.6088096
609.90 0.6085434
610.00 0.6082773
610.10 0.6080114
610.20 0.6077457
610.30 0.6074801
610.40 0.6072146
610.50 0.6069493
610.60 0.6066841
610.70 0.606419
610.80 0.6061541
610.90 0.6058928
611.00 0.6056316
611.10 0.6053705
611.20 0.6051096
611.30 0.6048488
611.40 0.6045882
611.50 0.6043277
611.60 0.6040673
611.70 0.6038071
611.80 0.603547
611.90 0.6032871
612.00 0.6030273
612.10 0.6027676
612.20 0.6025081
612.30 0.6022487
612.40 0.6019816
612.50 0.6017146
612.60 0.6014478
612.70 0.6011812
612.80 0.6009147
612.90 0.6006483
613.00 0.6003821
613.10 0.600116
613.20 0.59985
613.30 0.5995842
613.40 0.5993186
613.50 0.599053
613.60 0.5987877
613.70 0.5985224
613.80 0.5982573
613.90 0.5979923
614.00 0.5977275
614.10 0.5974629
614.20 0.5971983
614.30 0.5969339
614.40 0.5966837
614.50 0.5964336
614.60 0.5961837
614.70 0.5959338
614.80 0.5956748
614.90 0.595414
615.00 0.5951534
615.10 0.5948928
615.20 0.5946325
615.30 0.5943722
615.40 0.5941121
615.50 0.5938522
615.60 0.5935923
615.70 0.5933326
615.80 0.5930731
615.90 0.5928137
616.00 0.5925544
616.10 0.5922953
616.20 0.5920362
616.30 0.5917774
616.40 0.5915187
616.50 0.5912601
616.60 0.5910016
616.70 0.5907433
616.80 0.5904851
616.90 0.5902254
617.00 0.5899658
617.10 0.5897063
617.20 0.589447
617.30 0.5891879
617.40 0.5889288
617.50 0.5886699
617.60 0.5884112
617.70 0.5881526
617.80 0.5878941
617.90 0.5876357
618.00 0.5873775
618.10 0.5871194
618.20 0.5868615
618.30 0.5866037
618.40 0.586346
618.50 0.5860885
618.60 0.5858311
618.70 0.5855738
618.80 0.5853167
618.90 0.5850597
619.00 0.5848028
619.10 0.5845461
619.20 0.5842895
619.30 0.5840331
619.40 0.5837768
619.50 0.5835206
619.60 0.5832646
619.70 0.5830086
619.80 0.5827529
619.90 0.5824972
620.00 0.5822417
620.10 0.5819864
620.20 0.5817311
620.30 0.581476
620.40 0.581221
620.50 0.5809662
620.60 0.5807115
620.70 0.580457
620.80 0.5802025
620.90 0.5799487
621.00 0.5796957
621.10 0.5794429
621.20 0.5791903
621.30 0.5789377
621.40 0.5786853
621.50 0.578433
621.60 0.5781809
621.70 0.5779289
621.80 0.577677
621.90 0.5774253
622.00 0.5771736
622.10 0.5769222
622.20 0.5766708
622.30 0.5764196
622.40 0.5761685
622.50 0.5759176
622.60 0.5756667
622.70 0.575416
622.80 0.5751655
622.90 0.574915
623.00 0.5746648
623.10 0.5744146
623.20 0.5741645
623.30 0.5739146
623.40 0.5736649
623.50 0.5734152
623.60 0.5731657
623.70 0.5729163
623.80 0.5726671
623.90 0.572418
624.00 0.572169
624.10 0.5719201
624.20 0.5716714
624.30 0.5714228
624.40 0.5711743
624.50 0.570926
624.60 0.5706777
624.70 0.5704297
624.80 0.5701817
624.90 0.5699339
625.00 0.5696862
625.10 0.5694386
625.20 0.5691912
625.30 0.5689439
625.40 0.5686967
625.50 0.5684497
625.60 0.5682027
625.70 0.567956
625.80 0.5677093
625.90 0.5674628
626.00 0.5672164
626.10 0.5669701
626.20 0.5667239
626.30 0.5664779
626.40 0.566232
626.50 0.5659863
626.60 0.5657406
626.70 0.5654951
626.80 0.5652497
626.90 0.5650045
627.00 0.5647594
627.10 0.5645145
627.20 0.5642703
627.30 0.5640262
627.40 0.5637822
627.50 0.5635384
627.60 0.5632946
627.70 0.563051
627.80 0.5628075
627.90 0.5625642
628.00 0.562321
628.10 0.5620779
628.20 0.5618349
628.30 0.5615921
628.40 0.5613493
628.50 0.5611067
628.60 0.5608643
628.70 0.5606219
628.80 0.5603797
628.90 0.5601376
629.00 0.5598957
629.10 0.5596538
629.20 0.5594121
629.30 0.5591705
629.40 0.5589291
629.50 0.5586877
629.60 0.5584465
629.70 0.5582054
629.80 0.5579645
629.90 0.5577236
630.00 0.5574829
630.10 0.5572423
630.20 0.5570019
630.30 0.5567583
630.40 0.5565146
630.50 0.556271
630.60 0.5560275
630.70 0.5557842
630.80 0.555541
630.90 0.5552979
631.00 0.5550549
631.10 0.5548121
631.20 0.5545693
631.30 0.5543268
631.40 0.5540843
631.50 0.553842
631.60 0.5535997
631.70 0.5533577
631.80 0.5531157
631.90 0.5528739
632.00 0.5526322
632.10 0.5523906
632.20 0.5521491
632.30 0.5519078
632.40 0.5516666
632.50 0.5514255
632.60 0.5511845
632.70 0.5509437
632.80 0.550703
632.90 0.5504624
633.00 0.550222
633.10 0.5499816
633.20 0.5497414
633.30 0.5495013
633.40 0.5492617
633.50 0.5490225
633.60 0.5487834
633.70 0.5485445
633.80 0.5483056
633.90 0.5480669
634.00 0.5478283
634.10 0.5475898
634.20 0.5473515
634.30 0.5471133
634.40 0.5468752
634.50 0.5466372
634.60 0.5463994
634.70 0.5461616
634.80 0.545924
634.90 0.5456865
635.00 0.5454492
635.10 0.5452119
635.20 0.5449748
635.30 0.5447378
635.40 0.5445009
635.50 0.5442642
635.60 0.5440276
635.70 0.5437911
635.80 0.5435547
635.90 0.5433184
636.00 0.5430823
636.10 0.5428462
636.20 0.5426103
636.30 0.5423746
636.40 0.5421389
636.50 0.5419034
636.60 0.5416711
636.70 0.5414392
636.80 0.5412075
636.90 0.5409759
637.00 0.5407444
637.10 0.540513
637.20 0.5402818
637.30 0.5400507
637.40 0.5398196
637.50 0.5395887
637.60 0.539358
637.70 0.5391273
637.80 0.5388968
637.90 0.5386663
638.00 0.538436
638.10 0.5382059
638.20 0.5379758
638.30 0.5377458
638.40 0.537516
638.50 0.5372863
638.60 0.5370567
638.70 0.5368272
638.80 0.5365978
638.90 0.5363686
639.00 0.5361395
639.10 0.5359105
639.20 0.5356816
639.30 0.5354528
639.40 0.5352241
639.50 0.5349956
639.60 0.5347672
639.70 0.5345382
639.80 0.5343073
639.90 0.5340764
640.00 0.5338457
640.10 0.5336151
640.20 0.5333847
640.30 0.5331543
640.40 0.5329241
640.50 0.532694
640.60 0.532464
640.70 0.5322341
640.80 0.5320043
640.90 0.5317747
641.00 0.5315451
641.10 0.5313157
641.20 0.5310864
641.30 0.5308573
641.40 0.5306282
641.50 0.5303993
641.60 0.5301704
641.70 0.5299417
641.80 0.5297131
641.90 0.5294846
642.00 0.5292563
642.10 0.529028
642.20 0.5287999
642.30 0.5285719
642.40 0.528344
642.50 0.5281162
642.60 0.5278886
642.70 0.527661
642.80 0.5274336
642.90 0.5272063
643.00 0.5269791
643.10 0.526752
643.20 0.526525
643.30 0.5262981
643.40 0.5260713
643.50 0.5258447
643.60 0.5256182
643.70 0.5253918
643.80 0.5251655
643.90 0.5249393
644.00 0.5247132
644.10 0.5244873
644.20 0.5242615
644.30 0.5240357
644.40 0.5238101
644.50 0.5235847
644.60 0.5233593
644.70 0.523134
644.80 0.5229089
644.90 0.5226838
645.00 0.5224589
645.10 0.5222341
645.20 0.5220094
645.30 0.5217849
645.40 0.5215604
645.50 0.5213361
645.60 0.5211118
645.70 0.5208877
645.80 0.5206637
645.90 0.5204398
646.00 0.5202161
646.10 0.5199917
646.20 0.5197655
646.30 0.5195394
646.40 0.5193135
646.50 0.5190876
646.60 0.5188619
646.70 0.5186363
646.80 0.5184108
646.90 0.5181854
647.00 0.5179601
647.10 0.517735
647.20 0.5175099
647.30 0.517285
647.40 0.5170602
647.50 0.5168355
647.60 0.5166109
647.70 0.5163864
647.80 0.5161621
647.90 0.5159378
648.00 0.5157137
648.10 0.5154897
648.20 0.5152658
648.30 0.515042
648.40 0.5148183
648.50 0.5145947
648.60 0.5143713
648.70 0.5141479
648.80 0.5139247
648.90 0.5137016
649.00 0.5134786
649.10 0.5132557
649.20 0.513033
649.30 0.5128103
649.40 0.5125909
649.50 0.5123717
649.60 0.5121526
649.70 0.5119337
649.80 0.5117148
649.90 0.5114961
650.00 0.5112774
650.10 0.5110589
650.20 0.5108405
650.30 0.5106222
650.40 0.510404
650.50 0.5101859
650.60 0.509968
650.70 0.5097501
650.80 0.5095324
650.90 0.5093147
651.00 0.5090972
651.10 0.5088798
651.20 0.5086624
651.30 0.5084452
651.40 0.5082282
651.50 0.5080112
651.60 0.5077943
651.70 0.5075775
651.80 0.5073609
651.90 0.5071443
652.00 0.5069279
652.10 0.5067116
652.20 0.5064953
652.30 0.5062792
652.40 0.5060632
652.50 0.5058473
652.60 0.5056286
652.70 0.5054084
652.80 0.5051883
652.90 0.5049683
653.00 0.5047484
653.10 0.5045287
653.20 0.504309
653.30 0.5040895
653.40 0.50387
653.50 0.5036507
653.60 0.5034315
653.70 0.5032124
653.80 0.5029934
653.90 0.5027745
654.00 0.5025558
654.10 0.5023371
654.20 0.5021186
654.30 0.5019001
654.40 0.5016818
654.50 0.5014636
654.60 0.5012455
654.70 0.5010275
654.80 0.5008096
654.90 0.5005918
655.00 0.5003741
655.10 0.5001566
655.20 0.4999391
655.30 0.4997218
655.40 0.4995046
655.50 0.4992874
655.60 0.4990704
655.70 0.4988535
655.80 0.4986349
655.90 0.4984163
656.00 0.4981979
656.10 0.4979796
656.20 0.4977614
656.30 0.4975433
656.40 0.4973253
656.50 0.4971074
656.60 0.4968897
656.70 0.496672
656.80 0.4964545
656.90 0.496237
657.00 0.4960197
657.10 0.4958025
657.20 0.4955854
657.30 0.4953684
657.40 0.4951515
657.50 0.4949347
657.60 0.494718
657.70 0.4945015
657.80 0.4942627
657.90 0.4940436
658.00 0.4938282
658.10 0.4936128
658.20 0.4933975
658.30 0.4931824
658.40 0.4929673
658.50 0.4927524
658.60 0.4925376
658.70 0.4923229
658.80 0.4921082
658.90 0.4918937
659.00 0.4916793
659.10 0.4914622
659.20 0.4912407
659.30 0.4910281
659.40 0.4908157
659.50 0.4906033
659.60 0.490391
659.70 0.4901789
659.80 0.4899668
659.90 0.4897549
660.00 0.4895431
660.10 0.4893313
660.20 0.4891197
660.30 0.4889082
660.40 0.4886799
660.50 0.4884487
660.60 0.4882177
660.70 0.4879867
660.80 0.4877559
660.90 0.4875378
661.00 0.4873198
661.10 0.4871019
661.20 0.4868841
661.30 0.4866664
661.40 0.4864488
661.50 0.4862313
661.60 0.486014
661.70 0.4857967
661.80 0.4855796
661.90 0.4853548
662.00 0.4851302
662.10 0.4849057
662.20 0.4846813
662.30 0.484457
662.40 0.4842991
662.50 0.4840776
662.60 0.4838564
662.70 0.4836352
662.80 0.4834141
662.90 0.4831681
663.00 0.4829222
663.10 0.4826765
663.20 0.4824809
663.30 0.4822354
663.40 0.48204
663.50 0.4817948
663.60 0.4815496
663.70 0.4813116
663.80 0.4810736
663.90 0.480823
664.00 0.4805703
664.10 0.4803424
664.20 0.4801147
664.30 0.479887
664.40 0.4796595
664.50 0.479432
664.60 0.4792047
664.70 0.4789628
664.80 0.4787209
664.90 0.4784792
665.00 0.4782376
665.10 0.4779962
665.20 0.4777548
665.30 0.4775136
665.40 0.4772725
665.50 0.4770232
665.60 0.4767724
665.70 0.4765846
665.80 0.4763505
665.90 0.4761165
666.00 0.4758826
666.10 0.4756488
666.20 0.4754152
666.30 0.4751817
666.40 0.4749483
666.50 0.4747079
666.60 0.4744664
666.70 0.4742251
666.80 0.4739839
666.90 0.4737428
667.00 0.4735018
667.10 0.4732541
667.20 0.4730054
667.30 0.4728177
667.40 0.47263
667.50 0.4723976
667.60 0.4721573
667.70 0.4719024
667.80 0.4716623
667.90 0.4715211
668.00 0.4713183
668.10 0.4711402
668.20 0.4709992
668.30 0.4708164
668.40 0.4706263
668.50 0.4704363
668.60 0.4702463
668.70 0.4700983
668.80 0.4699386
668.90 0.469779
669.00 0.4696195
669.10 0.46946
669.20 0.4693007
669.30 0.4691325
669.40 0.4689629
669.50 0.4687934
669.60 0.4686239
669.70 0.4684545
669.80 0.4682852
669.90 0.468116
670.00 0.4679469
670.10 0.4677778
670.20 0.4676088
670.30 0.4674477
670.40 0.4672881
670.50 0.4671285
670.60 0.466969
670.70 0.4668096
670.80 0.4666441
670.90 0.4664787
671.00 0.4663134
671.10 0.4661482
671.20 0.465983
671.30 0.4658179
671.40 0.4656529
671.50 0.4654879
671.60 0.465323
671.70 0.4651583
671.80 0.4649935
671.90 0.4648344
672.00 0.4646762
672.10 0.4645182
672.20 0.4643602
672.30 0.4642022
672.40 0.4640222
672.50 0.4638407
672.60 0.4636592
672.70 0.4634778
672.80 0.4632964
672.90 0.4631152
673.00 0.4629341
673.10 0.462753
673.20 0.462572
673.30 0.4624346
673.40 0.4622561
673.50 0.4620703
673.60 0.4618846
673.70 0.461699
673.80 0.4615135
673.90 0.4613281
674.00 0.4611428
674.10 0.4609575
674.20 0.4607724
674.30 0.4605873
674.40 0.4604023
674.50 0.4602175
674.60 0.4600327
674.70 0.459848
674.80 0.4596634
674.90 0.4594788
675.00 0.4592944
675.10 0.4591101
675.20 0.4589258
675.30 0.4587417
675.40 0.4585559
675.50 0.45837
675.60 0.4581842
675.70 0.4579985
675.80 0.4578128
675.90 0.4576273
676.00 0.4574418
676.10 0.4572564
676.20 0.4570711
676.30 0.4568859
676.40 0.4567008
676.50 0.4565158
676.60 0.4563309
676.70 0.456146
676.80 0.4559613
676.90 0.4557766
677.00 0.455592
677.10 0.4554076
677.20 0.4552232
677.30 0.4550389
677.40 0.4548547
677.50 0.4546705
677.60 0.4544865
677.70 0.4543025
677.80 0.4541187
677.90 0.453937
678.00 0.4537559
678.10 0.4535748
678.20 0.4533938
678.30 0.4532128
678.40 0.453032
678.50 0.4528513
678.60 0.4526706
678.70 0.4524901
678.80 0.4523096
678.90 0.4521292
679.00 0.4519489
679.10 0.4517633
679.20 0.4515754
679.30 0.4513877
679.40 0.4512001
679.50 0.4510125
679.60 0.4508251
679.70 0.4506377
679.80 0.4504504
679.90 0.4502633
680.00 0.4500762
680.10 0.4498892
680.20 0.4497022
680.30 0.4495154
680.40 0.4493287
680.50 0.4491421
680.60 0.4489555
680.70 0.448769
680.80 0.4485827
680.90 0.4483964
681.00 0.4482102
681.10 0.4480241
681.20 0.4478381
681.30 0.4476522
681.40 0.4474664
681.50 0.4472806
681.60 0.447095
681.70 0.4469094
681.80 0.4467239
681.90 0.4465385
682.00 0.4463533
682.10 0.4461681
682.20 0.4459829
682.30 0.4457979
682.40 0.445613
682.50 0.4454281
682.60 0.4452434
682.70 0.4450587
682.80 0.4448741
682.90 0.4446896
683.00 0.4445052
683.10 0.4443209
683.20 0.4441367
683.30 0.4439526
683.40 0.4437685
683.50 0.4435846
683.60 0.4434007
683.70 0.4432169
683.80 0.4430332
683.90 0.4428496
684.00 0.4426661
684.10 0.4424827
684.20 0.4422994
684.30 0.4421161
684.40 0.441933
684.50 0.4417499
684.60 0.4415669
684.70 0.441384
684.80 0.4412012
684.90 0.4410185
685.00 0.4408359
685.10 0.4406533
685.20 0.4404709
685.30 0.4402885
685.40 0.4401062
685.50 0.439924
685.60 0.4397419
685.70 0.4395599
685.80 0.439378
685.90 0.4391944
686.00 0.4390104
686.10 0.4388266
686.20 0.4386428
686.30 0.4384591
686.40 0.4382755
686.50 0.438092
686.60 0.4379086
686.70 0.4377253
686.80 0.4375421
686.90 0.4373589
687.00 0.4371759
687.10 0.4369929
687.20 0.43681
687.30 0.4366272
687.40 0.4364445
687.50 0.4362619
687.60 0.4360794
687.70 0.4358969
687.80 0.4357146
687.90 0.4355323
688.00 0.4353501
688.10 0.435168
688.20 0.434986
688.30 0.4348041
688.40 0.4346223
688.50 0.4344405
688.60 0.4342589
688.70 0.4340773
688.80 0.4338958
688.90 0.4337144
689.00 0.4335331
689.10 0.4333519
689.20 0.4331707
689.30 0.4329897
689.40 0.4328087
689.50 0.4326279
689.60 0.4324471
689.70 0.4322664
689.80 0.4320858
689.90 0.4319052
690.00 0.4317248
690.10 0.4315444
690.20 0.4313642
690.30 0.431184
690.40 0.4310039
690.50 0.4308239
690.60 0.430644
690.70 0.4304641
690.80 0.4302844
690.90 0.4301047
691.00 0.4299251
691.10 0.4297456
691.20 0.4295662
691.30 0.4293869
691.40 0.4292077
691.50 0.4290285
691.60 0.4288495
691.70 0.4286705
691.80 0.4284916
691.90 0.4283128
692.00 0.4281341
692.10 0.4279554
692.20 0.4277769
692.30 0.4275984
692.40 0.42742
692.50 0.4272417
692.60 0.4270635
692.70 0.4268854
692.80 0.4267072
692.90 0.4265292
693.00 0.4263512
693.10 0.4261733
693.20 0.4259955
693.30 0.4258177
693.40 0.4256401
693.50 0.4254625
693.60 0.4252851
693.70 0.4251077
693.80 0.4249304
693.90 0.4247532
694.00 0.424576
694.10 0.424399
694.20 0.424222
694.30 0.4240451
694.40 0.4238683
694.50 0.4236916
694.60 0.423515
694.70 0.4233385
694.80 0.423162
694.90 0.4229856
695.00 0.4228093
695.10 0.4226331
695.20 0.422457
695.30 0.422281
695.40 0.422105
695.50 0.4219291
695.60 0.4217533
695.70 0.4215776
695.80 0.421402
695.90 0.4212265
696.00 0.421051
696.10 0.4208757
696.20 0.4207004
696.30 0.4205252
696.40 0.42035
696.50 0.420175
696.60 0.42
696.70 0.419825
696.80 0.4196501
696.90 0.4194753
697.00 0.4193006
697.10 0.419126
697.20 0.4189514
697.30 0.418777
697.40 0.4186026
697.50 0.4184283
697.60 0.4182541
697.70 0.4180799
697.80 0.4179059
697.90 0.4177319
698.00 0.417558
698.10 0.4173842
698.20 0.4172105
698.30 0.4170368
698.40 0.4168633
698.50 0.4166898
698.60 0.4165164
698.70 0.4163431
698.80 0.4161699
698.90 0.4159967
699.00 0.4158236
699.10 0.4156446
699.20 0.4154643
699.30 0.415284
699.40 0.4151039
699.50 0.4149238
699.60 0.4147438
699.70 0.4145678
699.80 0.4143922
699.90 0.4142166
700.00 0.4140411
700.10 0.4138656
700.20 0.4136903
700.30 0.413515
700.40 0.4133398
700.50 0.4131648
700.60 0.4129897
700.70 0.4128148
700.80 0.41264
700.90 0.4124652
701.00 0.4122905
701.10 0.4121137
701.20 0.4119365
701.30 0.4117594
701.40 0.4115823
701.50 0.4114054
701.60 0.4112285
701.70 0.4110517
701.80 0.410875
701.90 0.4106984
702.00 0.4105218
702.10 0.4103454
702.20 0.410169
702.30 0.4099927
702.40 0.4098165
702.50 0.4096404
702.60 0.4094628
702.70 0.409285
702.80 0.4091073
702.90 0.4089297
703.00 0.4087521
703.10 0.4085746
703.20 0.4083972
703.30 0.4082199
703.40 0.4080427
703.50 0.4078656
703.60 0.4076885
703.70 0.4075116
703.80 0.4073347
703.90 0.4071579
704.00 0.4069812
704.10 0.4068045
704.20 0.4066271
704.30 0.4064495
704.40 0.406272
704.50 0.4060946
704.60 0.4059173
704.70 0.4057401
704.80 0.4055629
704.90 0.4053858
705.00 0.4052089
705.10 0.405032
705.20 0.4048575
705.30 0.4046838
705.40 0.4045101
705.50 0.4043364
705.60 0.4041629
705.70 0.4039895
705.80 0.4038101
705.90 0.4036295
706.00 0.4034489
706.10 0.4032684
706.20 0.4031059
706.30 0.4029477
706.40 0.402823
706.50 0.402623
706.60 0.4024209
706.70 0.402307
706.80 0.4021575
706.90 0.4019997
707.00 0.401842
707.10 0.4016843
707.20 0.4015267
707.30 0.4013692
707.40 0.4012117
707.50 0.4010544
707.60 0.4008971
707.70 0.4007398
707.80 0.4005827
707.90 0.4004256
708.00 0.4002686
708.10 0.4001116
708.20 0.3999548
708.30 0.399798
708.40 0.3996413
708.50 0.3994846
708.60 0.399328
708.70 0.3991715
708.80 0.3990151
708.90 0.3988588
709.00 0.3987025
709.10 0.3985463
709.20 0.3983901
709.30 0.3982341
709.40 0.3980781
709.50 0.3979221
709.60 0.3977663
709.70 0.3976105
709.80 0.3974548
709.90 0.3972992
710.00 0.3971436
710.10 0.3969881
710.20 0.3968327
710.30 0.3966774
710.40 0.3965221
710.50 0.3963669
710.60 0.3962141
710.70 0.3960619
710.80 0.3959098
710.90 0.3957578
711.00 0.3956059
711.10 0.395454
711.20 0.3953022
711.30 0.3951505
711.40 0.3949988
711.50 0.3948472
711.60 0.3946957
711.70 0.3945442
711.80 0.3943928
711.90 0.3942415
712.00 0.3940902
712.10 0.3939335
712.20 0.3937755
712.30 0.3936175
712.40 0.3934597
712.50 0.3933019
712.60 0.3931442
712.70 0.3929865
712.80 0.392829
712.90 0.3926715
713.00 0.3925141
713.10 0.3923567
713.20 0.3921994
713.30 0.3920422
713.40 0.3918851
713.50 0.3917281
713.60 0.3915711
713.70 0.3914135
713.80 0.3912548
713.90 0.3910961
714.00 0.3909375
714.10 0.3907796
714.20 0.3906218
714.30 0.3904642
714.40 0.3903066
714.50 0.390149
714.60 0.3899916
714.70 0.3898342
714.80 0.3896769
714.90 0.3895197
715.00 0.3893625
715.10 0.3892054
715.20 0.3890484
715.30 0.3888914
715.40 0.3887346
715.50 0.3885778
715.60 0.388421
715.70 0.3882644
715.80 0.3881078
715.90 0.3879513
716.00 0.3877949
716.10 0.3876385
716.20 0.3874822
716.30 0.387326
716.40 0.3871698
716.50 0.3870138
716.60 0.386858
716.70 0.3867023
716.80 0.3865467
716.90 0.3863912
717.00 0.3862357
717.10 0.3860803
717.20 0.385925
717.30 0.3857698
717.40 0.3856146
717.50 0.3854595
717.60 0.3853045
717.70 0.3851496
717.80 0.3849947
717.90 0.3848399
718.00 0.3846851
718.10 0.3845305
718.20 0.3843735
718.30 0.3842153
718.40 0.3840571
718.50 0.3838991
718.60 0.3837411
718.70 0.3835832
718.80 0.3834254
718.90 0.3832676
719.00 0.3831099
719.10 0.3829523
719.20 0.3827948
719.30 0.3826373
719.40 0.3824799
719.50 0.3823226
719.60 0.3821653
719.70 0.3820081
719.80 0.381851
719.90 0.381694
720.00 0.3815371
720.10 0.3813802
720.20 0.3812233
720.30 0.3810666
720.40 0.3809099
720.50 0.3807533
720.60 0.3805968
720.70 0.3804408
720.80 0.3802851
720.90 0.3801332
721.00 0.3799815
721.10 0.3798299
721.20 0.3796784
721.30 0.3795269
721.40 0.3793755
721.50 0.3792242
721.60 0.3790729
721.70 0.3789217
721.80 0.3787706
721.90 0.3786196
722.00 0.3784686
722.10 0.3783176
722.20 0.3781668
722.30 0.378016
722.40 0.3778653
722.50 0.3777147
722.60 0.3775641
722.70 0.3774106
722.80 0.3772557
722.90 0.3771008
723.00 0.3769459
723.10 0.3767912
723.20 0.3766365
723.30 0.3764819
723.40 0.3763273
723.50 0.3761729
723.60 0.3760185
723.70 0.3758641
723.80 0.3757099
723.90 0.3755557
724.00 0.3754016
724.10 0.3752475
724.20 0.3750922
724.30 0.3749362
724.40 0.3747803
724.50 0.3746244
724.60 0.3744686
724.70 0.3743129
724.80 0.3741572
724.90 0.3740017
725.00 0.3738462
725.10 0.3736907
725.20 0.3735354
725.30 0.3733801
725.40 0.3732249
725.50 0.3730697
725.60 0.3729147
725.70 0.3727597
725.80 0.3726061
725.90 0.3724533
726.00 0.3723006
726.10 0.372148
726.20 0.3719954
726.30 0.3718429
726.40 0.3716905
726.50 0.3715382
726.60 0.3713859
726.70 0.3712337
726.80 0.371087
726.90 0.3709432
727.00 0.3707995
727.10 0.3706559
727.20 0.3705124
727.30 0.3703689
727.40 0.3702255
727.50 0.3700821
727.60 0.3699388
727.70 0.3697956
727.80 0.3696254
727.90 0.3694408
728.00 0.3693103
728.10 0.3692036
728.20 0.3690244
728.30 0.3688401
728.40 0.3687119
728.50 0.3685692
728.60 0.3684266
728.70 0.368284
728.80 0.3681415
728.90 0.3679991
729.00 0.3678478
729.10 0.3676917
729.20 0.3675357
729.30 0.3673797
729.40 0.3672238
729.50 0.367068
729.60 0.3669212
729.70 0.3667793
729.80 0.3666375
729.90 0.3664958
730.00 0.3663541
730.10 0.3662124
730.20 0.3660708
730.30 0.3659293
730.40 0.3657879
730.50 0.3656465
730.60 0.3655018
730.70 0.3653554
730.80 0.3652091
730.90 0.3650628
731.00 0.3649166
731.10 0.3647705
731.20 0.3646244
731.30 0.3644784
731.40 0.3643325
731.50 0.3641866
731.60 0.3640408
731.70 0.3638951
731.80 0.3637494
731.90 0.3636038
732.00 0.3634582
732.10 0.3633127
732.20 0.3631653
732.30 0.3630169
732.40 0.3628686
732.50 0.3627203
732.60 0.362572
732.70 0.3624239
732.80 0.3622758
732.90 0.3621278
733.00 0.3619798
733.10 0.361832
733.20 0.3616841
733.30 0.3615364
733.40 0.3613887
733.50 0.3612411
733.60 0.3610935
733.70 0.3609491
733.80 0.3608063
733.90 0.3606636
734.00 0.360521
734.10 0.3603784
734.20 0.3602359
734.30 0.3600934
734.40 0.3599511
734.50 0.3598087
734.60 0.3596665
734.70 0.3595243
734.80 0.3593822
734.90 0.3592401
735.00 0.3590981
735.10 0.3589562
735.20 0.3588143
735.30 0.3586722
735.40 0.3585272
735.50 0.3583823
735.60 0.3582375
735.70 0.3580939
735.80 0.357951
735.90 0.3578082
736.00 0.3576655
736.10 0.3575229
736.20 0.3573803
736.30 0.3572377
736.40 0.3570953
736.50 0.3569529
736.60 0.3568105
736.70 0.3566682
736.80 0.356526
736.90 0.3563839
737.00 0.3562418
737.10 0.3560998
737.20 0.3559578
737.30 0.3558159
737.40 0.3556741
737.50 0.3555323
737.60 0.3553906
737.70 0.355249
737.80 0.3551074
737.90 0.3549659
738.00 0.3548245
738.10 0.3546831
738.20 0.3545409
738.30 0.3543983
738.40 0.3542558
738.50 0.3541134
738.60 0.353971
738.70 0.3538286
738.80 0.3536864
738.90 0.3535442
739.00 0.353402
739.10 0.35326
739.20 0.353118
739.30 0.352976
739.40 0.3528341
739.50 0.3526923
739.60 0.3525506
739.70 0.3524089
739.80 0.3522672
739.90 0.3521257
740.00 0.3519842
740.10 0.3518427
740.20 0.3517014
740.30 0.3515601
740.40 0.3514188
740.50 0.3512776
740.60 0.3511365
740.70 0.3509955
740.80 0.3508545
740.90 0.3507135
741.00 0.3505727
741.10 0.3504319
741.20 0.3502911
741.30 0.3501505
741.40 0.3500099
741.50 0.3498693
741.60 0.3497288
741.70 0.3495884
741.80 0.349448
741.90 0.3493077
742.00 0.3491675
742.10 0.3490273
742.20 0.3488872
742.30 0.3487472
742.40 0.3486072
742.50 0.3484673
742.60 0.3483274
742.70 0.3481875
742.80 0.3480475
742.90 0.3479076
743.00 0.3477677
743.10 0.3476279
743.20 0.3474882
743.30 0.3473485
743.40 0.3472089
743.50 0.3470693
743.60 0.3469299
743.70 0.3467907
743.80 0.3466527
743.90 0.3465147
744.00 0.3463767
744.10 0.3462389
744.20 0.3461011
744.30 0.3459633
744.40 0.3458257
744.50 0.345688
744.60 0.3455505
744.70 0.345413
744.80 0.3452756
744.90 0.3451382
745.00 0.3450009
745.10 0.3448636
745.20 0.3447264
745.30 0.3445893
745.40 0.3444522
745.50 0.3443152
745.60 0.3441783
745.70 0.3440414
745.80 0.3439046
745.90 0.3437678
746.00 0.3436311
746.10 0.3434945
746.20 0.3433579
746.30 0.3432214
746.40 0.3430849
746.50 0.3429485
746.60 0.3428122
746.70 0.3426759
746.80 0.3425397
746.90 0.3424036
747.00 0.3422675
747.10 0.3421315
747.20 0.3419955
747.30 0.3418596
747.40 0.3417237
747.50 0.3415879
747.60 0.3414522
747.70 0.3413165
747.80 0.3411809
747.90 0.3410454
748.00 0.3409099
748.10 0.3407745
748.20 0.3406391
748.30 0.3405038
748.40 0.3403685
748.50 0.3402334
748.60 0.3400982
748.70 0.3399632
748.80 0.3398282
748.90 0.3396932
749.00 0.3395583
749.10 0.3394235
749.20 0.3392887
749.30 0.339154
749.40 0.3390194
749.50 0.3388848
749.60 0.3387503
749.70 0.3386158
749.80 0.3384814
749.90 0.338347
750.00 0.3382128
750.10 0.3380786
750.20 0.3379447
750.30 0.3378108
750.40 0.337677
750.50 0.3375433
750.60 0.3374096
750.70 0.337276
750.80 0.3371424
750.90 0.3370089
751.00 0.3368755
751.10 0.3367421
751.20 0.3366088
751.30 0.3364755
751.40 0.3363423
751.50 0.3362091
751.60 0.336076
751.70 0.335943
751.80 0.33581
751.90 0.3356771
752.00 0.3355443
752.10 0.3354115
752.20 0.3352787
752.30 0.335146
752.40 0.3350134
752.50 0.3348809
752.60 0.3347484
752.70 0.3346159
752.80 0.3344835
752.90 0.3343512
753.00 0.3342189
753.10 0.3340867
753.20 0.3339546
753.30 0.3338225
753.40 0.3336904
753.50 0.3335585
753.60 0.3334266
753.70 0.3332947
753.80 0.3331629
753.90 0.3330311
754.00 0.3328995
754.10 0.3327678
754.20 0.3326363
754.30 0.3325048
754.40 0.3323733
754.50 0.3322419
754.60 0.3321106
754.70 0.3319793
754.80 0.3318481
754.90 0.3317169
755.00 0.3315858
755.10 0.3314547
755.20 0.3313238
755.30 0.3311928
755.40 0.331062
755.50 0.3309311
755.60 0.3308004
755.70 0.3306697
755.80 0.330539
755.90 0.3304084
756.00 0.3302779
756.10 0.3301474
756.20 0.330017
756.30 0.3298867
756.40 0.3297564
756.50 0.3296261
756.60 0.3294959
756.70 0.3293658
756.80 0.3292357
756.90 0.3291057
757.00 0.3289758
757.10 0.3288459
757.20 0.328716
757.30 0.3285863
757.40 0.3284565
757.50 0.3283269
757.60 0.3281968
757.70 0.3280656
757.80 0.3279346
757.90 0.3278035
758.00 0.3276725
758.10 0.3275416
758.20 0.3274108
758.30 0.32728
758.40 0.3271492
758.50 0.3270185
758.60 0.3268879
758.70 0.3267573
758.80 0.3266268
758.90 0.3264964
759.00 0.326366
759.10 0.3262356
759.20 0.3261053
759.30 0.3259751
759.40 0.3258449
759.50 0.3257148
759.60 0.3255848
759.70 0.3254548
759.80 0.3253248
759.90 0.3251949
760.00 0.3250651
760.10 0.3249353
760.20 0.3248056
760.30 0.324676
760.40 0.3245464
760.50 0.3244168
760.60 0.3242873
760.70 0.3241579
760.80 0.3240285
760.90 0.3238992
761.00 0.32377
761.10 0.3236408
761.20 0.3235116
761.30 0.3233825
761.40 0.3232543
761.50 0.3231273
761.60 0.3230004
761.70 0.3228735
761.80 0.3227467
761.90 0.32262
762.00 0.3224933
762.10 0.3223667
762.20 0.3222401
762.30 0.3221135
762.40 0.3219871
762.50 0.3218606
762.60 0.3217343
762.70 0.321608
762.80 0.3214817
762.90 0.3213555
763.00 0.3212294
763.10 0.3211033
763.20 0.3209773
763.30 0.3208513
763.40 0.3207254
763.50 0.3205995
763.60 0.3204737
763.70 0.3203479
763.80 0.3202222
763.90 0.3200966
764.00 0.319971
764.10 0.3198455
764.20 0.31972
764.30 0.3195945
764.40 0.3194692
764.50 0.3193438
764.60 0.3192186
764.70 0.3190934
764.80 0.3189682
764.90 0.3188431
765.00 0.3187181
765.10 0.3185931
765.20 0.3184678
765.30 0.3183424
765.40 0.318217
765.50 0.3180917
765.60 0.3179664
765.70 0.3178411
765.80 0.317716
765.90 0.3175908
766.00 0.3174658
766.10 0.3173408
766.20 0.3172158
766.30 0.3170909
766.40 0.316966
766.50 0.3168412
766.60 0.3167165
766.70 0.3165918
766.80 0.3164672
766.90 0.3163426
767.00 0.3162181
767.10 0.3160936
767.20 0.3159692
767.30 0.3158448
767.40 0.3157205
767.50 0.3155963
767.60 0.3154721
767.70 0.3153479
767.80 0.3152238
767.90 0.3150998
768.00 0.3149758
768.10 0.3148519
768.20 0.314728
768.30 0.3146042
768.40 0.3144804
768.50 0.3143567
768.60 0.314233
768.70 0.3141094
768.80 0.3139858
768.90 0.3138623
769.00 0.3137389
769.10 0.3136155
769.20 0.3134922
769.30 0.3133689
769.40 0.3132456
769.50 0.3131225
769.60 0.3129993
769.70 0.3128763
769.80 0.3127532
769.90 0.3126303
770.00 0.3125074
770.10 0.3123845
770.20 0.3122617
770.30 0.3121389
770.40 0.3120162
770.50 0.3118936
770.60 0.311771
770.70 0.3116485
770.80 0.311526
770.90 0.3114035
771.00 0.3112812
771.10 0.3111588
771.20 0.3110366
771.30 0.3109143
771.40 0.3107922
771.50 0.31067
771.60 0.310548
771.70 0.310426
771.80 0.310304
771.90 0.3101821
772.00 0.3100603
772.10 0.3099385
772.20 0.3098167
772.30 0.309695
772.40 0.3095734
772.50 0.3094518
772.60 0.3093302
772.70 0.3092088
772.80 0.3090873
772.90 0.3089673
773.00 0.3088473
773.10 0.3087274
773.20 0.3086076
773.30 0.3084878
773.40 0.308368
773.50 0.3082483
773.60 0.3081286
773.70 0.308009
773.80 0.3078895
773.90 0.30777
774.00 0.3076505
774.10 0.3075311
774.20 0.3074118
774.30 0.3072925
774.40 0.3071732
774.50 0.307054
774.60 0.3069349
774.70 0.3068158
774.80 0.3066968
774.90 0.3065778
775.00 0.3064588
775.10 0.3063399
775.20 0.3062211
775.30 0.3061023
775.40 0.3059836
775.50 0.3058649
775.60 0.3057463
775.70 0.3056277
775.80 0.3055092
775.90 0.3053907
776.00 0.3052723
776.10 0.3051539
776.20 0.3050356
776.30 0.3049173
776.40 0.3047991
776.50 0.3046809
776.60 0.3045628
776.70 0.3044447
776.80 0.3043267
776.90 0.3042087
777.00 0.3040908
777.10 0.3039729
777.20 0.3038551
777.30 0.3037373
777.40 0.3036196
777.50 0.3035019
777.60 0.3033843
777.70 0.3032668
777.80 0.3031493
777.90 0.3030318
778.00 0.3029144
778.10 0.302797
778.20 0.3026797
778.30 0.3025624
778.40 0.3024452
778.50 0.3023281
778.60 0.3022109
778.70 0.3020939
778.80 0.3019769
778.90 0.3018599
779.00 0.301743
779.10 0.3016261
779.20 0.3015093
779.30 0.3013926
779.40 0.3012758
779.50 0.3011592
779.60 0.3010426
779.70 0.300926
779.80 0.3008095
779.90 0.300693
780.00 0.3005766
780.10 0.3004603
780.20 0.3003439
780.30 0.3002277
780.40 0.3001115
780.50 0.2999953
780.60 0.2998779
780.70 0.2997599
780.80 0.2996421
780.90 0.2995243
781.00 0.2994065
781.10 0.2992888
781.20 0.2991712
781.30 0.2990536
781.40 0.298936
781.50 0.2988185
781.60 0.298701
781.70 0.2985836
781.80 0.2984663
781.90 0.298349
782.00 0.2982317
782.10 0.2981145
782.20 0.2979974
782.30 0.2978803
782.40 0.2977632
782.50 0.2976462
782.60 0.2975292
782.70 0.2974123
782.80 0.2972955
782.90 0.2971787
783.00 0.2970619
783.10 0.2969452
783.20 0.2968286
783.30 0.296712
783.40 0.2965954
783.50 0.2964789
783.60 0.2963625
783.70 0.2962461
783.80 0.2961297
783.90 0.2960134
784.00 0.2958971
784.10 0.2957809
784.20 0.2956648
784.30 0.2955487
784.40 0.2954326
784.50 0.2953166
784.60 0.2952015
784.70 0.2950882
784.80 0.2949751
784.90 0.2948619
785.00 0.2947489
785.10 0.2946358
785.20 0.2945228
785.30 0.2944099
785.40 0.294297
785.50 0.2941842
785.60 0.2940714
785.70 0.2939586
785.80 0.2938459
785.90 0.2937333
786.00 0.2936207
786.10 0.2935081
786.20 0.2933956
786.30 0.2932832
786.40 0.2931708
786.50 0.2930584
786.60 0.2929461
786.70 0.2928338
786.80 0.2927216
786.90 0.2926094
787.00 0.2924973
787.10 0.2923852
787.20 0.2922732
787.30 0.2921612
787.40 0.2920493
787.50 0.2919374
787.60 0.2918255
787.70 0.2917137
787.80 0.291602
787.90 0.2914903
788.00 0.2913787
788.10 0.2912671
788.20 0.2911555
788.30 0.291044
788.40 0.2909313
788.50 0.290818
788.60 0.2907047
788.70 0.2905915
788.80 0.2904784
788.90 0.2903653
789.00 0.2902522
789.10 0.2901392
789.20 0.2900262
789.30 0.2899133
789.40 0.2898005
789.50 0.2896876
789.60 0.2895749
789.70 0.2894621
789.80 0.2893495
789.90 0.2892368
790.00 0.2891243
790.10 0.2890117
790.20 0.2888993
790.30 0.2887868
790.40 0.2886744
790.50 0.2885621
790.60 0.2884498
790.70 0.2883375
790.80 0.2882254
790.90 0.2881132
791.00 0.2880011
791.10 0.287889
791.20 0.287777
791.30 0.2876651
791.40 0.2875532
791.50 0.2874413
791.60 0.2873295
791.70 0.2872177
791.80 0.287106
791.90 0.2869943
792.00 0.2868827
792.10 0.2867711
792.20 0.2866596
792.30 0.2865485
792.40 0.2864389
792.50 0.2863292
792.60 0.2862196
792.70 0.2861101
792.80 0.2860006
792.90 0.2858912
793.00 0.2857818
793.10 0.2856724
793.20 0.2855631
793.30 0.2854539
793.40 0.2853447
793.50 0.2852355
793.60 0.2851264
793.70 0.2850173
793.80 0.2849083
793.90 0.2847993
794.00 0.2846904
794.10 0.2845815
794.20 0.2844726
794.30 0.2843639
794.40 0.2842551
794.50 0.2841464
794.60 0.2840377
794.70 0.2839291
794.80 0.2838206
794.90 0.283712
795.00 0.2836035
795.10 0.2834951
795.20 0.2833867
795.30 0.2832784
795.40 0.2831701
795.50 0.2830618
795.60 0.2829536
795.70 0.2828455
795.80 0.2827374
795.90 0.2826293
796.00 0.2825213
796.10 0.2824133
796.20 0.2823054
796.30 0.2821971
796.40 0.2820887
796.50 0.2819804
796.60 0.2818722
796.70 0.281764
796.80 0.2816558
796.90 0.2815477
797.00 0.2814396
797.10 0.2813316
797.20 0.2812236
797.30 0.2811157
797.40 0.2810078
797.50 0.2809
797.60 0.2807922
797.70 0.2806844
797.80 0.2805767
797.90 0.2804691
798.00 0.2803614
798.10 0.2802539
798.20 0.2801463
798.30 0.2800389
798.40 0.2799314
798.50 0.279824
798.60 0.2797167
798.70 0.2796094
798.80 0.2795021
798.90 0.2793949
799.00 0.2792878
799.10 0.2791806
799.20 0.2790736
799.30 0.2789665
799.40 0.2788595
799.50 0.2787526
799.60 0.2786457
799.70 0.2785388
799.80 0.278432
799.90 0.2783253
800.00 0.2782186
800.10 0.2781119
800.20 0.2780053
800.30 0.2778987
800.40 0.2777921
800.50 0.2776856
800.60 0.2775792
800.70 0.2774728
800.80 0.2773664
800.90 0.2772601
801.00 0.2771538
801.10 0.2770476
801.20 0.2769414
801.30 0.2768353
801.40 0.2767292
801.50 0.2766231
801.60 0.2765171
801.70 0.2764112
801.80 0.2763053
801.90 0.2761994
802.00 0.2760935
802.10 0.2759878
802.20 0.275882
802.30 0.2757763
802.40 0.2756707
802.50 0.2755651
802.60 0.2754595
802.70 0.275354
802.80 0.2752485
802.90 0.2751431
803.00 0.2750377
803.10 0.2749323
803.20 0.274827
803.30 0.2747218
803.40 0.2746166
803.50 0.2745114
803.60 0.2744063
803.70 0.2743012
803.80 0.2741962
803.90 0.2740912
804.00 0.2739862
804.10 0.2738813
804.20 0.2737767
804.30 0.2736731
804.40 0.2735695
804.50 0.273466
804.60 0.2733625
804.70 0.2732591
804.80 0.2731557
804.90 0.2730524
805.00 0.2729491
805.10 0.2728458
805.20 0.2727426
805.30 0.2726394
805.40 0.2725363
805.50 0.2724332
805.60 0.2723301
805.70 0.2722271
805.80 0.2721241
805.90 0.2720212
806.00 0.2719183
806.10 0.2718155
806.20 0.2717127
806.30 0.27161
806.40 0.2715073
806.50 0.2714046
806.60 0.271302
806.70 0.2711994
806.80 0.2710969
806.90 0.2709944
807.00 0.2708919
807.10 0.2707895
807.20 0.2706871
807.30 0.2705848
807.40 0.2704825
807.50 0.2703803
807.60 0.2702781
807.70 0.2701759
807.80 0.2700738
807.90 0.2699717
808.00 0.2698697
808.10 0.2697677
808.20 0.2696658
808.30 0.2695622
808.40 0.2694586
808.50 0.2693552
808.60 0.2692517
808.70 0.2691483
808.80 0.2690449
808.90 0.2689416
809.00 0.2688383
809.10 0.2687351
809.20 0.2686319
809.30 0.2685288
809.40 0.2684257
809.50 0.2683226
809.60 0.2682196
809.70 0.2681166
809.80 0.2680137
809.90 0.2679108
810.00 0.2678079
810.10 0.2677051
810.20 0.2676023
810.30 0.2674996
810.40 0.2673969
810.50 0.2672943
810.60 0.2671917
810.70 0.2670892
810.80 0.2669866
810.90 0.2668842
811.00 0.2667818
811.10 0.2666794
811.20 0.266577
811.30 0.2664747
811.40 0.2663725
811.50 0.2662703
811.60 0.2661681
811.70 0.266066
811.80 0.2659639
811.90 0.2658618
812.00 0.2657598
812.10 0.2656579
812.20 0.265556
812.30 0.2654552
812.40 0.2653547
812.50 0.2652542
812.60 0.2651538
812.70 0.2650534
812.80 0.2649531
812.90 0.2648528
813.00 0.2647526
813.10 0.2646523
813.20 0.2645522
813.30 0.2644521
813.40 0.264352
813.50 0.2642519
813.60 0.2641519
813.70 0.264052
813.80 0.2639521
813.90 0.2638522
814.00 0.2637523
814.10 0.2636525
814.20 0.2635528
814.30 0.2634531
814.40 0.2633534
814.50 0.2632538
814.60 0.2631542
814.70 0.2630546
814.80 0.2629551
814.90 0.2628557
815.00 0.2627562
815.10 0.2626569
815.20 0.2625575
815.30 0.2624582
815.40 0.262359
815.50 0.2622597
815.60 0.2621606
815.70 0.2620614
815.80 0.2619623
815.90 0.2618633
816.00 0.2617642
816.10 0.2616653
816.20 0.2615663
816.30 0.2614674
816.40 0.2613686
816.50 0.2612698
816.60 0.261171
816.70 0.2610722
816.80 0.2609736
816.90 0.2608749
817.00 0.2607763
817.10 0.2606777
817.20 0.2605792
817.30 0.2604807
817.40 0.2603822
817.50 0.2602838
817.60 0.2601855
817.70 0.2600871
817.80 0.2599889
817.90 0.2598906
818.00 0.2597924
818.10 0.2596942
818.20 0.2595961
818.30 0.259498
818.40 0.2594
818.50 0.259302
818.60 0.259204
818.70 0.2591061
818.80 0.2590082
818.90 0.2589103
819.00 0.2588125
819.10 0.2587148
819.20 0.258617
819.30 0.2585216
819.40 0.2584277
819.50 0.2583338
819.60 0.25824
819.70 0.2581462
819.80 0.2580524
819.90 0.2579587
820.00 0.257865
820.10 0.2577741
820.20 0.2576609
820.30 0.2575414
820.40 0.2574356
820.50 0.2573396
820.60 0.2572436
820.70 0.2571477
820.80 0.2570518
820.90 0.256956
821.00 0.2568602
821.10 0.2567644
821.20 0.2566687
821.30 0.256573
821.40 0.2564773
821.50 0.2563817
821.60 0.2562861
821.70 0.2561906
821.80 0.2560951
821.90 0.2559997
822.00 0.2559042
822.10 0.2558089
822.20 0.2557135
822.30 0.2556182
822.40 0.255523
822.50 0.2554277
822.60 0.2553326
822.70 0.2552374
822.80 0.2551423
822.90 0.2550472
823.00 0.2549522
823.10 0.2548572
823.20 0.2547623
823.30 0.2546674
823.40 0.2545725
823.50 0.2544777
823.60 0.2543829
823.70 0.2542881
823.80 0.2541934
823.90 0.2540987
824.00 0.2540041
824.10 0.2539095
824.20 0.2538149
824.30 0.2537204
824.40 0.2536259
824.50 0.2535314
824.60 0.253437
824.70 0.2533426
824.80 0.2532483
824.90 0.253154
825.00 0.2530597
825.10 0.2529655
825.20 0.2528713
825.30 0.2527772
825.40 0.2526831
825.50 0.252589
825.60 0.252495
825.70 0.252401
825.80 0.252307
825.90 0.2522131
826.00 0.2521192
826.10 0.2520254
826.20 0.2519316
826.30 0.2518374
826.40 0.2517429
826.50 0.2516485
826.60 0.2515541
826.70 0.2514597
826.80 0.2513654
826.90 0.2512711
827.00 0.2511768
827.10 0.2510826
827.20 0.2509884
827.30 0.2508943
827.40 0.2508002
827.50 0.2507061
827.60 0.2506121
827.70 0.2505181
827.80 0.2504242
827.90 0.2503303
828.00 0.2502364
828.10 0.2501426
828.20 0.2500488
828.30 0.249955
828.40 0.2498613
828.50 0.2497676
828.60 0.249674
828.70 0.2495805
828.80 0.249487
828.90 0.2493936
829.00 0.2493002
829.10 0.2492068
829.20 0.2491135
829.30 0.2490202
829.40 0.2489269
829.50 0.2488337
829.60 0.2487406
829.70 0.2486474
829.80 0.2485543
829.90 0.2484613
830.00 0.2483682
830.10 0.2482752
830.20 0.2481823
830.30 0.2480894
830.40 0.2479965
830.50 0.2479037
830.60 0.2478109
830.70 0.2477181
830.80 0.2476254
830.90 0.2475327
831.00 0.24744
831.10 0.2473474
831.20 0.2472548
831.30 0.2471623
831.40 0.2470698
831.50 0.2469773
831.60 0.2468849
831.70 0.2467925
831.80 0.2467002
831.90 0.2466079
832.00 0.2465156
832.10 0.2464233
832.20 0.2463311
832.30 0.246239
832.40 0.2461468
832.50 0.2460548
832.60 0.2459627
832.70 0.2458707
832.80 0.2457787
832.90 0.2456868
833.00 0.2455949
833.10 0.245503
833.20 0.2454112
833.30 0.2453194
833.40 0.2452276
833.50 0.2451359
833.60 0.2450442
833.70 0.2449525
833.80 0.2448609
833.90 0.2447694
834.00 0.2446778
834.10 0.2445863
834.20 0.2444949
834.30 0.2444034
834.40 0.2443121
834.50 0.2442207
834.60 0.2441294
834.70 0.2440381
834.80 0.2439469
834.90 0.2438557
835.00 0.2437645
835.10 0.2436734
835.20 0.2435823
835.30 0.2434912
835.40 0.2434002
835.50 0.2433092
835.60 0.2432182
835.70 0.2431273
835.80 0.2430365
835.90 0.2429456
836.00 0.2428548
836.10 0.2427641
836.20 0.2426733
836.30 0.2425826
836.40 0.242492
836.50 0.2424014
836.60 0.2423108
836.70 0.2422202
836.80 0.2421297
836.90 0.2420389
837.00 0.2419481
837.10 0.2418572
837.20 0.2417665
837.30 0.2416757
837.40 0.241585
837.50 0.2414943
837.60 0.2414036
837.70 0.241313
837.80 0.2412225
837.90 0.2411319
838.00 0.2410414
838.10 0.240951
838.20 0.2408605
838.30 0.2407701
838.40 0.2406798
838.50 0.2405895
838.60 0.2404992
838.70 0.2404089
838.80 0.2403187
838.90 0.2402285
839.00 0.2401384
839.10 0.2400483
839.20 0.2399582
839.30 0.2398682
839.40 0.2397782
839.50 0.2396882
839.60 0.2395983
839.70 0.2395084
839.80 0.2394186
839.90 0.2393288
840.00 0.239239
840.10 0.2391492
840.20 0.2390595
840.30 0.2389699
840.40 0.2388802
840.50 0.2387906
840.60 0.2387011
840.70 0.2386115
840.80 0.2385221
840.90 0.2384326
841.00 0.2383432
841.10 0.2382551
841.20 0.2381672
841.30 0.2380794
841.40 0.2379916
841.50 0.2379039
841.60 0.2378161
841.70 0.2377285
841.80 0.2376408
841.90 0.2375532
842.00 0.2374656
842.10 0.2373781
842.20 0.2372906
842.30 0.2372031
842.40 0.2371157
842.50 0.2370283
842.60 0.2369409
842.70 0.2368536
842.80 0.2367663
842.90 0.236679
843.00 0.2365918
843.10 0.2365046
843.20 0.2364175
843.30 0.2363303
843.40 0.2362432
843.50 0.2361562
843.60 0.2360692
843.70 0.2359822
843.80 0.2358952
843.90 0.2358083
844.00 0.2357214
844.10 0.2356346
844.20 0.2355478
844.30 0.235461
844.40 0.2353743
844.50 0.2352876
844.60 0.2352009
844.70 0.2351143
844.80 0.2350277
844.90 0.2349411
845.00 0.2348545
845.10 0.234768
845.20 0.2346816
845.30 0.2345947
845.40 0.2345079
845.50 0.2344211
845.60 0.2343343
845.70 0.2342476
845.80 0.2341609
845.90 0.2340743
846.00 0.2339877
846.10 0.2339011
846.20 0.2338145
846.30 0.233728
846.40 0.2336415
846.50 0.2335551
846.60 0.2334687
846.70 0.2333823
846.80 0.2332959
846.90 0.2332096
847.00 0.2331233
847.10 0.2330371
847.20 0.2329509
847.30 0.2328647
847.40 0.2327786
847.50 0.2326925
847.60 0.2326064
847.70 0.2325204
847.80 0.2324344
847.90 0.2323484
848.00 0.2322625
848.10 0.2321766
848.20 0.2320907
848.30 0.2320049
848.40 0.2319191
848.50 0.2318333
848.60 0.2317476
848.70 0.2316619
848.80 0.2315762
848.90 0.2314906
849.00 0.231405
849.10 0.2313194
849.20 0.2312339
849.30 0.2311484
849.40 0.2310629
849.50 0.2309775
849.60 0.2308921
849.70 0.2308068
849.80 0.2307214
849.90 0.2306362
850.00 0.2305509
850.10 0.2304657
850.20 0.2303805
850.30 0.2302953
850.40 0.2302102
850.50 0.2301251
850.60 0.2300401
850.70 0.229955
850.80 0.2298701
850.90 0.2297851
851.00 0.2297002
851.10 0.2296153
851.20 0.2295304
851.30 0.2294456
851.40 0.2293608
851.50 0.2292761
851.60 0.2291914
851.70 0.2291067
851.80 0.229022
851.90 0.2289374
852.00 0.2288528
852.10 0.2287683
852.20 0.2286838
852.30 0.2285993
852.40 0.2285148
852.50 0.2284304
852.60 0.228346
852.70 0.2282617
852.80 0.2281773
852.90 0.2280931
853.00 0.2280088
853.10 0.2279246
853.20 0.2278404
853.30 0.2277562
853.40 0.2276721
853.50 0.227588
853.60 0.227504
853.70 0.2274205
853.80 0.2273375
853.90 0.2272545
854.00 0.2271716
854.10 0.2270887
854.20 0.2270059
854.30 0.2269231
854.40 0.2268403
854.50 0.2267575
854.60 0.2266748
854.70 0.2265921
854.80 0.2265095
854.90 0.2264269
855.00 0.2263443
855.10 0.2262617
855.20 0.2261792
855.30 0.2260967
855.40 0.2260143
855.50 0.2259318
855.60 0.2258495
855.70 0.2257671
855.80 0.2256848
855.90 0.2256025
856.00 0.2255202
856.10 0.225438
856.20 0.2253558
856.30 0.2252736
856.40 0.2251915
856.50 0.2251094
856.60 0.2250273
856.70 0.2249453
856.80 0.2248633
856.90 0.2247813
857.00 0.2246993
857.10 0.2246174
857.20 0.2245356
857.30 0.2244537
857.40 0.2243719
857.50 0.2242901
857.60 0.2242084
857.70 0.2241267
857.80 0.224045
857.90 0.2239633
858.00 0.2238817
858.10 0.2238001
858.20 0.2237186
858.30 0.223637
858.40 0.2235555
858.50 0.2234741
858.60 0.2233927
858.70 0.2233113
858.80 0.2232299
858.90 0.2231486
859.00 0.2230673
859.10 0.222986
859.20 0.2229047
859.30 0.2228235
859.40 0.2227424
859.50 0.2226612
859.60 0.2225801
859.70 0.222499
859.80 0.222418
859.90 0.222337
860.00 0.222256
860.10 0.222175
860.20 0.2220941
860.30 0.2220132
860.40 0.2219324
860.50 0.2218515
860.60 0.2217707
860.70 0.22169
860.80 0.2216092
860.90 0.2215285
861.00 0.2214479
861.10 0.2213672
861.20 0.2212866
861.30 0.2212061
861.40 0.2211255
861.50 0.221045
861.60 0.2209645
861.70 0.2208841
861.80 0.2208037
861.90 0.2207233
862.00 0.2206429
862.10 0.2205626
862.20 0.2204823
862.30 0.2204016
862.40 0.220321
862.50 0.2202404
862.60 0.2201598
862.70 0.2200793
862.80 0.2199988
862.90 0.2199183
863.00 0.2198379
863.10 0.2197575
863.20 0.2196771
863.30 0.2195968
863.40 0.2195165
863.50 0.2194362
863.60 0.2193559
863.70 0.2192757
863.80 0.2191955
863.90 0.2191154
864.00 0.2190353
864.10 0.2189552
864.20 0.2188751
864.30 0.2187951
864.40 0.2187151
864.50 0.2186351
864.60 0.2185552
864.70 0.2184753
864.80 0.2183954
864.90 0.2183156
865.00 0.2182357
865.10 0.218156
865.20 0.2180762
865.30 0.2179965
865.40 0.2179168
865.50 0.2178371
865.60 0.2177575
865.70 0.2176779
865.80 0.2175984
865.90 0.2175188
866.00 0.2174393
866.10 0.2173599
866.20 0.2172804
866.30 0.217201
866.40 0.2171216
866.50 0.2170423
866.60 0.216963
866.70 0.2168837
866.80 0.2168044
866.90 0.2167252
867.00 0.216646
867.10 0.2165668
867.20 0.2164877
867.30 0.2164086
867.40 0.2163295
867.50 0.2162505
867.60 0.2161715
867.70 0.2160925
867.80 0.2160136
867.90 0.2159347
868.00 0.2158558
868.10 0.2157769
868.20 0.2156981
868.30 0.2156193
868.40 0.2155405
868.50 0.2154618
868.60 0.2153831
868.70 0.2153044
868.80 0.2152258
868.90 0.2151472
869.00 0.2150686
869.10 0.21499
869.20 0.2149115
869.30 0.214833
869.40 0.2147546
869.50 0.2146761
869.60 0.2145977
869.70 0.2145194
869.80 0.214441
869.90 0.2143627
870.00 0.2142845
870.10 0.2142062
870.20 0.214128
870.30 0.2140498
870.40 0.2139717
870.50 0.2138935
870.60 0.2138154
870.70 0.2137374
870.80 0.2136593
870.90 0.2135822
871.00 0.2135052
871.10 0.2134282
871.20 0.2133512
871.30 0.2132743
871.40 0.2131974
871.50 0.2131205
871.60 0.2130437
871.70 0.2129668
871.80 0.2128901
871.90 0.2128133
872.00 0.2127366
872.10 0.2126599
872.20 0.2125832
872.30 0.2125066
872.40 0.21243
872.50 0.2123534
872.60 0.2122768
872.70 0.2122003
872.80 0.2121238
872.90 0.2120474
873.00 0.2119709
873.10 0.2118945
873.20 0.2118182
873.30 0.2117418
873.40 0.2116655
873.50 0.2115892
873.60 0.211513
873.70 0.2114368
873.80 0.2113606
873.90 0.2112844
874.00 0.2112083
874.10 0.2111321
874.20 0.2110561
874.30 0.21098
874.40 0.210904
874.50 0.210828
874.60 0.2107521
874.70 0.2106761
874.80 0.2106002
874.90 0.2105243
875.00 0.2104485
875.10 0.2103727
875.20 0.2102969
875.30 0.2102211
875.40 0.2101454
875.50 0.2100697
875.60 0.209994
875.70 0.2099184
875.80 0.2098428
875.90 0.2097672
876.00 0.2096917
876.10 0.2096161
876.20 0.2095406
876.30 0.2094652
876.40 0.2093897
876.50 0.2093143
876.60 0.209239
876.70 0.2091636
876.80 0.2090883
876.90 0.209013
877.00 0.2089377
877.10 0.2088625
877.20 0.2087873
877.30 0.2087121
877.40 0.208637
877.50 0.2085618
877.60 0.2084868
877.70 0.2084117
877.80 0.2083367
877.90 0.2082617
878.00 0.2081867
878.10 0.2081117
878.20 0.2080368
878.30 0.2079619
878.40 0.2078871
878.50 0.2078122
878.60 0.2077374
878.70 0.2076627
878.80 0.2075879
878.90 0.2075132
879.00 0.2074385
879.10 0.2073638
879.20 0.2072892
879.30 0.2072146
879.40 0.20714
879.50 0.2070655
879.60 0.2069912
879.70 0.206917
879.80 0.2068428
879.90 0.2067686
880.00 0.2066945
880.10 0.2066204
880.20 0.2065463
880.30 0.2064723
880.40 0.2063983
880.50 0.2063243
880.60 0.2062503
880.70 0.2061764
880.80 0.2061025
880.90 0.2060286
881.00 0.2059548
881.10 0.205881
881.20 0.2058072
881.30 0.2057334
881.40 0.2056597
881.50 0.205586
881.60 0.2055123
881.70 0.2054387
881.80 0.205365
881.90 0.2052914
882.00 0.2052179
882.10 0.2051443
882.20 0.2050708
882.30 0.2049974
882.40 0.2049239
882.50 0.2048505
882.60 0.2047771
882.70 0.2047037
882.80 0.2046304
882.90 0.2045571
883.00 0.2044838
883.10 0.2044105
883.20 0.2043373
883.30 0.2042641
883.40 0.2041909
883.50 0.2041178
883.60 0.2040447
883.70 0.2039716
883.80 0.2038985
883.90 0.2038255
884.00 0.2037525
884.10 0.2036795
884.20 0.2036065
884.30 0.2035336
884.40 0.2034607
884.50 0.2033878
884.60 0.203315
884.70 0.2032422
884.80 0.2031694
884.90 0.2030966
885.00 0.2030239
885.10 0.2029512
885.20 0.2028785
885.30 0.2028058
885.40 0.2027332
885.50 0.2026606
885.60 0.2025881
885.70 0.2025155
885.80 0.202443
885.90 0.2023705
886.00 0.2022981
886.10 0.2022256
886.20 0.2021532
886.30 0.2020809
886.40 0.2020085
886.50 0.2019362
886.60 0.2018639
886.70 0.2017916
886.80 0.2017194
886.90 0.2016472
887.00 0.201575
887.10 0.2015028
887.20 0.2014307
887.30 0.2013586
887.40 0.2012865
887.50 0.2012145
887.60 0.2011425
887.70 0.2010705
887.80 0.2009985
887.90 0.2009266
888.00 0.2008547
888.10 0.2007828
888.20 0.2007109
888.30 0.2006391
888.40 0.200567
888.50 0.2004949
888.60 0.2004228
888.70 0.2003507
888.80 0.2002786
888.90 0.2002066
889.00 0.2001346
889.10 0.2000626
889.20 0.1999907
889.30 0.1999188
889.40 0.1998469
889.50 0.199775
889.60 0.1997032
889.70 0.1996314
889.80 0.1995596
889.90 0.1994879
890.00 0.1994162
890.10 0.1993445
890.20 0.1992728
890.30 0.1992011
890.40 0.1991295
890.50 0.1990579
890.60 0.1989864
890.70 0.1989148
890.80 0.1988433
890.90 0.1987719
891.00 0.1987004
891.10 0.198629
891.20 0.1985576
891.30 0.1984862
891.40 0.1984149
891.50 0.1983435
891.60 0.1982723
891.70 0.198201
891.80 0.1981298
891.90 0.1980585
892.00 0.1979874
892.10 0.1979162
892.20 0.1978451
892.30 0.197774
892.40 0.1977029
892.50 0.1976319
892.60 0.1975608
892.70 0.1974898
892.80 0.1974189
892.90 0.1973479
893.00 0.197277
893.10 0.1972061
893.20 0.1971353
893.30 0.1970644
893.40 0.1969936
893.50 0.1969229
893.60 0.1968521
893.70 0.1967814
893.80 0.1967107
893.90 0.19664
894.00 0.1965694
894.10 0.1964987
894.20 0.1964281
894.30 0.1963576
894.40 0.196287
894.50 0.1962165
894.60 0.196146
894.70 0.1960756
894.80 0.1960051
894.90 0.1959347
895.00 0.1958644
895.10 0.195794
895.20 0.1957237
895.30 0.1956534
895.40 0.1955831
895.50 0.1955129
895.60 0.1954426
895.70 0.1953724
895.80 0.1953023
895.90 0.1952321
896.00 0.195162
896.10 0.1950919
896.20 0.1950219
896.30 0.1949518
896.40 0.1948818
896.50 0.1948118
896.60 0.1947419
896.70 0.194672
896.80 0.1946021
896.90 0.1945322
897.00 0.1944623
897.10 0.1943925
897.20 0.1943227
897.30 0.1942538
897.40 0.194185
897.50 0.1941161
897.60 0.1940473
897.70 0.1939785
897.80 0.1939097
897.90 0.193841
898.00 0.1937723
898.10 0.1937036
898.20 0.1936349
898.30 0.1935662
898.40 0.1934976
898.50 0.193429
898.60 0.1933605
898.70 0.1932919
898.80 0.1932234
898.90 0.1931549
899.00 0.1930865
899.10 0.193018
899.20 0.1929496
899.30 0.1928812
899.40 0.1928129
899.50 0.1927446
899.60 0.1926762
899.70 0.192608
899.80 0.1925397
899.90 0.1924715
900.00 0.1924033
900.10 0.1923351
900.20 0.1922669
900.30 0.1921988
900.40 0.1921307
900.50 0.1920626
900.60 0.1919946
900.70 0.1919265
900.80 0.1918585
900.90 0.1917906
901.00 0.1917226
901.10 0.1916547
901.20 0.1915868
901.30 0.1915189
901.40 0.1914511
901.50 0.1913832
901.60 0.1913154
901.70 0.1912477
901.80 0.1911799
901.90 0.1911122
902.00 0.1910445
902.10 0.1909768
902.20 0.1909092
902.30 0.1908416
902.40 0.190774
902.50 0.1907064
902.60 0.1906388
902.70 0.1905713
902.80 0.1905038
902.90 0.1904364
903.00 0.1903689
903.10 0.1903015
903.20 0.1902341
903.30 0.1901667
903.40 0.1900994
903.50 0.1900321
903.60 0.1899648
903.70 0.1898975
903.80 0.1898303
903.90 0.1897631
904.00 0.1896959
904.10 0.1896287
904.20 0.1895616
904.30 0.1894944
904.40 0.1894273
904.50 0.1893603
904.60 0.1892932
904.70 0.1892262
904.80 0.1891592
904.90 0.1890923
905.00 0.1890253
905.10 0.1889584
905.20 0.1888915
905.30 0.1888246
905.40 0.1887578
905.50 0.188691
905.60 0.1886242
905.70 0.1885574
905.80 0.1884907
905.90 0.188424
906.00 0.1883573
906.10 0.1882906
906.20 0.188224
906.30 0.1881577
906.40 0.1880913
906.50 0.188025
906.60 0.1879587
906.70 0.1878924
906.80 0.1878262
906.90 0.18776
907.00 0.1876938
907.10 0.1876276
907.20 0.1875614
907.30 0.1874953
907.40 0.1874292
907.50 0.1873631
907.60 0.1872971
907.70 0.1872311
907.80 0.1871651
907.90 0.1870991
908.00 0.1870331
908.10 0.1869672
908.20 0.1869013
908.30 0.1868354
908.40 0.1867696
908.50 0.1867038
908.60 0.1866379
908.70 0.1865722
908.80 0.1865064
908.90 0.1864407
909.00 0.186375
909.10 0.1863093
909.20 0.1862436
909.30 0.186178
909.40 0.1861124
909.50 0.1860468
909.60 0.1859812
909.70 0.1859157
909.80 0.1858502
909.90 0.1857847
910.00 0.1857192
910.10 0.1856538
910.20 0.1855884
910.30 0.185523
910.40 0.1854576
910.50 0.1853923
910.60 0.185327
910.70 0.1852617
910.80 0.1851976
910.90 0.1851335
911.00 0.1850695
911.10 0.1850054
911.20 0.1849414
911.30 0.1848775
911.40 0.1848135
911.50 0.1847496
911.60 0.1846857
911.70 0.1846218
911.80 0.1845579
911.90 0.1844941
912.00 0.1844303
912.10 0.1843665
912.20 0.1843027
912.30 0.184239
912.40 0.1841752
912.50 0.1841115
912.60 0.1840479
912.70 0.1839842
912.80 0.1839206
912.90 0.183857
913.00 0.1837934
913.10 0.1837298
913.20 0.1836663
913.30 0.1836028
913.40 0.1835393
913.50 0.1834759
913.60 0.1834124
913.70 0.183349
913.80 0.1832856
913.90 0.1832222
914.00 0.1831589
914.10 0.1830956
914.20 0.1830323
914.30 0.182969
914.40 0.1829057
914.50 0.1828425
914.60 0.1827793
914.70 0.1827161
914.80 0.182653
914.90 0.1825898
915.00 0.1825267
915.10 0.1824636
915.20 0.1824006
915.30 0.1823369
915.40 0.1822729
915.50 0.182209
915.60 0.1821451
915.70 0.1820813
915.80 0.1820174
915.90 0.1819536
916.00 0.1818898
916.10 0.181826
916.20 0.1817623
916.30 0.1816985
916.40 0.1816348
916.50 0.1815711
916.60 0.1815075
916.70 0.1814439
916.80 0.1813802
916.90 0.1813167
917.00 0.1812531
917.10 0.1811896
917.20 0.181126
917.30 0.1810625
917.40 0.1809991
917.50 0.1809356
917.60 0.1808722
917.70 0.1808088
917.80 0.1807454
917.90 0.1806821
918.00 0.1806187
918.10 0.1805554
918.20 0.1804921
918.30 0.1804289
918.40 0.1803656
918.50 0.1803024
918.60 0.1802392
918.70 0.1801761
918.80 0.1801129
918.90 0.1800498
919.00 0.1799867
919.10 0.1799236
919.20 0.1798606
919.30 0.1797976
919.40 0.1797346
919.50 0.1796716
919.60 0.1796086
919.70 0.1795457
919.80 0.1794828
919.90 0.1794199
920.00 0.179357
920.10 0.1792942
920.20 0.1792313
920.30 0.1791686
920.40 0.1791058
920.50 0.179043
920.60 0.1789803
920.70 0.1789176
920.80 0.1788549
920.90 0.1787923
921.00 0.1787296
921.10 0.178667
921.20 0.1786044
921.30 0.1785418
921.40 0.1784793
921.50 0.1784168
921.60 0.1783543
921.70 0.1782918
921.80 0.1782294
921.90 0.1781669
922.00 0.1781045
922.10 0.1780421
922.20 0.1779798
922.30 0.1779174
922.40 0.1778551
922.50 0.1777928
922.60 0.1777306
922.70 0.1776683
922.80 0.1776061
922.90 0.1775439
923.00 0.1774817
923.10 0.1774196
923.20 0.1773574
923.30 0.1772953
923.40 0.1772332
923.50 0.1771712
923.60 0.1771091
923.70 0.1770471
923.80 0.1769851
923.90 0.1769231
924.00 0.1768612
924.10 0.1767993
924.20 0.1767373
924.30 0.1766755
924.40 0.1766136
924.50 0.176552
924.60 0.1764905
924.70 0.1764289
924.80 0.1763674
924.90 0.1763059
925.00 0.1762444
925.10 0.1761829
925.20 0.1761215
925.30 0.17606
925.40 0.1759986
925.50 0.1759373
925.60 0.1758759
925.70 0.1758146
925.80 0.1757533
925.90 0.175692
926.00 0.1756307
926.10 0.1755695
926.20 0.1755082
926.30 0.175447
926.40 0.1753859
926.50 0.1753247
926.60 0.1752636
926.70 0.1752025
926.80 0.1751414
926.90 0.1750803
927.00 0.1750193
927.10 0.1749583
927.20 0.1748973
927.30 0.1748363
927.40 0.1747753
927.50 0.1747144
927.60 0.1746535
927.70 0.1745926
927.80 0.1745317
927.90 0.1744709
928.00 0.1744101
928.10 0.1743493
928.20 0.1742885
928.30 0.1742277
928.40 0.174167
928.50 0.1741063
928.60 0.1740456
928.70 0.1739849
928.80 0.1739243
928.90 0.1738637
929.00 0.1738031
929.10 0.1737425
929.20 0.173682
929.30 0.1736214
929.40 0.1735609
929.50 0.1735004
929.60 0.17344
929.70 0.1733795
929.80 0.1733191
929.90 0.1732587
930.00 0.1731983
930.10 0.1731379
930.20 0.1730776
930.30 0.1730173
930.40 0.172957
930.50 0.1728967
930.60 0.1728365
930.70 0.1727763
930.80 0.1727161
930.90 0.1726559
931.00 0.1725957
931.10 0.1725356
931.20 0.1724755
931.30 0.1724154
931.40 0.1723553
931.50 0.1722952
931.60 0.1722352
931.70 0.1721752
931.80 0.1721152
931.90 0.1720553
932.00 0.1719953
932.10 0.1719354
932.20 0.1718755
932.30 0.1718156
932.40 0.1717558
932.50 0.1716959
932.60 0.1716361
932.70 0.1715763
932.80 0.1715166
932.90 0.1714568
933.00 0.1713971
933.10 0.1713374
933.20 0.1712777
933.30 0.1712181
933.40 0.1711584
933.50 0.1710988
933.60 0.1710392
933.70 0.1709802
933.80 0.1709214
933.90 0.1708626
934.00 0.1708039
934.10 0.1707452
934.20 0.1706865
934.30 0.1706278
934.40 0.1705691
934.50 0.1705105
934.60 0.1704519
934.70 0.1703933
934.80 0.1703347
934.90 0.1702762
935.00 0.1702176
935.10 0.1701591
935.20 0.1701006
935.30 0.1700422
935.40 0.1699837
935.50 0.1699253
935.60 0.1698669
935.70 0.1698085
935.80 0.1697502
935.90 0.1696918
936.00 0.1696335
936.10 0.1695752
936.20 0.1695169
936.30 0.1694587
936.40 0.1694004
936.50 0.1693422
936.60 0.169284
936.70 0.1692259
936.80 0.1691677
936.90 0.1691096
937.00 0.1690515
937.10 0.1689934
937.20 0.1689353
937.30 0.1688773
937.40 0.1688192
937.50 0.1687612
937.60 0.1687032
937.70 0.1686453
937.80 0.1685873
937.90 0.1685294
938.00 0.1684715
938.10 0.1684136
938.20 0.1683558
938.30 0.1682979
938.40 0.1682401
938.50 0.1681823
938.60 0.1681245
938.70 0.1680668
938.80 0.1680091
938.90 0.1679513
939.00 0.1678937
939.10 0.167836
939.20 0.1677783
939.30 0.1677207
939.40 0.1676631
939.50 0.1676055
939.60 0.1675479
939.70 0.1674904
939.80 0.1674329
939.90 0.1673754
940.00 0.1673179
940.10 0.1672604
940.20 0.167203
940.30 0.1671455
940.40 0.1670881
940.50 0.1670308
940.60 0.1669734
940.70 0.1669161
940.80 0.1668587
940.90 0.1668014
941.00 0.1667442
941.10 0.1666869
941.20 0.1666297
941.30 0.1665724
941.40 0.1665152
941.50 0.1664581
941.60 0.1664009
941.70 0.1663438
941.80 0.1662867
941.90 0.1662296
942.00 0.1661725
942.10 0.1661154
942.20 0.1660584
942.30 0.1660014
942.40 0.1659444
942.50 0.1658874
942.60 0.1658305
942.70 0.1657736
942.80 0.1657166
942.90 0.1656598
943.00 0.165603
943.10 0.1655463
943.20 0.1654897
943.30 0.1654331
943.40 0.1653766
943.50 0.16532
943.60 0.1652635
943.70 0.165207
943.80 0.1651505
943.90 0.165094
944.00 0.1650376
944.10 0.1649811
944.20 0.1649247
944.30 0.1648683
944.40 0.164812
944.50 0.1647556
944.60 0.1646993
944.70 0.164643
944.80 0.1645867
944.90 0.1645304
945.00 0.1644742
945.10 0.1644179
945.20 0.1643617
945.30 0.1643055
945.40 0.1642494
945.50 0.1641932
945.60 0.1641371
945.70 0.164081
945.80 0.1640249
945.90 0.1639688
946.00 0.1639128
946.10 0.1638568
946.20 0.1638008
946.30 0.1637448
946.40 0.1636888
946.50 0.1636329
946.60 0.1635769
946.70 0.163521
946.80 0.1634651
946.90 0.1634093
947.00 0.1633534
947.10 0.1632976
947.20 0.1632418
947.30 0.163186
947.40 0.1631302
947.50 0.1630745
947.60 0.1630188
947.70 0.162963
947.80 0.1629074
947.90 0.1628517
948.00 0.162796
948.10 0.1627404
948.20 0.1626848
948.30 0.1626292
948.40 0.1625736
948.50 0.1625181
948.60 0.1624626
948.70 0.1624071
948.80 0.1623516
948.90 0.1622961
949.00 0.1622406
949.10 0.1621852
949.20 0.1621298
949.30 0.1620744
949.40 0.162019
949.50 0.1619637
949.60 0.1619084
949.70 0.1618531
949.80 0.1617978
949.90 0.1617425
950.00 0.1616872
950.10 0.161632
950.20 0.1615768
950.30 0.1615216
950.40 0.1614664
950.50 0.1614113
950.60 0.1613561
950.70 0.161301
950.80 0.1612459
950.90 0.1611908
951.00 0.1611358
951.10 0.1610807
951.20 0.1610257
951.30 0.1609707
951.40 0.1609158
951.50 0.1608608
951.60 0.1608059
951.70 0.1607509
951.80 0.160696
951.90 0.1606412
952.00 0.1605863
952.10 0.1605315
952.20 0.1604766
952.30 0.1604218
952.40 0.160367
952.50 0.160312
952.60 0.1602569
952.70 0.1602019
952.80 0.1601469
952.90 0.1600919
953.00 0.1600369
953.10 0.159982
953.20 0.159927
953.30 0.1598721
953.40 0.1598173
953.50 0.1597624
953.60 0.1597075
953.70 0.1596527
953.80 0.1595979
953.90 0.1595431
954.00 0.1594883
954.10 0.1594336
954.20 0.1593788
954.30 0.1593241
954.40 0.1592694
954.50 0.1592148
954.60 0.1591601
954.70 0.1591055
954.80 0.1590509
954.90 0.1589963
955.00 0.1589417
955.10 0.1588871
955.20 0.1588326
955.30 0.1587781
955.40 0.1587236
955.50 0.1586691
955.60 0.1586146
955.70 0.1585602
955.80 0.1585058
955.90 0.1584513
956.00 0.158397
956.10 0.1583426
956.20 0.1582883
956.30 0.1582339
956.40 0.1581796
956.50 0.1581253
956.60 0.1580711
956.70 0.1580168
956.80 0.1579626
956.90 0.1579084
957.00 0.1578542
957.10 0.1578
957.20 0.1577463
957.30 0.1576932
957.40 0.1576401
957.50 0.157587
957.60 0.1575339
957.70 0.1574809
957.80 0.1574278
957.90 0.1573748
958.00 0.1573218
958.10 0.1572689
958.20 0.1572159
958.30 0.157163
958.40 0.15711
958.50 0.1570571
958.60 0.1570043
958.70 0.1569514
958.80 0.1568985
958.90 0.1568457
959.00 0.1567929
959.10 0.1567401
959.20 0.1566873
959.30 0.1566346
959.40 0.1565819
959.50 0.1565291
959.60 0.1564765
959.70 0.1564238
959.80 0.1563711
959.90 0.1563185
960.00 0.1562658
960.10 0.1562132
960.20 0.1561607
960.30 0.1561081
960.40 0.1560555
960.50 0.156003
960.60 0.1559505
960.70 0.155898
960.80 0.1558455
960.90 0.1557931
961.00 0.1557406
961.10 0.1556882
961.20 0.1556358
961.30 0.1555834
961.40 0.1555311
961.50 0.1554787
961.60 0.1554264
961.70 0.1553741
961.80 0.1553218
961.90 0.1552695
962.00 0.155217
962.10 0.1551645
962.20 0.155112
962.30 0.1550595
962.40 0.155007
962.50 0.1549546
962.60 0.1549021
962.70 0.1548497
962.80 0.1547973
962.90 0.1547449
963.00 0.1546925
963.10 0.1546402
963.20 0.1545879
963.30 0.1545356
963.40 0.1544833
963.50 0.154431
963.60 0.1543787
963.70 0.1543265
963.80 0.1542743
963.90 0.1542221
964.00 0.1541699
964.10 0.1541177
964.20 0.1540656
964.30 0.1540135
964.40 0.1539613
964.50 0.1539093
964.60 0.1538572
964.70 0.1538051
964.80 0.1537531
964.90 0.1537011
965.00 0.1536491
965.10 0.1535971
965.20 0.1535451
965.30 0.1534932
965.40 0.1534413
965.50 0.1533894
965.60 0.1533375
965.70 0.1532856
965.80 0.1532337
965.90 0.1531819
966.00 0.1531301
966.10 0.1530783
966.20 0.1530265
966.30 0.1529747
966.40 0.152923
966.50 0.1528713
966.60 0.1528196
966.70 0.1527679
966.80 0.1527162
966.90 0.1526645
967.00 0.1526129
967.10 0.1525613
967.20 0.1525097
967.30 0.1524581
967.40 0.1524065
967.50 0.152355
967.60 0.1523035
967.70 0.152252
967.80 0.1522005
967.90 0.152149
968.00 0.1520975
968.10 0.1520461
968.20 0.1519947
968.30 0.1519433
968.40 0.1518919
968.50 0.1518405
968.60 0.1517892
968.70 0.1517379
968.80 0.1516865
968.90 0.1516353
969.00 0.151584
969.10 0.1515327
969.20 0.1514815
969.30 0.1514303
969.40 0.1513791
969.50 0.1513279
969.60 0.1512767
969.70 0.1512256
969.80 0.1511744
969.90 0.1511233
970.00 0.1510722
970.10 0.1510211
970.20 0.1509701
970.30 0.150919
970.40 0.150868
970.50 0.150817
970.60 0.150766
970.70 0.150715
970.80 0.1506641
970.90 0.1506131
971.00 0.1505622
971.10 0.1505113
971.20 0.1504604
971.30 0.1504096
971.40 0.1503587
971.50 0.1503079
971.60 0.1502572
971.70 0.1502066
971.80 0.150156
971.90 0.1501055
972.00 0.1500549
972.10 0.1500044
972.20 0.1499539
972.30 0.1499034
972.40 0.1498529
972.50 0.1498025
972.60 0.149752
972.70 0.1497016
972.80 0.1496512
972.90 0.1496008
973.00 0.1495504
973.10 0.1495001
973.20 0.1494498
973.30 0.1493994
973.40 0.1493491
973.50 0.1492989
973.60 0.1492486
973.70 0.1491984
973.80 0.1491481
973.90 0.1490979
974.00 0.1490477
974.10 0.1489975
974.20 0.1489474
974.30 0.1488972
974.40 0.1488471
974.50 0.148797
974.60 0.1487469
974.70 0.1486969
974.80 0.1486468
974.90 0.1485968
975.00 0.1485467
975.10 0.1484967
975.20 0.1484468
975.30 0.1483968
975.40 0.1483468
975.50 0.1482969
975.60 0.148247
975.70 0.1481971
975.80 0.1481472
975.90 0.1480973
976.00 0.1480475
976.10 0.1479977
976.20 0.1479479
976.30 0.1478981
976.40 0.1478483
976.50 0.1477985
976.60 0.1477488
976.70 0.1476991
976.80 0.1476494
976.90 0.1475997
977.00 0.14755
977.10 0.1475003
977.20 0.1474507
977.30 0.1474011
977.40 0.1473515
977.50 0.1473019
977.60 0.1472523
977.70 0.1472028
977.80 0.1471532
977.90 0.1471037
978.00 0.1470542
978.10 0.1470047
978.20 0.1469553
978.30 0.1469058
978.40 0.1468564
978.50 0.146807
978.60 0.1467576
978.70 0.1467082
978.80 0.1466588
978.90 0.1466095
979.00 0.1465601
979.10 0.1465108
979.20 0.1464615
979.30 0.1464123
979.40 0.146363
979.50 0.1463137
979.60 0.1462645
979.70 0.1462153
979.80 0.1461661
979.90 0.1461169
980.00 0.1460678
980.10 0.1460186
980.20 0.1459695
980.30 0.1459204
980.40 0.1458713
980.50 0.1458222
980.60 0.1457732
980.70 0.1457241
980.80 0.1456751
980.90 0.1456261
981.00 0.1455771
981.10 0.1455282
981.20 0.1454792
981.30 0.1454306
981.40 0.1453823
981.50 0.1453341
981.60 0.1452858
981.70 0.1452376
981.80 0.1451894
981.90 0.1451413
982.00 0.1450931
982.10 0.1450449
982.20 0.1449968
982.30 0.1449487
982.40 0.1449006
982.50 0.1448525
982.60 0.1448045
982.70 0.1447564
982.80 0.1447084
982.90 0.1446604
983.00 0.1446124
983.10 0.1445644
983.20 0.1445164
983.30 0.1444685
983.40 0.1444205
983.50 0.1443726
983.60 0.1443247
983.70 0.1442769
983.80 0.144229
983.90 0.1441811
984.00 0.1441333
984.10 0.1440855
984.20 0.1440377
984.30 0.1439899
984.40 0.1439421
984.50 0.1438944
984.60 0.1438467
984.70 0.1437989
984.80 0.1437512
984.90 0.1437035
985.00 0.1436559
985.10 0.1436082
985.20 0.1435606
985.30 0.143513
985.40 0.1434654
985.50 0.1434178
985.60 0.1433702
985.70 0.1433227
985.80 0.1432751
985.90 0.1432276
986.00 0.1431801
986.10 0.1431326
986.20 0.1430851
986.30 0.1430377
986.40 0.1429902
986.50 0.1429428
986.60 0.1428954
986.70 0.142848
986.80 0.1428006
986.90 0.1427533
987.00 0.1427059
987.10 0.1426586
987.20 0.1426113
987.30 0.142564
987.40 0.1425167
987.50 0.1424695
987.60 0.1424222
987.70 0.142375
987.80 0.1423278
987.90 0.1422806
988.00 0.1422334
988.10 0.1421863
988.20 0.1421391
988.30 0.142092
988.40 0.1420449
988.50 0.1419978
988.60 0.1419507
988.70 0.1419036
988.80 0.1418566
988.90 0.1418095
989.00 0.1417625
989.10 0.1417155
989.20 0.1416685
989.30 0.1416216
989.40 0.1415746
989.50 0.1415277
989.60 0.1414807
989.70 0.1414338
989.80 0.1413869
989.90 0.1413401
990.00 0.1412932
990.10 0.1412464
990.20 0.1411995
990.30 0.1411527
990.40 0.1411059
990.50 0.1410592
990.60 0.1410124
990.70 0.1409657
990.80 0.1409189
990.90 0.1408722
991.00 0.1408255
991.10 0.1407789
991.20 0.1407324
991.30 0.140686
991.40 0.1406395
991.50 0.1405931
991.60 0.1405466
991.70 0.1405002
991.80 0.1404538
991.90 0.1404075
992.00 0.1403611
992.10 0.1403148
992.20 0.1402684
992.30 0.1402221
992.40 0.1401758
992.50 0.1401295
992.60 0.1400833
992.70 0.140037
992.80 0.1399908
992.90 0.1399446
993.00 0.1398984
993.10 0.1398522
993.20 0.139806
993.30 0.1397599
993.40 0.1397137
993.50 0.1396676
993.60 0.1396215
993.70 0.1395754
993.80 0.1395293
993.90 0.1394833
994.00 0.1394372
994.10 0.1393912
994.20 0.1393452
994.30 0.1392992
994.40 0.1392532
994.50 0.1392072
994.60 0.1391613
994.70 0.1391154
994.80 0.1390694
994.90 0.1390235
995.00 0.1389776
995.10 0.1389318
995.20 0.1388859
995.30 0.1388401
995.40 0.1387943
995.50 0.1387484
995.60 0.1387027
995.70 0.1386569
995.80 0.1386111
995.90 0.1385654
996.00 0.1385196
996.10 0.1384739
996.20 0.1384282
996.30 0.1383825
996.40 0.1383369
996.50 0.1382912
996.60 0.1382456
996.70 0.1382
996.80 0.1381544
996.90 0.1381088
997.00 0.1380632
997.10 0.1380177
997.20 0.1379721
997.30 0.1379266
997.40 0.1378811
997.50 0.1378356
997.60 0.1377901
997.70 0.1377446
997.80 0.1376992
997.90 0.1376538
998.00 0.1376083
998.10 0.1375629
998.20 0.1375176
998.30 0.1374722
998.40 0.1374268
998.50 0.1373815
998.60 0.1373362
998.70 0.1372908
998.80 0.1372456
998.90 0.1372003
999.00 0.137155
999.10 0.1371098
999.20 0.1370645
999.30 0.1370193
999.40 0.1369741
999.50 0.1369289
999.60 0.1368838
999.70 0.1368386
999.80 0.1367935
999.90 0.1367483
1000.00 0.1367032
1000.10 0.1366581
1000.20 0.136613
1000.30 0.136568
1000.40 0.1365229
1000.50 0.1364779
1000.60 0.1364329
1000.70 0.1363879
1000.80 0.1363429
1000.90 0.1362979
1001.00 0.136253
1001.10 0.1362082
1001.20 0.1361635
1001.30 0.1361187
1001.40 0.136074
1001.50 0.1360293
1001.60 0.1359846
1001.70 0.1359399
1001.80 0.1358953
1001.90 0.1358506
1002.00 0.135806
1002.10 0.1357614
1002.20 0.1357168
1002.30 0.1356722
1002.40 0.1356276
1002.50 0.1355831
1002.60 0.1355385
1002.70 0.135494
1002.80 0.1354495
1002.90 0.135405
1003.00 0.1353605
1003.10 0.135316
1003.20 0.1352716
1003.30 0.1352272
1003.40 0.1351827
1003.50 0.1351383
1003.60 0.1350939
1003.70 0.1350496
1003.80 0.1350052
1003.90 0.1349609
1004.00 0.1349165
1004.10 0.1348722
1004.20 0.1348279
1004.30 0.1347836
1004.40 0.1347393
1004.50 0.1346951
1004.60 0.1346508
1004.70 0.1346066
1004.80 0.1345624
1004.90 0.1345182
1005.00 0.134474
1005.10 0.1344299
1005.20 0.1343857
1005.30 0.1343416
1005.40 0.1342975
1005.50 0.1342533
1005.60 0.1342093
1005.70 0.1341652
1005.80 0.1341211
1005.90 0.1340771
1006.00 0.134033
1006.10 0.133989
1006.20 0.133945
1006.30 0.133901
1006.40 0.133857
1006.50 0.1338131
1006.60 0.1337691
1006.70 0.1337252
1006.80 0.1336813
1006.90 0.1336374
1007.00 0.1335935
1007.10 0.1335496
1007.20 0.1335058
1007.30 0.1334619
1007.40 0.1334181
1007.50 0.1333743
1007.60 0.1333305
1007.70 0.1332867
1007.80 0.1332429
1007.90 0.1331992
1008.00 0.1331554
1008.10 0.1331117
1008.20 0.133068
1008.30 0.1330243
1008.40 0.1329806
1008.50 0.1329369
1008.60 0.1328933
1008.70 0.1328496
1008.80 0.132806
1008.90 0.1327624
1009.00 0.1327188
1009.10 0.1326752
1009.20 0.1326317
1009.30 0.1325881
1009.40 0.1325446
1009.50 0.1325011
1009.60 0.1324576
1009.70 0.1324141
1009.80 0.1323706
1009.90 0.1323271
1010.00 0.1322837
1010.10 0.1322403
1010.20 0.1321968
1010.30 0.1321534
1010.40 0.1321101
1010.50 0.1320667
1010.60 0.1320233
1010.70 0.13198
1010.80 0.1319366
1010.90 0.1318933
1011.00 0.1318501
1011.10 0.1318069
1011.20 0.1317639
1011.30 0.1317208
1011.40 0.1316777
1011.50 0.1316346
1011.60 0.1315916
1011.70 0.1315486
1011.80 0.1315056
1011.90 0.1314626
1012.00 0.1314196
1012.10 0.1313766
1012.20 0.1313337
1012.30 0.1312907
1012.40 0.1312478
1012.50 0.1312049
1012.60 0.131162
1012.70 0.1311191
1012.80 0.1310762
1012.90 0.1310334
1013.00 0.1309905
1013.10 0.1309477
1013.20 0.1309049
1013.30 0.1308621
1013.40 0.1308193
1013.50 0.1307766
1013.60 0.1307338
1013.70 0.1306911
1013.80 0.1306484
1013.90 0.1306056
1014.00 0.1305629
1014.10 0.1305203
1014.20 0.1304776
1014.30 0.1304349
1014.40 0.1303923
1014.50 0.1303497
1014.60 0.1303071
1014.70 0.1302645
1014.80 0.1302219
1014.90 0.1301793
1015.00 0.1301368
1015.10 0.1300942
1015.20 0.1300517
1015.30 0.1300092
1015.40 0.1299667
1015.50 0.1299242
1015.60 0.1298818
1015.70 0.1298393
1015.80 0.1297969
1015.90 0.1297544
1016.00 0.129712
1016.10 0.1296696
1016.20 0.1296273
1016.30 0.1295849
1016.40 0.1295425
1016.50 0.1295002
1016.60 0.1294579
1016.70 0.1294156
1016.80 0.1293733
1016.90 0.129331
1017.00 0.1292887
1017.10 0.1292464
1017.20 0.1292042
1017.30 0.129162
1017.40 0.1291198
1017.50 0.1290776
1017.60 0.1290354
1017.70 0.1289932
1017.80 0.1289511
1017.90 0.1289089
1018.00 0.1288668
1018.10 0.1288247
1018.20 0.1287826
1018.30 0.1287405
1018.40 0.1286984
1018.50 0.1286564
1018.60 0.1286143
1018.70 0.1285723
1018.80 0.1285303
1018.90 0.1284883
1019.00 0.1284463
1019.10 0.1284043
1019.20 0.1283623
1019.30 0.1283204
1019.40 0.1282785
1019.50 0.1282365
1019.60 0.1281946
1019.70 0.1281528
1019.80 0.1281109
1019.90 0.128069
1020.00 0.1280272
1020.10 0.1279853
1020.20 0.1279435
1020.30 0.1279017
1020.40 0.1278599
1020.50 0.1278181
1020.60 0.1277764
1020.70 0.1277346
1020.80 0.1276929
1020.90 0.1276512
1021.00 0.1276095
1021.10 0.1275678
1021.20 0.1275263
1021.30 0.1274848
1021.40 0.1274433
1021.50 0.1274018
1021.60 0.1273603
1021.70 0.1273189
1021.80 0.1272775
1021.90 0.127236
1022.00 0.1271946
1022.10 0.1271533
1022.20 0.1271119
1022.30 0.1270705
1022.40 0.1270292
1022.50 0.1269878
1022.60 0.1269465
1022.70 0.1269052
1022.80 0.1268639
1022.90 0.1268226
1023.00 0.1267814
1023.10 0.1267401
1023.20 0.1266989
1023.30 0.1266576
1023.40 0.1266164
1023.50 0.1265752
1023.60 0.126534
1023.70 0.1264929
1023.80 0.1264517
1023.90 0.1264106
1024.00 0.1263694
1024.10 0.1263283
1024.20 0.1262872
1024.30 0.1262461
1024.40 0.1262051
1024.50 0.126164
1024.60 0.126123
1024.70 0.1260819
1024.80 0.1260409
1024.90 0.1259999
1025.00 0.1259589
1025.10 0.1259179
1025.20 0.125877
1025.30 0.125836
1025.40 0.1257951
1025.50 0.1257541
1025.60 0.1257132
1025.70 0.1256723
1025.80 0.1256314
1025.90 0.1255906
1026.00 0.1255497
1026.10 0.1255089
1026.20 0.125468
1026.30 0.125428
1026.40 0.1253881
1026.50 0.1253481
1026.60 0.1253081
1026.70 0.1252682
1026.80 0.1252282
1026.90 0.1251883
1027.00 0.1251484
1027.10 0.1251085
1027.20 0.1250686
1027.30 0.1250288
1027.40 0.1249889
1027.50 0.1249491
1027.60 0.1249092
1027.70 0.1248694
1027.80 0.1248296
1027.90 0.1247898
1028.00 0.12475
1028.10 0.1247103
1028.20 0.1246705
1028.30 0.1246308
1028.40 0.1245911
1028.50 0.1245513
1028.60 0.1245116
1028.70 0.124472
1028.80 0.1244323
1028.90 0.1243926
1029.00 0.124353
1029.10 0.1243133
1029.20 0.1242737
1029.30 0.1242341
1029.40 0.1241945
1029.50 0.1241549
1029.60 0.1241154
1029.70 0.1240758
1029.80 0.1240363
1029.90 0.1239967
1030.00 0.1239572
1030.10 0.1239177
1030.20 0.1238782
1030.30 0.1238387
1030.40 0.1237993
1030.50 0.1237598
1030.60 0.1237204
1030.70 0.123681
1030.80 0.1236416
1030.90 0.1236022
1031.00 0.1235628
1031.10 0.1235234
1031.20 0.123484
1031.30 0.1234447
1031.40 0.1234047
1031.50 0.1233648
1031.60 0.1233248
1031.70 0.1232849
1031.80 0.1232449
1031.90 0.123205
1032.00 0.1231651
1032.10 0.1231252
1032.20 0.1230853
1032.30 0.1230455
1032.40 0.1230056
1032.50 0.1229658
1032.60 0.122926
1032.70 0.1228862
1032.80 0.1228464
1032.90 0.1228066
1033.00 0.1227668
1033.10 0.122727
1033.20 0.1226873
1033.30 0.1226476
1033.40 0.1226078
1033.50 0.1225681
1033.60 0.1225284
1033.70 0.1224888
1033.80 0.1224491
1033.90 0.1224094
1034.00 0.1223698
1034.10 0.1223302
1034.20 0.1222906
1034.30 0.122251
1034.40 0.1222114
1034.50 0.1221718
1034.60 0.1221322
1034.70 0.1220927
1034.80 0.1220531
1034.90 0.1220136
1035.00 0.1219741
1035.10 0.1219346
1035.20 0.1218951
1035.30 0.1218557
1035.40 0.1218162
1035.50 0.1217767
1035.60 0.1217373
1035.70 0.1216979
1035.80 0.1216585
1035.90 0.1216191
1036.00 0.1215797
1036.10 0.1215403
1036.20 0.121501
1036.30 0.1214616
1036.40 0.1214223
1036.50 0.1213833
1036.60 0.1213448
1036.70 0.1213063
1036.80 0.1212678
1036.90 0.1212293
1037.00 0.1211909
1037.10 0.1211524
1037.20 0.121114
1037.30 0.1210756
1037.40 0.1210372
1037.50 0.1209988
1037.60 0.1209604
1037.70 0.120922
1037.80 0.1208836
1037.90 0.1208453
1038.00 0.1208069
1038.10 0.1207686
1038.20 0.1207303
1038.30 0.120692
1038.40 0.1206537
1038.50 0.1206155
1038.60 0.1205772
1038.70 0.1205389
1038.80 0.1205007
1038.90 0.1204625
1039.00 0.1204243
1039.10 0.1203861
1039.20 0.1203479
1039.30 0.1203097
1039.40 0.1202715
1039.50 0.1202334
1039.60 0.1201953
1039.70 0.1201571
1039.80 0.120119
1039.90 0.1200809
1040.00 0.1200428
1040.10 0.1200048
1040.20 0.1199667
1040.30 0.1199287
1040.40 0.1198906
1040.50 0.1198526
1040.60 0.1198146
1040.70 0.1197766
1040.80 0.1197386
1040.90 0.1197006
1041.00 0.1196627
1041.10 0.1196247
1041.20 0.1195868
1041.30 0.1195488
1041.40 0.1195109
1041.50 0.119473
1041.60 0.1194351
1041.70 0.1193967
1041.80 0.1193582
1041.90 0.1193198
1042.00 0.1192813
1042.10 0.1192428
1042.20 0.1192044
1042.30 0.119166
1042.40 0.1191275
1042.50 0.1190891
1042.60 0.1190507
1042.70 0.1190124
1042.80 0.118974
1042.90 0.1189356
1043.00 0.1188973
1043.10 0.118859
1043.20 0.1188207
1043.30 0.1187824
1043.40 0.1187441
1043.50 0.1187058
1043.60 0.1186675
1043.70 0.1186293
1043.80 0.118591
1043.90 0.1185528
1044.00 0.1185146
1044.10 0.1184764
1044.20 0.1184382
1044.30 0.1184
1044.40 0.1183618
1044.50 0.1183237
1044.60 0.1182855
1044.70 0.1182474
1044.80 0.1182093
1044.90 0.1181712
1045.00 0.1181331
1045.10 0.118095
1045.20 0.1180569
1045.30 0.1180189
1045.40 0.1179808
1045.50 0.1179428
1045.60 0.1179048
1045.70 0.1178668
1045.80 0.1178288
1045.90 0.1177908
1046.00 0.1177528
1046.10 0.1177149
1046.20 0.1176769
1046.30 0.117639
1046.40 0.1176011
1046.50 0.1175632
1046.60 0.1175253
1046.70 0.1174874
1046.80 0.1174495
1046.90 0.1174122
1047.00 0.1173752
1047.10 0.1173381
1047.20 0.117301
1047.30 0.117264
1047.40 0.117227
1047.50 0.11719
1047.60 0.117153
1047.70 0.117116
1047.80 0.117079
1047.90 0.117042
1048.00 0.1170051
1048.10 0.1169681
1048.20 0.1169312
1048.30 0.1168943
1048.40 0.1168574
1048.50 0.1168205
1048.60 0.1167836
1048.70 0.1167467
1048.80 0.1167099
1048.90 0.116673
1049.00 0.1166362
1049.10 0.1165993
1049.20 0.1165625
1049.30 0.1165257
1049.40 0.1164889
1049.50 0.1164522
1049.60 0.1164154
1049.70 0.1163787
1049.80 0.1163419
1049.90 0.1163052
1050.00 0.1162685
1050.10 0.1162318
1050.20 0.1161951
1050.30 0.1161584
1050.40 0.1161217
1050.50 0.1160851
1050.60 0.1160484
1050.70 0.1160118
1050.80 0.1159752
1050.90 0.1159386
1051.00 0.115902
1051.10 0.1158654
1051.20 0.1158288
1051.30 0.1157922
1051.40 0.1157557
1051.50 0.1157191
1051.60 0.1156826
1051.70 0.1156461
1051.80 0.1156096
1051.90 0.1155731
1052.00 0.1155366
1052.10 0.1155
1052.20 0.1154633
1052.30 0.1154266
1052.40 0.11539
1052.50 0.1153533
1052.60 0.1153167
1052.70 0.11528
1052.80 0.1152434
1052.90 0.1152068
1053.00 0.1151702
1053.10 0.1151336
1053.20 0.1150971
1053.30 0.1150605
1053.40 0.115024
1053.50 0.1149874
1053.60 0.1149509
1053.70 0.1149144
1053.80 0.1148779
1053.90 0.1148414
1054.00 0.1148049
1054.10 0.1147685
1054.20 0.114732
1054.30 0.1146956
1054.40 0.1146591
1054.50 0.1146227
1054.60 0.1145863
1054.70 0.1145499
1054.80 0.1145135
1054.90 0.1144772
1055.00 0.1144408
1055.10 0.1144044
1055.20 0.1143681
1055.30 0.1143318
1055.40 0.1142955
1055.50 0.1142592
1055.60 0.1142229
1055.70 0.1141866
1055.80 0.1141503
1055.90 0.1141141
1056.00 0.1140778
1056.10 0.1140416
1056.20 0.1140054
1056.30 0.1139692
1056.40 0.113933
1056.50 0.1138968
1056.60 0.1138606
1056.70 0.1138245
1056.80 0.1137883
1056.90 0.1137522
1057.00 0.1137161
1057.10 0.11368
1057.20 0.1136438
1057.30 0.1136078
1057.40 0.1135717
1057.50 0.1135356
1057.60 0.1134996
1057.70 0.1134635
1057.80 0.1134275
1057.90 0.1133915
1058.00 0.1133554
1058.10 0.1133195
1058.20 0.1132835
1058.30 0.1132475
1058.40 0.1132115
1058.50 0.1131756
1058.60 0.1131396
1058.70 0.1131037
1058.80 0.1130678
1058.90 0.1130319
1059.00 0.112996
1059.10 0.1129601
1059.20 0.1129242
1059.30 0.1128884
1059.40 0.1128525
1059.50 0.1128167
1059.60 0.1127809
1059.70 0.1127451
1059.80 0.1127093
1059.90 0.1126735
1060.00 0.1126377
1060.10 0.1126019
1060.20 0.1125662
1060.30 0.1125304
1060.40 0.1124947
1060.50 0.112459
1060.60 0.1124233
1060.70 0.1123876
1060.80 0.1123519
1060.90 0.1123162
1061.00 0.1122805
1061.10 0.1122449
1061.20 0.1122092
1061.30 0.1121736
1061.40 0.112138
1061.50 0.1121024
1061.60 0.1120668
1061.70 0.1120312
1061.80 0.1119956
1061.90 0.1119601
1062.00 0.1119245
1062.10 0.111889
1062.20 0.1118535
1062.30 0.1118179
1062.40 0.1117824
1062.50 0.1117469
1062.60 0.1117117
1062.70 0.1116767
1062.80 0.1116418
1062.90 0.1116068
1063.00 0.1115719
1063.10 0.111537
1063.20 0.1115021
1063.30 0.1114672
1063.40 0.1114323
1063.50 0.1113975
1063.60 0.1113626
1063.70 0.1113277
1063.80 0.1112929
1063.90 0.1112581
1064.00 0.1112233
1064.10 0.1111885
1064.20 0.1111537
1064.30 0.1111189
1064.40 0.1110841
1064.50 0.1110494
1064.60 0.1110146
1064.70 0.1109799
1064.80 0.1109451
1064.90 0.1109104
1065.00 0.1108757
1065.10 0.110841
1065.20 0.1108063
1065.30 0.1107717
1065.40 0.110737
1065.50 0.1107024
1065.60 0.1106677
1065.70 0.1106331
1065.80 0.1105985
1065.90 0.1105639
1066.00 0.1105293
1066.10 0.1104947
1066.20 0.1104601
1066.30 0.1104256
1066.40 0.110391
1066.50 0.1103565
1066.60 0.110322
1066.70 0.1102874
1066.80 0.1102529
1066.90 0.1102184
1067.00 0.110184
1067.10 0.1101495
1067.20 0.110115
1067.30 0.1100806
1067.40 0.1100461
1067.50 0.1100117
1067.60 0.1099773
1067.70 0.1099429
1067.80 0.1099085
1067.90 0.1098741
1068.00 0.1098397
1068.10 0.1098053
1068.20 0.109771
1068.30 0.1097366
1068.40 0.1097023
1068.50 0.109668
1068.60 0.1096337
1068.70 0.1095994
1068.80 0.1095651
1068.90 0.1095308
1069.00 0.1094965
1069.10 0.1094623
1069.20 0.109428
1069.30 0.1093938
1069.40 0.1093596
1069.50 0.1093254
1069.60 0.1092912
1069.70 0.109257
1069.80 0.1092228
1069.90 0.1091886
1070.00 0.1091545
1070.10 0.1091203
1070.20 0.1090862
1070.30 0.1090521
1070.40 0.1090179
1070.50 0.1089838
1070.60 0.1089498
1070.70 0.1089157
1070.80 0.1088816
1070.90 0.1088475
1071.00 0.1088135
1071.10 0.1087794
1071.20 0.1087454
1071.30 0.1087114
1071.40 0.1086774
1071.50 0.1086434
1071.60 0.1086094
1071.70 0.1085754
1071.80 0.1085415
1071.90 0.1085075
1072.00 0.1084736
1072.10 0.1084396
1072.20 0.1084057
1072.30 0.1083718
1072.40 0.1083379
1072.50 0.108304
1072.60 0.1082702
1072.70 0.1082363
1072.80 0.1082024
1072.90 0.1081686
1073.00 0.1081347
1073.10 0.1081009
1073.20 0.1080671
1073.30 0.1080335
1073.40 0.1079998
1073.50 0.1079662
1073.60 0.1079325
1073.70 0.1078989
1073.80 0.1078653
1073.90 0.1078317
1074.00 0.1077981
1074.10 0.1077645
1074.20 0.107731
1074.30 0.1076974
1074.40 0.1076639
1074.50 0.1076303
1074.60 0.1075968
1074.70 0.1075633
1074.80 0.1075298
1074.90 0.1074963
1075.00 0.1074628
1075.10 0.1074293
1075.20 0.1073959
1075.30 0.1073624
1075.40 0.107329
1075.50 0.1072955
1075.60 0.1072621
1075.70 0.1072287
1075.80 0.1071953
1075.90 0.1071619
1076.00 0.1071285
1076.10 0.1070952
1076.20 0.1070618
1076.30 0.1070285
1076.40 0.1069951
1076.50 0.1069618
1076.60 0.1069285
1076.70 0.1068952
1076.80 0.1068619
1076.90 0.1068286
1077.00 0.1067953
1077.10 0.1067621
1077.20 0.1067288
1077.30 0.1066956
1077.40 0.1066624
1077.50 0.1066291
1077.60 0.1065959
1077.70 0.1065627
1077.80 0.1065295
1077.90 0.1064964
1078.00 0.1064632
1078.10 0.10643
1078.20 0.1063969
1078.30 0.1063637
1078.40 0.1063306
1078.50 0.1062975
1078.60 0.1062644
1078.70 0.1062313
1078.80 0.1061982
1078.90 0.1061651
1079.00 0.1061321
1079.10 0.106099
1079.20 0.106066
1079.30 0.106033
1079.40 0.1059999
1079.50 0.1059669
1079.60 0.1059339
1079.70 0.1059009
1079.80 0.105868
1079.90 0.105835
1080.00 0.105802
1080.10 0.1057691
1080.20 0.1057361
1080.30 0.1057032
1080.40 0.1056703
1080.50 0.1056374
1080.60 0.1056045
1080.70 0.1055716
1080.80 0.1055387
1080.90 0.1055059
1081.00 0.105473
1081.10 0.1054402
1081.20 0.1054073
1081.30 0.1053745
1081.40 0.1053417
1081.50 0.1053089
1081.60 0.1052761
1081.70 0.1052433
1081.80 0.1052105
1081.90 0.1051778
1082.00 0.105145
1082.10 0.1051123
1082.20 0.1050795
1082.30 0.1050468
1082.40 0.1050141
1082.50 0.1049814
1082.60 0.1049487
1082.70 0.104916
1082.80 0.1048834
1082.90 0.1048507
1083.00 0.1048181
1083.10 0.1047854
1083.20 0.1047528
1083.30 0.1047202
1083.40 0.1046876
1083.50 0.104655
1083.60 0.1046224
1083.70 0.1045898
1083.80 0.1045572
1083.90 0.1045247
1084.00 0.1044922
1084.10 0.1044598
1084.20 0.1044275
1084.30 0.1043951
1084.40 0.1043627
1084.50 0.1043303
1084.60 0.104298
1084.70 0.1042656
1084.80 0.1042333
1084.90 0.104201
1085.00 0.1041687
1085.10 0.1041364
1085.20 0.1041041
1085.30 0.1040718
1085.40 0.1040395
1085.50 0.1040072
1085.60 0.103975
1085.70 0.1039428
1085.80 0.1039105
1085.90 0.1038783
1086.00 0.1038461
1086.10 0.1038139
1086.20 0.1037817
1086.30 0.1037495
1086.40 0.1037173
1086.50 0.1036852
1086.60 0.103653
1086.70 0.1036209
1086.80 0.1035888
1086.90 0.1035566
1087.00 0.1035245
1087.10 0.1034924
1087.20 0.1034603
1087.30 0.1034283
1087.40 0.1033962
1087.50 0.1033641
1087.60 0.1033321
1087.70 0.1033
1087.80 0.103268
1087.90 0.103236
1088.00 0.103204
1088.10 0.103172
1088.20 0.10314
1088.30 0.103108
1088.40 0.103076
1088.50 0.1030441
1088.60 0.1030121
1088.70 0.1029802
1088.80 0.1029482
1088.90 0.1029163
1089.00 0.1028844
1089.10 0.1028525
1089.20 0.1028206
1089.30 0.1027887
1089.40 0.1027569
1089.50 0.102725
1089.60 0.1026932
1089.70 0.1026613
1089.80 0.1026295
1089.90 0.1025977
1090.00 0.1025658
1090.10 0.102534
1090.20 0.1025022
1090.30 0.1024705
1090.40 0.1024387
1090.50 0.1024069
1090.60 0.1023752
1090.70 0.1023434
1090.80 0.1023117
1090.90 0.10228
1091.00 0.1022483
1091.10 0.1022166
1091.20 0.1021849
1091.30 0.1021532
1091.40 0.1021215
1091.50 0.1020898
1091.60 0.1020582
1091.70 0.1020265
1091.80 0.1019949
1091.90 0.1019633
1092.00 0.1019317
1092.10 0.1019001
1092.20 0.1018685
1092.30 0.1018369
1092.40 0.1018053
1092.50 0.1017737
1092.60 0.1017422
1092.70 0.1017106
1092.80 0.1016791
1092.90 0.1016476
1093.00 0.1016161
1093.10 0.1015845
1093.20 0.1015531
1093.30 0.1015216
1093.40 0.1014901
1093.50 0.1014586
1093.60 0.1014272
1093.70 0.1013957
1093.80 0.1013643
1093.90 0.1013328
1094.00 0.1013014
1094.10 0.10127
1094.20 0.1012386
1094.30 0.1012072
1094.40 0.1011759
1094.50 0.1011445
1094.60 0.1011131
1094.70 0.1010818
1094.80 0.1010507
1094.90 0.1010198
1095.00 0.1009889
1095.10 0.1009581
1095.20 0.1009273
1095.30 0.1008964
1095.40 0.1008656
1095.50 0.1008348
1095.60 0.100804
1095.70 0.1007732
1095.80 0.1007424
1095.90 0.1007117
1096.00 0.1006809
1096.10 0.1006502
1096.20 0.1006194
1096.30 0.1005887
1096.40 0.100558
1096.50 0.1005273
1096.60 0.1004965
1096.70 0.1004659
1096.80 0.1004352
1096.90 0.1004045
1097.00 0.1003738
1097.10 0.1003432
1097.20 0.1003125
1097.30 0.1002819
1097.40 0.1002513
1097.50 0.1002206
1097.60 0.10019
1097.70 0.1001594
1097.80 0.1001289
1097.90 0.1000983
1098.00 0.1000677
1098.10 0.1000371
1098.20 0.1000066
1098.30 0.09997605
1098.40 0.09994552
1098.50 0.099915
1098.60 0.09988448
1098.70 0.09985398
1098.80 0.09982348
1098.90 0.099793
1099.00 0.09976252
1099.10 0.09973206
1099.20 0.0997016
1099.30 0.09967115
1099.40 0.09964072
1099.50 0.09961029
1099.60 0.09957987
1099.70 0.09954946
1099.80 0.09951906
1099.90 0.09948867
1100.00 0.09945829
1100.10 0.09942791
1100.20 0.09939755
1100.30 0.0993672
1100.40 0.09933686
1100.50 0.09930652
1100.60 0.0992762
1100.70 0.09924588
1100.80 0.09921557
1100.90 0.09918528
1101.00 0.09915499
1101.10 0.09912471
1101.20 0.09909444
1101.30 0.09906418
1101.40 0.09903393
1101.50 0.09900369
1101.60 0.09897346
1101.70 0.09894324
1101.80 0.09891303
1101.90 0.09888282
1102.00 0.09885263
1102.10 0.09882244
1102.20 0.09879227
1102.30 0.0987621
1102.40 0.09873195
1102.50 0.0987018
1102.60 0.09867166
1102.70 0.09864153
1102.80 0.09861141
1102.90 0.0985813
1103.00 0.0985512
1103.10 0.09852111
1103.20 0.09849103
1103.30 0.09846096
1103.40 0.09843089
1103.50 0.09840084
1103.60 0.09837079
1103.70 0.09834076
1103.80 0.09831073
1103.90 0.09828071
1104.00 0.0982507
1104.10 0.09822071
1104.20 0.09819072
1104.30 0.09816074
1104.40 0.09813076
1104.50 0.0981008
1104.60 0.09807085
1104.70 0.09804091
1104.80 0.09801097
1104.90 0.09798105
1105.00 0.09795113
1105.10 0.09792123
1105.20 0.09789133
1105.30 0.09786144
1105.40 0.09783156
1105.50 0.09780169
1105.60 0.09777183
1105.70 0.09774198
1105.80 0.09771193
1105.90 0.09768189
1106.00 0.09765186
1106.10 0.09762184
1106.20 0.09759183
1106.30 0.09756183
1106.40 0.09753184
1106.50 0.09750186
1106.60 0.09747188
1106.70 0.09744192
1106.80 0.09741196
1106.90 0.09738202
1107.00 0.09735208
1107.10 0.09732215
1107.20 0.09729224
1107.30 0.09726233
1107.40 0.09723243
1107.50 0.09720254
1107.60 0.09717266
1107.70 0.09714278
1107.80 0.09711292
1107.90 0.09708307
1108.00 0.09705322
1108.10 0.09702339
1108.20 0.09699356
1108.30 0.09696374
1108.40 0.09693394
1108.50 0.09690414
1108.60 0.09687435
1108.70 0.09684457
1108.80 0.0968148
1108.90 0.09678504
1109.00 0.09675528
1109.10 0.09672554
1109.20 0.0966958
1109.30 0.09666608
1109.40 0.09663636
1109.50 0.09660666
1109.60 0.09657696
1109.70 0.09654727
1109.80 0.09651759
1109.90 0.09648792
1110.00 0.09645826
1110.10 0.09642861
1110.20 0.09639896
1110.30 0.09636933
1110.40 0.0963397
1110.50 0.09631009
1110.60 0.09628048
1110.70 0.09625089
1110.80 0.0962213
1110.90 0.09619172
1111.00 0.09616215
1111.10 0.09613259
1111.20 0.09610303
1111.30 0.09607349
1111.40 0.09604396
1111.50 0.09601443
1111.60 0.09598492
1111.70 0.09595541
1111.80 0.09592591
1111.90 0.09589642
1112.00 0.09586694
1112.10 0.09583747
1112.20 0.09580801
1112.30 0.09577856
1112.40 0.09574912
1112.50 0.09571968
1112.60 0.09569026
1112.70 0.09566084
1112.80 0.09563143
1112.90 0.09560204
1113.00 0.09557265
1113.10 0.09554327
1113.20 0.09551389
1113.30 0.09548453
1113.40 0.09545518
1113.50 0.09542584
1113.60 0.0953965
1113.70 0.09536717
1113.80 0.09533786
1113.90 0.09530855
1114.00 0.09527925
1114.10 0.09524996
1114.20 0.09522068
1114.30 0.09519141
1114.40 0.09516214
1114.50 0.09513289
1114.60 0.09510364
1114.70 0.09507441
1114.80 0.09504518
1114.90 0.09501596
1115.00 0.09498675
1115.10 0.09495755
1115.20 0.09492836
1115.30 0.09489918
1115.40 0.09487
1115.50 0.09484084
1115.60 0.09481168
1115.70 0.09478254
1115.80 0.0947534
1115.90 0.09472427
1116.00 0.09469515
1116.10 0.09466604
1116.20 0.09463694
1116.30 0.09460784
1116.40 0.09457876
1116.50 0.09454968
1116.60 0.09452062
1116.70 0.09449156
1116.80 0.09446285
1116.90 0.09443456
1117.00 0.09440628
1117.10 0.09437801
1117.20 0.09434975
1117.30 0.09432149
1117.40 0.09429325
1117.50 0.09426501
1117.60 0.09423679
1117.70 0.09420857
1117.80 0.09418036
1117.90 0.09415216
1118.00 0.09412396
1118.10 0.09409578
1118.20 0.0940676
1118.30 0.09403943
1118.40 0.09401128
1118.50 0.09398313
1118.60 0.09395498
1118.70 0.09392685
1118.80 0.09389873
1118.90 0.09387061
1119.00 0.0938425
1119.10 0.0938144
1119.20 0.09378631
1119.30 0.09375823
1119.40 0.09373016
1119.50 0.09370209
1119.60 0.09367404
1119.70 0.09364599
1119.80 0.09361795
1119.90 0.09358992
1120.00 0.0935619
1120.10 0.09353388
1120.20 0.09350588
1120.30 0.09347788
1120.40 0.09344989
1120.50 0.09342191
1120.60 0.09339394
1120.70 0.09336598
1120.80 0.09333803
1120.90 0.09331008
1121.00 0.09328214
1121.10 0.09325422
1121.20 0.0932263
1121.30 0.09319838
1121.40 0.09317048
1121.50 0.09314259
1121.60 0.0931147
1121.70 0.09308682
1121.80 0.09305895
1121.90 0.09303109
1122.00 0.09300324
1122.10 0.09297539
1122.20 0.09294756
1122.30 0.09291973
1122.40 0.09289191
1122.50 0.0928641
1122.60 0.0928363
1122.70 0.0928085
1122.80 0.09278071
1122.90 0.09275294
1123.00 0.09272517
1123.10 0.0926974
1123.20 0.09266965
1123.30 0.09264191
1123.40 0.09261417
1123.50 0.09258644
1123.60 0.09255872
1123.70 0.09253101
1123.80 0.09250331
1123.90 0.09247561
1124.00 0.09244793
1124.10 0.09242025
1124.20 0.09239258
1124.30 0.09236492
1124.40 0.09233727
1124.50 0.09230962
1124.60 0.09228199
1124.70 0.09225436
1124.80 0.09222674
1124.90 0.09219913
1125.00 0.09217153
1125.10 0.09214393
1125.20 0.09211635
1125.30 0.09208877
1125.40 0.0920612
1125.50 0.09203364
1125.60 0.09200609
1125.70 0.09197854
1125.80 0.09195101
1125.90 0.09192348
1126.00 0.09189596
1126.10 0.09186845
1126.20 0.09184095
1126.30 0.09181346
1126.40 0.09178597
1126.50 0.09175849
1126.60 0.09173102
1126.70 0.09170356
1126.80 0.09167611
1126.90 0.09164867
1127.00 0.09162123
1127.10 0.0915938
1127.20 0.09156638
1127.30 0.09153897
1127.40 0.09151157
1127.50 0.09148418
1127.60 0.09145679
1127.70 0.09142941
1127.80 0.09140204
1127.90 0.09137468
1128.00 0.09134718
1128.10 0.09131964
1128.20 0.09129211
1128.30 0.09126459
1128.40 0.09123707
1128.50 0.09120957
1128.60 0.09118207
1128.70 0.09115458
1128.80 0.0911271
1128.90 0.09109963
1129.00 0.09107217
1129.10 0.09104471
1129.20 0.09101726
1129.30 0.09098982
1129.40 0.09096239
1129.50 0.09093497
1129.60 0.09090756
1129.70 0.09088015
1129.80 0.09085275
1129.90 0.09082536
1130.00 0.09079798
1130.10 0.09077061
1130.20 0.09074325
1130.30 0.09071589
1130.40 0.09068854
1130.50 0.0906612
1130.60 0.09063387
1130.70 0.09060655
1130.80 0.09057923
1130.90 0.09055193
1131.00 0.09052463
1131.10 0.09049734
1131.20 0.09047006
1131.30 0.09044278
1131.40 0.09041552
1131.50 0.09038826
1131.60 0.09036101
1131.70 0.09033377
1131.80 0.09030654
1131.90 0.09027931
1132.00 0.0902521
1132.10 0.09022489
1132.20 0.09019769
1132.30 0.0901705
1132.40 0.09014331
1132.50 0.09011614
1132.60 0.09008897
1132.70 0.09006181
1132.80 0.09003466
1132.90 0.09000752
1133.00 0.08998039
1133.10 0.08995326
1133.20 0.08992614
1133.30 0.08989903
1133.40 0.08987193
1133.50 0.08984484
1133.60 0.08981775
1133.70 0.08979068
1133.80 0.08976361
1133.90 0.08973655
1134.00 0.08970949
1134.10 0.08968245
1134.20 0.08965541
1134.30 0.08962838
1134.40 0.08960136
1134.50 0.08957435
1134.60 0.08954735
1134.70 0.08952035
1134.80 0.08949337
1134.90 0.08946639
1135.00 0.08943942
1135.10 0.08941245
1135.20 0.0893855
1135.30 0.08935855
1135.40 0.08933161
1135.50 0.08930468
1135.60 0.08927776
1135.70 0.08925084
1135.80 0.08922394
1135.90 0.08919704
1136.00 0.08917015
1136.10 0.08914327
1136.20 0.08911639
1136.30 0.08908953
1136.40 0.08906267
1136.50 0.08903582
1136.60 0.08900898
1136.70 0.08898214
1136.80 0.08895532
1136.90 0.0889285
1137.00 0.08890169
1137.10 0.08887489
1137.20 0.0888481
1137.30 0.08882131
1137.40 0.08879453
1137.50 0.08876776
1137.60 0.088741
1137.70 0.08871425
1137.80 0.0886875
1137.90 0.08866077
1138.00 0.08863404
1138.10 0.08860732
1138.20 0.0885806
1138.30 0.0885539
1138.40 0.0885272
1138.50 0.08850051
1138.60 0.08847383
1138.70 0.08844716
1138.80 0.08842049
1138.90 0.08839384
1139.00 0.08836719
1139.10 0.08834055
1139.20 0.08831391
1139.30 0.08828769
1139.40 0.08826148
1139.50 0.08823527
1139.60 0.08820908
1139.70 0.08818289
1139.80 0.08815671
1139.90 0.08813054
1140.00 0.08810438
1140.10 0.08807822
1140.20 0.08805208
1140.30 0.08802594
1140.40 0.08799981
1140.50 0.08797368
1140.60 0.08794756
1140.70 0.08792146
1140.80 0.08789536
1140.90 0.08786926
1141.00 0.08784318
1141.10 0.0878171
1141.20 0.08779103
1141.30 0.08776497
1141.40 0.08773892
1141.50 0.08771287
1141.60 0.08768683
1141.70 0.0876608
1141.80 0.08763478
1141.90 0.08760876
1142.00 0.08758275
1142.10 0.08755676
1142.20 0.08753076
1142.30 0.08750478
1142.40 0.0874788
1142.50 0.08745283
1142.60 0.08742687
1142.70 0.08740092
1142.80 0.08737498
1142.90 0.08734904
1143.00 0.08732311
1143.10 0.08729719
1143.20 0.08727127
1143.30 0.08724537
1143.40 0.08721947
1143.50 0.08719358
1143.60 0.08716769
1143.70 0.08714182
1143.80 0.08711595
1143.90 0.08709009
1144.00 0.08706424
1144.10 0.08703839
1144.20 0.08701255
1144.30 0.08698672
1144.40 0.0869609
1144.50 0.08693509
1144.60 0.08690928
1144.70 0.08688348
1144.80 0.08685769
1144.90 0.08683191
1145.00 0.08680613
1145.10 0.08678037
1145.20 0.08675461
1145.30 0.08672885
1145.40 0.08670311
1145.50 0.08667737
1145.60 0.08665164
1145.70 0.08662592
1145.80 0.08660021
1145.90 0.0865745
1146.00 0.0865488
1146.10 0.08652311
1146.20 0.08649743
1146.30 0.08647175
1146.40 0.08644608
1146.50 0.08642042
1146.60 0.08639477
1146.70 0.08636912
1146.80 0.08634348
1146.90 0.08631785
1147.00 0.08629223
1147.10 0.08626662
1147.20 0.08624101
1147.30 0.08621541
1147.40 0.08618982
1147.50 0.08616423
1147.60 0.08613866
1147.70 0.08611309
1147.80 0.08608753
1147.90 0.08606197
1148.00 0.08603642
1148.10 0.08601089
1148.20 0.08598535
1148.30 0.08595983
1148.40 0.08593431
1148.50 0.08590881
1148.60 0.08588331
1148.70 0.08585781
1148.80 0.08583233
1148.90 0.08580685
1149.00 0.08578138
1149.10 0.08575591
1149.20 0.08573046
1149.30 0.08570501
1149.40 0.08567957
1149.50 0.08565414
1149.60 0.08562871
1149.70 0.08560329
1149.80 0.08557788
1149.90 0.08555248
1150.00 0.08552709
1150.10 0.0855017
1150.20 0.08547632
1150.30 0.08545095
1150.40 0.08542558
1150.50 0.08540022
1150.60 0.08537488
1150.70 0.08534964
1150.80 0.08532441
1150.90 0.08529918
1151.00 0.08527397
1151.10 0.08524875
1151.20 0.08522355
1151.30 0.08519836
1151.40 0.08517317
1151.50 0.08514799
1151.60 0.08512282
1151.70 0.08509765
1151.80 0.08507249
1151.90 0.08504734
1152.00 0.0850222
1152.10 0.08499706
1152.20 0.08497194
1152.30 0.08494681
1152.40 0.0849217
1152.50 0.0848966
1152.60 0.0848715
1152.70 0.08484641
1152.80 0.08482132
1152.90 0.08479625
1153.00 0.08477118
1153.10 0.08474612
1153.20 0.08472106
1153.30 0.08469602
1153.40 0.08467098
1153.50 0.08464595
1153.60 0.08462092
1153.70 0.0845959
1153.80 0.08457089
1153.90 0.08454589
1154.00 0.0845209
1154.10 0.08449591
1154.20 0.08447093
1154.30 0.08444596
1154.40 0.08442099
1154.50 0.08439604
1154.60 0.08437109
1154.70 0.08434614
1154.80 0.08432121
1154.90 0.08429628
1155.00 0.08427136
1155.10 0.08424644
1155.20 0.08422154
1155.30 0.08419664
1155.40 0.08417175
1155.50 0.08414686
1155.60 0.08412199
1155.70 0.08409712
1155.80 0.08407226
1155.90 0.0840474
1156.00 0.08402255
1156.10 0.08399772
1156.20 0.08397288
1156.30 0.08394806
1156.40 0.08392324
1156.50 0.08389843
1156.60 0.08387363
1156.70 0.08384884
1156.80 0.08382406
1156.90 0.08379928
1157.00 0.08377451
1157.10 0.08374975
1157.20 0.08372499
1157.30 0.08370024
1157.40 0.0836755
1157.50 0.08365077
1157.60 0.08362604
1157.70 0.08360132
1157.80 0.08357661
1157.90 0.0835519
1158.00 0.08352721
1158.10 0.08350252
1158.20 0.08347783
1158.30 0.08345316
1158.40 0.08342849
1158.50 0.08340383
1158.60 0.08337917
1158.70 0.08335453
1158.80 0.08332989
1158.90 0.08330526
1159.00 0.08328063
1159.10 0.08325601
1159.20 0.0832314
1159.30 0.0832068
1159.40 0.08318221
1159.50 0.08315762
1159.60 0.08313304
1159.70 0.08310846
1159.80 0.0830839
1159.90 0.08305934
1160.00 0.08303478
1160.10 0.08301024
1160.20 0.0829857
1160.30 0.08296117
1160.40 0.08293665
1160.50 0.08291213
1160.60 0.08288762
1160.70 0.08286312
1160.80 0.08283863
1160.90 0.08281414
1161.00 0.08278966
1161.10 0.08276519
1161.20 0.08274072
1161.30 0.08271626
1161.40 0.08269181
1161.50 0.08266737
1161.60 0.08264293
1161.70 0.0826185
1161.80 0.08259408
1161.90 0.08256966
1162.00 0.08254525
1162.10 0.08252085
1162.20 0.08249656
1162.30 0.08247227
1162.40 0.08244799
1162.50 0.08242371
1162.60 0.08239945
1162.70 0.08237519
1162.80 0.08235093
1162.90 0.08232669
1163.00 0.08230245
1163.10 0.08227822
1163.20 0.08225399
1163.30 0.08222978
1163.40 0.08220557
1163.50 0.08218136
1163.60 0.08215717
1163.70 0.08213298
1163.80 0.0821088
1163.90 0.08208462
1164.00 0.08206046
1164.10 0.08203629
1164.20 0.08201214
1164.30 0.081988
1164.40 0.08196386
1164.50 0.08193972
1164.60 0.0819156
1164.70 0.08189148
1164.80 0.08186737
1164.90 0.08184327
1165.00 0.08181917
1165.10 0.08179508
1165.20 0.081771
1165.30 0.08174692
1165.40 0.08172285
1165.50 0.08169879
1165.60 0.08167474
1165.70 0.08165069
1165.80 0.08162665
1165.90 0.08160262
1166.00 0.08157859
1166.10 0.08155457
1166.20 0.08153056
1166.30 0.08150656
1166.40 0.08148256
1166.50 0.08145857
1166.60 0.08143458
1166.70 0.08141061
1166.80 0.08138664
1166.90 0.08136267
1167.00 0.08133872
1167.10 0.08131477
1167.20 0.08129083
1167.30 0.08126689
1167.40 0.08124297
1167.50 0.08121904
1167.60 0.08119513
1167.70 0.08117122
1167.80 0.08114732
1167.90 0.08112343
1168.00 0.08109955
1168.10 0.08107567
1168.20 0.0810518
1168.30 0.08102794
1168.40 0.08100408
1168.50 0.08098023
1168.60 0.08095639
1168.70 0.08093255
1168.80 0.08090873
1168.90 0.08088491
1169.00 0.08086109
1169.10 0.08083728
1169.20 0.08081348
1169.30 0.08078969
1169.40 0.0807659
1169.50 0.08074212
1169.60 0.08071835
1169.70 0.08069459
1169.80 0.08067083
1169.90 0.08064708
1170.00 0.08062333
1170.10 0.08059959
1170.20 0.08057586
1170.30 0.08055214
1170.40 0.08052842
1170.50 0.08050471
1170.60 0.08048101
1170.70 0.08045731
1170.80 0.08043362
1170.90 0.08040994
1171.00 0.08038627
1171.10 0.0803626
1171.20 0.08033894
1171.30 0.08031528
1171.40 0.08029163
1171.50 0.08026799
1171.60 0.08024436
1171.70 0.08022073
1171.80 0.08019711
1171.90 0.0801735
1172.00 0.08014989
1172.10 0.08012629
1172.20 0.0801027
1172.30 0.08007911
1172.40 0.08005553
1172.50 0.08003196
1172.60 0.0800084
1172.70 0.07998484
1172.80 0.07996129
1172.90 0.07993774
1173.00 0.0799142
1173.10 0.07989067
1173.20 0.07986715
1173.30 0.07984363
1173.40 0.07982012
1173.50 0.07979662
1173.60 0.07977312
1173.70 0.07974963
1173.80 0.07972623
1173.90 0.07970285
1174.00 0.07967947
1174.10 0.07965611
1174.20 0.07963275
1174.30 0.0796094
1174.40 0.07958605
1174.50 0.07956271
1174.60 0.07953938
1174.70 0.07951605
1174.80 0.07949273
1174.90 0.07946942
1175.00 0.07944612
1175.10 0.07942282
1175.20 0.07939953
1175.30 0.07937624
1175.40 0.07935296
1175.50 0.07932969
1175.60 0.07930643
1175.70 0.07928317
1175.80 0.07925992
1175.90 0.07923668
1176.00 0.07921344
1176.10 0.07919021
1176.20 0.07916698
1176.30 0.07914377
1176.40 0.07912056
1176.50 0.07909735
1176.60 0.07907416
1176.70 0.07905097
1176.80 0.07902778
1176.90 0.07900461
1177.00 0.07898144
1177.10 0.07895827
1177.20 0.07893512
1177.30 0.07891197
1177.40 0.07888882
1177.50 0.07886569
1177.60 0.07884256
1177.70 0.07881943
1177.80 0.07879632
1177.90 0.07877321
1178.00 0.07875011
1178.10 0.07872701
1178.20 0.07870392
1178.30 0.07868084
1178.40 0.07865776
1178.50 0.07863469
1178.60 0.07861163
1178.70 0.07858857
1178.80 0.07856553
1178.90 0.07854248
1179.00 0.07851945
1179.10 0.07849642
1179.20 0.0784734
1179.30 0.07845038
1179.40 0.07842737
1179.50 0.07840437
1179.60 0.07838143
1179.70 0.07835898
1179.80 0.07833654
1179.90 0.07831411
1180.00 0.07829168
1180.10 0.07826925
1180.20 0.07824684
1180.30 0.07822443
1180.40 0.07820203
1180.50 0.07817963
1180.60 0.07815724
1180.70 0.07813485
1180.80 0.07811248
1180.90 0.07809011
1181.00 0.07806774
1181.10 0.07804538
1181.20 0.07802303
1181.30 0.07800069
1181.40 0.07797835
1181.50 0.07795602
1181.60 0.07793369
1181.70 0.07791137
1181.80 0.07788906
1181.90 0.07786675
1182.00 0.07784445
1182.10 0.07782216
1182.20 0.07779987
1182.30 0.07777759
1182.40 0.07775532
1182.50 0.07773305
1182.60 0.07771079
1182.70 0.07768853
1182.80 0.07766628
1182.90 0.07764404
1183.00 0.07762181
1183.10 0.07759958
1183.20 0.07757735
1183.30 0.07755514
1183.40 0.07753293
1183.50 0.07751072
1183.60 0.07748853
1183.70 0.07746634
1183.80 0.07744415
1183.90 0.07742197
1184.00 0.0773998
1184.10 0.07737764
1184.20 0.07735548
1184.30 0.07733332
1184.40 0.07731118
1184.50 0.07728904
1184.60 0.07726691
1184.70 0.07724478
1184.80 0.07722266
1184.90 0.07720054
1185.00 0.07717843
1185.10 0.07715633
1185.20 0.07713424
1185.30 0.07711215
1185.40 0.07709007
1185.50 0.07706781
1185.60 0.0770453
1185.70 0.07702279
1185.80 0.0770003
1185.90 0.07697781
1186.00 0.07695532
1186.10 0.07693285
1186.20 0.07691038
1186.30 0.07688791
1186.40 0.07686545
1186.50 0.076843
1186.60 0.07682056
1186.70 0.07679812
1186.80 0.07677569
1186.90 0.07675326
1187.00 0.07673085
1187.10 0.07670843
1187.20 0.07668603
1187.30 0.07666363
1187.40 0.07664124
1187.50 0.07661885
1187.60 0.07659647
1187.70 0.0765741
1187.80 0.07655173
1187.90 0.07652937
1188.00 0.07650701
1188.10 0.07648467
1188.20 0.07646233
1188.30 0.07643999
1188.40 0.07641766
1188.50 0.07639534
1188.60 0.07637303
1188.70 0.07635072
1188.80 0.07632841
1188.90 0.07630612
1189.00 0.07628383
1189.10 0.07626154
1189.20 0.07623927
1189.30 0.076217
1189.40 0.07619473
1189.50 0.07617247
1189.60 0.07615022
1189.70 0.07612798
1189.80 0.07610574
1189.90 0.07608351
1190.00 0.07606128
1190.10 0.07603906
1190.20 0.07601685
1190.30 0.07599464
1190.40 0.07597244
1190.50 0.07595025
1190.60 0.07592806
1190.70 0.07590588
1190.80 0.07588371
1190.90 0.07586154
1191.00 0.07583938
1191.10 0.07581722
1191.20 0.07579507
1191.30 0.07577293
1191.40 0.07575087
1191.50 0.07572926
1191.60 0.07570766
1191.70 0.07568607
1191.80 0.07566448
1191.90 0.0756429
1192.00 0.07562132
1192.10 0.07559975
1192.20 0.07557819
1192.30 0.07555663
1192.40 0.07553508
1192.50 0.07551353
1192.60 0.075492
1192.70 0.07547046
1192.80 0.07544894
1192.90 0.07542742
1193.00 0.0754059
1193.10 0.07538439
1193.20 0.07536289
1193.30 0.07534139
1193.40 0.0753199
1193.50 0.07529842
1193.60 0.07527694
1193.70 0.07525547
1193.80 0.07523401
1193.90 0.07521255
1194.00 0.0751911
1194.10 0.07516965
1194.20 0.07514821
1194.30 0.07512677
1194.40 0.07510534
1194.50 0.07508392
1194.60 0.07506251
1194.70 0.0750411
1194.80 0.07501969
1194.90 0.07499829
1195.00 0.0749769
1195.10 0.07495552
1195.20 0.07493414
1195.30 0.07491276
1195.40 0.0748914
1195.50 0.07487004
1195.60 0.07484868
1195.70 0.07482733
1195.80 0.07480599
1195.90 0.07478465
1196.00 0.07476332
1196.10 0.074742
1196.20 0.07472068
1196.30 0.07469936
1196.40 0.07467806
1196.50 0.07465676
1196.60 0.07463546
1196.70 0.07461418
1196.80 0.07459289
1196.90 0.07457162
1197.00 0.07455035
1197.10 0.07452908
1197.20 0.07450783
1197.30 0.07448657
1197.40 0.07446541
1197.50 0.07444425
1197.60 0.07442311
1197.70 0.07440197
1197.80 0.07438084
1197.90 0.07435971
1198.00 0.07433859
1198.10 0.07431747
1198.20 0.07429636
1198.30 0.07427526
1198.40 0.07425416
1198.50 0.07423307
1198.60 0.07421199
1198.70 0.07419091
1198.80 0.07416983
1198.90 0.07414877
1199.00 0.0741277
1199.10 0.07410665
1199.20 0.0740856
1199.30 0.07406456
1199.40 0.07404352
1199.50 0.07402249
1199.60 0.07400146
1199.70 0.07398044
1199.80 0.07395943
1199.90 0.07393842
1200.00 0.07391742
