# Version 2.1 - nm, norm@500 to 1, cut digits, bergeron_He_7500_85.dat_7500
# Wavelength(nm)  Flambda(ergs/cm^s/s/nm)
300.00 1.155645
300.10 1.156036
300.20 1.156429
300.30 1.15682
300.40 1.157198
300.50 1.157575
300.60 1.157952
300.70 1.158328
300.80 1.158703
300.90 1.159078
301.00 1.159451
301.10 1.159824
301.20 1.160197
301.30 1.160568
301.40 1.160939
301.50 1.161309
301.60 1.161678
301.70 1.162046
301.80 1.162414
301.90 1.162781
302.00 1.163147
302.10 1.163509
302.20 1.163869
302.30 1.164228
302.40 1.164587
302.50 1.164945
302.60 1.165302
302.70 1.165658
302.80 1.166014
302.90 1.166369
303.00 1.166723
303.10 1.167077
303.20 1.16743
303.30 1.167781
303.40 1.168123
303.50 1.168464
303.60 1.168804
303.70 1.169144
303.80 1.169483
303.90 1.169822
304.00 1.170159
304.10 1.170496
304.20 1.170833
304.30 1.171168
304.40 1.171503
304.50 1.171838
304.60 1.17218
304.70 1.172524
304.80 1.172866
304.90 1.173208
305.00 1.173549
305.10 1.173889
305.20 1.174229
305.30 1.174568
305.40 1.174906
305.50 1.175244
305.60 1.175581
305.70 1.175917
305.80 1.176252
305.90 1.176587
306.00 1.176921
306.10 1.177255
306.20 1.177587
306.30 1.17792
306.40 1.178244
306.50 1.178566
306.60 1.178887
306.70 1.179208
306.80 1.179528
306.90 1.179847
307.00 1.180166
307.10 1.180484
307.20 1.180801
307.30 1.181117
307.40 1.181433
307.50 1.181748
307.60 1.182063
307.70 1.182377
307.80 1.18269
307.90 1.183003
308.00 1.183315
308.10 1.183626
308.20 1.183937
308.30 1.184247
308.40 1.184556
308.50 1.184865
308.60 1.185173
308.70 1.18548
308.80 1.185791
308.90 1.186109
309.00 1.186437
309.10 1.186763
309.20 1.187089
309.30 1.187414
309.40 1.187736
309.50 1.188035
309.60 1.188334
309.70 1.188632
309.80 1.188929
309.90 1.189226
310.00 1.189522
310.10 1.189817
310.20 1.190112
310.30 1.190407
310.40 1.190706
310.50 1.191011
310.60 1.191315
310.70 1.191618
310.80 1.191921
310.90 1.192223
311.00 1.1925
311.10 1.192776
311.20 1.193051
311.30 1.19333
311.40 1.193622
311.50 1.193912
311.60 1.194202
311.70 1.194491
311.80 1.19478
311.90 1.195068
312.00 1.195355
312.10 1.195642
312.20 1.195941
312.30 1.196259
312.40 1.196567
312.50 1.19676
312.60 1.197073
312.70 1.197385
312.80 1.197696
312.90 1.197979
313.00 1.198232
313.10 1.198484
313.20 1.198736
313.30 1.198993
313.40 1.199266
313.50 1.199539
313.60 1.199811
313.70 1.200082
313.80 1.200353
313.90 1.200623
314.00 1.200893
314.10 1.201174
314.20 1.201454
314.30 1.201734
314.40 1.202013
314.50 1.202292
314.60 1.202569
314.70 1.202847
314.80 1.203097
314.90 1.203343
315.00 1.203667
315.10 1.203926
315.20 1.204185
315.30 1.204443
315.40 1.204701
315.50 1.204959
315.60 1.205215
315.70 1.205471
315.80 1.205727
315.90 1.205982
316.00 1.206236
316.10 1.20649
316.20 1.206743
316.30 1.207068
316.40 1.207248
316.50 1.207572
316.60 1.207751
316.70 1.208001
316.80 1.208251
316.90 1.2085
317.00 1.208749
317.10 1.208997
317.20 1.209245
317.30 1.20956
317.40 1.20985
317.50 1.210068
317.60 1.210286
317.70 1.210503
317.80 1.21072
317.90 1.210998
318.00 1.211325
318.10 1.211567
318.20 1.211809
318.30 1.212051
318.40 1.212292
318.50 1.212533
318.60 1.212698
318.70 1.212959
318.80 1.213134
318.90 1.213436
319.00 1.213727
319.10 1.213964
319.20 1.214197
319.30 1.214415
319.40 1.214634
319.50 1.214852
319.60 1.215006
319.70 1.21526
319.80 1.215514
319.90 1.215768
320.00 1.216011
320.10 1.216243
320.20 1.216394
320.30 1.216668
320.40 1.216885
320.50 1.217129
320.60 1.217395
320.70 1.217624
320.80 1.217852
320.90 1.21808
321.00 1.218307
321.10 1.218534
321.20 1.218681
321.30 1.218896
321.40 1.21911
321.50 1.219323
321.60 1.219537
321.70 1.219749
321.80 1.219996
321.90 1.220279
322.00 1.220448
322.10 1.220665
322.20 1.220881
322.30 1.221097
322.40 1.221312
322.50 1.221527
322.60 1.221742
322.70 1.221955
322.80 1.222096
322.90 1.222316
323.00 1.222536
323.10 1.222755
323.20 1.222973
323.30 1.223191
323.40 1.223408
323.50 1.223625
323.60 1.223842
323.70 1.224057
323.80 1.224273
323.90 1.224488
324.00 1.224656
324.10 1.224824
324.20 1.224992
324.30 1.225195
324.40 1.225446
324.50 1.225637
324.60 1.225828
324.70 1.226018
324.80 1.226207
324.90 1.226396
325.00 1.226584
325.10 1.226773
325.20 1.226965
325.30 1.227166
325.40 1.227368
325.50 1.227574
325.60 1.227785
325.70 1.227997
325.80 1.228207
325.90 1.228406
326.00 1.228591
326.10 1.228775
326.20 1.22896
326.30 1.229125
326.40 1.229237
326.50 1.229422
326.60 1.229606
326.70 1.22979
326.80 1.229974
326.90 1.230157
327.00 1.23034
327.10 1.230522
327.20 1.230703
327.30 1.230885
327.40 1.231066
327.50 1.231246
327.60 1.231426
327.70 1.231605
327.80 1.231784
327.90 1.23202
328.00 1.232251
328.10 1.232401
328.20 1.23255
328.30 1.232699
328.40 1.232848
328.50 1.233035
328.60 1.233232
328.70 1.233428
328.80 1.233617
328.90 1.233787
329.00 1.233957
329.10 1.234126
329.20 1.234295
329.30 1.234464
329.40 1.234632
329.50 1.234799
329.60 1.234967
329.70 1.235134
329.80 1.2353
329.90 1.235466
330.00 1.235628
330.10 1.235785
330.20 1.235943
330.30 1.236099
330.40 1.236255
330.50 1.236411
330.60 1.236566
330.70 1.236721
330.80 1.236875
330.90 1.237029
331.00 1.237183
331.10 1.237336
331.20 1.237488
331.30 1.237641
331.40 1.237793
331.50 1.237946
331.60 1.238101
331.70 1.238255
331.80 1.238407
331.90 1.238558
332.00 1.238708
332.10 1.238859
332.20 1.239009
332.30 1.239158
332.40 1.239308
332.50 1.239456
332.60 1.239605
332.70 1.239753
332.80 1.2399
332.90 1.240047
333.00 1.240194
333.10 1.24034
333.20 1.240485
333.30 1.240629
333.40 1.240773
333.50 1.240916
333.60 1.241059
333.70 1.241202
333.80 1.241344
333.90 1.241486
334.00 1.241628
334.10 1.241771
334.20 1.241916
334.30 1.24206
334.40 1.242205
334.50 1.242349
334.60 1.242492
334.70 1.242629
334.80 1.242746
334.90 1.242843
335.00 1.242941
335.10 1.243141
335.20 1.243239
335.30 1.243395
335.40 1.243493
335.50 1.243702
335.60 1.243815
335.70 1.243883
335.80 1.244043
335.90 1.244188
336.00 1.244316
336.10 1.244443
336.20 1.244569
336.30 1.244691
336.40 1.244806
336.50 1.244921
336.60 1.245036
336.70 1.24515
336.80 1.245263
336.90 1.245378
337.00 1.245493
337.10 1.245608
337.20 1.245722
337.30 1.245838
337.40 1.245955
337.50 1.246072
337.60 1.246189
337.70 1.246305
337.80 1.246421
337.90 1.246541
338.00 1.246665
338.10 1.246789
338.20 1.246913
338.30 1.247036
338.40 1.247154
338.50 1.247259
338.60 1.247364
338.70 1.247468
338.80 1.247572
338.90 1.247675
339.00 1.247778
339.10 1.247881
339.20 1.247984
339.30 1.248112
339.40 1.248277
339.50 1.24841
339.60 1.248505
339.70 1.248599
339.80 1.248694
339.90 1.248788
340.00 1.248881
340.10 1.248975
340.20 1.249068
340.30 1.24916
340.40 1.249253
340.50 1.249345
340.60 1.249437
340.70 1.249528
340.80 1.249647
340.90 1.249806
341.00 1.249915
341.10 1.249962
341.20 1.250008
341.30 1.250055
341.40 1.250101
341.50 1.250147
341.60 1.250193
341.70 1.250238
341.80 1.250328
341.90 1.250473
342.00 1.250618
342.10 1.250763
342.20 1.250732
342.30 1.250714
342.40 1.25085
342.50 1.25095
342.60 1.25105
342.70 1.251149
342.80 1.251249
342.90 1.251347
343.00 1.251486
343.10 1.251672
343.20 1.251858
343.30 1.252043
343.40 1.25219
343.50 1.252281
343.60 1.252372
343.70 1.252462
343.80 1.252553
343.90 1.252642
344.00 1.252648
344.10 1.252533
344.20 1.252418
344.30 1.252303
344.40 1.252439
344.50 1.252935
344.60 1.252929
344.70 1.253424
344.80 1.252727
344.90 1.253191
345.00 1.252964
345.10 1.253457
345.20 1.253787
345.30 1.253884
345.40 1.25398
345.50 1.253706
345.60 1.253313
345.70 1.253397
345.80 1.253482
345.90 1.253566
346.00 1.25365
346.10 1.253733
346.20 1.253833
346.30 1.253956
346.40 1.254079
346.50 1.254202
346.60 1.254324
346.70 1.254446
346.80 1.254567
346.90 1.254688
347.00 1.254809
347.10 1.25493
347.20 1.255007
347.30 1.255024
347.40 1.255041
347.50 1.255057
347.60 1.255073
347.70 1.255089
347.80 1.255104
347.90 1.25512
348.00 1.255135
348.10 1.25515
348.20 1.255164
348.30 1.255179
348.40 1.255193
348.50 1.255207
348.60 1.255221
348.70 1.255349
348.80 1.255477
348.90 1.255552
349.00 1.255627
349.10 1.255702
349.20 1.255777
349.30 1.255851
349.40 1.255925
349.50 1.255998
349.60 1.256072
349.70 1.256145
349.80 1.256217
349.90 1.25629
350.00 1.256362
350.10 1.256434
350.20 1.256506
350.30 1.256561
350.40 1.256593
350.50 1.256624
350.60 1.256656
350.70 1.256687
350.80 1.256717
350.90 1.256748
351.00 1.256778
351.10 1.256809
351.20 1.256839
351.30 1.256868
351.40 1.256913
351.50 1.256986
351.60 1.257058
351.70 1.257129
351.80 1.257201
351.90 1.257272
352.00 1.257343
352.10 1.257414
352.20 1.257485
352.30 1.257523
352.40 1.257515
352.50 1.257506
352.60 1.257496
352.70 1.257487
352.80 1.257477
352.90 1.257467
353.00 1.257457
353.10 1.257447
353.20 1.257437
353.30 1.257426
353.40 1.257416
353.50 1.257472
353.60 1.257545
353.70 1.257618
353.80 1.257691
353.90 1.257761
354.00 1.257827
354.10 1.257893
354.20 1.257959
354.30 1.258024
354.40 1.258089
354.50 1.258153
354.60 1.258218
354.70 1.258282
354.80 1.25835
354.90 1.258425
355.00 1.2585
355.10 1.258574
355.20 1.258649
355.30 1.258474
355.40 1.258299
355.50 1.258124
355.60 1.257949
355.70 1.258087
355.80 1.258364
355.90 1.258286
356.00 1.25815
356.10 1.258157
356.20 1.258164
356.30 1.258171
356.40 1.258177
356.50 1.258183
356.60 1.258189
356.70 1.258195
356.80 1.2582
356.90 1.258205
357.00 1.25821
357.10 1.258215
357.20 1.25822
357.30 1.258224
357.40 1.258217
357.50 1.25819
357.60 1.258162
357.70 1.258134
357.80 1.258461
357.90 1.258788
358.00 1.258812
358.10 1.258759
358.20 1.258707
358.30 1.258654
358.40 1.258601
358.50 1.258548
358.60 1.258495
358.70 1.258442
358.80 1.258389
358.90 1.258335
359.00 1.258412
359.10 1.258721
359.20 1.258961
359.30 1.258743
359.40 1.258524
359.50 1.258563
359.60 1.258665
359.70 1.258766
359.80 1.258916
359.90 1.259065
360.00 1.259134
360.10 1.25906
360.20 1.258987
360.30 1.258912
360.40 1.258838
360.50 1.258764
360.60 1.258374
360.70 1.258513
360.80 1.258651
360.90 1.25879
361.00 1.258627
361.10 1.258549
361.20 1.258346
361.30 1.258762
361.40 1.258065
361.50 1.25848
361.60 1.258184
361.70 1.258598
361.80 1.258768
361.90 1.258505
362.00 1.258243
362.10 1.258249
362.20 1.258308
362.30 1.258341
362.40 1.258374
362.50 1.258407
362.60 1.258439
362.70 1.258503
362.80 1.2583
362.90 1.258155
363.00 1.25801
363.10 1.258318
363.20 1.25863
363.30 1.258138
363.40 1.258545
363.50 1.257853
363.60 1.258259
363.70 1.258176
363.80 1.257972
363.90 1.258064
364.00 1.258155
364.10 1.258246
364.20 1.258337
364.30 1.258289
364.40 1.258206
364.50 1.258612
364.60 1.258284
364.70 1.257957
364.80 1.257629
364.90 1.25803
365.00 1.258431
365.10 1.257741
365.20 1.258141
365.30 1.257996
365.40 1.257851
365.50 1.257706
365.60 1.257562
365.70 1.257861
365.80 1.258159
365.90 1.258151
366.00 1.258065
366.10 1.25791
366.20 1.257755
366.30 1.2576
366.40 1.257445
366.50 1.257865
366.60 1.257191
366.70 1.257323
366.80 1.257455
366.90 1.257502
367.00 1.257398
367.10 1.257294
367.20 1.25719
367.30 1.257086
367.40 1.256982
367.50 1.256892
367.60 1.256805
367.70 1.256969
367.80 1.257133
367.90 1.257296
368.00 1.25729
368.10 1.256607
368.20 1.256619
368.30 1.256638
368.40 1.256657
368.50 1.256675
368.60 1.256694
368.70 1.256712
368.80 1.25673
368.90 1.256496
369.00 1.256286
369.10 1.256194
369.20 1.256584
369.30 1.256614
369.40 1.256642
369.50 1.256671
369.60 1.25652
369.70 1.256369
369.80 1.256263
369.90 1.256157
370.00 1.256051
370.10 1.255779
370.20 1.256149
370.30 1.25653
370.40 1.255862
370.50 1.256241
370.60 1.255563
370.70 1.255942
370.80 1.25579
370.90 1.255638
371.00 1.255491
371.10 1.255344
371.20 1.255716
371.30 1.256088
371.40 1.255634
371.50 1.255545
371.60 1.255457
371.70 1.255368
371.80 1.25528
371.90 1.255191
372.00 1.254822
372.10 1.254896
372.20 1.254921
372.30 1.254945
372.40 1.254969
372.50 1.254992
372.60 1.255016
372.70 1.255039
372.80 1.254886
372.90 1.254732
373.00 1.254584
373.10 1.254435
373.20 1.254284
373.30 1.254133
373.40 1.254502
373.50 1.254351
373.60 1.2542
373.70 1.254568
373.80 1.254124
373.90 1.254264
374.00 1.254113
374.10 1.253961
374.20 1.253809
374.30 1.253657
374.40 1.253635
374.50 1.253353
374.60 1.253454
374.70 1.253563
374.80 1.253671
374.90 1.253779
375.00 1.253454
375.10 1.25313
375.20 1.252806
375.30 1.252874
375.40 1.252942
375.50 1.253011
375.60 1.253078
375.70 1.253146
375.80 1.253213
375.90 1.25328
376.00 1.252614
376.10 1.252612
376.20 1.252616
376.30 1.252621
376.40 1.252625
376.50 1.252644
376.60 1.252684
376.70 1.252725
376.80 1.252651
376.90 1.252462
377.00 1.252274
377.10 1.252086
377.20 1.251932
377.30 1.251903
377.40 1.251875
377.50 1.251846
377.60 1.251847
377.70 1.251848
377.80 1.251849
377.90 1.251849
378.00 1.251584
378.10 1.251504
378.20 1.25143
378.30 1.251355
378.40 1.251281
378.50 1.251206
378.60 1.251131
378.70 1.251056
378.80 1.250981
378.90 1.250701
379.00 1.250041
379.10 1.25019
379.20 1.250338
379.30 1.250408
379.40 1.2504
379.50 1.250391
379.60 1.250122
379.70 1.249592
379.80 1.249546
379.90 1.249501
380.00 1.249454
380.10 1.249408
380.20 1.249362
380.30 1.249315
380.40 1.249269
380.50 1.249222
380.60 1.248845
380.70 1.248872
380.80 1.248899
380.90 1.248925
381.00 1.248951
381.10 1.248921
381.20 1.24864
381.30 1.248172
381.40 1.248508
381.50 1.248365
381.60 1.248353
381.70 1.24836
381.80 1.247706
381.90 1.248048
382.00 1.248389
382.10 1.247736
382.20 1.247481
382.30 1.247821
382.40 1.2479
382.50 1.247586
382.60 1.247272
382.70 1.24728
382.80 1.24737
382.90 1.24718
383.00 1.24699
383.10 1.246801
383.20 1.246629
383.30 1.246524
383.40 1.246483
383.50 1.246538
383.60 1.245947
383.70 1.245947
383.80 1.245947
383.90 1.245947
384.00 1.245947
384.10 1.245946
384.20 1.245945
384.30 1.245945
384.40 1.245849
384.50 1.245659
384.60 1.245469
384.70 1.245278
384.80 1.245232
384.90 1.245472
385.00 1.245246
385.10 1.245011
385.20 1.244598
385.30 1.244448
385.40 1.244392
385.50 1.24443
385.60 1.244467
385.70 1.244504
385.80 1.244518
385.90 1.244443
386.00 1.244083
386.10 1.243506
386.20 1.243614
386.30 1.243721
386.40 1.243453
386.50 1.24321
386.60 1.243138
386.70 1.243466
386.80 1.243065
386.90 1.24315
387.00 1.243017
387.10 1.242835
387.20 1.242894
387.30 1.242519
387.40 1.242845
387.50 1.242204
387.60 1.24263
387.70 1.242472
387.80 1.242314
387.90 1.242156
388.00 1.241897
388.10 1.241404
388.20 1.241733
388.30 1.2414
388.40 1.241066
388.50 1.240921
388.60 1.241221
388.70 1.241271
388.80 1.240632
388.90 1.240894
389.00 1.240814
389.10 1.240637
389.20 1.240417
389.30 1.240493
389.40 1.240347
389.50 1.240326
389.60 1.240324
389.70 1.239858
389.80 1.23971
389.90 1.239561
390.00 1.239412
390.10 1.239263
390.20 1.239115
390.30 1.239008
390.40 1.238948
390.50 1.238888
390.60 1.238828
390.70 1.238768
390.80 1.23869
390.90 1.238593
391.00 1.238228
391.10 1.238056
391.20 1.238056
391.30 1.238325
391.40 1.238166
391.50 1.238007
391.60 1.237848
391.70 1.237689
391.80 1.237531
391.90 1.23715
392.00 1.236846
392.10 1.237032
392.20 1.237145
392.30 1.236835
392.40 1.236827
392.50 1.236197
392.60 1.236509
392.70 1.236044
392.80 1.236191
392.90 1.235737
393.00 1.235608
393.10 1.235564
393.20 1.235597
393.30 1.235438
393.40 1.235237
393.50 1.235368
393.60 1.234918
393.70 1.235228
393.80 1.234643
393.90 1.234484
394.00 1.234418
394.10 1.234814
394.20 1.234661
394.30 1.234272
394.40 1.233723
394.50 1.233954
394.60 1.233849
394.70 1.233725
394.80 1.233527
394.90 1.233347
395.00 1.233623
395.10 1.232998
395.20 1.232859
395.30 1.23284
395.40 1.232822
395.50 1.232637
395.60 1.232391
395.70 1.232201
395.80 1.232161
395.90 1.232121
396.00 1.232028
396.10 1.231531
396.20 1.231372
396.30 1.231712
396.40 1.231391
396.50 1.231543
396.60 1.231072
396.70 1.230775
396.80 1.230753
396.90 1.231055
397.00 1.230435
397.10 1.230582
397.20 1.230321
397.30 1.230494
397.40 1.230164
397.50 1.229834
397.60 1.229537
397.70 1.22957
397.80 1.229602
397.90 1.229547
398.00 1.229257
398.10 1.228966
398.20 1.228699
398.30 1.228457
398.40 1.228225
398.50 1.228312
398.60 1.228602
398.70 1.228481
398.80 1.228237
398.90 1.227863
399.00 1.227248
399.10 1.227582
399.20 1.227385
399.30 1.227188
399.40 1.226991
399.50 1.226794
399.60 1.226716
399.70 1.226682
399.80 1.226648
399.90 1.226614
400.00 1.226563
400.10 1.22595
400.20 1.225973
400.30 1.225917
400.40 1.225663
400.50 1.225312
400.60 1.22503
400.70 1.224871
400.80 1.225286
400.90 1.224821
401.00 1.224966
401.10 1.224356
401.20 1.224453
401.30 1.224037
401.40 1.223914
401.50 1.223972
401.60 1.224009
401.70 1.2234
401.80 1.223496
401.90 1.223551
402.00 1.223371
402.10 1.222762
402.20 1.223052
402.30 1.222444
402.40 1.222733
402.50 1.222125
402.60 1.222414
402.70 1.221807
402.80 1.222095
402.90 1.221846
403.00 1.221686
403.10 1.22117
403.20 1.221477
403.30 1.221558
403.40 1.221138
403.50 1.22095
403.60 1.220819
403.70 1.220214
403.80 1.220515
403.90 1.220417
404.00 1.220182
404.10 1.219578
404.20 1.219419
404.30 1.219259
404.40 1.219544
404.50 1.219385
404.60 1.219225
404.70 1.218623
404.80 1.218907
404.90 1.218305
405.00 1.218588
405.10 1.218239
405.20 1.217954
405.30 1.217669
405.40 1.217509
405.50 1.21735
405.60 1.217191
405.70 1.217032
405.80 1.216873
405.90 1.216714
406.00 1.216647
406.10 1.216579
406.20 1.216511
406.30 1.216443
406.40 1.216359
406.50 1.215982
406.60 1.216041
406.70 1.215717
406.80 1.215462
406.90 1.215138
407.00 1.214979
407.10 1.21482
407.20 1.214661
407.30 1.214502
407.40 1.214344
407.50 1.214185
407.60 1.214026
407.70 1.213867
407.80 1.213708
407.90 1.213551
408.00 1.213432
408.10 1.213219
408.20 1.213078
408.30 1.213052
408.40 1.213024
408.50 1.212584
408.60 1.212592
408.70 1.2126
408.80 1.212542
408.90 1.212069
409.00 1.211976
409.10 1.211883
409.20 1.21179
409.30 1.211697
409.40 1.211598
409.50 1.211312
409.60 1.211026
409.70 1.210759
409.80 1.210567
409.90 1.210387
410.00 1.210635
410.10 1.210045
410.20 1.209725
410.30 1.209472
410.40 1.209275
410.50 1.209252
410.60 1.20923
410.70 1.209163
410.80 1.208923
410.90 1.208683
411.00 1.208544
411.10 1.208443
411.20 1.208341
411.30 1.208143
411.40 1.207574
411.50 1.207593
411.60 1.207612
411.70 1.207595
411.80 1.207436
411.90 1.207192
412.00 1.206606
412.10 1.206662
412.20 1.20629
412.30 1.205851
412.40 1.205974
412.50 1.205511
412.60 1.205536
412.70 1.205339
412.80 1.205086
412.90 1.20479
413.00 1.205106
413.10 1.204861
413.20 1.204615
413.30 1.204369
413.40 1.204124
413.50 1.203988
413.60 1.204179
413.70 1.204021
413.80 1.203863
413.90 1.203705
414.00 1.203446
414.10 1.202864
414.20 1.202791
414.30 1.202549
414.40 1.202645
414.50 1.202234
414.60 1.201755
414.70 1.201598
414.80 1.20144
414.90 1.201283
415.00 1.201125
415.10 1.200968
415.20 1.200835
415.30 1.200781
415.40 1.200727
415.50 1.200667
415.60 1.20039
415.70 1.200114
415.80 1.199832
415.90 1.199531
416.00 1.19923
416.10 1.198955
416.20 1.198781
416.30 1.198606
416.40 1.198432
416.50 1.198259
416.60 1.198102
416.70 1.197932
416.80 1.198193
416.90 1.197618
417.00 1.197879
417.10 1.197317
417.20 1.19716
417.30 1.196999
417.40 1.19672
417.50 1.196441
417.60 1.196246
417.70 1.196376
417.80 1.196219
417.90 1.196062
418.00 1.195905
418.10 1.195748
418.20 1.195591
418.30 1.195422
418.40 1.194937
418.50 1.194726
418.60 1.194515
418.70 1.194304
418.80 1.194094
418.90 1.193883
419.00 1.193672
419.10 1.193461
419.20 1.193251
419.30 1.193047
419.40 1.193061
419.50 1.193076
419.60 1.193029
419.70 1.192739
419.80 1.192449
419.90 1.192189
420.00 1.192024
420.10 1.19186
420.20 1.191695
420.30 1.191531
420.40 1.191366
420.50 1.191201
420.60 1.191037
420.70 1.190872
420.80 1.190708
420.90 1.19054
421.00 1.190269
421.10 1.189998
421.20 1.189742
421.30 1.189527
421.40 1.189312
421.50 1.189098
421.60 1.188883
421.70 1.188669
421.80 1.188454
421.90 1.188252
422.00 1.188089
422.10 1.187897
422.20 1.187591
422.30 1.187285
422.40 1.186983
422.50 1.186791
422.60 1.186599
422.70 1.186407
422.80 1.186216
422.90 1.186024
423.00 1.185832
423.10 1.18564
423.20 1.185449
423.30 1.185257
423.40 1.185065
423.50 1.184874
423.60 1.184682
423.70 1.184491
423.80 1.1843
423.90 1.184108
424.00 1.183917
424.10 1.183726
424.20 1.183535
424.30 1.183343
424.40 1.183077
424.50 1.182926
424.60 1.182776
424.70 1.182625
424.80 1.182475
424.90 1.182324
425.00 1.182174
425.10 1.182023
425.20 1.181873
425.30 1.181722
425.40 1.181561
425.50 1.181324
425.60 1.181087
425.70 1.180851
425.80 1.180614
425.90 1.180378
426.00 1.180142
426.10 1.179906
426.20 1.179669
426.30 1.179433
426.40 1.179198
426.50 1.178962
426.60 1.178726
426.70 1.17849
426.80 1.178255
426.90 1.17802
427.00 1.177804
427.10 1.177588
427.20 1.177373
427.30 1.177157
427.40 1.176942
427.50 1.176726
427.60 1.176511
427.70 1.176296
427.80 1.17608
427.90 1.175865
428.00 1.17565
428.10 1.175435
428.20 1.17522
428.30 1.175006
428.40 1.174791
428.50 1.174576
428.60 1.174361
428.70 1.174147
428.80 1.173933
428.90 1.173733
429.00 1.173533
429.10 1.173333
429.20 1.173133
429.30 1.172933
429.40 1.172733
429.50 1.172534
429.60 1.172334
429.70 1.172134
429.80 1.171935
429.90 1.171735
430.00 1.171535
430.10 1.171336
430.20 1.171137
430.30 1.170937
430.40 1.170738
430.50 1.170539
430.60 1.17034
430.70 1.170141
430.80 1.169942
430.90 1.169743
431.00 1.169544
431.10 1.169345
431.20 1.169146
431.30 1.168945
431.40 1.168715
431.50 1.168485
431.60 1.168256
431.70 1.168026
431.80 1.167796
431.90 1.167567
432.00 1.167338
432.10 1.167108
432.20 1.166879
432.30 1.16665
432.40 1.166421
432.50 1.166192
432.60 1.165963
432.70 1.165735
432.80 1.165506
432.90 1.165277
433.00 1.165049
433.10 1.16482
433.20 1.164592
433.30 1.164366
433.40 1.164163
433.50 1.16396
433.60 1.163758
433.70 1.163555
433.80 1.163392
433.90 1.163277
434.00 1.163125
434.10 1.162949
434.20 1.162774
434.30 1.162599
434.40 1.162423
434.50 1.162248
434.60 1.162073
434.70 1.161897
434.80 1.161719
434.90 1.1615
435.00 1.161281
435.10 1.161062
435.20 1.160843
435.30 1.160624
435.40 1.160405
435.50 1.160186
435.60 1.159968
435.70 1.159749
435.80 1.159531
435.90 1.159312
436.00 1.159094
436.10 1.158875
436.20 1.158657
436.30 1.158298
436.40 1.157789
436.50 1.157561
436.60 1.157333
436.70 1.157106
436.80 1.156878
436.90 1.156651
437.00 1.156424
437.10 1.156197
437.20 1.155974
437.30 1.155755
437.40 1.155541
437.50 1.155392
437.60 1.155243
437.70 1.155094
437.80 1.154945
437.90 1.154796
438.00 1.154641
438.10 1.154403
438.20 1.154164
438.30 1.153796
438.40 1.153296
438.50 1.153148
438.60 1.152973
438.70 1.152448
438.80 1.152676
438.90 1.152151
439.00 1.152379
439.10 1.151854
439.20 1.151356
439.30 1.151208
439.40 1.15106
439.50 1.150912
439.60 1.150738
439.70 1.15058
439.80 1.150519
439.90 1.150167
440.00 1.149816
440.10 1.149465
440.20 1.149122
440.30 1.1489
440.40 1.148678
440.50 1.148455
440.60 1.148233
440.70 1.148011
440.80 1.147789
440.90 1.147567
441.00 1.147345
441.10 1.147124
441.20 1.146913
441.30 1.146854
441.40 1.146701
441.50 1.146436
441.60 1.146171
441.70 1.145774
441.80 1.145596
441.90 1.145418
442.00 1.14524
442.10 1.145062
442.20 1.144884
442.30 1.144707
442.40 1.144485
442.50 1.144211
442.60 1.143937
442.70 1.143789
442.80 1.14379
442.90 1.143274
443.00 1.14293
443.10 1.142797
443.20 1.142651
443.30 1.142492
443.40 1.142173
443.50 1.141658
443.60 1.141881
443.70 1.141367
443.80 1.140944
443.90 1.141075
444.00 1.140727
444.10 1.140581
444.20 1.14027
444.30 1.139776
444.40 1.139544
444.50 1.139312
444.60 1.139125
444.70 1.138993
444.80 1.138851
444.90 1.138699
445.00 1.138547
445.10 1.138396
445.20 1.138194
445.30 1.137929
445.40 1.137665
445.50 1.137401
445.60 1.137137
445.70 1.136874
445.80 1.136575
445.90 1.136245
446.00 1.135915
446.10 1.135585
446.20 1.135903
446.30 1.135394
446.40 1.135075
446.50 1.134931
446.60 1.134787
446.70 1.134642
446.80 1.134309
446.90 1.133801
447.00 1.134021
447.10 1.133513
447.20 1.133006
447.30 1.133225
447.40 1.132907
447.50 1.132764
447.60 1.132431
447.70 1.131926
447.80 1.131589
447.90 1.131458
448.00 1.131259
448.10 1.130995
448.20 1.130731
448.30 1.130467
448.40 1.130204
448.50 1.12994
448.60 1.129705
448.70 1.129496
448.80 1.129288
448.90 1.129097
449.00 1.128906
449.10 1.128715
449.20 1.128523
449.30 1.128192
449.40 1.12798
449.50 1.127768
449.60 1.127554
449.70 1.127339
449.80 1.127124
449.90 1.126909
450.00 1.126695
450.10 1.12648
450.20 1.126265
450.30 1.126051
450.40 1.125789
450.50 1.125528
450.60 1.125267
450.70 1.125005
450.80 1.124745
450.90 1.124484
451.00 1.124273
451.10 1.124062
451.20 1.123702
451.30 1.123917
451.40 1.123419
451.50 1.122921
451.60 1.123136
451.70 1.122638
451.80 1.122141
451.90 1.122356
452.00 1.121859
452.10 1.121363
452.20 1.121222
452.30 1.121081
452.40 1.12094
452.50 1.120799
452.60 1.120304
452.70 1.119972
452.80 1.119791
452.90 1.119609
453.00 1.119428
453.10 1.119247
453.20 1.118969
453.30 1.118691
453.40 1.118413
453.50 1.118135
453.60 1.117858
453.70 1.11758
453.80 1.11739
453.90 1.117306
454.00 1.117222
454.10 1.117138
454.20 1.116903
454.30 1.116668
454.40 1.116434
454.50 1.116199
454.60 1.115964
454.70 1.1157
454.80 1.11541
454.90 1.11512
455.00 1.114829
455.10 1.114539
455.20 1.11425
455.30 1.11396
455.40 1.11367
455.50 1.113381
455.60 1.113092
455.70 1.112802
455.80 1.112689
455.90 1.112575
456.00 1.112462
456.10 1.1123
456.20 1.112007
456.30 1.111714
456.40 1.111421
456.50 1.111129
456.60 1.110836
456.70 1.110544
456.80 1.110252
456.90 1.10996
457.00 1.109668
457.10 1.109377
457.20 1.109679
457.30 1.109437
457.40 1.109194
457.50 1.108952
457.60 1.10871
457.70 1.108468
457.80 1.108226
457.90 1.107985
458.00 1.107743
458.10 1.107501
458.20 1.10726
458.30 1.107019
458.40 1.106777
458.50 1.106536
458.60 1.106295
458.70 1.105969
458.80 1.105607
458.90 1.105246
459.00 1.104885
459.10 1.104525
459.20 1.104164
459.30 1.103924
459.40 1.103683
459.50 1.103443
459.60 1.103202
459.70 1.102962
459.80 1.102722
459.90 1.102482
460.00 1.102242
460.10 1.102002
460.20 1.101762
460.30 1.101523
460.40 1.101283
460.50 1.101044
460.60 1.100804
460.70 1.10059
460.80 1.100388
460.90 1.100186
461.00 1.099984
461.10 1.099783
461.20 1.099639
461.30 1.09952
461.40 1.099258
461.50 1.098961
461.60 1.098664
461.70 1.098368
461.80 1.09813
461.90 1.097893
462.00 1.097655
462.10 1.097418
462.20 1.097181
462.30 1.096944
462.40 1.096707
462.50 1.096471
462.60 1.096234
462.70 1.095997
462.80 1.095761
462.90 1.095525
463.00 1.095288
463.10 1.095052
463.20 1.094787
463.30 1.09451
463.40 1.094234
463.50 1.093957
463.60 1.093681
463.70 1.093404
463.80 1.093128
463.90 1.092896
464.00 1.092675
464.10 1.092454
464.20 1.092233
464.30 1.092013
464.40 1.091792
464.50 1.091571
464.60 1.091351
464.70 1.09111
464.80 1.09086
464.90 1.090611
465.00 1.090362
465.10 1.090112
465.20 1.089863
465.30 1.089621
465.40 1.089384
465.50 1.089147
465.60 1.08891
465.70 1.088674
465.80 1.088437
465.90 1.088147
466.00 1.087843
466.10 1.08754
466.20 1.087236
466.30 1.08696
466.40 1.086694
466.50 1.086428
466.60 1.086163
466.70 1.085897
466.80 1.085632
466.90 1.085366
467.00 1.085101
467.10 1.084836
467.20 1.084572
467.30 1.084165
467.40 1.08391
467.50 1.083708
467.60 1.083505
467.70 1.083302
467.80 1.0831
467.90 1.08283
468.00 1.082533
468.10 1.082236
468.20 1.08194
468.30 1.081761
468.40 1.08163
468.50 1.081264
468.60 1.080886
468.70 1.081002
468.80 1.080541
468.90 1.08008
469.00 1.080104
469.10 1.079936
469.20 1.07964
469.30 1.079345
469.40 1.07905
469.50 1.07884
469.60 1.078665
469.70 1.07849
469.80 1.078315
469.90 1.078117
470.00 1.077659
470.10 1.077295
470.20 1.076971
470.30 1.076646
470.40 1.076322
470.50 1.075998
470.60 1.07583
470.70 1.075701
470.80 1.075571
470.90 1.075442
471.00 1.07505
471.10 1.074594
471.20 1.074792
471.30 1.074336
471.40 1.07388
471.50 1.073751
471.60 1.073622
471.70 1.073167
471.80 1.072842
471.90 1.072551
472.00 1.072259
472.10 1.071968
472.20 1.071751
472.30 1.071553
472.40 1.071355
472.50 1.071157
472.60 1.070959
472.70 1.07058
472.80 1.070283
472.90 1.070025
473.00 1.069767
473.10 1.06951
473.20 1.069252
473.30 1.068995
473.40 1.068737
473.50 1.06848
473.60 1.068223
473.70 1.067966
473.80 1.067807
473.90 1.067673
474.00 1.067538
474.10 1.067404
474.20 1.067144
474.30 1.066834
474.40 1.066524
474.50 1.066214
474.60 1.065908
474.70 1.065635
474.80 1.065363
474.90 1.065091
475.00 1.064819
475.10 1.064547
475.20 1.064276
475.30 1.064004
475.40 1.063782
475.50 1.063573
475.60 1.063364
475.70 1.063155
475.80 1.062946
475.90 1.062737
476.00 1.062528
476.10 1.062319
476.20 1.062073
476.30 1.061812
476.40 1.061552
476.50 1.061291
476.60 1.061031
476.70 1.060771
476.80 1.060511
476.90 1.060244
477.00 1.059976
477.10 1.059708
477.20 1.05944
477.30 1.059172
477.40 1.058905
477.50 1.058637
477.60 1.05837
477.70 1.058102
477.80 1.057835
477.90 1.057568
478.00 1.057301
478.10 1.057035
478.20 1.056768
478.30 1.056502
478.40 1.056235
478.50 1.055969
478.60 1.055703
478.70 1.055313
478.80 1.054872
478.90 1.054627
479.00 1.054432
479.10 1.054236
479.20 1.054041
479.30 1.053846
479.40 1.053609
479.50 1.053349
479.60 1.053089
479.70 1.052829
479.80 1.052569
479.90 1.052309
480.00 1.052049
480.10 1.051789
480.20 1.05153
480.30 1.05127
480.40 1.051011
480.50 1.050752
480.60 1.050493
480.70 1.050234
480.80 1.049976
480.90 1.049717
481.00 1.049458
481.10 1.0492
481.20 1.048936
481.30 1.048672
481.40 1.048409
481.50 1.048145
481.60 1.047881
481.70 1.047618
481.80 1.047355
481.90 1.047092
482.00 1.046829
482.10 1.046566
482.20 1.046304
482.30 1.046047
482.40 1.045791
482.50 1.045535
482.60 1.045279
482.70 1.045023
482.80 1.044767
482.90 1.044511
483.00 1.044256
483.10 1.044
483.20 1.043745
483.30 1.04349
483.40 1.043235
483.50 1.04298
483.60 1.042725
483.70 1.042528
483.80 1.042331
483.90 1.042134
484.00 1.041937
484.10 1.041741
484.20 1.041458
484.30 1.041137
484.40 1.040818
484.50 1.040498
484.60 1.040178
484.70 1.039865
484.80 1.039641
484.90 1.039416
485.00 1.039192
485.10 1.038967
485.20 1.038743
485.30 1.038519
485.40 1.038295
485.50 1.038071
485.60 1.037847
485.70 1.037532
485.80 1.037218
485.90 1.036903
486.00 1.036589
486.10 1.036275
486.20 1.035961
486.30 1.035647
486.40 1.035334
486.50 1.03502
486.60 1.034707
486.70 1.034408
486.80 1.034284
486.90 1.03416
487.00 1.034036
487.10 1.033912
487.20 1.033655
487.30 1.033399
487.40 1.033143
487.50 1.032886
487.60 1.03263
487.70 1.032374
487.80 1.032119
487.90 1.031863
488.00 1.031607
488.10 1.031352
488.20 1.031093
488.30 1.030791
488.40 1.030489
488.50 1.030187
488.60 1.029886
488.70 1.029584
488.80 1.029386
488.90 1.029188
489.00 1.028975
489.10 1.028721
489.20 1.028467
489.30 1.028213
489.40 1.027959
489.50 1.027706
489.60 1.027453
489.70 1.027199
489.80 1.026788
489.90 1.026488
490.00 1.026189
490.10 1.025889
490.20 1.02559
490.30 1.025291
490.40 1.025023
490.50 1.024756
490.60 1.024489
490.70 1.024223
490.80 1.023845
490.90 1.02399
491.00 1.023573
491.10 1.023157
491.20 1.02274
491.30 1.022925
491.40 1.022509
491.50 1.022093
491.60 1.021762
491.70 1.021614
491.80 1.021446
491.90 1.021031
492.00 1.020721
492.10 1.020801
492.20 1.020386
492.30 1.019972
492.40 1.019596
492.50 1.019742
492.60 1.019338
492.70 1.019074
492.80 1.01881
492.90 1.018546
493.00 1.01828
493.10 1.017985
493.20 1.01769
493.30 1.017395
493.40 1.0171
493.50 1.016805
493.60 1.016989
493.70 1.016577
493.80 1.016165
493.90 1.015866
494.00 1.015742
494.10 1.015563
494.20 1.015265
494.30 1.014967
494.40 1.01467
494.50 1.014373
494.60 1.014068
494.70 1.013658
494.80 1.013295
494.90 1.013068
495.00 1.01284
495.10 1.012613
495.20 1.012387
495.30 1.012162
495.40 1.011936
495.50 1.011711
495.60 1.011486
495.70 1.011261
495.80 1.011036
495.90 1.010812
496.00 1.010587
496.10 1.010304
496.20 1.009907
496.30 1.009645
496.40 1.009383
496.50 1.009121
496.60 1.008859
496.70 1.008627
496.80 1.008396
496.90 1.008164
497.00 1.007933
497.10 1.007702
497.20 1.007471
497.30 1.007195
497.40 1.00679
497.50 1.006385
497.60 1.006131
497.70 1.006171
497.80 1.005896
497.90 1.005621
498.00 1.005347
498.10 1.005072
498.20 1.004798
498.30 1.004523
498.40 1.004249
498.50 1.003975
498.60 1.003701
498.70 1.003299
498.80 1.002896
498.90 1.002653
499.00 1.002409
499.10 1.002166
499.20 1.001872
499.30 1.001507
499.40 1.001245
499.50 1.000983
499.60 1.000721
499.70 1.000467
499.80 1.000311
499.90 1.000156
500.00 1
500.10 0.9998445
500.20 0.9996418
500.30 0.9993389
500.40 0.9990361
500.50 0.9987335
500.60 0.9984311
500.70 0.9981288
500.80 0.9978516
500.90 0.9976275
501.00 0.9974035
501.10 0.9971795
501.20 0.9967817
501.30 0.996384
501.40 0.9964485
501.50 0.9961666
501.60 0.9957695
501.70 0.9953725
501.80 0.9950681
501.90 0.9949597
502.00 0.9947592
502.10 0.994363
502.20 0.9939901
502.30 0.9939231
502.40 0.9937816
502.50 0.9934819
502.60 0.9931824
502.70 0.992883
502.80 0.9925838
502.90 0.9922848
503.00 0.9920005
503.10 0.9917474
503.20 0.9914945
503.30 0.9912417
503.40 0.9909883
503.50 0.990733
503.60 0.9904778
503.70 0.9902227
503.80 0.9899512
503.90 0.9895584
504.00 0.9892108
504.10 0.988959
504.20 0.9887074
504.30 0.9884559
504.40 0.9882422
504.50 0.9881356
504.60 0.9879549
504.70 0.9875635
504.80 0.9871722
504.90 0.9873507
505.00 0.9869597
505.10 0.9865689
505.20 0.9862159
505.30 0.9859699
505.40 0.985724
505.50 0.9854782
505.60 0.9852164
505.70 0.9849205
505.80 0.9846247
505.90 0.984329
506.00 0.9840336
506.10 0.9837383
506.20 0.9834517
506.30 0.98319
506.40 0.9829283
506.50 0.9826668
506.60 0.9824055
506.70 0.9821442
506.80 0.9818831
506.90 0.9816221
507.00 0.9813612
507.10 0.9812305
507.20 0.9812651
507.30 0.980984
507.40 0.9807031
507.50 0.9804223
507.60 0.9801417
507.70 0.9798612
507.80 0.9795808
507.90 0.9793007
508.00 0.9790206
508.10 0.9787407
508.20 0.9784609
508.30 0.9781813
508.40 0.9779019
508.50 0.9776225
508.60 0.9773433
508.70 0.9770643
508.80 0.9767581
508.90 0.9765456
509.00 0.9763935
509.10 0.976197
509.20 0.9759065
509.30 0.9756161
509.40 0.9753258
509.50 0.9750358
509.60 0.9747458
509.70 0.974456
509.80 0.9741664
509.90 0.9738769
510.00 0.9735876
510.10 0.9732984
510.20 0.9730094
510.30 0.9727301
510.40 0.9724782
510.50 0.9722263
510.60 0.9719746
510.70 0.9717231
510.80 0.9714716
510.90 0.9712203
511.00 0.9709691
511.10 0.970718
511.20 0.970467
511.30 0.9702162
511.40 0.9699655
511.50 0.9697149
511.60 0.9694735
511.70 0.9692517
511.80 0.9690299
511.90 0.9688083
512.00 0.9685867
512.10 0.9683653
512.20 0.968144
512.30 0.9679083
512.40 0.9676317
512.50 0.9673552
512.60 0.9670788
512.70 0.9668026
512.80 0.9665266
512.90 0.9662507
513.00 0.9659749
513.10 0.9656993
513.20 0.9654238
513.30 0.9651484
513.40 0.9648732
513.50 0.9645981
513.60 0.9643232
513.70 0.9640484
513.80 0.9637738
513.90 0.9634993
514.00 0.9632304
514.10 0.9629626
514.20 0.9626949
514.30 0.9624273
514.40 0.9621599
514.50 0.9618926
514.60 0.9616254
514.70 0.9613584
514.80 0.9610915
514.90 0.9608247
515.00 0.9605581
515.10 0.9602916
515.20 0.9600253
515.30 0.9597591
515.40 0.959493
515.50 0.959227
515.60 0.9589612
515.70 0.9586955
515.80 0.95843
515.90 0.9581646
516.00 0.9578993
516.10 0.9576341
516.20 0.9573691
516.30 0.9571042
516.40 0.9568395
516.50 0.9565749
516.60 0.9563105
516.70 0.9560461
516.80 0.955782
516.90 0.9555179
517.00 0.955254
517.10 0.9549902
517.20 0.9547266
517.30 0.9544631
517.40 0.9541997
517.50 0.9539365
517.60 0.9536734
517.70 0.9534104
517.80 0.9531475
517.90 0.9528848
518.00 0.9526222
518.10 0.9523598
518.20 0.9520974
518.30 0.9518353
518.40 0.9515732
518.50 0.9513113
518.60 0.9510495
518.70 0.9507878
518.80 0.9505263
518.90 0.9502649
519.00 0.9500036
519.10 0.949742
519.20 0.9494799
519.30 0.9492179
519.40 0.9489561
519.50 0.9486944
519.60 0.9484329
519.70 0.9481714
519.80 0.9479101
519.90 0.947649
520.00 0.9473879
520.10 0.947127
520.20 0.9468663
520.30 0.9466056
520.40 0.9463451
520.50 0.9460847
520.60 0.9458245
520.70 0.9455644
520.80 0.9453044
520.90 0.9450445
521.00 0.9447848
521.10 0.9445252
521.20 0.9442657
521.30 0.9440064
521.40 0.9437472
521.50 0.9434881
521.60 0.9432291
521.70 0.9429703
521.80 0.9427116
521.90 0.9424531
522.00 0.9421946
522.10 0.9419363
522.20 0.9416781
522.30 0.9414201
522.40 0.9411622
522.50 0.9409044
522.60 0.9406467
522.70 0.9403892
522.80 0.9401318
522.90 0.9398745
523.00 0.9396173
523.10 0.9393603
523.20 0.9391034
523.30 0.9388466
523.40 0.93859
523.50 0.9383335
523.60 0.9380771
523.70 0.9378208
523.80 0.9375647
523.90 0.9373087
524.00 0.9370528
524.10 0.9367971
524.20 0.9365415
524.30 0.9362798
524.40 0.9360133
524.50 0.935747
524.60 0.9354809
524.70 0.9352149
524.80 0.934949
524.90 0.9346832
525.00 0.9344176
525.10 0.9341521
525.20 0.9338868
525.30 0.9336216
525.40 0.9333565
525.50 0.9330915
525.60 0.9328267
525.70 0.9325621
525.80 0.9322975
525.90 0.9320331
526.00 0.9317688
526.10 0.9315047
526.20 0.9312407
526.30 0.9309768
526.40 0.9307131
526.50 0.9304494
526.60 0.930186
526.70 0.9299226
526.80 0.9296594
526.90 0.9293963
527.00 0.9291334
527.10 0.9288706
527.20 0.9286079
527.30 0.9283454
527.40 0.9280829
527.50 0.9278207
527.60 0.9275585
527.70 0.9272965
527.80 0.9270346
527.90 0.9267729
528.00 0.9265112
528.10 0.9262497
528.20 0.9259884
528.30 0.9257272
528.40 0.9254661
528.50 0.9252051
528.60 0.9249443
528.70 0.9246836
528.80 0.924423
528.90 0.9241625
529.00 0.9239022
529.10 0.9236421
529.20 0.923382
529.30 0.9231221
529.40 0.9228623
529.50 0.9226039
529.60 0.9223532
529.70 0.9221027
529.80 0.9218523
529.90 0.921602
530.00 0.9213518
530.10 0.9211018
530.20 0.9208518
530.30 0.920602
530.40 0.9203524
530.50 0.9201028
530.60 0.9198534
530.70 0.9196041
530.80 0.9193549
530.90 0.9191058
531.00 0.9188569
531.10 0.9186081
531.20 0.9183594
531.30 0.9181108
531.40 0.9178624
531.50 0.917614
531.60 0.9173658
531.70 0.9171177
531.80 0.9168698
531.90 0.9166219
532.00 0.9163742
532.10 0.9161266
532.20 0.9158664
532.30 0.9155997
532.40 0.9153332
532.50 0.9150668
532.60 0.9148005
532.70 0.9145344
532.80 0.9142684
532.90 0.9140025
533.00 0.9137368
533.10 0.9134712
533.20 0.9132058
533.30 0.9129405
533.40 0.9126753
533.50 0.9124102
533.60 0.9121453
533.70 0.9118805
533.80 0.9116159
533.90 0.9113514
534.00 0.911087
534.10 0.9108228
534.20 0.9105587
534.30 0.9102947
534.40 0.9100309
534.50 0.9097672
534.60 0.9095036
534.70 0.9092401
534.80 0.9089767
534.90 0.9087127
535.00 0.9084489
535.10 0.9081853
535.20 0.9079217
535.30 0.9076583
535.40 0.907395
535.50 0.9071319
535.60 0.9068689
535.70 0.906606
535.80 0.9063432
535.90 0.9060806
536.00 0.9058181
536.10 0.9055558
536.20 0.9052936
536.30 0.9050315
536.40 0.9047696
536.50 0.9045077
536.60 0.9042461
536.70 0.9039845
536.80 0.9037231
536.90 0.9034618
537.00 0.9032006
537.10 0.9029396
537.20 0.9026787
537.30 0.902418
537.40 0.9021573
537.50 0.9018968
537.60 0.9016365
537.70 0.9013762
537.80 0.9011161
537.90 0.9008562
538.00 0.9005963
538.10 0.9003366
538.20 0.900077
538.30 0.8998176
538.40 0.8995583
538.50 0.8992991
538.60 0.89904
538.70 0.8987811
538.80 0.8985223
538.90 0.8982636
539.00 0.8980051
539.10 0.8977467
539.20 0.8974884
539.30 0.8972303
539.40 0.8969723
539.50 0.8967144
539.60 0.8964566
539.70 0.896199
539.80 0.8959415
539.90 0.8956841
540.00 0.8954269
540.10 0.8951698
540.20 0.8949123
540.30 0.8946547
540.40 0.8943972
540.50 0.8941399
540.60 0.8938827
540.70 0.8936256
540.80 0.8933687
540.90 0.8931119
541.00 0.8928552
541.10 0.8925987
541.20 0.8923422
541.30 0.8920859
541.40 0.8918298
541.50 0.8915737
541.60 0.8913178
541.70 0.891062
541.80 0.8908064
541.90 0.8905509
542.00 0.8902955
542.10 0.8900402
542.20 0.8897851
542.30 0.8895301
542.40 0.8892752
542.50 0.8890204
542.60 0.8887658
542.70 0.8885113
542.80 0.8882569
542.90 0.8880026
543.00 0.8877485
543.10 0.8874945
543.20 0.8872407
543.30 0.8869869
543.40 0.8867333
543.50 0.8864798
543.60 0.8862265
543.70 0.8859732
543.80 0.8857201
543.90 0.8854671
544.00 0.8852143
544.10 0.8849615
544.20 0.8847089
544.30 0.8844565
544.40 0.8842041
544.50 0.8839519
544.60 0.8836998
544.70 0.8834478
544.80 0.8831959
544.90 0.8829442
545.00 0.8826926
545.10 0.8824411
545.20 0.8821898
545.30 0.8819386
545.40 0.8816875
545.50 0.8814365
545.60 0.8811851
545.70 0.8809337
545.80 0.8806824
545.90 0.8804311
546.00 0.8801801
546.10 0.8799291
546.20 0.8796783
546.30 0.8794276
546.40 0.879177
546.50 0.8789265
546.60 0.8786762
546.70 0.878426
546.80 0.8781759
546.90 0.877926
547.00 0.8776761
547.10 0.8774264
547.20 0.8771768
547.30 0.8769274
547.40 0.876678
547.50 0.8764288
547.60 0.8761797
547.70 0.8759308
547.80 0.8756819
547.90 0.8754332
548.00 0.8751846
548.10 0.8749361
548.20 0.8746878
548.30 0.8744321
548.40 0.8741663
548.50 0.8739007
548.60 0.8736352
548.70 0.8733698
548.80 0.8731046
548.90 0.8728395
549.00 0.8725745
549.10 0.8723097
549.20 0.872045
549.30 0.8717805
549.40 0.871516
549.50 0.8712517
549.60 0.8709876
549.70 0.8707236
549.80 0.8704597
549.90 0.8701959
550.00 0.8699323
550.10 0.8696688
550.20 0.8694055
550.30 0.8691423
550.40 0.8688792
550.50 0.8686162
550.60 0.8683534
550.70 0.8680907
550.80 0.8678282
550.90 0.8675658
551.00 0.867306
551.10 0.8670607
551.20 0.8668155
551.30 0.8665704
551.40 0.8663254
551.50 0.8660806
551.60 0.8658358
551.70 0.8655912
551.80 0.8653467
551.90 0.8651024
552.00 0.8648581
552.10 0.864614
552.20 0.86437
552.30 0.8641261
552.40 0.8638823
552.50 0.8636387
552.60 0.8633952
552.70 0.8631517
552.80 0.8629085
552.90 0.8626653
553.00 0.8624222
553.10 0.8621793
553.20 0.8619365
553.30 0.8616938
553.40 0.8614512
553.50 0.8612088
553.60 0.8609664
553.70 0.8607242
553.80 0.8604718
553.90 0.8602127
554.00 0.8599536
554.10 0.8596948
554.20 0.859436
554.30 0.8591774
554.40 0.8589189
554.50 0.8586605
554.60 0.8584023
554.70 0.8581442
554.80 0.8578862
554.90 0.8576284
555.00 0.8573707
555.10 0.8571131
555.20 0.8568556
555.30 0.8565983
555.40 0.8563411
555.50 0.856084
555.60 0.8558271
555.70 0.8555703
555.80 0.8553136
555.90 0.8550571
556.00 0.8548007
556.10 0.8545444
556.20 0.8542882
556.30 0.8540322
556.40 0.8537763
556.50 0.8535205
556.60 0.8532644
556.70 0.8530083
556.80 0.8527525
556.90 0.8524967
557.00 0.8522411
557.10 0.8519856
557.20 0.8517302
557.30 0.8514749
557.40 0.8512198
557.50 0.8509648
557.60 0.85071
557.70 0.8504552
557.80 0.8502006
557.90 0.8499462
558.00 0.8496918
558.10 0.8494376
558.20 0.8491835
558.30 0.8489295
558.40 0.8486757
558.50 0.848422
558.60 0.8481684
558.70 0.8479149
558.80 0.8476616
558.90 0.8474084
559.00 0.8471553
559.10 0.8469024
559.20 0.8466495
559.30 0.8463968
559.40 0.8461443
559.50 0.8458918
559.60 0.8456395
559.70 0.8453873
559.80 0.8451353
559.90 0.8448833
560.00 0.8446315
560.10 0.8443798
560.20 0.8441283
560.30 0.8438768
560.40 0.8436255
560.50 0.8433743
560.60 0.8431233
560.70 0.8428723
560.80 0.8426215
560.90 0.8423709
561.00 0.8421203
561.10 0.8418699
561.20 0.8416196
561.30 0.8413694
561.40 0.8411193
561.50 0.8408694
561.60 0.8406196
561.70 0.8403699
561.80 0.8401203
561.90 0.8398709
562.00 0.8396216
562.10 0.8393722
562.20 0.8391227
562.30 0.8388732
562.40 0.8386239
562.50 0.8383747
562.60 0.8381256
562.70 0.8378767
562.80 0.8376279
562.90 0.8373792
563.00 0.8371306
563.10 0.8368822
563.20 0.8366339
563.30 0.8363857
563.40 0.8361376
563.50 0.8358896
563.60 0.8356418
563.70 0.8353941
563.80 0.8351465
563.90 0.834899
564.00 0.8346517
564.10 0.8344045
564.20 0.8341574
564.30 0.8339104
564.40 0.8336636
564.50 0.8334169
564.60 0.8331703
564.70 0.8329238
564.80 0.8326774
564.90 0.8324312
565.00 0.8321851
565.10 0.8319391
565.20 0.8316933
565.30 0.8314476
565.40 0.831202
565.50 0.8309565
565.60 0.8307111
565.70 0.8304659
565.80 0.8302207
565.90 0.8299757
566.00 0.8297309
566.10 0.8294861
566.20 0.8292415
566.30 0.828997
566.40 0.8287526
566.50 0.8285083
566.60 0.8282641
566.70 0.8280201
566.80 0.8277762
566.90 0.8275324
567.00 0.8272887
567.10 0.8270452
567.20 0.8268018
567.30 0.8265585
567.40 0.8263153
567.50 0.8260722
567.60 0.8258293
567.70 0.8255848
567.80 0.8253337
567.90 0.8250827
568.00 0.8248318
568.10 0.8245811
568.20 0.8243305
568.30 0.82408
568.40 0.8238296
568.50 0.8235794
568.60 0.8233293
568.70 0.8230793
568.80 0.8228294
568.90 0.8225797
569.00 0.82233
569.10 0.8220805
569.20 0.8218312
569.30 0.8215819
569.40 0.8213328
569.50 0.8210838
569.60 0.8208349
569.70 0.8205862
569.80 0.8203376
569.90 0.8200891
570.00 0.8198407
570.10 0.8195924
570.20 0.8193443
570.30 0.8190963
570.40 0.8188484
570.50 0.8186007
570.60 0.818353
570.70 0.8181055
570.80 0.8178581
570.90 0.8176109
571.00 0.8173637
571.10 0.8171167
571.20 0.8168698
571.30 0.816623
571.40 0.8163764
571.50 0.8161299
571.60 0.8158834
571.70 0.8156372
571.80 0.815391
571.90 0.815145
572.00 0.814899
572.10 0.8146533
572.20 0.8144076
572.30 0.814162
572.40 0.8139166
572.50 0.8136713
572.60 0.8134261
572.70 0.813181
572.80 0.8129361
572.90 0.8126913
573.00 0.8124466
573.10 0.812202
573.20 0.8119576
573.30 0.8117132
573.40 0.8114703
573.50 0.8112293
573.60 0.8109885
573.70 0.8107478
573.80 0.8105071
573.90 0.8102666
574.00 0.8100263
574.10 0.809786
574.20 0.8095459
574.30 0.8093058
574.40 0.8090659
574.50 0.8088261
574.60 0.8085865
574.70 0.8083469
574.80 0.8081075
574.90 0.8078682
575.00 0.807629
575.10 0.8073899
575.20 0.8071509
575.30 0.8069121
575.40 0.8066733
575.50 0.8064347
575.60 0.8061962
575.70 0.8059578
575.80 0.8057196
575.90 0.8054814
576.00 0.8052434
576.10 0.8050055
576.20 0.8047677
576.30 0.80453
576.40 0.8042925
576.50 0.804055
576.60 0.8038177
576.70 0.8035805
576.80 0.8033434
576.90 0.8031064
577.00 0.8028695
577.10 0.8026328
577.20 0.8023961
577.30 0.8021596
577.40 0.8019232
577.50 0.8016869
577.60 0.8014458
577.70 0.8011969
577.80 0.800948
577.90 0.8006992
578.00 0.8004506
578.10 0.8002021
578.20 0.7999538
578.30 0.7997055
578.40 0.7994574
578.50 0.7992094
578.60 0.7989615
578.70 0.7987138
578.80 0.7984661
578.90 0.7982186
579.00 0.7979713
579.10 0.7977255
579.20 0.7974946
579.30 0.7972638
579.40 0.7970332
579.50 0.7968026
579.60 0.7965722
579.70 0.7963419
579.80 0.7961117
579.90 0.7958816
580.00 0.7956516
580.10 0.7954131
580.20 0.7951605
580.30 0.794908
580.40 0.7946556
580.50 0.7944034
580.60 0.7941513
580.70 0.7938994
580.80 0.7936475
580.90 0.7933958
581.00 0.7931442
581.10 0.7928928
581.20 0.7926414
581.30 0.7923902
581.40 0.7921391
581.50 0.7918882
581.60 0.7916373
581.70 0.7913866
581.80 0.791136
581.90 0.7908856
582.00 0.7906352
582.10 0.7903986
582.20 0.7901842
582.30 0.7899699
582.40 0.7897557
582.50 0.7895416
582.60 0.7893276
582.70 0.7891137
582.80 0.7888999
582.90 0.7886862
583.00 0.7884726
583.10 0.7882591
583.20 0.7880457
583.30 0.7878324
583.40 0.7876192
583.50 0.7874061
583.60 0.7871838
583.70 0.7869464
583.80 0.7867091
583.90 0.7864719
584.00 0.7862348
584.10 0.7859979
584.20 0.785761
584.30 0.7855243
584.40 0.7852877
584.50 0.7850512
584.60 0.7848148
584.70 0.7845786
584.80 0.7843424
584.90 0.7841006
585.00 0.7838326
585.10 0.7835647
585.20 0.7832969
585.30 0.7830292
585.40 0.7827618
585.50 0.7824944
585.60 0.7822272
585.70 0.7819601
585.80 0.7816931
585.90 0.7814263
586.00 0.7811596
586.10 0.7808931
586.20 0.7806535
586.30 0.7804576
586.40 0.7802618
586.50 0.780066
586.60 0.7798704
586.70 0.7796749
586.80 0.7794527
586.90 0.7791871
587.00 0.7789216
587.10 0.7786563
587.20 0.7783911
587.30 0.7781261
587.40 0.7778612
587.50 0.7775964
587.60 0.7773317
587.70 0.7770672
587.80 0.777223
587.90 0.7769586
588.00 0.7766943
588.10 0.7764302
588.20 0.7761662
588.30 0.7759024
588.40 0.7756387
588.50 0.7753751
588.60 0.7751117
588.70 0.7748484
588.80 0.7745852
588.90 0.7743222
589.00 0.7740751
589.10 0.7738542
589.20 0.7736334
589.30 0.7734126
589.40 0.773192
589.50 0.7729715
589.60 0.772751
589.70 0.7725307
589.80 0.7723105
589.90 0.7720904
590.00 0.7718545
590.10 0.771593
590.20 0.7713315
590.30 0.7710702
590.40 0.770809
590.50 0.770548
590.60 0.7702871
590.70 0.7700263
590.80 0.7698002
590.90 0.7695896
591.00 0.7693792
591.10 0.7691689
591.20 0.7689587
591.30 0.7687486
591.40 0.7685386
591.50 0.7683287
591.60 0.7681104
591.70 0.7678785
591.80 0.7676466
591.90 0.7674149
592.00 0.7671832
592.10 0.7669517
592.20 0.7667203
592.30 0.766489
592.40 0.7662578
592.50 0.7660268
592.60 0.7657958
592.70 0.765565
592.80 0.7653343
592.90 0.7651036
593.00 0.7648731
593.10 0.7646401
593.20 0.764403
593.30 0.7641659
593.40 0.763929
593.50 0.7636922
593.60 0.7634555
593.70 0.763219
593.80 0.7629825
593.90 0.7627462
594.00 0.7625099
594.10 0.7622738
594.20 0.7620378
594.30 0.7618019
594.40 0.7615662
594.50 0.7613305
594.60 0.761095
594.70 0.7608596
594.80 0.7606243
594.90 0.7603891
595.00 0.760154
595.10 0.7599212
595.20 0.7596918
595.30 0.7594626
595.40 0.7592335
595.50 0.7590045
595.60 0.7587756
595.70 0.7585469
595.80 0.7583182
595.90 0.7580896
596.00 0.7578612
596.10 0.7576329
596.20 0.7574046
596.30 0.7571765
596.40 0.7569485
596.50 0.7567206
596.60 0.7564929
596.70 0.7562492
596.80 0.7559957
596.90 0.7557425
597.00 0.7554893
597.10 0.7552363
597.20 0.7549834
597.30 0.7547306
597.40 0.7544779
597.50 0.7542254
597.60 0.7539819
597.70 0.753753
597.80 0.7535242
597.90 0.7532955
598.00 0.753067
598.10 0.7528385
598.20 0.7526102
598.30 0.752382
598.40 0.7521538
598.50 0.7519258
598.60 0.7516979
598.70 0.7514701
598.80 0.7512425
598.90 0.7510149
599.00 0.7507874
599.10 0.7505601
599.20 0.7503329
599.30 0.7501057
599.40 0.7498757
599.50 0.7496457
599.60 0.7494159
599.70 0.7491861
599.80 0.7489565
599.90 0.748727
600.00 0.7484976
600.10 0.7482683
600.20 0.7480392
600.30 0.7478101
600.40 0.7475812
600.50 0.7473523
600.60 0.7471236
600.70 0.746895
600.80 0.7466665
600.90 0.7464381
601.00 0.7462098
601.10 0.7459816
601.20 0.7457536
601.30 0.7455256
601.40 0.7453084
601.50 0.7450914
601.60 0.7448744
601.70 0.7446576
601.80 0.7444409
601.90 0.7442242
602.00 0.7440077
602.10 0.7437912
602.20 0.7435749
602.30 0.7433587
602.40 0.7431426
602.50 0.7429265
602.60 0.7427106
602.70 0.7424657
602.80 0.7422194
602.90 0.7419732
603.00 0.7417271
603.10 0.7414812
603.20 0.7412353
603.30 0.7409896
603.40 0.740744
603.50 0.7404986
603.60 0.7402532
603.70 0.740008
603.80 0.7397629
603.90 0.7395179
604.00 0.7392731
604.10 0.7390284
604.20 0.7387837
604.30 0.7385393
604.40 0.7382949
604.50 0.7380904
604.60 0.7378859
604.70 0.7376816
604.80 0.7374774
604.90 0.7372732
605.00 0.7370692
605.10 0.7368652
605.20 0.7366614
605.30 0.7364576
605.40 0.7362539
605.50 0.7360108
605.60 0.7357677
605.70 0.7355248
605.80 0.735282
605.90 0.7350393
606.00 0.7347967
606.10 0.7345543
606.20 0.7343119
606.30 0.7340697
606.40 0.7338276
606.50 0.7335857
606.60 0.7333438
606.70 0.7331021
606.80 0.7328605
606.90 0.732619
607.00 0.7323776
607.10 0.7323333
607.20 0.732289
607.30 0.7320478
607.40 0.7318068
607.50 0.7315659
607.60 0.7313251
607.70 0.7310844
607.80 0.7308439
607.90 0.7306035
608.00 0.7303631
608.10 0.730123
608.20 0.7298829
608.30 0.7296429
608.40 0.7294031
608.50 0.7291634
608.60 0.7289238
608.70 0.7286843
608.80 0.7284449
608.90 0.7282057
609.00 0.7279666
609.10 0.7277275
609.20 0.7274886
609.30 0.7272743
609.40 0.7270601
609.50 0.7268459
609.60 0.7266319
609.70 0.726418
609.80 0.7262041
609.90 0.7259904
610.00 0.7257768
610.10 0.7255633
610.20 0.7253498
610.30 0.7251365
610.40 0.7249233
610.50 0.7247101
610.60 0.7244971
610.70 0.7242842
610.80 0.7240714
610.90 0.7238343
611.00 0.7235974
611.10 0.7233606
611.20 0.723124
611.30 0.7228874
611.40 0.7226509
611.50 0.7224146
611.60 0.7221784
611.70 0.7219423
611.80 0.7217063
611.90 0.7214704
612.00 0.7212347
612.10 0.720999
612.20 0.7207635
612.30 0.7205281
612.40 0.7203122
612.50 0.7200963
612.60 0.7198806
612.70 0.7196649
612.80 0.7194494
612.90 0.719234
613.00 0.7190187
613.10 0.7188034
613.20 0.7185883
613.30 0.7183733
613.40 0.7181584
613.50 0.7179436
613.60 0.7177288
613.70 0.7175142
613.80 0.7172997
613.90 0.7170853
614.00 0.716871
614.10 0.7166568
614.20 0.7164427
614.30 0.7162287
614.40 0.7159956
614.50 0.7157625
614.60 0.7155296
614.70 0.7152969
614.80 0.7150795
614.90 0.7148653
615.00 0.7146513
615.10 0.7144374
615.20 0.7142236
615.30 0.7140098
615.40 0.7137962
615.50 0.7135827
615.60 0.7133692
615.70 0.7131559
615.80 0.7129427
615.90 0.7127296
616.00 0.7125165
616.10 0.7123036
616.20 0.7120908
616.30 0.7118781
616.40 0.7116655
616.50 0.7114529
616.60 0.7112405
616.70 0.7110282
616.80 0.710816
616.90 0.7105856
617.00 0.7103552
617.10 0.710125
617.20 0.7098949
617.30 0.709665
617.40 0.7094351
617.50 0.7092053
617.60 0.7089757
617.70 0.7087462
617.80 0.7085167
617.90 0.7082874
618.00 0.7080582
618.10 0.7078291
618.20 0.7076002
618.30 0.7073713
618.40 0.7071425
618.50 0.7069139
618.60 0.7066854
618.70 0.7064569
618.80 0.7062286
618.90 0.7060004
619.00 0.7057723
619.10 0.7055443
619.20 0.7053165
619.30 0.7050887
619.40 0.7048611
619.50 0.7046335
619.60 0.7044061
619.70 0.7041788
619.80 0.7039516
619.90 0.7037245
620.00 0.7034975
620.10 0.7032706
620.20 0.7030438
620.30 0.7028172
620.40 0.7025906
620.50 0.7023642
620.60 0.7021378
620.70 0.7019116
620.80 0.7016855
620.90 0.7014617
621.00 0.7012418
621.10 0.7010221
621.20 0.7008025
621.30 0.700583
621.40 0.7003636
621.50 0.7001443
621.60 0.6999251
621.70 0.699706
621.80 0.699487
621.90 0.6992681
622.00 0.6990493
622.10 0.6988306
622.20 0.698612
622.30 0.6983936
622.40 0.6981752
622.50 0.6979569
622.60 0.6977388
622.70 0.6975207
622.80 0.6973028
622.90 0.6970849
623.00 0.6968672
623.10 0.6966495
623.20 0.696432
623.30 0.6962146
623.40 0.6959973
623.50 0.69578
623.60 0.6955629
623.70 0.6953459
623.80 0.695129
623.90 0.6949122
624.00 0.6946955
624.10 0.6944789
624.20 0.6942624
624.30 0.694046
624.40 0.6938297
624.50 0.6936135
624.60 0.6933974
624.70 0.6931814
624.80 0.6929655
624.90 0.6927497
625.00 0.6925341
625.10 0.6923185
625.20 0.692103
625.30 0.6918877
625.40 0.6916724
625.50 0.6914572
625.60 0.6912422
625.70 0.6910272
625.80 0.6908123
625.90 0.6905976
626.00 0.6903829
626.10 0.6901684
626.20 0.6899539
626.30 0.6897396
626.40 0.6895253
626.50 0.6893112
626.60 0.6890971
626.70 0.6888832
626.80 0.6886693
626.90 0.6884556
627.00 0.688242
627.10 0.68803
627.20 0.6878224
627.30 0.6876149
627.40 0.6874075
627.50 0.6872002
627.60 0.6869929
627.70 0.6867858
627.80 0.6865788
627.90 0.6863719
628.00 0.686165
628.10 0.6859583
628.20 0.6857516
628.30 0.6855451
628.40 0.6853387
628.50 0.6851323
628.60 0.6849261
628.70 0.6847199
628.80 0.6845138
628.90 0.6843079
629.00 0.684102
629.10 0.6838962
629.20 0.6836906
629.30 0.683485
629.40 0.6832795
629.50 0.6830741
629.60 0.6828688
629.70 0.6826637
629.80 0.6824586
629.90 0.6822536
630.00 0.6820486
630.10 0.6818438
630.20 0.6816391
630.30 0.6814238
630.40 0.6812076
630.50 0.6809915
630.60 0.6807756
630.70 0.6805597
630.80 0.680344
630.90 0.6801283
631.00 0.6799127
631.10 0.6796973
631.20 0.6794819
631.30 0.6792667
631.40 0.6790516
631.50 0.6788365
631.60 0.6786216
631.70 0.6784067
631.80 0.678192
631.90 0.6779774
632.00 0.6777628
632.10 0.6775484
632.20 0.6773341
632.30 0.6771198
632.40 0.6769057
632.50 0.6766917
632.60 0.6764778
632.70 0.6762639
632.80 0.6760502
632.90 0.6758366
633.00 0.6756231
633.10 0.6754097
633.20 0.6751964
633.30 0.6749831
633.40 0.67477
633.50 0.674557
633.60 0.6743441
633.70 0.6741313
633.80 0.6739186
633.90 0.673706
634.00 0.6734935
634.10 0.6732811
634.20 0.6730687
634.30 0.6728565
634.40 0.6726444
634.50 0.6724324
634.60 0.6722205
634.70 0.6720087
634.80 0.671797
634.90 0.6715854
635.00 0.6713739
635.10 0.6711625
635.20 0.6709512
635.30 0.67074
635.40 0.6705289
635.50 0.6703179
635.60 0.670107
635.70 0.6698961
635.80 0.6696854
635.90 0.6694748
636.00 0.6692643
636.10 0.6690539
636.20 0.6688436
636.30 0.6686334
636.40 0.6684233
636.50 0.6682133
636.60 0.6680033
636.70 0.6677935
636.80 0.6675838
636.90 0.6673742
637.00 0.6671647
637.10 0.6669552
637.20 0.6667459
637.30 0.6665367
637.40 0.6663276
637.50 0.6661185
637.60 0.6659096
637.70 0.6657008
637.80 0.665492
637.90 0.6652834
638.00 0.6650749
638.10 0.6648664
638.20 0.6646581
638.30 0.6644499
638.40 0.6642417
638.50 0.6640337
638.60 0.6638257
638.70 0.6636179
638.80 0.6634101
638.90 0.6632025
639.00 0.6629949
639.10 0.6627874
639.20 0.6625801
639.30 0.6623728
639.40 0.6621656
639.50 0.6619586
639.60 0.6617516
639.70 0.6615447
639.80 0.6613379
639.90 0.6611312
640.00 0.6609247
640.10 0.6607182
640.20 0.6605118
640.30 0.6603055
640.40 0.6600993
640.50 0.6598932
640.60 0.6596872
640.70 0.6594813
640.80 0.6592754
640.90 0.6590697
641.00 0.6588641
641.10 0.6586586
641.20 0.6584531
641.30 0.6582478
641.40 0.6580426
641.50 0.6578374
641.60 0.6576324
641.70 0.6574274
641.80 0.6572226
641.90 0.6570178
642.00 0.6568132
642.10 0.6566086
642.20 0.6564041
642.30 0.6561997
642.40 0.6559955
642.50 0.6557913
642.60 0.6555872
642.70 0.6553832
642.80 0.6551793
642.90 0.6549755
643.00 0.6547718
643.10 0.6545682
643.20 0.6543646
643.30 0.6541612
643.40 0.6539579
643.50 0.6537547
643.60 0.6535515
643.70 0.6533485
643.80 0.6531455
643.90 0.6529427
644.00 0.6527399
644.10 0.6525372
644.20 0.6523347
644.30 0.6521322
644.40 0.6519298
644.50 0.6517275
644.60 0.6515253
644.70 0.6513232
644.80 0.6511212
644.90 0.6509193
645.00 0.6507175
645.10 0.6505158
645.20 0.6503141
645.30 0.6501126
645.40 0.6499111
645.50 0.6497098
645.60 0.6495085
645.70 0.6493074
645.80 0.6491063
645.90 0.6489053
646.00 0.6487044
646.10 0.6485008
646.20 0.6482894
646.30 0.648078
646.40 0.6478668
646.50 0.6476556
646.60 0.6474445
646.70 0.6472336
646.80 0.6470227
646.90 0.646812
647.00 0.6466013
647.10 0.6463907
647.20 0.6461803
647.30 0.6459699
647.40 0.6457596
647.50 0.6455495
647.60 0.6453394
647.70 0.6451294
647.80 0.6449196
647.90 0.6447098
648.00 0.6445001
648.10 0.6442906
648.20 0.6440811
648.30 0.6438717
648.40 0.6436624
648.50 0.6434533
648.60 0.6432442
648.70 0.6430352
648.80 0.6428263
648.90 0.6426175
649.00 0.6424088
649.10 0.6422002
649.20 0.6419918
649.30 0.6417834
649.40 0.6415853
649.50 0.6413878
649.60 0.6411903
649.70 0.6409929
649.80 0.6407957
649.90 0.6405985
650.00 0.6404014
650.10 0.6402044
650.20 0.6400075
650.30 0.6398107
650.40 0.6396139
650.50 0.6394173
650.60 0.6392207
650.70 0.6390243
650.80 0.6388279
650.90 0.6386316
651.00 0.6384355
651.10 0.6382394
651.20 0.6380434
651.30 0.6378474
651.40 0.6376516
651.50 0.6374559
651.60 0.6372602
651.70 0.6370647
651.80 0.6368692
651.90 0.6366738
652.00 0.6364786
652.10 0.6362834
652.20 0.6360883
652.30 0.6358933
652.40 0.6356983
652.50 0.6355035
652.60 0.6353017
652.70 0.6350963
652.80 0.634891
652.90 0.6346858
653.00 0.6344806
653.10 0.6342756
653.20 0.6340707
653.30 0.6338658
653.40 0.6336611
653.50 0.6334564
653.60 0.6332519
653.70 0.6330474
653.80 0.632843
653.90 0.6326388
654.00 0.6324346
654.10 0.6322305
654.20 0.6320265
654.30 0.6318226
654.40 0.6316188
654.50 0.6314151
654.60 0.6312115
654.70 0.631008
654.80 0.6308046
654.90 0.6306013
655.00 0.6303981
655.10 0.6301949
655.20 0.6299919
655.30 0.629789
655.40 0.6295861
655.50 0.6293834
655.60 0.6291807
655.70 0.6289781
655.80 0.6287863
655.90 0.6285946
656.00 0.628403
656.10 0.6282114
656.20 0.62802
656.30 0.6278286
656.40 0.6276373
656.50 0.6274462
656.60 0.627255
656.70 0.627064
656.80 0.6268731
656.90 0.6266823
657.00 0.6264915
657.10 0.6263008
657.20 0.6261102
657.30 0.6259198
657.40 0.6257293
657.50 0.625539
657.60 0.6253488
657.70 0.6251586
657.80 0.6249686
657.90 0.6247786
658.00 0.6245887
658.10 0.6243989
658.20 0.6242092
658.30 0.6240196
658.40 0.62383
658.50 0.6236406
658.60 0.6234512
658.70 0.6232619
658.80 0.6230727
658.90 0.6228836
659.00 0.6226946
659.10 0.6225056
659.20 0.6223168
659.30 0.6220981
659.40 0.6218795
659.50 0.621661
659.60 0.6214426
659.70 0.6212243
659.80 0.6210061
659.90 0.620788
660.00 0.62057
660.10 0.6203521
660.20 0.6201343
660.30 0.6199166
660.40 0.6197244
660.50 0.6195368
660.60 0.6193492
660.70 0.6191618
660.80 0.6189744
660.90 0.6187871
661.00 0.6185999
661.10 0.6184127
661.20 0.6182257
661.30 0.6180387
661.40 0.6178519
661.50 0.6176651
661.60 0.6174784
661.70 0.6172917
661.80 0.6171052
661.90 0.6169188
662.00 0.6167324
662.10 0.6165461
662.20 0.6163599
662.30 0.6161738
662.40 0.6159878
662.50 0.6158018
662.60 0.615616
662.70 0.6154302
662.80 0.6152445
662.90 0.6150589
663.00 0.6148734
663.10 0.6146879
663.20 0.6145026
663.30 0.6143173
663.40 0.6141321
663.50 0.613947
663.60 0.613762
663.70 0.613577
663.80 0.6133922
663.90 0.6132074
664.00 0.6130227
664.10 0.6127833
664.20 0.6125439
664.30 0.6123047
664.40 0.6120656
664.50 0.6118266
664.60 0.6115877
664.70 0.6114037
664.80 0.6112198
664.90 0.611036
665.00 0.6108522
665.10 0.6106685
665.20 0.6104849
665.30 0.6103014
665.40 0.610118
665.50 0.6099347
665.60 0.6097514
665.70 0.6095682
665.80 0.6093851
665.90 0.6092021
666.00 0.6090192
666.10 0.6088363
666.20 0.6086536
666.30 0.6084709
666.40 0.6082883
666.50 0.6081058
666.60 0.6079233
666.70 0.607741
666.80 0.6075587
666.90 0.6073765
667.00 0.6071944
667.10 0.6070124
667.20 0.6068304
667.30 0.6066486
667.40 0.6064668
667.50 0.6061466
667.60 0.6058022
667.70 0.6055964
667.80 0.605415
667.90 0.6052337
668.00 0.6050525
668.10 0.6048714
668.20 0.6046904
668.30 0.6045094
668.40 0.6043286
668.50 0.6041478
668.60 0.6039671
668.70 0.6037865
668.80 0.6036059
668.90 0.6034254
669.00 0.6032451
669.10 0.6030648
669.20 0.6028845
669.30 0.6027044
669.40 0.6025243
669.50 0.6023444
669.60 0.6021645
669.70 0.6019846
669.80 0.6018049
669.90 0.6016252
670.00 0.6014457
670.10 0.6012662
670.20 0.6010868
670.30 0.6009074
670.40 0.6007282
670.50 0.600549
670.60 0.6003699
670.70 0.6001909
670.80 0.599983
670.90 0.5997753
671.00 0.5995676
671.10 0.59936
671.20 0.5991525
671.30 0.5989451
671.40 0.5987379
671.50 0.5985307
671.60 0.5983236
671.70 0.5981166
671.80 0.5979097
671.90 0.5977274
672.00 0.5975495
672.10 0.5973717
672.20 0.597194
672.30 0.5970164
672.40 0.5968388
672.50 0.5966613
672.60 0.5964839
672.70 0.5963066
672.80 0.5961293
672.90 0.5959522
673.00 0.5957751
673.10 0.5955981
673.20 0.5954211
673.30 0.5952443
673.40 0.5950539
673.50 0.5948612
673.60 0.5946686
673.70 0.5944761
673.80 0.5942837
673.90 0.5940913
674.00 0.5938991
674.10 0.5937069
674.20 0.5935148
674.30 0.5933228
674.40 0.5931309
674.50 0.5929391
674.60 0.5927474
674.70 0.5925558
674.80 0.5923642
674.90 0.5921727
675.00 0.5919814
675.10 0.5917901
675.20 0.5915989
675.30 0.5914078
675.40 0.5912195
675.50 0.5910317
675.60 0.590844
675.70 0.5906564
675.80 0.5904689
675.90 0.5902815
676.00 0.5900942
676.10 0.5899069
676.20 0.5897198
676.30 0.5895327
676.40 0.5893457
676.50 0.5891588
676.60 0.588972
676.70 0.5887852
676.80 0.5885986
676.90 0.588412
677.00 0.5882255
677.10 0.5880391
677.20 0.5878528
677.30 0.5876666
677.40 0.5874804
677.50 0.5872944
677.60 0.5871084
677.70 0.5869225
677.80 0.5867367
677.90 0.5865396
678.00 0.5863406
678.10 0.5861417
678.20 0.5859429
678.30 0.5857442
678.40 0.5855455
678.50 0.585347
678.60 0.5851485
678.70 0.5849502
678.80 0.5847519
678.90 0.5845538
679.00 0.5843557
679.10 0.5841693
679.20 0.5839881
679.30 0.5838069
679.40 0.5836258
679.50 0.5834447
679.60 0.5832638
679.70 0.5830829
679.80 0.5829021
679.90 0.5827214
680.00 0.5825408
680.10 0.5823603
680.20 0.5821798
680.30 0.5819994
680.40 0.5818191
680.50 0.5816389
680.60 0.5814588
680.70 0.5812787
680.80 0.5810987
680.90 0.5809188
681.00 0.580739
681.10 0.5805593
681.20 0.5803796
681.30 0.5802001
681.40 0.5800206
681.50 0.5798412
681.60 0.5796618
681.70 0.5794826
681.80 0.5793034
681.90 0.5791243
682.00 0.5789453
682.10 0.5787664
682.20 0.5785875
682.30 0.5784088
682.40 0.5782301
682.50 0.5780515
682.60 0.5778729
682.70 0.5776945
682.80 0.5775161
682.90 0.5773378
683.00 0.5771596
683.10 0.5769815
683.20 0.5768034
683.30 0.5766254
683.40 0.5764475
683.50 0.5762697
683.60 0.576092
683.70 0.5759143
683.80 0.5757368
683.90 0.5755593
684.00 0.5753818
684.10 0.5752045
684.20 0.5750272
684.30 0.5748501
684.40 0.574673
684.50 0.5744959
684.60 0.574319
684.70 0.5741421
684.80 0.5739653
684.90 0.5737886
685.00 0.573612
685.10 0.5734354
685.20 0.573259
685.30 0.5730826
685.40 0.5729063
685.50 0.57273
685.60 0.5725539
685.70 0.5723778
685.80 0.5722018
685.90 0.5720187
686.00 0.571834
686.10 0.5716493
686.20 0.5714648
686.30 0.5712803
686.40 0.5710959
686.50 0.5709115
686.60 0.5707273
686.70 0.5705431
686.80 0.570359
686.90 0.570175
687.00 0.5699911
687.10 0.5698073
687.20 0.5696235
687.30 0.5694399
687.40 0.5692563
687.50 0.5690728
687.60 0.5688894
687.70 0.5687061
687.80 0.5685228
687.90 0.5683396
688.00 0.5681565
688.10 0.5679735
688.20 0.5677906
688.30 0.5676078
688.40 0.567425
688.50 0.5672423
688.60 0.5670598
688.70 0.5668772
688.80 0.5666948
688.90 0.5665125
689.00 0.5663302
689.10 0.566148
689.20 0.5659659
689.30 0.5657839
689.40 0.565602
689.50 0.5654201
689.60 0.5652383
689.70 0.5650566
689.80 0.564875
689.90 0.5646935
690.00 0.5645121
690.10 0.5643307
690.20 0.5641494
690.30 0.5639682
690.40 0.5637871
690.50 0.563606
690.60 0.5634251
690.70 0.5632442
690.80 0.5630634
690.90 0.5628827
691.00 0.5627021
691.10 0.5625215
691.20 0.562341
691.30 0.5621606
691.40 0.5619803
691.50 0.5618001
691.60 0.5616199
691.70 0.5614399
691.80 0.5612599
691.90 0.56108
692.00 0.5609001
692.10 0.5607204
692.20 0.5605407
692.30 0.5603611
692.40 0.5601816
692.50 0.5600022
692.60 0.5598229
692.70 0.559644
692.80 0.5594667
692.90 0.5592895
693.00 0.5591123
693.10 0.5589353
693.20 0.5587583
693.30 0.5585814
693.40 0.5584046
693.50 0.5582278
693.60 0.5580511
693.70 0.5578746
693.80 0.557698
693.90 0.5575216
694.00 0.5573453
694.10 0.557169
694.20 0.5569928
694.30 0.5568167
694.40 0.5566406
694.50 0.5564647
694.60 0.5562888
694.70 0.556113
694.80 0.5559372
694.90 0.5557616
695.00 0.555586
695.10 0.5554105
695.20 0.5552351
695.30 0.5550598
695.40 0.5548845
695.50 0.5547093
695.60 0.5545342
695.70 0.5543592
695.80 0.5541843
695.90 0.5540094
696.00 0.5538346
696.10 0.5536599
696.20 0.5534852
696.30 0.5533107
696.40 0.5531362
696.50 0.5529618
696.60 0.5527904
696.70 0.5526197
696.80 0.5524492
696.90 0.5522787
697.00 0.5521083
697.10 0.5519379
697.20 0.5517677
697.30 0.5515975
697.40 0.5514274
697.50 0.5512573
697.60 0.5510874
697.70 0.5509175
697.80 0.5507477
697.90 0.5505779
698.00 0.5504083
698.10 0.5502387
698.20 0.5500692
698.30 0.5498997
698.40 0.5497304
698.50 0.5495611
698.60 0.5493918
698.70 0.5492227
698.80 0.5490536
698.90 0.5488846
699.00 0.5487157
699.10 0.5485565
699.20 0.5483996
699.30 0.5482428
699.40 0.548086
699.50 0.5479293
699.60 0.5477727
699.70 0.5475962
699.80 0.5474187
699.90 0.5472414
700.00 0.5470641
700.10 0.5468869
700.20 0.5467097
700.30 0.5465327
700.40 0.5463557
700.50 0.5461788
700.60 0.546002
700.70 0.5458252
700.80 0.5456486
700.90 0.545472
701.00 0.5452955
701.10 0.54512
701.20 0.5449449
701.30 0.5447698
701.40 0.5445948
701.50 0.5444199
701.60 0.544245
701.70 0.5440703
701.80 0.5438956
701.90 0.543721
702.00 0.5435464
702.10 0.543372
702.20 0.5431976
702.30 0.5430233
702.40 0.5428491
702.50 0.5426749
702.60 0.5425019
702.70 0.5423291
702.80 0.5421564
702.90 0.5419838
703.00 0.5418112
703.10 0.5416388
703.20 0.5414664
703.30 0.5412941
703.40 0.5411219
703.50 0.5409497
703.60 0.5407776
703.70 0.5406056
703.80 0.5404337
703.90 0.5402618
704.00 0.5400901
704.10 0.5399184
704.20 0.5397378
704.30 0.5395553
704.40 0.5393729
704.50 0.5391905
704.60 0.5390082
704.70 0.538826
704.80 0.5386439
704.90 0.5384619
705.00 0.53828
705.10 0.5380981
705.20 0.5379399
705.30 0.5377874
705.40 0.5376349
705.50 0.5374825
705.60 0.5373302
705.70 0.5371779
705.80 0.5370257
705.90 0.5368736
706.00 0.5367215
706.10 0.5365695
706.20 0.5364175
706.30 0.5362657
706.40 0.5361138
706.50 0.5359621
706.60 0.5355197
706.70 0.5353681
706.80 0.5352166
706.90 0.5350652
707.00 0.5349139
707.10 0.5347626
707.20 0.5346114
707.30 0.5344602
707.40 0.5343091
707.50 0.5341581
707.60 0.5340071
707.70 0.5338562
707.80 0.5337054
707.90 0.5335546
708.00 0.5333804
708.10 0.5332008
708.20 0.5330213
708.30 0.5328419
708.40 0.5326626
708.50 0.5324833
708.60 0.5323041
708.70 0.532125
708.80 0.531946
708.90 0.531767
709.00 0.5315969
709.10 0.5314289
709.20 0.531261
709.30 0.5310932
709.40 0.5309255
709.50 0.5307578
709.60 0.5305902
709.70 0.5304227
709.80 0.5302552
709.90 0.5300878
710.00 0.5299205
710.10 0.5297533
710.20 0.5295861
710.30 0.529419
710.40 0.529252
710.50 0.5290851
710.60 0.5289173
710.70 0.5287493
710.80 0.5285813
710.90 0.5284135
711.00 0.5282457
711.10 0.528078
711.20 0.5279104
711.30 0.5277429
711.40 0.5275754
711.50 0.527408
711.60 0.5272406
711.70 0.5270734
711.80 0.5269062
711.90 0.5267391
712.00 0.526572
712.10 0.5264065
712.20 0.5262413
712.30 0.5260762
712.40 0.5259111
712.50 0.5257462
712.60 0.5255813
712.70 0.5254165
712.80 0.5252517
712.90 0.525087
713.00 0.5249224
713.10 0.5247579
713.20 0.5245934
713.30 0.524429
713.40 0.5242647
713.50 0.5241005
713.60 0.5239363
713.70 0.5237779
713.80 0.5236312
713.90 0.5234845
714.00 0.5233379
714.10 0.5231728
714.20 0.5230036
714.30 0.5228344
714.40 0.5226653
714.50 0.5224962
714.60 0.5223273
714.70 0.5221584
714.80 0.5219896
714.90 0.5218208
715.00 0.5216522
715.10 0.5214836
715.20 0.521315
715.30 0.5211466
715.40 0.5209782
715.50 0.5208099
715.60 0.5206417
715.70 0.5204735
715.80 0.5203055
715.90 0.5201375
716.00 0.5199695
716.10 0.5198017
716.20 0.5196339
716.30 0.5194662
716.40 0.5192985
716.50 0.519131
716.60 0.5189676
716.70 0.5188053
716.80 0.5186431
716.90 0.518481
717.00 0.5183189
717.10 0.5181569
717.20 0.5179949
717.30 0.517833
717.40 0.5176712
717.50 0.5175095
717.60 0.5173478
717.70 0.5171862
717.80 0.5170247
717.90 0.5168632
718.00 0.5167018
718.10 0.5165405
718.20 0.516376
718.30 0.5162097
718.40 0.5160435
718.50 0.5158774
718.60 0.5157113
718.70 0.5155453
718.80 0.5153794
718.90 0.5152136
719.00 0.5150478
719.10 0.5148821
719.20 0.5147165
719.30 0.5145509
719.40 0.5143855
719.50 0.5142201
719.60 0.5140547
719.70 0.5138895
719.80 0.5137243
719.90 0.5135592
720.00 0.5133941
720.10 0.5132291
720.20 0.5130642
720.30 0.5128994
720.40 0.5127346
720.50 0.51257
720.60 0.5124053
720.70 0.5122553
720.80 0.5121132
720.90 0.5119565
721.00 0.5117992
721.10 0.5116421
721.20 0.5114849
721.30 0.5113279
721.40 0.5111709
721.50 0.511014
721.60 0.5108571
721.70 0.5107004
721.80 0.5105436
721.90 0.510387
722.00 0.5102304
722.10 0.5100739
722.20 0.5099175
722.30 0.5097611
722.40 0.5096048
722.50 0.5094485
722.60 0.5092923
722.70 0.5091341
722.80 0.5089747
722.90 0.5088153
723.00 0.5086561
723.10 0.5084969
723.20 0.5083378
723.30 0.5081787
723.40 0.5080198
723.50 0.5078609
723.60 0.507702
723.70 0.5075432
723.80 0.5073845
723.90 0.5072259
724.00 0.5070673
724.10 0.5069088
724.20 0.5067511
724.30 0.5065939
724.40 0.5064368
724.50 0.5062797
724.60 0.5061227
724.70 0.5059658
724.80 0.5058089
724.90 0.5056521
725.00 0.5054953
725.10 0.5053387
725.20 0.505182
725.30 0.5050255
725.40 0.504869
725.50 0.5047126
725.60 0.5045563
725.70 0.5044
725.80 0.5042371
725.90 0.5040706
726.00 0.5039042
726.10 0.5037379
726.20 0.5035717
726.30 0.5034055
726.40 0.5032394
726.50 0.5030734
726.60 0.5029074
726.70 0.5027415
726.80 0.5025638
726.90 0.5023798
727.00 0.5021958
727.10 0.5020119
727.20 0.5018281
727.30 0.5016444
727.40 0.5014904
727.50 0.5013526
727.60 0.5012148
727.70 0.501077
727.80 0.5009394
727.90 0.5008017
728.00 0.5006642
728.10 0.5005266
728.20 0.5003892
728.30 0.5002518
728.40 0.5001144
728.50 0.4999771
728.60 0.4997955
728.70 0.49959
728.80 0.4993846
728.90 0.4991792
729.00 0.4990184
729.10 0.4988815
729.20 0.4987447
729.30 0.4986079
729.40 0.4984712
729.50 0.4983346
729.60 0.4981803
729.70 0.4980165
729.80 0.4978527
729.90 0.4976891
730.00 0.4975255
730.10 0.497362
730.20 0.4971985
730.30 0.4970352
730.40 0.4968719
730.50 0.4967086
730.60 0.4965521
730.70 0.4963992
730.80 0.4962464
730.90 0.4960936
731.00 0.4959409
731.10 0.4957883
731.20 0.4956357
731.30 0.4954832
731.40 0.4953308
731.50 0.4951784
731.60 0.4950261
731.70 0.4948739
731.80 0.4947217
731.90 0.4945696
732.00 0.4944175
732.10 0.4942655
732.20 0.4941129
732.30 0.4939599
732.40 0.493807
732.50 0.4936541
732.60 0.4935013
732.70 0.4933486
732.80 0.4931959
732.90 0.4930434
733.00 0.4928908
733.10 0.4927384
733.20 0.492586
733.30 0.4924336
733.40 0.4922814
733.50 0.4921292
733.60 0.491977
733.70 0.4918155
733.80 0.4916489
733.90 0.4914824
734.00 0.491316
734.10 0.4911496
734.20 0.4909833
734.30 0.4908171
734.40 0.490651
734.50 0.4904849
734.60 0.4903189
734.70 0.490153
734.80 0.4899871
734.90 0.4898213
735.00 0.4896556
735.10 0.48949
735.20 0.4893244
735.30 0.4891615
735.40 0.4890285
735.50 0.4888955
735.60 0.4887626
735.70 0.4886158
735.80 0.4884616
735.90 0.4883074
736.00 0.4881533
736.10 0.4879992
736.20 0.4878452
736.30 0.4876913
736.40 0.4875374
736.50 0.4873837
736.60 0.4872299
736.70 0.4870763
736.80 0.4869227
736.90 0.4867691
737.00 0.4866157
737.10 0.4864623
737.20 0.4863089
737.30 0.4861557
737.40 0.4860025
737.50 0.4858493
737.60 0.4856963
737.70 0.4855432
737.80 0.4853903
737.90 0.4852374
738.00 0.4850846
738.10 0.4849319
738.20 0.4847777
738.30 0.4846227
738.40 0.4844679
738.50 0.4843131
738.60 0.4841583
738.70 0.4840037
738.80 0.4838491
738.90 0.4836945
739.00 0.4835401
739.10 0.4833857
739.20 0.4832313
739.30 0.4830771
739.40 0.4829228
739.50 0.4827687
739.60 0.4826146
739.70 0.4824606
739.80 0.4823067
739.90 0.4821528
740.00 0.481999
740.10 0.4818452
740.20 0.4816916
740.30 0.4815379
740.40 0.4813844
740.50 0.4812309
740.60 0.4810775
740.70 0.4809241
740.80 0.4807708
740.90 0.4806176
741.00 0.4804645
741.10 0.4803114
741.20 0.4801583
741.30 0.4800054
741.40 0.4798525
741.50 0.4796996
741.60 0.4795469
741.70 0.4793942
741.80 0.4792415
741.90 0.479089
742.00 0.4789364
742.10 0.478784
742.20 0.4786316
742.30 0.4784793
742.40 0.4783271
742.50 0.4781749
742.60 0.4780227
742.70 0.4778835
742.80 0.4777549
742.90 0.4776263
743.00 0.4774977
743.10 0.4773692
743.20 0.4772407
743.30 0.4771123
743.40 0.476984
743.50 0.4768557
743.60 0.4767274
743.70 0.4765943
743.80 0.4764415
743.90 0.4762888
744.00 0.4761362
744.10 0.4759836
744.20 0.4758311
744.30 0.4756787
744.40 0.4755263
744.50 0.475374
744.60 0.4752217
744.70 0.4750695
744.80 0.4749174
744.90 0.4747653
745.00 0.4746133
745.10 0.4744614
745.20 0.4743095
745.30 0.4741577
745.40 0.474006
745.50 0.4738543
745.60 0.4737027
745.70 0.4735512
745.80 0.4733997
745.90 0.4732483
746.00 0.4730969
746.10 0.4729457
746.20 0.4727944
746.30 0.4726433
746.40 0.4724922
746.50 0.4723411
746.60 0.4721902
746.70 0.4720393
746.80 0.4718884
746.90 0.4717377
747.00 0.471587
747.10 0.4714363
747.20 0.4712857
747.30 0.4711352
747.40 0.4709847
747.50 0.4708344
747.60 0.470684
747.70 0.4705338
747.80 0.4703836
747.90 0.4702334
748.00 0.4700833
748.10 0.4699333
748.20 0.4697834
748.30 0.4696335
748.40 0.4694837
748.50 0.4693339
748.60 0.4691842
748.70 0.4690346
748.80 0.468885
748.90 0.4687355
749.00 0.4685861
749.10 0.4684367
749.20 0.4682874
749.30 0.4681381
749.40 0.4679889
749.50 0.4678398
749.60 0.4676907
749.70 0.4675417
749.80 0.4673928
749.90 0.4672439
750.00 0.4670951
750.10 0.4669474
750.20 0.4668023
750.30 0.4666572
750.40 0.4665122
750.50 0.4663673
750.60 0.4662224
750.70 0.4660776
750.80 0.4659329
750.90 0.4657882
751.00 0.4656436
751.10 0.465499
751.20 0.4653545
751.30 0.46521
751.40 0.4650657
751.50 0.4649213
751.60 0.4647771
751.70 0.4646329
751.80 0.4644887
751.90 0.4643446
752.00 0.4642006
752.10 0.4640567
752.20 0.4639128
752.30 0.4637689
752.40 0.4636251
752.50 0.4634814
752.60 0.4633377
752.70 0.4631941
752.80 0.4630506
752.90 0.4629071
753.00 0.4627637
753.10 0.4626203
753.20 0.462477
753.30 0.4623338
753.40 0.4621906
753.50 0.4620475
753.60 0.4619044
753.70 0.4617614
753.80 0.4616185
753.90 0.4614756
754.00 0.4613328
754.10 0.46119
754.20 0.4610473
754.30 0.4609046
754.40 0.4607621
754.50 0.4606195
754.60 0.4604771
754.70 0.4603347
754.80 0.4601923
754.90 0.46005
755.00 0.4599078
755.10 0.4597656
755.20 0.4596235
755.30 0.4594814
755.40 0.4593394
755.50 0.4591975
755.60 0.4590556
755.70 0.4589138
755.80 0.4587721
755.90 0.4586304
756.00 0.4584887
756.10 0.4583471
756.20 0.4582056
756.30 0.4580642
756.40 0.4579227
756.50 0.4577814
756.60 0.4576401
756.70 0.4574989
756.80 0.4573577
756.90 0.4572166
757.00 0.4570755
757.10 0.4569346
757.20 0.4567936
757.30 0.4566527
757.40 0.4565119
757.50 0.4563712
757.60 0.4562286
757.70 0.4560815
757.80 0.4559345
757.90 0.4557875
758.00 0.4556406
758.10 0.4554937
758.20 0.4553469
758.30 0.4552001
758.40 0.4550534
758.50 0.4549068
758.60 0.4547603
758.70 0.4546138
758.80 0.4544673
758.90 0.454321
759.00 0.4541746
759.10 0.4540284
759.20 0.4538822
759.30 0.4537361
759.40 0.45359
759.50 0.453444
759.60 0.453298
759.70 0.4531521
759.80 0.4530063
759.90 0.4528606
760.00 0.4527149
760.10 0.4525692
760.20 0.4524236
760.30 0.4522781
760.40 0.4521327
760.50 0.4519873
760.60 0.4518419
760.70 0.4516966
760.80 0.4515514
760.90 0.4514063
761.00 0.4512612
761.10 0.4511161
761.20 0.4509712
761.30 0.4508263
761.40 0.450684
761.50 0.4505459
761.60 0.4504077
761.70 0.4502697
761.80 0.4501316
761.90 0.4499937
762.00 0.4498558
762.10 0.4497179
762.20 0.4495802
762.30 0.4494424
762.40 0.4493048
762.50 0.4491671
762.60 0.4490296
762.70 0.4488921
762.80 0.4487546
762.90 0.4486173
763.00 0.4484799
763.10 0.4483426
763.20 0.4482054
763.30 0.4480683
763.40 0.4479312
763.50 0.4477941
763.60 0.4476571
763.70 0.4475202
763.80 0.4473833
763.90 0.4472465
764.00 0.4471097
764.10 0.446973
764.20 0.4468363
764.30 0.4466997
764.40 0.4465632
764.50 0.4464267
764.60 0.4462903
764.70 0.4461539
764.80 0.4460176
764.90 0.4458813
765.00 0.4457451
765.10 0.445609
765.20 0.4454696
765.30 0.4453273
765.40 0.445185
765.50 0.4450428
765.60 0.4449007
765.70 0.4447586
765.80 0.4446166
765.90 0.4444746
766.00 0.4443327
766.10 0.4441909
766.20 0.4440491
766.30 0.4439073
766.40 0.4437657
766.50 0.443624
766.60 0.4434825
766.70 0.443341
766.80 0.4431996
766.90 0.4430582
767.00 0.4429169
767.10 0.4427756
767.20 0.4426344
767.30 0.4424933
767.40 0.4423522
767.50 0.4422112
767.60 0.4420702
767.70 0.4419293
767.80 0.4417884
767.90 0.4416476
768.00 0.4415069
768.10 0.4413662
768.20 0.4412256
768.30 0.441085
768.40 0.4409445
768.50 0.4408041
768.60 0.4406637
768.70 0.4405234
768.80 0.4403831
768.90 0.4402429
769.00 0.4401028
769.10 0.4399627
769.20 0.4398226
769.30 0.4396826
769.40 0.4395427
769.50 0.4394029
769.60 0.4392631
769.70 0.4391233
769.80 0.4389836
769.90 0.438844
770.00 0.4387044
770.10 0.4385649
770.20 0.4384254
770.30 0.438286
770.40 0.4381467
770.50 0.4380074
770.60 0.4378682
770.70 0.437729
770.80 0.4375899
770.90 0.4374508
771.00 0.4373119
771.10 0.4371729
771.20 0.437034
771.30 0.4368952
771.40 0.4367564
771.50 0.4366177
771.60 0.4364791
771.70 0.4363405
771.80 0.4362019
771.90 0.4360634
772.00 0.435925
772.10 0.4357867
772.20 0.4356483
772.30 0.4355101
772.40 0.4353719
772.50 0.4352337
772.60 0.4350957
772.70 0.4349576
772.80 0.4348197
772.90 0.4346851
773.00 0.4345507
773.10 0.4344163
773.20 0.4342819
773.30 0.4341476
773.40 0.4340134
773.50 0.4338792
773.60 0.4337451
773.70 0.433611
773.80 0.433477
773.90 0.433343
774.00 0.4332091
774.10 0.4330752
774.20 0.4329414
774.30 0.4328076
774.40 0.432674
774.50 0.4325403
774.60 0.4324067
774.70 0.4322732
774.80 0.4321397
774.90 0.4320063
775.00 0.4318729
775.10 0.4317396
775.20 0.4316063
775.30 0.4314731
775.40 0.43134
775.50 0.4312069
775.60 0.4310738
775.70 0.4309409
775.80 0.4308079
775.90 0.430675
776.00 0.4305422
776.10 0.4304094
776.20 0.4302767
776.30 0.4301441
776.40 0.4300115
776.50 0.4298789
776.60 0.4297464
776.70 0.429614
776.80 0.4294816
776.90 0.4293492
777.00 0.4292169
777.10 0.4290847
777.20 0.4289525
777.30 0.4288204
777.40 0.4286883
777.50 0.4285563
777.60 0.4284244
777.70 0.4282924
777.80 0.4281606
777.90 0.4280288
778.00 0.427897
778.10 0.4277653
778.20 0.4276337
778.30 0.4275021
778.40 0.4273706
778.50 0.4272391
778.60 0.4271077
778.70 0.4269763
778.80 0.426845
778.90 0.4267137
779.00 0.4265825
779.10 0.4264513
779.20 0.4263202
779.30 0.4261892
779.40 0.4260582
779.50 0.4259272
779.60 0.4257963
779.70 0.4256655
779.80 0.4255347
779.90 0.425404
780.00 0.4252733
780.10 0.4251427
780.20 0.4250121
780.30 0.4248816
780.40 0.4247511
780.50 0.4246207
780.60 0.4244889
780.70 0.4243566
780.80 0.4242243
780.90 0.4240921
781.00 0.42396
781.10 0.4238279
781.20 0.4236958
781.30 0.4235638
781.40 0.4234319
781.50 0.4233
781.60 0.4231682
781.70 0.4230364
781.80 0.4229047
781.90 0.4227731
782.00 0.4226415
782.10 0.4225099
782.20 0.4223784
782.30 0.422247
782.40 0.4221156
782.50 0.4219842
782.60 0.4218529
782.70 0.4217217
782.80 0.4215905
782.90 0.4214594
783.00 0.4213283
783.10 0.4211973
783.20 0.4210663
783.30 0.4209354
783.40 0.4208045
783.50 0.4206737
783.60 0.420543
783.70 0.4204123
783.80 0.4202816
783.90 0.420151
784.00 0.4200205
784.10 0.41989
784.20 0.4197595
784.30 0.4196292
784.40 0.4194988
784.50 0.4193685
784.60 0.4192378
784.70 0.4191059
784.80 0.418974
784.90 0.4188422
785.00 0.4187105
785.10 0.4185788
785.20 0.4184472
785.30 0.4183156
785.40 0.4181841
785.50 0.4180526
785.60 0.4179212
785.70 0.4177898
785.80 0.4176585
785.90 0.4175272
786.00 0.417396
786.10 0.4172648
786.20 0.4171337
786.30 0.4170027
786.40 0.4168717
786.50 0.4167407
786.60 0.4166099
786.70 0.416479
786.80 0.4163482
786.90 0.4162175
787.00 0.4160868
787.10 0.4159562
787.20 0.4158256
787.30 0.4156951
787.40 0.4155646
787.50 0.4154342
787.60 0.4153039
787.70 0.4151736
787.80 0.4150433
787.90 0.4149131
788.00 0.4147829
788.10 0.4146529
788.20 0.4145228
788.30 0.4143928
788.40 0.4142636
788.50 0.4141349
788.60 0.4140062
788.70 0.4138775
788.80 0.4137489
788.90 0.4136203
789.00 0.4134918
789.10 0.4133634
789.20 0.413235
789.30 0.4131067
789.40 0.4129784
789.50 0.4128501
789.60 0.4127219
789.70 0.4125938
789.80 0.4124657
789.90 0.4123377
790.00 0.4122097
790.10 0.4120818
790.20 0.4119539
790.30 0.411826
790.40 0.4116983
790.50 0.4115705
790.60 0.4114429
790.70 0.4113152
790.80 0.4111877
790.90 0.4110602
791.00 0.4109327
791.10 0.4108053
791.20 0.4106779
791.30 0.4105506
791.40 0.4104233
791.50 0.4102961
791.60 0.410169
791.70 0.4100418
791.80 0.4099148
791.90 0.4097878
792.00 0.4096608
792.10 0.4095339
792.20 0.4094071
792.30 0.4092803
792.40 0.4091535
792.50 0.4090268
792.60 0.4089001
792.70 0.4087735
792.80 0.408647
792.90 0.4085205
793.00 0.408394
793.10 0.4082676
793.20 0.4081413
793.30 0.408015
793.40 0.4078887
793.50 0.4077625
793.60 0.4076364
793.70 0.4075103
793.80 0.4073842
793.90 0.4072582
794.00 0.4071323
794.10 0.4070064
794.20 0.4068805
794.30 0.4067547
794.40 0.406629
794.50 0.4065033
794.60 0.4063776
794.70 0.4062521
794.80 0.4061265
794.90 0.406001
795.00 0.4058756
795.10 0.4057502
795.20 0.4056248
795.30 0.4054995
795.40 0.4053743
795.50 0.4052491
795.60 0.405124
795.70 0.4049989
795.80 0.4048738
795.90 0.4047488
796.00 0.4046239
796.10 0.404499
796.20 0.4043742
796.30 0.4042496
796.40 0.4041251
796.50 0.4040006
796.60 0.4038762
796.70 0.4037518
796.80 0.4036275
796.90 0.4035033
797.00 0.4033791
797.10 0.4032549
797.20 0.4031308
797.30 0.4030067
797.40 0.4028827
797.50 0.4027588
797.60 0.4026348
797.70 0.402511
797.80 0.4023872
797.90 0.4022634
798.00 0.4021397
798.10 0.402016
798.20 0.4018924
798.30 0.4017688
798.40 0.4016453
798.50 0.4015219
798.60 0.4013984
798.70 0.4012751
798.80 0.4011518
798.90 0.4010285
799.00 0.4009053
799.10 0.4007821
799.20 0.400659
799.30 0.4005359
799.40 0.4004129
799.50 0.4002899
799.60 0.400167
799.70 0.4000441
799.80 0.3999212
799.90 0.3997985
800.00 0.3996757
800.10 0.399553
800.20 0.3994304
800.30 0.3993078
800.40 0.3991853
800.50 0.3990628
800.60 0.3989404
800.70 0.398818
800.80 0.3986956
800.90 0.3985733
801.00 0.3984511
801.10 0.3983289
801.20 0.3982068
801.30 0.3980847
801.40 0.3979626
801.50 0.3978406
801.60 0.3977186
801.70 0.3975967
801.80 0.3974749
801.90 0.3973531
802.00 0.3972313
802.10 0.3971096
802.20 0.3969879
802.30 0.3968663
802.40 0.3967448
802.50 0.3966232
802.60 0.3965018
802.70 0.3963804
802.80 0.396259
802.90 0.3961377
803.00 0.3960164
803.10 0.3958951
803.20 0.395774
803.30 0.3956528
803.40 0.3955318
803.50 0.3954107
803.60 0.3952897
803.70 0.3951688
803.80 0.3950479
803.90 0.394927
804.00 0.3948062
804.10 0.3946855
804.20 0.3945636
804.30 0.3944376
804.40 0.3943117
804.50 0.3941857
804.60 0.3940599
804.70 0.3939341
804.80 0.3938083
804.90 0.3936826
805.00 0.393557
805.10 0.3934314
805.20 0.3933058
805.30 0.3931803
805.40 0.3930548
805.50 0.3929294
805.60 0.3928041
805.70 0.3926788
805.80 0.3925535
805.90 0.3924283
806.00 0.3923032
806.10 0.392178
806.20 0.392053
806.30 0.391928
806.40 0.391803
806.50 0.3916781
806.60 0.3915533
806.70 0.3914285
806.80 0.3913037
806.90 0.391179
807.00 0.3910544
807.10 0.3909297
807.20 0.3908052
807.30 0.3906807
807.40 0.3905562
807.50 0.3904318
807.60 0.3903075
807.70 0.3901832
807.80 0.3900589
807.90 0.3899347
808.00 0.3898105
808.10 0.3896864
808.20 0.3895624
808.30 0.3894439
808.40 0.3893255
808.50 0.3892071
808.60 0.3890887
808.70 0.3889704
808.80 0.3888522
808.90 0.388734
809.00 0.3886158
809.10 0.3884977
809.20 0.3883797
809.30 0.3882616
809.40 0.3881437
809.50 0.3880257
809.60 0.3879079
809.70 0.38779
809.80 0.3876722
809.90 0.3875545
810.00 0.3874368
810.10 0.3873191
810.20 0.3872015
810.30 0.387084
810.40 0.3869665
810.50 0.386849
810.60 0.3867316
810.70 0.3866142
810.80 0.3864969
810.90 0.3863796
811.00 0.3862624
811.10 0.3861452
811.20 0.3860281
811.30 0.385911
811.40 0.3857939
811.50 0.3856769
811.60 0.38556
811.70 0.385443
811.80 0.3853262
811.90 0.3852094
812.00 0.3850926
812.10 0.3849759
812.20 0.3848592
812.30 0.38474
812.40 0.3846202
812.50 0.3845005
812.60 0.3843808
812.70 0.3842612
812.80 0.3841416
812.90 0.3840221
813.00 0.3839026
813.10 0.3837831
813.20 0.3836637
813.30 0.3835444
813.40 0.3834251
813.50 0.3833058
813.60 0.3831866
813.70 0.3830674
813.80 0.3829483
813.90 0.3828293
814.00 0.3827102
814.10 0.3825913
814.20 0.3824723
814.30 0.3823535
814.40 0.3822346
814.50 0.3821158
814.60 0.3819971
814.70 0.3818784
814.80 0.3817598
814.90 0.3816412
815.00 0.3815226
815.10 0.3814041
815.20 0.3812856
815.30 0.3811672
815.40 0.3810489
815.50 0.3809305
815.60 0.3808123
815.70 0.380694
815.80 0.3805759
815.90 0.3804577
816.00 0.3803396
816.10 0.3802216
816.20 0.3801036
816.30 0.3799857
816.40 0.3798678
816.50 0.3797499
816.60 0.3796321
816.70 0.3795143
816.80 0.3793966
816.90 0.3792789
817.00 0.3791613
817.10 0.3790437
817.20 0.3789262
817.30 0.3788087
817.40 0.3786913
817.50 0.3785739
817.60 0.3784566
817.70 0.3783393
817.80 0.378222
817.90 0.3781048
818.00 0.3779876
818.10 0.3778705
818.20 0.3777534
818.30 0.3776364
818.40 0.3775194
818.50 0.3774025
818.60 0.3772856
818.70 0.3771688
818.80 0.377052
818.90 0.3769352
819.00 0.3768185
819.10 0.3767019
819.20 0.3765853
819.30 0.3764682
819.40 0.3763509
819.50 0.3762337
819.60 0.3761165
819.70 0.3759994
819.80 0.3758823
819.90 0.3757652
820.00 0.3756482
820.10 0.3755335
820.20 0.3754419
820.30 0.3753504
820.40 0.3752441
820.50 0.375127
820.60 0.37501
820.70 0.374893
820.80 0.3747761
820.90 0.3746593
821.00 0.3745424
821.10 0.3744257
821.20 0.3743089
821.30 0.3741922
821.40 0.3740756
821.50 0.373959
821.60 0.3738425
821.70 0.373726
821.80 0.3736095
821.90 0.3734931
822.00 0.3733767
822.10 0.3732604
822.20 0.3731441
822.30 0.3730279
822.40 0.3729117
822.50 0.3727956
822.60 0.3726795
822.70 0.3725635
822.80 0.3724474
822.90 0.3723315
823.00 0.3722156
823.10 0.3720997
823.20 0.3719839
823.30 0.3718681
823.40 0.3717524
823.50 0.3716367
823.60 0.3715211
823.70 0.3714055
823.80 0.3712899
823.90 0.3711744
824.00 0.371059
824.10 0.3709436
824.20 0.3708282
824.30 0.3707129
824.40 0.3705976
824.50 0.3704823
824.60 0.3703672
824.70 0.370252
824.80 0.3701369
824.90 0.3700219
825.00 0.3699069
825.10 0.3697919
825.20 0.369677
825.30 0.3695621
825.40 0.3694473
825.50 0.3693325
825.60 0.3692177
825.70 0.3691031
825.80 0.3689884
825.90 0.3688738
826.00 0.3687592
826.10 0.3686447
826.20 0.3685303
826.30 0.3684199
826.40 0.3683123
826.50 0.3682048
826.60 0.3680973
826.70 0.3679898
826.80 0.3678824
826.90 0.367775
827.00 0.3676676
827.10 0.3675603
827.20 0.3674531
827.30 0.3673458
827.40 0.3672387
827.50 0.3671315
827.60 0.3670244
827.70 0.3669174
827.80 0.3668104
827.90 0.3667034
828.00 0.3665964
828.10 0.3664896
828.20 0.3663827
828.30 0.3662759
828.40 0.3661691
828.50 0.3660624
828.60 0.3659518
828.70 0.365838
828.80 0.3657242
828.90 0.3656105
829.00 0.3654968
829.10 0.3653831
829.20 0.3652695
829.30 0.365156
829.40 0.3650425
829.50 0.364929
829.60 0.3648156
829.70 0.3647022
829.80 0.3645888
829.90 0.3644755
830.00 0.3643623
830.10 0.3642491
830.20 0.3641359
830.30 0.3640228
830.40 0.3639097
830.50 0.3637967
830.60 0.3636837
830.70 0.3635707
830.80 0.3634578
830.90 0.363345
831.00 0.3632322
831.10 0.3631194
831.20 0.3630067
831.30 0.362894
831.40 0.3627814
831.50 0.3626688
831.60 0.3625562
831.70 0.3624437
831.80 0.3623312
831.90 0.3622188
832.00 0.3621064
832.10 0.3619941
832.20 0.3618818
832.30 0.3617696
832.40 0.3616574
832.50 0.3615452
832.60 0.3614331
832.70 0.361321
832.80 0.361209
832.90 0.361097
833.00 0.3609851
833.10 0.3608732
833.20 0.3607613
833.30 0.3606495
833.40 0.3605377
833.50 0.360426
833.60 0.3603143
833.70 0.3602027
833.80 0.3600911
833.90 0.3599795
834.00 0.359868
834.10 0.3597566
834.20 0.3596451
834.30 0.3595338
834.40 0.3594224
834.50 0.3593111
834.60 0.3591999
834.70 0.3590887
834.80 0.3589775
834.90 0.3588664
835.00 0.3587553
835.10 0.3586443
835.20 0.3585333
835.30 0.3584223
835.40 0.3583114
835.50 0.3582005
835.60 0.3580897
835.70 0.3579789
835.80 0.3578682
835.90 0.3577575
836.00 0.3576469
836.10 0.3575363
836.20 0.3574257
836.30 0.3573152
836.40 0.3572047
836.50 0.3570942
836.60 0.3569838
836.70 0.3568735
836.80 0.3567632
836.90 0.3566531
837.00 0.3565431
837.10 0.3564332
837.20 0.3563233
837.30 0.3562134
837.40 0.3561036
837.50 0.3559939
837.60 0.3558841
837.70 0.3557745
837.80 0.3556648
837.90 0.3555552
838.00 0.3554457
838.10 0.3553362
838.20 0.3552267
838.30 0.3551173
838.40 0.3550079
838.50 0.3548985
838.60 0.3547892
838.70 0.35468
838.80 0.3545707
838.90 0.3544616
839.00 0.3543524
839.10 0.3542433
839.20 0.3541343
839.30 0.3540253
839.40 0.3539163
839.50 0.3538074
839.60 0.3536985
839.70 0.3535897
839.80 0.3534809
839.90 0.3533721
840.00 0.3532634
840.10 0.3531547
840.20 0.3530461
840.30 0.3529375
840.40 0.352829
840.50 0.3527205
840.60 0.352612
840.70 0.3525036
840.80 0.3523952
840.90 0.3522868
841.00 0.3521785
841.10 0.3520703
841.20 0.3519621
841.30 0.3518539
841.40 0.3517458
841.50 0.3516377
841.60 0.3515297
841.70 0.3514217
841.80 0.3513137
841.90 0.3512058
842.00 0.3510979
842.10 0.3509901
842.20 0.3508823
842.30 0.3507745
842.40 0.3506668
842.50 0.3505591
842.60 0.3504515
842.70 0.3503439
842.80 0.3502364
842.90 0.3501288
843.00 0.3500214
843.10 0.349914
843.20 0.3498066
843.30 0.3496992
843.40 0.3495919
843.50 0.3494847
843.60 0.3493774
843.70 0.3492703
843.80 0.3491631
843.90 0.349056
844.00 0.348949
844.10 0.348842
844.20 0.348735
844.30 0.3486281
844.40 0.3485212
844.50 0.3484143
844.60 0.3483075
844.70 0.3482007
844.80 0.348094
844.90 0.3479873
845.00 0.3478807
845.10 0.3477741
845.20 0.3476675
845.30 0.3475612
845.40 0.347455
845.50 0.3473488
845.60 0.3472426
845.70 0.3471365
845.80 0.3470304
845.90 0.3469243
846.00 0.3468183
846.10 0.3467124
846.20 0.3466064
846.30 0.3465005
846.40 0.3463947
846.50 0.3462889
846.60 0.3461831
846.70 0.3460774
846.80 0.3459717
846.90 0.3458661
847.00 0.3457605
847.10 0.3456549
847.20 0.3455494
847.30 0.3454439
847.40 0.3453385
847.50 0.3452331
847.60 0.3451277
847.70 0.3450224
847.80 0.3449171
847.90 0.3448119
848.00 0.3447067
848.10 0.3446015
848.20 0.3444964
848.30 0.3443913
848.40 0.3442863
848.50 0.3441813
848.60 0.3440763
848.70 0.3439714
848.80 0.3438665
848.90 0.3437616
849.00 0.3436568
849.10 0.3435521
849.20 0.3434474
849.30 0.3433427
849.40 0.343238
849.50 0.3431334
849.60 0.3430289
849.70 0.3429243
849.80 0.3428199
849.90 0.3427154
850.00 0.342611
850.10 0.3425066
850.20 0.3424023
850.30 0.342298
850.40 0.3421938
850.50 0.3420896
850.60 0.3419854
850.70 0.3418813
850.80 0.3417772
850.90 0.3416732
851.00 0.3415691
851.10 0.3414652
851.20 0.3413612
851.30 0.3412574
851.40 0.3411535
851.50 0.3410497
851.60 0.3409459
851.70 0.3408422
851.80 0.3407385
851.90 0.3406348
852.00 0.3405312
852.10 0.3404276
852.20 0.3403241
852.30 0.3402206
852.40 0.3401172
852.50 0.3400137
852.60 0.3399104
852.70 0.339807
852.80 0.3397037
852.90 0.3396004
853.00 0.3394972
853.10 0.339394
853.20 0.3392909
853.30 0.3391878
853.40 0.3390847
853.50 0.3389817
853.60 0.3388787
853.70 0.3387759
853.80 0.3386732
853.90 0.3385705
854.00 0.3384679
854.10 0.3383654
854.20 0.3382628
854.30 0.3381604
854.40 0.3380579
854.50 0.3379555
854.60 0.3378531
854.70 0.3377508
854.80 0.3376485
854.90 0.3375463
855.00 0.337444
855.10 0.3373419
855.20 0.3372397
855.30 0.3371376
855.40 0.3370356
855.50 0.3369335
855.60 0.3368316
855.70 0.3367296
855.80 0.3366277
855.90 0.3365258
856.00 0.336424
856.10 0.3363222
856.20 0.3362205
856.30 0.3361187
856.40 0.3360171
856.50 0.3359154
856.60 0.3358138
856.70 0.3357123
856.80 0.3356107
856.90 0.3355093
857.00 0.3354078
857.10 0.3353064
857.20 0.335205
857.30 0.3351037
857.40 0.3350024
857.50 0.3349011
857.60 0.3347999
857.70 0.3346987
857.80 0.3345976
857.90 0.3344965
858.00 0.3343954
858.10 0.3342944
858.20 0.3341934
858.30 0.3340925
858.40 0.3339915
858.50 0.3338907
858.60 0.3337898
858.70 0.333689
858.80 0.3335883
858.90 0.3334875
859.00 0.3333869
859.10 0.3332862
859.20 0.3331856
859.30 0.333085
859.40 0.3329845
859.50 0.332884
859.60 0.3327835
859.70 0.3326831
859.80 0.3325827
859.90 0.3324824
860.00 0.3323821
860.10 0.3322818
860.20 0.3321816
860.30 0.3320814
860.40 0.3319812
860.50 0.3318811
860.60 0.331781
860.70 0.331681
860.80 0.3315809
860.90 0.331481
861.00 0.331381
861.10 0.3312811
861.20 0.3311813
861.30 0.3310815
861.40 0.3309817
861.50 0.3308819
861.60 0.3307822
861.70 0.3306826
861.80 0.3305829
861.90 0.3304833
862.00 0.3303838
862.10 0.3302842
862.20 0.3301848
862.30 0.3300856
862.40 0.3299864
862.50 0.3298872
862.60 0.3297881
862.70 0.3296891
862.80 0.32959
862.90 0.329491
863.00 0.3293921
863.10 0.3292931
863.20 0.3291943
863.30 0.3290954
863.40 0.3289966
863.50 0.3288978
863.60 0.3287991
863.70 0.3287004
863.80 0.3286017
863.90 0.3285031
864.00 0.3284045
864.10 0.3283059
864.20 0.3282074
864.30 0.328109
864.40 0.3280105
864.50 0.3279121
864.60 0.3278137
864.70 0.3277154
864.80 0.3276171
864.90 0.3275188
865.00 0.3274206
865.10 0.3273224
865.20 0.3272243
865.30 0.3271262
865.40 0.3270281
865.50 0.3269301
865.60 0.3268321
865.70 0.3267341
865.80 0.3266362
865.90 0.3265383
866.00 0.3264404
866.10 0.3263426
866.20 0.3262448
866.30 0.3261471
866.40 0.3260493
866.50 0.3259517
866.60 0.325854
866.70 0.3257564
866.80 0.3256589
866.90 0.3255613
867.00 0.3254638
867.10 0.3253664
867.20 0.325269
867.30 0.3251716
867.40 0.3250742
867.50 0.3249769
867.60 0.3248796
867.70 0.3247824
867.80 0.3246852
867.90 0.324588
868.00 0.3244909
868.10 0.3243938
868.20 0.3242967
868.30 0.3241997
868.40 0.3241027
868.50 0.3240058
868.60 0.3239089
868.70 0.323812
868.80 0.3237152
868.90 0.3236183
869.00 0.3235216
869.10 0.3234248
869.20 0.3233281
869.30 0.3232315
869.40 0.3231349
869.50 0.3230383
869.60 0.3229417
869.70 0.3228452
869.80 0.3227487
869.90 0.3226523
870.00 0.3225558
870.10 0.3224595
870.20 0.3223631
870.30 0.3222668
870.40 0.3221706
870.50 0.3220743
870.60 0.3219781
870.70 0.321882
870.80 0.3217858
870.90 0.32169
871.00 0.3215941
871.10 0.3214983
871.20 0.3214026
871.30 0.3213068
871.40 0.3212111
871.50 0.3211155
871.60 0.3210199
871.70 0.3209243
871.80 0.3208287
871.90 0.3207332
872.00 0.3206377
872.10 0.3205423
872.20 0.3204469
872.30 0.3203515
872.40 0.3202561
872.50 0.3201608
872.60 0.3200656
872.70 0.3199703
872.80 0.3198751
872.90 0.31978
873.00 0.3196849
873.10 0.3195898
873.20 0.3194947
873.30 0.3193997
873.40 0.3193047
873.50 0.3192097
873.60 0.3191148
873.70 0.3190199
873.80 0.3189251
873.90 0.3188303
874.00 0.3187355
874.10 0.3186408
874.20 0.3185461
874.30 0.3184514
874.40 0.3183568
874.50 0.3182622
874.60 0.3181676
874.70 0.3180731
874.80 0.3179786
874.90 0.3178841
875.00 0.3177897
875.10 0.3176953
875.20 0.3175994
875.30 0.3175007
875.40 0.317402
875.50 0.3173034
875.60 0.3172049
875.70 0.3171064
875.80 0.3170079
875.90 0.3169094
876.00 0.316811
876.10 0.3167126
876.20 0.3166143
876.30 0.316516
876.40 0.3164177
876.50 0.3163195
876.60 0.3162213
876.70 0.3161231
876.80 0.316025
876.90 0.3159269
877.00 0.3158288
877.10 0.3157308
877.20 0.3156328
877.30 0.3155349
877.40 0.315437
877.50 0.3153391
877.60 0.3152413
877.70 0.3151435
877.80 0.3150458
877.90 0.314948
878.00 0.3148503
878.10 0.3147527
878.20 0.3146551
878.30 0.3145575
878.40 0.31446
878.50 0.3143625
878.60 0.314265
878.70 0.3141676
878.80 0.3140702
878.90 0.3139728
879.00 0.3138755
879.10 0.3137782
879.20 0.3136809
879.30 0.3135837
879.40 0.3134865
879.50 0.3133894
879.60 0.313296
879.70 0.3132035
879.80 0.3131109
879.90 0.3130185
880.00 0.312926
880.10 0.3128336
880.20 0.3127412
880.30 0.3126489
880.40 0.3125566
880.50 0.3124643
880.60 0.312372
880.70 0.3122798
880.80 0.3121877
880.90 0.3120955
881.00 0.3120034
881.10 0.3119113
881.20 0.3118193
881.30 0.3117273
881.40 0.3116353
881.50 0.3115434
881.60 0.3114515
881.70 0.3113596
881.80 0.3112678
881.90 0.311176
882.00 0.3110842
882.10 0.3109924
882.20 0.3109007
882.30 0.3108091
882.40 0.3107174
882.50 0.3106258
882.60 0.3105343
882.70 0.3104427
882.80 0.3103512
882.90 0.3102598
883.00 0.3101683
883.10 0.3100769
883.20 0.3099856
883.30 0.3098942
883.40 0.3098029
883.50 0.3097116
883.60 0.3096204
883.70 0.3095292
883.80 0.309438
883.90 0.3093469
884.00 0.3092523
884.10 0.309157
884.20 0.3090617
884.30 0.3089665
884.40 0.3088713
884.50 0.3087761
884.60 0.308681
884.70 0.3085859
884.80 0.3084909
884.90 0.3083959
885.00 0.3083009
885.10 0.3082059
885.20 0.308111
885.30 0.3080161
885.40 0.3079213
885.50 0.3078265
885.60 0.3077317
885.70 0.307637
885.80 0.3075423
885.90 0.3074476
886.00 0.307353
886.10 0.3072584
886.20 0.3071639
886.30 0.3070693
886.40 0.3069748
886.50 0.3068804
886.60 0.306786
886.70 0.3066916
886.80 0.3065972
886.90 0.3065029
887.00 0.3064086
887.10 0.3063144
887.20 0.3062202
887.30 0.306126
887.40 0.3060318
887.50 0.3059377
887.60 0.3058437
887.70 0.3057496
887.80 0.3056556
887.90 0.3055616
888.00 0.3054677
888.10 0.3053738
888.20 0.3052799
888.30 0.3051861
888.40 0.3050943
888.50 0.3050029
888.60 0.3049115
888.70 0.3048201
888.80 0.3047288
888.90 0.3046375
889.00 0.3045462
889.10 0.3044549
889.20 0.3043637
889.30 0.3042726
889.40 0.3041814
889.50 0.3040903
889.60 0.3039992
889.70 0.3039082
889.80 0.3038172
889.90 0.3037262
890.00 0.3036353
890.10 0.3035444
890.20 0.3034535
890.30 0.3033626
890.40 0.3032718
890.50 0.3031811
890.60 0.3030903
890.70 0.3029996
890.80 0.3029089
890.90 0.3028183
891.00 0.3027277
891.10 0.3026371
891.20 0.3025466
891.30 0.302456
891.40 0.3023656
891.50 0.3022751
891.60 0.3021847
891.70 0.3020943
891.80 0.302004
891.90 0.3019137
892.00 0.3018234
892.10 0.3017331
892.20 0.3016429
892.30 0.3015527
892.40 0.3014626
892.50 0.3013725
892.60 0.3012824
892.70 0.3011923
892.80 0.3011023
892.90 0.3010123
893.00 0.3009224
893.10 0.3008325
893.20 0.3007426
893.30 0.3006527
893.40 0.3005629
893.50 0.3004731
893.60 0.3003834
893.70 0.3002936
893.80 0.3002039
893.90 0.3001143
894.00 0.3000247
894.10 0.2999351
894.20 0.2998455
894.30 0.299756
894.40 0.2996665
894.50 0.299577
894.60 0.2994876
894.70 0.2993982
894.80 0.2993088
894.90 0.2992195
895.00 0.2991302
895.10 0.2990409
895.20 0.2989517
895.30 0.2988625
895.40 0.2987733
895.50 0.2986842
895.60 0.2985951
895.70 0.298506
895.80 0.2984169
895.90 0.2983279
896.00 0.298239
896.10 0.29815
896.20 0.2980611
896.30 0.2979722
896.40 0.2978834
896.50 0.2977946
896.60 0.2977058
896.70 0.297617
896.80 0.2975283
896.90 0.2974396
897.00 0.297351
897.10 0.2972623
897.20 0.2971738
897.30 0.2970875
897.40 0.2970012
897.50 0.2969149
897.60 0.2968287
897.70 0.2967425
897.80 0.2966563
897.90 0.2965702
898.00 0.2964841
898.10 0.296398
898.20 0.296312
898.30 0.2962259
898.40 0.29614
898.50 0.296054
898.60 0.2959681
898.70 0.2958822
898.80 0.2957963
898.90 0.2957105
899.00 0.2956247
899.10 0.2955389
899.20 0.2954532
899.30 0.2953675
899.40 0.2952818
899.50 0.2951961
899.60 0.2951105
899.70 0.2950249
899.80 0.2949394
899.90 0.2948539
900.00 0.2947684
900.10 0.2946829
900.20 0.2945975
900.30 0.2945121
900.40 0.2944267
900.50 0.2943414
900.60 0.2942561
900.70 0.2941708
900.80 0.2940855
900.90 0.2940003
901.00 0.2939151
901.10 0.29383
901.20 0.2937448
901.30 0.2936597
901.40 0.2935747
901.50 0.2934896
901.60 0.2934046
901.70 0.293319
901.80 0.29323
901.90 0.2931411
902.00 0.2930523
902.10 0.2929635
902.20 0.2928747
902.30 0.2927859
902.40 0.2926972
902.50 0.2926085
902.60 0.2925198
902.70 0.2924312
902.80 0.2923426
902.90 0.292254
903.00 0.2921655
903.10 0.292077
903.20 0.2919885
903.30 0.2919001
903.40 0.2918117
903.50 0.2917233
903.60 0.2916349
903.70 0.2915466
903.80 0.2914584
903.90 0.2913701
904.00 0.2912819
904.10 0.2911937
904.20 0.2911056
904.30 0.2910174
904.40 0.2909293
904.50 0.2908413
904.60 0.2907533
904.70 0.2906653
904.80 0.2905773
904.90 0.2904894
905.00 0.2904015
905.10 0.2903136
905.20 0.2902258
905.30 0.290138
905.40 0.2900502
905.50 0.2899625
905.60 0.2898748
905.70 0.2897871
905.80 0.2896995
905.90 0.2896118
906.00 0.2895243
906.10 0.2894367
906.20 0.2893505
906.30 0.2892672
906.40 0.2891838
906.50 0.2891006
906.60 0.2890173
906.70 0.2889341
906.80 0.2888509
906.90 0.2887677
907.00 0.2886845
907.10 0.2886014
907.20 0.2885183
907.30 0.2884353
907.40 0.2883523
907.50 0.2882693
907.60 0.2881863
907.70 0.2881034
907.80 0.2880205
907.90 0.2879376
908.00 0.2878547
908.10 0.2877719
908.20 0.2876891
908.30 0.2876064
908.40 0.2875236
908.50 0.2874409
908.60 0.2873583
908.70 0.2872756
908.80 0.287193
908.90 0.2871104
909.00 0.2870279
909.10 0.2869454
909.20 0.2868629
909.30 0.2867804
909.40 0.286698
909.50 0.2866156
909.60 0.2865332
909.70 0.2864508
909.80 0.2863685
909.90 0.2862862
910.00 0.286204
910.10 0.2861217
910.20 0.2860395
910.30 0.2859574
910.40 0.2858752
910.50 0.2857931
910.60 0.285711
910.70 0.2856289
910.80 0.285543
910.90 0.2854572
911.00 0.2853714
911.10 0.2852856
911.20 0.2851998
911.30 0.2851141
911.40 0.2850284
911.50 0.2849427
911.60 0.284857
911.70 0.2847714
911.80 0.2846859
911.90 0.2846003
912.00 0.2845148
912.10 0.2844293
912.20 0.2843438
912.30 0.2842584
912.40 0.284173
912.50 0.2840877
912.60 0.2840023
912.70 0.283917
912.80 0.2838317
912.90 0.2837465
913.00 0.2836613
913.10 0.2835761
913.20 0.2834909
913.30 0.2834058
913.40 0.2833207
913.50 0.2832357
913.60 0.2831506
913.70 0.2830656
913.80 0.2829807
913.90 0.2828957
914.00 0.2828108
914.10 0.282726
914.20 0.2826411
914.30 0.2825563
914.40 0.2824715
914.50 0.2823867
914.60 0.282302
914.70 0.2822173
914.80 0.2821327
914.90 0.282048
915.00 0.2819634
915.10 0.2818788
915.20 0.2817943
915.30 0.2817099
915.40 0.2816257
915.50 0.2815414
915.60 0.2814573
915.70 0.2813731
915.80 0.2812889
915.90 0.2812048
916.00 0.2811208
916.10 0.2810367
916.20 0.2809527
916.30 0.2808687
916.40 0.2807847
916.50 0.2807008
916.60 0.2806169
916.70 0.280533
916.80 0.2804492
916.90 0.2803654
917.00 0.2802816
917.10 0.2801979
917.20 0.2801142
917.30 0.2800305
917.40 0.2799468
917.50 0.2798632
917.60 0.2797796
917.70 0.279696
917.80 0.2796125
917.90 0.279529
918.00 0.2794455
918.10 0.279362
918.20 0.2792786
918.30 0.2791952
918.40 0.2791118
918.50 0.2790285
918.60 0.2789452
918.70 0.2788619
918.80 0.2787787
918.90 0.2786955
919.00 0.2786123
919.10 0.2785291
919.20 0.278446
919.30 0.2783629
919.40 0.2782799
919.50 0.2781968
919.60 0.2781138
919.70 0.2780308
919.80 0.2779479
919.90 0.277865
920.00 0.2777821
920.10 0.2776992
920.20 0.2776164
920.30 0.2775336
920.40 0.2774508
920.50 0.2773681
920.60 0.2772854
920.70 0.2772027
920.80 0.27712
920.90 0.2770374
921.00 0.2769548
921.10 0.2768722
921.20 0.2767897
921.30 0.2767072
921.40 0.2766247
921.50 0.2765423
921.60 0.2764599
921.70 0.2763775
921.80 0.2762951
921.90 0.2762128
922.00 0.2761305
922.10 0.2760482
922.20 0.275966
922.30 0.2758837
922.40 0.2758016
922.50 0.2757194
922.60 0.2756373
922.70 0.2755552
922.80 0.2754731
922.90 0.2753911
923.00 0.2753091
923.10 0.2752271
923.20 0.2751451
923.30 0.2750632
923.40 0.2749813
923.50 0.2748994
923.60 0.2748176
923.70 0.2747358
923.80 0.274654
923.90 0.2745723
924.00 0.2744906
924.10 0.2744089
924.20 0.2743272
924.30 0.2742456
924.40 0.274164
924.50 0.2740827
924.60 0.2740013
924.70 0.27392
924.80 0.2738388
924.90 0.2737575
925.00 0.2736763
925.10 0.2735951
925.20 0.273514
925.30 0.2734329
925.40 0.2733518
925.50 0.2732707
925.60 0.2731897
925.70 0.2731086
925.80 0.2730277
925.90 0.2729467
926.00 0.2728658
926.10 0.2727849
926.20 0.272704
926.30 0.2726232
926.40 0.2725424
926.50 0.2724616
926.60 0.2723808
926.70 0.2723001
926.80 0.2722194
926.90 0.2721388
927.00 0.2720581
927.10 0.2719775
927.20 0.2718969
927.30 0.2718164
927.40 0.2717358
927.50 0.2716554
927.60 0.2715749
927.70 0.2714944
927.80 0.271414
927.90 0.2713336
928.00 0.2712533
928.10 0.271173
928.20 0.2710927
928.30 0.2710124
928.40 0.2709322
928.50 0.2708519
928.60 0.2707718
928.70 0.2706916
928.80 0.2706115
928.90 0.2705314
929.00 0.2704513
929.10 0.2703748
929.20 0.2702984
929.30 0.270222
929.40 0.2701457
929.50 0.2700694
929.60 0.2699931
929.70 0.2699169
929.80 0.2698407
929.90 0.2697645
930.00 0.2696883
930.10 0.2696122
930.20 0.2695361
930.30 0.26946
930.40 0.2693839
930.50 0.2693079
930.60 0.2692319
930.70 0.2691559
930.80 0.2690799
930.90 0.269004
931.00 0.2689281
931.10 0.2688522
931.20 0.2687764
931.30 0.2687006
931.40 0.2686248
931.50 0.268549
931.60 0.2684732
931.70 0.2683975
931.80 0.2683218
931.90 0.2682462
932.00 0.2681705
932.10 0.2680949
932.20 0.2680193
932.30 0.2679438
932.40 0.2678682
932.50 0.2677927
932.60 0.2677173
932.70 0.2676418
932.80 0.2675664
932.90 0.267491
933.00 0.2674156
933.10 0.2673402
933.20 0.2672649
933.30 0.2671896
933.40 0.2671144
933.50 0.2670391
933.60 0.2669639
933.70 0.2668862
933.80 0.2668076
933.90 0.2667291
934.00 0.2666506
934.10 0.2665721
934.20 0.2664937
934.30 0.2664153
934.40 0.2663369
934.50 0.2662585
934.60 0.2661802
934.70 0.2661019
934.80 0.2660236
934.90 0.2659453
935.00 0.2658671
935.10 0.2657889
935.20 0.2657107
935.30 0.2656326
935.40 0.2655545
935.50 0.2654764
935.60 0.2653983
935.70 0.2653203
935.80 0.2652423
935.90 0.2651643
936.00 0.2650864
936.10 0.2650084
936.20 0.2649305
936.30 0.2648527
936.40 0.2647748
936.50 0.264697
936.60 0.2646192
936.70 0.2645415
936.80 0.2644637
936.90 0.264386
937.00 0.2643083
937.10 0.2642307
937.20 0.2641531
937.30 0.2640755
937.40 0.2639979
937.50 0.2639203
937.60 0.2638428
937.70 0.2637653
937.80 0.2636879
937.90 0.2636104
938.00 0.263533
938.10 0.2634556
938.20 0.2633783
938.30 0.263301
938.40 0.2632237
938.50 0.2631464
938.60 0.2630691
938.70 0.2629919
938.80 0.2629147
938.90 0.2628376
939.00 0.2627604
939.10 0.2626833
939.20 0.2626062
939.30 0.2625292
939.40 0.2624521
939.50 0.2623751
939.60 0.2622981
939.70 0.2622212
939.80 0.2621443
939.90 0.2620674
940.00 0.2619905
940.10 0.2619137
940.20 0.2618368
940.30 0.26176
940.40 0.2616833
940.50 0.2616065
940.60 0.2615298
940.70 0.2614532
940.80 0.2613765
940.90 0.2612999
941.00 0.2612233
941.10 0.2611467
941.20 0.2610701
941.30 0.2609936
941.40 0.2609171
941.50 0.2608406
941.60 0.2607642
941.70 0.2606878
941.80 0.2606114
941.90 0.260535
942.00 0.2604587
942.10 0.2603824
942.20 0.2603061
942.30 0.2602298
942.40 0.2601536
942.50 0.2600774
942.60 0.2600012
942.70 0.2599251
942.80 0.2598489
942.90 0.2597728
943.00 0.2596968
943.10 0.259621
943.20 0.2595452
943.30 0.2594694
943.40 0.2593936
943.50 0.2593179
943.60 0.2592422
943.70 0.2591665
943.80 0.2590909
943.90 0.2590152
944.00 0.2589396
944.10 0.2588641
944.20 0.2587885
944.30 0.258713
944.40 0.2586375
944.50 0.258562
944.60 0.2584866
944.70 0.2584112
944.80 0.2583358
944.90 0.2582604
945.00 0.2581851
945.10 0.2581098
945.20 0.2580345
945.30 0.2579592
945.40 0.257884
945.50 0.2578088
945.60 0.2577336
945.70 0.2576584
945.80 0.2575833
945.90 0.2575082
946.00 0.2574331
946.10 0.2573581
946.20 0.257283
946.30 0.257208
946.40 0.2571331
946.50 0.2570581
946.60 0.2569832
946.70 0.2569083
946.80 0.2568334
946.90 0.2567586
947.00 0.2566837
947.10 0.2566089
947.20 0.2565342
947.30 0.2564594
947.40 0.2563847
947.50 0.25631
947.60 0.2562354
947.70 0.2561607
947.80 0.2560861
947.90 0.2560115
948.00 0.255937
948.10 0.2558624
948.20 0.2557879
948.30 0.2557134
948.40 0.255639
948.50 0.2555645
948.60 0.2554901
948.70 0.2554158
948.80 0.2553414
948.90 0.2552671
949.00 0.2551928
949.10 0.2551185
949.20 0.2550442
949.30 0.25497
949.40 0.2548958
949.50 0.2548216
949.60 0.2547475
949.70 0.2546734
949.80 0.2545993
949.90 0.2545252
950.00 0.2544511
950.10 0.2543771
950.20 0.2543031
950.30 0.2542291
950.40 0.2541552
950.50 0.2540813
950.60 0.2540074
950.70 0.2539335
950.80 0.2538597
950.90 0.2537858
951.00 0.253712
951.10 0.2536383
951.20 0.2535645
951.30 0.2534908
951.40 0.2534171
951.50 0.2533435
951.60 0.2532698
951.70 0.2531962
951.80 0.2531226
951.90 0.253049
952.00 0.2529755
952.10 0.252902
952.20 0.2528285
952.30 0.252755
952.40 0.2526816
952.50 0.2526084
952.60 0.2525352
952.70 0.2524621
952.80 0.2523889
952.90 0.2523158
953.00 0.2522427
953.10 0.2521697
953.20 0.2520966
953.30 0.2520236
953.40 0.2519506
953.50 0.2518777
953.60 0.2518047
953.70 0.2517318
953.80 0.2516589
953.90 0.2515861
954.00 0.2515132
954.10 0.2514404
954.20 0.2513676
954.30 0.2512949
954.40 0.2512221
954.50 0.2511494
954.60 0.2510767
954.70 0.2510041
954.80 0.2509314
954.90 0.2508588
955.00 0.2507862
955.10 0.2507137
955.20 0.2506411
955.30 0.2505686
955.40 0.2504961
955.50 0.2504237
955.60 0.2503512
955.70 0.2502788
955.80 0.2502064
955.90 0.2501341
956.00 0.2500617
956.10 0.2499894
956.20 0.2499171
956.30 0.2498449
956.40 0.2497726
956.50 0.2497004
956.60 0.2496282
956.70 0.2495561
956.80 0.2494839
956.90 0.2494118
957.00 0.2493397
957.10 0.2492677
957.20 0.2491941
957.30 0.2491187
957.40 0.2490434
957.50 0.2489681
957.60 0.2488929
957.70 0.2488176
957.80 0.2487424
957.90 0.2486672
958.00 0.2485921
958.10 0.2485169
958.20 0.2484418
958.30 0.2483668
958.40 0.2482917
958.50 0.2482167
958.60 0.2481417
958.70 0.2480667
958.80 0.2479917
958.90 0.2479168
959.00 0.2478419
959.10 0.247767
959.20 0.2476922
959.30 0.2476174
959.40 0.2475426
959.50 0.2474678
959.60 0.247393
959.70 0.2473183
959.80 0.2472436
959.90 0.2471689
960.00 0.2470943
960.10 0.2470197
960.20 0.2469451
960.30 0.2468705
960.40 0.246796
960.50 0.2467215
960.60 0.246647
960.70 0.2465725
960.80 0.2464981
960.90 0.2464237
961.00 0.2463493
961.10 0.2462749
961.20 0.2462006
961.30 0.2461263
961.40 0.246052
961.50 0.2459777
961.60 0.2459035
961.70 0.2458293
961.80 0.2457551
961.90 0.245681
962.00 0.2456098
962.10 0.2455391
962.20 0.2454685
962.30 0.245398
962.40 0.2453274
962.50 0.2452569
962.60 0.2451864
962.70 0.2451159
962.80 0.2450455
962.90 0.2449751
963.00 0.2449047
963.10 0.2448343
963.20 0.2447639
963.30 0.2446936
963.40 0.2446233
963.50 0.244553
963.60 0.2444828
963.70 0.2444125
963.80 0.2443423
963.90 0.2442721
964.00 0.244202
964.10 0.2441318
964.20 0.2440617
964.30 0.2439916
964.40 0.2439215
964.50 0.2438515
964.60 0.2437815
964.70 0.2437115
964.80 0.2436415
964.90 0.2435716
965.00 0.2435016
965.10 0.2434317
965.20 0.2433619
965.30 0.243292
965.40 0.2432222
965.50 0.2431524
965.60 0.2430826
965.70 0.2430128
965.80 0.2429431
965.90 0.2428734
966.00 0.2428037
966.10 0.242734
966.20 0.2426644
966.30 0.2425948
966.40 0.2425252
966.50 0.2424556
966.60 0.2423861
966.70 0.2423166
966.80 0.2422471
966.90 0.2421776
967.00 0.2421081
967.10 0.2420387
967.20 0.2419693
967.30 0.2418999
967.40 0.2418306
967.50 0.2417612
967.60 0.2416919
967.70 0.2416226
967.80 0.2415534
967.90 0.2414841
968.00 0.2414149
968.10 0.2413457
968.20 0.2412765
968.30 0.2412074
968.40 0.2411383
968.50 0.2410692
968.60 0.2410001
968.70 0.240931
968.80 0.240862
968.90 0.240793
969.00 0.240724
969.10 0.2406551
969.20 0.2405861
969.30 0.2405172
969.40 0.2404483
969.50 0.2403795
969.60 0.2403106
969.70 0.2402418
969.80 0.240173
969.90 0.2401042
970.00 0.2400355
970.10 0.2399668
970.20 0.2398981
970.30 0.2398294
970.40 0.2397607
970.50 0.2396921
970.60 0.2396235
970.70 0.2395549
970.80 0.2394863
970.90 0.2394178
971.00 0.2393493
971.10 0.2392808
971.20 0.2392123
971.30 0.2391439
971.40 0.2390754
971.50 0.239007
971.60 0.2389388
971.70 0.2388706
971.80 0.2388025
971.90 0.2387343
972.00 0.2386662
972.10 0.2385982
972.20 0.2385301
972.30 0.2384621
972.40 0.2383941
972.50 0.2383261
972.60 0.2382581
972.70 0.2381902
972.80 0.2381223
972.90 0.2380544
973.00 0.2379865
973.10 0.2379187
973.20 0.2378509
973.30 0.2377831
973.40 0.2377153
973.50 0.2376475
973.60 0.2375798
973.70 0.2375121
973.80 0.2374444
973.90 0.2373768
974.00 0.2373091
974.10 0.2372415
974.20 0.2371739
974.30 0.2371063
974.40 0.2370388
974.50 0.2369713
974.60 0.2369037
974.70 0.2368363
974.80 0.2367688
974.90 0.2367014
975.00 0.236634
975.10 0.2365666
975.20 0.2364992
975.30 0.2364319
975.40 0.2363645
975.50 0.2362972
975.60 0.23623
975.70 0.2361627
975.80 0.2360955
975.90 0.2360283
976.00 0.2359611
976.10 0.2358939
976.20 0.2358268
976.30 0.2357597
976.40 0.2356926
976.50 0.2356255
976.60 0.2355584
976.70 0.2354914
976.80 0.2354244
976.90 0.2353574
977.00 0.2352905
977.10 0.2352235
977.20 0.2351566
977.30 0.2350897
977.40 0.2350228
977.50 0.234956
977.60 0.2348892
977.70 0.2348224
977.80 0.2347556
977.90 0.2346888
978.00 0.2346221
978.10 0.2345554
978.20 0.2344887
978.30 0.234422
978.40 0.2343554
978.50 0.2342887
978.60 0.2342221
978.70 0.2341556
978.80 0.234089
978.90 0.2340225
979.00 0.233956
979.10 0.2338895
979.20 0.233823
979.30 0.2337565
979.40 0.2336901
979.50 0.2336237
979.60 0.2335573
979.70 0.233491
979.80 0.2334246
979.90 0.2333583
980.00 0.233292
980.10 0.2332258
980.20 0.2331595
980.30 0.2330933
980.40 0.2330271
980.50 0.2329609
980.60 0.2328948
980.70 0.2328286
980.80 0.2327625
980.90 0.2326964
981.00 0.2326304
981.10 0.2325643
981.20 0.2324983
981.30 0.2324316
981.40 0.2323643
981.50 0.232297
981.60 0.2322297
981.70 0.2321624
981.80 0.2320952
981.90 0.232028
982.00 0.2319608
982.10 0.2318936
982.20 0.2318264
982.30 0.2317593
982.40 0.2316922
982.50 0.2316251
982.60 0.2315581
982.70 0.231491
982.80 0.231424
982.90 0.231357
983.00 0.2312901
983.10 0.2312231
983.20 0.2311562
983.30 0.2310893
983.40 0.2310224
983.50 0.2309555
983.60 0.2308887
983.70 0.2308219
983.80 0.2307551
983.90 0.2306883
984.00 0.2306216
984.10 0.2305549
984.20 0.2304882
984.30 0.2304215
984.40 0.2303548
984.50 0.2302882
984.60 0.2302216
984.70 0.230155
984.80 0.2300884
984.90 0.2300219
985.00 0.2299554
985.10 0.2298889
985.20 0.2298224
985.30 0.2297559
985.40 0.2296895
985.50 0.2296231
985.60 0.2295567
985.70 0.2294903
985.80 0.229424
985.90 0.2293577
986.00 0.2292914
986.10 0.2292251
986.20 0.2291588
986.30 0.2290926
986.40 0.2290264
986.50 0.2289602
986.60 0.228894
986.70 0.2288279
986.80 0.2287618
986.90 0.2286957
987.00 0.2286296
987.10 0.2285635
987.20 0.2284975
987.30 0.2284315
987.40 0.2283655
987.50 0.2282995
987.60 0.2282336
987.70 0.2281676
987.80 0.2281017
987.90 0.2280359
988.00 0.22797
988.10 0.2279042
988.20 0.2278383
988.30 0.2277726
988.40 0.2277068
988.50 0.227641
988.60 0.2275753
988.70 0.2275096
988.80 0.2274439
988.90 0.2273783
989.00 0.2273126
989.10 0.227247
989.20 0.2271814
989.30 0.2271158
989.40 0.2270503
989.50 0.2269848
989.60 0.2269192
989.70 0.2268538
989.80 0.2267883
989.90 0.2267229
990.00 0.2266574
990.10 0.226592
990.20 0.2265267
990.30 0.2264613
990.40 0.226396
990.50 0.2263307
990.60 0.2262654
990.70 0.2262001
990.80 0.2261349
990.90 0.2260696
991.00 0.2260044
991.10 0.2259399
991.20 0.2258764
991.30 0.2258129
991.40 0.2257495
991.50 0.2256861
991.60 0.2256227
991.70 0.2255593
991.80 0.225496
991.90 0.2254326
992.00 0.2253693
992.10 0.225306
992.20 0.2252428
992.30 0.2251795
992.40 0.2251163
992.50 0.2250531
992.60 0.2249899
992.70 0.2249268
992.80 0.2248636
992.90 0.2248005
993.00 0.2247374
993.10 0.2246743
993.20 0.2246112
993.30 0.2245482
993.40 0.2244852
993.50 0.2244222
993.60 0.2243592
993.70 0.2242963
993.80 0.2242333
993.90 0.2241704
994.00 0.2241075
994.10 0.2240447
994.20 0.2239818
994.30 0.223919
994.40 0.2238562
994.50 0.2237934
994.60 0.2237306
994.70 0.2236679
994.80 0.2236051
994.90 0.2235424
995.00 0.2234797
995.10 0.2234171
995.20 0.2233544
995.30 0.2232918
995.40 0.2232292
995.50 0.2231666
995.60 0.2231041
995.70 0.2230415
995.80 0.222979
995.90 0.2229165
996.00 0.222854
996.10 0.2227916
996.20 0.2227291
996.30 0.2226667
996.40 0.2226043
996.50 0.222542
996.60 0.2224796
996.70 0.2224173
996.80 0.222355
996.90 0.2222927
997.00 0.2222304
997.10 0.2221682
997.20 0.2221059
997.30 0.2220437
997.40 0.2219815
997.50 0.2219194
997.60 0.2218572
997.70 0.2217951
997.80 0.221733
997.90 0.2216709
998.00 0.2216089
998.10 0.2215468
998.20 0.2214848
998.30 0.2214228
998.40 0.2213608
998.50 0.2212988
998.60 0.2212369
998.70 0.221175
998.80 0.2211131
998.90 0.2210512
999.00 0.2209893
999.10 0.2209275
999.20 0.2208657
999.30 0.2208039
999.40 0.2207421
999.50 0.2206803
999.60 0.2206186
999.70 0.2205569
999.80 0.2204952
999.90 0.2204335
1000.00 0.2203718
1000.10 0.2203102
1000.20 0.2202486
1000.30 0.220187
1000.40 0.2201254
1000.50 0.2200639
1000.60 0.2200023
1000.70 0.2199408
1000.80 0.2198793
1000.90 0.2198178
1001.00 0.2197557
1001.10 0.2196915
1001.20 0.2196274
1001.30 0.2195633
1001.40 0.2194992
1001.50 0.2194351
1001.60 0.219371
1001.70 0.219307
1001.80 0.219243
1001.90 0.219179
1002.00 0.219115
1002.10 0.2190511
1002.20 0.2189872
1002.30 0.2189233
1002.40 0.2188594
1002.50 0.2187955
1002.60 0.2187317
1002.70 0.2186679
1002.80 0.2186041
1002.90 0.2185403
1003.00 0.2184765
1003.10 0.2184128
1003.20 0.2183491
1003.30 0.2182854
1003.40 0.2182217
1003.50 0.2181581
1003.60 0.2180945
1003.70 0.2180308
1003.80 0.2179673
1003.90 0.2179037
1004.00 0.2178401
1004.10 0.2177766
1004.20 0.2177131
1004.30 0.2176496
1004.40 0.2175862
1004.50 0.2175227
1004.60 0.2174593
1004.70 0.2173959
1004.80 0.2173325
1004.90 0.2172692
1005.00 0.2172059
1005.10 0.2171425
1005.20 0.2170792
1005.30 0.217016
1005.40 0.2169527
1005.50 0.2168895
1005.60 0.2168263
1005.70 0.2167631
1005.80 0.2166999
1005.90 0.2166368
1006.00 0.2165742
1006.10 0.216514
1006.20 0.2164538
1006.30 0.2163936
1006.40 0.2163334
1006.50 0.2162732
1006.60 0.2162131
1006.70 0.2161529
1006.80 0.2160928
1006.90 0.2160328
1007.00 0.2159727
1007.10 0.2159126
1007.20 0.2158526
1007.30 0.2157926
1007.40 0.2157326
1007.50 0.2156726
1007.60 0.2156127
1007.70 0.2155528
1007.80 0.2154928
1007.90 0.215433
1008.00 0.2153731
1008.10 0.2153132
1008.20 0.2152534
1008.30 0.2151936
1008.40 0.2151338
1008.50 0.215074
1008.60 0.2150143
1008.70 0.2149545
1008.80 0.2148948
1008.90 0.2148351
1009.00 0.2147754
1009.10 0.2147158
1009.20 0.2146561
1009.30 0.2145965
1009.40 0.2145369
1009.50 0.2144773
1009.60 0.2144178
1009.70 0.2143582
1009.80 0.2142987
1009.90 0.2142392
1010.00 0.2141797
1010.10 0.2141203
1010.20 0.2140608
1010.30 0.2140014
1010.40 0.213942
1010.50 0.2138826
1010.60 0.2138232
1010.70 0.2137639
1010.80 0.2137046
1010.90 0.2136453
1011.00 0.2135855
1011.10 0.2135236
1011.20 0.2134617
1011.30 0.2133999
1011.40 0.213338
1011.50 0.2132762
1011.60 0.2132144
1011.70 0.2131526
1011.80 0.2130908
1011.90 0.2130291
1012.00 0.2129673
1012.10 0.2129056
1012.20 0.212844
1012.30 0.2127823
1012.40 0.2127206
1012.50 0.212659
1012.60 0.2125974
1012.70 0.2125358
1012.80 0.2124743
1012.90 0.2124127
1013.00 0.2123512
1013.10 0.2122897
1013.20 0.2122282
1013.30 0.2121668
1013.40 0.2121053
1013.50 0.2120439
1013.60 0.2119825
1013.70 0.2119211
1013.80 0.2118597
1013.90 0.2117984
1014.00 0.2117371
1014.10 0.2116758
1014.20 0.2116145
1014.30 0.2115532
1014.40 0.211492
1014.50 0.2114308
1014.60 0.2113696
1014.70 0.2113084
1014.80 0.2112472
1014.90 0.2111861
1015.00 0.211125
1015.10 0.2110639
1015.20 0.2110028
1015.30 0.2109417
1015.40 0.2108807
1015.50 0.2108197
1015.60 0.2107586
1015.70 0.2106977
1015.80 0.2106367
1015.90 0.2105758
1016.00 0.2105148
1016.10 0.2104557
1016.20 0.2103976
1016.30 0.2103395
1016.40 0.2102814
1016.50 0.2102234
1016.60 0.2101653
1016.70 0.2101073
1016.80 0.2100493
1016.90 0.2099914
1017.00 0.2099334
1017.10 0.2098755
1017.20 0.2098176
1017.30 0.2097597
1017.40 0.2097018
1017.50 0.2096439
1017.60 0.2095861
1017.70 0.2095283
1017.80 0.2094705
1017.90 0.2094127
1018.00 0.2093549
1018.10 0.2092972
1018.20 0.2092394
1018.30 0.2091817
1018.40 0.209124
1018.50 0.2090664
1018.60 0.2090087
1018.70 0.2089511
1018.80 0.2088935
1018.90 0.2088359
1019.00 0.2087783
1019.10 0.2087207
1019.20 0.2086632
1019.30 0.2086057
1019.40 0.2085482
1019.50 0.2084907
1019.60 0.2084332
1019.70 0.2083758
1019.80 0.2083183
1019.90 0.2082609
1020.00 0.2082035
1020.10 0.2081462
1020.20 0.2080888
1020.30 0.2080315
1020.40 0.2079741
1020.50 0.2079168
1020.60 0.2078596
1020.70 0.2078023
1020.80 0.207745
1020.90 0.2076878
1021.00 0.2076306
1021.10 0.2075732
1021.20 0.2075135
1021.30 0.2074538
1021.40 0.2073941
1021.50 0.2073344
1021.60 0.2072748
1021.70 0.2072151
1021.80 0.2071555
1021.90 0.2070959
1022.00 0.2070363
1022.10 0.2069768
1022.20 0.2069172
1022.30 0.2068577
1022.40 0.2067982
1022.50 0.2067387
1022.60 0.2066793
1022.70 0.2066198
1022.80 0.2065604
1022.90 0.206501
1023.00 0.2064416
1023.10 0.2063823
1023.20 0.2063229
1023.30 0.2062636
1023.40 0.2062043
1023.50 0.206145
1023.60 0.2060857
1023.70 0.2060265
1023.80 0.2059672
1023.90 0.205908
1024.00 0.2058488
1024.10 0.2057897
1024.20 0.2057305
1024.30 0.2056714
1024.40 0.2056123
1024.50 0.2055532
1024.60 0.2054941
1024.70 0.205435
1024.80 0.205376
1024.90 0.205317
1025.00 0.205258
1025.10 0.205199
1025.20 0.20514
1025.30 0.2050811
1025.40 0.2050222
1025.50 0.2049632
1025.60 0.2049044
1025.70 0.2048455
1025.80 0.2047866
1025.90 0.2047278
1026.00 0.204669
1026.10 0.2046102
1026.20 0.2045515
1026.30 0.2044954
1026.40 0.2044394
1026.50 0.2043834
1026.60 0.2043273
1026.70 0.2042714
1026.80 0.2042154
1026.90 0.2041594
1027.00 0.2041035
1027.10 0.2040476
1027.20 0.2039917
1027.30 0.2039358
1027.40 0.20388
1027.50 0.2038241
1027.60 0.2037683
1027.70 0.2037125
1027.80 0.2036567
1027.90 0.2036009
1028.00 0.2035452
1028.10 0.2034894
1028.20 0.2034337
1028.30 0.203378
1028.40 0.2033223
1028.50 0.2032667
1028.60 0.203211
1028.70 0.2031554
1028.80 0.2030998
1028.90 0.2030442
1029.00 0.2029886
1029.10 0.2029331
1029.20 0.2028775
1029.30 0.202822
1029.40 0.2027665
1029.50 0.202711
1029.60 0.2026556
1029.70 0.2026001
1029.80 0.2025447
1029.90 0.2024893
1030.00 0.2024339
1030.10 0.2023785
1030.20 0.2023231
1030.30 0.2022678
1030.40 0.2022124
1030.50 0.2021571
1030.60 0.2021018
1030.70 0.2020466
1030.80 0.2019913
1030.90 0.2019361
1031.00 0.2018809
1031.10 0.2018257
1031.20 0.2017705
1031.30 0.2017153
1031.40 0.2016603
1031.50 0.2016053
1031.60 0.2015504
1031.70 0.2014954
1031.80 0.2014405
1031.90 0.2013856
1032.00 0.2013307
1032.10 0.2012759
1032.20 0.201221
1032.30 0.2011662
1032.40 0.2011114
1032.50 0.2010566
1032.60 0.2010018
1032.70 0.200947
1032.80 0.2008923
1032.90 0.2008376
1033.00 0.2007829
1033.10 0.2007282
1033.20 0.2006735
1033.30 0.2006188
1033.40 0.2005642
1033.50 0.2005096
1033.60 0.200455
1033.70 0.2004004
1033.80 0.2003458
1033.90 0.2002913
1034.00 0.2002367
1034.10 0.2001822
1034.20 0.2001277
1034.30 0.2000732
1034.40 0.2000188
1034.50 0.1999643
1034.60 0.1999099
1034.70 0.1998555
1034.80 0.1998011
1034.90 0.1997467
1035.00 0.1996923
1035.10 0.199638
1035.20 0.1995837
1035.30 0.1995294
1035.40 0.1994751
1035.50 0.1994208
1035.60 0.1993665
1035.70 0.1993123
1035.80 0.1992581
1035.90 0.1992039
1036.00 0.1991497
1036.10 0.1990955
1036.20 0.1990413
1036.30 0.1989872
1036.40 0.1989331
1036.50 0.198878
1036.60 0.1988212
1036.70 0.1987646
1036.80 0.1987079
1036.90 0.1986512
1037.00 0.1985946
1037.10 0.198538
1037.20 0.1984814
1037.30 0.1984248
1037.40 0.1983682
1037.50 0.1983117
1037.60 0.1982551
1037.70 0.1981986
1037.80 0.1981421
1037.90 0.1980857
1038.00 0.1980292
1038.10 0.1979728
1038.20 0.1979164
1038.30 0.19786
1038.40 0.1978036
1038.50 0.1977472
1038.60 0.1976909
1038.70 0.1976345
1038.80 0.1975782
1038.90 0.1975219
1039.00 0.1974657
1039.10 0.1974094
1039.20 0.1973532
1039.30 0.1972969
1039.40 0.1972407
1039.50 0.1971846
1039.60 0.1971284
1039.70 0.1970722
1039.80 0.1970161
1039.90 0.19696
1040.00 0.1969039
1040.10 0.1968478
1040.20 0.1967918
1040.30 0.1967357
1040.40 0.1966797
1040.50 0.1966237
1040.60 0.1965677
1040.70 0.1965117
1040.80 0.1964558
1040.90 0.1963998
1041.00 0.1963439
1041.10 0.196288
1041.20 0.1962322
1041.30 0.1961763
1041.40 0.1961204
1041.50 0.1960646
1041.60 0.1960088
1041.70 0.1959532
1041.80 0.1958976
1041.90 0.195842
1042.00 0.1957864
1042.10 0.1957309
1042.20 0.1956754
1042.30 0.1956199
1042.40 0.1955644
1042.50 0.1955089
1042.60 0.1954535
1042.70 0.195398
1042.80 0.1953426
1042.90 0.1952872
1043.00 0.1952318
1043.10 0.1951765
1043.20 0.1951211
1043.30 0.1950658
1043.40 0.1950105
1043.50 0.1949552
1043.60 0.1948999
1043.70 0.1948447
1043.80 0.1947894
1043.90 0.1947342
1044.00 0.194679
1044.10 0.1946238
1044.20 0.1945687
1044.30 0.1945135
1044.40 0.1944584
1044.50 0.1944033
1044.60 0.1943482
1044.70 0.1942931
1044.80 0.194238
1044.90 0.194183
1045.00 0.1941279
1045.10 0.1940729
1045.20 0.1940179
1045.30 0.193963
1045.40 0.193908
1045.50 0.1938531
1045.60 0.1937981
1045.70 0.1937432
1045.80 0.1936883
1045.90 0.1936335
1046.00 0.1935786
1046.10 0.1935238
1046.20 0.193469
1046.30 0.1934142
1046.40 0.1933594
1046.50 0.1933046
1046.60 0.1932499
1046.70 0.1931951
1046.80 0.1931404
1046.90 0.1930876
1047.00 0.1930355
1047.10 0.1929834
1047.20 0.1929313
1047.30 0.1928792
1047.40 0.1928271
1047.50 0.1927751
1047.60 0.192723
1047.70 0.192671
1047.80 0.192619
1047.90 0.192567
1048.00 0.192515
1048.10 0.1924631
1048.20 0.1924111
1048.30 0.1923592
1048.40 0.1923073
1048.50 0.1922554
1048.60 0.1922035
1048.70 0.1921517
1048.80 0.1920998
1048.90 0.192048
1049.00 0.1919962
1049.10 0.1919444
1049.20 0.1918926
1049.30 0.1918408
1049.40 0.1917891
1049.50 0.1917374
1049.60 0.1916857
1049.70 0.191634
1049.80 0.1915823
1049.90 0.1915306
1050.00 0.191479
1050.10 0.1914273
1050.20 0.1913757
1050.30 0.1913241
1050.40 0.1912725
1050.50 0.191221
1050.60 0.1911694
1050.70 0.1911179
1050.80 0.1910664
1050.90 0.1910149
1051.00 0.1909634
1051.10 0.1909119
1051.20 0.1908604
1051.30 0.190809
1051.40 0.1907576
1051.50 0.1907062
1051.60 0.1906548
1051.70 0.1906034
1051.80 0.1905521
1051.90 0.1905007
1052.00 0.1904494
1052.10 0.1903973
1052.20 0.190345
1052.30 0.1902926
1052.40 0.1902402
1052.50 0.1901879
1052.60 0.1901356
1052.70 0.1900833
1052.80 0.190031
1052.90 0.1899787
1053.00 0.1899264
1053.10 0.1898742
1053.20 0.189822
1053.30 0.1897698
1053.40 0.1897176
1053.50 0.1896654
1053.60 0.1896132
1053.70 0.1895611
1053.80 0.189509
1053.90 0.1894569
1054.00 0.1894048
1054.10 0.1893527
1054.20 0.1893006
1054.30 0.1892486
1054.40 0.1891966
1054.50 0.1891445
1054.60 0.1890925
1054.70 0.1890406
1054.80 0.1889886
1054.90 0.1889367
1055.00 0.1888847
1055.10 0.1888328
1055.20 0.1887809
1055.30 0.188729
1055.40 0.1886772
1055.50 0.1886253
1055.60 0.1885735
1055.70 0.1885217
1055.80 0.1884699
1055.90 0.1884181
1056.00 0.1883663
1056.10 0.1883146
1056.20 0.1882628
1056.30 0.1882111
1056.40 0.1881594
1056.50 0.1881077
1056.60 0.1880561
1056.70 0.1880044
1056.80 0.1879528
1056.90 0.1879011
1057.00 0.1878495
1057.10 0.1877979
1057.20 0.1877464
1057.30 0.1876948
1057.40 0.1876433
1057.50 0.1875918
1057.60 0.1875402
1057.70 0.1874888
1057.80 0.1874373
1057.90 0.1873858
1058.00 0.1873344
1058.10 0.1872829
1058.20 0.1872315
1058.30 0.1871801
1058.40 0.1871288
1058.50 0.1870774
1058.60 0.187026
1058.70 0.1869747
1058.80 0.1869234
1058.90 0.1868721
1059.00 0.1868208
1059.10 0.1867695
1059.20 0.1867183
1059.30 0.1866671
1059.40 0.1866158
1059.50 0.1865646
1059.60 0.1865135
1059.70 0.1864623
1059.80 0.1864111
1059.90 0.18636
1060.00 0.1863089
1060.10 0.1862578
1060.20 0.1862067
1060.30 0.1861556
1060.40 0.1861045
1060.50 0.1860535
1060.60 0.1860025
1060.70 0.1859514
1060.80 0.1859004
1060.90 0.1858495
1061.00 0.1857985
1061.10 0.1857476
1061.20 0.1856966
1061.30 0.1856457
1061.40 0.1855948
1061.50 0.1855439
1061.60 0.1854931
1061.70 0.1854422
1061.80 0.1853914
1061.90 0.1853405
1062.00 0.1852897
1062.10 0.185239
1062.20 0.1851882
1062.30 0.1851374
1062.40 0.1850867
1062.50 0.185036
1062.60 0.1849848
1062.70 0.184933
1062.80 0.1848813
1062.90 0.1848296
1063.00 0.1847779
1063.10 0.1847262
1063.20 0.1846745
1063.30 0.1846229
1063.40 0.1845712
1063.50 0.1845196
1063.60 0.184468
1063.70 0.1844164
1063.80 0.1843649
1063.90 0.1843133
1064.00 0.1842618
1064.10 0.1842103
1064.20 0.1841587
1064.30 0.1841073
1064.40 0.1840558
1064.50 0.1840043
1064.60 0.1839529
1064.70 0.1839015
1064.80 0.1838501
1064.90 0.1837987
1065.00 0.1837473
1065.10 0.1836959
1065.20 0.1836446
1065.30 0.1835933
1065.40 0.1835419
1065.50 0.1834907
1065.60 0.1834394
1065.70 0.1833881
1065.80 0.1833369
1065.90 0.1832856
1066.00 0.1832344
1066.10 0.1831832
1066.20 0.183132
1066.30 0.1830809
1066.40 0.1830297
1066.50 0.1829786
1066.60 0.1829275
1066.70 0.1828764
1066.80 0.1828253
1066.90 0.1827742
1067.00 0.1827231
1067.10 0.1826721
1067.20 0.1826211
1067.30 0.1825701
1067.40 0.1825191
1067.50 0.1824681
1067.60 0.1824171
1067.70 0.1823662
1067.80 0.1823153
1067.90 0.1822643
1068.00 0.1822134
1068.10 0.1821626
1068.20 0.1821117
1068.30 0.1820608
1068.40 0.18201
1068.50 0.1819592
1068.60 0.1819084
1068.70 0.1818576
1068.80 0.1818068
1068.90 0.1817561
1069.00 0.1817053
1069.10 0.1816546
1069.20 0.1816039
1069.30 0.1815532
1069.40 0.1815025
1069.50 0.1814518
1069.60 0.1814012
1069.70 0.1813506
1069.80 0.1812999
1069.90 0.1812493
1070.00 0.1811988
1070.10 0.1811482
1070.20 0.1810976
1070.30 0.1810471
1070.40 0.1809966
1070.50 0.1809461
1070.60 0.1808956
1070.70 0.1808451
1070.80 0.1807947
1070.90 0.1807442
1071.00 0.1806938
1071.10 0.1806434
1071.20 0.180593
1071.30 0.1805426
1071.40 0.1804922
1071.50 0.1804419
1071.60 0.1803916
1071.70 0.1803412
1071.80 0.1802909
1071.90 0.1802407
1072.00 0.1801904
1072.10 0.1801401
1072.20 0.1800899
1072.30 0.1800397
1072.40 0.1799895
1072.50 0.1799393
1072.60 0.1798891
1072.70 0.1798389
1072.80 0.1797888
1072.90 0.1797386
1073.00 0.1796885
1073.10 0.1796384
1073.20 0.1795889
1073.30 0.1795413
1073.40 0.1794938
1073.50 0.1794463
1073.60 0.1793988
1073.70 0.1793513
1073.80 0.1793038
1073.90 0.1792563
1074.00 0.1792089
1074.10 0.1791614
1074.20 0.179114
1074.30 0.1790666
1074.40 0.1790192
1074.50 0.1789718
1074.60 0.1789245
1074.70 0.1788771
1074.80 0.1788298
1074.90 0.1787825
1075.00 0.1787352
1075.10 0.1786879
1075.20 0.1786406
1075.30 0.1785933
1075.40 0.1785461
1075.50 0.1784989
1075.60 0.1784516
1075.70 0.1784044
1075.80 0.1783572
1075.90 0.1783101
1076.00 0.1782629
1076.10 0.1782158
1076.20 0.1781686
1076.30 0.1781215
1076.40 0.1780744
1076.50 0.1780273
1076.60 0.1779803
1076.70 0.1779332
1076.80 0.1778861
1076.90 0.1778391
1077.00 0.1777921
1077.10 0.1777451
1077.20 0.1776981
1077.30 0.1776511
1077.40 0.1776042
1077.50 0.1775572
1077.60 0.1775103
1077.70 0.1774634
1077.80 0.1774165
1077.90 0.1773696
1078.00 0.1773227
1078.10 0.1772759
1078.20 0.177229
1078.30 0.1771822
1078.40 0.1771354
1078.50 0.1770886
1078.60 0.1770405
1078.70 0.1769914
1078.80 0.1769423
1078.90 0.1768933
1079.00 0.1768442
1079.10 0.1767952
1079.20 0.1767462
1079.30 0.1766972
1079.40 0.1766482
1079.50 0.1765992
1079.60 0.1765502
1079.70 0.1765013
1079.80 0.1764524
1079.90 0.1764034
1080.00 0.1763545
1080.10 0.1763057
1080.20 0.1762568
1080.30 0.1762079
1080.40 0.1761591
1080.50 0.1761103
1080.60 0.1760615
1080.70 0.1760127
1080.80 0.1759639
1080.90 0.1759151
1081.00 0.1758664
1081.10 0.1758176
1081.20 0.1757689
1081.30 0.1757202
1081.40 0.1756715
1081.50 0.1756228
1081.60 0.1755742
1081.70 0.1755255
1081.80 0.1754769
1081.90 0.1754283
1082.00 0.1753797
1082.10 0.1753311
1082.20 0.1752825
1082.30 0.175234
1082.40 0.1751855
1082.50 0.1751369
1082.60 0.1750884
1082.70 0.1750399
1082.80 0.1749914
1082.90 0.174943
1083.00 0.1748945
1083.10 0.1748461
1083.20 0.1747977
1083.30 0.1747493
1083.40 0.1747009
1083.50 0.1746525
1083.60 0.1746041
1083.70 0.1745558
1083.80 0.1745075
1083.90 0.1744591
1084.00 0.174413
1084.10 0.1743672
1084.20 0.1743213
1084.30 0.1742755
1084.40 0.1742297
1084.50 0.1741839
1084.60 0.1741381
1084.70 0.1740924
1084.80 0.1740466
1084.90 0.1740009
1085.00 0.1739552
1085.10 0.1739095
1085.20 0.1738638
1085.30 0.1738181
1085.40 0.1737724
1085.50 0.1737268
1085.60 0.1736811
1085.70 0.1736355
1085.80 0.1735899
1085.90 0.1735443
1086.00 0.1734987
1086.10 0.1734531
1086.20 0.1734076
1086.30 0.173362
1086.40 0.1733165
1086.50 0.173271
1086.60 0.1732255
1086.70 0.17318
1086.80 0.1731345
1086.90 0.1730891
1087.00 0.1730436
1087.10 0.1729982
1087.20 0.1729528
1087.30 0.1729074
1087.40 0.172862
1087.50 0.1728166
1087.60 0.1727713
1087.70 0.1727259
1087.80 0.1726806
1087.90 0.1726352
1088.00 0.1725899
1088.10 0.1725446
1088.20 0.1724994
1088.30 0.1724541
1088.40 0.1724088
1088.50 0.1723636
1088.60 0.1723184
1088.70 0.1722732
1088.80 0.172228
1088.90 0.1721828
1089.00 0.1721376
1089.10 0.1720925
1089.20 0.1720473
1089.30 0.1720022
1089.40 0.1719555
1089.50 0.1719082
1089.60 0.1718608
1089.70 0.1718135
1089.80 0.1717662
1089.90 0.1717189
1090.00 0.1716716
1090.10 0.1716243
1090.20 0.171577
1090.30 0.1715298
1090.40 0.1714826
1090.50 0.1714353
1090.60 0.1713881
1090.70 0.171341
1090.80 0.1712938
1090.90 0.1712466
1091.00 0.1711995
1091.10 0.1711523
1091.20 0.1711052
1091.30 0.1710581
1091.40 0.171011
1091.50 0.170964
1091.60 0.1709169
1091.70 0.1708699
1091.80 0.1708228
1091.90 0.1707758
1092.00 0.1707288
1092.10 0.1706818
1092.20 0.1706349
1092.30 0.1705879
1092.40 0.170541
1092.50 0.170494
1092.60 0.1704471
1092.70 0.1704002
1092.80 0.1703533
1092.90 0.1703065
1093.00 0.1702596
1093.10 0.1702128
1093.20 0.1701659
1093.30 0.1701191
1093.40 0.1700723
1093.50 0.1700255
1093.60 0.1699788
1093.70 0.169932
1093.80 0.1698853
1093.90 0.1698385
1094.00 0.1697918
1094.10 0.1697451
1094.20 0.1696984
1094.30 0.1696518
1094.40 0.1696051
1094.50 0.1695585
1094.60 0.1695118
1094.70 0.1694652
1094.80 0.1694187
1094.90 0.1693723
1095.00 0.1693259
1095.10 0.1692795
1095.20 0.1692331
1095.30 0.1691867
1095.40 0.1691403
1095.50 0.169094
1095.60 0.1690477
1095.70 0.1690013
1095.80 0.168955
1095.90 0.1689088
1096.00 0.1688625
1096.10 0.1688162
1096.20 0.16877
1096.30 0.1687237
1096.40 0.1686775
1096.50 0.1686313
1096.60 0.1685851
1096.70 0.168539
1096.80 0.1684928
1096.90 0.1684466
1097.00 0.1684005
1097.10 0.1683544
1097.20 0.1683083
1097.30 0.1682622
1097.40 0.1682161
1097.50 0.1681701
1097.60 0.168124
1097.70 0.168078
1097.80 0.168032
1097.90 0.1679859
1098.00 0.16794
1098.10 0.167894
1098.20 0.167848
1098.30 0.1678021
1098.40 0.1677561
1098.50 0.1677102
1098.60 0.1676643
1098.70 0.1676184
1098.80 0.1675725
1098.90 0.1675266
1099.00 0.1674808
1099.10 0.1674349
1099.20 0.1673891
1099.30 0.1673433
1099.40 0.1672975
1099.50 0.1672517
1099.60 0.1672059
1099.70 0.1671602
1099.80 0.1671144
1099.90 0.1670687
1100.00 0.167023
1100.10 0.1669773
1100.20 0.1669316
1100.30 0.1668859
1100.40 0.1668403
1100.50 0.1667946
1100.60 0.166749
1100.70 0.1667034
1100.80 0.1666578
1100.90 0.1666122
1101.00 0.1665666
1101.10 0.166521
1101.20 0.1664755
1101.30 0.16643
1101.40 0.1663844
1101.50 0.1663389
1101.60 0.1662934
1101.70 0.166248
1101.80 0.1662025
1101.90 0.166157
1102.00 0.1661116
1102.10 0.1660662
1102.20 0.1660208
1102.30 0.1659754
1102.40 0.16593
1102.50 0.1658846
1102.60 0.1658393
1102.70 0.1657939
1102.80 0.1657486
1102.90 0.1657033
1103.00 0.165658
1103.10 0.1656127
1103.20 0.1655674
1103.30 0.1655221
1103.40 0.1654769
1103.50 0.1654317
1103.60 0.1653864
1103.70 0.1653412
1103.80 0.165296
1103.90 0.1652509
1104.00 0.1652057
1104.10 0.1651605
1104.20 0.1651154
1104.30 0.1650703
1104.40 0.1650252
1104.50 0.1649801
1104.60 0.164935
1104.70 0.1648899
1104.80 0.1648449
1104.90 0.1647998
1105.00 0.1647548
1105.10 0.1647098
1105.20 0.1646648
1105.30 0.1646198
1105.40 0.1645748
1105.50 0.1645299
1105.60 0.1644849
1105.70 0.16444
1105.80 0.1643963
1105.90 0.1643526
1106.00 0.164309
1106.10 0.1642653
1106.20 0.1642217
1106.30 0.164178
1106.40 0.1641344
1106.50 0.1640908
1106.60 0.1640472
1106.70 0.1640036
1106.80 0.1639601
1106.90 0.1639165
1107.00 0.163873
1107.10 0.1638294
1107.20 0.1637859
1107.30 0.1637424
1107.40 0.1636989
1107.50 0.1636555
1107.60 0.163612
1107.70 0.1635686
1107.80 0.1635251
1107.90 0.1634817
1108.00 0.1634383
1108.10 0.1633949
1108.20 0.1633515
1108.30 0.1633081
1108.40 0.1632648
1108.50 0.1632214
1108.60 0.1631781
1108.70 0.1631348
1108.80 0.1630915
1108.90 0.1630482
1109.00 0.1630049
1109.10 0.1629616
1109.20 0.1629184
1109.30 0.1628751
1109.40 0.1628319
1109.50 0.1627887
1109.60 0.1627455
1109.70 0.1627023
1109.80 0.1626591
1109.90 0.162616
1110.00 0.1625728
1110.10 0.1625297
1110.20 0.1624866
1110.30 0.1624435
1110.40 0.1624004
1110.50 0.1623573
1110.60 0.1623142
1110.70 0.1622711
1110.80 0.1622281
1110.90 0.1621851
1111.00 0.162142
1111.10 0.162099
1111.20 0.162056
1111.30 0.162013
1111.40 0.1619701
1111.50 0.1619271
1111.60 0.1618842
1111.70 0.1618412
1111.80 0.1617983
1111.90 0.1617554
1112.00 0.1617125
1112.10 0.1616696
1112.20 0.1616268
1112.30 0.1615839
1112.40 0.1615411
1112.50 0.1614983
1112.60 0.1614554
1112.70 0.1614126
1112.80 0.1613698
1112.90 0.1613271
1113.00 0.1612843
1113.10 0.1612415
1113.20 0.1611988
1113.30 0.1611561
1113.40 0.1611134
1113.50 0.1610707
1113.60 0.161028
1113.70 0.1609853
1113.80 0.1609426
1113.90 0.1609
1114.00 0.1608573
1114.10 0.1608147
1114.20 0.1607721
1114.30 0.1607295
1114.40 0.1606869
1114.50 0.1606443
1114.60 0.1606018
1114.70 0.1605592
1114.80 0.1605167
1114.90 0.1604742
1115.00 0.1604317
1115.10 0.1603892
1115.20 0.1603467
1115.30 0.1603042
1115.40 0.1602618
1115.50 0.1602193
1115.60 0.1601769
1115.70 0.1601344
1115.80 0.160092
1115.90 0.1600496
1116.00 0.1600073
1116.10 0.1599649
1116.20 0.1599225
1116.30 0.1598802
1116.40 0.1598378
1116.50 0.1597955
1116.60 0.1597532
1116.70 0.1597109
1116.80 0.1596682
1116.90 0.1596251
1117.00 0.1595819
1117.10 0.1595387
1117.20 0.1594956
1117.30 0.1594525
1117.40 0.1594094
1117.50 0.1593663
1117.60 0.1593232
1117.70 0.1592801
1117.80 0.159237
1117.90 0.159194
1118.00 0.159151
1118.10 0.1591079
1118.20 0.1590649
1118.30 0.1590219
1118.40 0.1589789
1118.50 0.158936
1118.60 0.158893
1118.70 0.1588501
1118.80 0.1588071
1118.90 0.1587642
1119.00 0.1587213
1119.10 0.1586784
1119.20 0.1586355
1119.30 0.1585927
1119.40 0.1585498
1119.50 0.158507
1119.60 0.1584641
1119.70 0.1584213
1119.80 0.1583785
1119.90 0.1583357
1120.00 0.1582929
1120.10 0.1582502
1120.20 0.1582074
1120.30 0.1581647
1120.40 0.158122
1120.50 0.1580792
1120.60 0.1580365
1120.70 0.1579939
1120.80 0.1579512
1120.90 0.1579085
1121.00 0.1578659
1121.10 0.1578232
1121.20 0.1577806
1121.30 0.157738
1121.40 0.1576954
1121.50 0.1576528
1121.60 0.1576102
1121.70 0.1575677
1121.80 0.1575251
1121.90 0.1574826
1122.00 0.15744
1122.10 0.1573975
1122.20 0.157355
1122.30 0.1573125
1122.40 0.1572713
1122.50 0.1572309
1122.60 0.1571905
1122.70 0.1571502
1122.80 0.1571098
1122.90 0.1570694
1123.00 0.1570291
1123.10 0.1569888
1123.20 0.1569484
1123.30 0.1569081
1123.40 0.1568678
1123.50 0.1568276
1123.60 0.1567873
1123.70 0.156747
1123.80 0.1567068
1123.90 0.1566666
1124.00 0.1566263
1124.10 0.1565861
1124.20 0.1565459
1124.30 0.1565057
1124.40 0.1564656
1124.50 0.1564254
1124.60 0.1563852
1124.70 0.1563451
1124.80 0.156305
1124.90 0.1562649
1125.00 0.1562248
1125.10 0.1561847
1125.20 0.1561446
1125.30 0.1561045
1125.40 0.1560645
1125.50 0.1560244
1125.60 0.1559844
1125.70 0.1559443
1125.80 0.1559043
1125.90 0.1558643
1126.00 0.1558244
1126.10 0.1557844
1126.20 0.1557444
1126.30 0.1557045
1126.40 0.1556645
1126.50 0.1556246
1126.60 0.1555847
1126.70 0.1555448
1126.80 0.1555049
1126.90 0.155465
1127.00 0.1554251
1127.10 0.1553853
1127.20 0.1553454
1127.30 0.1553056
1127.40 0.1552658
1127.50 0.155226
1127.60 0.1551862
1127.70 0.1551464
1127.80 0.1551066
1127.90 0.1550668
1128.00 0.1550256
1128.10 0.1549839
1128.20 0.1549423
1128.30 0.1549007
1128.40 0.1548591
1128.50 0.1548175
1128.60 0.1547759
1128.70 0.1547344
1128.80 0.1546928
1128.90 0.1546513
1129.00 0.1546097
1129.10 0.1545682
1129.20 0.1545267
1129.30 0.1544852
1129.40 0.1544438
1129.50 0.1544023
1129.60 0.1543608
1129.70 0.1543194
1129.80 0.154278
1129.90 0.1542365
1130.00 0.1541951
1130.10 0.1541537
1130.20 0.1541124
1130.30 0.154071
1130.40 0.1540296
1130.50 0.1539883
1130.60 0.1539469
1130.70 0.1539056
1130.80 0.1538643
1130.90 0.153823
1131.00 0.1537817
1131.10 0.1537405
1131.20 0.1536992
1131.30 0.153658
1131.40 0.1536167
1131.50 0.1535755
1131.60 0.1535343
1131.70 0.1534931
1131.80 0.1534519
1131.90 0.1534107
1132.00 0.1533696
1132.10 0.1533284
1132.20 0.1532873
1132.30 0.1532462
1132.40 0.153205
1132.50 0.1531639
1132.60 0.1531229
1132.70 0.1530818
1132.80 0.1530407
1132.90 0.1529997
1133.00 0.1529586
1133.10 0.1529176
1133.20 0.1528766
1133.30 0.1528356
1133.40 0.1527946
1133.50 0.1527536
1133.60 0.1527126
1133.70 0.1526717
1133.80 0.1526307
1133.90 0.1525898
1134.00 0.1525489
1134.10 0.152508
1134.20 0.1524671
1134.30 0.1524262
1134.40 0.1523853
1134.50 0.1523444
1134.60 0.1523036
1134.70 0.1522628
1134.80 0.1522219
1134.90 0.1521811
1135.00 0.1521403
1135.10 0.1520995
1135.20 0.1520588
1135.30 0.152018
1135.40 0.1519772
1135.50 0.1519365
1135.60 0.1518958
1135.70 0.1518551
1135.80 0.1518144
1135.90 0.1517737
1136.00 0.151733
1136.10 0.1516923
1136.20 0.1516517
1136.30 0.151611
1136.40 0.1515704
1136.50 0.1515298
1136.60 0.1514892
1136.70 0.1514486
1136.80 0.151408
1136.90 0.1513674
1137.00 0.1513268
1137.10 0.1512863
1137.20 0.1512458
1137.30 0.1512052
1137.40 0.1511647
1137.50 0.1511242
1137.60 0.1510837
1137.70 0.1510433
1137.80 0.1510028
1137.90 0.1509623
1138.00 0.1509219
1138.10 0.1508815
1138.20 0.1508411
1138.30 0.1508006
1138.40 0.1507603
1138.50 0.1507199
1138.60 0.1506795
1138.70 0.1506391
1138.80 0.1505988
1138.90 0.1505585
1139.00 0.1505181
1139.10 0.1504778
1139.20 0.1504375
1139.30 0.1503983
1139.40 0.1503592
1139.50 0.15032
1139.60 0.1502809
1139.70 0.1502418
1139.80 0.1502027
1139.90 0.1501636
1140.00 0.1501245
1140.10 0.1500854
1140.20 0.1500463
1140.30 0.1500073
1140.40 0.1499682
1140.50 0.1499292
1140.60 0.1498902
1140.70 0.1498512
1140.80 0.1498122
1140.90 0.1497732
1141.00 0.1497342
1141.10 0.1496952
1141.20 0.1496563
1141.30 0.1496174
1141.40 0.1495784
1141.50 0.1495395
1141.60 0.1495006
1141.70 0.1494617
1141.80 0.1494228
1141.90 0.1493839
1142.00 0.1493451
1142.10 0.1493062
1142.20 0.1492674
1142.30 0.1492286
1142.40 0.1491897
1142.50 0.1491509
1142.60 0.1491121
1142.70 0.1490734
1142.80 0.1490346
1142.90 0.1489958
1143.00 0.1489571
1143.10 0.1489183
1143.20 0.1488796
1143.30 0.1488409
1143.40 0.1488022
1143.50 0.1487635
1143.60 0.1487248
1143.70 0.1486862
1143.80 0.1486475
1143.90 0.1486089
1144.00 0.1485702
1144.10 0.1485316
1144.20 0.148493
1144.30 0.1484544
1144.40 0.1484158
1144.50 0.1483772
1144.60 0.1483386
1144.70 0.1483001
1144.80 0.1482615
1144.90 0.148223
1145.00 0.1481845
1145.10 0.148146
1145.20 0.1481075
1145.30 0.148069
1145.40 0.1480305
1145.50 0.147992
1145.60 0.1479536
1145.70 0.1479151
1145.80 0.1478767
1145.90 0.1478383
1146.00 0.1477998
1146.10 0.1477614
1146.20 0.1477231
1146.30 0.1476847
1146.40 0.1476463
1146.50 0.147608
1146.60 0.1475696
1146.70 0.1475313
1146.80 0.1474929
1146.90 0.1474546
1147.00 0.1474163
1147.10 0.147378
1147.20 0.1473398
1147.30 0.1473015
1147.40 0.1472632
1147.50 0.147225
1147.60 0.1471868
1147.70 0.1471485
1147.80 0.1471103
1147.90 0.1470721
1148.00 0.1470339
1148.10 0.1469958
1148.20 0.1469576
1148.30 0.1469194
1148.40 0.1468813
1148.50 0.1468432
1148.60 0.146805
1148.70 0.1467669
1148.80 0.1467288
1148.90 0.1466907
1149.00 0.1466526
1149.10 0.1466146
1149.20 0.1465765
1149.30 0.1465385
1149.40 0.1465004
1149.50 0.1464624
1149.60 0.1464244
1149.70 0.1463864
1149.80 0.1463484
1149.90 0.1463104
1150.00 0.1462725
1150.10 0.1462345
1150.20 0.1461966
1150.30 0.1461586
1150.40 0.1461207
1150.50 0.1460828
1150.60 0.1460448
1150.70 0.1460061
1150.80 0.1459674
1150.90 0.1459287
1151.00 0.14589
1151.10 0.1458513
1151.20 0.1458127
1151.30 0.145774
1151.40 0.1457354
1151.50 0.1456967
1151.60 0.1456581
1151.70 0.1456195
1151.80 0.1455809
1151.90 0.1455423
1152.00 0.1455037
1152.10 0.1454652
1152.20 0.1454266
1152.30 0.1453881
1152.40 0.1453495
1152.50 0.145311
1152.60 0.1452725
1152.70 0.145234
1152.80 0.1451955
1152.90 0.145157
1153.00 0.1451186
1153.10 0.1450801
1153.20 0.1450417
1153.30 0.1450032
1153.40 0.1449648
1153.50 0.1449264
1153.60 0.144888
1153.70 0.1448496
1153.80 0.1448112
1153.90 0.1447729
1154.00 0.1447345
1154.10 0.1446962
1154.20 0.1446578
1154.30 0.1446195
1154.40 0.1445812
1154.50 0.1445429
1154.60 0.1445046
1154.70 0.1444663
1154.80 0.1444281
1154.90 0.1443898
1155.00 0.1443516
1155.10 0.1443133
1155.20 0.1442751
1155.30 0.1442369
1155.40 0.1441987
1155.50 0.1441605
1155.60 0.1441224
1155.70 0.1440842
1155.80 0.144046
1155.90 0.1440079
1156.00 0.1439698
1156.10 0.1439316
1156.20 0.1438935
1156.30 0.1438554
1156.40 0.1438173
1156.50 0.1437793
1156.60 0.1437412
1156.70 0.1437032
1156.80 0.1436651
1156.90 0.1436271
1157.00 0.1435891
1157.10 0.1435511
1157.20 0.1435131
1157.30 0.1434751
1157.40 0.1434371
1157.50 0.1433991
1157.60 0.1433612
1157.70 0.1433232
1157.80 0.1432853
1157.90 0.1432474
1158.00 0.1432095
1158.10 0.1431716
1158.20 0.1431337
1158.30 0.1430958
1158.40 0.143058
1158.50 0.1430201
1158.60 0.1429823
1158.70 0.1429444
1158.80 0.1429066
1158.90 0.1428688
1159.00 0.142831
1159.10 0.1427932
1159.20 0.1427554
1159.30 0.1427177
1159.40 0.1426799
1159.50 0.1426422
1159.60 0.1426044
1159.70 0.1425667
1159.80 0.142529
1159.90 0.1424913
1160.00 0.1424536
1160.10 0.1424159
1160.20 0.1423783
1160.30 0.1423406
1160.40 0.142303
1160.50 0.1422653
1160.60 0.1422277
1160.70 0.1421901
1160.80 0.1421525
1160.90 0.1421149
1161.00 0.1420773
1161.10 0.1420398
1161.20 0.1420022
1161.30 0.1419646
1161.40 0.1419271
1161.50 0.1418896
1161.60 0.1418521
1161.70 0.1418146
1161.80 0.1417771
1161.90 0.1417396
1162.00 0.1417021
1162.10 0.1416646
1162.20 0.1416273
1162.30 0.14159
1162.40 0.1415527
1162.50 0.1415154
1162.60 0.1414781
1162.70 0.1414409
1162.80 0.1414036
1162.90 0.1413663
1163.00 0.1413291
1163.10 0.1412919
1163.20 0.1412547
1163.30 0.1412174
1163.40 0.1411803
1163.50 0.1411431
1163.60 0.1411059
1163.70 0.1410687
1163.80 0.1410316
1163.90 0.1409944
1164.00 0.1409573
1164.10 0.1409202
1164.20 0.1408831
1164.30 0.140846
1164.40 0.1408089
1164.50 0.1407718
1164.60 0.1407347
1164.70 0.1406977
1164.80 0.1406606
1164.90 0.1406236
1165.00 0.1405866
1165.10 0.1405495
1165.20 0.1405125
1165.30 0.1404755
1165.40 0.1404386
1165.50 0.1404016
1165.60 0.1403646
1165.70 0.1403277
1165.80 0.1402907
1165.90 0.1402538
1166.00 0.1402169
1166.10 0.14018
1166.20 0.1401431
1166.30 0.1401062
1166.40 0.1400693
1166.50 0.1400324
1166.60 0.1399956
1166.70 0.1399587
1166.80 0.1399219
1166.90 0.1398851
1167.00 0.1398483
1167.10 0.1398115
1167.20 0.1397747
1167.30 0.1397379
1167.40 0.1397011
1167.50 0.1396644
1167.60 0.1396276
1167.70 0.1395909
1167.80 0.1395541
1167.90 0.1395174
1168.00 0.1394807
1168.10 0.139444
1168.20 0.1394073
1168.30 0.1393707
1168.40 0.139334
1168.50 0.1392973
1168.60 0.1392607
1168.70 0.1392241
1168.80 0.1391874
1168.90 0.1391508
1169.00 0.1391142
1169.10 0.1390776
1169.20 0.1390411
1169.30 0.1390045
1169.40 0.1389679
1169.50 0.1389314
1169.60 0.1388948
1169.70 0.1388583
1169.80 0.1388218
1169.90 0.1387853
1170.00 0.1387488
1170.10 0.1387123
1170.20 0.1386758
1170.30 0.1386394
1170.40 0.1386029
1170.50 0.1385665
1170.60 0.13853
1170.70 0.1384936
1170.80 0.1384572
1170.90 0.1384208
1171.00 0.1383844
1171.10 0.138348
1171.20 0.1383116
1171.30 0.1382753
1171.40 0.1382389
1171.50 0.1382026
1171.60 0.1381663
1171.70 0.1381299
1171.80 0.1380936
1171.90 0.1380573
1172.00 0.1380211
1172.10 0.1379848
1172.20 0.1379485
1172.30 0.1379123
1172.40 0.137876
1172.50 0.1378398
1172.60 0.1378035
1172.70 0.1377673
1172.80 0.1377311
1172.90 0.1376949
1173.00 0.1376587
1173.10 0.1376226
1173.20 0.1375864
1173.30 0.1375503
1173.40 0.1375141
1173.50 0.137478
1173.60 0.1374419
1173.70 0.1374057
1173.80 0.1373712
1173.90 0.137337
1174.00 0.1373028
1174.10 0.1372687
1174.20 0.1372345
1174.30 0.1372004
1174.40 0.1371663
1174.50 0.1371321
1174.60 0.137098
1174.70 0.1370639
1174.80 0.1370299
1174.90 0.1369958
1175.00 0.1369617
1175.10 0.1369276
1175.20 0.1368936
1175.30 0.1368596
1175.40 0.1368255
1175.50 0.1367915
1175.60 0.1367575
1175.70 0.1367235
1175.80 0.1366895
1175.90 0.1366555
1176.00 0.1366216
1176.10 0.1365876
1176.20 0.1365536
1176.30 0.1365197
1176.40 0.1364858
1176.50 0.1364518
1176.60 0.1364179
1176.70 0.136384
1176.80 0.1363501
1176.90 0.1363162
1177.00 0.1362824
1177.10 0.1362485
1177.20 0.1362146
1177.30 0.1361808
1177.40 0.136147
1177.50 0.1361131
1177.60 0.1360793
1177.70 0.1360455
1177.80 0.1360117
1177.90 0.1359779
1178.00 0.1359441
1178.10 0.1359104
1178.20 0.1358766
1178.30 0.1358428
1178.40 0.1358091
1178.50 0.1357754
1178.60 0.1357416
1178.70 0.1357079
1178.80 0.1356742
1178.90 0.1356405
1179.00 0.1356068
1179.10 0.1355732
1179.20 0.1355395
1179.30 0.1355058
1179.40 0.1354722
1179.50 0.1354386
1179.60 0.1354047
1179.70 0.1353693
1179.80 0.135334
1179.90 0.1352986
1180.00 0.1352632
1180.10 0.1352279
1180.20 0.1351925
1180.30 0.1351572
1180.40 0.1351219
1180.50 0.1350865
1180.60 0.1350512
1180.70 0.1350159
1180.80 0.1349807
1180.90 0.1349454
1181.00 0.1349101
1181.10 0.1348749
1181.20 0.1348396
1181.30 0.1348044
1181.40 0.1347692
1181.50 0.1347339
1181.60 0.1346987
1181.70 0.1346635
1181.80 0.1346284
1181.90 0.1345932
1182.00 0.134558
1182.10 0.1345229
1182.20 0.1344877
1182.30 0.1344526
1182.40 0.1344175
1182.50 0.1343823
1182.60 0.1343472
1182.70 0.1343121
1182.80 0.1342771
1182.90 0.134242
1183.00 0.1342069
1183.10 0.1341719
1183.20 0.1341368
1183.30 0.1341018
1183.40 0.1340668
1183.50 0.1340317
1183.60 0.1339967
1183.70 0.1339617
1183.80 0.1339268
1183.90 0.1338918
1184.00 0.1338568
1184.10 0.1338219
1184.20 0.1337869
1184.30 0.133752
1184.40 0.1337171
1184.50 0.1336821
1184.60 0.1336472
1184.70 0.1336123
1184.80 0.1335774
1184.90 0.1335426
1185.00 0.1335077
1185.10 0.1334728
1185.20 0.133438
1185.30 0.1334032
1185.40 0.1333683
1185.50 0.1333336
1185.60 0.1332989
1185.70 0.1332642
1185.80 0.1332295
1185.90 0.1331949
1186.00 0.1331602
1186.10 0.1331256
1186.20 0.133091
1186.30 0.1330563
1186.40 0.1330217
1186.50 0.1329871
1186.60 0.1329525
1186.70 0.132918
1186.80 0.1328834
1186.90 0.1328488
1187.00 0.1328143
1187.10 0.1327797
1187.20 0.1327452
1187.30 0.1327107
1187.40 0.1326762
1187.50 0.1326417
1187.60 0.1326072
1187.70 0.1325727
1187.80 0.1325382
1187.90 0.1325038
1188.00 0.1324693
1188.10 0.1324349
1188.20 0.1324004
1188.30 0.132366
1188.40 0.1323316
1188.50 0.1322972
1188.60 0.1322628
1188.70 0.1322284
1188.80 0.132194
1188.90 0.1321597
1189.00 0.1321253
1189.10 0.132091
1189.20 0.1320566
1189.30 0.1320223
1189.40 0.131988
1189.50 0.1319537
1189.60 0.1319194
1189.70 0.1318851
1189.80 0.1318508
1189.90 0.1318166
1190.00 0.1317823
1190.10 0.131748
1190.20 0.1317138
1190.30 0.1316796
1190.40 0.1316454
1190.50 0.1316111
1190.60 0.1315769
1190.70 0.1315428
1190.80 0.1315086
1190.90 0.1314744
1191.00 0.1314402
1191.10 0.1314061
1191.20 0.1313719
1191.30 0.1313378
1191.40 0.1313037
1191.50 0.1312696
1191.60 0.1312355
1191.70 0.1312014
1191.80 0.1311673
1191.90 0.1311332
1192.00 0.1310991
1192.10 0.1310651
1192.20 0.131031
1192.30 0.130997
1192.40 0.130963
1192.50 0.1309289
1192.60 0.1308949
1192.70 0.1308609
1192.80 0.1308269
1192.90 0.130793
1193.00 0.130759
1193.10 0.130725
1193.20 0.1306911
1193.30 0.1306571
1193.40 0.1306232
1193.50 0.1305893
1193.60 0.1305554
1193.70 0.1305215
1193.80 0.1304876
1193.90 0.1304537
1194.00 0.1304198
1194.10 0.1303859
1194.20 0.1303521
1194.30 0.1303182
1194.40 0.1302844
1194.50 0.1302506
1194.60 0.1302168
1194.70 0.1301829
1194.80 0.1301491
1194.90 0.1301154
1195.00 0.1300816
1195.10 0.1300478
1195.20 0.130014
1195.30 0.1299803
1195.40 0.1299465
1195.50 0.1299128
1195.60 0.1298791
1195.70 0.1298454
1195.80 0.1298117
1195.90 0.129778
1196.00 0.1297443
1196.10 0.1297106
1196.20 0.1296769
1196.30 0.1296433
1196.40 0.1296096
1196.50 0.129576
1196.60 0.1295424
1196.70 0.1295088
1196.80 0.1294751
1196.90 0.1294415
1197.00 0.129408
1197.10 0.1293744
1197.20 0.1293408
1197.30 0.1293072
1197.40 0.1292753
1197.50 0.1292435
1197.60 0.1292118
1197.70 0.1291801
1197.80 0.1291484
1197.90 0.1291167
1198.00 0.129085
1198.10 0.1290533
1198.20 0.1290216
1198.30 0.12899
1198.40 0.1289583
1198.50 0.1289267
1198.60 0.128895
1198.70 0.1288634
1198.80 0.1288318
1198.90 0.1288002
1199.00 0.1287686
1199.10 0.128737
1199.20 0.1287054
1199.30 0.1286738
1199.40 0.1286423
1199.50 0.1286107
1199.60 0.1285791
1199.70 0.1285476
1199.80 0.1285161
1199.90 0.1284845
1200.00 0.128453
