# Version 2.1 - nm, norm@500 to 1, cut digits, bergeron_He_7500_75.dat_7500
# Wavelength(nm)  Flambda(ergs/cm^s/s/nm)
300.00 1.11011
300.10 1.110515
300.20 1.110917
300.30 1.111321
300.40 1.111745
300.50 1.112168
300.60 1.112591
300.70 1.113012
300.80 1.113433
300.90 1.113853
301.00 1.114272
301.10 1.11469
301.20 1.115108
301.30 1.115525
301.40 1.115941
301.50 1.116356
301.60 1.11677
301.70 1.117184
301.80 1.117597
301.90 1.118009
302.00 1.11842
302.10 1.118826
302.20 1.119232
302.30 1.119636
302.40 1.12004
302.50 1.120443
302.60 1.120846
302.70 1.121247
302.80 1.121648
302.90 1.122048
303.00 1.122447
303.10 1.122845
303.20 1.123243
303.30 1.12364
303.40 1.124042
303.50 1.124442
303.60 1.124842
303.70 1.125241
303.80 1.125639
303.90 1.126036
304.00 1.126433
304.10 1.126829
304.20 1.127224
304.30 1.127618
304.40 1.128012
304.50 1.128405
304.60 1.128799
304.70 1.129192
304.80 1.129585
304.90 1.129977
305.00 1.130368
305.10 1.130758
305.20 1.131148
305.30 1.131537
305.40 1.131925
305.50 1.132313
305.60 1.132699
305.70 1.133085
305.80 1.13347
305.90 1.133855
306.00 1.134238
306.10 1.134621
306.20 1.135004
306.30 1.135385
306.40 1.13576
306.50 1.136133
306.60 1.136505
306.70 1.136877
306.80 1.137247
306.90 1.137617
307.00 1.137986
307.10 1.138355
307.20 1.138723
307.30 1.13909
307.40 1.139456
307.50 1.139822
307.60 1.140186
307.70 1.140551
307.80 1.140914
307.90 1.141277
308.00 1.141639
308.10 1.142
308.20 1.142361
308.30 1.142721
308.40 1.14308
308.50 1.143438
308.60 1.143796
308.70 1.144153
308.80 1.144502
308.90 1.144828
309.00 1.145192
309.10 1.145556
309.20 1.145919
309.30 1.146281
309.40 1.146642
309.50 1.146994
309.60 1.147346
309.70 1.147697
309.80 1.148047
309.90 1.148397
310.00 1.148746
310.10 1.149094
310.20 1.149441
310.30 1.149788
310.40 1.150131
310.50 1.150469
310.60 1.150806
310.70 1.151143
310.80 1.151479
310.90 1.151814
311.00 1.152176
311.10 1.152538
311.20 1.152899
311.30 1.153251
311.40 1.153581
311.50 1.15391
311.60 1.154239
311.70 1.154566
311.80 1.154893
311.90 1.15522
312.00 1.155546
312.10 1.155871
312.20 1.156202
312.30 1.15659
312.40 1.156985
312.50 1.157194
312.60 1.157551
312.70 1.157907
312.80 1.158263
312.90 1.158606
313.00 1.158934
313.10 1.159261
313.20 1.159588
313.30 1.159912
313.40 1.160231
313.50 1.16055
313.60 1.160867
313.70 1.161184
313.80 1.161501
313.90 1.161816
314.00 1.162131
314.10 1.162455
314.20 1.162778
314.30 1.1631
314.40 1.163422
314.50 1.163743
314.60 1.164064
314.70 1.164383
314.80 1.164667
314.90 1.164919
315.00 1.165247
315.10 1.165559
315.20 1.165872
315.30 1.166183
315.40 1.166494
315.50 1.166805
315.60 1.167114
315.70 1.167411
315.80 1.167708
315.90 1.168004
316.00 1.168299
316.10 1.16863
316.20 1.168959
316.30 1.169288
316.40 1.169546
316.50 1.169802
316.60 1.17013
316.70 1.170456
316.80 1.170782
316.90 1.171072
317.00 1.171361
317.10 1.17165
317.20 1.171938
317.30 1.172256
317.40 1.172567
317.50 1.172857
317.60 1.173147
317.70 1.173436
317.80 1.173724
317.90 1.174006
318.00 1.174214
318.10 1.174531
318.20 1.174849
318.30 1.175165
318.40 1.175463
318.50 1.175708
318.60 1.175971
318.70 1.176285
318.80 1.176606
318.90 1.176891
319.00 1.177084
319.10 1.177396
319.20 1.177694
319.30 1.177955
319.40 1.178215
319.50 1.178474
319.60 1.178803
319.70 1.179098
319.80 1.179393
319.90 1.179687
320.00 1.179953
320.10 1.180189
320.20 1.180485
320.30 1.180763
320.40 1.180984
320.50 1.181232
320.60 1.181535
320.70 1.181837
320.80 1.182122
320.90 1.182388
321.00 1.182654
321.10 1.18292
321.20 1.183103
321.30 1.183369
321.40 1.183635
321.50 1.183901
321.60 1.184166
321.70 1.18443
321.80 1.184705
321.90 1.184991
322.00 1.18532
322.10 1.185575
322.20 1.185829
322.30 1.186083
322.40 1.186336
322.50 1.186589
322.60 1.186841
322.70 1.187092
322.80 1.187265
322.90 1.187525
323.00 1.187785
323.10 1.188043
323.20 1.188302
323.30 1.188559
323.40 1.188817
323.50 1.189073
323.60 1.189329
323.70 1.189585
323.80 1.18984
323.90 1.190094
324.00 1.19034
324.10 1.190584
324.20 1.190829
324.30 1.191089
324.40 1.191366
324.50 1.19161
324.60 1.191854
324.70 1.192097
324.80 1.19234
324.90 1.192582
325.00 1.192823
325.10 1.193064
325.20 1.193293
325.30 1.193498
325.40 1.193702
325.50 1.193927
325.60 1.194175
325.70 1.194423
325.80 1.19467
325.90 1.194905
326.00 1.195125
326.10 1.195344
326.20 1.195564
326.30 1.195783
326.40 1.196006
326.50 1.19624
326.60 1.196473
326.70 1.196706
326.80 1.196939
326.90 1.197171
327.00 1.197402
327.10 1.197633
327.20 1.197864
327.30 1.198094
327.40 1.198323
327.50 1.198552
327.60 1.19878
327.70 1.199008
327.80 1.199236
327.90 1.199435
328.00 1.199623
328.10 1.199833
328.20 1.200043
328.30 1.200252
328.40 1.20046
328.50 1.200691
328.60 1.200927
328.70 1.201162
328.80 1.20139
328.90 1.201596
329.00 1.201802
329.10 1.202007
329.20 1.202212
329.30 1.202417
329.40 1.202621
329.50 1.202824
329.60 1.203028
329.70 1.20323
329.80 1.203432
329.90 1.203634
330.00 1.203847
330.10 1.204072
330.20 1.204298
330.30 1.204523
330.40 1.204732
330.50 1.204926
330.60 1.205119
330.70 1.205312
330.80 1.205504
330.90 1.205695
331.00 1.205887
331.10 1.206077
331.20 1.206268
331.30 1.206458
331.40 1.206647
331.50 1.206845
331.60 1.207054
331.70 1.207262
331.80 1.207455
331.90 1.207647
332.00 1.207838
332.10 1.208029
332.20 1.208219
332.30 1.208409
332.40 1.208598
332.50 1.208787
332.60 1.208975
332.70 1.209163
332.80 1.209351
332.90 1.209538
333.00 1.209725
333.10 1.20991
333.20 1.210096
333.30 1.21028
333.40 1.210464
333.50 1.210648
333.60 1.210831
333.70 1.211014
333.80 1.211197
333.90 1.211379
334.00 1.21156
334.10 1.211745
334.20 1.211934
334.30 1.212123
334.40 1.212311
334.50 1.212499
334.60 1.212686
334.70 1.212848
334.80 1.213007
334.90 1.213204
335.00 1.2134
335.10 1.213523
335.20 1.213687
335.30 1.213878
335.40 1.214025
335.50 1.214204
335.60 1.21435
335.70 1.214499
335.80 1.21466
335.90 1.214835
336.00 1.215027
336.10 1.215219
336.20 1.21541
336.30 1.215586
336.40 1.215745
336.50 1.215903
336.60 1.216061
336.70 1.216219
336.80 1.216376
336.90 1.216529
337.00 1.216676
337.10 1.216823
337.20 1.21697
337.30 1.217123
337.40 1.217283
337.50 1.217444
337.60 1.217603
337.70 1.217763
337.80 1.217922
337.90 1.218076
338.00 1.218226
338.10 1.218375
338.20 1.218524
338.30 1.218672
338.40 1.21882
338.50 1.218968
338.60 1.219116
338.70 1.219263
338.80 1.21941
338.90 1.219557
339.00 1.219703
339.10 1.219849
339.20 1.219995
339.30 1.220148
339.40 1.220312
339.50 1.220467
339.60 1.220611
339.70 1.220754
339.80 1.220897
339.90 1.221039
340.00 1.221181
340.10 1.221323
340.20 1.221464
340.30 1.221605
340.40 1.221745
340.50 1.221885
340.60 1.222025
340.70 1.222164
340.80 1.222311
340.90 1.22247
341.00 1.222614
341.10 1.222739
341.20 1.222864
341.30 1.222988
341.40 1.223112
341.50 1.223236
341.60 1.223359
341.70 1.223482
341.80 1.223615
341.90 1.22376
342.00 1.223904
342.10 1.224048
342.20 1.22402
342.30 1.224004
342.40 1.22414
342.50 1.22424
342.60 1.22434
342.70 1.22444
342.80 1.22454
342.90 1.224639
343.00 1.224777
343.10 1.224961
343.20 1.225146
343.30 1.22533
343.40 1.225476
343.50 1.225568
343.60 1.225659
343.70 1.22575
343.80 1.225841
343.90 1.225931
344.00 1.226062
344.10 1.226252
344.20 1.226442
344.30 1.226631
344.40 1.226696
344.50 1.226585
344.60 1.227427
344.70 1.227344
344.80 1.227201
344.90 1.227688
345.00 1.227467
345.10 1.227952
345.20 1.228277
345.30 1.228373
345.40 1.228469
345.50 1.228202
345.60 1.227817
345.70 1.227902
345.80 1.227986
345.90 1.22807
346.00 1.228154
346.10 1.228237
346.20 1.228336
346.30 1.228459
346.40 1.228581
346.50 1.228702
346.60 1.228824
346.70 1.228945
346.80 1.229065
346.90 1.229185
347.00 1.229305
347.10 1.229425
347.20 1.229536
347.30 1.229634
347.40 1.229732
347.50 1.22983
347.60 1.229927
347.70 1.230024
347.80 1.230121
347.90 1.230218
348.00 1.230314
348.10 1.23041
348.20 1.230505
348.30 1.2306
348.40 1.230695
348.50 1.23079
348.60 1.230884
348.70 1.23103
348.80 1.231156
348.90 1.231231
349.00 1.231305
349.10 1.231379
349.20 1.231453
349.30 1.231526
349.40 1.2316
349.50 1.231673
349.60 1.231745
349.70 1.231818
349.80 1.23189
349.90 1.231962
350.00 1.232033
350.10 1.232104
350.20 1.232175
350.30 1.232273
350.40 1.23241
350.50 1.232547
350.60 1.232683
350.70 1.232819
350.80 1.232954
350.90 1.233089
351.00 1.233224
351.10 1.233358
351.20 1.233492
351.30 1.233626
351.40 1.233737
351.50 1.233808
351.60 1.233879
351.70 1.233949
351.80 1.23402
351.90 1.234089
352.00 1.234159
352.10 1.234228
352.20 1.234298
352.30 1.234377
352.40 1.234467
352.50 1.234557
352.60 1.234646
352.70 1.234735
352.80 1.234824
352.90 1.234913
353.00 1.235001
353.10 1.235089
353.20 1.235177
353.30 1.235264
353.40 1.235351
353.50 1.235426
353.60 1.235497
353.70 1.235568
353.80 1.235639
353.90 1.235707
354.00 1.235771
354.10 1.235835
354.20 1.235899
354.30 1.235962
354.40 1.236025
354.50 1.236088
354.60 1.236151
354.70 1.236213
354.80 1.236174
354.90 1.235991
355.00 1.235807
355.10 1.235624
355.20 1.23544
355.30 1.235531
355.40 1.235621
355.50 1.23571
355.60 1.2358
355.70 1.236015
355.80 1.236286
355.90 1.23621
356.00 1.236138
356.10 1.236222
356.20 1.236306
356.30 1.236389
356.40 1.236472
356.50 1.236555
356.60 1.236637
356.70 1.23672
356.80 1.236802
356.90 1.236883
357.00 1.236965
357.10 1.237046
357.20 1.237126
357.30 1.237207
357.40 1.237248
357.50 1.23722
357.60 1.237191
357.70 1.237162
357.80 1.236977
357.90 1.236791
358.00 1.236797
358.10 1.236852
358.20 1.236906
358.30 1.23696
358.40 1.237013
358.50 1.237067
358.60 1.23712
358.70 1.237172
358.80 1.237225
358.90 1.237277
359.00 1.237419
359.10 1.237721
359.20 1.237955
359.30 1.23774
359.40 1.237525
359.50 1.237561
359.60 1.23766
359.70 1.237758
359.80 1.237904
359.90 1.23805
360.00 1.238116
360.10 1.238042
360.20 1.237969
360.30 1.237895
360.40 1.237821
360.50 1.237746
360.60 1.238359
360.70 1.23822
360.80 1.238081
360.90 1.237942
361.00 1.238309
361.10 1.23862
361.20 1.23842
361.30 1.238171
361.40 1.238141
361.50 1.238546
361.60 1.238253
361.70 1.238658
361.80 1.238823
361.90 1.238563
362.00 1.238304
362.10 1.238309
362.20 1.238365
362.30 1.238395
362.40 1.238426
362.50 1.238456
362.60 1.238486
362.70 1.238547
362.80 1.238346
362.90 1.23874
363.00 1.239133
363.10 1.23895
363.20 1.238761
363.30 1.238178
363.40 1.238845
363.50 1.238972
363.60 1.23883
363.70 1.238687
363.80 1.239083
363.90 1.238914
364.00 1.238746
364.10 1.238577
364.20 1.238409
364.30 1.238785
364.40 1.239298
364.50 1.238625
364.60 1.238658
364.70 1.23869
364.80 1.238723
364.90 1.238579
365.00 1.238435
365.10 1.238826
365.20 1.238681
365.30 1.238537
365.40 1.238927
365.50 1.238782
365.60 1.238637
365.70 1.238929
365.80 1.239219
365.90 1.239208
366.00 1.239122
366.10 1.238968
366.20 1.238813
366.30 1.238659
366.40 1.238504
366.50 1.238915
366.60 1.23931
366.70 1.239036
366.80 1.238761
366.90 1.238617
367.00 1.238703
367.10 1.238789
367.20 1.238874
367.30 1.23896
367.40 1.239045
367.50 1.238991
367.60 1.238903
367.70 1.238784
367.80 1.238665
367.90 1.238545
368.00 1.238841
368.10 1.238694
368.20 1.238703
368.30 1.238719
368.40 1.238734
368.50 1.23875
368.60 1.238765
368.70 1.23878
368.80 1.238795
368.90 1.238562
369.00 1.238354
369.10 1.23826
369.20 1.238641
369.30 1.238667
369.40 1.238692
369.50 1.238717
369.60 1.238566
369.70 1.238415
369.80 1.238587
369.90 1.238761
370.00 1.238936
370.10 1.238865
370.20 1.23871
370.30 1.238561
370.40 1.238391
370.50 1.238267
370.60 1.238637
370.70 1.237968
370.80 1.238332
370.90 1.238695
371.00 1.238552
371.10 1.238405
371.20 1.238252
371.30 1.238099
371.40 1.238679
371.50 1.238589
371.60 1.238499
371.70 1.238408
371.80 1.238318
371.90 1.238228
372.00 1.237862
372.10 1.237932
372.20 1.237952
372.30 1.237973
372.40 1.237993
372.50 1.238013
372.60 1.238033
372.70 1.238052
372.80 1.237898
372.90 1.237744
373.00 1.237595
373.10 1.237446
373.20 1.237806
373.30 1.238165
373.40 1.237502
373.50 1.237861
373.60 1.237709
373.70 1.237556
373.80 1.237914
373.90 1.237252
374.00 1.237354
374.10 1.237457
374.20 1.237558
374.30 1.23766
374.40 1.237634
374.50 1.237354
374.60 1.237198
374.70 1.237046
374.80 1.236894
374.90 1.236743
375.00 1.236759
375.10 1.236774
375.20 1.23679
375.30 1.236854
375.40 1.236917
375.50 1.23698
375.60 1.237043
375.70 1.237105
375.80 1.237168
375.90 1.23723
376.00 1.236572
376.10 1.236566
376.20 1.236567
376.30 1.236567
376.40 1.236567
376.50 1.236582
376.60 1.236618
376.70 1.236654
376.80 1.236578
376.90 1.236389
377.00 1.236201
377.10 1.236013
377.20 1.235857
377.30 1.235826
377.40 1.235794
377.50 1.235762
377.60 1.23576
377.70 1.235757
377.80 1.235754
377.90 1.23575
378.00 1.235487
378.10 1.235519
378.20 1.235557
378.30 1.235595
378.40 1.235633
378.50 1.235671
378.60 1.235709
378.70 1.235746
378.80 1.235783
378.90 1.235579
379.00 1.234927
379.10 1.235069
379.20 1.23521
379.30 1.235275
379.40 1.235262
379.50 1.235249
379.60 1.234981
379.70 1.234457
379.80 1.234408
379.90 1.234359
380.00 1.234309
380.10 1.23426
380.20 1.23421
380.30 1.234161
380.40 1.234111
380.50 1.234061
380.60 1.234581
380.70 1.234379
380.80 1.234177
380.90 1.233976
381.00 1.233774
381.10 1.23374
381.20 1.233896
381.30 1.233794
381.40 1.233498
381.50 1.233856
381.60 1.233811
381.70 1.233419
381.80 1.233497
381.90 1.233828
382.00 1.233182
382.10 1.233512
382.20 1.233062
382.30 1.232904
382.40 1.232818
382.50 1.232838
382.60 1.232858
382.70 1.233037
382.80 1.233121
382.90 1.23293
383.00 1.232739
383.10 1.232548
383.20 1.232375
383.30 1.232268
383.40 1.232223
383.50 1.232273
383.60 1.232644
383.70 1.232512
383.80 1.23238
383.90 1.232247
384.00 1.232115
384.10 1.231982
384.20 1.23185
384.30 1.231717
384.40 1.231667
384.50 1.231701
384.60 1.231734
384.70 1.231767
384.80 1.231658
384.90 1.231307
385.00 1.231493
385.10 1.231662
385.20 1.231251
385.30 1.231099
385.40 1.230928
385.50 1.230736
385.60 1.230545
385.70 1.230353
385.80 1.230186
385.90 1.230108
386.00 1.230089
386.10 1.230135
386.20 1.230236
386.30 1.230336
386.40 1.230068
386.50 1.229824
386.60 1.229749
386.70 1.230066
386.80 1.229668
386.90 1.229746
387.00 1.22961
387.10 1.229427
387.20 1.22948
387.30 1.229131
387.40 1.229422
387.50 1.229209
387.60 1.229201
387.70 1.229041
387.80 1.228881
387.90 1.228721
388.00 1.228693
388.10 1.228775
388.20 1.228442
388.30 1.228409
388.40 1.228376
388.50 1.228424
388.60 1.228445
388.70 1.227813
388.80 1.228124
388.90 1.228376
389.00 1.227803
389.10 1.22756
389.20 1.227891
389.30 1.227961
389.40 1.227812
389.50 1.227471
389.60 1.22707
389.70 1.227317
389.80 1.227165
389.90 1.227014
390.00 1.226863
390.10 1.226712
390.20 1.226561
390.30 1.22645
390.40 1.226386
390.50 1.226322
390.60 1.226258
390.70 1.226194
390.80 1.226112
390.90 1.226011
391.00 1.225649
391.10 1.225474
391.20 1.225469
391.30 1.225728
391.40 1.225566
391.50 1.225405
391.60 1.225244
391.70 1.225083
391.80 1.224922
391.90 1.22495
392.00 1.225005
392.10 1.224782
392.20 1.224664
392.30 1.224824
392.40 1.224249
392.50 1.224501
392.60 1.224501
392.70 1.224178
392.80 1.224178
392.90 1.224027
393.00 1.223894
393.10 1.223846
393.20 1.223873
393.30 1.223711
393.40 1.223508
393.50 1.223632
393.60 1.223184
393.70 1.223229
393.80 1.222902
393.90 1.222741
394.00 1.222671
394.10 1.223053
394.20 1.222898
394.30 1.222511
394.40 1.221967
394.50 1.222187
394.60 1.222079
394.70 1.221951
394.80 1.221752
394.90 1.221569
395.00 1.221834
395.10 1.221856
395.20 1.221748
395.30 1.221427
395.40 1.221106
395.50 1.221109
395.60 1.221232
395.70 1.221232
395.80 1.220901
395.90 1.220571
396.00 1.220314
396.10 1.220629
396.20 1.220467
396.30 1.220182
396.40 1.220473
396.50 1.219857
396.60 1.220148
396.70 1.219851
396.80 1.219823
396.90 1.219299
397.00 1.219499
397.10 1.219638
397.20 1.219174
397.30 1.218714
397.40 1.218668
397.50 1.218622
397.60 1.218582
397.70 1.218608
397.80 1.218634
397.90 1.218575
398.00 1.218284
398.10 1.217993
398.20 1.217897
398.30 1.218022
398.40 1.218124
398.50 1.217513
398.60 1.217606
398.70 1.217481
398.80 1.217236
398.90 1.217095
399.00 1.217148
399.10 1.216594
399.20 1.2166
399.30 1.216605
399.40 1.216611
399.50 1.216616
399.60 1.21645
399.70 1.216221
399.80 1.215992
399.90 1.215763
400.00 1.215543
400.10 1.21562
400.20 1.215198
400.30 1.215153
400.40 1.215249
400.50 1.215154
400.60 1.214872
400.70 1.214709
400.80 1.214955
400.90 1.214504
401.00 1.214784
401.10 1.214179
401.20 1.214268
401.30 1.213853
401.40 1.213727
401.50 1.213777
401.60 1.213807
401.70 1.213203
401.80 1.213292
401.90 1.213339
402.00 1.213156
402.10 1.212553
402.20 1.212831
402.30 1.212734
402.40 1.212505
402.50 1.212782
402.60 1.21218
402.70 1.212457
402.80 1.211855
402.90 1.211604
403.00 1.211442
403.10 1.211805
403.20 1.211225
403.30 1.211298
403.40 1.210879
403.50 1.210688
403.60 1.210626
403.70 1.210829
403.80 1.210244
403.90 1.210141
404.00 1.210406
404.10 1.210178
404.20 1.210015
404.30 1.209852
404.40 1.210125
404.50 1.209527
404.60 1.2098
404.70 1.209202
404.80 1.209474
404.90 1.208877
405.00 1.208962
405.10 1.2088
405.20 1.208513
405.30 1.208226
405.40 1.208208
405.50 1.20819
405.60 1.208172
405.70 1.208153
405.80 1.208135
405.90 1.208116
406.00 1.207869
406.10 1.207622
406.20 1.207375
406.30 1.207128
406.40 1.206871
406.50 1.207139
406.60 1.206546
406.70 1.206491
406.80 1.20657
406.90 1.206501
407.00 1.206338
407.10 1.206176
407.20 1.206013
407.30 1.20585
407.40 1.205687
407.50 1.205525
407.60 1.205362
407.70 1.2052
407.80 1.205037
407.90 1.204875
408.00 1.204753
408.10 1.204536
408.20 1.204392
408.30 1.204359
408.40 1.204326
408.50 1.203886
408.60 1.203592
408.70 1.203298
408.80 1.20308
408.90 1.203354
409.00 1.203256
409.10 1.203158
409.20 1.20306
409.30 1.202962
409.40 1.202858
409.50 1.202571
409.60 1.202284
409.70 1.202015
409.80 1.20182
409.90 1.201637
410.00 1.201874
410.10 1.201288
410.20 1.201232
410.30 1.201307
410.40 1.201291
410.50 1.200984
410.60 1.200677
410.70 1.200383
410.80 1.20014
410.90 1.199898
411.00 1.199755
411.10 1.199649
411.20 1.199543
411.30 1.199486
411.40 1.19961
411.50 1.199324
411.60 1.199038
411.70 1.198778
411.80 1.198616
411.90 1.19837
412.00 1.198627
412.10 1.198046
412.20 1.198303
412.30 1.197865
412.40 1.197979
412.50 1.197518
412.60 1.197535
412.70 1.197335
412.80 1.19708
412.90 1.196782
413.00 1.197086
413.10 1.196838
413.20 1.19659
413.30 1.196342
413.40 1.196094
413.50 1.195954
413.60 1.196135
413.70 1.195973
413.80 1.195811
413.90 1.195649
414.00 1.195487
414.10 1.195325
414.20 1.195064
414.30 1.194487
414.40 1.194574
414.50 1.194164
414.60 1.194516
414.70 1.194354
414.80 1.194192
414.90 1.194031
415.00 1.193869
415.10 1.193707
415.20 1.193508
415.30 1.193191
415.40 1.192874
415.50 1.192567
415.60 1.192584
415.70 1.192602
415.80 1.192542
415.90 1.19224
416.00 1.191937
416.10 1.19166
416.20 1.191482
416.30 1.191304
416.40 1.191126
416.50 1.190948
416.60 1.190787
416.70 1.190614
416.80 1.190522
416.90 1.190291
417.00 1.190393
417.10 1.189981
417.20 1.18982
417.30 1.189656
417.40 1.189375
417.50 1.189094
417.60 1.188895
417.70 1.189015
417.80 1.188854
417.90 1.188693
418.00 1.188532
418.10 1.188371
418.20 1.18821
418.30 1.188037
418.40 1.187575
418.50 1.187449
418.60 1.187324
418.70 1.187198
418.80 1.187072
418.90 1.186946
419.00 1.18682
419.10 1.186694
419.20 1.186568
419.30 1.186438
419.40 1.186158
419.50 1.185879
419.60 1.185597
419.70 1.185305
419.80 1.185014
419.90 1.184752
420.00 1.184583
420.10 1.184415
420.20 1.184246
420.30 1.184078
420.40 1.18391
420.50 1.183741
420.60 1.183573
420.70 1.183404
420.80 1.183236
420.90 1.183073
421.00 1.18309
421.10 1.183106
421.20 1.183063
421.30 1.182845
421.40 1.182627
421.50 1.182409
421.60 1.182192
421.70 1.181974
421.80 1.181756
421.90 1.181551
422.00 1.181383
422.10 1.181187
422.20 1.18088
422.30 1.180573
422.40 1.18027
422.50 1.180115
422.60 1.17996
422.70 1.179804
422.80 1.179649
422.90 1.179494
423.00 1.179339
423.10 1.179183
423.20 1.179028
423.30 1.178873
423.40 1.178718
423.50 1.178563
423.60 1.178407
423.70 1.178252
423.80 1.178097
423.90 1.177942
424.00 1.177787
424.10 1.177632
424.20 1.177477
424.30 1.177322
424.40 1.17708
424.50 1.176845
424.60 1.17661
424.70 1.176376
424.80 1.176141
424.90 1.175906
425.00 1.175672
425.10 1.175437
425.20 1.175203
425.30 1.174968
425.40 1.17474
425.50 1.174553
425.60 1.174366
425.70 1.174178
425.80 1.173991
425.90 1.173804
426.00 1.173617
426.10 1.17343
426.20 1.173243
426.30 1.173056
426.40 1.172869
426.50 1.172683
426.60 1.172496
426.70 1.172309
426.80 1.172122
426.90 1.171936
427.00 1.171758
427.10 1.17158
427.20 1.171402
427.30 1.171224
427.40 1.171047
427.50 1.170869
427.60 1.170691
427.70 1.170514
427.80 1.170336
427.90 1.170158
428.00 1.169981
428.10 1.169803
428.20 1.169626
428.30 1.169449
428.40 1.169271
428.50 1.169094
428.60 1.168917
428.70 1.168739
428.80 1.16856
428.90 1.168356
429.00 1.168152
429.10 1.167948
429.20 1.167744
429.30 1.167541
429.40 1.167337
429.50 1.167133
429.60 1.16693
429.70 1.166726
429.80 1.166522
429.90 1.166319
430.00 1.166116
430.10 1.165912
430.20 1.165709
430.30 1.165506
430.40 1.165303
430.50 1.1651
430.60 1.164897
430.70 1.164694
430.80 1.164491
430.90 1.164288
431.00 1.164086
431.10 1.163883
431.20 1.16368
431.30 1.163478
431.40 1.163283
431.50 1.163089
431.60 1.162894
431.70 1.162699
431.80 1.162505
431.90 1.16231
432.00 1.162116
432.10 1.161921
432.20 1.161727
432.30 1.161533
432.40 1.161338
432.50 1.161144
432.60 1.16095
432.70 1.160756
432.80 1.160562
432.90 1.160368
433.00 1.160174
433.10 1.15998
433.20 1.159786
433.30 1.159591
433.40 1.159385
433.50 1.159178
433.60 1.158972
433.70 1.158765
433.80 1.158597
433.90 1.158477
434.00 1.158265
434.10 1.157997
434.20 1.157728
434.30 1.15746
434.40 1.157192
434.50 1.156925
434.60 1.156657
434.70 1.156389
434.80 1.156129
434.90 1.155958
435.00 1.155787
435.10 1.155616
435.20 1.155445
435.30 1.155274
435.40 1.155104
435.50 1.154933
435.60 1.154762
435.70 1.154592
435.80 1.154421
435.90 1.15425
436.00 1.15408
436.10 1.153909
436.20 1.153739
436.30 1.153407
436.40 1.152899
436.50 1.152668
436.60 1.152437
436.70 1.152207
436.80 1.151976
436.90 1.151745
437.00 1.151514
437.10 1.151284
437.20 1.151216
437.30 1.151298
437.40 1.151354
437.50 1.151076
437.60 1.150798
437.70 1.15052
437.80 1.150242
437.90 1.149965
438.00 1.14969
438.10 1.149448
438.20 1.149207
438.30 1.148985
438.40 1.149082
438.50 1.148928
438.60 1.148749
438.70 1.148225
438.80 1.148136
438.90 1.147918
439.00 1.147421
439.10 1.147268
439.20 1.147115
439.30 1.146962
439.40 1.146809
439.50 1.146656
439.60 1.146477
439.70 1.145956
439.80 1.145586
439.90 1.145402
440.00 1.145217
440.10 1.145033
440.20 1.144845
440.30 1.144619
440.40 1.144393
440.50 1.144167
440.60 1.143942
440.70 1.143716
440.80 1.143491
440.90 1.143265
441.00 1.14304
441.10 1.142814
441.20 1.1426
441.30 1.142534
441.40 1.142377
441.50 1.142109
441.60 1.141841
441.70 1.142174
441.80 1.14188
441.90 1.141586
442.00 1.141292
442.10 1.140999
442.20 1.140705
442.30 1.140412
442.40 1.140126
442.50 1.139849
442.60 1.139573
442.70 1.13942
442.80 1.139445
442.90 1.139378
443.00 1.139111
443.10 1.138597
443.20 1.138265
443.30 1.138102
443.40 1.137944
443.50 1.137793
443.60 1.137479
443.70 1.13769
443.80 1.137178
443.90 1.137117
444.00 1.137039
444.10 1.136888
444.20 1.136575
444.30 1.136083
444.40 1.135847
444.50 1.135611
444.60 1.13542
444.70 1.135282
444.80 1.135135
444.90 1.134978
445.00 1.134822
445.10 1.134665
445.20 1.134459
445.30 1.134192
445.40 1.133925
445.50 1.133658
445.60 1.133391
445.70 1.133125
445.80 1.132916
445.90 1.13276
446.00 1.132604
446.10 1.132448
446.20 1.132134
446.30 1.131627
446.40 1.131305
446.50 1.131156
446.60 1.131007
446.70 1.130858
446.80 1.130708
446.90 1.130559
447.00 1.130224
447.10 1.129719
447.20 1.129926
447.30 1.129421
447.40 1.129101
447.50 1.128952
447.60 1.128862
447.70 1.128825
447.80 1.128487
447.90 1.128351
448.00 1.128147
448.10 1.12788
448.20 1.127613
448.30 1.127346
448.40 1.12708
448.50 1.126813
448.60 1.126575
448.70 1.126361
448.80 1.12615
448.90 1.125954
449.00 1.125758
449.10 1.125563
449.20 1.125367
449.30 1.125035
449.40 1.124818
449.50 1.124602
449.60 1.124385
449.70 1.124166
449.80 1.123947
449.90 1.123728
450.00 1.12351
450.10 1.123291
450.20 1.123072
450.30 1.122854
450.40 1.12259
450.50 1.122325
450.60 1.122061
450.70 1.121797
450.80 1.121533
450.90 1.121269
451.00 1.121055
451.10 1.12084
451.20 1.120819
451.30 1.120682
451.40 1.120185
451.50 1.119689
451.60 1.119892
451.70 1.119396
451.80 1.119599
451.90 1.119103
452.00 1.118957
452.10 1.11881
452.20 1.11849
452.30 1.118169
452.40 1.117849
452.50 1.117529
452.60 1.117505
452.70 1.117397
452.80 1.117211
452.90 1.117025
453.00 1.116839
453.10 1.116653
453.20 1.116372
453.30 1.116092
453.40 1.115811
453.50 1.11553
453.60 1.11525
453.70 1.11497
453.80 1.114685
453.90 1.114394
454.00 1.114104
454.10 1.113813
454.20 1.113575
454.30 1.113337
454.40 1.113099
454.50 1.112861
454.60 1.112623
454.70 1.11239
454.80 1.112163
454.90 1.111936
455.00 1.111709
455.10 1.111482
455.20 1.111255
455.30 1.111029
455.40 1.110802
455.50 1.110575
455.60 1.110349
455.70 1.110122
455.80 1.110003
455.90 1.109884
456.00 1.109764
456.10 1.109615
456.20 1.109383
456.30 1.109152
456.40 1.10892
456.50 1.108689
456.60 1.108457
456.70 1.108226
456.80 1.107995
456.90 1.107764
457.00 1.107533
457.10 1.107302
457.20 1.10694
457.30 1.106694
457.40 1.106449
457.50 1.106203
457.60 1.105958
457.70 1.105712
457.80 1.105467
457.90 1.105222
458.00 1.104977
458.10 1.104733
458.20 1.104488
458.30 1.104243
458.40 1.103999
458.50 1.103754
458.60 1.10351
458.70 1.103266
458.80 1.103022
458.90 1.102779
459.00 1.102535
459.10 1.102292
459.20 1.102048
459.30 1.101804
459.40 1.10156
459.50 1.101316
459.60 1.101072
459.70 1.100829
459.80 1.100585
459.90 1.100341
460.00 1.100098
460.10 1.099855
460.20 1.099611
460.30 1.099368
460.40 1.099125
460.50 1.098882
460.60 1.09864
460.70 1.098421
460.80 1.098215
460.90 1.098009
461.00 1.097803
461.10 1.097597
461.20 1.097449
461.30 1.097324
461.40 1.097059
461.50 1.09676
461.60 1.09646
461.70 1.096161
461.80 1.095921
461.90 1.09568
462.00 1.095439
462.10 1.095198
462.20 1.094958
462.30 1.094718
462.40 1.094477
462.50 1.094237
462.60 1.093997
462.70 1.093757
462.80 1.093517
462.90 1.093277
463.00 1.093038
463.10 1.092798
463.20 1.09253
463.30 1.092251
463.40 1.091971
463.50 1.091692
463.60 1.091413
463.70 1.091134
463.80 1.090856
463.90 1.09062
464.00 1.090395
464.10 1.090171
464.20 1.089946
464.30 1.089722
464.40 1.089498
464.50 1.089274
464.60 1.08905
464.70 1.088805
464.80 1.088553
464.90 1.0883
465.00 1.088048
465.10 1.087796
465.20 1.087543
465.30 1.087298
465.40 1.087058
465.50 1.086818
465.60 1.086578
465.70 1.086338
465.80 1.086098
465.90 1.085933
466.00 1.085788
466.10 1.085643
466.20 1.085498
466.30 1.085265
466.40 1.084996
466.50 1.084727
466.60 1.084459
466.70 1.08419
466.80 1.083922
466.90 1.083654
467.00 1.083386
467.10 1.083118
467.20 1.08285
467.30 1.082444
467.40 1.082185
467.50 1.081979
467.60 1.081772
467.70 1.081565
467.80 1.081359
467.90 1.081086
468.00 1.080787
468.10 1.080488
468.20 1.080189
468.30 1.080005
468.40 1.079869
468.50 1.079502
468.60 1.07969
468.70 1.07923
468.80 1.078769
468.90 1.078815
469.00 1.078497
469.10 1.078152
469.20 1.077855
469.30 1.077557
469.40 1.07726
469.50 1.077046
469.60 1.076866
469.70 1.076687
469.80 1.076507
469.90 1.076306
470.00 1.075848
470.10 1.075576
470.20 1.075381
470.30 1.075187
470.40 1.074992
470.50 1.074797
470.60 1.074521
470.70 1.074226
470.80 1.07393
470.90 1.073635
471.00 1.073682
471.10 1.073397
471.20 1.072942
471.30 1.073128
471.40 1.072673
471.50 1.072218
471.60 1.072019
471.70 1.071885
471.80 1.071623
471.90 1.071328
472.00 1.071034
472.10 1.070741
472.20 1.07052
472.30 1.070318
472.40 1.070115
472.50 1.069913
472.60 1.069711
472.70 1.069331
472.80 1.069032
472.90 1.068771
473.00 1.06851
473.10 1.06825
473.20 1.067989
473.30 1.067729
473.40 1.067468
473.50 1.067208
473.60 1.066948
473.70 1.066688
473.80 1.066524
473.90 1.066384
474.00 1.066245
474.10 1.066105
474.20 1.065842
474.30 1.06553
474.40 1.065218
474.50 1.064906
474.60 1.064597
474.70 1.064322
474.80 1.064048
474.90 1.063773
475.00 1.063498
475.10 1.063224
475.20 1.062949
475.30 1.062675
475.40 1.06245
475.50 1.062237
475.60 1.062024
475.70 1.061811
475.80 1.061598
475.90 1.061385
476.00 1.061172
476.10 1.06096
476.20 1.060711
476.30 1.060447
476.40 1.060184
476.50 1.05992
476.60 1.059657
476.70 1.059394
476.80 1.059131
476.90 1.05889
477.00 1.058653
477.10 1.058417
477.20 1.058181
477.30 1.057945
477.40 1.057709
477.50 1.057474
477.60 1.057238
477.70 1.057003
477.80 1.056767
477.90 1.056532
478.00 1.056297
478.10 1.056062
478.20 1.055827
478.30 1.055592
478.40 1.055357
478.50 1.055122
478.60 1.054888
478.70 1.054507
478.80 1.054066
478.90 1.053819
479.00 1.053619
479.10 1.053419
479.20 1.05322
479.30 1.05302
479.40 1.05278
479.50 1.052517
479.60 1.052254
479.70 1.051991
479.80 1.051728
479.90 1.051465
480.00 1.051202
480.10 1.05094
480.20 1.050677
480.30 1.050415
480.40 1.050153
480.50 1.049891
480.60 1.049629
480.70 1.049367
480.80 1.049105
480.90 1.048844
481.00 1.048582
481.10 1.048321
481.20 1.048054
481.30 1.047788
481.40 1.047521
481.50 1.047255
481.60 1.046989
481.70 1.046722
481.80 1.046456
481.90 1.046191
482.00 1.045925
482.10 1.045659
482.20 1.045397
482.30 1.045181
482.40 1.044966
482.50 1.04475
482.60 1.044535
482.70 1.044319
482.80 1.044104
482.90 1.043889
483.00 1.043673
483.10 1.043458
483.20 1.043243
483.30 1.043028
483.40 1.042814
483.50 1.042599
483.60 1.042384
483.70 1.042068
483.80 1.041752
483.90 1.041437
484.00 1.041121
484.10 1.040806
484.20 1.040561
484.30 1.040347
484.40 1.040134
484.50 1.03992
484.60 1.039706
484.70 1.039487
484.80 1.039192
484.90 1.038897
485.00 1.038602
485.10 1.038308
485.20 1.038013
485.30 1.037719
485.40 1.037425
485.50 1.037131
485.60 1.036837
485.70 1.036576
485.80 1.036315
485.90 1.036054
486.00 1.035793
486.10 1.035532
486.20 1.035272
486.30 1.035011
486.40 1.034751
486.50 1.034491
486.60 1.034231
486.70 1.03398
486.80 1.033851
486.90 1.033722
487.00 1.033592
487.10 1.033463
487.20 1.033204
487.30 1.032944
487.40 1.032685
487.50 1.032426
487.60 1.032167
487.70 1.031908
487.80 1.03165
487.90 1.031391
488.00 1.031133
488.10 1.030874
488.20 1.030613
488.30 1.030309
488.40 1.030005
488.50 1.029701
488.60 1.029397
488.70 1.029094
488.80 1.028892
488.90 1.02869
489.00 1.028473
489.10 1.028216
489.20 1.027959
489.30 1.027703
489.40 1.027446
489.50 1.02719
489.60 1.026933
489.70 1.026677
489.80 1.026274
489.90 1.02609
490.00 1.025905
490.10 1.02572
490.20 1.025536
490.30 1.025351
490.40 1.025081
490.50 1.024812
490.60 1.024542
490.70 1.024272
490.80 1.023855
490.90 1.023438
491.00 1.023316
491.10 1.023195
491.20 1.022779
491.30 1.022362
491.40 1.022536
491.50 1.02212
491.60 1.021788
491.70 1.021635
491.80 1.021463
491.90 1.021047
492.00 1.020632
492.10 1.020218
492.20 1.020391
492.30 1.019977
492.40 1.019601
492.50 1.019736
492.60 1.019332
492.70 1.019065
492.80 1.018798
492.90 1.018532
493.00 1.018263
493.10 1.017965
493.20 1.017668
493.30 1.017371
493.40 1.017074
493.50 1.016777
493.60 1.016381
493.70 1.016187
493.80 1.015994
493.90 1.015825
494.00 1.015696
494.10 1.015512
494.20 1.015212
494.30 1.014913
494.40 1.014613
494.50 1.014314
494.60 1.01403
494.70 1.013941
494.80 1.013769
494.90 1.01336
495.00 1.01295
495.10 1.012541
495.20 1.012312
495.30 1.012084
495.40 1.011855
495.50 1.011627
495.60 1.011398
495.70 1.01117
495.80 1.010942
495.90 1.010713
496.00 1.010485
496.10 1.0102
496.20 1.009803
496.30 1.009538
496.40 1.009273
496.50 1.009009
496.60 1.008745
496.70 1.00851
496.80 1.008275
496.90 1.008041
497.00 1.007806
497.10 1.007572
497.20 1.007338
497.30 1.00711
497.40 1.006901
497.50 1.006692
497.60 1.006421
497.70 1.006025
497.80 1.005748
497.90 1.00547
498.00 1.005193
498.10 1.004916
498.20 1.00464
498.30 1.004363
498.40 1.004086
498.50 1.00381
498.60 1.003534
498.70 1.003418
498.80 1.003302
498.90 1.003055
499.00 1.002809
499.10 1.002562
499.20 1.002266
499.30 1.0019
499.40 1.001636
499.50 1.001371
499.60 1.001106
499.70 1.000841
499.80 1.00056
499.90 1.00028
500.00 1
500.10 0.9997201
500.20 0.9994626
500.30 0.9992529
500.40 0.9990432
500.50 0.9988336
500.60 0.9986241
500.70 0.9984147
500.80 0.9981995
500.90 0.9979721
501.00 0.9977447
501.10 0.9975174
501.20 0.9971194
501.30 0.9967216
501.40 0.9963241
501.50 0.9964933
501.60 0.996096
501.70 0.995699
501.80 0.9953927
501.90 0.9952789
502.00 0.9950746
502.10 0.9946783
502.20 0.9943048
502.30 0.9942316
502.40 0.9940853
502.50 0.9937838
502.60 0.9934823
502.70 0.9931811
502.80 0.99288
502.90 0.9925791
503.00 0.9922927
503.10 0.9920369
503.20 0.9917812
503.30 0.9915257
503.40 0.9912696
503.50 0.9910116
503.60 0.9907538
503.70 0.9904961
503.80 0.9902597
503.90 0.9901784
504.00 0.9900416
504.10 0.989787
504.20 0.9895324
504.30 0.989278
504.40 0.9889879
504.50 0.9885958
504.60 0.988204
504.70 0.9878125
504.80 0.9878824
504.90 0.987589
505.00 0.9872705
505.10 0.9871589
505.20 0.9869746
505.30 0.986584
505.40 0.9861937
505.50 0.9858035
505.60 0.9854725
505.70 0.9852666
505.80 0.9850609
505.90 0.9848552
506.00 0.9846496
506.10 0.9844442
506.20 0.9842234
506.30 0.983959
506.40 0.9836947
506.50 0.9834306
506.60 0.9831665
506.70 0.9829027
506.80 0.9826389
506.90 0.9823753
507.00 0.9821118
507.10 0.9818088
507.20 0.9814577
507.30 0.9812092
507.40 0.9809608
507.50 0.9807126
507.60 0.9804644
507.70 0.9802164
507.80 0.9799685
507.90 0.9797208
508.00 0.9794731
508.10 0.9792256
508.20 0.9789782
508.30 0.9787309
508.40 0.9784837
508.50 0.9782366
508.60 0.9779897
508.70 0.9777429
508.80 0.9774604
508.90 0.9772445
509.00 0.9770878
509.10 0.9768877
509.20 0.9765951
509.30 0.9763028
509.40 0.9760105
509.50 0.9757185
509.60 0.9754266
509.70 0.9751348
509.80 0.9748432
509.90 0.9745517
510.00 0.9742605
510.10 0.9739693
510.20 0.9736783
510.30 0.9733969
510.40 0.9731423
510.50 0.9728878
510.60 0.9726335
510.70 0.9723793
510.80 0.9721252
510.90 0.9718712
511.00 0.9716174
511.10 0.9713637
511.20 0.9711101
511.30 0.9708566
511.40 0.9706032
511.50 0.97035
511.60 0.9701059
511.70 0.9698809
511.80 0.969656
511.90 0.9694312
512.00 0.9692066
512.10 0.968982
512.20 0.9687575
512.30 0.968519
512.40 0.9682403
512.50 0.9679617
512.60 0.9676832
512.70 0.9674049
512.80 0.9671268
512.90 0.9668488
513.00 0.9665709
513.10 0.9662932
513.20 0.9660156
513.30 0.9657382
513.40 0.9654609
513.50 0.9651837
513.60 0.9649067
513.70 0.9646298
513.80 0.9643531
513.90 0.9640765
514.00 0.9638235
514.10 0.9635745
514.20 0.9633255
514.30 0.9630767
514.40 0.962828
514.50 0.9625794
514.60 0.962331
514.70 0.9620826
514.80 0.9618344
514.90 0.9615863
515.00 0.9613383
515.10 0.9610905
515.20 0.9608427
515.30 0.9605951
515.40 0.9603476
515.50 0.9601002
515.60 0.959853
515.70 0.9596058
515.80 0.9593588
515.90 0.9591119
516.00 0.9588651
516.10 0.9586185
516.20 0.9583719
516.30 0.9581255
516.40 0.9578792
516.50 0.9576297
516.60 0.9573629
516.70 0.9570962
516.80 0.9568297
516.90 0.9565633
517.00 0.956297
517.10 0.9560309
517.20 0.9557649
517.30 0.9554991
517.40 0.9552333
517.50 0.9549677
517.60 0.9547023
517.70 0.954437
517.80 0.9541718
517.90 0.9539067
518.00 0.9536418
518.10 0.953377
518.20 0.9531124
518.30 0.9528478
518.40 0.9525834
518.50 0.9523192
518.60 0.9520551
518.70 0.9517911
518.80 0.9515272
518.90 0.9512635
519.00 0.9509999
519.10 0.950736
519.20 0.9504716
519.30 0.9502073
519.40 0.9499432
519.50 0.9496792
519.60 0.9494154
519.70 0.9491517
519.80 0.9488881
519.90 0.9486247
520.00 0.9483614
520.10 0.9480982
520.20 0.9478351
520.30 0.9475722
520.40 0.9473094
520.50 0.9470468
520.60 0.9467842
520.70 0.9465219
520.80 0.9462596
520.90 0.9459975
521.00 0.9457355
521.10 0.9454736
521.20 0.9452119
521.30 0.9449503
521.40 0.9446888
521.50 0.9444275
521.60 0.9441663
521.70 0.9439052
521.80 0.9436442
521.90 0.9433834
522.00 0.9431227
522.10 0.9428622
522.20 0.9426018
522.30 0.9423415
522.40 0.9420813
522.50 0.9418213
522.60 0.9415614
522.70 0.9413016
522.80 0.9410419
522.90 0.9407824
523.00 0.940523
523.10 0.9402638
523.20 0.9400047
523.30 0.9397457
523.40 0.9394868
523.50 0.9392281
523.60 0.9389695
523.70 0.938711
523.80 0.9384526
523.90 0.9381944
524.00 0.9379363
524.10 0.9376783
524.20 0.9374205
524.30 0.9371623
524.40 0.9369037
524.50 0.9366453
524.60 0.936387
524.70 0.9361288
524.80 0.9358708
524.90 0.9356129
525.00 0.9353551
525.10 0.9350975
525.20 0.93484
525.30 0.9345826
525.40 0.9343253
525.50 0.9340682
525.60 0.9338112
525.70 0.9335543
525.80 0.9332975
525.90 0.9330409
526.00 0.9327844
526.10 0.932528
526.20 0.9322718
526.30 0.9320157
526.40 0.9317597
526.50 0.9315038
526.60 0.9312481
526.70 0.9309925
526.80 0.930737
526.90 0.9304817
527.00 0.9302264
527.10 0.9299713
527.20 0.9297164
527.30 0.9294615
527.40 0.9292068
527.50 0.9289522
527.60 0.9286978
527.70 0.9284434
527.80 0.9281892
527.90 0.9279351
528.00 0.9276812
528.10 0.9274273
528.20 0.9271736
528.30 0.92692
528.40 0.9266666
528.50 0.9264132
528.60 0.92616
528.70 0.9259069
528.80 0.925654
528.90 0.9254011
529.00 0.9251484
529.10 0.9248959
529.20 0.9246434
529.30 0.9243911
529.40 0.9241389
529.50 0.9238866
529.60 0.9236337
529.70 0.9233809
529.80 0.9231282
529.90 0.9228756
530.00 0.9226231
530.10 0.9223708
530.20 0.9221186
530.30 0.9218666
530.40 0.9216146
530.50 0.9213628
530.60 0.9211111
530.70 0.9208595
530.80 0.9206081
530.90 0.9203567
531.00 0.9201055
531.10 0.9198544
531.20 0.9196035
531.30 0.9193527
531.40 0.9191019
531.50 0.9188514
531.60 0.9186009
531.70 0.9183506
531.80 0.9181003
531.90 0.9178503
532.00 0.9176003
532.10 0.9173504
532.20 0.9170882
532.30 0.9168196
532.40 0.9165512
532.50 0.9162829
532.60 0.9160148
532.70 0.9157468
532.80 0.9154789
532.90 0.9152112
533.00 0.9149436
533.10 0.9146761
533.20 0.9144088
533.30 0.9141416
533.40 0.9138746
533.50 0.9136076
533.60 0.9133409
533.70 0.9130742
533.80 0.9128077
533.90 0.9125413
534.00 0.9122751
534.10 0.912009
534.20 0.911743
534.30 0.9114772
534.40 0.9112115
534.50 0.9109459
534.60 0.9106805
534.70 0.9104152
534.80 0.9101517
534.90 0.9098952
535.00 0.9096389
535.10 0.9093826
535.20 0.9091265
535.30 0.9088706
535.40 0.9086148
535.50 0.908359
535.60 0.9081035
535.70 0.907848
535.80 0.9075927
535.90 0.9073375
536.00 0.9070824
536.10 0.9068275
536.20 0.9065727
536.30 0.906318
536.40 0.9060634
536.50 0.905809
536.60 0.9055547
536.70 0.9053005
536.80 0.9050465
536.90 0.9047925
537.00 0.9045387
537.10 0.9042851
537.20 0.9040315
537.30 0.9037781
537.40 0.9035248
537.50 0.9032716
537.60 0.9030186
537.70 0.9027657
537.80 0.9025129
537.90 0.9022602
538.00 0.9020076
538.10 0.9017552
538.20 0.9015029
538.30 0.9012508
538.40 0.9009987
538.50 0.9007468
538.60 0.900495
538.70 0.9002434
538.80 0.8999918
538.90 0.8997404
539.00 0.8994891
539.10 0.8992379
539.20 0.8989869
539.30 0.898736
539.40 0.8984852
539.50 0.8982345
539.60 0.897984
539.70 0.8977335
539.80 0.8974832
539.90 0.8972331
540.00 0.896983
540.10 0.8967331
540.20 0.8964763
540.30 0.8962168
540.40 0.8959574
540.50 0.8956981
540.60 0.895439
540.70 0.89518
540.80 0.8949211
540.90 0.8946624
541.00 0.8944038
541.10 0.8941453
541.20 0.893887
541.30 0.8936288
541.40 0.8933707
541.50 0.8931127
541.60 0.8928549
541.70 0.8925972
541.80 0.8923396
541.90 0.8920822
542.00 0.8918249
542.10 0.8915677
542.20 0.8913106
542.30 0.8910537
542.40 0.8907969
542.50 0.8905402
542.60 0.8902837
542.70 0.8900273
542.80 0.889771
542.90 0.8895149
543.00 0.8892588
543.10 0.8890029
543.20 0.8887472
543.30 0.8884915
543.40 0.888236
543.50 0.8879806
543.60 0.8877254
543.70 0.8874703
543.80 0.8872153
543.90 0.8869604
544.00 0.8867056
544.10 0.886451
544.20 0.8861965
544.30 0.8859422
544.40 0.8856879
544.50 0.8854338
544.60 0.8851798
544.70 0.884926
544.80 0.8846722
544.90 0.8844186
545.00 0.8841652
545.10 0.8839118
545.20 0.8836586
545.30 0.8834055
545.40 0.8831525
545.50 0.8828997
545.60 0.8826465
545.70 0.8823932
545.80 0.88214
545.90 0.8818869
546.00 0.881634
546.10 0.8813812
546.20 0.8811285
546.30 0.880876
546.40 0.8806235
546.50 0.8803712
546.60 0.8801191
546.70 0.879867
546.80 0.8796151
546.90 0.8793633
547.00 0.8791116
547.10 0.8788601
547.20 0.8786087
547.30 0.8783574
547.40 0.8781062
547.50 0.8778552
547.60 0.8776042
547.70 0.8773534
547.80 0.8771028
547.90 0.8768522
548.00 0.8766018
548.10 0.8763515
548.20 0.8761013
548.30 0.8758513
548.40 0.8756014
548.50 0.8753516
548.60 0.875102
548.70 0.8748524
548.80 0.874603
548.90 0.8743537
549.00 0.8741046
549.10 0.8738556
549.20 0.8736066
549.30 0.8733579
549.40 0.8731092
549.50 0.8728607
549.60 0.8726122
549.70 0.8723639
549.80 0.8721158
549.90 0.8718677
550.00 0.8716198
550.10 0.871372
550.20 0.8711243
550.30 0.8708767
550.40 0.8706293
550.50 0.870382
550.60 0.8701348
550.70 0.8698877
550.80 0.8696408
550.90 0.869394
551.00 0.8691446
551.10 0.8688803
551.20 0.8686161
551.30 0.8683521
551.40 0.8680882
551.50 0.8678244
551.60 0.8675608
551.70 0.8672973
551.80 0.8670339
551.90 0.8667707
552.00 0.8665076
552.10 0.8662446
552.20 0.8659818
552.30 0.8657191
552.40 0.8654565
552.50 0.8651941
552.60 0.8649318
552.70 0.8646696
552.80 0.8644076
552.90 0.8641457
553.00 0.8638839
553.10 0.8636223
553.20 0.8633607
553.30 0.8630994
553.40 0.8628381
553.50 0.862577
553.60 0.8623161
553.70 0.8620552
553.80 0.8618046
553.90 0.8615609
554.00 0.8613173
554.10 0.8610738
554.20 0.8608305
554.30 0.8605872
554.40 0.8603441
554.50 0.8601011
554.60 0.8598582
554.70 0.8596154
554.80 0.8593728
554.90 0.8591303
555.00 0.8588878
555.10 0.8586456
555.20 0.8584034
555.30 0.8581613
555.40 0.8579194
555.50 0.8576776
555.60 0.8574359
555.70 0.8571943
555.80 0.8569528
555.90 0.8567115
556.00 0.8564703
556.10 0.8562292
556.20 0.8559882
556.30 0.8557473
556.40 0.8555066
556.50 0.8552651
556.60 0.8550074
556.70 0.8547498
556.80 0.8544923
556.90 0.854235
557.00 0.8539778
557.10 0.8537208
557.20 0.8534639
557.30 0.8532071
557.40 0.8529504
557.50 0.8526938
557.60 0.8524374
557.70 0.8521812
557.80 0.851925
557.90 0.851669
558.00 0.8514131
558.10 0.8511573
558.20 0.8509017
558.30 0.8506462
558.40 0.8503908
558.50 0.8501356
558.60 0.8498804
558.70 0.8496254
558.80 0.8493706
558.90 0.8491158
559.00 0.8488612
559.10 0.8486067
559.20 0.8483524
559.30 0.8480982
559.40 0.847844
559.50 0.8475901
559.60 0.8473362
559.70 0.8470825
559.80 0.8468289
559.90 0.8465755
560.00 0.8463221
560.10 0.8460689
560.20 0.8458158
560.30 0.8455629
560.40 0.84531
560.50 0.8450573
560.60 0.8448048
560.70 0.8445523
560.80 0.8443
560.90 0.8440478
561.00 0.8437957
561.10 0.8435438
561.20 0.843292
561.30 0.8430403
561.40 0.8427887
561.50 0.8425373
561.60 0.8422859
561.70 0.8420347
561.80 0.8417837
561.90 0.8415327
562.00 0.8412819
562.10 0.8410375
562.20 0.8408024
562.30 0.8405675
562.40 0.8403327
562.50 0.8400981
562.60 0.8398635
562.70 0.839629
562.80 0.8393947
562.90 0.8391605
563.00 0.8389264
563.10 0.8386924
563.20 0.8384585
563.30 0.8382247
563.40 0.837991
563.50 0.8377575
563.60 0.8375241
563.70 0.8372907
563.80 0.8370575
563.90 0.8368244
564.00 0.8365914
564.10 0.8363586
564.20 0.8361258
564.30 0.8358932
564.40 0.8356606
564.50 0.8354282
564.60 0.8351959
564.70 0.8349637
564.80 0.8347316
564.90 0.8344951
565.00 0.8342473
565.10 0.8339997
565.20 0.8337523
565.30 0.8335049
565.40 0.8332577
565.50 0.8330106
565.60 0.8327636
565.70 0.8325167
565.80 0.83227
565.90 0.8320234
566.00 0.8317769
566.10 0.8315305
566.20 0.8312843
566.30 0.8310381
566.40 0.8307921
566.50 0.8305463
566.60 0.8303005
566.70 0.8300549
566.80 0.8298093
566.90 0.8295639
567.00 0.8293187
567.10 0.8290735
567.20 0.8288285
567.30 0.8285836
567.40 0.8283388
567.50 0.8280941
567.60 0.8278496
567.70 0.8276036
567.80 0.827351
567.90 0.8270986
568.00 0.8268463
568.10 0.8265941
568.20 0.826342
568.30 0.8260901
568.40 0.8258383
568.50 0.8255866
568.60 0.8253351
568.70 0.8250836
568.80 0.8248323
568.90 0.8245811
569.00 0.8243301
569.10 0.8240792
569.20 0.8238284
569.30 0.8235777
569.40 0.8233272
569.50 0.8230767
569.60 0.8228264
569.70 0.8225763
569.80 0.8223262
569.90 0.8220763
570.00 0.8218265
570.10 0.8215768
570.20 0.8213273
570.30 0.8210778
570.40 0.8208285
570.50 0.8205794
570.60 0.8203303
570.70 0.8200814
570.80 0.8198326
570.90 0.8195839
571.00 0.8193353
571.10 0.8190869
571.20 0.8188386
571.30 0.8185904
571.40 0.8183423
571.50 0.8180944
571.60 0.8178466
571.70 0.8175989
571.80 0.8173513
571.90 0.8171039
572.00 0.8168566
572.10 0.8166094
572.20 0.8163623
572.30 0.8161153
572.40 0.8158685
572.50 0.8156218
572.60 0.8153752
572.70 0.8151288
572.80 0.8148824
572.90 0.8146362
573.00 0.8143901
573.10 0.8141441
573.20 0.8138983
573.30 0.8136525
573.40 0.8134082
573.50 0.8131658
573.60 0.8129235
573.70 0.8126813
573.80 0.8124393
573.90 0.8121973
574.00 0.8119555
574.10 0.8117138
574.20 0.8114722
574.30 0.8112307
574.40 0.8109894
574.50 0.8107481
574.60 0.810507
574.70 0.810266
574.80 0.8100252
574.90 0.8097844
575.00 0.8095438
575.10 0.8093033
575.20 0.8090629
575.30 0.8088226
575.40 0.8085824
575.50 0.8083424
575.60 0.8081024
575.70 0.8078626
575.80 0.8076229
575.90 0.8073834
576.00 0.8071439
576.10 0.8069046
576.20 0.8066653
576.30 0.8064262
576.40 0.8061873
576.50 0.8059484
576.60 0.8057096
576.70 0.805471
576.80 0.8052325
576.90 0.8049941
577.00 0.8047558
577.10 0.8045176
577.20 0.8042796
577.30 0.8040416
577.40 0.8038038
577.50 0.8035661
577.60 0.8033237
577.70 0.8030735
577.80 0.8028235
577.90 0.8025736
578.00 0.8023238
578.10 0.8020741
578.20 0.8018246
578.30 0.8015752
578.40 0.8013259
578.50 0.8010767
578.60 0.8008277
578.70 0.8005788
578.80 0.80033
578.90 0.8000813
579.00 0.7998327
579.10 0.7995858
579.20 0.7993534
579.30 0.7991212
579.40 0.7988891
579.50 0.7986571
579.60 0.7984252
579.70 0.7981934
579.80 0.7979618
579.90 0.7977302
580.00 0.7974988
580.10 0.797267
580.20 0.7970345
580.30 0.7968021
580.40 0.7965699
580.50 0.7963377
580.60 0.7961057
580.70 0.7958738
580.80 0.795642
580.90 0.7954103
581.00 0.7951787
581.10 0.7949473
581.20 0.7947159
581.30 0.7944847
581.40 0.7942536
581.50 0.7940225
581.60 0.7937916
581.70 0.7935609
581.80 0.7933302
581.90 0.7930996
582.00 0.7928692
582.10 0.7926335
582.20 0.7923892
582.30 0.7921451
582.40 0.7919011
582.50 0.7916572
582.60 0.7914135
582.70 0.7911698
582.80 0.7909263
582.90 0.7906829
583.00 0.7904396
583.10 0.7901965
583.20 0.7899535
583.30 0.7897105
583.40 0.7894677
583.50 0.7892251
583.60 0.788984
583.70 0.7887453
583.80 0.7885068
583.90 0.7882684
584.00 0.7880301
584.10 0.787792
584.20 0.7875539
584.30 0.787316
584.40 0.7870782
584.50 0.7868405
584.60 0.7866029
584.70 0.7863654
584.80 0.7861281
584.90 0.7858851
585.00 0.7856165
585.10 0.785348
585.20 0.7850954
585.30 0.7848687
585.40 0.7846422
585.50 0.7844158
585.60 0.7841894
585.70 0.7839632
585.80 0.7837371
585.90 0.7835111
586.00 0.7832852
586.10 0.7830594
586.20 0.782818
586.30 0.7825509
586.40 0.7822841
586.50 0.7820173
586.60 0.7817507
586.70 0.7814843
586.80 0.7812179
586.90 0.7809517
587.00 0.7806857
587.10 0.7804197
587.20 0.7802325
587.30 0.7801733
587.40 0.7800357
587.50 0.7797702
587.60 0.7795048
587.70 0.7792396
587.80 0.7789745
587.90 0.7787095
588.00 0.7784446
588.10 0.7781799
588.20 0.7779153
588.30 0.7776509
588.40 0.7774127
588.50 0.777217
588.60 0.7770215
588.70 0.7768261
588.80 0.7766307
588.90 0.7764355
589.00 0.7762143
589.10 0.7759508
589.20 0.7756874
589.30 0.7754242
589.40 0.7751611
589.50 0.7748981
589.60 0.7746353
589.70 0.7743726
589.80 0.77411
589.90 0.7738476
590.00 0.7736055
590.10 0.7733965
590.20 0.7731877
590.30 0.7729789
590.40 0.7727702
590.50 0.7725617
590.60 0.7723532
590.70 0.7721448
590.80 0.7718999
590.90 0.7716386
591.00 0.7713775
591.10 0.7711166
591.20 0.7708557
591.30 0.770595
591.40 0.7703344
591.50 0.770074
591.60 0.769824
591.70 0.7695909
591.80 0.769358
591.90 0.7691252
592.00 0.7688924
592.10 0.7686598
592.20 0.7684274
592.30 0.768195
592.40 0.7679627
592.50 0.7677306
592.60 0.7674985
592.70 0.7672666
592.80 0.7670348
592.90 0.7668031
593.00 0.7665715
593.10 0.7663375
593.20 0.7660994
593.30 0.7658614
593.40 0.7656235
593.50 0.7653857
593.60 0.7651481
593.70 0.7649106
593.80 0.7646732
593.90 0.7644359
594.00 0.7641987
594.10 0.7639617
594.20 0.7637247
594.30 0.7634879
594.40 0.7632512
594.50 0.7630146
594.60 0.7627781
594.70 0.7625418
594.80 0.7623055
594.90 0.7620694
595.00 0.7618334
595.10 0.7615995
595.20 0.7613692
595.30 0.7611389
595.40 0.7609087
595.50 0.7606787
595.60 0.7604488
595.70 0.760219
595.80 0.7599893
595.90 0.7597597
596.00 0.7595302
596.10 0.7593008
596.20 0.7590716
596.30 0.7588424
596.40 0.7586134
596.50 0.7583845
596.60 0.7581556
596.70 0.757938
596.80 0.7577274
596.90 0.7575168
597.00 0.7573063
597.10 0.7570959
597.20 0.7568856
597.30 0.7566754
597.40 0.7564653
597.50 0.7562553
597.60 0.7560377
597.70 0.7558077
597.80 0.7555778
597.90 0.755348
598.00 0.7551183
598.10 0.7548888
598.20 0.7546593
598.30 0.75443
598.40 0.7542007
598.50 0.7539716
598.60 0.7537426
598.70 0.7535137
598.80 0.7532849
598.90 0.7530562
599.00 0.7528277
599.10 0.7525992
599.20 0.7523709
599.30 0.7521426
599.40 0.7519115
599.50 0.7516805
599.60 0.7514496
599.70 0.7512188
599.80 0.7509882
599.90 0.7507576
600.00 0.7505272
600.10 0.7502968
600.20 0.7500666
600.30 0.7498365
600.40 0.7496065
600.50 0.7493766
600.60 0.7491469
600.70 0.7489172
600.80 0.7486876
600.90 0.7484582
601.00 0.7482289
601.10 0.7479997
601.20 0.7477706
601.30 0.7475416
601.40 0.747293
601.50 0.7470445
601.60 0.7467962
601.70 0.746548
601.80 0.7462999
601.90 0.7460519
602.00 0.7458041
602.10 0.7455564
602.20 0.7453088
602.30 0.7450613
602.40 0.744814
602.50 0.7445668
602.60 0.7443197
602.70 0.7440727
602.80 0.7438258
602.90 0.7436036
603.00 0.7433815
603.10 0.7431595
603.20 0.7429376
603.30 0.7427158
603.40 0.7424941
603.50 0.7422725
603.60 0.742051
603.70 0.7418296
603.80 0.7416083
603.90 0.7413872
604.00 0.7411661
604.10 0.7409451
604.20 0.7407243
604.30 0.7405035
604.40 0.7402829
604.50 0.740077
604.60 0.7398712
604.70 0.7396654
604.80 0.7394598
604.90 0.7392543
605.00 0.7390489
605.10 0.7388435
605.20 0.7386383
605.30 0.7384331
605.40 0.7382281
605.50 0.7379842
605.60 0.7377405
605.70 0.737497
605.80 0.7372535
605.90 0.7370102
606.00 0.736767
606.10 0.7365239
606.20 0.7362809
606.30 0.736038
606.40 0.7357953
606.50 0.7355527
606.60 0.7353102
606.70 0.7350678
606.80 0.7348255
606.90 0.7345834
607.00 0.7343414
607.10 0.7340995
607.20 0.7338577
607.30 0.7337126
607.40 0.7335676
607.50 0.7334226
607.60 0.7332777
607.70 0.7330364
607.80 0.7327952
607.90 0.7325542
608.00 0.7323132
608.10 0.7320724
608.20 0.7318317
608.30 0.7315911
608.40 0.7313506
608.50 0.7311102
608.60 0.73087
608.70 0.7306299
608.80 0.7303899
608.90 0.73015
609.00 0.7299102
609.10 0.7296706
609.20 0.729431
609.30 0.7292156
609.40 0.7290003
609.50 0.7287851
609.60 0.7285699
609.70 0.7283549
609.80 0.72814
609.90 0.7279252
610.00 0.7277105
610.10 0.7274959
610.20 0.7272813
610.30 0.7270669
610.40 0.7268526
610.50 0.7266384
610.60 0.7264243
610.70 0.7262103
610.80 0.7259964
610.90 0.7257588
611.00 0.7255212
611.10 0.7252838
611.20 0.7250465
611.30 0.7248093
611.40 0.7245722
611.50 0.7243352
611.60 0.7240984
611.70 0.7238617
611.80 0.723625
611.90 0.7233885
612.00 0.7231522
612.10 0.7229159
612.20 0.7226798
612.30 0.7224437
612.40 0.7222268
612.50 0.72201
612.60 0.7217933
612.70 0.7215766
612.80 0.7213601
612.90 0.7211437
613.00 0.7209274
613.10 0.7207112
613.20 0.7204951
613.30 0.7202791
613.40 0.7200632
613.50 0.7198474
613.60 0.7196317
613.70 0.7194161
613.80 0.7192007
613.90 0.7189853
614.00 0.71877
614.10 0.7185548
614.20 0.7183397
614.30 0.7181248
614.40 0.717891
614.50 0.7176574
614.60 0.7174239
614.70 0.7171905
614.80 0.7169722
614.90 0.7167571
615.00 0.7165421
615.10 0.7163272
615.20 0.7161124
615.30 0.7158978
615.40 0.7156832
615.50 0.7154687
615.60 0.7152543
615.70 0.71504
615.80 0.7148259
615.90 0.7146118
616.00 0.7143978
616.10 0.714184
616.20 0.7139702
616.30 0.7137565
616.40 0.713543
616.50 0.7133295
616.60 0.7131161
616.70 0.7129029
616.80 0.7126897
616.90 0.7124679
617.00 0.7122462
617.10 0.7120245
617.20 0.711803
617.30 0.7115816
617.40 0.7113603
617.50 0.7111392
617.60 0.7109181
617.70 0.7106971
617.80 0.7104762
617.90 0.7102555
618.00 0.7100348
618.10 0.7098143
618.20 0.7095938
618.30 0.7093735
618.40 0.7091532
618.50 0.7089331
618.60 0.7087131
618.70 0.7084932
618.80 0.7082733
618.90 0.7080536
619.00 0.707834
619.10 0.7076145
619.20 0.7073951
619.30 0.7071758
619.40 0.7069567
619.50 0.7067376
619.60 0.7065186
619.70 0.7062997
619.80 0.706081
619.90 0.7058623
620.00 0.7056437
620.10 0.7054253
620.20 0.7052069
620.30 0.7049887
620.40 0.7047705
620.50 0.7045525
620.60 0.7043346
620.70 0.7041167
620.80 0.703899
620.90 0.7036803
621.00 0.7034596
621.10 0.703239
621.20 0.7030186
621.30 0.7027983
621.40 0.702578
621.50 0.7023579
621.60 0.7021379
621.70 0.7019179
621.80 0.7016981
621.90 0.7014784
622.00 0.7012588
622.10 0.7010393
622.20 0.7008199
622.30 0.7006006
622.40 0.7003814
622.50 0.7001623
622.60 0.6999434
622.70 0.6997245
622.80 0.6995057
622.90 0.6992871
623.00 0.6990685
623.10 0.69885
623.20 0.6986317
623.30 0.6984134
623.40 0.6981953
623.50 0.6979773
623.60 0.6977593
623.70 0.6975415
623.80 0.6973238
623.90 0.6971061
624.00 0.6968886
624.10 0.6966712
624.20 0.6964539
624.30 0.6962367
624.40 0.6960196
624.50 0.6958026
624.60 0.6955857
624.70 0.6953689
624.80 0.6951522
624.90 0.6949356
625.00 0.6947191
625.10 0.6945027
625.20 0.6942864
625.30 0.6940703
625.40 0.6938542
625.50 0.6936382
625.60 0.6934223
625.70 0.6932066
625.80 0.6929909
625.90 0.6927753
626.00 0.6925599
626.10 0.6923445
626.20 0.6921293
626.30 0.6919141
626.40 0.6916991
626.50 0.6914841
626.60 0.6912693
626.70 0.6910545
626.80 0.6908399
626.90 0.6906253
627.00 0.6904109
627.10 0.690195
627.20 0.6899749
627.30 0.6897549
627.40 0.6895351
627.50 0.6893153
627.60 0.6890957
627.70 0.6888761
627.80 0.6886567
627.90 0.6884374
628.00 0.6882181
628.10 0.687999
628.20 0.68778
628.30 0.6875611
628.40 0.6873423
628.50 0.6871236
628.60 0.686905
628.70 0.6866865
628.80 0.6864681
628.90 0.6862498
629.00 0.6860316
629.10 0.6858135
629.20 0.6855955
629.30 0.6853776
629.40 0.6851599
629.50 0.6849422
629.60 0.6847246
629.70 0.6845072
629.80 0.6842898
629.90 0.6840726
630.00 0.6838554
630.10 0.6836384
630.20 0.6834214
630.30 0.6832046
630.40 0.6829879
630.50 0.6827712
630.60 0.6825547
630.70 0.6823383
630.80 0.682122
630.90 0.6819057
631.00 0.6816896
631.10 0.6814736
631.20 0.6812577
631.30 0.6810419
631.40 0.6808262
631.50 0.6806106
631.60 0.6803951
631.70 0.6801797
631.80 0.6799644
631.90 0.6797492
632.00 0.6795341
632.10 0.6793191
632.20 0.6791042
632.30 0.6788894
632.40 0.6786747
632.50 0.6784601
632.60 0.6782457
632.70 0.6780313
632.80 0.677817
632.90 0.6776028
633.00 0.6773888
633.10 0.6771748
633.20 0.6769609
633.30 0.6767471
633.40 0.6765335
633.50 0.6763199
633.60 0.6761064
633.70 0.6758931
633.80 0.6756798
633.90 0.6754666
634.00 0.6752536
634.10 0.6750406
634.20 0.6748277
634.30 0.674615
634.40 0.6744023
634.50 0.6741898
634.60 0.6739773
634.70 0.6737649
634.80 0.6735527
634.90 0.6733405
635.00 0.6731285
635.10 0.6729165
635.20 0.6727046
635.30 0.6724929
635.40 0.6722812
635.50 0.6720697
635.60 0.6718582
635.70 0.6716468
635.80 0.6714356
635.90 0.6712244
636.00 0.6710134
636.10 0.6708024
636.20 0.6705915
636.30 0.6703808
636.40 0.6701701
636.50 0.6699596
636.60 0.6697491
636.70 0.6695387
636.80 0.6693285
636.90 0.6691183
637.00 0.6689082
637.10 0.6686983
637.20 0.6684884
637.30 0.6682786
637.40 0.6680689
637.50 0.6678594
637.60 0.6676499
637.70 0.6674405
637.80 0.6672312
637.90 0.6670221
638.00 0.666813
638.10 0.666604
638.20 0.6663951
638.30 0.6661863
638.40 0.6659776
638.50 0.665769
638.60 0.6655605
638.70 0.6653522
638.80 0.6651439
638.90 0.6649357
639.00 0.6647276
639.10 0.6645196
639.20 0.6643116
639.30 0.6641038
639.40 0.6638961
639.50 0.6636885
639.60 0.663481
639.70 0.6632736
639.80 0.6630663
639.90 0.662859
640.00 0.6626519
640.10 0.6624449
640.20 0.6622379
640.30 0.6620311
640.40 0.6618244
640.50 0.6616177
640.60 0.6614112
640.70 0.6612047
640.80 0.6609984
640.90 0.6607921
641.00 0.660586
641.10 0.6603799
641.20 0.6601739
641.30 0.6599681
641.40 0.6597623
641.50 0.6595566
641.60 0.659351
641.70 0.6591455
641.80 0.6589402
641.90 0.6587349
642.00 0.6585297
642.10 0.6583246
642.20 0.6581196
642.30 0.6579146
642.40 0.6577098
642.50 0.6575051
642.60 0.6573005
642.70 0.657096
642.80 0.6568915
642.90 0.6566872
643.00 0.656483
643.10 0.6562788
643.20 0.6560748
643.30 0.6558708
643.40 0.6556669
643.50 0.6554632
643.60 0.6552595
643.70 0.6550559
643.80 0.6548524
643.90 0.6546491
644.00 0.6544458
644.10 0.6542426
644.20 0.6540395
644.30 0.6538365
644.40 0.6536336
644.50 0.6534307
644.60 0.653228
644.70 0.6530254
644.80 0.6528228
644.90 0.6526204
645.00 0.6524181
645.10 0.6522158
645.20 0.6520136
645.30 0.6518116
645.40 0.6516096
645.50 0.6514077
645.60 0.6512059
645.70 0.6510043
645.80 0.6508027
645.90 0.6506012
646.00 0.6503997
646.10 0.6501984
646.20 0.6499972
646.30 0.6497961
646.40 0.649595
646.50 0.6493941
646.60 0.6491933
646.70 0.6489925
646.80 0.6487918
646.90 0.6485913
647.00 0.6483908
647.10 0.6481904
647.20 0.6479901
647.30 0.6477899
647.40 0.6475898
647.50 0.6473898
647.60 0.6471899
647.70 0.6469901
647.80 0.6467903
647.90 0.6465907
648.00 0.6463911
648.10 0.6461917
648.20 0.6459923
648.30 0.645793
648.40 0.6455939
648.50 0.6453948
648.60 0.6451958
648.70 0.6449969
648.80 0.6447981
648.90 0.6445993
649.00 0.6444007
649.10 0.6442022
649.20 0.6440037
649.30 0.6438054
649.40 0.6435971
649.50 0.6433884
649.60 0.6431799
649.70 0.6429715
649.80 0.6427632
649.90 0.6425549
650.00 0.6423468
650.10 0.6421388
650.20 0.6419308
650.30 0.641723
650.40 0.6415153
650.50 0.6413076
650.60 0.6411001
650.70 0.6408926
650.80 0.6406853
650.90 0.640478
651.00 0.6402709
651.10 0.6400638
651.20 0.6398568
651.30 0.63965
651.40 0.6394432
651.50 0.6392365
651.60 0.63903
651.70 0.6388235
651.80 0.6386171
651.90 0.6384108
652.00 0.6382046
652.10 0.6379985
652.20 0.6377925
652.30 0.6375866
652.40 0.6373808
652.50 0.6371751
652.60 0.6369762
652.70 0.6367811
652.80 0.636586
652.90 0.636391
653.00 0.6361961
653.10 0.6360013
653.20 0.6358066
653.30 0.6356119
653.40 0.6354174
653.50 0.6352229
653.60 0.6350286
653.70 0.6348343
653.80 0.6346401
653.90 0.634446
654.00 0.634252
654.10 0.6340581
654.20 0.6338643
654.30 0.6336705
654.40 0.6334769
654.50 0.6332833
654.60 0.6330899
654.70 0.6328965
654.80 0.6327032
654.90 0.63251
655.00 0.6323169
655.10 0.6321238
655.20 0.6319309
655.30 0.631738
655.40 0.6315453
655.50 0.6313526
655.60 0.63116
655.70 0.6309675
655.80 0.6307585
655.90 0.6305497
656.00 0.6303409
656.10 0.6301322
656.20 0.6299236
656.30 0.6297151
656.40 0.6295067
656.50 0.6292984
656.60 0.6290902
656.70 0.6288822
656.80 0.6286742
656.90 0.6284663
657.00 0.6282584
657.10 0.6280507
657.20 0.6278431
657.30 0.6276356
657.40 0.6274282
657.50 0.6272209
657.60 0.6270137
657.70 0.6268065
657.80 0.626616
657.90 0.6264255
658.00 0.6262351
658.10 0.6260448
658.20 0.6258546
658.30 0.6256645
658.40 0.6254744
658.50 0.6252845
658.60 0.6250946
658.70 0.6249048
658.80 0.6247151
658.90 0.6245255
659.00 0.624336
659.10 0.6241466
659.20 0.6239572
659.30 0.623768
659.40 0.6235788
659.50 0.6233897
659.60 0.6232007
659.70 0.6230118
659.80 0.6228229
659.90 0.6226342
660.00 0.6224455
660.10 0.6222569
660.20 0.6220684
660.30 0.62188
660.40 0.6216345
660.50 0.6213789
660.60 0.6211235
660.70 0.6208682
660.80 0.620613
660.90 0.6204252
661.00 0.6202375
661.10 0.6200499
661.20 0.6198623
661.30 0.6196749
661.40 0.6194875
661.50 0.6193002
661.60 0.619113
661.70 0.6189259
661.80 0.6187389
661.90 0.6185519
662.00 0.6183651
662.10 0.6181783
662.20 0.6179916
662.30 0.617805
662.40 0.6176185
662.50 0.617432
662.60 0.6172457
662.70 0.6170594
662.80 0.6168732
662.90 0.6166871
663.00 0.6165011
663.10 0.6163152
663.20 0.6161293
663.30 0.6159436
663.40 0.6157579
663.50 0.6155723
663.60 0.6153868
663.70 0.6152014
663.80 0.615016
663.90 0.6148308
664.00 0.6146456
664.10 0.6144067
664.20 0.6141678
664.30 0.6139291
664.40 0.6136905
664.50 0.6134521
664.60 0.6132137
664.70 0.6130292
664.80 0.6128448
664.90 0.6126605
665.00 0.6124762
665.10 0.6122921
665.20 0.612108
665.30 0.611924
665.40 0.6117401
665.50 0.6115563
665.60 0.6113725
665.70 0.6111889
665.80 0.6110053
665.90 0.6108218
666.00 0.6106384
666.10 0.610455
666.20 0.6102718
666.30 0.6100886
666.40 0.6099055
666.50 0.6097225
666.60 0.6095396
666.70 0.6093568
666.80 0.609174
666.90 0.6089913
667.00 0.6088087
667.10 0.6086262
667.20 0.6084438
667.30 0.6082614
667.40 0.6080792
667.50 0.607897
667.60 0.6077149
667.70 0.6075329
667.80 0.6073509
667.90 0.6068497
668.00 0.606668
668.10 0.6064864
668.20 0.6063049
668.30 0.6061235
668.40 0.6059421
668.50 0.6057608
668.60 0.6055797
668.70 0.6053985
668.80 0.6052175
668.90 0.6050366
669.00 0.6048557
669.10 0.6046749
669.20 0.6044942
669.30 0.6043136
669.40 0.6041331
669.50 0.6039526
669.60 0.6037722
669.70 0.6035919
669.80 0.6034117
669.90 0.6032316
670.00 0.6030515
670.10 0.6028715
670.20 0.6026916
670.30 0.6025118
670.40 0.6023321
670.50 0.6021524
670.60 0.6019729
670.70 0.6017934
670.80 0.6015856
670.90 0.6013779
671.00 0.6011702
671.10 0.6009627
671.20 0.6007553
671.30 0.600548
671.40 0.6003407
671.50 0.6001336
671.60 0.5999266
671.70 0.5997196
671.80 0.5995128
671.90 0.5993301
672.00 0.5991518
672.10 0.5989735
672.20 0.5987953
672.30 0.5986172
672.40 0.5984391
672.50 0.5982612
672.60 0.5980833
672.70 0.5979055
672.80 0.5977278
672.90 0.5975501
673.00 0.5973725
673.10 0.5971951
673.20 0.5970176
673.30 0.5968403
673.40 0.5966497
673.50 0.5964568
673.60 0.5962641
673.70 0.5960714
673.80 0.5958788
673.90 0.5956862
674.00 0.5954938
674.10 0.5953015
674.20 0.5951092
674.30 0.5949171
674.40 0.594725
674.50 0.594533
674.60 0.5943411
674.70 0.5941493
674.80 0.5939575
674.90 0.5937659
675.00 0.5935743
675.10 0.5933829
675.20 0.5931915
675.30 0.5930002
675.40 0.5928117
675.50 0.5926237
675.60 0.5924358
675.70 0.5922479
675.80 0.5920602
675.90 0.5918725
676.00 0.591685
676.10 0.5914975
676.20 0.5913101
676.30 0.5911228
676.40 0.5909355
676.50 0.5907484
676.60 0.5905613
676.70 0.5903744
676.80 0.5901875
676.90 0.5900007
677.00 0.589814
677.10 0.5896273
677.20 0.5894408
677.30 0.5892543
677.40 0.5890679
677.50 0.5888816
677.60 0.5886954
677.70 0.5885093
677.80 0.5883232
677.90 0.5881261
678.00 0.5879271
678.10 0.5877282
678.20 0.5875294
678.30 0.5873307
678.40 0.5871321
678.50 0.5869336
678.60 0.5867351
678.70 0.5865368
678.80 0.5863385
678.90 0.5861404
679.00 0.5859423
679.10 0.5857526
679.20 0.5855665
679.30 0.5853804
679.40 0.5851945
679.50 0.5850086
679.60 0.5848228
679.70 0.5846371
679.80 0.5844515
679.90 0.584266
680.00 0.5840806
680.10 0.5838952
680.20 0.5837099
680.30 0.5835247
680.40 0.5833396
680.50 0.5831546
680.60 0.5829696
680.70 0.5827848
680.80 0.5826
680.90 0.5824153
681.00 0.5822307
681.10 0.5820462
681.20 0.5818617
681.30 0.5816774
681.40 0.5814931
681.50 0.5813089
681.60 0.5811248
681.70 0.5809408
681.80 0.5807568
681.90 0.580573
682.00 0.5803892
682.10 0.5802055
682.20 0.5800219
682.30 0.5798384
682.40 0.5796549
682.50 0.5794716
682.60 0.5792883
682.70 0.5791051
682.80 0.578922
682.90 0.5787389
683.00 0.578556
683.10 0.5783731
683.20 0.5781903
683.30 0.5780076
683.40 0.577825
683.50 0.5776424
683.60 0.57746
683.70 0.5772776
683.80 0.5770953
683.90 0.5769131
684.00 0.576731
684.10 0.5765489
684.20 0.576367
684.30 0.5761851
684.40 0.5760033
684.50 0.5758215
684.60 0.5756399
684.70 0.5754583
684.80 0.5752769
684.90 0.5750955
685.00 0.5749142
685.10 0.5747329
685.20 0.5745518
685.30 0.5743707
685.40 0.5741897
685.50 0.5740088
685.60 0.573828
685.70 0.5736472
685.80 0.5734666
685.90 0.5732861
686.00 0.5731057
686.10 0.5729254
686.20 0.5727452
686.30 0.5725651
686.40 0.572385
686.50 0.5722051
686.60 0.5720252
686.70 0.5718454
686.80 0.5716657
686.90 0.571486
687.00 0.5713065
687.10 0.571127
687.20 0.5709476
687.30 0.5707683
687.40 0.570589
687.50 0.5704099
687.60 0.5702308
687.70 0.5700518
687.80 0.5698728
687.90 0.569694
688.00 0.5695152
688.10 0.5693366
688.20 0.569158
688.30 0.5689794
688.40 0.568801
688.50 0.5686226
688.60 0.5684443
688.70 0.5682661
688.80 0.568088
688.90 0.56791
689.00 0.567732
689.10 0.5675541
689.20 0.5673763
689.30 0.5671986
689.40 0.5670209
689.50 0.5668434
689.60 0.5666659
689.70 0.5664885
689.80 0.5663111
689.90 0.5661339
690.00 0.5659567
690.10 0.5657796
690.20 0.5656026
690.30 0.5654257
690.40 0.5652488
690.50 0.565072
690.60 0.5648953
690.70 0.5647187
690.80 0.5645421
690.90 0.5643657
691.00 0.5641893
691.10 0.564013
691.20 0.5638368
691.30 0.5636606
691.40 0.5634845
691.50 0.5633085
691.60 0.5631326
691.70 0.5629568
691.80 0.562781
691.90 0.5626053
692.00 0.5624297
692.10 0.5622542
692.20 0.5620788
692.30 0.5619034
692.40 0.5617281
692.50 0.5615529
692.60 0.5613777
692.70 0.5612022
692.80 0.5610247
692.90 0.5608473
693.00 0.56067
693.10 0.5604928
693.20 0.5603157
693.30 0.5601386
693.40 0.5599616
693.50 0.5597847
693.60 0.5596079
693.70 0.5594311
693.80 0.5592545
693.90 0.5590779
694.00 0.5589013
694.10 0.5587249
694.20 0.5585486
694.30 0.5583723
694.40 0.5581961
694.50 0.55802
694.60 0.5578439
694.70 0.557668
694.80 0.5574921
694.90 0.5573163
695.00 0.5571405
695.10 0.5569649
695.20 0.5567893
695.30 0.5566138
695.40 0.5564384
695.50 0.556263
695.60 0.5560878
695.70 0.5559126
695.80 0.5557375
695.90 0.5555625
696.00 0.5553875
696.10 0.5552126
696.20 0.5550378
696.30 0.5548631
696.40 0.5546885
696.50 0.5545139
696.60 0.5543423
696.70 0.5541714
696.80 0.5540006
696.90 0.5538299
697.00 0.5536593
697.10 0.5534887
697.20 0.5533182
697.30 0.5531478
697.40 0.5529775
697.50 0.5528072
697.60 0.552637
697.70 0.5524669
697.80 0.5522969
697.90 0.5521269
698.00 0.551957
698.10 0.5517872
698.20 0.5516175
698.30 0.5514478
698.40 0.5512782
698.50 0.5511087
698.60 0.5509393
698.70 0.5507699
698.80 0.5506006
698.90 0.5504314
699.00 0.5502622
699.10 0.5500623
699.20 0.5498553
699.30 0.5496483
699.40 0.5494414
699.50 0.5492347
699.60 0.549028
699.70 0.548849
699.80 0.5486716
699.90 0.5484942
700.00 0.548317
700.10 0.5481398
700.20 0.5479627
700.30 0.5477857
700.40 0.5476087
700.50 0.5474318
700.60 0.547255
700.70 0.5470783
700.80 0.5469017
700.90 0.5467251
701.00 0.5465487
701.10 0.5463732
701.20 0.5461981
701.30 0.546023
701.40 0.545848
701.50 0.5456731
701.60 0.5454983
701.70 0.5453235
701.80 0.5451488
701.90 0.5449742
702.00 0.5447997
702.10 0.5446252
702.20 0.5444509
702.30 0.5442766
702.40 0.5441023
702.50 0.5439282
702.60 0.5437697
702.70 0.543615
702.80 0.5434603
702.90 0.5433057
703.00 0.5431511
703.10 0.5429966
703.20 0.5428422
703.30 0.5426878
703.40 0.5425335
703.50 0.5423793
703.60 0.5422251
703.70 0.5420711
703.80 0.541917
703.90 0.5417631
704.00 0.5416092
704.10 0.5414553
704.20 0.5412783
704.30 0.5410959
704.40 0.5409135
704.50 0.5407313
704.60 0.5405491
704.70 0.540367
704.80 0.540185
704.90 0.5400031
705.00 0.5398212
705.10 0.5396395
705.20 0.539481
705.30 0.539328
705.40 0.5391751
705.50 0.5390223
705.60 0.5388695
705.70 0.5387168
705.80 0.5385062
705.90 0.5382822
706.00 0.5380582
706.10 0.5378344
706.20 0.5376685
706.30 0.5375163
706.40 0.5373641
706.50 0.537212
706.60 0.53706
706.70 0.536908
706.80 0.5367561
706.90 0.5366042
707.00 0.5364524
707.10 0.5363007
707.20 0.536149
707.30 0.5359974
707.40 0.5358075
707.50 0.5356086
707.60 0.5354098
707.70 0.5352111
707.80 0.5350125
707.90 0.5348139
708.00 0.5346539
708.10 0.5345029
708.20 0.5343519
708.30 0.534201
708.40 0.5340502
708.50 0.5338995
708.60 0.5337488
708.70 0.5335982
708.80 0.5334476
708.90 0.5332971
709.00 0.533118
709.10 0.5329323
709.20 0.5327466
709.30 0.532561
709.40 0.5323754
709.50 0.53219
709.60 0.5320046
709.70 0.5318194
709.80 0.5316342
709.90 0.5314491
710.00 0.531264
710.10 0.5310791
710.20 0.5308942
710.30 0.5307095
710.40 0.5305248
710.50 0.5303402
710.60 0.530169
710.70 0.530001
710.80 0.5298331
710.90 0.5296652
711.00 0.5294975
711.10 0.5293298
711.20 0.5291621
711.30 0.5289946
711.40 0.5288271
711.50 0.5286597
711.60 0.5284924
711.70 0.5283251
711.80 0.5281579
711.90 0.5279908
712.00 0.5278238
712.10 0.5276582
712.20 0.527493
712.30 0.5273278
712.40 0.5271628
712.50 0.5269978
712.60 0.5268328
712.70 0.526668
712.80 0.5265032
712.90 0.5263385
713.00 0.5261739
713.10 0.5260093
713.20 0.5258448
713.30 0.5256804
713.40 0.525516
713.50 0.5253518
713.60 0.5251875
713.70 0.525029
713.80 0.5248819
713.90 0.5247349
714.00 0.5245879
714.10 0.5244229
714.20 0.5242537
714.30 0.5240846
714.40 0.5239155
714.50 0.5237466
714.60 0.5235777
714.70 0.5234088
714.80 0.5232401
714.90 0.5230714
715.00 0.5229028
715.10 0.5227343
715.20 0.5225658
715.30 0.5223975
715.40 0.5222292
715.50 0.5220609
715.60 0.5218928
715.70 0.5217247
715.80 0.5215567
715.90 0.5213887
716.00 0.5212209
716.10 0.5210531
716.20 0.5208854
716.30 0.5207177
716.40 0.5205502
716.50 0.5203827
716.60 0.5202193
716.70 0.520057
716.80 0.5198947
716.90 0.5197326
717.00 0.5195704
717.10 0.5194084
717.20 0.5192464
717.30 0.5190845
717.40 0.5189227
717.50 0.5187609
717.60 0.5185992
717.70 0.5184376
717.80 0.518276
717.90 0.5181146
718.00 0.5179531
718.10 0.5177918
718.20 0.5176345
718.30 0.5174793
718.40 0.5173242
718.50 0.5171692
718.60 0.5170142
718.70 0.5168593
718.80 0.5167045
718.90 0.5165497
719.00 0.516395
719.10 0.5162404
719.20 0.5160858
719.30 0.5159313
719.40 0.5157769
719.50 0.5156225
719.60 0.5154682
719.70 0.515314
719.80 0.5151598
719.90 0.5150057
720.00 0.5148516
720.10 0.5146977
720.20 0.5145437
720.30 0.5143899
720.40 0.5142361
720.50 0.5140824
720.60 0.5139288
720.70 0.5136768
720.80 0.513372
720.90 0.5132087
721.00 0.5130514
721.10 0.5128942
721.20 0.512737
721.30 0.5125799
721.40 0.5124228
721.50 0.5122658
721.60 0.5121089
721.70 0.5119521
721.80 0.5117953
721.90 0.5116386
722.00 0.5114819
722.10 0.5113254
722.20 0.5111689
722.30 0.5110124
722.40 0.510856
722.50 0.5106997
722.60 0.5105435
722.70 0.5103852
722.80 0.5102258
722.90 0.5100664
723.00 0.5099072
723.10 0.509748
723.20 0.5095889
723.30 0.5094298
723.40 0.5092708
723.50 0.5091119
723.60 0.5089531
723.70 0.5087943
723.80 0.5086356
723.90 0.5084769
724.00 0.5083184
724.10 0.5081599
724.20 0.5080022
724.30 0.5078449
724.40 0.5076877
724.50 0.5075306
724.60 0.5073736
724.70 0.5072166
724.80 0.5070597
724.90 0.5069029
725.00 0.5067461
725.10 0.5065894
725.20 0.5064328
725.30 0.5062762
725.40 0.5061197
725.50 0.5059633
725.60 0.5058069
725.70 0.5056506
725.80 0.5054878
725.90 0.5053215
726.00 0.5051553
726.10 0.5049891
726.20 0.504823
726.30 0.504657
726.40 0.5044911
726.50 0.5043252
726.60 0.5041594
726.70 0.5039937
726.80 0.5038456
726.90 0.503707
727.00 0.5035684
727.10 0.5034299
727.20 0.5032914
727.30 0.5031531
727.40 0.502971
727.50 0.5027654
727.60 0.5025599
727.70 0.5023546
727.80 0.502193
727.90 0.502055
728.00 0.5019171
728.10 0.5017792
728.20 0.5016414
728.30 0.5015037
728.40 0.501366
728.50 0.5012283
728.60 0.5010472
728.70 0.5008426
728.80 0.5006381
728.90 0.5004337
729.00 0.5002729
729.10 0.5001357
729.20 0.4999985
729.30 0.4998614
729.40 0.4997244
729.50 0.4995874
729.60 0.4994331
729.70 0.4992694
729.80 0.4991059
729.90 0.4989424
730.00 0.4987789
730.10 0.4986156
730.20 0.4984523
730.30 0.4982891
730.40 0.4981259
730.50 0.4979629
730.60 0.4978064
730.70 0.4976535
730.80 0.4975006
730.90 0.4973478
731.00 0.4971951
731.10 0.4970424
731.20 0.4968898
731.30 0.4967373
731.40 0.4965848
731.50 0.4964324
731.60 0.4962801
731.70 0.4961278
731.80 0.4959756
731.90 0.4958234
732.00 0.4956714
732.10 0.4955193
732.20 0.4953667
732.30 0.4952137
732.40 0.4950607
732.50 0.4949079
732.60 0.4947551
732.70 0.4946024
732.80 0.4944497
732.90 0.4942971
733.00 0.4941445
733.10 0.4939921
733.20 0.4938397
733.30 0.4936873
733.40 0.493535
733.50 0.4933828
733.60 0.4932307
733.70 0.4930693
733.80 0.492903
733.90 0.4927367
734.00 0.4925705
734.10 0.4924045
734.20 0.4922384
734.30 0.4920725
734.40 0.4919066
734.50 0.4917408
734.60 0.491575
734.70 0.4914094
734.80 0.4912438
734.90 0.4910783
735.00 0.4909128
735.10 0.4907474
735.20 0.4905821
735.30 0.4904194
735.40 0.4902861
735.50 0.4901527
735.60 0.4900195
735.70 0.4898726
735.80 0.4897184
735.90 0.4895643
736.00 0.4894102
736.10 0.4892562
736.20 0.4891023
736.30 0.4889484
736.40 0.4887946
736.50 0.4886409
736.60 0.4884872
736.70 0.4883336
736.80 0.48818
736.90 0.4880265
737.00 0.4878731
737.10 0.4877198
737.20 0.4875665
737.30 0.4874133
737.40 0.4872601
737.50 0.4871071
737.60 0.486954
737.70 0.4868011
737.80 0.4866482
737.90 0.4864954
738.00 0.4863426
738.10 0.4861899
738.20 0.4860358
738.30 0.485881
738.40 0.4857262
738.50 0.4855715
738.60 0.4854168
738.70 0.4852623
738.80 0.4851078
738.90 0.4849533
739.00 0.4847989
739.10 0.4846446
739.20 0.4844904
739.30 0.4843362
739.40 0.4841821
739.50 0.4840281
739.60 0.4838741
739.70 0.4837202
739.80 0.4835663
739.90 0.4834125
740.00 0.4832588
740.10 0.4831051
740.20 0.4829516
740.30 0.482798
740.40 0.4826446
740.50 0.4824912
740.60 0.4823379
740.70 0.4821846
740.80 0.4820314
740.90 0.4818783
741.00 0.4817252
741.10 0.4815722
741.20 0.4814193
741.30 0.4812664
741.40 0.4811136
741.50 0.4809608
741.60 0.4808082
741.70 0.4806555
741.80 0.480503
741.90 0.4803505
742.00 0.4801981
742.10 0.4800457
742.20 0.4798935
742.30 0.4797412
742.40 0.4795891
742.50 0.479437
742.60 0.4792849
742.70 0.4791319
742.80 0.4789779
742.90 0.478824
743.00 0.4786702
743.10 0.4785165
743.20 0.4783628
743.30 0.4782091
743.40 0.4780556
743.50 0.4779021
743.60 0.4777487
743.70 0.4775963
743.80 0.4774477
743.90 0.4772992
744.00 0.4771508
744.10 0.4770024
744.20 0.4768541
744.30 0.4767059
744.40 0.4765577
744.50 0.4764096
744.60 0.4762615
744.70 0.4761135
744.80 0.4759656
744.90 0.4758177
745.00 0.4756699
745.10 0.4755222
745.20 0.4753745
745.30 0.4752268
745.40 0.4750793
745.50 0.4749318
745.60 0.4747844
745.70 0.474637
745.80 0.4744897
745.90 0.4743424
746.00 0.4741952
746.10 0.4740481
746.20 0.473901
746.30 0.473754
746.40 0.4736071
746.50 0.4734602
746.60 0.4733134
746.70 0.4731666
746.80 0.47302
746.90 0.4728733
747.00 0.4727268
747.10 0.4725802
747.20 0.4724338
747.30 0.4722874
747.40 0.4721411
747.50 0.4719948
747.60 0.4718486
747.70 0.4717025
747.80 0.4715564
747.90 0.4714104
748.00 0.4712644
748.10 0.4711185
748.20 0.4709727
748.30 0.4708269
748.40 0.4706812
748.50 0.4705356
748.60 0.47039
748.70 0.4702444
748.80 0.470099
748.90 0.4699536
749.00 0.4698082
749.10 0.4696629
749.20 0.4695177
749.30 0.4693725
749.40 0.4692274
749.50 0.4690824
749.60 0.4689374
749.70 0.4687925
749.80 0.4686476
749.90 0.4685028
750.00 0.4683581
750.10 0.4682114
750.20 0.4680596
750.30 0.4679078
750.40 0.4677561
750.50 0.4676045
750.60 0.467453
750.70 0.4673015
750.80 0.46715
750.90 0.4669987
751.00 0.4668473
751.10 0.4666961
751.20 0.4665449
751.30 0.4663938
751.40 0.4662428
751.50 0.4660918
751.60 0.4659409
751.70 0.46579
751.80 0.4656392
751.90 0.4654885
752.00 0.4653378
752.10 0.4651872
752.20 0.4650367
752.30 0.4648862
752.40 0.4647358
752.50 0.4645854
752.60 0.4644351
752.70 0.4642849
752.80 0.4641348
752.90 0.4639847
753.00 0.4638346
753.10 0.4636847
753.20 0.4635348
753.30 0.4633849
753.40 0.4632351
753.50 0.4630854
753.60 0.4629358
753.70 0.4627862
753.80 0.4626367
753.90 0.4624924
754.00 0.4623497
754.10 0.462207
754.20 0.4620644
754.30 0.4619219
754.40 0.4617794
754.50 0.461637
754.60 0.4614946
754.70 0.4613523
754.80 0.4612101
754.90 0.4610679
755.00 0.4609258
755.10 0.4607837
755.20 0.4606417
755.30 0.4604998
755.40 0.4603579
755.50 0.460216
755.60 0.4600743
755.70 0.4599326
755.80 0.4597909
755.90 0.4596493
756.00 0.4595078
756.10 0.4593663
756.20 0.4592249
756.30 0.4590835
756.40 0.4589422
756.50 0.458801
756.60 0.4586598
756.70 0.4585187
756.80 0.4583776
756.90 0.4582366
757.00 0.4580956
757.10 0.4579548
757.20 0.4578139
757.30 0.4576731
757.40 0.4575324
757.50 0.4573918
757.60 0.4572494
757.70 0.4571025
757.80 0.4569557
757.90 0.4568089
758.00 0.4566622
758.10 0.4565156
758.20 0.456369
758.30 0.4562224
758.40 0.456076
758.50 0.4559296
758.60 0.4557832
758.70 0.455637
758.80 0.4554907
758.90 0.4553446
759.00 0.4551985
759.10 0.4550525
759.20 0.4549065
759.30 0.4547606
759.40 0.4546147
759.50 0.4544689
759.60 0.4543232
759.70 0.4541776
759.80 0.4540319
759.90 0.4538864
760.00 0.4537409
760.10 0.4535955
760.20 0.4534501
760.30 0.4533048
760.40 0.4531596
760.50 0.4530144
760.60 0.4528693
760.70 0.4527242
760.80 0.4525792
760.90 0.4524343
761.00 0.4522894
761.10 0.4521446
761.20 0.4519998
761.30 0.4518552
761.40 0.4517131
761.50 0.451575
761.60 0.451437
761.70 0.451299
761.80 0.4511611
761.90 0.4510232
762.00 0.4508854
762.10 0.4507477
762.20 0.45061
762.30 0.4504724
762.40 0.4503348
762.50 0.4501973
762.60 0.4500598
762.70 0.4499224
762.80 0.449785
762.90 0.4496477
763.00 0.4495105
763.10 0.4493733
763.20 0.4492362
763.30 0.4490991
763.40 0.4489621
763.50 0.4488252
763.60 0.4486883
763.70 0.4485514
763.80 0.4484146
763.90 0.4482779
764.00 0.4481412
764.10 0.4480046
764.20 0.447868
764.30 0.4477315
764.40 0.4475951
764.50 0.4474587
764.60 0.4473224
764.70 0.4471861
764.80 0.4470499
764.90 0.4469137
765.00 0.4467776
765.10 0.4466415
765.20 0.4465023
765.30 0.4463602
765.40 0.4462181
765.50 0.4460761
765.60 0.4459342
765.70 0.4457923
765.80 0.4456505
765.90 0.4455087
766.00 0.445367
766.10 0.4452254
766.20 0.4450838
766.30 0.4449423
766.40 0.4448008
766.50 0.4446594
766.60 0.4445181
766.70 0.4443768
766.80 0.4442356
766.90 0.4440944
767.00 0.4439533
767.10 0.4438122
767.20 0.4436712
767.30 0.4435303
767.40 0.4433894
767.50 0.4432486
767.60 0.4431078
767.70 0.4429671
767.80 0.4428265
767.90 0.4426859
768.00 0.4425454
768.10 0.4424049
768.20 0.4422645
768.30 0.4421241
768.40 0.4419838
768.50 0.4418436
768.60 0.4417034
768.70 0.4415633
768.80 0.4414232
768.90 0.4412832
769.00 0.4411432
769.10 0.4410034
769.20 0.4408635
769.30 0.4407237
769.40 0.440584
769.50 0.4404444
769.60 0.4403048
769.70 0.4401652
769.80 0.4400257
769.90 0.4398863
770.00 0.4397469
770.10 0.4396076
770.20 0.4394684
770.30 0.4393292
770.40 0.43919
770.50 0.4390509
770.60 0.4389119
770.70 0.4387729
770.80 0.438634
770.90 0.4384952
771.00 0.4383564
771.10 0.4382176
771.20 0.4380789
771.30 0.4379403
771.40 0.4378017
771.50 0.4376632
771.60 0.4375248
771.70 0.4373864
771.80 0.437248
771.90 0.4371098
772.00 0.4369715
772.10 0.4368334
772.20 0.4366952
772.30 0.4365572
772.40 0.4364192
772.50 0.4362812
772.60 0.4361434
772.70 0.4360055
772.80 0.4358678
772.90 0.4357303
773.00 0.4355929
773.10 0.4354555
773.20 0.4353182
773.30 0.435181
773.40 0.4350438
773.50 0.4349066
773.60 0.4347696
773.70 0.4346326
773.80 0.4344956
773.90 0.4343587
774.00 0.4342218
774.10 0.434085
774.20 0.4339483
774.30 0.4338116
774.40 0.433675
774.50 0.4335384
774.60 0.4334019
774.70 0.4332655
774.80 0.433129
774.90 0.4329927
775.00 0.4328564
775.10 0.4327202
775.20 0.432584
775.30 0.4324479
775.40 0.4323118
775.50 0.4321758
775.60 0.4320399
775.70 0.431904
775.80 0.4317681
775.90 0.4316323
776.00 0.4314966
776.10 0.4313609
776.20 0.4312253
776.30 0.4310897
776.40 0.4309542
776.50 0.4308188
776.60 0.4306834
776.70 0.430548
776.80 0.4304127
776.90 0.4302775
777.00 0.4301423
777.10 0.4300072
777.20 0.4298721
777.30 0.4297371
777.40 0.4296022
777.50 0.4294673
777.60 0.4293324
777.70 0.4291976
777.80 0.4290629
777.90 0.4289282
778.00 0.4287936
778.10 0.428659
778.20 0.4285245
778.30 0.4283901
778.40 0.4282556
778.50 0.4281213
778.60 0.427987
778.70 0.4278528
778.80 0.4277186
778.90 0.4275844
779.00 0.4274504
779.10 0.4273163
779.20 0.4271824
779.30 0.4270485
779.40 0.4269146
779.50 0.4267808
779.60 0.4266471
779.70 0.4265134
779.80 0.4263797
779.90 0.4262461
780.00 0.4261126
780.10 0.4259791
780.20 0.4258457
780.30 0.4257124
780.40 0.425579
780.50 0.4254458
780.60 0.4253133
780.70 0.4251813
780.80 0.4250492
780.90 0.4249173
781.00 0.4247853
781.10 0.4246535
781.20 0.4245217
781.30 0.4243899
781.40 0.4242582
781.50 0.4241265
781.60 0.4239949
781.70 0.4238634
781.80 0.4237319
781.90 0.4236004
782.00 0.4234691
782.10 0.4233377
782.20 0.4232064
782.30 0.4230752
782.40 0.422944
782.50 0.4228129
782.60 0.4226818
782.70 0.4225508
782.80 0.4224199
782.90 0.422289
783.00 0.4221581
783.10 0.4220273
783.20 0.4218966
783.30 0.4217659
783.40 0.4216352
783.50 0.4215046
783.60 0.4213741
783.70 0.4212436
783.80 0.4211132
783.90 0.4209828
784.00 0.4208525
784.10 0.4207222
784.20 0.420592
784.30 0.4204618
784.40 0.4203317
784.50 0.4202016
784.60 0.4200711
784.70 0.4199395
784.80 0.4198079
784.90 0.4196763
785.00 0.4195448
785.10 0.4194134
785.20 0.419282
785.30 0.4191506
785.40 0.4190194
785.50 0.4188881
785.60 0.418757
785.70 0.4186258
785.80 0.4184948
785.90 0.4183638
786.00 0.4182328
786.10 0.4181019
786.20 0.417971
786.30 0.4178402
786.40 0.4177095
786.50 0.4175788
786.60 0.4174481
786.70 0.4173175
786.80 0.417187
786.90 0.4170565
787.00 0.4169261
787.10 0.4167957
787.20 0.4166654
787.30 0.4165351
787.40 0.4164049
787.50 0.4162747
787.60 0.4161446
787.70 0.4160145
787.80 0.4158845
787.90 0.4157546
788.00 0.4156247
788.10 0.4154948
788.20 0.415365
788.30 0.4152353
788.40 0.4151063
788.50 0.4149778
788.60 0.4148493
788.70 0.4147209
788.80 0.4145925
788.90 0.4144641
789.00 0.4143359
789.10 0.4142076
789.20 0.4140795
789.30 0.4139513
789.40 0.4138233
789.50 0.4136952
789.60 0.4135673
789.70 0.4134394
789.80 0.4133115
789.90 0.4131837
790.00 0.4130559
790.10 0.4129282
790.20 0.4128006
790.30 0.4126729
790.40 0.4125454
790.50 0.4124179
790.60 0.4122904
790.70 0.412163
790.80 0.4120357
790.90 0.4119084
791.00 0.4117811
791.10 0.4116539
791.20 0.4115268
791.30 0.4113997
791.40 0.4112726
791.50 0.4111456
791.60 0.4110187
791.70 0.4108918
791.80 0.410765
791.90 0.4106382
792.00 0.4105114
792.10 0.4103848
792.20 0.4102581
792.30 0.4101315
792.40 0.410005
792.50 0.4098785
792.60 0.4097521
792.70 0.4096257
792.80 0.4094993
792.90 0.409373
793.00 0.4092468
793.10 0.4091206
793.20 0.4089945
793.30 0.4088684
793.40 0.4087424
793.50 0.4086164
793.60 0.4084905
793.70 0.4083646
793.80 0.4082387
793.90 0.408113
794.00 0.4079872
794.10 0.4078615
794.20 0.4077359
794.30 0.4076103
794.40 0.4074848
794.50 0.4073593
794.60 0.4072339
794.70 0.4071085
794.80 0.4069832
794.90 0.4068579
795.00 0.4067327
795.10 0.4066075
795.20 0.4064824
795.30 0.4063573
795.40 0.4062323
795.50 0.4061073
795.60 0.4059824
795.70 0.4058575
795.80 0.4057327
795.90 0.4056079
796.00 0.4054832
796.10 0.4053585
796.20 0.4052338
796.30 0.4051071
796.40 0.40498
796.50 0.4048529
796.60 0.4047259
796.70 0.4045989
796.80 0.404472
796.90 0.4043451
797.00 0.4042183
797.10 0.4040916
797.20 0.4039648
797.30 0.4038382
797.40 0.4037116
797.50 0.403585
797.60 0.4034585
797.70 0.403332
797.80 0.4032056
797.90 0.4030793
798.00 0.402953
798.10 0.4028267
798.20 0.4027005
798.30 0.4025743
798.40 0.4024482
798.50 0.4023222
798.60 0.4021962
798.70 0.4020702
798.80 0.4019443
798.90 0.4018185
799.00 0.4016927
799.10 0.4015669
799.20 0.4014412
799.30 0.4013156
799.40 0.40119
799.50 0.4010644
799.60 0.4009389
799.70 0.4008135
799.80 0.4006881
799.90 0.4005627
800.00 0.4004374
800.10 0.4003122
800.20 0.400187
800.30 0.4000618
800.40 0.3999367
800.50 0.3998117
800.60 0.3996867
800.70 0.3995617
800.80 0.3994368
800.90 0.399312
801.00 0.3991872
801.10 0.3990624
801.20 0.3989377
801.30 0.3988131
801.40 0.3986885
801.50 0.3985639
801.60 0.3984394
801.70 0.398315
801.80 0.3981906
801.90 0.3980662
802.00 0.3979419
802.10 0.3978177
802.20 0.3976935
802.30 0.3975693
802.40 0.3974452
802.50 0.3973212
802.60 0.3971972
802.70 0.3970732
802.80 0.3969493
802.90 0.3968254
803.00 0.3967016
803.10 0.3965779
803.20 0.3964542
803.30 0.3963305
803.40 0.3962069
803.50 0.3960833
803.60 0.3959598
803.70 0.3958364
803.80 0.395713
803.90 0.3955896
804.00 0.3954663
804.10 0.395343
804.20 0.3952205
804.30 0.3951003
804.40 0.3949801
804.50 0.3948601
804.60 0.39474
804.70 0.39462
804.80 0.3945001
804.90 0.3943802
805.00 0.3942603
805.10 0.3941405
805.20 0.3940208
805.30 0.3939011
805.40 0.3937814
805.50 0.3936618
805.60 0.3935423
805.70 0.3934227
805.80 0.3933033
805.90 0.3931838
806.00 0.3930645
806.10 0.3929451
806.20 0.3928259
806.30 0.3927066
806.40 0.3925874
806.50 0.3924683
806.60 0.3923492
806.70 0.3922302
806.80 0.3921112
806.90 0.3919922
807.00 0.3918733
807.10 0.3917544
807.20 0.3916356
807.30 0.3915169
807.40 0.3913981
807.50 0.3912795
807.60 0.3911608
807.70 0.3910423
807.80 0.3909237
807.90 0.3908053
808.00 0.3906868
808.10 0.3905684
808.20 0.39045
808.30 0.3903263
808.40 0.3902026
808.50 0.390079
808.60 0.3899554
808.70 0.3898319
808.80 0.3897084
808.90 0.389585
809.00 0.3894616
809.10 0.3893383
809.20 0.389215
809.30 0.3890918
809.40 0.3889686
809.50 0.3888455
809.60 0.3887224
809.70 0.3885994
809.80 0.3884764
809.90 0.3883534
810.00 0.3882306
810.10 0.3881077
810.20 0.3879849
810.30 0.3878622
810.40 0.3877395
810.50 0.3876169
810.60 0.3874943
810.70 0.3873717
810.80 0.3872492
810.90 0.3871268
811.00 0.3870044
811.10 0.386882
811.20 0.3867597
811.30 0.3866375
811.40 0.3865153
811.50 0.3863931
811.60 0.386271
811.70 0.3861489
811.80 0.3860269
811.90 0.385905
812.00 0.385783
812.10 0.3856612
812.20 0.3855394
812.30 0.3854194
812.40 0.3852999
812.50 0.3851805
812.60 0.3850611
812.70 0.3849417
812.80 0.3848225
812.90 0.3847032
813.00 0.384584
813.10 0.3844649
813.20 0.3843458
813.30 0.3842267
813.40 0.3841077
813.50 0.3839887
813.60 0.3838698
813.70 0.3837509
813.80 0.3836321
813.90 0.3835133
814.00 0.3833946
814.10 0.3832759
814.20 0.3831573
814.30 0.3830387
814.40 0.3829202
814.50 0.3828017
814.60 0.3826832
814.70 0.3825648
814.80 0.3824465
814.90 0.3823282
815.00 0.3822099
815.10 0.3820917
815.20 0.3819735
815.30 0.3818554
815.40 0.3817373
815.50 0.3816193
815.60 0.3815013
815.70 0.3813834
815.80 0.3812655
815.90 0.3811476
816.00 0.3810298
816.10 0.3809121
816.20 0.3807944
816.30 0.3806767
816.40 0.3805591
816.50 0.3804415
816.60 0.380324
816.70 0.3802065
816.80 0.3800891
816.90 0.3799717
817.00 0.3798544
817.10 0.3797371
817.20 0.3796199
817.30 0.3795027
817.40 0.3793855
817.50 0.3792684
817.60 0.3791514
817.70 0.3790343
817.80 0.3789174
817.90 0.3788004
818.00 0.3786836
818.10 0.3785667
818.20 0.37845
818.30 0.3783332
818.40 0.3782165
818.50 0.3780999
818.60 0.3779833
818.70 0.3778667
818.80 0.3777502
818.90 0.3776337
819.00 0.3775173
819.10 0.3774009
819.20 0.3772846
819.30 0.3771679
819.40 0.3770509
819.50 0.376934
819.60 0.3768171
819.70 0.3767002
819.80 0.3765834
819.90 0.3764666
820.00 0.3763499
820.10 0.3762355
820.20 0.3761438
820.30 0.376052
820.40 0.3759458
820.50 0.3758291
820.60 0.3757124
820.70 0.3755957
820.80 0.3754791
820.90 0.3753625
821.00 0.375246
821.10 0.3751295
821.20 0.3750131
821.30 0.3748967
821.40 0.3747804
821.50 0.3746641
821.60 0.3745478
821.70 0.3744316
821.80 0.3743155
821.90 0.3741993
822.00 0.3740833
822.10 0.3739672
822.20 0.3738513
822.30 0.3737353
822.40 0.3736195
822.50 0.3735036
822.60 0.3733878
822.70 0.3732721
822.80 0.3731564
822.90 0.3730407
823.00 0.3729251
823.10 0.3728095
823.20 0.372694
823.30 0.3725785
823.40 0.3724631
823.50 0.3723477
823.60 0.3722324
823.70 0.3721171
823.80 0.3720018
823.90 0.3718866
824.00 0.3717714
824.10 0.3716563
824.20 0.3715412
824.30 0.3714262
824.40 0.3713112
824.50 0.3711963
824.60 0.3710814
824.70 0.3709665
824.80 0.3708517
824.90 0.370737
825.00 0.3706223
825.10 0.3705076
825.20 0.370393
825.30 0.3702784
825.40 0.3701639
825.50 0.3700494
825.60 0.3699349
825.70 0.3698205
825.80 0.3697062
825.90 0.3695918
826.00 0.3694776
826.10 0.3693633
826.20 0.3692492
826.30 0.3691336
826.40 0.3690171
826.50 0.3689007
826.60 0.3687843
826.70 0.368668
826.80 0.3685517
826.90 0.3684355
827.00 0.3683193
827.10 0.3682031
827.20 0.368087
827.30 0.3679709
827.40 0.3678549
827.50 0.367739
827.60 0.367623
827.70 0.3675071
827.80 0.3673913
827.90 0.3672755
828.00 0.3671598
828.10 0.3670441
828.20 0.3669284
828.30 0.3668128
828.40 0.3666972
828.50 0.3665817
828.60 0.3664687
828.70 0.3663577
828.80 0.3662467
828.90 0.3661359
829.00 0.366025
829.10 0.3659142
829.20 0.3658034
829.30 0.3656927
829.40 0.365582
829.50 0.3654714
829.60 0.3653608
829.70 0.3652503
829.80 0.3651398
829.90 0.3650293
830.00 0.3649189
830.10 0.3648085
830.20 0.3646982
830.30 0.3645879
830.40 0.3644776
830.50 0.3643674
830.60 0.3642573
830.70 0.3641471
830.80 0.364037
830.90 0.363927
831.00 0.363817
831.10 0.3637071
831.20 0.3635972
831.30 0.3634873
831.40 0.3633775
831.50 0.3632677
831.60 0.3631579
831.70 0.3630482
831.80 0.3629386
831.90 0.362829
832.00 0.3627194
832.10 0.3626099
832.20 0.3625004
832.30 0.3623909
832.40 0.3622815
832.50 0.3621722
832.60 0.3620628
832.70 0.3619536
832.80 0.3618443
832.90 0.3617351
833.00 0.361626
833.10 0.3615169
833.20 0.3614078
833.30 0.3612988
833.40 0.3611898
833.50 0.3610809
833.60 0.360972
833.70 0.3608631
833.80 0.3607543
833.90 0.3606455
834.00 0.3605368
834.10 0.3604281
834.20 0.3603194
834.30 0.3602108
834.40 0.3601023
834.50 0.3599937
834.60 0.3598853
834.70 0.3597768
834.80 0.3596684
834.90 0.3595601
835.00 0.3594517
835.10 0.3593435
835.20 0.3592352
835.30 0.359127
835.40 0.3590189
835.50 0.3589108
835.60 0.3588027
835.70 0.3586947
835.80 0.3585867
835.90 0.3584788
836.00 0.3583709
836.10 0.358263
836.20 0.3581552
836.30 0.3580474
836.40 0.3579397
836.50 0.357832
836.60 0.3577243
836.70 0.3576167
836.80 0.3575092
836.90 0.3574001
837.00 0.3572904
837.10 0.3571807
837.20 0.3570711
837.30 0.3569616
837.40 0.356852
837.50 0.3567425
837.60 0.3566331
837.70 0.3565237
837.80 0.3564143
837.90 0.356305
838.00 0.3561957
838.10 0.3560865
838.20 0.3559773
838.30 0.3558681
838.40 0.355759
838.50 0.35565
838.60 0.3555409
838.70 0.355432
838.80 0.355323
838.90 0.3552141
839.00 0.3551052
839.10 0.3549964
839.20 0.3548877
839.30 0.3547789
839.40 0.3546702
839.50 0.3545616
839.60 0.354453
839.70 0.3543444
839.80 0.3542359
839.90 0.3541274
840.00 0.354019
840.10 0.3539106
840.20 0.3538022
840.30 0.3536939
840.40 0.3535856
840.50 0.3534774
840.60 0.3533692
840.70 0.353261
840.80 0.3531529
840.90 0.3530449
841.00 0.3529368
841.10 0.3528288
841.20 0.3527209
841.30 0.352613
841.40 0.3525052
841.50 0.3523973
841.60 0.3522896
841.70 0.3521818
841.80 0.3520741
841.90 0.3519665
842.00 0.3518589
842.10 0.3517513
842.20 0.3516438
842.30 0.3515363
842.40 0.3514289
842.50 0.3513215
842.60 0.3512141
842.70 0.3511068
842.80 0.3509995
842.90 0.3508923
843.00 0.3507851
843.10 0.3506779
843.20 0.3505708
843.30 0.3504637
843.40 0.3503567
843.50 0.3502497
843.60 0.3501427
843.70 0.3500358
843.80 0.349929
843.90 0.3498221
844.00 0.3497153
844.10 0.3496086
844.20 0.3495019
844.30 0.3493952
844.40 0.3492886
844.50 0.349182
844.60 0.3490755
844.70 0.348969
844.80 0.3488625
844.90 0.3487561
845.00 0.3486497
845.10 0.3485434
845.20 0.3484371
845.30 0.3483287
845.40 0.3482203
845.50 0.348112
845.60 0.3480038
845.70 0.3478955
845.80 0.3477874
845.90 0.3476792
846.00 0.3475711
846.10 0.3474631
846.20 0.3473551
846.30 0.3472471
846.40 0.3471392
846.50 0.3470313
846.60 0.3469234
846.70 0.3468156
846.80 0.3467078
846.90 0.3466001
847.00 0.3464924
847.10 0.3463848
847.20 0.3462772
847.30 0.3461696
847.40 0.3460621
847.50 0.3459546
847.60 0.3458472
847.70 0.3457398
847.80 0.3456324
847.90 0.3455251
848.00 0.3454178
848.10 0.3453106
848.20 0.3452034
848.30 0.3450963
848.40 0.3449892
848.50 0.3448821
848.60 0.3447751
848.70 0.3446681
848.80 0.3445611
848.90 0.3444542
849.00 0.3443474
849.10 0.3442405
849.20 0.3441338
849.30 0.344027
849.40 0.3439203
849.50 0.3438136
849.60 0.343707
849.70 0.3436004
849.80 0.3434939
849.90 0.3433874
850.00 0.343281
850.10 0.3431745
850.20 0.3430682
850.30 0.3429618
850.40 0.3428555
850.50 0.3427493
850.60 0.3426431
850.70 0.3425369
850.80 0.3424308
850.90 0.3423247
851.00 0.3422186
851.10 0.3421126
851.20 0.3420066
851.30 0.3419007
851.40 0.3417948
851.50 0.341689
851.60 0.3415831
851.70 0.3414774
851.80 0.3413716
851.90 0.341266
852.00 0.3411603
852.10 0.3410547
852.20 0.3409491
852.30 0.3408436
852.40 0.3407381
852.50 0.3406327
852.60 0.3405272
852.70 0.3404219
852.80 0.3403165
852.90 0.3402113
853.00 0.340106
853.10 0.3400008
853.20 0.3398956
853.30 0.3397905
853.40 0.3396854
853.50 0.3395804
853.60 0.3394754
853.70 0.3393716
853.80 0.3392692
853.90 0.3391669
854.00 0.3390646
854.10 0.3389623
854.20 0.3388601
854.30 0.3387579
854.40 0.3386557
854.50 0.3385536
854.60 0.3384515
854.70 0.3383495
854.80 0.3382475
854.90 0.3381455
855.00 0.3380436
855.10 0.3379417
855.20 0.3378398
855.30 0.337738
855.40 0.3376362
855.50 0.3375345
855.60 0.3374328
855.70 0.3373311
855.80 0.3372295
855.90 0.3371279
856.00 0.3370264
856.10 0.3369249
856.20 0.3368234
856.30 0.336722
856.40 0.3366206
856.50 0.3365193
856.60 0.3364179
856.70 0.3363167
856.80 0.3362154
856.90 0.3361142
857.00 0.3360131
857.10 0.3359119
857.20 0.3358109
857.30 0.3357098
857.40 0.3356088
857.50 0.3355078
857.60 0.3354069
857.70 0.335306
857.80 0.3352051
857.90 0.3351043
858.00 0.3350035
858.10 0.3349028
858.20 0.3348021
858.30 0.3347014
858.40 0.3346008
858.50 0.3345002
858.60 0.3343996
858.70 0.3342991
858.80 0.3341986
858.90 0.3340982
859.00 0.3339978
859.10 0.3338974
859.20 0.3337971
859.30 0.3336968
859.40 0.3335966
859.50 0.3334963
859.60 0.3333962
859.70 0.333296
859.80 0.3331959
859.90 0.3330959
860.00 0.3329958
860.10 0.3328958
860.20 0.3327959
860.30 0.332696
860.40 0.3325961
860.50 0.3324963
860.60 0.3323964
860.70 0.3322967
860.80 0.332197
860.90 0.3320973
861.00 0.3319976
861.10 0.331898
861.20 0.3317984
861.30 0.3316989
861.40 0.3315994
861.50 0.3314999
861.60 0.3314005
861.70 0.3313011
861.80 0.3312017
861.90 0.3311024
862.00 0.3310031
862.10 0.3309039
862.20 0.3308044
862.30 0.3307033
862.40 0.3306021
862.50 0.330501
862.60 0.3304
862.70 0.330299
862.80 0.330198
862.90 0.3300971
863.00 0.3299962
863.10 0.3298953
863.20 0.3297945
863.30 0.3296937
863.40 0.3295929
863.50 0.3294922
863.60 0.3293915
863.70 0.3292909
863.80 0.3291903
863.90 0.3290897
864.00 0.3289892
864.10 0.3288887
864.20 0.3287883
864.30 0.3286879
864.40 0.3285875
864.50 0.3284872
864.60 0.3283869
864.70 0.3282866
864.80 0.3281864
864.90 0.3280862
865.00 0.327986
865.10 0.3278859
865.20 0.3277859
865.30 0.3276858
865.40 0.3275858
865.50 0.3274859
865.60 0.3273859
865.70 0.3272861
865.80 0.3271862
865.90 0.3270864
866.00 0.3269866
866.10 0.3268869
866.20 0.3267872
866.30 0.3266875
866.40 0.3265879
866.50 0.3264883
866.60 0.3263888
866.70 0.3262893
866.80 0.3261898
866.90 0.3260903
867.00 0.3259909
867.10 0.3258916
867.20 0.3257922
867.30 0.325693
867.40 0.3255937
867.50 0.3254945
867.60 0.3253953
867.70 0.3252962
867.80 0.3251971
867.90 0.325098
868.00 0.324999
868.10 0.3249
868.20 0.324801
868.30 0.3247021
868.40 0.3246032
868.50 0.3245044
868.60 0.3244056
868.70 0.3243068
868.80 0.3242081
868.90 0.3241094
869.00 0.3240107
869.10 0.3239121
869.20 0.3238135
869.30 0.3237149
869.40 0.3236164
869.50 0.323518
869.60 0.3234195
869.70 0.3233211
869.80 0.3232228
869.90 0.3231244
870.00 0.3230261
870.10 0.3229279
870.20 0.3228297
870.30 0.3227315
870.40 0.3226333
870.50 0.3225352
870.60 0.3224371
870.70 0.3223391
870.80 0.3222411
870.90 0.3221453
871.00 0.3220498
871.10 0.3219543
871.20 0.3218588
871.30 0.3217634
871.40 0.321668
871.50 0.3215726
871.60 0.3214773
871.70 0.321382
871.80 0.3212868
871.90 0.3211915
872.00 0.3210964
872.10 0.3210012
872.20 0.3209061
872.30 0.320811
872.40 0.320716
872.50 0.320621
872.60 0.320526
872.70 0.3204311
872.80 0.3203362
872.90 0.3202413
873.00 0.3201465
873.10 0.3200517
873.20 0.3199569
873.30 0.3198622
873.40 0.3197675
873.50 0.3196729
873.60 0.3195782
873.70 0.3194836
873.80 0.3193891
873.90 0.3192946
874.00 0.3192001
874.10 0.3191057
874.20 0.3190112
874.30 0.3189169
874.40 0.3188225
874.50 0.3187282
874.60 0.3186339
874.70 0.3185397
874.80 0.3184455
874.90 0.3183513
875.00 0.3182572
875.10 0.3181631
875.20 0.3180675
875.30 0.3179692
875.40 0.317871
875.50 0.3177727
875.60 0.3176745
875.70 0.3175764
875.80 0.3174783
875.90 0.3173802
876.00 0.3172821
876.10 0.3171841
876.20 0.3170862
876.30 0.3169882
876.40 0.3168903
876.50 0.3167925
876.60 0.3166946
876.70 0.3165969
876.80 0.3164991
876.90 0.3164014
877.00 0.3163037
877.10 0.3162061
877.20 0.3161085
877.30 0.3160109
877.40 0.3159134
877.50 0.3158159
877.60 0.3157184
877.70 0.315621
877.80 0.3155236
877.90 0.3154262
878.00 0.3153289
878.10 0.3152316
878.20 0.3151344
878.30 0.3150372
878.40 0.31494
878.50 0.3148429
878.60 0.3147458
878.70 0.3146487
878.80 0.3145517
878.90 0.3144547
879.00 0.3143577
879.10 0.3142608
879.20 0.3141639
879.30 0.3140671
879.40 0.3139703
879.50 0.3138735
879.60 0.3137804
879.70 0.3136881
879.80 0.3135959
879.90 0.3135037
880.00 0.3134115
880.10 0.3133194
880.20 0.3132273
880.30 0.3131353
880.40 0.3130432
880.50 0.3129512
880.60 0.3128593
880.70 0.3127673
880.80 0.3126754
880.90 0.3125836
881.00 0.3124918
881.10 0.3124
881.20 0.3123082
881.30 0.3122165
881.40 0.3121248
881.50 0.3120331
881.60 0.3119415
881.70 0.3118499
881.80 0.3117584
881.90 0.3116668
882.00 0.3115753
882.10 0.3114839
882.20 0.3113925
882.30 0.3113011
882.40 0.3112097
882.50 0.3111184
882.60 0.3110271
882.70 0.3109358
882.80 0.3108446
882.90 0.3107534
883.00 0.3106623
883.10 0.3105711
883.20 0.3104801
883.30 0.310389
883.40 0.310298
883.50 0.310207
883.60 0.310116
883.70 0.3100251
883.80 0.3099342
883.90 0.3098434
884.00 0.309749
884.10 0.3096541
884.20 0.3095592
884.30 0.3094643
884.40 0.3093695
884.50 0.3092747
884.60 0.3091799
884.70 0.3090852
884.80 0.3089905
884.90 0.3088958
885.00 0.3088012
885.10 0.3087066
885.20 0.3086121
885.30 0.3085175
885.40 0.308423
885.50 0.3083286
885.60 0.3082342
885.70 0.3081398
885.80 0.3080454
885.90 0.3079511
886.00 0.3078569
886.10 0.3077626
886.20 0.3076684
886.30 0.3075742
886.40 0.3074801
886.50 0.307386
886.60 0.3072919
886.70 0.3071979
886.80 0.3071039
886.90 0.3070099
887.00 0.306916
887.10 0.3068221
887.20 0.3067282
887.30 0.3066344
887.40 0.3065406
887.50 0.3064468
887.60 0.3063531
887.70 0.3062594
887.80 0.3061658
887.90 0.3060721
888.00 0.3059786
888.10 0.305885
888.20 0.3057915
888.30 0.305698
888.40 0.3056065
888.50 0.3055154
888.60 0.3054243
888.70 0.3053332
888.80 0.3052422
888.90 0.3051512
889.00 0.3050602
889.10 0.3049693
889.20 0.3048784
889.30 0.3047875
889.40 0.3046967
889.50 0.3046059
889.60 0.3045151
889.70 0.3044243
889.80 0.3043336
889.90 0.304243
890.00 0.3041523
890.10 0.3040617
890.20 0.3039711
890.30 0.3038806
890.40 0.3037901
890.50 0.3036996
890.60 0.3036092
890.70 0.3035188
890.80 0.3034284
890.90 0.3033381
891.00 0.3032477
891.10 0.3031575
891.20 0.3030672
891.30 0.302977
891.40 0.3028868
891.50 0.3027967
891.60 0.3027066
891.70 0.3026165
891.80 0.3025265
891.90 0.3024364
892.00 0.3023465
892.10 0.3022565
892.20 0.3021666
892.30 0.3020767
892.40 0.3019869
892.50 0.301897
892.60 0.3018073
892.70 0.3017175
892.80 0.3016278
892.90 0.3015381
893.00 0.3014484
893.10 0.3013588
893.20 0.3012692
893.30 0.3011797
893.40 0.3010901
893.50 0.3010007
893.60 0.3009112
893.70 0.3008218
893.80 0.3007324
893.90 0.300643
894.00 0.3005537
894.10 0.3004644
894.20 0.3003751
894.30 0.3002859
894.40 0.3001967
894.50 0.3001075
894.60 0.3000184
894.70 0.2999293
894.80 0.2998402
894.90 0.2997512
895.00 0.2996622
895.10 0.2995732
895.20 0.2994843
895.30 0.2993953
895.40 0.2993065
895.50 0.2992176
895.60 0.2991288
895.70 0.29904
895.80 0.2989513
895.90 0.2988626
896.00 0.2987739
896.10 0.2986852
896.20 0.2985966
896.30 0.298508
896.40 0.2984195
896.50 0.2983309
896.60 0.2982425
896.70 0.298154
896.80 0.2980656
896.90 0.2979772
897.00 0.2978888
897.10 0.2978005
897.20 0.2977121
897.30 0.2976221
897.40 0.2975321
897.50 0.2974421
897.60 0.2973522
897.70 0.2972623
897.80 0.2971725
897.90 0.2970826
898.00 0.2969928
898.10 0.2969031
898.20 0.2968134
898.30 0.2967237
898.40 0.296634
898.50 0.2965444
898.60 0.2964548
898.70 0.2963652
898.80 0.2962757
898.90 0.2961862
899.00 0.2960967
899.10 0.2960073
899.20 0.2959179
899.30 0.2958285
899.40 0.2957392
899.50 0.2956499
899.60 0.2955606
899.70 0.2954713
899.80 0.2953821
899.90 0.295293
900.00 0.2952038
900.10 0.2951147
900.20 0.2950256
900.30 0.2949366
900.40 0.2948476
900.50 0.2947586
900.60 0.2946696
900.70 0.2945807
900.80 0.2944918
900.90 0.294403
901.00 0.2943142
901.10 0.2942254
901.20 0.2941366
901.30 0.2940479
901.40 0.2939592
901.50 0.2938705
901.60 0.2937819
901.70 0.2936933
901.80 0.2936047
901.90 0.2935162
902.00 0.2934277
902.10 0.2933392
902.20 0.2932508
902.30 0.2931624
902.40 0.293074
902.50 0.2929857
902.60 0.2928974
902.70 0.2928091
902.80 0.2927209
902.90 0.2926327
903.00 0.2925445
903.10 0.2924563
903.20 0.2923682
903.30 0.2922801
903.40 0.2921921
903.50 0.2921041
903.60 0.2920161
903.70 0.2919281
903.80 0.2918402
903.90 0.2917523
904.00 0.2916644
904.10 0.2915766
904.20 0.2914888
904.30 0.291401
904.40 0.2913133
904.50 0.2912256
904.60 0.2911379
904.70 0.2910503
904.80 0.2909627
904.90 0.2908751
905.00 0.2907875
905.10 0.2907
905.20 0.2906125
905.30 0.2905251
905.40 0.2904377
905.50 0.2903503
905.60 0.2902629
905.70 0.2901756
905.80 0.2900883
905.90 0.2900011
906.00 0.2899138
906.10 0.2898266
906.20 0.2897395
906.30 0.2896526
906.40 0.2895658
906.50 0.2894789
906.60 0.2893921
906.70 0.2893053
906.80 0.2892186
906.90 0.2891319
907.00 0.2890452
907.10 0.2889585
907.20 0.2888719
907.30 0.2887853
907.40 0.2886987
907.50 0.2886122
907.60 0.2885257
907.70 0.2884392
907.80 0.2883528
907.90 0.2882664
908.00 0.28818
908.10 0.2880937
908.20 0.2880074
908.30 0.2879211
908.40 0.2878348
908.50 0.2877486
908.60 0.2876624
908.70 0.2875762
908.80 0.2874901
908.90 0.287404
909.00 0.287318
909.10 0.2872319
909.20 0.2871459
909.30 0.2870599
909.40 0.286974
909.50 0.2868881
909.60 0.2868022
909.70 0.2867164
909.80 0.2866305
909.90 0.2865448
910.00 0.286459
910.10 0.2863733
910.20 0.2862876
910.30 0.2862019
910.40 0.2861163
910.50 0.2860307
910.60 0.2859451
910.70 0.2858596
910.80 0.2857741
910.90 0.2856886
911.00 0.2856031
911.10 0.2855177
911.20 0.2854323
911.30 0.285347
911.40 0.2852616
911.50 0.2851763
911.60 0.2850911
911.70 0.2850058
911.80 0.2849206
911.90 0.2848354
912.00 0.2847503
912.10 0.2846652
912.20 0.2845801
912.30 0.2844951
912.40 0.28441
912.50 0.284325
912.60 0.2842401
912.70 0.2841551
912.80 0.2840702
912.90 0.2839854
913.00 0.2839005
913.10 0.2838157
913.20 0.2837309
913.30 0.2836462
913.40 0.2835615
913.50 0.2834768
913.60 0.2833921
913.70 0.2833075
913.80 0.2832229
913.90 0.2831383
914.00 0.2830538
914.10 0.2829693
914.20 0.2828848
914.30 0.2828004
914.40 0.282716
914.50 0.2826316
914.60 0.2825472
914.70 0.2824629
914.80 0.2823786
914.90 0.2822943
915.00 0.2822101
915.10 0.2821259
915.20 0.2820417
915.30 0.2819577
915.40 0.2818738
915.50 0.28179
915.60 0.2817061
915.70 0.2816223
915.80 0.2815385
915.90 0.2814548
916.00 0.2813711
916.10 0.2812874
916.20 0.2812037
916.30 0.2811201
916.40 0.2810365
916.50 0.280953
916.60 0.2808694
916.70 0.2807859
916.80 0.2807024
916.90 0.280619
917.00 0.2805356
917.10 0.2804522
917.20 0.2803688
917.30 0.2802855
917.40 0.2802022
917.50 0.2801189
917.60 0.2800357
917.70 0.2799525
917.80 0.2798693
917.90 0.2797862
918.00 0.279703
918.10 0.2796199
918.20 0.2795369
918.30 0.2794539
918.40 0.2793708
918.50 0.2792879
918.60 0.2792049
918.70 0.279122
918.80 0.2790391
918.90 0.2789563
919.00 0.2788735
919.10 0.2787907
919.20 0.2787079
919.30 0.2786252
919.40 0.2785424
919.50 0.2784598
919.60 0.2783771
919.70 0.2782945
919.80 0.2782119
919.90 0.2781328
920.00 0.278054
920.10 0.2779751
920.20 0.2778963
920.30 0.2778176
920.40 0.2777388
920.50 0.2776601
920.60 0.2775814
920.70 0.2775028
920.80 0.2774241
920.90 0.2773455
921.00 0.2772669
921.10 0.2771884
921.20 0.2771099
921.30 0.2770314
921.40 0.2769529
921.50 0.2768745
921.60 0.2767961
921.70 0.2767177
921.80 0.2766393
921.90 0.276561
922.00 0.2764827
922.10 0.2764044
922.20 0.2763262
922.30 0.2762479
922.40 0.2761698
922.50 0.2760916
922.60 0.2760135
922.70 0.2759353
922.80 0.2758573
922.90 0.2757792
923.00 0.2757012
923.10 0.2756232
923.20 0.2755452
923.30 0.2754673
923.40 0.2753893
923.50 0.2753114
923.60 0.2752336
923.70 0.2751557
923.80 0.2750779
923.90 0.2750002
924.00 0.2749224
924.10 0.2748447
924.20 0.274767
924.30 0.2746893
924.40 0.2746104
924.50 0.2745257
924.60 0.2744411
924.70 0.2743565
924.80 0.274272
924.90 0.2741874
925.00 0.2741029
925.10 0.2740185
925.20 0.273934
925.30 0.2738496
925.40 0.2737652
925.50 0.2736809
925.60 0.2735966
925.70 0.2735123
925.80 0.273428
925.90 0.2733438
926.00 0.2732596
926.10 0.2731754
926.20 0.2730913
926.30 0.2730072
926.40 0.2729231
926.50 0.272839
926.60 0.272755
926.70 0.272671
926.80 0.2725871
926.90 0.2725031
927.00 0.2724192
927.10 0.2723354
927.20 0.2722515
927.30 0.2721677
927.40 0.2720839
927.50 0.2720002
927.60 0.2719165
927.70 0.2718328
927.80 0.2717491
927.90 0.2716655
928.00 0.2715819
928.10 0.2714983
928.20 0.2714148
928.30 0.2713313
928.40 0.2712478
928.50 0.2711643
928.60 0.2710809
928.70 0.2709975
928.80 0.2709141
928.90 0.2708308
929.00 0.2707475
929.10 0.2706676
929.20 0.270588
929.30 0.2705083
929.40 0.2704287
929.50 0.2703491
929.60 0.2702695
929.70 0.27019
929.80 0.2701105
929.90 0.270031
930.00 0.2699516
930.10 0.2698721
930.20 0.2697927
930.30 0.2697134
930.40 0.269634
930.50 0.2695547
930.60 0.2694754
930.70 0.2693962
930.80 0.2693169
930.90 0.2692377
931.00 0.2691586
931.10 0.2690794
931.20 0.2690003
931.30 0.2689212
931.40 0.2688421
931.50 0.2687631
931.60 0.2686841
931.70 0.2686051
931.80 0.2685262
931.90 0.2684472
932.00 0.2683684
932.10 0.2682895
932.20 0.2682106
932.30 0.2681318
932.40 0.268053
932.50 0.2679743
932.60 0.2678956
932.70 0.2678168
932.80 0.2677382
932.90 0.2676595
933.00 0.2675809
933.10 0.2675023
933.20 0.2674237
933.30 0.2673452
933.40 0.2672667
933.50 0.2671882
933.60 0.2671098
933.70 0.2670315
933.80 0.2669533
933.90 0.2668751
934.00 0.266797
934.10 0.2667189
934.20 0.2666408
934.30 0.2665627
934.40 0.2664847
934.50 0.2664067
934.60 0.2663287
934.70 0.2662508
934.80 0.2661729
934.90 0.266095
935.00 0.2660171
935.10 0.2659393
935.20 0.2658615
935.30 0.2657837
935.40 0.2657059
935.50 0.2656282
935.60 0.2655505
935.70 0.2654728
935.80 0.2653952
935.90 0.2653176
936.00 0.26524
936.10 0.2651624
936.20 0.2650849
936.30 0.2650074
936.40 0.2649299
936.50 0.2648524
936.60 0.264775
936.70 0.2646976
936.80 0.2646202
936.90 0.2645429
937.00 0.2644655
937.10 0.2643883
937.20 0.264311
937.30 0.2642337
937.40 0.2641565
937.50 0.2640793
937.60 0.2640022
937.70 0.2639251
937.80 0.2638479
937.90 0.2637709
938.00 0.2636938
938.10 0.2636168
938.20 0.2635398
938.30 0.2634628
938.40 0.2633859
938.50 0.263309
938.60 0.2632321
938.70 0.2631552
938.80 0.2630784
938.90 0.2630015
939.00 0.2629248
939.10 0.262848
939.20 0.2627713
939.30 0.2626946
939.40 0.2626179
939.50 0.2625412
939.60 0.2624646
939.70 0.262388
939.80 0.2623114
939.90 0.2622349
940.00 0.2621584
940.10 0.2620819
940.20 0.2620054
940.30 0.261929
940.40 0.2618526
940.50 0.2617762
940.60 0.2616998
940.70 0.2616235
940.80 0.2615472
940.90 0.2614709
941.00 0.2613947
941.10 0.2613184
941.20 0.2612422
941.30 0.2611661
941.40 0.2610899
941.50 0.2610138
941.60 0.2609377
941.70 0.2608616
941.80 0.2607856
941.90 0.2607096
942.00 0.2606336
942.10 0.2605576
942.20 0.2604817
942.30 0.2604058
942.40 0.2603299
942.50 0.2602541
942.60 0.2601782
942.70 0.2601024
942.80 0.2600267
942.90 0.2599509
943.00 0.2598753
943.10 0.2597998
943.20 0.2597243
943.30 0.2596489
943.40 0.2595734
943.50 0.2594981
943.60 0.2594227
943.70 0.2593474
943.80 0.2592721
943.90 0.2591968
944.00 0.2591215
944.10 0.2590463
944.20 0.2589711
944.30 0.2588959
944.40 0.2588207
944.50 0.2587456
944.60 0.2586705
944.70 0.2585954
944.80 0.2585204
944.90 0.2584454
945.00 0.2583704
945.10 0.2582954
945.20 0.2582204
945.30 0.2581455
945.40 0.2580706
945.50 0.2579958
945.60 0.2579209
945.70 0.2578461
945.80 0.2577713
945.90 0.2576966
946.00 0.2576218
946.10 0.2575471
946.20 0.2574724
946.30 0.2573978
946.40 0.2573231
946.50 0.2572485
946.60 0.2571739
946.70 0.2570994
946.80 0.2570248
946.90 0.2569503
947.00 0.2568759
947.10 0.2568014
947.20 0.256727
947.30 0.2566526
947.40 0.2565782
947.50 0.2565038
947.60 0.2564295
947.70 0.2563552
947.80 0.2562809
947.90 0.2562067
948.00 0.2561325
948.10 0.2560583
948.20 0.2559841
948.30 0.2559099
948.40 0.2558358
948.50 0.2557617
948.60 0.2556877
948.70 0.2556136
948.80 0.2555396
948.90 0.2554656
949.00 0.2553916
949.10 0.2553177
949.20 0.2552438
949.30 0.2551699
949.40 0.255096
949.50 0.2550222
949.60 0.2549484
949.70 0.2548746
949.80 0.2548008
949.90 0.2547271
950.00 0.2546534
950.10 0.2545797
950.20 0.254506
950.30 0.2544324
950.40 0.2543588
950.50 0.2542852
950.60 0.2542116
950.70 0.2541381
950.80 0.2540646
950.90 0.2539911
951.00 0.2539176
951.10 0.2538442
951.20 0.2537708
951.30 0.2536974
951.40 0.253624
951.50 0.2535507
951.60 0.2534774
951.70 0.2534041
951.80 0.2533308
951.90 0.2532576
952.00 0.2531844
952.10 0.2531112
952.20 0.2530381
952.30 0.2529649
952.40 0.2528918
952.50 0.2528189
952.60 0.2527461
952.70 0.2526733
952.80 0.2526004
952.90 0.2525277
953.00 0.2524549
953.10 0.2523822
953.20 0.2523095
953.30 0.2522368
953.40 0.2521641
953.50 0.2520915
953.60 0.2520189
953.70 0.2519463
953.80 0.2518737
953.90 0.2518012
954.00 0.2517287
954.10 0.2516562
954.20 0.2515837
954.30 0.2515113
954.40 0.2514389
954.50 0.2513665
954.60 0.2512941
954.70 0.2512218
954.80 0.2511495
954.90 0.2510772
955.00 0.2510049
955.10 0.2509327
955.20 0.2508605
955.30 0.2507883
955.40 0.2507161
955.50 0.250644
955.60 0.2505719
955.70 0.2504998
955.80 0.2504277
955.90 0.2503557
956.00 0.2502837
956.10 0.2502117
956.20 0.2501397
956.30 0.2500678
956.40 0.2499958
956.50 0.249924
956.60 0.2498521
956.70 0.2497802
956.80 0.2497084
956.90 0.2496366
957.00 0.2495649
957.10 0.2494931
957.20 0.2494199
957.30 0.2493449
957.40 0.24927
957.50 0.2491951
957.60 0.2491202
957.70 0.2490454
957.80 0.2489705
957.90 0.2488957
958.00 0.2488209
958.10 0.2487462
958.20 0.2486715
958.30 0.2485968
958.40 0.2485221
958.50 0.2484474
958.60 0.2483728
958.70 0.2482982
958.80 0.2482236
958.90 0.2481491
959.00 0.2480746
959.10 0.2480001
959.20 0.2479256
959.30 0.2478511
959.40 0.2477767
959.50 0.2477023
959.60 0.247628
959.70 0.2475536
959.80 0.2474793
959.90 0.247405
960.00 0.2473308
960.10 0.2472565
960.20 0.2471823
960.30 0.2471081
960.40 0.2470339
960.50 0.2469598
960.60 0.2468857
960.70 0.2468116
960.80 0.2467375
960.90 0.2466635
961.00 0.2465895
961.10 0.2465155
961.20 0.2464416
961.30 0.2463676
961.40 0.2462937
961.50 0.2462198
961.60 0.246146
961.70 0.2460721
961.80 0.2459983
961.90 0.2459245
962.00 0.2458537
962.10 0.2457834
962.20 0.2457131
962.30 0.2456428
962.40 0.2455726
962.50 0.2455024
962.60 0.2454322
962.70 0.245362
962.80 0.2452919
962.90 0.2452218
963.00 0.2451517
963.10 0.2450816
963.20 0.2450116
963.30 0.2449415
963.40 0.2448715
963.50 0.2448016
963.60 0.2447316
963.70 0.2446617
963.80 0.2445918
963.90 0.2445219
964.00 0.244452
964.10 0.2443822
964.20 0.2443124
964.30 0.2442426
964.40 0.2441729
964.50 0.2441031
964.60 0.2440334
964.70 0.2439637
964.80 0.2438941
964.90 0.2438244
965.00 0.2437548
965.10 0.2436852
965.20 0.2436156
965.30 0.2435461
965.40 0.2434766
965.50 0.2434071
965.60 0.2433376
965.70 0.2432681
965.80 0.2431987
965.90 0.2431293
966.00 0.2430599
966.10 0.2429906
966.20 0.2429212
966.30 0.2428519
966.40 0.2427826
966.50 0.2427134
966.60 0.2426441
966.70 0.2425749
966.80 0.2425057
966.90 0.2424365
967.00 0.2423674
967.10 0.2422983
967.20 0.2422292
967.30 0.2421601
967.40 0.242091
967.50 0.242022
967.60 0.241953
967.70 0.241884
967.80 0.241815
967.90 0.2417461
968.00 0.2416772
968.10 0.2416083
968.20 0.2415394
968.30 0.2414706
968.40 0.2414018
968.50 0.241333
968.60 0.2412642
968.70 0.2411954
968.80 0.2411267
968.90 0.241058
969.00 0.2409893
969.10 0.2409207
969.20 0.240852
969.30 0.2407834
969.40 0.2407148
969.50 0.2406463
969.60 0.2405777
969.70 0.2405092
969.80 0.2404407
969.90 0.2403722
970.00 0.2403038
970.10 0.2402354
970.20 0.240167
970.30 0.2400986
970.40 0.2400302
970.50 0.2399619
970.60 0.2398936
970.70 0.2398253
970.80 0.239757
970.90 0.2396888
971.00 0.2396206
971.10 0.2395524
971.20 0.2394842
971.30 0.239416
971.40 0.2393479
971.50 0.2392798
971.60 0.2392108
971.70 0.2391414
971.80 0.239072
971.90 0.2390026
972.00 0.2389333
972.10 0.2388639
972.20 0.2387946
972.30 0.2387253
972.40 0.2386561
972.50 0.2385868
972.60 0.2385176
972.70 0.2384484
972.80 0.2383793
972.90 0.2383101
973.00 0.238241
973.10 0.2381719
973.20 0.2381028
973.30 0.2380338
973.40 0.2379648
973.50 0.2378958
973.60 0.2378268
973.70 0.2377578
973.80 0.2376889
973.90 0.23762
974.00 0.2375511
974.10 0.2374822
974.20 0.2374134
974.30 0.2373446
974.40 0.2372758
974.50 0.237207
974.60 0.2371383
974.70 0.2370695
974.80 0.2370008
974.90 0.2369322
975.00 0.2368635
975.10 0.2367949
975.20 0.2367263
975.30 0.2366577
975.40 0.2365891
975.50 0.2365206
975.60 0.2364521
975.70 0.2363836
975.80 0.2363151
975.90 0.2362466
976.00 0.2361782
976.10 0.2361098
976.20 0.2360414
976.30 0.2359731
976.40 0.2359048
976.50 0.2358365
976.60 0.2357682
976.70 0.2356999
976.80 0.2356317
976.90 0.2355634
977.00 0.2354953
977.10 0.2354271
977.20 0.2353589
977.30 0.2352908
977.40 0.2352227
977.50 0.2351546
977.60 0.2350866
977.70 0.2350185
977.80 0.2349505
977.90 0.2348825
978.00 0.2348146
978.10 0.2347466
978.20 0.2346787
978.30 0.2346108
978.40 0.234543
978.50 0.2344751
978.60 0.2344073
978.70 0.2343395
978.80 0.2342717
978.90 0.2342039
979.00 0.2341362
979.10 0.2340685
979.20 0.2340008
979.30 0.2339331
979.40 0.2338655
979.50 0.2337979
979.60 0.2337303
979.70 0.2336627
979.80 0.2335951
979.90 0.2335276
980.00 0.2334601
980.10 0.2333926
980.20 0.2333252
980.30 0.2332577
980.40 0.2331903
980.50 0.2331229
980.60 0.2330555
980.70 0.2329882
980.80 0.2329209
980.90 0.2328535
981.00 0.2327863
981.10 0.232719
981.20 0.2326518
981.30 0.2325847
981.40 0.2325177
981.50 0.2324507
981.60 0.2323837
981.70 0.2323168
981.80 0.2322499
981.90 0.232183
982.00 0.2321162
982.10 0.2320493
982.20 0.2319825
982.30 0.2319157
982.40 0.231849
982.50 0.2317822
982.60 0.2317155
982.70 0.2316488
982.80 0.2315821
982.90 0.2315155
983.00 0.2314488
983.10 0.2313822
983.20 0.2313156
983.30 0.231249
983.40 0.2311825
983.50 0.231116
983.60 0.2310495
983.70 0.230983
983.80 0.2309165
983.90 0.2308501
984.00 0.2307837
984.10 0.2307173
984.20 0.2306509
984.30 0.2305846
984.40 0.2305183
984.50 0.230452
984.60 0.2303857
984.70 0.2303194
984.80 0.2302532
984.90 0.230187
985.00 0.2301208
985.10 0.2300546
985.20 0.2299885
985.30 0.2299223
985.40 0.2298562
985.50 0.2297902
985.60 0.2297241
985.70 0.2296581
985.80 0.2295921
985.90 0.2295261
986.00 0.2294601
986.10 0.2293941
986.20 0.2293282
986.30 0.2292623
986.40 0.2291964
986.50 0.2291306
986.60 0.2290647
986.70 0.2289989
986.80 0.2289331
986.90 0.2288674
987.00 0.2288016
987.10 0.2287359
987.20 0.2286702
987.30 0.2286045
987.40 0.2285388
987.50 0.2284732
987.60 0.2284076
987.70 0.228342
987.80 0.2282764
987.90 0.2282109
988.00 0.2281453
988.10 0.2280798
988.20 0.2280143
988.30 0.2279489
988.40 0.2278834
988.50 0.227818
988.60 0.2277526
988.70 0.2276872
988.80 0.2276219
988.90 0.2275565
989.00 0.2274912
989.10 0.2274259
989.20 0.2273607
989.30 0.2272954
989.40 0.2272302
989.50 0.227165
989.60 0.2270998
989.70 0.2270346
989.80 0.2269695
989.90 0.2269044
990.00 0.2268393
990.10 0.2267742
990.20 0.2267092
990.30 0.2266441
990.40 0.2265791
990.50 0.2265141
990.60 0.2264492
990.70 0.2263842
990.80 0.2263193
990.90 0.2262544
991.00 0.2261895
991.10 0.2261242
991.20 0.2260581
991.30 0.225992
991.40 0.2259259
991.50 0.2258599
991.60 0.2257939
991.70 0.2257279
991.80 0.2256619
991.90 0.2255959
992.00 0.22553
992.10 0.2254641
992.20 0.2253982
992.30 0.2253323
992.40 0.2252665
992.50 0.2252006
992.60 0.2251348
992.70 0.2250691
992.80 0.2250033
992.90 0.2249376
993.00 0.2248718
993.10 0.2248061
993.20 0.2247405
993.30 0.2246748
993.40 0.2246092
993.50 0.2245436
993.60 0.224478
993.70 0.2244124
993.80 0.2243469
993.90 0.2242814
994.00 0.2242159
994.10 0.2241504
994.20 0.224085
994.30 0.2240195
994.40 0.2239541
994.50 0.2238887
994.60 0.2238234
994.70 0.223758
994.80 0.2236927
994.90 0.2236274
995.00 0.2235621
995.10 0.2234969
995.20 0.2234316
995.30 0.2233664
995.40 0.2233012
995.50 0.2232361
995.60 0.2231709
995.70 0.2231058
995.80 0.2230407
995.90 0.2229756
996.00 0.2229105
996.10 0.2228479
996.20 0.2227857
996.30 0.2227236
996.40 0.2226616
996.50 0.2225995
996.60 0.2225375
996.70 0.2224755
996.80 0.2224135
996.90 0.2223515
997.00 0.2222895
997.10 0.2222276
997.20 0.2221657
997.30 0.2221038
997.40 0.2220419
997.50 0.2219801
997.60 0.2219182
997.70 0.2218564
997.80 0.2217946
997.90 0.2217329
998.00 0.2216711
998.10 0.2216094
998.20 0.2215477
998.30 0.221486
998.40 0.2214243
998.50 0.2213626
998.60 0.221301
998.70 0.2212394
998.80 0.2211778
998.90 0.2211162
999.00 0.2210547
999.10 0.2209932
999.20 0.2209317
999.30 0.2208702
999.40 0.2208087
999.50 0.2207473
999.60 0.2206858
999.70 0.2206244
999.80 0.220563
999.90 0.2205017
1000.00 0.2204403
1000.10 0.220379
1000.20 0.2203177
1000.30 0.2202564
1000.40 0.2201951
1000.50 0.2201339
1000.60 0.2200727
1000.70 0.2200115
1000.80 0.2199503
1000.90 0.2198891
1001.00 0.2198273
1001.10 0.2197635
1001.20 0.2196997
1001.30 0.2196359
1001.40 0.2195722
1001.50 0.2195085
1001.60 0.2194448
1001.70 0.2193811
1001.80 0.2193175
1001.90 0.2192538
1002.00 0.2191902
1002.10 0.2191266
1002.20 0.2190631
1002.30 0.2189995
1002.40 0.218936
1002.50 0.2188725
1002.60 0.218809
1002.70 0.2187455
1002.80 0.2186821
1002.90 0.2186187
1003.00 0.2185553
1003.10 0.2184919
1003.20 0.2184286
1003.30 0.2183652
1003.40 0.2183019
1003.50 0.2182386
1003.60 0.2181753
1003.70 0.2181121
1003.80 0.2180489
1003.90 0.2179856
1004.00 0.2179225
1004.10 0.2178593
1004.20 0.2177961
1004.30 0.217733
1004.40 0.2176699
1004.50 0.2176068
1004.60 0.2175437
1004.70 0.2174807
1004.80 0.2174177
1004.90 0.2173547
1005.00 0.2172917
1005.10 0.2172287
1005.20 0.2171658
1005.30 0.2171029
1005.40 0.21704
1005.50 0.2169771
1005.60 0.2169142
1005.70 0.2168514
1005.80 0.2167886
1005.90 0.2167258
1006.00 0.2166636
1006.10 0.2166037
1006.20 0.2165437
1006.30 0.2164838
1006.40 0.2164239
1006.50 0.2163641
1006.60 0.2163042
1006.70 0.2162444
1006.80 0.2161846
1006.90 0.2161248
1007.00 0.216065
1007.10 0.2160053
1007.20 0.2159456
1007.30 0.2158858
1007.40 0.2158262
1007.50 0.2157665
1007.60 0.2157068
1007.70 0.2156472
1007.80 0.2155876
1007.90 0.215528
1008.00 0.2154684
1008.10 0.2154089
1008.20 0.2153493
1008.30 0.2152898
1008.40 0.2152303
1008.50 0.2151708
1008.60 0.2151114
1008.70 0.2150519
1008.80 0.2149925
1008.90 0.2149331
1009.00 0.2148737
1009.10 0.2148144
1009.20 0.214755
1009.30 0.2146957
1009.40 0.2146364
1009.50 0.2145771
1009.60 0.2145178
1009.70 0.2144586
1009.80 0.2143994
1009.90 0.2143402
1010.00 0.214281
1010.10 0.2142218
1010.20 0.2141627
1010.30 0.2141035
1010.40 0.2140444
1010.50 0.2139853
1010.60 0.2139262
1010.70 0.2138672
1010.80 0.2138082
1010.90 0.2137491
1011.00 0.2136897
1011.10 0.2136281
1011.20 0.2135666
1011.30 0.2135051
1011.40 0.2134436
1011.50 0.2133821
1011.60 0.2133206
1011.70 0.2132592
1011.80 0.2131977
1011.90 0.2131363
1012.00 0.213075
1012.10 0.2130136
1012.20 0.2129522
1012.30 0.2128909
1012.40 0.2128296
1012.50 0.2127683
1012.60 0.2127071
1012.70 0.2126458
1012.80 0.2125846
1012.90 0.2125234
1013.00 0.2124622
1013.10 0.212401
1013.20 0.2123399
1013.30 0.2122788
1013.40 0.2122177
1013.50 0.2121566
1013.60 0.2120955
1013.70 0.2120345
1013.80 0.2119735
1013.90 0.2119125
1014.00 0.2118515
1014.10 0.2117905
1014.20 0.2117296
1014.30 0.2116686
1014.40 0.2116077
1014.50 0.2115468
1014.60 0.211486
1014.70 0.2114251
1014.80 0.2113643
1014.90 0.2113035
1015.00 0.2112427
1015.10 0.211182
1015.20 0.2111212
1015.30 0.2110605
1015.40 0.2109998
1015.50 0.2109391
1015.60 0.2108784
1015.70 0.2108178
1015.80 0.2107572
1015.90 0.2106965
1016.00 0.210636
1016.10 0.2105771
1016.20 0.2105193
1016.30 0.2104615
1016.40 0.2104037
1016.50 0.2103459
1016.60 0.2102882
1016.70 0.2102305
1016.80 0.2101727
1016.90 0.2101151
1017.00 0.2100574
1017.10 0.2099997
1017.20 0.2099421
1017.30 0.2098845
1017.40 0.2098269
1017.50 0.2097693
1017.60 0.2097118
1017.70 0.2096542
1017.80 0.2095967
1017.90 0.2095392
1018.00 0.2094817
1018.10 0.2094243
1018.20 0.2093668
1018.30 0.2093094
1018.40 0.209252
1018.50 0.2091946
1018.60 0.2091372
1018.70 0.2090799
1018.80 0.2090225
1018.90 0.2089652
1019.00 0.2089079
1019.10 0.2088506
1019.20 0.2087934
1019.30 0.2087361
1019.40 0.2086789
1019.50 0.2086217
1019.60 0.2085645
1019.70 0.2085073
1019.80 0.2084502
1019.90 0.208393
1020.00 0.2083359
1020.10 0.2082788
1020.20 0.2082218
1020.30 0.2081647
1020.40 0.2081077
1020.50 0.2080506
1020.60 0.2079936
1020.70 0.2079366
1020.80 0.2078797
1020.90 0.2078227
1021.00 0.2077658
1021.10 0.2077087
1021.20 0.2076493
1021.30 0.2075899
1021.40 0.2075305
1021.50 0.2074712
1021.60 0.2074119
1021.70 0.2073526
1021.80 0.2072933
1021.90 0.207234
1022.00 0.2071747
1022.10 0.2071155
1022.20 0.2070563
1022.30 0.2069971
1022.40 0.2069379
1022.50 0.2068788
1022.60 0.2068196
1022.70 0.2067605
1022.80 0.2067014
1022.90 0.2066423
1023.00 0.2065833
1023.10 0.2065242
1023.20 0.2064652
1023.30 0.2064062
1023.40 0.2063472
1023.50 0.2062882
1023.60 0.2062293
1023.70 0.2061704
1023.80 0.2061114
1023.90 0.2060526
1024.00 0.2059937
1024.10 0.2059348
1024.20 0.205876
1024.30 0.2058172
1024.40 0.2057584
1024.50 0.2056996
1024.60 0.2056409
1024.70 0.2055821
1024.80 0.2055234
1024.90 0.2054647
1025.00 0.205406
1025.10 0.2053474
1025.20 0.2052887
1025.30 0.2052301
1025.40 0.2051715
1025.50 0.2051129
1025.60 0.2050543
1025.70 0.2049958
1025.80 0.2049373
1025.90 0.2048788
1026.00 0.2048203
1026.10 0.2047618
1026.20 0.2047033
1026.30 0.2046449
1026.40 0.2045865
1026.50 0.2045281
1026.60 0.2044697
1026.70 0.2044113
1026.80 0.204353
1026.90 0.2042947
1027.00 0.2042364
1027.10 0.2041781
1027.20 0.2041198
1027.30 0.2040616
1027.40 0.2040033
1027.50 0.2039451
1027.60 0.2038869
1027.70 0.2038288
1027.80 0.2037706
1027.90 0.2037125
1028.00 0.2036543
1028.10 0.2035962
1028.20 0.2035382
1028.30 0.2034801
1028.40 0.2034221
1028.50 0.203364
1028.60 0.203306
1028.70 0.203248
1028.80 0.2031901
1028.90 0.2031321
1029.00 0.2030742
1029.10 0.2030163
1029.20 0.2029584
1029.30 0.2029005
1029.40 0.2028427
1029.50 0.2027848
1029.60 0.202727
1029.70 0.2026692
1029.80 0.2026114
1029.90 0.2025537
1030.00 0.2024959
1030.10 0.2024382
1030.20 0.2023805
1030.30 0.2023228
1030.40 0.2022651
1030.50 0.2022075
1030.60 0.2021498
1030.70 0.2020922
1030.80 0.2020346
1030.90 0.2019771
1031.00 0.2019195
1031.10 0.201862
1031.20 0.2018044
1031.30 0.2017469
1031.40 0.2016921
1031.50 0.2016374
1031.60 0.2015828
1031.70 0.2015281
1031.80 0.2014735
1031.90 0.2014189
1032.00 0.2013643
1032.10 0.2013097
1032.20 0.2012551
1032.30 0.2012006
1032.40 0.2011461
1032.50 0.2010915
1032.60 0.2010371
1032.70 0.2009826
1032.80 0.2009281
1032.90 0.2008737
1033.00 0.2008192
1033.10 0.2007648
1033.20 0.2007105
1033.30 0.2006561
1033.40 0.2006017
1033.50 0.2005474
1033.60 0.2004931
1033.70 0.2004388
1033.80 0.2003845
1033.90 0.2003302
1034.00 0.200276
1034.10 0.2002217
1034.20 0.2001675
1034.30 0.2001133
1034.40 0.2000591
1034.50 0.200005
1034.60 0.1999508
1034.70 0.1998967
1034.80 0.1998426
1034.90 0.1997885
1035.00 0.1997344
1035.10 0.1996803
1035.20 0.1996263
1035.30 0.1995723
1035.40 0.1995182
1035.50 0.1994643
1035.60 0.1994103
1035.70 0.1993563
1035.80 0.1993024
1035.90 0.1992484
1036.00 0.1991945
1036.10 0.1991406
1036.20 0.1990868
1036.30 0.1990329
1036.40 0.1989791
1036.50 0.1989243
1036.60 0.1988679
1036.70 0.1988115
1036.80 0.1987552
1036.90 0.1986988
1037.00 0.1986425
1037.10 0.1985862
1037.20 0.19853
1037.30 0.1984737
1037.40 0.1984175
1037.50 0.1983613
1037.60 0.1983051
1037.70 0.1982489
1037.80 0.1981927
1037.90 0.1981366
1038.00 0.1980804
1038.10 0.1980243
1038.20 0.1979682
1038.30 0.1979122
1038.40 0.1978561
1038.50 0.1978001
1038.60 0.1977441
1038.70 0.1976881
1038.80 0.1976321
1038.90 0.1975761
1039.00 0.1975202
1039.10 0.1974642
1039.20 0.1974083
1039.30 0.1973524
1039.40 0.1972965
1039.50 0.1972407
1039.60 0.1971848
1039.70 0.197129
1039.80 0.1970732
1039.90 0.1970174
1040.00 0.1969616
1040.10 0.1969059
1040.20 0.1968502
1040.30 0.1967944
1040.40 0.1967387
1040.50 0.1966831
1040.60 0.1966274
1040.70 0.1965718
1040.80 0.1965161
1040.90 0.1964605
1041.00 0.1964049
1041.10 0.1963493
1041.20 0.1962938
1041.30 0.1962383
1041.40 0.1961827
1041.50 0.1961272
1041.60 0.1960717
1041.70 0.1960164
1041.80 0.1959611
1041.90 0.1959059
1042.00 0.1958507
1042.10 0.1957954
1042.20 0.1957402
1042.30 0.195685
1042.40 0.1956299
1042.50 0.1955747
1042.60 0.1955196
1042.70 0.1954645
1042.80 0.1954094
1042.90 0.1953543
1043.00 0.1952992
1043.10 0.1952442
1043.20 0.1951892
1043.30 0.1951342
1043.40 0.1950792
1043.50 0.1950242
1043.60 0.1949692
1043.70 0.1949143
1043.80 0.1948594
1043.90 0.1948045
1044.00 0.1947496
1044.10 0.1946947
1044.20 0.1946399
1044.30 0.194585
1044.40 0.1945302
1044.50 0.1944754
1044.60 0.1944206
1044.70 0.1943659
1044.80 0.1943111
1044.90 0.1942564
1045.00 0.1942017
1045.10 0.194147
1045.20 0.1940923
1045.30 0.1940376
1045.40 0.193983
1045.50 0.1939284
1045.60 0.1938738
1045.70 0.1938192
1045.80 0.1937646
1045.90 0.19371
1046.00 0.1936555
1046.10 0.193601
1046.20 0.1935465
1046.30 0.193492
1046.40 0.1934375
1046.50 0.1933831
1046.60 0.1933286
1046.70 0.1932742
1046.80 0.1932198
1046.90 0.1931654
1047.00 0.193111
1047.10 0.1930567
1047.20 0.1930024
1047.30 0.192948
1047.40 0.1928938
1047.50 0.1928395
1047.60 0.1927852
1047.70 0.192731
1047.80 0.1926767
1047.90 0.1926225
1048.00 0.1925683
1048.10 0.1925141
1048.20 0.19246
1048.30 0.1924058
1048.40 0.1923517
1048.50 0.1922976
1048.60 0.1922435
1048.70 0.1921894
1048.80 0.1921354
1048.90 0.1920813
1049.00 0.1920273
1049.10 0.1919733
1049.20 0.1919193
1049.30 0.1918654
1049.40 0.1918114
1049.50 0.1917575
1049.60 0.1917035
1049.70 0.1916496
1049.80 0.1915958
1049.90 0.1915419
1050.00 0.191488
1050.10 0.1914342
1050.20 0.1913804
1050.30 0.1913266
1050.40 0.1912728
1050.50 0.191219
1050.60 0.1911653
1050.70 0.1911115
1050.80 0.1910578
1050.90 0.1910041
1051.00 0.1909504
1051.10 0.1908968
1051.20 0.1908431
1051.30 0.1907895
1051.40 0.1907359
1051.50 0.1906823
1051.60 0.1906287
1051.70 0.1905751
1051.80 0.1905216
1051.90 0.1904681
1052.00 0.1904146
1052.10 0.190362
1052.20 0.1903099
1052.30 0.1902578
1052.40 0.1902058
1052.50 0.1901538
1052.60 0.1901017
1052.70 0.1900497
1052.80 0.1899978
1052.90 0.1899458
1053.00 0.1898938
1053.10 0.1898419
1053.20 0.18979
1053.30 0.1897381
1053.40 0.1896862
1053.50 0.1896343
1053.60 0.1895825
1053.70 0.1895306
1053.80 0.1894788
1053.90 0.189427
1054.00 0.1893752
1054.10 0.1893234
1054.20 0.1892717
1054.30 0.1892199
1054.40 0.1891682
1054.50 0.1891165
1054.60 0.1890648
1054.70 0.1890131
1054.80 0.1889615
1054.90 0.1889098
1055.00 0.1888582
1055.10 0.1888066
1055.20 0.188755
1055.30 0.1887034
1055.40 0.1886518
1055.50 0.1886003
1055.60 0.1885488
1055.70 0.1884972
1055.80 0.1884457
1055.90 0.1883943
1056.00 0.1883428
1056.10 0.1882913
1056.20 0.1882399
1056.30 0.1881885
1056.40 0.1881371
1056.50 0.1880857
1056.60 0.1880343
1056.70 0.187983
1056.80 0.1879316
1056.90 0.1878803
1057.00 0.187829
1057.10 0.1877777
1057.20 0.1877265
1057.30 0.1876752
1057.40 0.187624
1057.50 0.1875727
1057.60 0.1875215
1057.70 0.1874703
1057.80 0.1874192
1057.90 0.187368
1058.00 0.1873168
1058.10 0.1872657
1058.20 0.1872146
1058.30 0.1871635
1058.40 0.1871124
1058.50 0.1870614
1058.60 0.1870103
1058.70 0.1869593
1058.80 0.1869083
1058.90 0.1868573
1059.00 0.1868063
1059.10 0.1867553
1059.20 0.1867043
1059.30 0.1866534
1059.40 0.1866025
1059.50 0.1865516
1059.60 0.1865007
1059.70 0.1864498
1059.80 0.186399
1059.90 0.1863481
1060.00 0.1862973
1060.10 0.1862465
1060.20 0.1861957
1060.30 0.1861449
1060.40 0.1860941
1060.50 0.1860434
1060.60 0.1859927
1060.70 0.1859419
1060.80 0.1858912
1060.90 0.1858406
1061.00 0.1857899
1061.10 0.1857392
1061.20 0.1856886
1061.30 0.185638
1061.40 0.1855874
1061.50 0.1855368
1061.60 0.1854862
1061.70 0.1854357
1061.80 0.1853851
1061.90 0.1853346
1062.00 0.1852841
1062.10 0.1852336
1062.20 0.1851831
1062.30 0.1851326
1062.40 0.1850822
1062.50 0.1850318
1062.60 0.1849809
1062.70 0.1849294
1062.80 0.184878
1062.90 0.1848266
1063.00 0.1847752
1063.10 0.1847239
1063.20 0.1846725
1063.30 0.1846212
1063.40 0.1845698
1063.50 0.1845185
1063.60 0.1844673
1063.70 0.184416
1063.80 0.1843647
1063.90 0.1843135
1064.00 0.1842623
1064.10 0.184211
1064.20 0.1841599
1064.30 0.1841087
1064.40 0.1840575
1064.50 0.1840064
1064.60 0.1839552
1064.70 0.1839041
1064.80 0.183853
1064.90 0.1838019
1065.00 0.1837509
1065.10 0.1836998
1065.20 0.1836488
1065.30 0.1835978
1065.40 0.1835468
1065.50 0.1834958
1065.60 0.1834448
1065.70 0.1833939
1065.80 0.1833429
1065.90 0.183292
1066.00 0.1832411
1066.10 0.1831902
1066.20 0.1831393
1066.30 0.1830885
1066.40 0.1830376
1066.50 0.1829868
1066.60 0.182936
1066.70 0.1828852
1066.80 0.1828344
1066.90 0.1827837
1067.00 0.1827329
1067.10 0.1826822
1067.20 0.1826315
1067.30 0.1825808
1067.40 0.1825301
1067.50 0.1824794
1067.60 0.1824287
1067.70 0.1823781
1067.80 0.1823275
1067.90 0.1822769
1068.00 0.1822263
1068.10 0.1821757
1068.20 0.1821252
1068.30 0.1820746
1068.40 0.1820241
1068.50 0.1819736
1068.60 0.1819231
1068.70 0.1818726
1068.80 0.1818221
1068.90 0.1817717
1069.00 0.1817212
1069.10 0.1816708
1069.20 0.1816204
1069.30 0.18157
1069.40 0.1815196
1069.50 0.1814693
1069.60 0.1814189
1069.70 0.1813686
1069.80 0.1813183
1069.90 0.181268
1070.00 0.1812177
1070.10 0.1811675
1070.20 0.1811172
1070.30 0.181067
1070.40 0.1810168
1070.50 0.1809666
1070.60 0.1809164
1070.70 0.1808662
1070.80 0.180816
1070.90 0.1807659
1071.00 0.1807158
1071.10 0.1806657
1071.20 0.1806156
1071.30 0.1805655
1071.40 0.1805154
1071.50 0.1804654
1071.60 0.1804154
1071.70 0.1803654
1071.80 0.1803154
1071.90 0.1802654
1072.00 0.1802154
1072.10 0.1801655
1072.20 0.1801155
1072.30 0.1800656
1072.40 0.1800157
1072.50 0.1799658
1072.60 0.1799159
1072.70 0.1798661
1072.80 0.1798162
1072.90 0.1797664
1073.00 0.1797166
1073.10 0.1796668
1073.20 0.179617
1073.30 0.1795674
1073.40 0.1795178
1073.50 0.1794683
1073.60 0.1794187
1073.70 0.1793692
1073.80 0.1793196
1073.90 0.1792701
1074.00 0.1792206
1074.10 0.1791712
1074.20 0.1791217
1074.30 0.1790722
1074.40 0.1790228
1074.50 0.1789734
1074.60 0.178924
1074.70 0.1788746
1074.80 0.1788252
1074.90 0.1787759
1075.00 0.1787265
1075.10 0.1786772
1075.20 0.1786279
1075.30 0.1785786
1075.40 0.1785293
1075.50 0.17848
1075.60 0.1784308
1075.70 0.1783816
1075.80 0.1783323
1075.90 0.1782831
1076.00 0.1782339
1076.10 0.1781848
1076.20 0.1781356
1076.30 0.1780865
1076.40 0.1780373
1076.50 0.1779882
1076.60 0.1779391
1076.70 0.17789
1076.80 0.177841
1076.90 0.1777919
1077.00 0.1777429
1077.10 0.1776938
1077.20 0.1776448
1077.30 0.1775958
1077.40 0.1775469
1077.50 0.1774979
1077.60 0.177449
1077.70 0.1774
1077.80 0.1773511
1077.90 0.1773022
1078.00 0.1772533
1078.10 0.1772044
1078.20 0.1771556
1078.30 0.1771067
1078.40 0.1770579
1078.50 0.1770091
1078.60 0.1769616
1078.70 0.1769151
1078.80 0.1768686
1078.90 0.1768221
1079.00 0.1767757
1079.10 0.1767292
1079.20 0.1766828
1079.30 0.1766364
1079.40 0.17659
1079.50 0.1765436
1079.60 0.1764972
1079.70 0.1764508
1079.80 0.1764045
1079.90 0.1763582
1080.00 0.1763119
1080.10 0.1762656
1080.20 0.1762193
1080.30 0.176173
1080.40 0.1761267
1080.50 0.1760805
1080.60 0.1760343
1080.70 0.175988
1080.80 0.1759418
1080.90 0.1758956
1081.00 0.1758495
1081.10 0.1758033
1081.20 0.1757572
1081.30 0.175711
1081.40 0.1756649
1081.50 0.1756188
1081.60 0.1755727
1081.70 0.1755266
1081.80 0.1754806
1081.90 0.1754345
1082.00 0.1753885
1082.10 0.1753425
1082.20 0.1752965
1082.30 0.1752505
1082.40 0.1752045
1082.50 0.1751585
1082.60 0.1751126
1082.70 0.1750666
1082.80 0.1750207
1082.90 0.1749748
1083.00 0.1749289
1083.10 0.174883
1083.20 0.1748372
1083.30 0.1747913
1083.40 0.1747455
1083.50 0.1746997
1083.60 0.1746538
1083.70 0.1746081
1083.80 0.1745623
1083.90 0.1745165
1084.00 0.1744689
1084.10 0.174421
1084.20 0.1743732
1084.30 0.1743254
1084.40 0.1742776
1084.50 0.1742298
1084.60 0.174182
1084.70 0.1741343
1084.80 0.1740865
1084.90 0.1740388
1085.00 0.1739911
1085.10 0.1739434
1085.20 0.1738957
1085.30 0.1738481
1085.40 0.1738004
1085.50 0.1737528
1085.60 0.1737052
1085.70 0.1736575
1085.80 0.17361
1085.90 0.1735624
1086.00 0.1735148
1086.10 0.1734673
1086.20 0.1734197
1086.30 0.1733722
1086.40 0.1733247
1086.50 0.1732772
1086.60 0.1732297
1086.70 0.1731823
1086.80 0.1731348
1086.90 0.1730874
1087.00 0.17304
1087.10 0.1729926
1087.20 0.1729452
1087.30 0.1728978
1087.40 0.1728504
1087.50 0.1728031
1087.60 0.1727558
1087.70 0.1727084
1087.80 0.1726611
1087.90 0.1726138
1088.00 0.1725666
1088.10 0.1725193
1088.20 0.1724721
1088.30 0.1724248
1088.40 0.1723776
1088.50 0.1723304
1088.60 0.1722832
1088.70 0.1722361
1088.80 0.1721889
1088.90 0.1721418
1089.00 0.1720946
1089.10 0.1720475
1089.20 0.1720004
1089.30 0.1719533
1089.40 0.1719062
1089.50 0.1718592
1089.60 0.1718121
1089.70 0.1717651
1089.80 0.1717181
1089.90 0.1716711
1090.00 0.1716241
1090.10 0.1715771
1090.20 0.1715302
1090.30 0.1714832
1090.40 0.1714363
1090.50 0.1713894
1090.60 0.1713425
1090.70 0.1712956
1090.80 0.1712487
1090.90 0.1712018
1091.00 0.171155
1091.10 0.1711082
1091.20 0.1710614
1091.30 0.1710146
1091.40 0.1709678
1091.50 0.170921
1091.60 0.1708742
1091.70 0.1708275
1091.80 0.1707808
1091.90 0.170734
1092.00 0.1706873
1092.10 0.1706406
1092.20 0.170594
1092.30 0.1705473
1092.40 0.1705007
1092.50 0.170454
1092.60 0.1704074
1092.70 0.1703608
1092.80 0.1703142
1092.90 0.1702676
1093.00 0.1702211
1093.10 0.1701745
1093.20 0.170128
1093.30 0.1700815
1093.40 0.170035
1093.50 0.1699885
1093.60 0.169942
1093.70 0.1698956
1093.80 0.1698491
1093.90 0.1698027
1094.00 0.1697563
1094.10 0.1697099
1094.20 0.1696635
1094.30 0.1696171
1094.40 0.1695707
1094.50 0.1695244
1094.60 0.169478
1094.70 0.1694317
1094.80 0.1693855
1094.90 0.1693394
1095.00 0.1692932
1095.10 0.1692471
1095.20 0.169201
1095.30 0.1691549
1095.40 0.1691089
1095.50 0.1690628
1095.60 0.1690168
1095.70 0.1689708
1095.80 0.1689247
1095.90 0.1688788
1096.00 0.1688328
1096.10 0.1687868
1096.20 0.1687408
1096.30 0.1686949
1096.40 0.168649
1096.50 0.1686031
1096.60 0.1685572
1096.70 0.1685113
1096.80 0.1684654
1096.90 0.1684195
1097.00 0.1683737
1097.10 0.1683279
1097.20 0.1682821
1097.30 0.1682362
1097.40 0.1681905
1097.50 0.1681447
1097.60 0.1680989
1097.70 0.1680532
1097.80 0.1680074
1097.90 0.1679617
1098.00 0.167916
1098.10 0.1678703
1098.20 0.1678247
1098.30 0.167779
1098.40 0.1677333
1098.50 0.1676877
1098.60 0.1676421
1098.70 0.1675965
1098.80 0.1675509
1098.90 0.1675053
1099.00 0.1674597
1099.10 0.1674142
1099.20 0.1673686
1099.30 0.1673231
1099.40 0.1672776
1099.50 0.1672321
1099.60 0.1671866
1099.70 0.1671411
1099.80 0.1670957
1099.90 0.1670502
1100.00 0.1670048
1100.10 0.1669594
1100.20 0.166914
1100.30 0.1668686
1100.40 0.1668232
1100.50 0.1667779
1100.60 0.1667325
1100.70 0.1666872
1100.80 0.1666419
1100.90 0.1665966
1101.00 0.1665513
1101.10 0.166506
1101.20 0.1664607
1101.30 0.1664155
1101.40 0.1663703
1101.50 0.166325
1101.60 0.1662798
1101.70 0.1662346
1101.80 0.1661894
1101.90 0.1661443
1102.00 0.1660991
1102.10 0.166054
1102.20 0.1660088
1102.30 0.1659637
1102.40 0.1659186
1102.50 0.1658735
1102.60 0.1658285
1102.70 0.1657834
1102.80 0.1657384
1102.90 0.1656933
1103.00 0.1656483
1103.10 0.1656033
1103.20 0.1655583
1103.30 0.1655133
1103.40 0.1654684
1103.50 0.1654234
1103.60 0.1653785
1103.70 0.1653336
1103.80 0.1652887
1103.90 0.1652438
1104.00 0.1651989
1104.10 0.165154
1104.20 0.1651092
1104.30 0.1650643
1104.40 0.1650195
1104.50 0.1649747
1104.60 0.1649299
1104.70 0.1648851
1104.80 0.1648403
1104.90 0.1647955
1105.00 0.1647508
1105.10 0.1647061
1105.20 0.1646613
1105.30 0.1646166
1105.40 0.1645719
1105.50 0.1645273
1105.60 0.1644826
1105.70 0.1644379
1105.80 0.1643934
1105.90 0.164349
1106.00 0.1643045
1106.10 0.1642601
1106.20 0.1642156
1106.30 0.1641712
1106.40 0.1641268
1106.50 0.1640824
1106.60 0.164038
1106.70 0.1639936
1106.80 0.1639493
1106.90 0.1639049
1107.00 0.1638606
1107.10 0.1638163
1107.20 0.163772
1107.30 0.1637277
1107.40 0.1636834
1107.50 0.1636391
1107.60 0.1635949
1107.70 0.1635506
1107.80 0.1635064
1107.90 0.1634622
1108.00 0.163418
1108.10 0.1633738
1108.20 0.1633296
1108.30 0.1632855
1108.40 0.1632413
1108.50 0.1631972
1108.60 0.1631531
1108.70 0.163109
1108.80 0.1630649
1108.90 0.1630208
1109.00 0.1629767
1109.10 0.1629327
1109.20 0.1628886
1109.30 0.1628446
1109.40 0.1628006
1109.50 0.1627566
1109.60 0.1627126
1109.70 0.1626686
1109.80 0.1626247
1109.90 0.1625807
1110.00 0.1625368
1110.10 0.1624929
1110.20 0.162449
1110.30 0.1624051
1110.40 0.1623612
1110.50 0.1623173
1110.60 0.1622735
1110.70 0.1622296
1110.80 0.1621858
1110.90 0.162142
1111.00 0.1620982
1111.10 0.1620544
1111.20 0.1620106
1111.30 0.1619668
1111.40 0.1619231
1111.50 0.1618794
1111.60 0.1618356
1111.70 0.1617919
1111.80 0.1617482
1111.90 0.1617045
1112.00 0.1616609
1112.10 0.1616172
1112.20 0.1615736
1112.30 0.1615299
1112.40 0.1614863
1112.50 0.1614427
1112.60 0.1613991
1112.70 0.1613555
1112.80 0.161312
1112.90 0.1612684
1113.00 0.1612249
1113.10 0.1611813
1113.20 0.1611378
1113.30 0.1610943
1113.40 0.1610508
1113.50 0.1610074
1113.60 0.1609639
1113.70 0.1609204
1113.80 0.160877
1113.90 0.1608336
1114.00 0.1607902
1114.10 0.1607468
1114.20 0.1607034
1114.30 0.16066
1114.40 0.1606167
1114.50 0.1605733
1114.60 0.16053
1114.70 0.1604867
1114.80 0.1604434
1114.90 0.1604001
1115.00 0.1603568
1115.10 0.1603135
1115.20 0.1602703
1115.30 0.160227
1115.40 0.1601838
1115.50 0.1601406
1115.60 0.1600974
1115.70 0.1600542
1115.80 0.160011
1115.90 0.1599678
1116.00 0.1599247
1116.10 0.1598816
1116.20 0.1598384
1116.30 0.1597953
1116.40 0.1597522
1116.50 0.1597091
1116.60 0.1596661
1116.70 0.159623
1116.80 0.15958
1116.90 0.1595371
1117.00 0.1594942
1117.10 0.1594514
1117.20 0.1594085
1117.30 0.1593657
1117.40 0.1593228
1117.50 0.15928
1117.60 0.1592372
1117.70 0.1591944
1117.80 0.1591517
1117.90 0.1591089
1118.00 0.1590661
1118.10 0.1590234
1118.20 0.1589807
1118.30 0.158938
1118.40 0.1588953
1118.50 0.1588526
1118.60 0.1588099
1118.70 0.1587672
1118.80 0.1587246
1118.90 0.158682
1119.00 0.1586393
1119.10 0.1585967
1119.20 0.1585541
1119.30 0.1585115
1119.40 0.158469
1119.50 0.1584264
1119.60 0.1583839
1119.70 0.1583413
1119.80 0.1582988
1119.90 0.1582563
1120.00 0.1582138
1120.10 0.1581713
1120.20 0.1581288
1120.30 0.1580864
1120.40 0.1580439
1120.50 0.1580015
1120.60 0.1579591
1120.70 0.1579167
1120.80 0.1578743
1120.90 0.1578319
1121.00 0.1577895
1121.10 0.1577472
1121.20 0.1577048
1121.30 0.1576625
1121.40 0.1576202
1121.50 0.1575778
1121.60 0.1575355
1121.70 0.1574933
1121.80 0.157451
1121.90 0.1574087
1122.00 0.1573665
1122.10 0.1573243
1122.20 0.157282
1122.30 0.1572398
1122.40 0.1571989
1122.50 0.1571587
1122.60 0.1571186
1122.70 0.1570784
1122.80 0.1570383
1122.90 0.1569982
1123.00 0.1569581
1123.10 0.156918
1123.20 0.1568779
1123.30 0.1568379
1123.40 0.1567978
1123.50 0.1567578
1123.60 0.1567177
1123.70 0.1566777
1123.80 0.1566377
1123.90 0.1565977
1124.00 0.1565577
1124.10 0.1565178
1124.20 0.1564778
1124.30 0.1564378
1124.40 0.1563979
1124.50 0.156358
1124.60 0.1563181
1124.70 0.1562782
1124.80 0.1562383
1124.90 0.1561984
1125.00 0.1561585
1125.10 0.1561187
1125.20 0.1560788
1125.30 0.156039
1125.40 0.1559992
1125.50 0.1559594
1125.60 0.1559196
1125.70 0.1558798
1125.80 0.15584
1125.90 0.1558003
1126.00 0.1557605
1126.10 0.1557208
1126.20 0.1556811
1126.30 0.1556414
1126.40 0.1556016
1126.50 0.155562
1126.60 0.1555223
1126.70 0.1554826
1126.80 0.155443
1126.90 0.1554033
1127.00 0.1553637
1127.10 0.1553241
1127.20 0.1552844
1127.30 0.1552449
1127.40 0.1552053
1127.50 0.1551657
1127.60 0.1551261
1127.70 0.1550866
1127.80 0.155047
1127.90 0.1550075
1128.00 0.1549665
1128.10 0.1549252
1128.20 0.1548838
1128.30 0.1548425
1128.40 0.1548011
1128.50 0.1547598
1128.60 0.1547185
1128.70 0.1546772
1128.80 0.1546359
1128.90 0.1545947
1129.00 0.1545534
1129.10 0.1545122
1129.20 0.1544709
1129.30 0.1544297
1129.40 0.1543885
1129.50 0.1543473
1129.60 0.1543061
1129.70 0.1542649
1129.80 0.1542238
1129.90 0.1541826
1130.00 0.1541415
1130.10 0.1541004
1130.20 0.1540593
1130.30 0.1540182
1130.40 0.1539771
1130.50 0.153936
1130.60 0.1538949
1130.70 0.1538539
1130.80 0.1538128
1130.90 0.1537718
1131.00 0.1537308
1131.10 0.1536898
1131.20 0.1536488
1131.30 0.1536078
1131.40 0.1535669
1131.50 0.1535259
1131.60 0.153485
1131.70 0.153444
1131.80 0.1534031
1131.90 0.1533622
1132.00 0.1533213
1132.10 0.1532804
1132.20 0.1532396
1132.30 0.1531987
1132.40 0.1531578
1132.50 0.153117
1132.60 0.1530762
1132.70 0.1530354
1132.80 0.1529946
1132.90 0.1529538
1133.00 0.152913
1133.10 0.1528723
1133.20 0.1528315
1133.30 0.1527908
1133.40 0.15275
1133.50 0.1527093
1133.60 0.1526686
1133.70 0.1526279
1133.80 0.1525873
1133.90 0.1525466
1134.00 0.1525059
1134.10 0.1524653
1134.20 0.1524247
1134.30 0.1523841
1134.40 0.1523434
1134.50 0.1523028
1134.60 0.1522623
1134.70 0.1522217
1134.80 0.1521811
1134.90 0.1521406
1135.00 0.1521001
1135.10 0.1520595
1135.20 0.152019
1135.30 0.1519785
1135.40 0.151938
1135.50 0.1518976
1135.60 0.1518571
1135.70 0.1518166
1135.80 0.1517762
1135.90 0.1517358
1136.00 0.1516954
1136.10 0.151655
1136.20 0.1516146
1136.30 0.1515742
1136.40 0.1515338
1136.50 0.1514935
1136.60 0.1514531
1136.70 0.1514128
1136.80 0.1513725
1136.90 0.1513322
1137.00 0.1512919
1137.10 0.1512516
1137.20 0.1512113
1137.30 0.151171
1137.40 0.1511308
1137.50 0.1510905
1137.60 0.1510503
1137.70 0.1510101
1137.80 0.1509699
1137.90 0.1509297
1138.00 0.1508895
1138.10 0.1508494
1138.20 0.1508092
1138.30 0.1507691
1138.40 0.1507289
1138.50 0.1506888
1138.60 0.1506487
1138.70 0.1506086
1138.80 0.1505685
1138.90 0.1505285
1139.00 0.1504884
1139.10 0.1504483
1139.20 0.1504083
1139.30 0.1503684
1139.40 0.1503285
1139.50 0.1502887
1139.60 0.1502488
1139.70 0.150209
1139.80 0.1501691
1139.90 0.1501293
1140.00 0.1500895
1140.10 0.1500497
1140.20 0.1500099
1140.30 0.1499701
1140.40 0.1499304
1140.50 0.1498906
1140.60 0.1498509
1140.70 0.1498111
1140.80 0.1497714
1140.90 0.1497317
1141.00 0.149692
1141.10 0.1496523
1141.20 0.1496127
1141.30 0.149573
1141.40 0.1495334
1141.50 0.1494937
1141.60 0.1494541
1141.70 0.1494145
1141.80 0.1493749
1141.90 0.1493353
1142.00 0.1492957
1142.10 0.1492562
1142.20 0.1492166
1142.30 0.1491771
1142.40 0.1491375
1142.50 0.149098
1142.60 0.1490585
1142.70 0.149019
1142.80 0.1489795
1142.90 0.14894
1143.00 0.1489006
1143.10 0.1488611
1143.20 0.1488217
1143.30 0.1487823
1143.40 0.1487428
1143.50 0.1487034
1143.60 0.148664
1143.70 0.1486247
1143.80 0.1485853
1143.90 0.1485459
1144.00 0.1485066
1144.10 0.1484673
1144.20 0.1484279
1144.30 0.1483886
1144.40 0.1483493
1144.50 0.14831
1144.60 0.1482707
1144.70 0.1482315
1144.80 0.1481922
1144.90 0.148153
1145.00 0.1481137
1145.10 0.1480745
1145.20 0.1480353
1145.30 0.1479961
1145.40 0.1479569
1145.50 0.1479178
1145.60 0.1478786
1145.70 0.1478394
1145.80 0.1478003
1145.90 0.1477612
1146.00 0.147722
1146.10 0.1476829
1146.20 0.1476438
1146.30 0.1476048
1146.40 0.1475657
1146.50 0.1475266
1146.60 0.1474876
1146.70 0.1474485
1146.80 0.1474095
1146.90 0.1473705
1147.00 0.1473315
1147.10 0.1472925
1147.20 0.1472535
1147.30 0.1472145
1147.40 0.1471756
1147.50 0.1471366
1147.60 0.1470977
1147.70 0.1470588
1147.80 0.1470199
1147.90 0.146981
1148.00 0.1469421
1148.10 0.1469032
1148.20 0.1468643
1148.30 0.1468255
1148.40 0.1467866
1148.50 0.1467478
1148.60 0.146709
1148.70 0.1466701
1148.80 0.1466313
1148.90 0.1465925
1149.00 0.1465538
1149.10 0.146515
1149.20 0.1464762
1149.30 0.1464375
1149.40 0.1463988
1149.50 0.14636
1149.60 0.1463213
1149.70 0.1462826
1149.80 0.1462439
1149.90 0.1462053
1150.00 0.1461666
1150.10 0.146128
1150.20 0.1460893
1150.30 0.1460507
1150.40 0.1460121
1150.50 0.1459734
1150.60 0.1459349
1150.70 0.1458964
1150.80 0.1458579
1150.90 0.1458195
1151.00 0.1457811
1151.10 0.1457427
1151.20 0.1457043
1151.30 0.1456659
1151.40 0.1456275
1151.50 0.1455891
1151.60 0.1455508
1151.70 0.1455124
1151.80 0.1454741
1151.90 0.1454358
1152.00 0.1453975
1152.10 0.1453591
1152.20 0.1453209
1152.30 0.1452826
1152.40 0.1452443
1152.50 0.145206
1152.60 0.1451678
1152.70 0.1451296
1152.80 0.1450913
1152.90 0.1450531
1153.00 0.1450149
1153.10 0.1449767
1153.20 0.1449386
1153.30 0.1449004
1153.40 0.1448622
1153.50 0.1448241
1153.60 0.1447859
1153.70 0.1447478
1153.80 0.1447097
1153.90 0.1446716
1154.00 0.1446335
1154.10 0.1445954
1154.20 0.1445574
1154.30 0.1445193
1154.40 0.1444812
1154.50 0.1444432
1154.60 0.1444052
1154.70 0.1443672
1154.80 0.1443292
1154.90 0.1442912
1155.00 0.1442532
1155.10 0.1442152
1155.20 0.1441773
1155.30 0.1441393
1155.40 0.1441014
1155.50 0.1440634
1155.60 0.1440255
1155.70 0.1439876
1155.80 0.1439497
1155.90 0.1439118
1156.00 0.143874
1156.10 0.1438361
1156.20 0.1437983
1156.30 0.1437604
1156.40 0.1437226
1156.50 0.1436848
1156.60 0.143647
1156.70 0.1436092
1156.80 0.1435714
1156.90 0.1435336
1157.00 0.1434959
1157.10 0.1434581
1157.20 0.1434204
1157.30 0.1433827
1157.40 0.143345
1157.50 0.1433073
1157.60 0.1432696
1157.70 0.1432319
1157.80 0.1431942
1157.90 0.1431565
1158.00 0.1431189
1158.10 0.1430813
1158.20 0.1430436
1158.30 0.143006
1158.40 0.1429684
1158.50 0.1429308
1158.60 0.1428932
1158.70 0.1428557
1158.80 0.1428181
1158.90 0.1427805
1159.00 0.142743
1159.10 0.1427055
1159.20 0.1426679
1159.30 0.1426304
1159.40 0.1425929
1159.50 0.1425555
1159.60 0.142518
1159.70 0.1424805
1159.80 0.1424431
1159.90 0.1424056
1160.00 0.1423682
1160.10 0.1423308
1160.20 0.1422933
1160.30 0.1422559
1160.40 0.1422186
1160.50 0.1421812
1160.60 0.1421438
1160.70 0.1421065
1160.80 0.1420691
1160.90 0.1420318
1161.00 0.1419944
1161.10 0.1419571
1161.20 0.1419198
1161.30 0.1418825
1161.40 0.1418452
1161.50 0.141808
1161.60 0.1417707
1161.70 0.1417335
1161.80 0.1416962
1161.90 0.141659
1162.00 0.1416218
1162.10 0.1415846
1162.20 0.1415475
1162.30 0.1415104
1162.40 0.1414734
1162.50 0.1414363
1162.60 0.1413993
1162.70 0.1413623
1162.80 0.1413253
1162.90 0.1412883
1163.00 0.1412513
1163.10 0.1412143
1163.20 0.1411774
1163.30 0.1411404
1163.40 0.1411035
1163.50 0.1410665
1163.60 0.1410296
1163.70 0.1409927
1163.80 0.1409558
1163.90 0.1409189
1164.00 0.140882
1164.10 0.1408451
1164.20 0.1408083
1164.30 0.1407714
1164.40 0.1407346
1164.50 0.1406978
1164.60 0.1406609
1164.70 0.1406241
1164.80 0.1405873
1164.90 0.1405506
1165.00 0.1405138
1165.10 0.140477
1165.20 0.1404403
1165.30 0.1404035
1165.40 0.1403668
1165.50 0.1403301
1165.60 0.1402933
1165.70 0.1402566
1165.80 0.1402199
1165.90 0.1401833
1166.00 0.1401466
1166.10 0.1401099
1166.20 0.1400733
1166.30 0.1400366
1166.40 0.14
1166.50 0.1399634
1166.60 0.1399268
1166.70 0.1398902
1166.80 0.1398536
1166.90 0.139817
1167.00 0.1397805
1167.10 0.1397439
1167.20 0.1397074
1167.30 0.1396708
1167.40 0.1396343
1167.50 0.1395978
1167.60 0.1395613
1167.70 0.1395248
1167.80 0.1394883
1167.90 0.1394519
1168.00 0.1394154
1168.10 0.1393789
1168.20 0.1393425
1168.30 0.1393061
1168.40 0.1392697
1168.50 0.1392333
1168.60 0.1391969
1168.70 0.1391605
1168.80 0.1391241
1168.90 0.1390877
1169.00 0.1390514
1169.10 0.139015
1169.20 0.1389787
1169.30 0.1389424
1169.40 0.1389061
1169.50 0.1388698
1169.60 0.1388335
1169.70 0.1387972
1169.80 0.1387609
1169.90 0.1387247
1170.00 0.1386884
1170.10 0.1386522
1170.20 0.1386159
1170.30 0.1385797
1170.40 0.1385435
1170.50 0.1385073
1170.60 0.1384711
1170.70 0.1384349
1170.80 0.1383988
1170.90 0.1383626
1171.00 0.1383265
1171.10 0.1382903
1171.20 0.1382542
1171.30 0.1382181
1171.40 0.138182
1171.50 0.1381459
1171.60 0.1381098
1171.70 0.1380737
1171.80 0.1380377
1171.90 0.1380016
1172.00 0.1379656
1172.10 0.1379295
1172.20 0.1378935
1172.30 0.1378575
1172.40 0.1378215
1172.50 0.1377855
1172.60 0.1377495
1172.70 0.1377136
1172.80 0.1376776
1172.90 0.1376416
1173.00 0.1376057
1173.10 0.1375698
1173.20 0.1375338
1173.30 0.1374979
1173.40 0.137462
1173.50 0.1374261
1173.60 0.1373903
1173.70 0.1373544
1173.80 0.1373186
1173.90 0.1372829
1174.00 0.1372472
1174.10 0.1372115
1174.20 0.1371758
1174.30 0.1371401
1174.40 0.1371044
1174.50 0.1370687
1174.60 0.1370331
1174.70 0.1369974
1174.80 0.1369618
1174.90 0.1369262
1175.00 0.1368906
1175.10 0.136855
1175.20 0.1368194
1175.30 0.1367838
1175.40 0.1367482
1175.50 0.1367126
1175.60 0.1366771
1175.70 0.1366415
1175.80 0.136606
1175.90 0.1365705
1176.00 0.136535
1176.10 0.1364995
1176.20 0.136464
1176.30 0.1364285
1176.40 0.136393
1176.50 0.1363575
1176.60 0.1363221
1176.70 0.1362866
1176.80 0.1362512
1176.90 0.1362158
1177.00 0.1361804
1177.10 0.136145
1177.20 0.1361096
1177.30 0.1360742
1177.40 0.1360388
1177.50 0.1360034
1177.60 0.1359681
1177.70 0.1359327
1177.80 0.1358974
1177.90 0.1358621
1178.00 0.1358268
1178.10 0.1357915
1178.20 0.1357562
1178.30 0.1357209
1178.40 0.1356856
1178.50 0.1356504
1178.60 0.1356151
1178.70 0.1355799
1178.80 0.1355446
1178.90 0.1355094
1179.00 0.1354742
1179.10 0.135439
1179.20 0.1354038
1179.30 0.1353686
1179.40 0.1353334
1179.50 0.1352983
1179.60 0.1352631
1179.70 0.135228
1179.80 0.1351928
1179.90 0.1351577
1180.00 0.1351226
1180.10 0.1350875
1180.20 0.1350524
1180.30 0.1350173
1180.40 0.1349823
1180.50 0.1349472
1180.60 0.1349122
1180.70 0.1348771
1180.80 0.1348421
1180.90 0.1348071
1181.00 0.134772
1181.10 0.134737
1181.20 0.134702
1181.30 0.1346671
1181.40 0.1346321
1181.50 0.1345971
1181.60 0.1345622
1181.70 0.1345272
1181.80 0.1344923
1181.90 0.1344574
1182.00 0.1344225
1182.10 0.1343876
1182.20 0.1343527
1182.30 0.1343178
1182.40 0.1342829
1182.50 0.134248
1182.60 0.1342132
1182.70 0.1341784
1182.80 0.1341435
1182.90 0.1341087
1183.00 0.1340739
1183.10 0.1340391
1183.20 0.1340043
1183.30 0.1339695
1183.40 0.1339347
1183.50 0.1339
1183.60 0.1338652
1183.70 0.1338305
1183.80 0.1337957
1183.90 0.133761
1184.00 0.1337263
1184.10 0.1336916
1184.20 0.1336569
1184.30 0.1336222
1184.40 0.1335875
1184.50 0.1335528
1184.60 0.1335182
1184.70 0.1334835
1184.80 0.1334489
1184.90 0.1334143
1185.00 0.1333797
1185.10 0.133345
1185.20 0.1333104
1185.30 0.1332759
1185.40 0.1332413
1185.50 0.1332068
1185.60 0.1331723
1185.70 0.1331379
1185.80 0.1331035
1185.90 0.1330691
1186.00 0.1330347
1186.10 0.1330003
1186.20 0.1329659
1186.30 0.1329315
1186.40 0.1328971
1186.50 0.1328628
1186.60 0.1328284
1186.70 0.1327941
1186.80 0.1327598
1186.90 0.1327255
1187.00 0.1326912
1187.10 0.1326569
1187.20 0.1326226
1187.30 0.1325883
1187.40 0.132554
1187.50 0.1325198
1187.60 0.1324855
1187.70 0.1324513
1187.80 0.1324171
1187.90 0.1323829
1188.00 0.1323486
1188.10 0.1323144
1188.20 0.1322803
1188.30 0.1322461
1188.40 0.1322119
1188.50 0.1321777
1188.60 0.1321436
1188.70 0.1321095
1188.80 0.1320753
1188.90 0.1320412
1189.00 0.1320071
1189.10 0.131973
1189.20 0.1319389
1189.30 0.1319048
1189.40 0.1318707
1189.50 0.1318367
1189.60 0.1318026
1189.70 0.1317686
1189.80 0.1317345
1189.90 0.1317005
1190.00 0.1316665
1190.10 0.1316325
1190.20 0.1315985
1190.30 0.1315645
1190.40 0.1315305
1190.50 0.1314966
1190.60 0.1314626
1190.70 0.1314286
1190.80 0.1313947
1190.90 0.1313608
1191.00 0.1313269
1191.10 0.1312929
1191.20 0.131259
1191.30 0.1312252
1191.40 0.1311913
1191.50 0.1311574
1191.60 0.1311235
1191.70 0.1310897
1191.80 0.1310558
1191.90 0.131022
1192.00 0.1309882
1192.10 0.1309544
1192.20 0.1309205
1192.30 0.1308868
1192.40 0.130853
1192.50 0.1308192
1192.60 0.1307854
1192.70 0.1307517
1192.80 0.1307179
1192.90 0.1306842
1193.00 0.1306504
1193.10 0.1306167
1193.20 0.130583
1193.30 0.1305493
1193.40 0.1305156
1193.50 0.1304819
1193.60 0.1304483
1193.70 0.1304146
1193.80 0.1303809
1193.90 0.1303473
1194.00 0.1303137
1194.10 0.13028
1194.20 0.1302464
1194.30 0.1302128
1194.40 0.1301792
1194.50 0.1301456
1194.60 0.130112
1194.70 0.1300785
1194.80 0.1300449
1194.90 0.1300113
1195.00 0.1299778
1195.10 0.1299443
1195.20 0.1299108
1195.30 0.1298772
1195.40 0.1298437
1195.50 0.1298102
1195.60 0.1297768
1195.70 0.1297433
1195.80 0.1297098
1195.90 0.1296764
1196.00 0.1296429
1196.10 0.1296095
1196.20 0.129576
1196.30 0.1295426
1196.40 0.1295092
1196.50 0.1294758
1196.60 0.1294424
1196.70 0.129409
1196.80 0.1293757
1196.90 0.1293423
1197.00 0.1293089
1197.10 0.1292756
1197.20 0.1292423
1197.30 0.1292089
1197.40 0.1291757
1197.50 0.1291425
1197.60 0.1291093
1197.70 0.1290762
1197.80 0.129043
1197.90 0.1290099
1198.00 0.1289767
1198.10 0.1289436
1198.20 0.1289105
1198.30 0.1288773
1198.40 0.1288442
1198.50 0.1288111
1198.60 0.128778
1198.70 0.128745
1198.80 0.1287119
1198.90 0.1286788
1199.00 0.1286458
1199.10 0.1286127
1199.20 0.1285797
1199.30 0.1285467
1199.40 0.1285137
1199.50 0.1284807
1199.60 0.1284477
1199.70 0.1284147
1199.80 0.1283817
1199.90 0.1283487
1200.00 0.1283158
