# Version 2.1 - nm, norm@500 to 1, cut digits, bergeron_He_8500_80.dat_8500
# Wavelength(nm)  Flambda(ergs/cm^s/s/nm)
300.00 1.477575
300.10 1.477711
300.20 1.477841
300.30 1.477973
300.40 1.478123
300.50 1.478271
300.60 1.47842
300.70 1.478568
300.80 1.478715
300.90 1.478862
301.00 1.479008
301.10 1.479154
301.20 1.479299
301.30 1.479444
301.40 1.479588
301.50 1.479732
301.60 1.479875
301.70 1.480018
301.80 1.48016
301.90 1.480302
302.00 1.480443
302.10 1.480647
302.20 1.480857
302.30 1.481067
302.40 1.481276
302.50 1.481485
302.60 1.481692
302.70 1.4819
302.80 1.482106
302.90 1.482313
303.00 1.482518
303.10 1.482723
303.20 1.482927
303.30 1.48312
303.40 1.483216
303.50 1.483312
303.60 1.483407
303.70 1.483502
303.80 1.483596
303.90 1.48369
304.00 1.483783
304.10 1.483876
304.20 1.483969
304.30 1.484061
304.40 1.484153
304.50 1.484244
304.60 1.484368
304.70 1.484496
304.80 1.484623
304.90 1.48475
305.00 1.484877
305.10 1.485002
305.20 1.485128
305.30 1.485253
305.40 1.485377
305.50 1.485501
305.60 1.485624
305.70 1.485747
305.80 1.48587
305.90 1.485992
306.00 1.486113
306.10 1.486235
306.20 1.486355
306.30 1.486475
306.40 1.486594
306.50 1.486711
306.60 1.486828
306.70 1.486945
306.80 1.487061
306.90 1.487177
307.00 1.487292
307.10 1.487407
307.20 1.487522
307.30 1.487636
307.40 1.487749
307.50 1.487862
307.60 1.487974
307.70 1.488086
307.80 1.488198
307.90 1.488309
308.00 1.48842
308.10 1.48853
308.20 1.48864
308.30 1.488749
308.40 1.488858
308.50 1.488966
308.60 1.489074
308.70 1.489182
308.80 1.489412
308.90 1.48999
309.00 1.490025
309.10 1.49006
309.20 1.490094
309.30 1.490128
309.40 1.490163
309.50 1.490202
309.60 1.490241
309.70 1.49028
309.80 1.490319
309.90 1.490357
310.00 1.490394
310.10 1.490432
310.20 1.490468
310.30 1.490505
310.40 1.490569
310.50 1.490662
310.60 1.490755
310.70 1.490847
310.80 1.490939
310.90 1.491031
311.00 1.491098
311.10 1.491164
311.20 1.49123
311.30 1.491304
311.40 1.491402
311.50 1.4915
311.60 1.491597
311.70 1.491694
311.80 1.49179
311.90 1.491886
312.00 1.491981
312.10 1.492076
312.20 1.492436
312.30 1.492801
312.40 1.492902
312.50 1.4931
312.60 1.493166
312.70 1.493231
312.80 1.493295
312.90 1.493302
313.00 1.493245
313.10 1.493188
313.20 1.493131
313.30 1.493111
313.40 1.493199
313.50 1.493286
313.60 1.493373
313.70 1.49346
313.80 1.493546
313.90 1.493632
314.00 1.493717
314.10 1.493738
314.20 1.493758
314.30 1.493778
314.40 1.493798
314.50 1.493817
314.60 1.493836
314.70 1.493855
314.80 1.493933
314.90 1.494215
315.00 1.494529
315.10 1.494515
315.20 1.4945
315.30 1.494485
315.40 1.49447
315.50 1.494455
315.60 1.494439
315.70 1.494423
315.80 1.494406
315.90 1.49439
316.00 1.494373
316.10 1.494356
316.20 1.494338
316.30 1.494784
316.40 1.494766
316.50 1.494747
316.60 1.495191
316.70 1.495171
316.80 1.495152
316.90 1.495132
317.00 1.495112
317.10 1.495091
317.20 1.49507
317.30 1.495187
317.40 1.495253
317.50 1.495175
317.60 1.495097
317.70 1.495018
317.80 1.49494
317.90 1.495207
318.00 1.495133
318.10 1.495109
318.20 1.495086
318.30 1.495062
318.40 1.495157
318.50 1.495589
318.60 1.495665
318.70 1.495639
318.80 1.495614
318.90 1.495588
319.00 1.495799
319.10 1.495772
319.20 1.495759
319.30 1.495785
319.40 1.49581
319.50 1.495836
319.60 1.495649
319.70 1.495674
319.80 1.495698
319.90 1.495722
320.00 1.495721
320.10 1.495691
320.20 1.495633
320.30 1.495831
320.40 1.496072
320.50 1.49577
320.60 1.495541
320.70 1.49551
320.80 1.495587
320.90 1.495781
321.00 1.495974
321.10 1.496167
321.20 1.496063
321.30 1.496064
321.40 1.496065
321.50 1.496066
321.60 1.496067
321.70 1.496067
321.80 1.495911
321.90 1.495587
322.00 1.496015
322.10 1.495976
322.20 1.495936
322.30 1.495897
322.40 1.495857
322.50 1.495816
322.60 1.495776
322.70 1.495735
322.80 1.495516
322.90 1.495537
323.00 1.495559
323.10 1.49558
323.20 1.495601
323.30 1.495621
323.40 1.495642
323.50 1.495662
323.60 1.495681
323.70 1.4957
323.80 1.495719
323.90 1.495738
324.00 1.49576
324.10 1.495781
324.20 1.495802
324.30 1.495872
324.40 1.495952
324.50 1.495894
324.60 1.495835
324.70 1.495776
324.80 1.495717
324.90 1.495658
325.00 1.495599
325.10 1.495539
325.20 1.495497
325.30 1.495494
325.40 1.495491
325.50 1.495472
325.60 1.495435
325.70 1.495398
325.80 1.49536
325.90 1.495297
326.00 1.495207
326.10 1.495117
326.20 1.495027
326.30 1.494901
326.40 1.494676
326.50 1.494659
326.60 1.494642
326.70 1.494625
326.80 1.494608
326.90 1.49459
327.00 1.494572
327.10 1.494554
327.20 1.494535
327.30 1.494517
327.40 1.494498
327.50 1.494478
327.60 1.494459
327.70 1.494439
327.80 1.494419
327.90 1.494373
328.00 1.49434
328.10 1.494358
328.20 1.494375
328.30 1.494392
328.40 1.494409
328.50 1.494263
328.60 1.49408
328.70 1.493896
328.80 1.493751
328.90 1.493714
329.00 1.493676
329.10 1.493639
329.20 1.493601
329.30 1.493563
329.40 1.493525
329.50 1.493486
329.60 1.493448
329.70 1.493409
329.80 1.49337
329.90 1.49333
330.00 1.493288
330.10 1.49324
330.20 1.493193
330.30 1.493146
330.40 1.493094
330.50 1.493037
330.60 1.49298
330.70 1.492923
330.80 1.492866
330.90 1.492808
331.00 1.492751
331.10 1.492693
331.20 1.492635
331.30 1.492577
331.40 1.492518
331.50 1.492538
331.60 1.492654
331.70 1.49277
331.80 1.492689
331.90 1.4926
332.00 1.492511
332.10 1.492421
332.20 1.492331
332.30 1.492241
332.40 1.492151
332.50 1.492061
332.60 1.491971
332.70 1.49188
332.80 1.49179
332.90 1.491699
333.00 1.491608
333.10 1.491531
333.20 1.491471
333.30 1.491411
333.40 1.491351
333.50 1.49129
333.60 1.49123
333.70 1.491169
333.80 1.491108
333.90 1.491047
334.00 1.490986
334.10 1.490924
334.20 1.490862
334.30 1.4908
334.40 1.490738
334.50 1.490676
334.60 1.490613
334.70 1.490536
334.80 1.490374
334.90 1.490116
335.00 1.489857
335.10 1.490112
335.20 1.489636
335.30 1.489799
335.40 1.489735
335.50 1.489671
335.60 1.489607
335.70 1.48909
335.80 1.489026
335.90 1.488961
336.00 1.488897
336.10 1.488832
336.20 1.488767
336.30 1.488702
336.40 1.488636
336.50 1.488571
336.60 1.488505
336.70 1.488439
336.80 1.488373
336.90 1.488303
337.00 1.488228
337.10 1.488153
337.20 1.488078
337.30 1.488009
337.40 1.487947
337.50 1.487885
337.60 1.487823
337.70 1.487761
337.80 1.487698
337.90 1.487551
338.00 1.4873
338.10 1.487049
338.20 1.486799
338.30 1.486548
338.40 1.486353
338.50 1.486295
338.60 1.486238
338.70 1.486179
338.80 1.486121
338.90 1.486063
339.00 1.486004
339.10 1.485945
339.20 1.485886
339.30 1.485829
339.40 1.485775
339.50 1.485685
339.60 1.48555
339.70 1.485415
339.80 1.48528
339.90 1.485145
340.00 1.48501
340.10 1.484874
340.20 1.484739
340.30 1.484603
340.40 1.484468
340.50 1.484332
340.60 1.484196
340.70 1.484061
340.80 1.483957
340.90 1.483901
341.00 1.483793
341.10 1.48362
341.20 1.483448
341.30 1.483275
341.40 1.483103
341.50 1.48293
341.60 1.482757
341.70 1.482585
341.80 1.482436
341.90 1.482315
342.00 1.482195
342.10 1.482074
342.20 1.4822
342.30 1.482186
342.40 1.481982
342.50 1.481913
342.60 1.481844
342.70 1.481774
342.80 1.481704
342.90 1.481634
343.00 1.48147
343.10 1.481192
343.20 1.480913
343.30 1.480635
343.40 1.48044
343.50 1.480364
343.60 1.480288
343.70 1.480212
343.80 1.480135
343.90 1.480059
344.00 1.479982
344.10 1.479905
344.20 1.479828
344.30 1.479751
344.40 1.479674
344.50 1.479597
344.60 1.479199
344.70 1.479121
344.80 1.479043
344.90 1.478595
345.00 1.478428
345.10 1.47835
345.20 1.478276
345.30 1.478208
345.40 1.47814
345.50 1.478054
345.60 1.477905
345.70 1.477696
345.80 1.477488
345.90 1.47728
346.00 1.477072
346.10 1.476863
346.20 1.476676
346.30 1.47652
346.40 1.476363
346.50 1.476206
346.60 1.476049
346.70 1.475892
346.80 1.475735
346.90 1.475578
347.00 1.475421
347.10 1.475264
347.20 1.475124
347.30 1.475009
347.40 1.474895
347.50 1.47478
347.60 1.474665
347.70 1.47455
347.80 1.474435
347.90 1.47432
348.00 1.474204
348.10 1.474089
348.20 1.473973
348.30 1.473858
348.40 1.473742
348.50 1.473626
348.60 1.47351
348.70 1.473269
348.80 1.473028
348.90 1.472844
349.00 1.47266
349.10 1.472476
349.20 1.472292
349.30 1.472108
349.40 1.471924
349.50 1.47174
349.60 1.471556
349.70 1.471371
349.80 1.471187
349.90 1.471003
350.00 1.470819
350.10 1.470634
350.20 1.47045
350.30 1.470277
350.40 1.470122
350.50 1.469966
350.60 1.469811
350.70 1.469655
350.80 1.469499
350.90 1.469343
351.00 1.469188
351.10 1.469032
351.20 1.468876
351.30 1.46872
351.40 1.468572
351.50 1.468441
351.60 1.46831
351.70 1.468179
351.80 1.468047
351.90 1.467916
352.00 1.467784
352.10 1.467653
352.20 1.467341
352.30 1.467068
352.40 1.466879
352.50 1.466689
352.60 1.4665
352.70 1.466311
352.80 1.466121
352.90 1.465932
353.00 1.465743
353.10 1.465553
353.20 1.465364
353.30 1.465174
353.40 1.464985
353.50 1.464819
353.60 1.464659
353.70 1.464499
353.80 1.464338
353.90 1.464176
354.00 1.464011
354.10 1.463845
354.20 1.463679
354.30 1.463514
354.40 1.463348
354.50 1.463182
354.60 1.463016
354.70 1.46285
354.80 1.462688
354.90 1.462532
355.00 1.462375
355.10 1.462219
355.20 1.462063
355.30 1.461751
355.40 1.46144
355.50 1.461128
355.60 1.460817
355.70 1.460588
355.80 1.460396
355.90 1.460449
356.00 1.460376
356.10 1.460164
356.20 1.459951
356.30 1.459739
356.40 1.459527
356.50 1.459315
356.60 1.459102
356.70 1.45889
356.80 1.458678
356.90 1.458466
357.00 1.458253
357.10 1.458041
357.20 1.457829
357.30 1.457617
357.40 1.457421
357.50 1.457253
357.60 1.457086
357.70 1.456919
357.80 1.456763
357.90 1.456607
358.00 1.456424
358.10 1.456234
358.20 1.456044
358.30 1.455855
358.40 1.455665
358.50 1.455475
358.60 1.455285
358.70 1.455095
358.80 1.454905
358.90 1.454715
359.00 1.454418
359.10 1.45393
359.20 1.453482
359.30 1.453289
359.40 1.453097
359.50 1.453027
359.60 1.452987
359.70 1.452948
359.80 1.452683
359.90 1.452418
360.00 1.45215
360.10 1.451877
360.20 1.451603
360.30 1.451329
360.40 1.451056
360.50 1.450783
360.60 1.450889
360.70 1.450619
360.80 1.45035
360.90 1.45008
361.00 1.450076
361.10 1.449922
361.20 1.449435
361.30 1.449344
361.40 1.449216
361.50 1.44916
361.60 1.448614
361.70 1.448522
361.80 1.448374
361.90 1.448127
362.00 1.44788
362.10 1.447583
362.20 1.447322
362.30 1.447143
362.40 1.446963
362.50 1.446784
362.60 1.446605
362.70 1.446323
362.80 1.445839
362.90 1.445743
363.00 1.445647
363.10 1.445494
363.20 1.44534
363.30 1.445375
363.40 1.444755
363.50 1.444487
363.60 1.444394
363.70 1.443989
363.80 1.444208
363.90 1.443914
364.00 1.443621
364.10 1.443328
364.20 1.443035
364.30 1.442964
364.40 1.442948
364.50 1.442163
364.60 1.442068
364.70 1.441972
364.80 1.441876
364.90 1.441434
365.00 1.440992
365.10 1.440899
365.20 1.440805
365.30 1.440712
365.40 1.440618
365.50 1.440177
365.60 1.439736
365.70 1.439579
365.80 1.439422
365.90 1.439069
366.00 1.438668
366.10 1.438562
366.20 1.438456
366.30 1.43835
366.40 1.438244
366.50 1.437507
366.60 1.437413
366.70 1.437151
366.80 1.43689
366.90 1.436664
367.00 1.4365
367.10 1.436337
367.20 1.436173
367.30 1.436009
367.40 1.435845
367.50 1.435493
367.60 1.435093
367.70 1.434854
367.80 1.434615
367.90 1.434377
368.00 1.434372
368.10 1.433935
368.20 1.433689
368.30 1.433448
368.40 1.433207
368.50 1.432967
368.60 1.432726
368.70 1.432485
368.80 1.432245
368.90 1.43225
369.00 1.432018
369.10 1.431618
369.20 1.431527
369.30 1.431205
369.40 1.430883
369.50 1.430562
369.60 1.430463
369.70 1.430365
369.80 1.430142
369.90 1.429919
370.00 1.429695
370.10 1.429312
370.20 1.428875
370.30 1.428442
370.40 1.42835
370.50 1.428255
370.60 1.428159
370.70 1.428064
370.80 1.427629
370.90 1.427195
371.00 1.427099
371.10 1.427007
371.20 1.426573
371.30 1.42614
371.40 1.426228
371.50 1.425961
371.60 1.425693
371.70 1.425426
371.80 1.42516
371.90 1.424893
372.00 1.424323
372.10 1.424036
372.20 1.423829
372.30 1.423622
372.40 1.423415
372.50 1.423207
372.60 1.423
372.70 1.422793
372.80 1.422362
372.90 1.421931
373.00 1.421835
373.10 1.421743
373.20 1.421647
373.30 1.421551
373.40 1.420789
373.50 1.420694
373.60 1.420598
373.70 1.420501
373.80 1.419887
373.90 1.419646
374.00 1.419384
374.10 1.419122
374.20 1.41886
374.30 1.418599
374.40 1.418255
374.50 1.41839
374.60 1.418141
374.70 1.417881
374.80 1.417621
374.90 1.417361
375.00 1.417045
375.10 1.416729
375.20 1.416413
375.30 1.416129
375.40 1.415844
375.50 1.41556
375.60 1.415276
375.70 1.414992
375.80 1.414708
375.90 1.414424
376.00 1.414322
376.10 1.414
376.20 1.413677
376.30 1.413354
376.40 1.413031
376.50 1.412717
376.60 1.412418
376.70 1.412119
376.80 1.411899
376.90 1.411759
377.00 1.411619
377.10 1.411478
377.20 1.411295
377.30 1.410953
377.40 1.410611
377.50 1.410269
377.60 1.409947
377.70 1.409624
377.80 1.409302
377.90 1.40898
378.00 1.409122
378.10 1.408838
378.20 1.408543
378.30 1.408249
378.40 1.407954
378.50 1.40766
378.60 1.407366
378.70 1.407072
378.80 1.406778
378.90 1.406494
379.00 1.406231
379.10 1.406005
379.20 1.40578
379.30 1.405504
379.40 1.405179
379.50 1.404854
379.60 1.40458
379.70 1.404365
379.80 1.404095
379.90 1.403825
380.00 1.403555
380.10 1.403285
380.20 1.403016
380.30 1.402746
380.40 1.402476
380.50 1.402207
380.60 1.401649
380.70 1.401349
380.80 1.40105
380.90 1.40075
381.00 1.40045
381.10 1.400514
381.20 1.400258
381.30 1.400161
381.40 1.399541
381.50 1.399135
381.60 1.398811
381.70 1.398666
381.80 1.398405
381.90 1.398309
382.00 1.398212
382.10 1.39748
382.20 1.397511
382.30 1.397097
382.40 1.39673
382.50 1.396433
382.60 1.396135
382.70 1.395942
382.80 1.39576
382.90 1.395473
383.00 1.395187
383.10 1.3949
383.20 1.394595
383.30 1.394216
383.40 1.393878
383.50 1.393602
383.60 1.393543
383.70 1.393231
383.80 1.39292
383.90 1.392609
384.00 1.392298
384.10 1.391988
384.20 1.391677
384.30 1.391366
384.40 1.391069
384.50 1.390784
384.60 1.390499
384.70 1.390215
384.80 1.389991
384.90 1.389836
385.00 1.389383
385.10 1.388947
385.20 1.388978
385.30 1.388574
385.40 1.38823
385.50 1.387946
385.60 1.387663
385.70 1.387379
385.80 1.387081
385.90 1.386726
386.00 1.386411
386.10 1.386137
386.20 1.3859
386.30 1.385662
386.40 1.385337
386.50 1.385089
386.60 1.384993
386.70 1.384742
386.80 1.384181
386.90 1.384085
387.00 1.383695
387.10 1.383274
387.20 1.383178
387.30 1.383083
387.40 1.382529
387.50 1.382273
387.60 1.381657
387.70 1.381407
387.80 1.381157
387.90 1.380907
388.00 1.380711
388.10 1.380465
388.20 1.379949
388.30 1.379629
388.40 1.379309
388.50 1.379041
388.60 1.378932
388.70 1.378662
388.80 1.378566
388.90 1.377857
389.00 1.377762
389.10 1.377666
389.20 1.377225
389.30 1.376973
389.40 1.37658
389.50 1.376266
389.60 1.376115
389.70 1.376016
389.80 1.375725
389.90 1.375434
390.00 1.375144
390.10 1.374854
390.20 1.374563
390.30 1.374251
390.40 1.373915
390.50 1.373578
390.60 1.373242
390.70 1.372906
390.80 1.372558
390.90 1.372199
391.00 1.371749
391.10 1.371636
391.20 1.371399
391.30 1.370888
391.40 1.370592
391.50 1.370295
391.60 1.369998
391.70 1.369702
391.80 1.369405
391.90 1.369185
392.00 1.36893
392.10 1.368493
392.20 1.368124
392.30 1.368143
392.40 1.367843
392.50 1.367251
392.60 1.367051
392.70 1.366957
392.80 1.366261
392.90 1.366278
393.00 1.365902
393.10 1.365581
393.20 1.365309
393.30 1.364914
393.40 1.364493
393.50 1.364399
393.60 1.364072
393.70 1.363611
393.80 1.363544
393.90 1.36315
394.00 1.36273
394.10 1.362324
394.20 1.362239
394.30 1.361851
394.40 1.361756
394.50 1.361066
394.60 1.360709
394.70 1.360397
394.80 1.360254
394.90 1.360094
395.00 1.359492
395.10 1.359312
395.20 1.358933
395.30 1.358633
395.40 1.358332
395.50 1.358101
395.60 1.357897
395.70 1.357662
395.80 1.357349
395.90 1.357035
396.00 1.356688
396.10 1.356163
396.20 1.356069
396.30 1.355816
396.40 1.355236
396.50 1.355039
396.60 1.354945
396.70 1.354469
396.80 1.354169
396.90 1.354075
397.00 1.353393
397.10 1.353202
397.20 1.35275
397.30 1.352625
397.40 1.352313
397.50 1.352002
397.60 1.351695
397.70 1.351432
397.80 1.351168
397.90 1.350849
398.00 1.350379
398.10 1.34991
398.20 1.349568
398.30 1.349369
398.40 1.34917
398.50 1.348942
398.60 1.348387
398.70 1.348091
398.80 1.347892
398.90 1.347676
399.00 1.347432
399.10 1.346793
399.20 1.346519
399.30 1.346245
399.40 1.345971
399.50 1.345697
399.60 1.345402
399.70 1.345099
399.80 1.344797
399.90 1.344495
400.00 1.344195
400.10 1.343969
400.20 1.343417
400.30 1.343112
400.40 1.342899
400.50 1.342562
400.60 1.342103
400.70 1.341722
400.80 1.341707
400.90 1.341132
401.00 1.340946
401.10 1.340854
401.20 1.340186
401.30 1.339948
401.40 1.339737
401.50 1.339496
401.60 1.339242
401.70 1.338576
401.80 1.33836
401.90 1.338118
402.00 1.337747
402.10 1.337635
402.20 1.33697
402.30 1.336878
402.40 1.336605
402.50 1.336122
402.60 1.336031
402.70 1.335367
402.80 1.335276
402.90 1.334842
403.00 1.334465
403.10 1.334431
403.20 1.333782
403.30 1.333559
403.40 1.333464
403.50 1.333192
403.60 1.332834
403.70 1.332174
403.80 1.332093
403.90 1.331756
404.00 1.331333
404.10 1.331242
404.20 1.330867
404.30 1.330493
404.40 1.330144
404.50 1.329744
404.60 1.32937
404.70 1.328996
404.80 1.328906
404.90 1.328249
405.00 1.328159
405.10 1.327826
405.20 1.327574
405.30 1.327323
405.40 1.32695
405.50 1.326578
405.60 1.326206
405.70 1.325834
405.80 1.325462
405.90 1.32509
406.00 1.324777
406.10 1.324464
406.20 1.324152
406.30 1.323839
406.40 1.323516
406.50 1.323426
406.60 1.322776
406.70 1.322476
406.80 1.322263
406.90 1.321956
407.00 1.321642
407.10 1.321329
407.20 1.321016
407.30 1.320703
407.40 1.32039
407.50 1.320077
407.60 1.319764
407.70 1.319451
407.80 1.319139
407.90 1.318826
408.00 1.318484
408.10 1.318081
408.20 1.317726
408.30 1.317443
408.40 1.31716
408.50 1.316613
408.60 1.316353
408.70 1.316093
408.80 1.315791
408.90 1.315224
409.00 1.3149
409.10 1.314577
409.20 1.314253
409.30 1.31393
409.40 1.313609
409.50 1.313358
409.60 1.313108
409.70 1.31283
409.80 1.312444
409.90 1.312066
410.00 1.311962
410.10 1.311322
410.20 1.311027
410.30 1.310819
410.40 1.310594
410.50 1.310318
410.60 1.310041
410.70 1.309737
410.80 1.309322
410.90 1.308907
411.00 1.308558
411.10 1.308232
411.20 1.307907
411.30 1.307613
411.40 1.307437
411.50 1.306996
411.60 1.306554
411.70 1.306129
411.80 1.305768
411.90 1.305353
412.00 1.305265
412.10 1.305042
412.20 1.304545
412.30 1.304005
412.40 1.303825
412.50 1.303271
412.60 1.303028
412.70 1.302814
412.80 1.302606
412.90 1.302301
413.00 1.301748
413.10 1.301442
413.20 1.301135
413.30 1.300829
413.40 1.300523
413.50 1.300152
413.60 1.299621
413.70 1.299399
413.80 1.299177
413.90 1.298956
414.00 1.298702
414.10 1.298345
414.20 1.297923
414.30 1.297351
414.40 1.297211
414.50 1.296627
414.60 1.296564
414.70 1.296208
414.80 1.295853
414.90 1.295498
415.00 1.295143
415.10 1.294788
415.20 1.294449
415.30 1.294161
415.40 1.293873
415.50 1.293581
415.60 1.293151
415.70 1.292721
415.80 1.29233
415.90 1.292061
416.00 1.291793
416.10 1.291505
416.20 1.291141
416.30 1.290778
416.40 1.290415
416.50 1.290052
416.60 1.2897
416.70 1.28934
416.80 1.289255
416.90 1.288637
417.00 1.288552
417.10 1.287942
417.20 1.287591
417.30 1.287244
417.40 1.287003
417.50 1.286763
417.60 1.286447
417.70 1.285842
417.80 1.285581
417.90 1.28532
418.00 1.285059
418.10 1.284798
418.20 1.284537
418.30 1.284265
418.40 1.283721
418.50 1.283395
418.60 1.283069
418.70 1.282743
418.80 1.282418
418.90 1.282093
419.00 1.281767
419.10 1.281442
419.20 1.281118
419.30 1.28079
419.40 1.280366
419.50 1.279942
419.60 1.279552
419.70 1.279298
419.80 1.279044
419.90 1.278767
420.00 1.278415
420.10 1.278064
420.20 1.277713
420.30 1.277362
420.40 1.277012
420.50 1.276661
420.60 1.276311
420.70 1.275961
420.80 1.275611
420.90 1.275259
421.00 1.274842
421.10 1.274424
421.20 1.274035
421.30 1.273728
421.40 1.273422
421.50 1.273116
421.60 1.272809
421.70 1.272503
421.80 1.272198
421.90 1.271882
422.00 1.271534
422.10 1.271169
422.20 1.270731
422.30 1.270293
422.40 1.269859
422.50 1.26952
422.60 1.269182
422.70 1.268844
422.80 1.268506
422.90 1.268168
423.00 1.26783
423.10 1.267493
423.20 1.267156
423.30 1.266819
423.40 1.266482
423.50 1.266145
423.60 1.265808
423.70 1.265472
423.80 1.265136
423.90 1.2648
424.00 1.264464
424.10 1.264128
424.20 1.263793
424.30 1.263457
424.40 1.263068
424.50 1.262732
424.60 1.262398
424.70 1.262063
424.80 1.261728
424.90 1.261394
425.00 1.26106
425.10 1.260726
425.20 1.260392
425.30 1.260058
425.40 1.259722
425.50 1.259367
425.60 1.259013
425.70 1.258659
425.80 1.258305
425.90 1.257951
426.00 1.257597
426.10 1.257244
426.20 1.256891
426.30 1.256538
426.40 1.256185
426.50 1.255832
426.60 1.25548
426.70 1.255127
426.80 1.254775
426.90 1.254424
427.00 1.254078
427.10 1.253732
427.20 1.253386
427.30 1.253041
427.40 1.252695
427.50 1.25235
427.60 1.252005
427.70 1.251661
427.80 1.251316
427.90 1.250972
428.00 1.250627
428.10 1.250283
428.20 1.24994
428.30 1.249596
428.40 1.249253
428.50 1.248909
428.60 1.248566
428.70 1.248223
428.80 1.247881
428.90 1.247541
429.00 1.247201
429.10 1.246862
429.20 1.246523
429.30 1.246184
429.40 1.245845
429.50 1.245506
429.60 1.245167
429.70 1.244829
429.80 1.244491
429.90 1.244153
430.00 1.243815
430.10 1.243477
430.20 1.24314
430.30 1.242802
430.40 1.242465
430.50 1.242128
430.60 1.241791
430.70 1.241455
430.80 1.241118
430.90 1.240782
431.00 1.240446
431.10 1.24011
431.20 1.239775
431.30 1.239438
431.40 1.239088
431.50 1.238738
431.60 1.238388
431.70 1.238038
431.80 1.237688
431.90 1.237339
432.00 1.23699
432.10 1.236641
432.20 1.236292
432.30 1.235944
432.40 1.235595
432.50 1.235247
432.60 1.234899
432.70 1.234551
432.80 1.234204
432.90 1.233856
433.00 1.233509
433.10 1.233162
433.20 1.232815
433.30 1.232468
433.40 1.232113
433.50 1.231758
433.60 1.231403
433.70 1.231049
433.80 1.23072
433.90 1.230422
434.00 1.230065
434.10 1.229671
434.20 1.229277
434.30 1.228883
434.40 1.22849
434.50 1.228097
434.60 1.227704
434.70 1.227312
434.80 1.226924
434.90 1.226594
435.00 1.226265
435.10 1.225936
435.20 1.225607
435.30 1.225278
435.40 1.22495
435.50 1.224622
435.60 1.224293
435.70 1.223965
435.80 1.223637
435.90 1.22331
436.00 1.222982
436.10 1.222655
436.20 1.222328
436.30 1.221896
436.40 1.22135
436.50 1.220983
436.60 1.220617
436.70 1.220252
436.80 1.219886
436.90 1.219521
437.00 1.219156
437.10 1.218791
437.20 1.218429
437.30 1.21807
437.40 1.217714
437.50 1.217399
437.60 1.217085
437.70 1.216771
437.80 1.216457
437.90 1.216144
438.00 1.215826
438.10 1.215456
438.20 1.215085
438.30 1.214728
438.40 1.214578
438.50 1.214265
438.60 1.213935
438.70 1.213382
438.80 1.213112
438.90 1.212758
439.00 1.212222
439.10 1.211911
439.20 1.211599
439.30 1.211288
439.40 1.210977
439.50 1.210666
439.60 1.210338
439.70 1.209788
439.80 1.209336
439.90 1.209005
440.00 1.208675
440.10 1.208344
440.20 1.208012
440.30 1.207655
440.40 1.207297
440.50 1.206941
440.60 1.206584
440.70 1.206227
440.80 1.205871
440.90 1.205515
441.00 1.205159
441.10 1.204803
441.20 1.204455
441.30 1.204203
441.40 1.203892
441.50 1.203509
441.60 1.203127
441.70 1.20266
441.80 1.202333
441.90 1.202007
442.00 1.20168
442.10 1.201354
442.20 1.201028
442.30 1.200702
442.40 1.200348
442.50 1.199961
442.60 1.199574
442.70 1.199268
442.80 1.199057
442.90 1.198516
443.00 1.198085
443.10 1.197789
443.20 1.197484
443.30 1.197172
443.40 1.196864
443.50 1.19656
443.60 1.19615
443.70 1.195611
443.80 1.195543
443.90 1.195004
444.00 1.194572
444.10 1.194269
444.20 1.193861
444.30 1.193806
444.40 1.193448
444.50 1.19309
444.60 1.192652
444.70 1.192116
444.80 1.191699
444.90 1.191394
445.00 1.191089
445.10 1.190784
445.20 1.190446
445.30 1.190069
445.40 1.189693
445.50 1.189316
445.60 1.18894
445.70 1.188564
445.80 1.188226
445.90 1.187922
446.00 1.187619
446.10 1.187315
446.20 1.186909
446.30 1.186436
446.40 1.186372
446.50 1.185956
446.60 1.185542
446.70 1.185127
446.80 1.184773
446.90 1.184475
447.00 1.184057
447.10 1.183898
447.20 1.183462
447.30 1.182933
447.40 1.182524
447.50 1.182227
447.60 1.181969
447.70 1.181745
447.80 1.181325
447.90 1.181037
448.00 1.180705
448.10 1.180332
448.20 1.179959
448.30 1.179587
448.40 1.179215
448.50 1.178842
448.60 1.178488
448.70 1.178151
448.80 1.177815
448.90 1.17749
449.00 1.177164
449.10 1.176839
449.20 1.176514
449.30 1.1761
449.40 1.175762
449.50 1.175424
449.60 1.175053
449.70 1.174653
449.80 1.174252
449.90 1.173852
450.00 1.173452
450.10 1.173053
450.20 1.172653
450.30 1.172254
450.40 1.171962
450.50 1.171671
450.60 1.171379
450.70 1.171088
450.80 1.170796
450.90 1.170505
451.00 1.17017
451.10 1.169835
451.20 1.169405
451.30 1.168886
451.40 1.168596
451.50 1.168306
451.60 1.167789
451.70 1.167499
451.80 1.167209
451.90 1.166693
452.00 1.166404
452.10 1.166115
452.20 1.165712
452.30 1.16531
452.40 1.164908
452.50 1.164507
452.60 1.164298
452.70 1.164035
452.80 1.163721
452.90 1.163407
453.00 1.163093
453.10 1.16278
453.20 1.162405
453.30 1.16203
453.40 1.161655
453.50 1.16128
453.60 1.160906
453.70 1.160532
453.80 1.160155
453.90 1.159774
454.00 1.159394
454.10 1.159014
454.20 1.158667
454.30 1.158321
454.40 1.157975
454.50 1.15763
454.60 1.157284
454.70 1.156943
454.80 1.156604
454.90 1.156266
455.00 1.155929
455.10 1.155591
455.20 1.155253
455.30 1.154916
455.40 1.154579
455.50 1.154242
455.60 1.153905
455.70 1.153569
455.80 1.153182
455.90 1.152796
456.00 1.15241
456.10 1.152037
456.20 1.151698
456.30 1.151359
456.40 1.15102
456.50 1.150681
456.60 1.150343
456.70 1.150004
456.80 1.149666
456.90 1.149328
457.00 1.148991
457.10 1.148653
457.20 1.14823
457.30 1.147883
457.40 1.147536
457.50 1.14719
457.60 1.146843
457.70 1.146497
457.80 1.146151
457.90 1.145806
458.00 1.14546
458.10 1.145114
458.20 1.144769
458.30 1.144424
458.40 1.144079
458.50 1.143735
458.60 1.14339
458.70 1.142991
458.80 1.14257
458.90 1.14215
459.00 1.141729
459.10 1.141309
459.20 1.140889
459.30 1.140545
459.40 1.140202
459.50 1.139859
459.60 1.139517
459.70 1.139174
459.80 1.138832
459.90 1.138489
460.00 1.138147
460.10 1.137806
460.20 1.137464
460.30 1.137122
460.40 1.136781
460.50 1.13644
460.60 1.136099
460.70 1.135774
460.80 1.135458
460.90 1.135141
461.00 1.134825
461.10 1.134508
461.20 1.134067
461.30 1.133576
461.40 1.133268
461.50 1.133006
461.60 1.132744
461.70 1.132483
461.80 1.132114
461.90 1.131745
462.00 1.131377
462.10 1.131009
462.20 1.130641
462.30 1.130274
462.40 1.129906
462.50 1.129539
462.60 1.129172
462.70 1.128805
462.80 1.128439
462.90 1.128072
463.00 1.127706
463.10 1.12734
463.20 1.126978
463.30 1.126616
463.40 1.126255
463.50 1.125894
463.60 1.125533
463.70 1.125173
463.80 1.124812
463.90 1.12448
464.00 1.124155
464.10 1.123831
464.20 1.123506
464.30 1.123182
464.40 1.122857
464.50 1.122533
464.60 1.12221
464.70 1.121873
464.80 1.121531
464.90 1.121189
465.00 1.120847
465.10 1.120505
465.20 1.120164
465.30 1.119783
465.40 1.119375
465.50 1.118968
465.60 1.118561
465.70 1.118155
465.80 1.117749
465.90 1.117451
466.00 1.11718
466.10 1.116909
466.20 1.116639
466.30 1.116311
466.40 1.115961
466.50 1.11561
466.60 1.11526
466.70 1.11491
466.80 1.11456
466.90 1.11421
467.00 1.11386
467.10 1.113511
467.20 1.113162
467.30 1.112722
467.40 1.112313
467.50 1.111921
467.60 1.111528
467.70 1.111136
467.80 1.110745
467.90 1.110369
468.00 1.110001
468.10 1.109632
468.20 1.109264
468.30 1.108971
468.40 1.108709
468.50 1.108297
468.60 1.108246
468.70 1.107774
468.80 1.107301
468.90 1.106829
469.00 1.106666
469.10 1.106382
469.20 1.106015
469.30 1.105649
469.40 1.105283
469.50 1.104908
469.60 1.104528
469.70 1.104149
469.80 1.103769
469.90 1.103383
470.00 1.103222
470.10 1.102925
470.20 1.102541
470.30 1.102158
470.40 1.101774
470.50 1.101391
470.60 1.101024
470.70 1.100661
470.80 1.100298
470.90 1.099935
471.00 1.099489
471.10 1.099349
471.20 1.098974
471.30 1.098508
471.40 1.098459
471.50 1.097993
471.60 1.097527
471.70 1.097062
471.80 1.09668
471.90 1.09632
472.00 1.095959
472.10 1.095599
472.20 1.095287
472.30 1.094986
472.40 1.094686
472.50 1.094386
472.60 1.094086
472.70 1.093671
472.80 1.093308
472.90 1.09297
473.00 1.092632
473.10 1.092294
473.20 1.091957
473.30 1.09162
473.40 1.091283
473.50 1.090946
473.60 1.090609
473.70 1.090273
473.80 1.089918
473.90 1.089559
474.00 1.089201
474.10 1.088842
474.20 1.088476
474.30 1.088106
474.40 1.087736
474.50 1.087367
474.60 1.087
474.70 1.086655
474.80 1.08631
474.90 1.085966
475.00 1.085621
475.10 1.085277
475.20 1.084933
475.30 1.084589
475.40 1.084237
475.50 1.083882
475.60 1.083528
475.70 1.083173
475.80 1.082819
475.90 1.082466
476.00 1.082112
476.10 1.081759
476.20 1.081418
476.30 1.081082
476.40 1.080747
476.50 1.080411
476.60 1.080076
476.70 1.079741
476.80 1.079406
476.90 1.079067
477.00 1.078728
477.10 1.078388
477.20 1.078049
477.30 1.07771
477.40 1.077371
477.50 1.077032
477.60 1.076693
477.70 1.076355
477.80 1.076017
477.90 1.075679
478.00 1.075341
478.10 1.075003
478.20 1.074666
478.30 1.074328
478.40 1.073991
478.50 1.073654
478.60 1.073318
478.70 1.072902
478.80 1.072454
478.90 1.072068
479.00 1.071699
479.10 1.07133
479.20 1.070961
479.30 1.070592
479.40 1.070247
479.50 1.069915
479.60 1.069583
479.70 1.069251
479.80 1.06892
479.90 1.068589
480.00 1.068258
480.10 1.067927
480.20 1.067596
480.30 1.067265
480.40 1.066935
480.50 1.066605
480.60 1.066275
480.70 1.065945
480.80 1.065616
480.90 1.065286
481.00 1.064957
481.10 1.064628
481.20 1.064259
481.30 1.06389
481.40 1.063521
481.50 1.063153
481.60 1.062785
481.70 1.062416
481.80 1.062049
481.90 1.061681
482.00 1.061313
482.10 1.060946
482.20 1.060582
482.30 1.060256
482.40 1.059929
482.50 1.059603
482.60 1.059277
482.70 1.058952
482.80 1.058626
482.90 1.058301
483.00 1.057976
483.10 1.057651
483.20 1.057326
483.30 1.057001
483.40 1.056677
483.50 1.056353
483.60 1.056029
483.70 1.055667
483.80 1.055305
483.90 1.054944
484.00 1.054583
484.10 1.054222
484.20 1.053858
484.30 1.053493
484.40 1.053128
484.50 1.052764
484.60 1.052399
484.70 1.052036
484.80 1.05169
484.90 1.051343
485.00 1.050996
485.10 1.05065
485.20 1.050304
485.30 1.049958
485.40 1.049612
485.50 1.049266
485.60 1.048921
485.70 1.048597
485.80 1.048273
485.90 1.04795
486.00 1.047626
486.10 1.047303
486.20 1.04698
486.30 1.046657
486.40 1.046334
486.50 1.046012
486.60 1.045689
486.70 1.045359
486.80 1.04493
486.90 1.044501
487.00 1.044072
487.10 1.043643
487.20 1.043322
487.30 1.043001
487.40 1.04268
487.50 1.04236
487.60 1.042039
487.70 1.041719
487.80 1.041399
487.90 1.041079
488.00 1.040759
488.10 1.04044
488.20 1.040118
488.30 1.039769
488.40 1.03942
488.50 1.039071
488.60 1.038723
488.70 1.038374
488.80 1.038092
488.90 1.03781
489.00 1.037503
489.10 1.037132
489.20 1.036761
489.30 1.036391
489.40 1.036021
489.50 1.035651
489.60 1.035281
489.70 1.034911
489.80 1.034494
489.90 1.034148
490.00 1.033802
490.10 1.033456
490.20 1.033111
490.30 1.032765
490.40 1.032441
490.50 1.032116
490.60 1.031792
490.70 1.031468
490.80 1.031072
490.90 1.031012
491.00 1.030592
491.10 1.030172
491.20 1.029753
491.30 1.029334
491.40 1.029299
491.50 1.02888
491.60 1.028462
491.70 1.028043
491.80 1.027651
491.90 1.027591
492.00 1.027173
492.10 1.026756
492.20 1.026339
492.30 1.025922
492.40 1.025888
492.50 1.025471
492.60 1.025061
492.70 1.024741
492.80 1.024421
492.90 1.0241
493.00 1.023779
493.10 1.023439
493.20 1.023099
493.30 1.02276
493.40 1.02242
493.50 1.022081
493.60 1.021667
493.70 1.021253
493.80 1.020839
493.90 1.020498
494.00 1.020268
494.10 1.020003
494.20 1.019663
494.30 1.019323
494.40 1.018983
494.50 1.018643
494.60 1.018298
494.70 1.017886
494.80 1.017505
494.90 1.01721
495.00 1.016915
495.10 1.016621
495.20 1.016288
495.30 1.015956
495.40 1.015624
495.50 1.015292
495.60 1.01496
495.70 1.014629
495.80 1.014298
495.90 1.013967
496.00 1.013636
496.10 1.01328
496.20 1.012878
496.30 1.012562
496.40 1.012247
496.50 1.011932
496.60 1.011617
496.70 1.011265
496.80 1.010914
496.90 1.010563
497.00 1.010212
497.10 1.009861
497.20 1.00951
497.30 1.009146
497.40 1.00874
497.50 1.008334
497.60 1.008025
497.70 1.007902
497.80 1.007538
497.90 1.007174
498.00 1.006811
498.10 1.006448
498.20 1.006085
498.30 1.005723
498.40 1.005361
498.50 1.004998
498.60 1.004636
498.70 1.00442
498.80 1.004204
498.90 1.003801
499.00 1.003399
499.10 1.002997
499.20 1.002595
499.30 1.002217
499.40 1.001904
499.50 1.001592
499.60 1.001279
499.70 1.000967
499.80 1.000644
499.90 1.000322
500.00 1
500.10 0.9996782
500.20 0.9993513
500.30 0.9990136
500.40 0.9986761
500.50 0.9983388
500.60 0.9980017
500.70 0.9976647
500.80 0.9973439
500.90 0.997057
501.00 0.9967703
501.10 0.9964838
501.20 0.9960862
501.30 0.9956888
501.40 0.9952917
501.50 0.9948948
501.60 0.9948299
501.70 0.9944702
501.80 0.9940739
501.90 0.9936778
502.00 0.993282
502.10 0.9928864
502.20 0.9925057
502.30 0.9923206
502.40 0.992088
502.50 0.9917544
502.60 0.9914209
502.70 0.9910877
502.80 0.9907547
502.90 0.9904218
503.00 0.9900696
503.10 0.989676
503.20 0.9892827
503.30 0.9888896
503.40 0.9885198
503.50 0.9882155
503.60 0.9879114
503.70 0.9876075
503.80 0.9872931
503.90 0.9869013
504.00 0.9865385
504.10 0.986237
504.20 0.9859357
504.30 0.9856346
504.40 0.9853102
504.50 0.9849197
504.60 0.9845293
504.70 0.9845033
504.80 0.9841133
504.90 0.9837235
505.00 0.9833339
505.10 0.9829446
505.20 0.9825795
505.30 0.9822828
505.40 0.9819863
505.50 0.9816899
505.60 0.9813834
505.70 0.9810552
505.80 0.9807271
505.90 0.9803992
506.00 0.9800715
506.10 0.979744
506.20 0.9794117
506.30 0.9790653
506.40 0.9787191
506.50 0.9783731
506.60 0.9780273
506.70 0.9776817
506.80 0.9773363
506.90 0.9769911
507.00 0.9766461
507.10 0.9762884
507.20 0.9759211
507.30 0.9756039
507.40 0.9752869
507.50 0.9749701
507.60 0.9746535
507.70 0.9743371
507.80 0.9740208
507.90 0.9737047
508.00 0.9733888
508.10 0.973073
508.20 0.9727574
508.30 0.972442
508.40 0.9721268
508.50 0.9718117
508.60 0.9714968
508.70 0.9711821
508.80 0.9708501
508.90 0.9704686
509.00 0.9700873
509.10 0.9697252
509.20 0.9694037
509.30 0.9690824
509.40 0.9687612
509.50 0.9684402
509.60 0.9681194
509.70 0.9677987
509.80 0.9674783
509.90 0.967158
510.00 0.9668379
510.10 0.966518
510.20 0.9661982
510.30 0.9658776
510.40 0.9655542
510.50 0.9652309
510.60 0.9649079
510.70 0.964585
510.80 0.9642623
510.90 0.9639398
511.00 0.9636174
511.10 0.9632952
511.20 0.9629733
511.30 0.9626514
511.40 0.9623298
511.50 0.9620084
511.60 0.9616856
511.70 0.96136
511.80 0.9610345
511.90 0.9607091
512.00 0.960384
512.10 0.9600591
512.20 0.9597343
512.30 0.9594079
512.40 0.9590765
512.50 0.9587454
512.60 0.9584144
512.70 0.9580836
512.80 0.9577529
512.90 0.9574225
513.00 0.9570923
513.10 0.9567622
513.20 0.9564323
513.30 0.9561026
513.40 0.9557731
513.50 0.9554438
513.60 0.9551146
513.70 0.9547857
513.80 0.9544569
513.90 0.9541283
514.00 0.9537983
514.10 0.9534682
514.20 0.9531384
514.30 0.9528087
514.40 0.9524792
514.50 0.9521499
514.60 0.9518207
514.70 0.9514918
514.80 0.951163
514.90 0.9508344
515.00 0.950506
515.10 0.9501778
515.20 0.9498498
515.30 0.9495219
515.40 0.9491942
515.50 0.9488667
515.60 0.9485394
515.70 0.9482123
515.80 0.9478854
515.90 0.9475586
516.00 0.947232
516.10 0.9469057
516.20 0.9465794
516.30 0.9462534
516.40 0.9459276
516.50 0.9456019
516.60 0.9452764
516.70 0.9449511
516.80 0.944626
516.90 0.9443011
517.00 0.9439764
517.10 0.9436518
517.20 0.9433274
517.30 0.9430032
517.40 0.9426792
517.50 0.9423553
517.60 0.9420317
517.70 0.9417082
517.80 0.9413849
517.90 0.9410617
518.00 0.9407388
518.10 0.940416
518.20 0.9400934
518.30 0.939771
518.40 0.9394488
518.50 0.9391267
518.60 0.9388049
518.70 0.9384832
518.80 0.9381617
518.90 0.9378403
519.00 0.9375192
519.10 0.937198
519.20 0.9368768
519.30 0.9365557
519.40 0.9362349
519.50 0.9359142
519.60 0.9355937
519.70 0.9352734
519.80 0.9349532
519.90 0.9346332
520.00 0.9343134
520.10 0.9339938
520.20 0.9336744
520.30 0.9333551
520.40 0.933036
520.50 0.9327171
520.60 0.9323984
520.70 0.9320798
520.80 0.9317614
520.90 0.9314432
521.00 0.9311252
521.10 0.9308073
521.20 0.9304896
521.30 0.9301721
521.40 0.9298548
521.50 0.9295376
521.60 0.9292207
521.70 0.9289038
521.80 0.9285872
521.90 0.9282708
522.00 0.9279545
522.10 0.9276384
522.20 0.9273224
522.30 0.9270067
522.40 0.9266911
522.50 0.9263757
522.60 0.9260604
522.70 0.9257453
522.80 0.9254304
522.90 0.9251157
523.00 0.9248012
523.10 0.9244868
523.20 0.9241726
523.30 0.9238586
523.40 0.9235447
523.50 0.923231
523.60 0.9229175
523.70 0.9226042
523.80 0.922291
523.90 0.921978
524.00 0.9216652
524.10 0.9213525
524.20 0.92104
524.30 0.9207203
524.40 0.9203949
524.50 0.9200697
524.60 0.9197447
524.70 0.9194199
524.80 0.9190952
524.90 0.9187707
525.00 0.9184464
525.10 0.9181223
525.20 0.9177984
525.30 0.9174746
525.40 0.917151
525.50 0.9168276
525.60 0.9165044
525.70 0.9161814
525.80 0.9158585
525.90 0.9155358
526.00 0.9152133
526.10 0.914891
526.20 0.9145689
526.30 0.9142469
526.40 0.9139251
526.50 0.9136035
526.60 0.9132821
526.70 0.9129608
526.80 0.9126397
526.90 0.9123189
527.00 0.9119981
527.10 0.9116776
527.20 0.9113572
527.30 0.911037
527.40 0.910717
527.50 0.9103972
527.60 0.9100776
527.70 0.9097581
527.80 0.9094388
527.90 0.9091197
528.00 0.9088007
528.10 0.9084819
528.20 0.9081634
528.30 0.9078449
528.40 0.9075267
528.50 0.9072086
528.60 0.9068907
528.70 0.906573
528.80 0.9062555
528.90 0.9059381
529.00 0.9056209
529.10 0.9053039
529.20 0.9049871
529.30 0.9046704
529.40 0.9043539
529.50 0.9040376
529.60 0.9037212
529.70 0.903405
529.80 0.9030889
529.90 0.902773
530.00 0.9024573
530.10 0.9021418
530.20 0.9018265
530.30 0.9015113
530.40 0.9011963
530.50 0.9008814
530.60 0.9005668
530.70 0.9002523
530.80 0.899938
530.90 0.8996238
531.00 0.8993099
531.10 0.8989961
531.20 0.8986825
531.30 0.898369
531.40 0.8980557
531.50 0.8977426
531.60 0.8974297
531.70 0.8971169
531.80 0.8968043
531.90 0.8964919
532.00 0.8961797
532.10 0.8958676
532.20 0.8955557
532.30 0.895244
532.40 0.8949324
532.50 0.8946211
532.60 0.8943098
532.70 0.8939988
532.80 0.8936879
532.90 0.8933772
533.00 0.8930667
533.10 0.8927564
533.20 0.8924462
533.30 0.8921361
533.40 0.8918263
533.50 0.8915166
533.60 0.8912071
533.70 0.8908978
533.80 0.8905886
533.90 0.8902796
534.00 0.8899708
534.10 0.8896621
534.20 0.8893536
534.30 0.8890453
534.40 0.8887371
534.50 0.8884291
534.60 0.8881213
534.70 0.8878136
534.80 0.8875061
534.90 0.8871985
535.00 0.8868912
535.10 0.8865839
535.20 0.8862769
535.30 0.88597
535.40 0.8856632
535.50 0.8853567
535.60 0.8850503
535.70 0.8847441
535.80 0.884438
535.90 0.8841321
536.00 0.8838264
536.10 0.8835208
536.20 0.8832154
536.30 0.8829102
536.40 0.8826052
536.50 0.8823003
536.60 0.8819955
536.70 0.881691
536.80 0.8813866
536.90 0.8810823
537.00 0.8807783
537.10 0.8804744
537.20 0.8801706
537.30 0.8798671
537.40 0.8795637
537.50 0.8792604
537.60 0.8789574
537.70 0.8786544
537.80 0.8783517
537.90 0.8780491
538.00 0.8777467
538.10 0.8774445
538.20 0.8771424
538.30 0.8768404
538.40 0.8765387
538.50 0.8762371
538.60 0.8759356
538.70 0.8756344
538.80 0.8753333
538.90 0.8750323
539.00 0.8747315
539.10 0.8744309
539.20 0.8741305
539.30 0.8738302
539.40 0.8735301
539.50 0.8732301
539.60 0.8729303
539.70 0.8726306
539.80 0.8723312
539.90 0.8720318
540.00 0.8717327
540.10 0.8714337
540.20 0.8711263
540.30 0.8708157
540.40 0.8705052
540.50 0.8701948
540.60 0.8698847
540.70 0.8695747
540.80 0.8692649
540.90 0.8689552
541.00 0.8686458
541.10 0.8683365
541.20 0.8680273
541.30 0.8677183
541.40 0.8674095
541.50 0.8671009
541.60 0.8667925
541.70 0.8664842
541.80 0.866176
541.90 0.8658681
542.00 0.8655603
542.10 0.8652527
542.20 0.8649452
542.30 0.8646379
542.40 0.8643308
542.50 0.8640239
542.60 0.8637171
542.70 0.8634105
542.80 0.863104
542.90 0.8627977
543.00 0.8624916
543.10 0.8621857
543.20 0.8618799
543.30 0.8615743
543.40 0.8612689
543.50 0.8609636
543.60 0.8606585
543.70 0.8603535
543.80 0.8600487
543.90 0.8597441
544.00 0.8594397
544.10 0.8591354
544.20 0.8588313
544.30 0.8585273
544.40 0.8582235
544.50 0.8579199
544.60 0.8576165
544.70 0.8573132
544.80 0.85701
544.90 0.8567071
545.00 0.8564043
545.10 0.8561016
545.20 0.8557992
545.30 0.8554969
545.40 0.8551947
545.50 0.8548928
545.60 0.8545909
545.70 0.8542891
545.80 0.8539875
545.90 0.8536861
546.00 0.8533848
546.10 0.8530837
546.20 0.8527827
546.30 0.852482
546.40 0.8521813
546.50 0.8518809
546.60 0.8515806
546.70 0.8512804
546.80 0.8509805
546.90 0.8506807
547.00 0.850381
547.10 0.8500815
547.20 0.8497822
547.30 0.8494831
547.40 0.8491841
547.50 0.8488852
547.60 0.8485866
547.70 0.8482881
547.80 0.8479897
547.90 0.8476915
548.00 0.8473935
548.10 0.8470956
548.20 0.8467979
548.30 0.8465004
548.40 0.846203
548.50 0.8459058
548.60 0.8456087
548.70 0.8453118
548.80 0.8450151
548.90 0.8447185
549.00 0.8444221
549.10 0.8441258
549.20 0.8438297
549.30 0.8435338
549.40 0.843238
549.50 0.8429424
549.60 0.8426469
549.70 0.8423516
549.80 0.8420565
549.90 0.8417615
550.00 0.8414667
550.10 0.841172
550.20 0.8408775
550.30 0.8405831
550.40 0.840289
550.50 0.8399949
550.60 0.8397011
550.70 0.8394073
550.80 0.8391138
550.90 0.8388204
551.00 0.8385271
551.10 0.8382339
551.20 0.8379409
551.30 0.837648
551.40 0.8373553
551.50 0.8370627
551.60 0.8367703
551.70 0.836478
551.80 0.8361859
551.90 0.835894
552.00 0.8356022
552.10 0.8353106
552.20 0.8350191
552.30 0.8347278
552.40 0.8344366
552.50 0.8341456
552.60 0.8338548
552.70 0.8335641
552.80 0.8332736
552.90 0.8329832
553.00 0.8326929
553.10 0.8324029
553.20 0.832113
553.30 0.8318232
553.40 0.8315336
553.50 0.8312442
553.60 0.8309549
553.70 0.8306657
553.80 0.8303702
553.90 0.8300704
554.00 0.8297707
554.10 0.8294712
554.20 0.8291719
554.30 0.8288728
554.40 0.8285738
554.50 0.828275
554.60 0.8279763
554.70 0.8276778
554.80 0.8273794
554.90 0.8270813
555.00 0.8267832
555.10 0.8264854
555.20 0.8261877
555.30 0.8258901
555.40 0.8255928
555.50 0.8252956
555.60 0.8249985
555.70 0.8247016
555.80 0.8244049
555.90 0.8241083
556.00 0.8238119
556.10 0.8235156
556.20 0.8232195
556.30 0.8229236
556.40 0.8226278
556.50 0.8223325
556.60 0.8220424
556.70 0.8217525
556.80 0.8214627
556.90 0.8211731
557.00 0.8208836
557.10 0.8205943
557.20 0.8203052
557.30 0.8200162
557.40 0.8197273
557.50 0.8194387
557.60 0.8191501
557.70 0.8188618
557.80 0.8185735
557.90 0.8182855
558.00 0.8179976
558.10 0.8177098
558.20 0.8174222
558.30 0.8171347
558.40 0.8168474
558.50 0.8165603
558.60 0.8162733
558.70 0.8159865
558.80 0.8156998
558.90 0.8154132
559.00 0.8151269
559.10 0.8148406
559.20 0.8145546
559.30 0.8142686
559.40 0.8139829
559.50 0.8136972
559.60 0.8134118
559.70 0.8131265
559.80 0.8128413
559.90 0.8125563
560.00 0.8122714
560.10 0.8119867
560.20 0.8117022
560.30 0.8114178
560.40 0.8111335
560.50 0.8108494
560.60 0.8105655
560.70 0.8102817
560.80 0.809998
560.90 0.8097145
561.00 0.8094312
561.10 0.809148
561.20 0.8088649
561.30 0.808582
561.40 0.8082993
561.50 0.8080167
561.60 0.8077342
561.70 0.8074519
561.80 0.8071698
561.90 0.8068878
562.00 0.806606
562.10 0.8063221
562.20 0.8060353
562.30 0.8057487
562.40 0.8054621
562.50 0.8051758
562.60 0.8048896
562.70 0.8046035
562.80 0.8043176
562.90 0.8040319
563.00 0.8037463
563.10 0.8034608
563.20 0.8031755
563.30 0.8028904
563.40 0.8026054
563.50 0.8023206
563.60 0.8020359
563.70 0.8017513
563.80 0.8014669
563.90 0.8011827
564.00 0.8008986
564.10 0.8006147
564.20 0.8003309
564.30 0.8000473
564.40 0.7997638
564.50 0.7994805
564.60 0.7991973
564.70 0.7989143
564.80 0.7986314
564.90 0.7983487
565.00 0.7980661
565.10 0.7977837
565.20 0.7975014
565.30 0.7972193
565.40 0.7969373
565.50 0.7966555
565.60 0.7963738
565.70 0.7960923
565.80 0.7958109
565.90 0.7955296
566.00 0.7952486
566.10 0.7949676
566.20 0.7946869
566.30 0.7944062
566.40 0.7941257
566.50 0.7938454
566.60 0.7935652
566.70 0.7932852
566.80 0.7930053
566.90 0.7927255
567.00 0.7924459
567.10 0.7921665
567.20 0.7918872
567.30 0.791608
567.40 0.791329
567.50 0.7910502
567.60 0.7907715
567.70 0.7904919
567.80 0.7902084
567.90 0.7899251
568.00 0.7896419
568.10 0.7893589
568.20 0.789076
568.30 0.7887933
568.40 0.7885107
568.50 0.7882283
568.60 0.787946
568.70 0.7876639
568.80 0.7873819
568.90 0.7871001
569.00 0.7868184
569.10 0.7865368
569.20 0.7862555
569.30 0.7859742
569.40 0.7856931
569.50 0.7854122
569.60 0.7851314
569.70 0.7848508
569.80 0.7845703
569.90 0.7842899
570.00 0.7840097
570.10 0.7837297
570.20 0.7834498
570.30 0.7831701
570.40 0.7828905
570.50 0.782611
570.60 0.7823317
570.70 0.7820525
570.80 0.7817735
570.90 0.7814947
571.00 0.781216
571.10 0.7809374
571.20 0.780659
571.30 0.7803807
571.40 0.7801026
571.50 0.7798246
571.60 0.7795467
571.70 0.7792691
571.80 0.7789915
571.90 0.7787141
572.00 0.7784369
572.10 0.7781598
572.20 0.7778828
572.30 0.777606
572.40 0.7773294
572.50 0.7770528
572.60 0.7767765
572.70 0.7765002
572.80 0.7762242
572.90 0.7759482
573.00 0.7756724
573.10 0.7753968
573.20 0.7751213
573.30 0.7748459
573.40 0.77457
573.50 0.7742932
573.60 0.7740165
573.70 0.77374
573.80 0.7734637
573.90 0.7731874
574.00 0.7729114
574.10 0.7726354
574.20 0.7723597
574.30 0.772084
574.40 0.7718085
574.50 0.7715332
574.60 0.771258
574.70 0.7709829
574.80 0.770708
574.90 0.7704332
575.00 0.7701586
575.10 0.7698841
575.20 0.7696098
575.30 0.7693356
575.40 0.7690615
575.50 0.7687876
575.60 0.7685139
575.70 0.7682403
575.80 0.7679668
575.90 0.7676934
576.00 0.7674203
576.10 0.7671472
576.20 0.7668743
576.30 0.7666016
576.40 0.7663289
576.50 0.7660565
576.60 0.7657842
576.70 0.765512
576.80 0.7652399
576.90 0.764968
577.00 0.7646963
577.10 0.7644247
577.20 0.7641532
577.30 0.7638819
577.40 0.7636107
577.50 0.7633396
577.60 0.7630712
577.70 0.7628071
577.80 0.7625431
577.90 0.7622792
578.00 0.7620154
578.10 0.7617518
578.20 0.7614884
578.30 0.761225
578.40 0.7609618
578.50 0.7606988
578.60 0.7604359
578.70 0.7601731
578.80 0.7599104
578.90 0.7596479
579.00 0.7593855
579.10 0.7591207
579.20 0.7588302
579.30 0.7585397
579.40 0.7582495
579.50 0.7579594
579.60 0.7576694
579.70 0.7573796
579.80 0.75709
579.90 0.7568005
580.00 0.7565111
580.10 0.7562327
580.20 0.7559721
580.30 0.7557116
580.40 0.7554512
580.50 0.7551909
580.60 0.7549308
580.70 0.7546708
580.80 0.754411
580.90 0.7541512
581.00 0.7538917
581.10 0.7536322
581.20 0.7533729
581.30 0.7531137
581.40 0.7528547
581.50 0.7525958
581.60 0.752337
581.70 0.7520783
581.80 0.7518198
581.90 0.7515614
582.00 0.7513032
582.10 0.7510381
582.20 0.7507619
582.30 0.7504859
582.40 0.7502099
582.50 0.7499341
582.60 0.7496585
582.70 0.749383
582.80 0.7491077
582.90 0.7488325
583.00 0.7485574
583.10 0.7482825
583.20 0.7480077
583.30 0.7477331
583.40 0.7474586
583.50 0.7471843
583.60 0.7469092
583.70 0.7466326
583.80 0.7463563
583.90 0.74608
584.00 0.7458039
584.10 0.745528
584.20 0.7452522
584.30 0.7449766
584.40 0.744701
584.50 0.7444257
584.60 0.7441505
584.70 0.7438754
584.80 0.7436005
584.90 0.7433294
585.00 0.7430753
585.10 0.7428213
585.20 0.7425675
585.30 0.7423137
585.40 0.7420602
585.50 0.7418067
585.60 0.7415534
585.70 0.7413002
585.80 0.7410471
585.90 0.7407942
586.00 0.7405414
586.10 0.7402887
586.20 0.7400361
586.30 0.7397837
586.40 0.7395314
586.50 0.7392792
586.60 0.7390272
586.70 0.7387753
586.80 0.7384979
586.90 0.738179
587.00 0.7378602
587.10 0.7375416
587.20 0.7372487
587.30 0.7369977
587.40 0.7367468
587.50 0.736496
587.60 0.7362453
587.70 0.7359948
587.80 0.7357444
587.90 0.7354941
588.00 0.735244
588.10 0.734994
588.20 0.7347441
588.30 0.7344943
588.40 0.7342447
588.50 0.7339952
588.60 0.7337458
588.70 0.7334965
588.80 0.7332474
588.90 0.7329984
589.00 0.7327394
589.10 0.7324639
589.20 0.7321886
589.30 0.7319134
589.40 0.7316384
589.50 0.7313635
589.60 0.7310887
589.70 0.7308141
589.80 0.7305397
589.90 0.7302654
590.00 0.7300013
590.10 0.7297539
590.20 0.7295066
590.30 0.7292595
590.40 0.7290125
590.50 0.7287656
590.60 0.7285188
590.70 0.7282722
590.80 0.7280036
590.90 0.7277253
591.00 0.7274471
591.10 0.727169
591.20 0.7268911
591.30 0.7266133
591.40 0.7263357
591.50 0.7260582
591.60 0.7257863
591.70 0.7255234
591.80 0.7252605
591.90 0.7249979
592.00 0.7247353
592.10 0.7244729
592.20 0.7242106
592.30 0.7239485
592.40 0.7236864
592.50 0.7234246
592.60 0.7231628
592.70 0.7229012
592.80 0.7226398
592.90 0.7223784
593.00 0.7221172
593.10 0.7218578
593.20 0.7216013
593.30 0.7213449
593.40 0.7210886
593.50 0.7208325
593.60 0.7205765
593.70 0.7203206
593.80 0.7200649
593.90 0.7198093
594.00 0.7195538
594.10 0.7192984
594.20 0.7190432
594.30 0.7187881
594.40 0.7185332
594.50 0.7182783
594.60 0.7180236
594.70 0.7177691
594.80 0.7175146
594.90 0.7172603
595.00 0.7170062
595.10 0.7167508
595.20 0.7164933
595.30 0.716236
595.40 0.7159789
595.50 0.7157218
595.60 0.7154649
595.70 0.7152082
595.80 0.7149515
595.90 0.714695
596.00 0.7144386
596.10 0.7141824
596.20 0.7139263
596.30 0.7136703
596.40 0.7134144
596.50 0.7131587
596.60 0.7129031
596.70 0.7126579
596.80 0.7124191
596.90 0.7121804
597.00 0.7119419
597.10 0.7117034
597.20 0.7114651
597.30 0.7112269
597.40 0.7109888
597.50 0.7107508
597.60 0.7105073
597.70 0.7102546
597.80 0.7100021
597.90 0.7097497
598.00 0.7094974
598.10 0.7092453
598.20 0.7089933
598.30 0.7087414
598.40 0.7084896
598.50 0.708238
598.60 0.7079865
598.70 0.7077351
598.80 0.7074838
598.90 0.7072327
599.00 0.7069817
599.10 0.7067309
599.20 0.7064801
599.30 0.7062295
599.40 0.7059681
599.50 0.7057068
599.60 0.7054456
599.70 0.7051846
599.80 0.7049237
599.90 0.7046629
600.00 0.7044023
600.10 0.7041418
600.20 0.7038814
600.30 0.7036212
600.40 0.7033611
600.50 0.7031012
600.60 0.7028413
600.70 0.7025816
600.80 0.7023221
600.90 0.7020627
601.00 0.7018034
601.10 0.7015442
601.20 0.7012852
601.30 0.7010263
601.40 0.7007736
601.50 0.7005209
601.60 0.7002684
601.70 0.7000161
601.80 0.6997638
601.90 0.6995117
602.00 0.6992597
602.10 0.6990078
602.20 0.6987561
602.30 0.6985045
602.40 0.698253
602.50 0.6980017
602.60 0.6977505
602.70 0.697518
602.80 0.6972866
602.90 0.6970393
603.00 0.6967922
603.10 0.6965452
603.20 0.6962984
603.30 0.6960516
603.40 0.695805
603.50 0.6955585
603.60 0.6953122
603.70 0.695066
603.80 0.6948198
603.90 0.6945739
604.00 0.694328
604.10 0.6940823
604.20 0.6938366
604.30 0.6935912
604.40 0.6933458
604.50 0.693091
604.60 0.6928364
604.70 0.6925819
604.80 0.6923276
604.90 0.6920733
605.00 0.6918192
605.10 0.6915652
605.20 0.6913114
605.30 0.6910577
605.40 0.6908041
605.50 0.690576
605.60 0.6903479
605.70 0.69012
605.80 0.6898922
605.90 0.6896645
606.00 0.6894369
606.10 0.6891463
606.20 0.6888558
606.30 0.6885655
606.40 0.6882754
606.50 0.6880485
606.60 0.6878216
606.70 0.6875949
606.80 0.6873683
606.90 0.6871418
607.00 0.6869154
607.10 0.6866891
607.20 0.686463
607.30 0.686174
607.40 0.6858853
607.50 0.6855967
607.60 0.6853082
607.70 0.6850827
607.80 0.6848573
607.90 0.684632
608.00 0.6844068
608.10 0.6841817
608.20 0.6839567
608.30 0.6837319
608.40 0.6835071
608.50 0.6832825
608.60 0.683058
608.70 0.6828032
608.80 0.6825349
608.90 0.6822668
609.00 0.6819988
609.10 0.681731
609.20 0.6814633
609.30 0.681224
609.40 0.6809848
609.50 0.6807458
609.60 0.6805069
609.70 0.6802681
609.80 0.6800294
609.90 0.6797908
610.00 0.6795524
610.10 0.679314
610.20 0.6790758
610.30 0.6788378
610.40 0.6785998
610.50 0.678362
610.60 0.6781242
610.70 0.6778866
610.80 0.6776491
610.90 0.6773942
611.00 0.6771393
611.10 0.6768846
611.20 0.6766301
611.30 0.6763756
611.40 0.6761213
611.50 0.6758671
611.60 0.675613
611.70 0.6753591
611.80 0.6751053
611.90 0.6748517
612.00 0.6745981
612.10 0.6743447
612.20 0.6740914
612.30 0.6738383
612.40 0.6736059
612.50 0.6733736
612.60 0.6731414
612.70 0.6729093
612.80 0.6726774
612.90 0.6724456
613.00 0.6722138
613.10 0.6719822
613.20 0.6717507
613.30 0.6715194
613.40 0.6712881
613.50 0.671057
613.60 0.670826
613.70 0.670595
613.80 0.6703642
613.90 0.6701336
614.00 0.669903
614.10 0.6696725
614.20 0.6694422
614.30 0.669212
614.40 0.6689352
614.50 0.6686586
614.60 0.6683822
614.70 0.6681059
614.80 0.667859
614.90 0.6676182
615.00 0.6673776
615.10 0.6671371
615.20 0.6668967
615.30 0.6666564
615.40 0.6664163
615.50 0.6661762
615.60 0.6659363
615.70 0.6656965
615.80 0.6654569
615.90 0.6652173
616.00 0.6649779
616.10 0.6647386
616.20 0.6644994
616.30 0.6642603
616.40 0.6640214
616.50 0.6637825
616.60 0.6635438
616.70 0.6633053
616.80 0.6630668
616.90 0.6628278
617.00 0.662589
617.10 0.6623503
617.20 0.6621118
617.30 0.6618733
617.40 0.661635
617.50 0.6613968
617.60 0.6611587
617.70 0.6609207
617.80 0.6606828
617.90 0.6604451
618.00 0.6602075
618.10 0.65997
618.20 0.6597326
618.30 0.6594953
618.40 0.6592582
618.50 0.6590212
618.60 0.6587842
618.70 0.6585475
618.80 0.6583108
618.90 0.6580742
619.00 0.6578378
619.10 0.6576015
619.20 0.6573653
619.30 0.6571292
619.40 0.6568933
619.50 0.6566574
619.60 0.6564217
619.70 0.6561861
619.80 0.6559506
619.90 0.6557152
620.00 0.65548
620.10 0.6552449
620.20 0.6550099
620.30 0.654775
620.40 0.6545402
620.50 0.6543055
620.60 0.654071
620.70 0.6538365
620.80 0.6536022
620.90 0.6533682
621.00 0.6531345
621.10 0.652901
621.20 0.6526676
621.30 0.6524343
621.40 0.6522011
621.50 0.651968
621.60 0.6517351
621.70 0.6515023
621.80 0.6512696
621.90 0.651037
622.00 0.6508045
622.10 0.6505721
622.20 0.6503398
622.30 0.6501077
622.40 0.6498757
622.50 0.6496438
622.60 0.649412
622.70 0.6491803
622.80 0.6489488
622.90 0.6487173
623.00 0.648486
623.10 0.6482548
623.20 0.6480237
623.30 0.6477927
623.40 0.6475618
623.50 0.6473311
623.60 0.6471004
623.70 0.6468699
623.80 0.6466395
623.90 0.6464092
624.00 0.646179
624.10 0.6459489
624.20 0.645719
624.30 0.6454891
624.40 0.6452594
624.50 0.6450298
624.60 0.6448003
624.70 0.6445709
624.80 0.6443417
624.90 0.6441125
625.00 0.6438835
625.10 0.6436545
625.20 0.6434257
625.30 0.643197
625.40 0.6429684
625.50 0.6427399
625.60 0.6425116
625.70 0.6422833
625.80 0.6420552
625.90 0.6418272
626.00 0.6415993
626.10 0.6413715
626.20 0.6411438
626.30 0.6409162
626.40 0.6406888
626.50 0.6404614
626.60 0.6402342
626.70 0.6400071
626.80 0.63978
626.90 0.6395531
627.00 0.6393264
627.10 0.6390977
627.20 0.6388639
627.30 0.6386301
627.40 0.6383965
627.50 0.638163
627.60 0.6379296
627.70 0.6376963
627.80 0.6374632
627.90 0.6372301
628.00 0.6369972
628.10 0.6367644
628.20 0.6365317
628.30 0.6362991
628.40 0.6360666
628.50 0.6358343
628.60 0.6356021
628.70 0.6353699
628.80 0.6351379
628.90 0.6349061
629.00 0.6346743
629.10 0.6344426
629.20 0.6342111
629.30 0.6339797
629.40 0.6337483
629.50 0.6335172
629.60 0.6332861
629.70 0.6330551
629.80 0.6328243
629.90 0.6325935
630.00 0.6323629
630.10 0.6321324
630.20 0.631902
630.30 0.6316786
630.40 0.6314559
630.50 0.6312333
630.60 0.6310108
630.70 0.6307884
630.80 0.6305661
630.90 0.6303439
631.00 0.6301219
631.10 0.6298999
631.20 0.6296781
631.30 0.6294564
631.40 0.6292347
631.50 0.6290132
631.60 0.6287918
631.70 0.6285705
631.80 0.6283493
631.90 0.6281282
632.00 0.6279073
632.10 0.6276864
632.20 0.6274657
632.30 0.627245
632.40 0.6270245
632.50 0.626804
632.60 0.6265837
632.70 0.6263635
632.80 0.6261434
632.90 0.6259234
633.00 0.6257035
633.10 0.6254837
633.20 0.6252641
633.30 0.6250445
633.40 0.6248211
633.50 0.6245946
633.60 0.6243683
633.70 0.6241421
633.80 0.623916
633.90 0.62369
634.00 0.6234641
634.10 0.6232383
634.20 0.6230127
634.30 0.6227871
634.40 0.6225617
634.50 0.6223363
634.60 0.6221111
634.70 0.621886
634.80 0.621661
634.90 0.6214362
635.00 0.6212114
635.10 0.6209867
635.20 0.6207622
635.30 0.6205377
635.40 0.6203134
635.50 0.6200892
635.60 0.6198651
635.70 0.6196411
635.80 0.6194172
635.90 0.6191934
636.00 0.6189697
636.10 0.6187462
636.20 0.6185227
636.30 0.6182994
636.40 0.6180762
636.50 0.6178531
636.60 0.6176301
636.70 0.6174072
636.80 0.6171844
636.90 0.6169617
637.00 0.6167392
637.10 0.6165167
637.20 0.6162944
637.30 0.6160721
637.40 0.61585
637.50 0.615628
637.60 0.6154061
637.70 0.6151843
637.80 0.6149626
637.90 0.614741
638.00 0.6145196
638.10 0.6142982
638.20 0.6140769
638.30 0.6138558
638.40 0.6136348
638.50 0.6134138
638.60 0.613193
638.70 0.6129723
638.80 0.6127517
638.90 0.6125312
639.00 0.6123108
639.10 0.6120905
639.20 0.6118704
639.30 0.6116503
639.40 0.6114303
639.50 0.6112105
639.60 0.6109907
639.70 0.6107712
639.80 0.6105519
639.90 0.6103328
640.00 0.6101138
640.10 0.6098949
640.20 0.609676
640.30 0.6094573
640.40 0.6092387
640.50 0.6090203
640.60 0.6088019
640.70 0.6085836
640.80 0.6083654
640.90 0.6081474
641.00 0.6079294
641.10 0.6077115
641.20 0.6074938
641.30 0.6072762
641.40 0.6070586
641.50 0.6068412
641.60 0.6066239
641.70 0.6064067
641.80 0.6061896
641.90 0.6059726
642.00 0.6057557
642.10 0.6055389
642.20 0.6053222
642.30 0.6051056
642.40 0.6048891
642.50 0.6046728
642.60 0.6044565
642.70 0.6042403
642.80 0.6040243
642.90 0.6038083
643.00 0.6035925
643.10 0.6033767
643.20 0.6031611
643.30 0.6029456
643.40 0.6027301
643.50 0.6025148
643.60 0.6022996
643.70 0.6020845
643.80 0.6018694
643.90 0.6016545
644.00 0.6014397
644.10 0.601225
644.20 0.6010104
644.30 0.6007959
644.40 0.6005816
644.50 0.6003673
644.60 0.6001531
644.70 0.599939
644.80 0.599725
644.90 0.5995112
645.00 0.5992974
645.10 0.5990838
645.20 0.5988702
645.30 0.5986567
645.40 0.5984434
645.50 0.5982302
645.60 0.598017
645.70 0.597804
645.80 0.597591
645.90 0.5973782
646.00 0.5971655
646.10 0.5969529
646.20 0.5967407
646.30 0.5965285
646.40 0.5963165
646.50 0.5961045
646.60 0.5958927
646.70 0.595681
646.80 0.5954693
646.90 0.5952578
647.00 0.5950464
647.10 0.5948351
647.20 0.5946238
647.30 0.5944127
647.40 0.5942017
647.50 0.5939908
647.60 0.59378
647.70 0.5935692
647.80 0.5933586
647.90 0.5931481
648.00 0.5929377
648.10 0.5927274
648.20 0.5925172
648.30 0.5923071
648.40 0.5920971
648.50 0.5918872
648.60 0.5916774
648.70 0.5914677
648.80 0.5912581
648.90 0.5910486
649.00 0.5908392
649.10 0.5906299
649.20 0.5904207
649.30 0.5902116
649.40 0.5900027
649.50 0.5897938
649.60 0.589585
649.70 0.5893763
649.80 0.5891677
649.90 0.5889592
650.00 0.5887509
650.10 0.5885426
650.20 0.5883344
650.30 0.5881263
650.40 0.5879184
650.50 0.5877105
650.60 0.5875027
650.70 0.587295
650.80 0.5870874
650.90 0.58688
651.00 0.5866726
651.10 0.5864653
651.20 0.5862581
651.30 0.586051
651.40 0.5858441
651.50 0.5856372
651.60 0.5854304
651.70 0.5852237
651.80 0.5850171
651.90 0.5848106
652.00 0.5846043
652.10 0.584398
652.20 0.5841918
652.30 0.5839857
652.40 0.5837797
652.50 0.5835738
652.60 0.5833632
652.70 0.5831501
652.80 0.582937
652.90 0.5827241
653.00 0.5825113
653.10 0.5822986
653.20 0.582086
653.30 0.5818734
653.40 0.581661
653.50 0.5814487
653.60 0.5812365
653.70 0.5810244
653.80 0.5808124
653.90 0.5806005
654.00 0.5803887
654.10 0.580177
654.20 0.5799654
654.30 0.579754
654.40 0.5795426
654.50 0.5793313
654.60 0.5791201
654.70 0.578909
654.80 0.5786981
654.90 0.5784872
655.00 0.5782764
655.10 0.5780657
655.20 0.5778552
655.30 0.5776447
655.40 0.5774343
655.50 0.5772241
655.60 0.5770139
655.70 0.5768038
655.80 0.5765956
655.90 0.5763874
656.00 0.5761794
656.10 0.5759715
656.20 0.5757636
656.30 0.5755559
656.40 0.5753482
656.50 0.5751407
656.60 0.5749333
656.70 0.5747259
656.80 0.5745187
656.90 0.5743115
657.00 0.5741045
657.10 0.5738975
657.20 0.5736907
657.30 0.573484
657.40 0.5732773
657.50 0.5730708
657.60 0.5728643
657.70 0.572658
657.80 0.5724839
657.90 0.5722806
658.00 0.5720722
658.10 0.571864
658.20 0.5716559
658.30 0.5714478
658.40 0.5712399
658.50 0.571032
658.60 0.5708243
658.70 0.5706166
658.80 0.5704091
658.90 0.5702017
659.00 0.5699943
659.10 0.5698008
659.20 0.5696279
659.30 0.569436
659.40 0.5692442
659.50 0.5690524
659.60 0.5688608
659.70 0.5686692
659.80 0.5684778
659.90 0.5682864
660.00 0.5680951
660.10 0.5679039
660.20 0.5677128
660.30 0.5675218
660.40 0.5673098
660.50 0.5670942
660.60 0.5668787
660.70 0.5666633
660.80 0.566448
660.90 0.5662341
661.00 0.5660204
661.10 0.5658067
661.20 0.5655931
661.30 0.5653797
661.40 0.5651663
661.50 0.5649531
661.60 0.5647399
661.70 0.5645269
661.80 0.564314
661.90 0.5641435
662.00 0.563973
662.10 0.5638027
662.20 0.5636324
662.30 0.5634622
662.40 0.5632921
662.50 0.5630692
662.60 0.5628465
662.70 0.5626238
662.80 0.5624013
662.90 0.5622316
663.00 0.562062
663.10 0.5617871
663.20 0.5615122
663.30 0.5613429
663.40 0.5611737
663.50 0.5610046
663.60 0.5608355
663.70 0.5605686
663.80 0.5603018
663.90 0.5601184
664.00 0.5599497
664.10 0.559746
664.20 0.5595424
664.30 0.559339
664.40 0.5591356
664.50 0.5589323
664.60 0.5587291
664.70 0.5585353
664.80 0.5583415
664.90 0.5581478
665.00 0.5579542
665.10 0.5577607
665.20 0.5575673
665.30 0.557374
665.40 0.5571808
665.50 0.5570095
665.60 0.5568422
665.70 0.5566615
665.80 0.5564669
665.90 0.5562724
666.00 0.556078
666.10 0.5558837
666.20 0.5556894
666.30 0.5554953
666.40 0.5553013
666.50 0.555101
666.60 0.5548997
666.70 0.5546984
666.80 0.5544973
666.90 0.5542963
667.00 0.5540953
667.10 0.5538283
667.20 0.5535496
667.30 0.5533838
667.40 0.5532179
667.50 0.5530522
667.60 0.5528865
667.70 0.5527209
667.80 0.5523474
667.90 0.552182
668.00 0.5520167
668.10 0.5518515
668.20 0.5516863
668.30 0.5514771
668.40 0.5512602
668.50 0.5510434
668.60 0.5508267
668.70 0.5506542
668.80 0.5504493
668.90 0.5502445
669.00 0.5500398
669.10 0.5498351
669.20 0.5496306
669.30 0.5494428
669.40 0.5492579
669.50 0.5490732
669.60 0.5488885
669.70 0.5487039
669.80 0.5485194
669.90 0.548335
670.00 0.5481507
670.10 0.5479664
670.20 0.5477823
670.30 0.5475795
670.40 0.5473737
670.50 0.5471679
670.60 0.5469622
670.70 0.5467566
670.80 0.5465566
670.90 0.5463567
671.00 0.5461569
671.10 0.5459572
671.20 0.5457576
671.30 0.5455581
671.40 0.5453587
671.50 0.5451594
671.60 0.5449602
671.70 0.5447611
671.80 0.5445621
671.90 0.5443945
672.00 0.5442324
672.10 0.5440705
672.20 0.5439086
672.30 0.5437468
672.40 0.5435424
672.50 0.5433348
672.60 0.5431274
672.70 0.54292
672.80 0.5427127
672.90 0.5425056
673.00 0.5422985
673.10 0.5420915
673.20 0.5418847
673.30 0.5417237
673.40 0.5415368
673.50 0.5413453
673.60 0.5411539
673.70 0.5409626
673.80 0.5407714
673.90 0.5405803
674.00 0.5403893
674.10 0.5401984
674.20 0.5400075
674.30 0.5398168
674.40 0.5396261
674.50 0.5394355
674.60 0.539245
674.70 0.5390547
674.80 0.5388643
674.90 0.5386741
675.00 0.538484
675.10 0.538294
675.20 0.538104
675.30 0.5379142
675.40 0.5377227
675.50 0.5375309
675.60 0.5373393
675.70 0.5371478
675.80 0.5369563
675.90 0.536765
676.00 0.5365737
676.10 0.5363825
676.20 0.5361914
676.30 0.5360004
676.40 0.5358095
676.50 0.5356187
676.60 0.535428
676.70 0.5352374
676.80 0.5350468
676.90 0.5348563
677.00 0.534666
677.10 0.5344757
677.20 0.5342855
677.30 0.5340954
677.40 0.5339054
677.50 0.5337154
677.60 0.5335256
677.70 0.5333359
677.80 0.5331462
677.90 0.5329558
678.00 0.5327654
678.10 0.5325751
678.20 0.5323849
678.30 0.5321947
678.40 0.5320047
678.50 0.5318147
678.60 0.5316248
678.70 0.531435
678.80 0.5312453
678.90 0.5310557
679.00 0.5308662
679.10 0.5306771
679.20 0.5304883
679.30 0.5302996
679.40 0.5301109
679.50 0.5299224
679.60 0.5297339
679.70 0.5295455
679.80 0.5293572
679.90 0.529169
680.00 0.5289809
680.10 0.5287929
680.20 0.5286049
680.30 0.5284171
680.40 0.5282293
680.50 0.5280416
680.60 0.527854
680.70 0.5276665
680.80 0.5274791
680.90 0.5272918
681.00 0.5271045
681.10 0.5269174
681.20 0.5267303
681.30 0.5265433
681.40 0.5263564
681.50 0.5261696
681.60 0.5259829
681.70 0.5257962
681.80 0.5256097
681.90 0.5254232
682.00 0.5252369
682.10 0.5250506
682.20 0.5248644
682.30 0.5246783
682.40 0.5244922
682.50 0.5243063
682.60 0.5241204
682.70 0.5239347
682.80 0.523749
682.90 0.5235634
683.00 0.5233779
683.10 0.5231925
683.20 0.5230071
683.30 0.5228219
683.40 0.5226367
683.50 0.5224516
683.60 0.5222666
683.70 0.5220817
683.80 0.5218969
683.90 0.5217122
684.00 0.5215275
684.10 0.521343
684.20 0.5211585
684.30 0.5209741
684.40 0.5207898
684.50 0.5206056
684.60 0.5204214
684.70 0.5202374
684.80 0.5200534
684.90 0.5198695
685.00 0.5196857
685.10 0.519502
685.20 0.5193184
685.30 0.5191349
685.40 0.5189514
685.50 0.518768
685.60 0.5185847
685.70 0.5184015
685.80 0.5182184
685.90 0.5180334
686.00 0.5178479
686.10 0.5176624
686.20 0.5174771
686.30 0.5172919
686.40 0.5171067
686.50 0.5169217
686.60 0.5167367
686.70 0.5165518
686.80 0.516367
686.90 0.5161822
687.00 0.5159976
687.10 0.5158131
687.20 0.5156286
687.30 0.5154442
687.40 0.5152599
687.50 0.5150757
687.60 0.5148916
687.70 0.5147075
687.80 0.5145236
687.90 0.5143397
688.00 0.5141559
688.10 0.5139722
688.20 0.5137886
688.30 0.5136051
688.40 0.5134216
688.50 0.5132383
688.60 0.513055
688.70 0.5128718
688.80 0.5126887
688.90 0.5125057
689.00 0.5123227
689.10 0.5121399
689.20 0.5119571
689.30 0.5117744
689.40 0.5115918
689.50 0.5114093
689.60 0.5112269
689.70 0.5110446
689.80 0.5108623
689.90 0.5106801
690.00 0.510498
690.10 0.510316
690.20 0.5101341
690.30 0.5099523
690.40 0.5097705
690.50 0.5095888
690.60 0.5094072
690.70 0.5092257
690.80 0.5090443
690.90 0.508863
691.00 0.5086817
691.10 0.5085005
691.20 0.5083195
691.30 0.5081385
691.40 0.5079575
691.50 0.5077767
691.60 0.507596
691.70 0.5074153
691.80 0.5072347
691.90 0.5070542
692.00 0.5068738
692.10 0.5066934
692.20 0.5065132
692.30 0.506333
692.40 0.5061529
692.50 0.5059729
692.60 0.505793
692.70 0.5056139
692.80 0.5054378
692.90 0.5052617
693.00 0.5050857
693.10 0.5049098
693.20 0.504734
693.30 0.5045583
693.40 0.5043826
693.50 0.504207
693.60 0.5040315
693.70 0.5038561
693.80 0.5036808
693.90 0.5035055
694.00 0.5033303
694.10 0.5031552
694.20 0.5029802
694.30 0.5028053
694.40 0.5026304
694.50 0.5024556
694.60 0.5022809
694.70 0.5021063
694.80 0.5019318
694.90 0.5017573
695.00 0.5015829
695.10 0.5014086
695.20 0.5012344
695.30 0.5010603
695.40 0.5008862
695.50 0.5007122
695.60 0.5005383
695.70 0.5003645
695.80 0.5001907
695.90 0.5000171
696.00 0.4998435
696.10 0.49967
696.20 0.4994966
696.30 0.4993232
696.40 0.4991499
696.50 0.4989767
696.60 0.4987969
696.70 0.4986155
696.80 0.4984342
696.90 0.4982529
697.00 0.4980718
697.10 0.4978907
697.20 0.4977098
697.30 0.4975289
697.40 0.4973481
697.50 0.4971673
697.60 0.4969867
697.70 0.4968061
697.80 0.4966257
697.90 0.4964453
698.00 0.496265
698.10 0.4960847
698.20 0.4959046
698.30 0.4957245
698.40 0.4955446
698.50 0.4953647
698.60 0.4951849
698.70 0.4950051
698.80 0.4948255
698.90 0.4946459
699.00 0.4944664
699.10 0.4942915
699.20 0.4941178
699.30 0.4939441
699.40 0.4937705
699.50 0.493597
699.60 0.4934236
699.70 0.4932555
699.80 0.4930877
699.90 0.4929201
700.00 0.4927525
700.10 0.4925849
700.20 0.4924175
700.30 0.4922501
700.40 0.4920828
700.50 0.4919156
700.60 0.4917485
700.70 0.4915814
700.80 0.4914144
700.90 0.4912475
701.00 0.4910807
701.10 0.490905
701.20 0.4907272
701.30 0.4905496
701.40 0.490372
701.50 0.4901945
701.60 0.4900171
701.70 0.4898398
701.80 0.4896625
701.90 0.4894854
702.00 0.4893083
702.10 0.4891313
702.20 0.4889544
702.30 0.4887775
702.40 0.4886008
702.50 0.4884241
702.60 0.4882494
702.70 0.4880752
702.80 0.4879011
702.90 0.4877271
703.00 0.4875532
703.10 0.4873793
703.20 0.4872056
703.30 0.4870319
703.40 0.4868582
703.50 0.4866847
703.60 0.4865113
703.70 0.4863379
703.80 0.4861646
703.90 0.4859914
704.00 0.4858182
704.10 0.4856452
704.20 0.4854703
704.30 0.485295
704.40 0.4851199
704.50 0.4849448
704.60 0.4847698
704.70 0.4845949
704.80 0.48442
704.90 0.4842453
705.00 0.4840706
705.10 0.483896
705.20 0.4837265
705.30 0.4835582
705.40 0.4833901
705.50 0.483222
705.60 0.483054
705.70 0.4828861
705.80 0.4827434
705.90 0.4826066
706.00 0.4824699
706.10 0.4823332
706.20 0.4821213
706.30 0.4818919
706.40 0.4817378
706.50 0.4816014
706.60 0.4814651
706.70 0.4813289
706.80 0.4811175
706.90 0.4808886
707.00 0.4807349
707.10 0.480599
707.20 0.4804631
707.30 0.4803272
707.40 0.4801414
707.50 0.4799439
707.60 0.4797465
707.70 0.4795492
707.80 0.479352
707.90 0.4791549
708.00 0.4789929
708.10 0.4788391
708.20 0.4786854
708.30 0.4785317
708.40 0.4783782
708.50 0.4782247
708.60 0.4780712
708.70 0.4779179
708.80 0.4777646
708.90 0.4776113
709.00 0.4774451
709.10 0.4772758
709.20 0.4771067
709.30 0.4769376
709.40 0.4767686
709.50 0.4765997
709.60 0.4764308
709.70 0.476262
709.80 0.4760933
709.90 0.4759247
710.00 0.4757561
710.10 0.4755877
710.20 0.4754193
710.30 0.475251
710.40 0.4750827
710.50 0.4749145
710.60 0.4747446
710.70 0.4745743
710.80 0.474404
710.90 0.4742339
711.00 0.4740638
711.10 0.4738938
711.20 0.4737239
711.30 0.473554
711.40 0.4733842
711.50 0.4732145
711.60 0.4730449
711.70 0.4728754
711.80 0.4727059
711.90 0.4725365
712.00 0.4723672
712.10 0.4722006
712.20 0.4720348
712.30 0.4718689
712.40 0.4717032
712.50 0.4715376
712.60 0.471372
712.70 0.4712065
712.80 0.471041
712.90 0.4708757
713.00 0.4707104
713.10 0.4705452
713.20 0.4703801
713.30 0.470215
713.40 0.47005
713.50 0.4698851
713.60 0.4697203
713.70 0.4695494
713.80 0.4693661
713.90 0.4691829
714.00 0.4689998
714.10 0.4688351
714.20 0.4686747
714.30 0.4685144
714.40 0.4683542
714.50 0.468194
714.60 0.468034
714.70 0.4678739
714.80 0.467714
714.90 0.4675541
715.00 0.4673943
715.10 0.4672346
715.20 0.4670749
715.30 0.4669153
715.40 0.4667558
715.50 0.4665964
715.60 0.466437
715.70 0.4662777
715.80 0.4661185
715.90 0.4659593
716.00 0.4658002
716.10 0.4656412
716.20 0.4654822
716.30 0.4653234
716.40 0.4651646
716.50 0.4650058
716.60 0.4648434
716.70 0.4646802
716.80 0.464517
716.90 0.4643539
717.00 0.4641909
717.10 0.464028
717.20 0.4638651
717.30 0.4637023
717.40 0.4635396
717.50 0.463377
717.60 0.4632144
717.70 0.4630519
717.80 0.4628895
717.90 0.4627271
718.00 0.4625648
718.10 0.4624026
718.20 0.4622388
718.30 0.4620742
718.40 0.4619096
718.50 0.4617451
718.60 0.4615807
718.70 0.4614163
718.80 0.4612521
718.90 0.4610879
719.00 0.4609237
719.10 0.4607597
719.20 0.4605957
719.30 0.4604318
719.40 0.4602679
719.50 0.4601042
719.60 0.4599405
719.70 0.4597769
719.80 0.4596133
719.90 0.4594499
720.00 0.4592865
720.10 0.4591231
720.20 0.4589599
720.30 0.4587967
720.40 0.4586336
720.50 0.4584706
720.60 0.4583076
720.70 0.458168
720.80 0.4580408
720.90 0.4578763
721.00 0.4577104
721.10 0.4575445
721.20 0.4573786
721.30 0.4572129
721.40 0.4570472
721.50 0.4568816
721.60 0.4567161
721.70 0.4565506
721.80 0.4563852
721.90 0.4562199
722.00 0.4560547
722.10 0.4558895
722.20 0.4557244
722.30 0.4555594
722.40 0.4553945
722.50 0.4552296
722.60 0.4550648
722.70 0.4549099
722.80 0.4547604
722.90 0.4546109
723.00 0.4544615
723.10 0.4543122
723.20 0.4541629
723.30 0.4540137
723.40 0.4538646
723.50 0.4537155
723.60 0.4535665
723.70 0.4534175
723.80 0.4532686
723.90 0.4531198
724.00 0.4529711
724.10 0.4528224
724.20 0.4526604
724.30 0.4524912
724.40 0.4523221
724.50 0.452153
724.60 0.4519841
724.70 0.4518152
724.80 0.4516464
724.90 0.4514777
725.00 0.451309
725.10 0.4511405
725.20 0.450972
725.30 0.4508036
725.40 0.4506352
725.50 0.4504669
725.60 0.4502988
725.70 0.4501306
725.80 0.4499798
725.90 0.4498382
726.00 0.4496967
726.10 0.4495552
726.20 0.4494138
726.30 0.4492725
726.40 0.4491312
726.50 0.44899
726.60 0.4488489
726.70 0.4487078
726.80 0.4485402
726.90 0.4483583
727.00 0.4481764
727.10 0.4479947
727.20 0.447813
727.30 0.4476314
727.40 0.4474879
727.50 0.4473649
727.60 0.447242
727.70 0.447119
727.80 0.4469393
727.90 0.446729
728.00 0.4465756
728.10 0.446453
728.20 0.4463304
728.30 0.4462078
728.40 0.4460285
728.50 0.4458187
728.60 0.4456373
728.70 0.4454714
728.80 0.4453055
728.90 0.4451397
729.00 0.4449834
729.10 0.4448322
729.20 0.4446812
729.30 0.4445302
729.40 0.4443792
729.50 0.4442284
729.60 0.4440738
729.70 0.4439172
729.80 0.4437608
729.90 0.4436044
730.00 0.443448
730.10 0.4432918
730.20 0.4431356
730.30 0.4429794
730.40 0.4428234
730.50 0.4426674
730.60 0.4425129
730.70 0.4423592
730.80 0.4422056
730.90 0.4420521
731.00 0.4418986
731.10 0.4417452
731.20 0.4415918
731.30 0.4414385
731.40 0.4412853
731.50 0.4411322
731.60 0.4409791
731.70 0.4408261
731.80 0.4406732
731.90 0.4405203
732.00 0.4403675
732.10 0.4402148
732.20 0.4400607
732.30 0.4399059
732.40 0.4397512
732.50 0.4395966
732.60 0.439442
732.70 0.4392875
732.80 0.4391331
732.90 0.4389787
733.00 0.4388245
733.10 0.4386702
733.20 0.4385161
733.30 0.438362
733.40 0.438208
733.50 0.438054
733.60 0.4379001
733.70 0.4377484
733.80 0.437598
733.90 0.4374475
734.00 0.4372972
734.10 0.4371469
734.20 0.4369967
734.30 0.4368465
734.40 0.4366964
734.50 0.4365464
734.60 0.4363964
734.70 0.4362465
734.80 0.4360967
734.90 0.435947
735.00 0.4357973
735.10 0.4356476
735.20 0.4354981
735.30 0.435347
735.40 0.4351787
735.50 0.4350103
735.60 0.4348421
735.70 0.4346886
735.80 0.434543
735.90 0.4343976
736.00 0.4342521
736.10 0.4341068
736.20 0.4339615
736.30 0.4338162
736.40 0.433671
736.50 0.4335259
736.60 0.4333809
736.70 0.4332359
736.80 0.433091
736.90 0.4329461
737.00 0.4328013
737.10 0.4326566
737.20 0.4325119
737.30 0.4323673
737.40 0.4322227
737.50 0.4320782
737.60 0.4319338
737.70 0.4317895
737.80 0.4316452
737.90 0.4315009
738.00 0.4313567
738.10 0.4312126
738.20 0.4310642
738.30 0.4309135
738.40 0.4307628
738.50 0.4306123
738.60 0.4304617
738.70 0.4303113
738.80 0.4301609
738.90 0.4300106
739.00 0.4298603
739.10 0.4297101
739.20 0.42956
739.30 0.4294099
739.40 0.4292599
739.50 0.42911
739.60 0.4289601
739.70 0.4288103
739.80 0.4286606
739.90 0.4285109
740.00 0.4283613
740.10 0.4282118
740.20 0.4280623
740.30 0.4279129
740.40 0.4277636
740.50 0.4276143
740.60 0.4274651
740.70 0.4273159
740.80 0.4271669
740.90 0.4270178
741.00 0.4268689
741.10 0.42672
741.20 0.4265712
741.30 0.4264224
741.40 0.4262737
741.50 0.4261251
741.60 0.4259765
741.70 0.425828
741.80 0.4256796
741.90 0.4255312
742.00 0.4253829
742.10 0.4252347
742.20 0.4250865
742.30 0.4249384
742.40 0.4247903
742.50 0.4246424
742.60 0.4244944
742.70 0.4243472
742.80 0.4242004
742.90 0.4240538
743.00 0.4239072
743.10 0.4237606
743.20 0.4236142
743.30 0.4234678
743.40 0.4233214
743.50 0.4231751
743.60 0.4230289
743.70 0.4228824
743.80 0.4227346
743.90 0.4225869
744.00 0.4224392
744.10 0.4222916
744.20 0.4221441
744.30 0.4219966
744.40 0.4218492
744.50 0.4217018
744.60 0.4215546
744.70 0.4214073
744.80 0.4212602
744.90 0.4211131
745.00 0.4209661
745.10 0.4208191
745.20 0.4206722
745.30 0.4205254
745.40 0.4203786
745.50 0.4202319
745.60 0.4200852
745.70 0.4199387
745.80 0.4197921
745.90 0.4196457
746.00 0.4194993
746.10 0.419353
746.20 0.4192067
746.30 0.4190605
746.40 0.4189144
746.50 0.4187683
746.60 0.4186223
746.70 0.4184763
746.80 0.4183305
746.90 0.4181846
747.00 0.4180389
747.10 0.4178932
747.20 0.4177476
747.30 0.417602
747.40 0.4174565
747.50 0.417311
747.60 0.4171657
747.70 0.4170203
747.80 0.4168751
747.90 0.4167299
748.00 0.4165848
748.10 0.4164397
748.20 0.4162947
748.30 0.4161497
748.40 0.4160049
748.50 0.4158601
748.60 0.4157153
748.70 0.4155706
748.80 0.415426
748.90 0.4152814
749.00 0.4151369
749.10 0.4149925
749.20 0.4148481
749.30 0.4147038
749.40 0.4145595
749.50 0.4144153
749.60 0.4142712
749.70 0.4141271
749.80 0.4139831
749.90 0.4138392
750.00 0.4136953
750.10 0.4135522
750.20 0.4134112
750.30 0.4132703
750.40 0.4131294
750.50 0.4129886
750.60 0.4128478
750.70 0.4127071
750.80 0.4125665
750.90 0.4124259
751.00 0.4122854
751.10 0.4121449
751.20 0.4120045
751.30 0.4118642
751.40 0.4117239
751.50 0.4115837
751.60 0.4114435
751.70 0.4113034
751.80 0.4111634
751.90 0.4110234
752.00 0.4108835
752.10 0.4107436
752.20 0.4106038
752.30 0.4104641
752.40 0.4103244
752.50 0.4101848
752.60 0.4100452
752.70 0.4099057
752.80 0.4097663
752.90 0.4096269
753.00 0.4094876
753.10 0.4093483
753.20 0.4092091
753.30 0.4090699
753.40 0.4089309
753.50 0.4087918
753.60 0.4086529
753.70 0.408514
753.80 0.4083751
753.90 0.4082329
754.00 0.4080899
754.10 0.4079468
754.20 0.4078039
754.30 0.407661
754.40 0.4075182
754.50 0.4073754
754.60 0.4072327
754.70 0.40709
754.80 0.4069474
754.90 0.4068049
755.00 0.4066624
755.10 0.40652
755.20 0.4063777
755.30 0.4062354
755.40 0.4060932
755.50 0.405951
755.60 0.4058089
755.70 0.4056669
755.80 0.4055249
755.90 0.405383
756.00 0.4052412
756.10 0.4050994
756.20 0.4049576
756.30 0.404816
756.40 0.4046743
756.50 0.4045328
756.60 0.4043913
756.70 0.4042499
756.80 0.4041085
756.90 0.4039672
757.00 0.403826
757.10 0.4036848
757.20 0.4035436
757.30 0.4034026
757.40 0.4032616
757.50 0.4031206
757.60 0.4029798
757.70 0.4028394
757.80 0.4026989
757.90 0.4025586
758.00 0.4024183
758.10 0.402278
758.20 0.4021379
758.30 0.4019977
758.40 0.4018577
758.50 0.4017177
758.60 0.4015778
758.70 0.4014379
758.80 0.4012981
758.90 0.4011583
759.00 0.4010186
759.10 0.400879
759.20 0.4007394
759.30 0.4005999
759.40 0.4004604
759.50 0.400321
759.60 0.4001817
759.70 0.4000424
759.80 0.3999031
759.90 0.399764
760.00 0.3996249
760.10 0.3994858
760.20 0.3993468
760.30 0.3992079
760.40 0.3990691
760.50 0.3989302
760.60 0.3987915
760.70 0.3986528
760.80 0.3985142
760.90 0.3983756
761.00 0.3982371
761.10 0.3980986
761.20 0.3979602
761.30 0.3978219
761.40 0.3976853
761.50 0.3975513
761.60 0.3974174
761.70 0.3972835
761.80 0.3971497
761.90 0.3970159
762.00 0.3968822
762.10 0.3967485
762.20 0.3966149
762.30 0.3964814
762.40 0.3963479
762.50 0.3962145
762.60 0.3960811
762.70 0.3959478
762.80 0.3958145
762.90 0.3956813
763.00 0.3955482
763.10 0.3954151
763.20 0.395282
763.30 0.3951491
763.40 0.3950161
763.50 0.3948833
763.60 0.3947505
763.70 0.3946177
763.80 0.394485
763.90 0.3943524
764.00 0.3942198
764.10 0.3940872
764.20 0.3939548
764.30 0.3938223
764.40 0.39369
764.50 0.3935577
764.60 0.3934254
764.70 0.3932932
764.80 0.3931611
764.90 0.393029
765.00 0.392897
765.10 0.392765
765.20 0.3926311
765.30 0.3924953
765.40 0.3923597
765.50 0.3922241
765.60 0.3920886
765.70 0.3919531
765.80 0.3918177
765.90 0.3916823
766.00 0.391547
766.10 0.3914117
766.20 0.3912765
766.30 0.3911414
766.40 0.3910063
766.50 0.3908713
766.60 0.3907363
766.70 0.3906014
766.80 0.3904666
766.90 0.3903318
767.00 0.390197
767.10 0.3900623
767.20 0.3899277
767.30 0.3897932
767.40 0.3896586
767.50 0.3895242
767.60 0.3893898
767.70 0.3892555
767.80 0.3891212
767.90 0.3889869
768.00 0.3888528
768.10 0.3887187
768.20 0.3885846
768.30 0.3884506
768.40 0.3883167
768.50 0.3881828
768.60 0.3880489
768.70 0.3879152
768.80 0.3877815
768.90 0.3876478
769.00 0.3875142
769.10 0.3873806
769.20 0.3872472
769.30 0.3871137
769.40 0.3869803
769.50 0.386847
769.60 0.3867137
769.70 0.3865805
769.80 0.3864474
769.90 0.3863143
770.00 0.3861812
770.10 0.3860483
770.20 0.3859153
770.30 0.3857825
770.40 0.3856496
770.50 0.3855169
770.60 0.3853842
770.70 0.3852515
770.80 0.3851189
770.90 0.3849864
771.00 0.3848539
771.10 0.3847215
771.20 0.3845891
771.30 0.3844568
771.40 0.3843245
771.50 0.3841923
771.60 0.3840602
771.70 0.3839281
771.80 0.383796
771.90 0.3836641
772.00 0.3835321
772.10 0.3834003
772.20 0.3832685
772.30 0.3831367
772.40 0.383005
772.50 0.3828733
772.60 0.3827417
772.70 0.3826102
772.80 0.3824787
772.90 0.3823476
773.00 0.3822166
773.10 0.3820856
773.20 0.3819546
773.30 0.3818237
773.40 0.3816929
773.50 0.3815621
773.60 0.3814314
773.70 0.3813007
773.80 0.3811701
773.90 0.3810396
774.00 0.380909
774.10 0.3807786
774.20 0.3806482
774.30 0.3805179
774.40 0.3803876
774.50 0.3802573
774.60 0.3801272
774.70 0.379997
774.80 0.379867
774.90 0.379737
775.00 0.379607
775.10 0.3794771
775.20 0.3793472
775.30 0.3792175
775.40 0.3790877
775.50 0.378958
775.60 0.3788284
775.70 0.3786988
775.80 0.3785693
775.90 0.3784398
776.00 0.3783104
776.10 0.378181
776.20 0.3780517
776.30 0.3779225
776.40 0.3777933
776.50 0.3776641
776.60 0.377535
776.70 0.377406
776.80 0.377277
776.90 0.3771481
777.00 0.3770192
777.10 0.3768904
777.20 0.3767616
777.30 0.3766329
777.40 0.3765042
777.50 0.3763756
777.60 0.3762471
777.70 0.3761186
777.80 0.3759901
777.90 0.3758617
778.00 0.3757334
778.10 0.3756051
778.20 0.3754769
778.30 0.3753487
778.40 0.3752206
778.50 0.3750925
778.60 0.3749645
778.70 0.3748365
778.80 0.3747086
778.90 0.3745808
779.00 0.374453
779.10 0.3743252
779.20 0.3741975
779.30 0.3740699
779.40 0.3739423
779.50 0.3738147
779.60 0.3736872
779.70 0.3735598
779.80 0.3734324
779.90 0.3733051
780.00 0.3731778
780.10 0.3730506
780.20 0.3729234
780.30 0.3727963
780.40 0.3726693
780.50 0.3725423
780.60 0.3724136
780.70 0.3722843
780.80 0.3721551
780.90 0.3720259
781.00 0.3718968
781.10 0.3717677
781.20 0.3716387
781.30 0.3715098
781.40 0.3713809
781.50 0.371252
781.60 0.3711232
781.70 0.3709945
781.80 0.3708658
781.90 0.3707372
782.00 0.3706086
782.10 0.3704801
782.20 0.3703516
782.30 0.3702232
782.40 0.3700948
782.50 0.3699665
782.60 0.3698382
782.70 0.36971
782.80 0.3695819
782.90 0.3694538
783.00 0.3693257
783.10 0.3691977
783.20 0.3690698
783.30 0.3689419
783.40 0.3688141
783.50 0.3686863
783.60 0.3685586
783.70 0.3684309
783.80 0.3683033
783.90 0.3681757
784.00 0.3680482
784.10 0.3679207
784.20 0.3677933
784.30 0.367666
784.40 0.3675387
784.50 0.3674114
784.60 0.3672847
784.70 0.3671591
784.80 0.3670335
784.90 0.366908
785.00 0.3667825
785.10 0.3666571
785.20 0.3665317
785.30 0.3664064
785.40 0.3662811
785.50 0.3661559
785.60 0.3660308
785.70 0.3659057
785.80 0.3657806
785.90 0.3656556
786.00 0.3655307
786.10 0.3654058
786.20 0.3652809
786.30 0.3651561
786.40 0.3650314
786.50 0.3649067
786.60 0.364782
786.70 0.3646575
786.80 0.3645329
786.90 0.3644084
787.00 0.364284
787.10 0.3641596
787.20 0.3640353
787.30 0.363911
787.40 0.3637868
787.50 0.3636626
787.60 0.3635385
787.70 0.3634144
787.80 0.3632904
787.90 0.3631664
788.00 0.3630425
788.10 0.3629186
788.20 0.3627948
788.30 0.362671
788.40 0.3625483
788.50 0.362426
788.60 0.3623039
788.70 0.3621817
788.80 0.3620597
788.90 0.3619376
789.00 0.3618157
789.10 0.3616937
789.20 0.3615719
789.30 0.3614501
789.40 0.3613283
789.50 0.3612066
789.60 0.3610849
789.70 0.3609633
789.80 0.3608417
789.90 0.3607202
790.00 0.3605987
790.10 0.3604773
790.20 0.3603559
790.30 0.3602346
790.40 0.3601133
790.50 0.3599921
790.60 0.3598709
790.70 0.3597498
790.80 0.3596287
790.90 0.3595077
791.00 0.3593867
791.10 0.3592658
791.20 0.3591449
791.30 0.3590241
791.40 0.3589033
791.50 0.3587826
791.60 0.3586619
791.70 0.3585413
791.80 0.3584207
791.90 0.3583002
792.00 0.3581797
792.10 0.3580592
792.20 0.3579389
792.30 0.3578185
792.40 0.3576982
792.50 0.357578
792.60 0.3574578
792.70 0.3573377
792.80 0.3572176
792.90 0.3570975
793.00 0.3569775
793.10 0.3568576
793.20 0.3567377
793.30 0.3566178
793.40 0.3564981
793.50 0.3563783
793.60 0.3562586
793.70 0.356139
793.80 0.3560194
793.90 0.3558998
794.00 0.3557803
794.10 0.3556608
794.20 0.3555414
794.30 0.3554221
794.40 0.3553028
794.50 0.3551835
794.60 0.3550643
794.70 0.3549451
794.80 0.354826
794.90 0.354707
795.00 0.3545879
795.10 0.354469
795.20 0.3543501
795.30 0.3542312
795.40 0.3541124
795.50 0.3539936
795.60 0.3538749
795.70 0.3537562
795.80 0.3536376
795.90 0.353519
796.00 0.3534005
796.10 0.353282
796.20 0.3531635
796.30 0.3530439
796.40 0.352924
796.50 0.3528042
796.60 0.3526844
796.70 0.3525647
796.80 0.352445
796.90 0.3523253
797.00 0.3522058
797.10 0.3520862
797.20 0.3519668
797.30 0.3518473
797.40 0.3517279
797.50 0.3516086
797.60 0.3514893
797.70 0.3513701
797.80 0.3512509
797.90 0.3511317
798.00 0.3510126
798.10 0.3508936
798.20 0.3507746
798.30 0.3506557
798.40 0.3505368
798.50 0.3504179
798.60 0.3502991
798.70 0.3501804
798.80 0.3500616
798.90 0.349943
799.00 0.3498244
799.10 0.3497058
799.20 0.3495873
799.30 0.3494689
799.40 0.3493504
799.50 0.3492321
799.60 0.3491138
799.70 0.3489955
799.80 0.3488773
799.90 0.3487591
800.00 0.348641
800.10 0.3485229
800.20 0.3484049
800.30 0.3482869
800.40 0.348169
800.50 0.3480511
800.60 0.3479332
800.70 0.3478154
800.80 0.3476977
800.90 0.34758
801.00 0.3474624
801.10 0.3473448
801.20 0.3472272
801.30 0.3471097
801.40 0.3469923
801.50 0.3468749
801.60 0.3467575
801.70 0.3466402
801.80 0.3465229
801.90 0.3464057
802.00 0.3462886
802.10 0.3461714
802.20 0.3460544
802.30 0.3459373
802.40 0.3458204
802.50 0.3457034
802.60 0.3455866
802.70 0.3454697
802.80 0.3453529
802.90 0.3452362
803.00 0.3451195
803.10 0.3450029
803.20 0.3448863
803.30 0.3447697
803.40 0.3446532
803.50 0.3445368
803.60 0.3444204
803.70 0.344304
803.80 0.3441877
803.90 0.3440714
804.00 0.3439552
804.10 0.343839
804.20 0.3437226
804.30 0.343605
804.40 0.3434875
804.50 0.3433701
804.60 0.3432527
804.70 0.3431353
804.80 0.343018
804.90 0.3429007
805.00 0.3427835
805.10 0.3426663
805.20 0.3425492
805.30 0.3424321
805.40 0.3423151
805.50 0.3421981
805.60 0.3420812
805.70 0.3419643
805.80 0.3418474
805.90 0.3417307
806.00 0.3416139
806.10 0.3414972
806.20 0.3413806
806.30 0.341264
806.40 0.3411474
806.50 0.3410309
806.60 0.3409144
806.70 0.340798
806.80 0.3406817
806.90 0.3405653
807.00 0.3404491
807.10 0.3403328
807.20 0.3402167
807.30 0.3401005
807.40 0.3399844
807.50 0.3398684
807.60 0.3397524
807.70 0.3396365
807.80 0.3395206
807.90 0.3394047
808.00 0.3392889
808.10 0.3391732
808.20 0.3390575
808.30 0.3389454
808.40 0.3388333
808.50 0.3387213
808.60 0.3386093
808.70 0.3384973
808.80 0.3383854
808.90 0.3382735
809.00 0.3381617
809.10 0.33805
809.20 0.3379382
809.30 0.3378266
809.40 0.3377149
809.50 0.3376033
809.60 0.3374918
809.70 0.3373803
809.80 0.3372688
809.90 0.3371574
810.00 0.337046
810.10 0.3369347
810.20 0.3368234
810.30 0.3367122
810.40 0.336601
810.50 0.3364899
810.60 0.3363788
810.70 0.3362677
810.80 0.3361567
810.90 0.3360458
811.00 0.3359348
811.10 0.335824
811.20 0.3357131
811.30 0.3356023
811.40 0.3354916
811.50 0.3353809
811.60 0.3352702
811.70 0.3351596
811.80 0.3350491
811.90 0.3349385
812.00 0.3348281
812.10 0.3347176
812.20 0.3346072
812.30 0.3344953
812.40 0.3343829
812.50 0.3342706
812.60 0.3341583
812.70 0.334046
812.80 0.3339339
812.90 0.3338217
813.00 0.3337096
813.10 0.3335976
813.20 0.3334856
813.30 0.3333736
813.40 0.3332617
813.50 0.3331498
813.60 0.333038
813.70 0.3329262
813.80 0.3328145
813.90 0.3327028
814.00 0.3325911
814.10 0.3324795
814.20 0.332368
814.30 0.3322565
814.40 0.332145
814.50 0.3320336
814.60 0.3319222
814.70 0.3318108
814.80 0.3316996
814.90 0.3315883
815.00 0.3314771
815.10 0.331366
815.20 0.3312548
815.30 0.3311438
815.40 0.3310328
815.50 0.3309218
815.60 0.3308108
815.70 0.3307
815.80 0.3305891
815.90 0.3304783
816.00 0.3303675
816.10 0.3302568
816.20 0.3301462
816.30 0.3300355
816.40 0.329925
816.50 0.3298144
816.60 0.3297039
816.70 0.3295935
816.80 0.3294831
816.90 0.3293727
817.00 0.3292624
817.10 0.3291522
817.20 0.3290419
817.30 0.3289318
817.40 0.3288216
817.50 0.3287115
817.60 0.3286015
817.70 0.3284915
817.80 0.3283815
817.90 0.3282716
818.00 0.3281617
818.10 0.3280519
818.20 0.3279421
818.30 0.3278324
818.40 0.3277227
818.50 0.327613
818.60 0.3275034
818.70 0.3273938
818.80 0.3272843
818.90 0.3271748
819.00 0.3270654
819.10 0.326956
819.20 0.3268467
819.30 0.3267356
819.40 0.3266234
819.50 0.3265112
819.60 0.3263991
819.70 0.326287
819.80 0.326175
819.90 0.326063
820.00 0.3259511
820.10 0.3258421
820.20 0.3257627
820.30 0.3256832
820.40 0.3255862
820.50 0.3254765
820.60 0.3253668
820.70 0.3252572
820.80 0.3251476
820.90 0.3250381
821.00 0.3249285
821.10 0.3248191
821.20 0.3247097
821.30 0.3246003
821.40 0.324491
821.50 0.3243817
821.60 0.3242724
821.70 0.3241632
821.80 0.3240541
821.90 0.323945
822.00 0.3238359
822.10 0.3237269
822.20 0.3236179
822.30 0.323509
822.40 0.3234001
822.50 0.3232912
822.60 0.3231824
822.70 0.3230737
822.80 0.3229649
822.90 0.3228563
823.00 0.3227476
823.10 0.322639
823.20 0.3225305
823.30 0.322422
823.40 0.3223135
823.50 0.3222051
823.60 0.3220967
823.70 0.3219884
823.80 0.3218801
823.90 0.3217719
824.00 0.3216637
824.10 0.3215555
824.20 0.3214474
824.30 0.3213393
824.40 0.3212313
824.50 0.3211233
824.60 0.3210154
824.70 0.3209075
824.80 0.3207996
824.90 0.3206918
825.00 0.320584
825.10 0.3204763
825.20 0.3203686
825.30 0.320261
825.40 0.3201534
825.50 0.3200458
825.60 0.3199383
825.70 0.3198308
825.80 0.3197234
825.90 0.319616
826.00 0.3195086
826.10 0.3194013
826.20 0.3192941
826.30 0.3191872
826.40 0.3190805
826.50 0.3189738
826.60 0.3188672
826.70 0.3187607
826.80 0.3186541
826.90 0.3185477
827.00 0.3184412
827.10 0.3183348
827.20 0.3182285
827.30 0.3181222
827.40 0.3180159
827.50 0.3179097
827.60 0.3178035
827.70 0.3176974
827.80 0.3175913
827.90 0.3174852
828.00 0.3173792
828.10 0.3172732
828.20 0.3171673
828.30 0.3170614
828.40 0.3169556
828.50 0.3168498
828.60 0.316744
828.70 0.3166382
828.80 0.3165325
828.90 0.3164268
829.00 0.3163211
829.10 0.3162155
829.20 0.3161099
829.30 0.3160044
829.40 0.3158989
829.50 0.3157935
829.60 0.3156881
829.70 0.3155827
829.80 0.3154774
829.90 0.3153721
830.00 0.3152669
830.10 0.3151617
830.20 0.3150565
830.30 0.3149514
830.40 0.3148463
830.50 0.3147413
830.60 0.3146363
830.70 0.3145314
830.80 0.3144265
830.90 0.3143216
831.00 0.3142168
831.10 0.314112
831.20 0.3140073
831.30 0.3139026
831.40 0.3137979
831.50 0.3136933
831.60 0.3135887
831.70 0.3134842
831.80 0.3133797
831.90 0.3132752
832.00 0.3131708
832.10 0.3130665
832.20 0.3129621
832.30 0.3128578
832.40 0.3127536
832.50 0.3126494
832.60 0.3125452
832.70 0.3124411
832.80 0.312337
832.90 0.312233
833.00 0.312129
833.10 0.312025
833.20 0.3119211
833.30 0.3118172
833.40 0.3117134
833.50 0.3116096
833.60 0.3115058
833.70 0.3114021
833.80 0.3112985
833.90 0.3111948
834.00 0.3110912
834.10 0.3109877
834.20 0.3108842
834.30 0.3107807
834.40 0.3106773
834.50 0.3105739
834.60 0.3104705
834.70 0.3103672
834.80 0.310264
834.90 0.3101607
835.00 0.3100576
835.10 0.3099544
835.20 0.3098513
835.30 0.3097483
835.40 0.3096452
835.50 0.3095422
835.60 0.3094393
835.70 0.3093364
835.80 0.3092335
835.90 0.3091307
836.00 0.3090279
836.10 0.3089252
836.20 0.3088225
836.30 0.3087198
836.40 0.3086172
836.50 0.3085146
836.60 0.3084121
836.70 0.3083096
836.80 0.3082071
836.90 0.3081049
837.00 0.3080028
837.10 0.3079008
837.20 0.3077988
837.30 0.3076968
837.40 0.3075949
837.50 0.307493
837.60 0.3073911
837.70 0.3072893
837.80 0.3071875
837.90 0.3070858
838.00 0.3069841
838.10 0.3068825
838.20 0.3067808
838.30 0.3066793
838.40 0.3065777
838.50 0.3064762
838.60 0.3063748
838.70 0.3062734
838.80 0.306172
838.90 0.3060706
839.00 0.3059694
839.10 0.3058681
839.20 0.3057669
839.30 0.3056657
839.40 0.3055646
839.50 0.3054635
839.60 0.3053624
839.70 0.3052614
839.80 0.3051604
839.90 0.3050595
840.00 0.3049586
840.10 0.3048577
840.20 0.3047569
840.30 0.3046561
840.40 0.3045553
840.50 0.3044546
840.60 0.304354
840.70 0.3042533
840.80 0.3041528
840.90 0.3040522
841.00 0.3039517
841.10 0.3038512
841.20 0.3037508
841.30 0.3036504
841.40 0.3035501
841.50 0.3034498
841.60 0.3033495
841.70 0.3032493
841.80 0.3031491
841.90 0.3030489
842.00 0.3029488
842.10 0.3028488
842.20 0.3027487
842.30 0.3026487
842.40 0.3025488
842.50 0.3024489
842.60 0.302349
842.70 0.3022492
842.80 0.3021494
842.90 0.3020496
843.00 0.3019499
843.10 0.3018502
843.20 0.3017505
843.30 0.3016509
843.40 0.3015514
843.50 0.3014518
843.60 0.3013524
843.70 0.3012529
843.80 0.3011535
843.90 0.3010541
844.00 0.3009548
844.10 0.3008555
844.20 0.3007562
844.30 0.300657
844.40 0.3005578
844.50 0.3004587
844.60 0.3003596
844.70 0.3002605
844.80 0.3001615
844.90 0.3000625
845.00 0.2999636
845.10 0.2998647
845.20 0.2997658
845.30 0.2996672
845.40 0.2995687
845.50 0.2994702
845.60 0.2993718
845.70 0.2992733
845.80 0.299175
845.90 0.2990766
846.00 0.2989783
846.10 0.2988801
846.20 0.2987819
846.30 0.2986837
846.40 0.2985855
846.50 0.2984874
846.60 0.2983894
846.70 0.2982913
846.80 0.2981934
846.90 0.2980954
847.00 0.2979975
847.10 0.2978996
847.20 0.2978018
847.30 0.297704
847.40 0.2976062
847.50 0.2975085
847.60 0.2974108
847.70 0.2973131
847.80 0.2972155
847.90 0.2971179
848.00 0.2970204
848.10 0.2969229
848.20 0.2968254
848.30 0.296728
848.40 0.2966306
848.50 0.2965333
848.60 0.296436
848.70 0.2963387
848.80 0.2962415
848.90 0.2961443
849.00 0.2960471
849.10 0.29595
849.20 0.2958529
849.30 0.2957559
849.40 0.2956588
849.50 0.2955619
849.60 0.2954649
849.70 0.295368
849.80 0.2952712
849.90 0.2951744
850.00 0.2950776
850.10 0.2949808
850.20 0.2948841
850.30 0.2947874
850.40 0.2946908
850.50 0.2945942
850.60 0.2944976
850.70 0.2944011
850.80 0.2943046
850.90 0.2942082
851.00 0.2941118
851.10 0.2940154
851.20 0.293919
851.30 0.2938227
851.40 0.2937265
851.50 0.2936303
851.60 0.2935341
851.70 0.2934379
851.80 0.2933418
851.90 0.2932457
852.00 0.2931497
852.10 0.2930537
852.20 0.2929577
852.30 0.2928618
852.40 0.2927659
852.50 0.29267
852.60 0.2925742
852.70 0.2924784
852.80 0.2923827
852.90 0.292287
853.00 0.2921913
853.10 0.2920957
853.20 0.2920001
853.30 0.2919045
853.40 0.291809
853.50 0.2917135
853.60 0.291618
853.70 0.2915227
853.80 0.2914276
853.90 0.2913326
854.00 0.2912375
854.10 0.2911425
854.20 0.2910475
854.30 0.2909526
854.40 0.2908577
854.50 0.2907629
854.60 0.290668
854.70 0.2905733
854.80 0.2904785
854.90 0.2903838
855.00 0.2902891
855.10 0.2901945
855.20 0.2900999
855.30 0.2900053
855.40 0.2899108
855.50 0.2898163
855.60 0.2897218
855.70 0.2896274
855.80 0.289533
855.90 0.2894387
856.00 0.2893444
856.10 0.2892501
856.20 0.2891559
856.30 0.2890617
856.40 0.2889675
856.50 0.2888734
856.60 0.2887793
856.70 0.2886852
856.80 0.2885912
856.90 0.2884972
857.00 0.2884032
857.10 0.2883093
857.20 0.2882155
857.30 0.2881216
857.40 0.2880278
857.50 0.287934
857.60 0.2878403
857.70 0.2877466
857.80 0.2876529
857.90 0.2875593
858.00 0.2874634
858.10 0.2873668
858.20 0.2872704
858.30 0.2871739
858.40 0.2870776
858.50 0.2869812
858.60 0.2868849
858.70 0.2867886
858.80 0.2866923
858.90 0.2865961
859.00 0.2865
859.10 0.2864038
859.20 0.2863077
859.30 0.2862117
859.40 0.2861156
859.50 0.2860197
859.60 0.2859237
859.70 0.2858278
859.80 0.2857319
859.90 0.2856361
860.00 0.2855403
860.10 0.2854445
860.20 0.2853488
860.30 0.2852531
860.40 0.2851574
860.50 0.2850618
860.60 0.2849662
860.70 0.2848707
860.80 0.2847752
860.90 0.2846797
861.00 0.2845843
861.10 0.2844889
861.20 0.2843935
861.30 0.2842982
861.40 0.2842029
861.50 0.2841076
861.60 0.2840124
861.70 0.2839172
861.80 0.2838221
861.90 0.283727
862.00 0.2836319
862.10 0.2835369
862.20 0.2834423
862.30 0.2833505
862.40 0.2832587
862.50 0.283167
862.60 0.2830754
862.70 0.2829837
862.80 0.2828921
862.90 0.2828006
863.00 0.282709
863.10 0.2826175
863.20 0.2825261
863.30 0.2824346
863.40 0.2823432
863.50 0.2822519
863.60 0.2821606
863.70 0.2820693
863.80 0.281978
863.90 0.2818868
864.00 0.2817956
864.10 0.2817045
864.20 0.2816134
864.30 0.2815223
864.40 0.2814312
864.50 0.2813402
864.60 0.2812492
864.70 0.2811583
864.80 0.2810674
864.90 0.2809765
865.00 0.2808857
865.10 0.2807949
865.20 0.2807041
865.30 0.2806134
865.40 0.2805227
865.50 0.280432
865.60 0.2803414
865.70 0.2802508
865.80 0.2801602
865.90 0.2800697
866.00 0.2799792
866.10 0.2798887
866.20 0.2797983
866.30 0.2797079
866.40 0.2796176
866.50 0.2795272
866.60 0.2794369
866.70 0.2793467
866.80 0.2792565
866.90 0.2791663
867.00 0.2790761
867.10 0.278986
867.20 0.2788959
867.30 0.2788059
867.40 0.2787159
867.50 0.2786259
867.60 0.2785359
867.70 0.278446
867.80 0.2783561
867.90 0.2782663
868.00 0.2781765
868.10 0.2780867
868.20 0.277997
868.30 0.2779073
868.40 0.2778176
868.50 0.2777279
868.60 0.2776383
868.70 0.2775488
868.80 0.2774592
868.90 0.2773697
869.00 0.2772802
869.10 0.2771908
869.20 0.2771014
869.30 0.277012
869.40 0.2769227
869.50 0.2768334
869.60 0.2767441
869.70 0.2766549
869.80 0.2765657
869.90 0.2764765
870.00 0.2763874
870.10 0.2762983
870.20 0.2762092
870.30 0.2761202
870.40 0.2760312
870.50 0.2759422
870.60 0.2758533
870.70 0.2757644
870.80 0.2756755
870.90 0.2755869
871.00 0.2754984
871.10 0.2754098
871.20 0.2753214
871.30 0.2752329
871.40 0.2751445
871.50 0.2750561
871.60 0.2749678
871.70 0.2748795
871.80 0.2747912
871.90 0.2747029
872.00 0.2746147
872.10 0.2745266
872.20 0.2744384
872.30 0.2743503
872.40 0.2742622
872.50 0.2741742
872.60 0.2740862
872.70 0.2739982
872.80 0.2739102
872.90 0.2738223
873.00 0.2737344
873.10 0.2736466
873.20 0.2735588
873.30 0.273471
873.40 0.2733832
873.50 0.2732955
873.60 0.2732078
873.70 0.2731202
873.80 0.2730326
873.90 0.272945
874.00 0.2728574
874.10 0.2727699
874.20 0.2726824
874.30 0.272595
874.40 0.2725076
874.50 0.2724202
874.60 0.2723328
874.70 0.2722455
874.80 0.2721582
874.90 0.2720709
875.00 0.2719837
875.10 0.2718965
875.20 0.2718084
875.30 0.2717185
875.40 0.2716286
875.50 0.2715388
875.60 0.271449
875.70 0.2713592
875.80 0.2712695
875.90 0.2711798
876.00 0.2710901
876.10 0.2710005
876.20 0.2709109
876.30 0.2708213
876.40 0.2707318
876.50 0.2706423
876.60 0.2705528
876.70 0.2704634
876.80 0.270374
876.90 0.2702846
877.00 0.2701953
877.10 0.270106
877.20 0.2700167
877.30 0.2699275
877.40 0.2698383
877.50 0.2697491
877.60 0.26966
877.70 0.2695709
877.80 0.2694819
877.90 0.2693928
878.00 0.2693038
878.10 0.2692149
878.20 0.2691259
878.30 0.2690371
878.40 0.2689482
878.50 0.2688594
878.60 0.2687706
878.70 0.2686818
878.80 0.2685931
878.90 0.2685044
879.00 0.2684157
879.10 0.2683271
879.20 0.2682385
879.30 0.26815
879.40 0.2680615
879.50 0.267973
879.60 0.267887
879.70 0.2678015
879.80 0.2677161
879.90 0.2676308
880.00 0.2675455
880.10 0.2674602
880.20 0.2673749
880.30 0.2672897
880.40 0.2672045
880.50 0.2671193
880.60 0.2670341
880.70 0.266949
880.80 0.266864
880.90 0.2667789
881.00 0.2666939
881.10 0.2666089
881.20 0.266524
881.30 0.2664391
881.40 0.2663542
881.50 0.2662693
881.60 0.2661845
881.70 0.2660997
881.80 0.266015
881.90 0.2659302
882.00 0.2658455
882.10 0.2657609
882.20 0.2656762
882.30 0.2655916
882.40 0.2655071
882.50 0.2654225
882.60 0.265338
882.70 0.2652536
882.80 0.2651691
882.90 0.2650847
883.00 0.2650003
883.10 0.264916
883.20 0.2648317
883.30 0.2647474
883.40 0.2646631
883.50 0.2645789
883.60 0.2644947
883.70 0.2644105
883.80 0.2643264
883.90 0.2642423
884.00 0.264156
884.10 0.2640692
884.20 0.2639825
884.30 0.2638959
884.40 0.2638092
884.50 0.2637226
884.60 0.263636
884.70 0.2635495
884.80 0.263463
884.90 0.2633765
885.00 0.2632901
885.10 0.2632036
885.20 0.2631173
885.30 0.2630309
885.40 0.2629446
885.50 0.2628583
885.60 0.2627721
885.70 0.2626858
885.80 0.2625997
885.90 0.2625135
886.00 0.2624274
886.10 0.2623413
886.20 0.2622552
886.30 0.2621692
886.40 0.2620832
886.50 0.2619972
886.60 0.2619113
886.70 0.2618254
886.80 0.2617395
886.90 0.2616537
887.00 0.2615679
887.10 0.2614821
887.20 0.2613964
887.30 0.2613107
887.40 0.261225
887.50 0.2611394
887.60 0.2610538
887.70 0.2609682
887.80 0.2608826
887.90 0.2607971
888.00 0.2607116
888.10 0.2606262
888.20 0.2605408
888.30 0.2604554
888.40 0.2603714
888.50 0.2602877
888.60 0.260204
888.70 0.2601203
888.80 0.2600367
888.90 0.259953
889.00 0.2598695
889.10 0.2597859
889.20 0.2597024
889.30 0.2596189
889.40 0.2595355
889.50 0.259452
889.60 0.2593686
889.70 0.2592853
889.80 0.259202
889.90 0.2591187
890.00 0.2590354
890.10 0.2589521
890.20 0.2588689
890.30 0.2587858
890.40 0.2587026
890.50 0.2586195
890.60 0.2585364
890.70 0.2584534
890.80 0.2583703
890.90 0.2582874
891.00 0.2582044
891.10 0.2581215
891.20 0.2580386
891.30 0.2579557
891.40 0.2578729
891.50 0.25779
891.60 0.2577073
891.70 0.2576245
891.80 0.2575418
891.90 0.2574591
892.00 0.2573765
892.10 0.2572938
892.20 0.2572113
892.30 0.2571287
892.40 0.2570462
892.50 0.2569637
892.60 0.2568812
892.70 0.2567987
892.80 0.2567163
892.90 0.256634
893.00 0.2565516
893.10 0.2564693
893.20 0.256387
893.30 0.2563047
893.40 0.2562225
893.50 0.2561403
893.60 0.2560582
893.70 0.255976
893.80 0.2558939
893.90 0.2558118
894.00 0.2557298
894.10 0.2556478
894.20 0.2555658
894.30 0.2554838
894.40 0.2554019
894.50 0.25532
894.60 0.2552382
894.70 0.2551563
894.80 0.2550745
894.90 0.2549928
895.00 0.254911
895.10 0.2548293
895.20 0.2547476
895.30 0.254666
895.40 0.2545843
895.50 0.2545027
895.60 0.2544212
895.70 0.2543397
895.80 0.2542582
895.90 0.2541767
896.00 0.2540952
896.10 0.2540138
896.20 0.2539324
896.30 0.2538511
896.40 0.2537698
896.50 0.2536885
896.60 0.2536072
896.70 0.253526
896.80 0.2534448
896.90 0.2533636
897.00 0.2532825
897.10 0.2532014
897.20 0.2531203
897.30 0.2530408
897.40 0.2529613
897.50 0.2528819
897.60 0.2528024
897.70 0.252723
897.80 0.2526436
897.90 0.2525643
898.00 0.252485
898.10 0.2524057
898.20 0.2523264
898.30 0.2522472
898.40 0.252168
898.50 0.2520888
898.60 0.2520096
898.70 0.2519305
898.80 0.2518514
898.90 0.2517724
899.00 0.2516933
899.10 0.2516143
899.20 0.2515354
899.30 0.2514564
899.40 0.2513775
899.50 0.2512986
899.60 0.2512198
899.70 0.2511409
899.80 0.2510621
899.90 0.2509834
900.00 0.2509046
900.10 0.2508259
900.20 0.2507472
900.30 0.2506686
900.40 0.25059
900.50 0.2505114
900.60 0.2504328
900.70 0.2503542
900.80 0.2502757
900.90 0.2501973
901.00 0.2501188
901.10 0.2500404
901.20 0.249962
901.30 0.2498836
901.40 0.2498053
901.50 0.249727
901.60 0.2496487
901.70 0.24957
901.80 0.2494892
901.90 0.2494085
902.00 0.2493277
902.10 0.2492471
902.20 0.2491664
902.30 0.2490858
902.40 0.2490052
902.50 0.2489247
902.60 0.2488441
902.70 0.2487636
902.80 0.2486831
902.90 0.2486027
903.00 0.2485223
903.10 0.2484419
903.20 0.2483616
903.30 0.2482812
903.40 0.2482009
903.50 0.2481207
903.60 0.2480404
903.70 0.2479602
903.80 0.2478801
903.90 0.2477999
904.00 0.2477198
904.10 0.2476397
904.20 0.2475596
904.30 0.2474796
904.40 0.2473996
904.50 0.2473196
904.60 0.2472397
904.70 0.2471598
904.80 0.2470799
904.90 0.2470001
905.00 0.2469202
905.10 0.2468404
905.20 0.2467607
905.30 0.2466809
905.40 0.2466012
905.50 0.2465215
905.60 0.2464419
905.70 0.2463623
905.80 0.2462827
905.90 0.2462031
906.00 0.2461236
906.10 0.2460441
906.20 0.2459647
906.30 0.2458855
906.40 0.2458063
906.50 0.2457272
906.60 0.2456481
906.70 0.245569
906.80 0.24549
906.90 0.2454109
907.00 0.2453319
907.10 0.245253
907.20 0.245174
907.30 0.2450951
907.40 0.2450163
907.50 0.2449374
907.60 0.2448586
907.70 0.2447798
907.80 0.244701
907.90 0.2446223
908.00 0.2445436
908.10 0.2444649
908.20 0.2443863
908.30 0.2443077
908.40 0.2442291
908.50 0.2441505
908.60 0.244072
908.70 0.2439935
908.80 0.243915
908.90 0.2438365
909.00 0.2437581
909.10 0.2436797
909.20 0.2436014
909.30 0.243523
909.40 0.2434447
909.50 0.2433665
909.60 0.2432882
909.70 0.24321
909.80 0.2431318
909.90 0.2430537
910.00 0.2429755
910.10 0.2428974
910.20 0.2428193
910.30 0.2427413
910.40 0.2426633
910.50 0.2425853
910.60 0.2425073
910.70 0.2424294
910.80 0.242354
910.90 0.2422786
911.00 0.2422032
911.10 0.2421278
911.20 0.2420525
911.30 0.2419772
911.40 0.2419019
911.50 0.2418267
911.60 0.2417515
911.70 0.2416763
911.80 0.2416011
911.90 0.241526
912.00 0.2414508
912.10 0.2413758
912.20 0.2413007
912.30 0.2412257
912.40 0.2411507
912.50 0.2410757
912.60 0.2410007
912.70 0.2409258
912.80 0.2408509
912.90 0.2407761
913.00 0.2407012
913.10 0.2406264
913.20 0.2405516
913.30 0.2404769
913.40 0.2404021
913.50 0.2403274
913.60 0.2402527
913.70 0.2401781
913.80 0.2401035
913.90 0.2400289
914.00 0.2399543
914.10 0.2398798
914.20 0.2398052
914.30 0.2397307
914.40 0.2396563
914.50 0.2395818
914.60 0.2395074
914.70 0.239433
914.80 0.2393587
914.90 0.2392844
915.00 0.2392101
915.10 0.2391358
915.20 0.2390615
915.30 0.2389858
915.40 0.2389094
915.50 0.238833
915.60 0.2387567
915.70 0.2386803
915.80 0.2386041
915.90 0.2385278
916.00 0.2384516
916.10 0.2383754
916.20 0.2382992
916.30 0.238223
916.40 0.2381469
916.50 0.2380708
916.60 0.2379948
916.70 0.2379187
916.80 0.2378427
916.90 0.2377667
917.00 0.2376908
917.10 0.2376148
917.20 0.2375389
917.30 0.2374631
917.40 0.2373872
917.50 0.2373114
917.60 0.2372356
917.70 0.2371598
917.80 0.2370841
917.90 0.2370084
918.00 0.2369327
918.10 0.236857
918.20 0.2367814
918.30 0.2367058
918.40 0.2366302
918.50 0.2365547
918.60 0.2364792
918.70 0.2364037
918.80 0.2363282
918.90 0.2362528
919.00 0.2361774
919.10 0.236102
919.20 0.2360266
919.30 0.2359513
919.40 0.235876
919.50 0.2358007
919.60 0.2357255
919.70 0.2356503
919.80 0.2355751
919.90 0.2354999
920.00 0.2354248
920.10 0.2353497
920.20 0.2352746
920.30 0.2351995
920.40 0.2351245
920.50 0.2350495
920.60 0.2349745
920.70 0.2348996
920.80 0.2348247
920.90 0.2347498
921.00 0.2346749
921.10 0.2346
921.20 0.2345252
921.30 0.2344504
921.40 0.2343757
921.50 0.234301
921.60 0.2342263
921.70 0.2341516
921.80 0.2340769
921.90 0.2340023
922.00 0.2339277
922.10 0.2338531
922.20 0.2337786
922.30 0.2337041
922.40 0.2336296
922.50 0.2335551
922.60 0.2334807
922.70 0.2334063
922.80 0.2333319
922.90 0.2332575
923.00 0.2331832
923.10 0.2331089
923.20 0.2330346
923.30 0.2329604
923.40 0.2328861
923.50 0.2328119
923.60 0.2327378
923.70 0.2326636
923.80 0.2325895
923.90 0.2325154
924.00 0.2324414
924.10 0.2323673
924.20 0.2322933
924.30 0.2322193
924.40 0.2321454
924.50 0.2320717
924.60 0.231998
924.70 0.2319244
924.80 0.2318508
924.90 0.2317772
925.00 0.2317036
925.10 0.2316301
925.20 0.2315566
925.30 0.2314831
925.40 0.2314097
925.50 0.2313362
925.60 0.2312628
925.70 0.2311894
925.80 0.2311161
925.90 0.2310428
926.00 0.2309695
926.10 0.2308962
926.20 0.2308229
926.30 0.2307497
926.40 0.2306765
926.50 0.2306034
926.60 0.2305302
926.70 0.2304571
926.80 0.230384
926.90 0.230311
927.00 0.2302379
927.10 0.2301649
927.20 0.2300919
927.30 0.230019
927.40 0.229946
927.50 0.2298731
927.60 0.2298002
927.70 0.2297274
927.80 0.2296546
927.90 0.2295818
928.00 0.229509
928.10 0.2294362
928.20 0.2293635
928.30 0.2292908
928.40 0.2292181
928.50 0.2291455
928.60 0.2290729
928.70 0.2290003
928.80 0.2289277
928.90 0.2288552
929.00 0.2287827
929.10 0.2287124
929.20 0.2286423
929.30 0.2285721
929.40 0.228502
929.50 0.228432
929.60 0.2283619
929.70 0.2282919
929.80 0.2282219
929.90 0.228152
930.00 0.228082
930.10 0.2280121
930.20 0.2279422
930.30 0.2278723
930.40 0.2278025
930.50 0.2277327
930.60 0.2276629
930.70 0.2275931
930.80 0.2275234
930.90 0.2274537
931.00 0.227384
931.10 0.2273143
931.20 0.2272447
931.30 0.227175
931.40 0.2271054
931.50 0.2270359
931.60 0.2269663
931.70 0.2268968
931.80 0.2268273
931.90 0.2267578
932.00 0.2266884
932.10 0.226619
932.20 0.2265496
932.30 0.2264802
932.40 0.2264108
932.50 0.2263415
932.60 0.2262722
932.70 0.2262029
932.80 0.2261337
932.90 0.2260645
933.00 0.2259952
933.10 0.2259261
933.20 0.2258569
933.30 0.2257878
933.40 0.2257187
933.50 0.2256496
933.60 0.2255805
933.70 0.22551
933.80 0.2254389
933.90 0.2253678
934.00 0.2252968
934.10 0.2252258
934.20 0.2251548
934.30 0.2250839
934.40 0.2250129
934.50 0.224942
934.60 0.2248712
934.70 0.2248003
934.80 0.2247295
934.90 0.2246587
935.00 0.2245879
935.10 0.2245171
935.20 0.2244464
935.30 0.2243757
935.40 0.224305
935.50 0.2242344
935.60 0.2241637
935.70 0.2240931
935.80 0.2240226
935.90 0.223952
936.00 0.2238815
936.10 0.223811
936.20 0.2237405
936.30 0.2236701
936.40 0.2235996
936.50 0.2235292
936.60 0.2234588
936.70 0.2233885
936.80 0.2233182
936.90 0.2232479
937.00 0.2231776
937.10 0.2231073
937.20 0.2230371
937.30 0.2229669
937.40 0.2228967
937.50 0.2228266
937.60 0.2227564
937.70 0.2226863
937.80 0.2226163
937.90 0.2225462
938.00 0.2224762
938.10 0.2224062
938.20 0.2223362
938.30 0.2222662
938.40 0.2221963
938.50 0.2221264
938.60 0.2220565
938.70 0.2219867
938.80 0.2219168
938.90 0.221847
939.00 0.2217772
939.10 0.2217075
939.20 0.2216377
939.30 0.221568
939.40 0.2214984
939.50 0.2214287
939.60 0.2213591
939.70 0.2212894
939.80 0.2212199
939.90 0.2211503
940.00 0.2210808
940.10 0.2210113
940.20 0.2209418
940.30 0.2208723
940.40 0.2208029
940.50 0.2207335
940.60 0.2206641
940.70 0.2205947
940.80 0.2205254
940.90 0.2204561
941.00 0.2203868
941.10 0.2203175
941.20 0.2202483
941.30 0.220179
941.40 0.2201098
941.50 0.2200407
941.60 0.2199715
941.70 0.2199024
941.80 0.2198333
941.90 0.2197642
942.00 0.2196952
942.10 0.2196262
942.20 0.2195572
942.30 0.2194882
942.40 0.2194193
942.50 0.2193503
942.60 0.2192814
942.70 0.2192126
942.80 0.2191437
942.90 0.2190749
943.00 0.2190062
943.10 0.2189376
943.20 0.2188691
943.30 0.2188006
943.40 0.2187321
943.50 0.2186636
943.60 0.2185952
943.70 0.2185268
943.80 0.2184584
943.90 0.21839
944.00 0.2183217
944.10 0.2182534
944.20 0.2181851
944.30 0.2181168
944.40 0.2180486
944.50 0.2179804
944.60 0.2179122
944.70 0.217844
944.80 0.2177758
944.90 0.2177077
945.00 0.2176396
945.10 0.2175715
945.20 0.2175035
945.30 0.2174355
945.40 0.2173675
945.50 0.2172995
945.60 0.2172315
945.70 0.2171636
945.80 0.2170957
945.90 0.2170278
946.00 0.2169599
946.10 0.2168921
946.20 0.2168243
946.30 0.2167565
946.40 0.2166887
946.50 0.216621
946.60 0.2165533
946.70 0.2164856
946.80 0.2164179
946.90 0.2163503
947.00 0.2162827
947.10 0.2162151
947.20 0.2161475
947.30 0.2160799
947.40 0.2160124
947.50 0.2159449
947.60 0.2158774
947.70 0.21581
947.80 0.2157425
947.90 0.2156751
948.00 0.2156077
948.10 0.2155404
948.20 0.215473
948.30 0.2154057
948.40 0.2153384
948.50 0.2152712
948.60 0.2152039
948.70 0.2151367
948.80 0.2150695
948.90 0.2150023
949.00 0.2149352
949.10 0.2148681
949.20 0.214801
949.30 0.2147339
949.40 0.2146668
949.50 0.2145998
949.60 0.2145328
949.70 0.2144658
949.80 0.2143988
949.90 0.2143319
950.00 0.214265
950.10 0.2141981
950.20 0.2141312
950.30 0.2140644
950.40 0.2139976
950.50 0.2139308
950.60 0.213864
950.70 0.2137972
950.80 0.2137305
950.90 0.2136638
951.00 0.2135971
951.10 0.2135305
951.20 0.2134638
951.30 0.2133972
951.40 0.2133306
951.50 0.2132641
951.60 0.2131975
951.70 0.213131
951.80 0.2130645
951.90 0.212998
952.00 0.2129316
952.10 0.2128652
952.20 0.2127988
952.30 0.2127324
952.40 0.212666
952.50 0.2125999
952.60 0.2125338
952.70 0.2124678
952.80 0.2124017
952.90 0.2123357
953.00 0.2122697
953.10 0.2122037
953.20 0.2121377
953.30 0.2120718
953.40 0.2120059
953.50 0.21194
953.60 0.2118741
953.70 0.2118083
953.80 0.2117425
953.90 0.2116767
954.00 0.2116109
954.10 0.2115452
954.20 0.2114794
954.30 0.2114137
954.40 0.2113481
954.50 0.2112824
954.60 0.2112168
954.70 0.2111511
954.80 0.2110856
954.90 0.21102
955.00 0.2109544
955.10 0.2108889
955.20 0.2108234
955.30 0.2107579
955.40 0.2106925
955.50 0.2106271
955.60 0.2105617
955.70 0.2104963
955.80 0.2104309
955.90 0.2103656
956.00 0.2103003
956.10 0.210235
956.20 0.2101697
956.30 0.2101044
956.40 0.2100392
956.50 0.209974
956.60 0.2099088
956.70 0.2098437
956.80 0.2097785
956.90 0.2097134
957.00 0.2096483
957.10 0.2095833
957.20 0.2095182
957.30 0.2094532
957.40 0.2093882
957.50 0.2093232
957.60 0.2092583
957.70 0.2091933
957.80 0.2091284
957.90 0.2090635
958.00 0.2089987
958.10 0.2089338
958.20 0.208869
958.30 0.2088042
958.40 0.2087394
958.50 0.2086747
958.60 0.20861
958.70 0.2085453
958.80 0.2084806
958.90 0.2084159
959.00 0.2083513
959.10 0.2082867
959.20 0.2082221
959.30 0.2081575
959.40 0.2080929
959.50 0.2080284
959.60 0.2079639
959.70 0.2078994
959.80 0.207835
959.90 0.2077705
960.00 0.2077061
960.10 0.2076417
960.20 0.2075773
960.30 0.207513
960.40 0.2074487
960.50 0.2073844
960.60 0.2073201
960.70 0.2072558
960.80 0.2071916
960.90 0.2071274
961.00 0.2070632
961.10 0.206999
961.20 0.2069349
961.30 0.2068707
961.40 0.2068066
961.50 0.2067426
961.60 0.2066785
961.70 0.2066145
961.80 0.2065504
961.90 0.2064864
962.00 0.2064235
962.10 0.2063608
962.20 0.2062981
962.30 0.2062355
962.40 0.2061729
962.50 0.2061102
962.60 0.2060477
962.70 0.2059851
962.80 0.2059225
962.90 0.20586
963.00 0.2057975
963.10 0.205735
963.20 0.2056726
963.30 0.2056101
963.40 0.2055477
963.50 0.2054853
963.60 0.2054229
963.70 0.2053606
963.80 0.2052982
963.90 0.2052359
964.00 0.2051736
964.10 0.2051114
964.20 0.2050491
964.30 0.2049869
964.40 0.2049247
964.50 0.2048625
964.60 0.2048003
964.70 0.2047382
964.80 0.2046761
964.90 0.204614
965.00 0.2045519
965.10 0.2044898
965.20 0.2044278
965.30 0.2043658
965.40 0.2043038
965.50 0.2042418
965.60 0.2041799
965.70 0.204118
965.80 0.2040561
965.90 0.2039942
966.00 0.2039323
966.10 0.2038705
966.20 0.2038086
966.30 0.2037468
966.40 0.2036851
966.50 0.2036233
966.60 0.2035616
966.70 0.2034999
966.80 0.2034382
966.90 0.2033765
967.00 0.2033148
967.10 0.2032532
967.20 0.2031916
967.30 0.20313
967.40 0.2030684
967.50 0.2030069
967.60 0.2029454
967.70 0.2028839
967.80 0.2028224
967.90 0.2027609
968.00 0.2026995
968.10 0.2026381
968.20 0.2025767
968.30 0.2025153
968.40 0.2024539
968.50 0.2023926
968.60 0.2023313
968.70 0.20227
968.80 0.2022087
968.90 0.2021475
969.00 0.2020862
969.10 0.202025
969.20 0.2019638
969.30 0.2019027
969.40 0.2018415
969.50 0.2017804
969.60 0.2017193
969.70 0.2016582
969.80 0.2015971
969.90 0.2015361
970.00 0.2014751
970.10 0.2014141
970.20 0.2013531
970.30 0.2012921
970.40 0.2012312
970.50 0.2011703
970.60 0.2011094
970.70 0.2010485
970.80 0.2009877
970.90 0.2009268
971.00 0.200866
971.10 0.2008052
971.20 0.2007444
971.30 0.2006837
971.40 0.200623
971.50 0.2005623
971.60 0.200501
971.70 0.2004395
971.80 0.2003781
971.90 0.2003166
972.00 0.2002552
972.10 0.2001938
972.20 0.2001324
972.30 0.2000711
972.40 0.2000097
972.50 0.1999484
972.60 0.1998871
972.70 0.1998258
972.80 0.1997646
972.90 0.1997033
973.00 0.1996421
973.10 0.1995809
973.20 0.1995198
973.30 0.1994586
973.40 0.1993975
973.50 0.1993364
973.60 0.1992753
973.70 0.1992142
973.80 0.1991532
973.90 0.1990921
974.00 0.1990311
974.10 0.1989702
974.20 0.1989092
974.30 0.1988483
974.40 0.1987873
974.50 0.1987264
974.60 0.1986656
974.70 0.1986047
974.80 0.1985439
974.90 0.198483
975.00 0.1984222
975.10 0.1983615
975.20 0.1983007
975.30 0.19824
975.40 0.1981793
975.50 0.1981186
975.60 0.1980579
975.70 0.1979972
975.80 0.1979366
975.90 0.197876
976.00 0.1978154
976.10 0.1977548
976.20 0.1976943
976.30 0.1976338
976.40 0.1975733
976.50 0.1975128
976.60 0.1974523
976.70 0.1973919
976.80 0.1973314
976.90 0.197271
977.00 0.1972107
977.10 0.1971503
977.20 0.19709
977.30 0.1970296
977.40 0.1969693
977.50 0.1969091
977.60 0.1968488
977.70 0.1967886
977.80 0.1967283
977.90 0.1966681
978.00 0.196608
978.10 0.1965478
978.20 0.1964877
978.30 0.1964275
978.40 0.1963675
978.50 0.1963074
978.60 0.1962473
978.70 0.1961873
978.80 0.1961273
978.90 0.1960673
979.00 0.1960073
979.10 0.1959474
979.20 0.1958874
979.30 0.1958275
979.40 0.1957676
979.50 0.1957078
979.60 0.1956479
979.70 0.1955881
979.80 0.1955283
979.90 0.1954685
980.00 0.1954087
980.10 0.195349
980.20 0.1952892
980.30 0.1952295
980.40 0.1951698
980.50 0.1951102
980.60 0.1950505
980.70 0.1949909
980.80 0.1949313
980.90 0.1948717
981.00 0.1948121
981.10 0.1947526
981.20 0.1946931
981.30 0.1946336
981.40 0.1945744
981.50 0.1945151
981.60 0.1944558
981.70 0.1943966
981.80 0.1943374
981.90 0.1942782
982.00 0.1942191
982.10 0.1941599
982.20 0.1941008
982.30 0.1940417
982.40 0.1939826
982.50 0.1939235
982.60 0.1938645
982.70 0.1938054
982.80 0.1937464
982.90 0.1936875
983.00 0.1936285
983.10 0.1935695
983.20 0.1935106
983.30 0.1934517
983.40 0.1933928
983.50 0.193334
983.60 0.1932751
983.70 0.1932163
983.80 0.1931575
983.90 0.1930987
984.00 0.1930399
984.10 0.1929812
984.20 0.1929224
984.30 0.1928637
984.40 0.192805
984.50 0.1927464
984.60 0.1926877
984.70 0.1926291
984.80 0.1925705
984.90 0.1925119
985.00 0.1924533
985.10 0.1923948
985.20 0.1923363
985.30 0.1922777
985.40 0.1922193
985.50 0.1921608
985.60 0.1921023
985.70 0.1920439
985.80 0.1919855
985.90 0.1919271
986.00 0.1918687
986.10 0.1918104
986.20 0.1917521
986.30 0.1916937
986.40 0.1916355
986.50 0.1915772
986.60 0.1915189
986.70 0.1914607
986.80 0.1914025
986.90 0.1913443
987.00 0.1912861
987.10 0.191228
987.20 0.1911698
987.30 0.1911117
987.40 0.1910536
987.50 0.1909955
987.60 0.1909375
987.70 0.1908794
987.80 0.1908214
987.90 0.1907634
988.00 0.1907055
988.10 0.1906475
988.20 0.1905896
988.30 0.1905316
988.40 0.1904737
988.50 0.1904159
988.60 0.190358
988.70 0.1903002
988.80 0.1902423
988.90 0.1901845
989.00 0.1901267
989.10 0.190069
989.20 0.1900112
989.30 0.1899535
989.40 0.1898958
989.50 0.1898381
989.60 0.1897805
989.70 0.1897228
989.80 0.1896652
989.90 0.1896076
990.00 0.18955
990.10 0.1894924
990.20 0.1894349
990.30 0.1893773
990.40 0.1893198
990.50 0.1892623
990.60 0.1892049
990.70 0.1891474
990.80 0.18909
990.90 0.1890326
991.00 0.1889752
991.10 0.1889179
991.20 0.1888607
991.30 0.1888035
991.40 0.1887464
991.50 0.1886893
991.60 0.1886322
991.70 0.1885751
991.80 0.1885181
991.90 0.1884611
992.00 0.188404
992.10 0.1883471
992.20 0.1882901
992.30 0.1882331
992.40 0.1881762
992.50 0.1881193
992.60 0.1880624
992.70 0.1880055
992.80 0.1879486
992.90 0.1878918
993.00 0.187835
993.10 0.1877782
993.20 0.1877214
993.30 0.1876646
993.40 0.1876079
993.50 0.1875511
993.60 0.1874944
993.70 0.1874377
993.80 0.1873811
993.90 0.1873244
994.00 0.1872678
994.10 0.1872112
994.20 0.1871546
994.30 0.187098
994.40 0.1870414
994.50 0.1869849
994.60 0.1869284
994.70 0.1868719
994.80 0.1868154
994.90 0.1867589
995.00 0.1867025
995.10 0.1866461
995.20 0.1865897
995.30 0.1865333
995.40 0.1864769
995.50 0.1864206
995.60 0.1863642
995.70 0.1863079
995.80 0.1862516
995.90 0.1861954
996.00 0.1861391
996.10 0.1860829
996.20 0.1860267
996.30 0.1859705
996.40 0.1859143
996.50 0.1858581
996.60 0.185802
996.70 0.1857459
996.80 0.1856898
996.90 0.1856337
997.00 0.1855776
997.10 0.1855216
997.20 0.1854656
997.30 0.1854096
997.40 0.1853536
997.50 0.1852976
997.60 0.1852416
997.70 0.1851857
997.80 0.1851298
997.90 0.1850739
998.00 0.185018
998.10 0.1849622
998.20 0.1849063
998.30 0.1848505
998.40 0.1847947
998.50 0.1847389
998.60 0.1846832
998.70 0.1846274
998.80 0.1845717
998.90 0.184516
999.00 0.1844603
999.10 0.1844046
999.20 0.184349
999.30 0.1842934
999.40 0.1842377
999.50 0.1841821
999.60 0.1841266
999.70 0.184071
999.80 0.1840155
999.90 0.1839599
1000.00 0.1839044
1000.10 0.183849
1000.20 0.1837935
1000.30 0.183738
1000.40 0.1836826
1000.50 0.1836272
1000.60 0.1835718
1000.70 0.1835164
1000.80 0.1834611
1000.90 0.1834057
1001.00 0.18335
1001.10 0.183293
1001.20 0.1832361
1001.30 0.1831791
1001.40 0.1831222
1001.50 0.1830654
1001.60 0.1830085
1001.70 0.1829516
1001.80 0.1828948
1001.90 0.182838
1002.00 0.1827812
1002.10 0.1827244
1002.20 0.1826677
1002.30 0.1826109
1002.40 0.1825542
1002.50 0.1824975
1002.60 0.1824408
1002.70 0.1823842
1002.80 0.1823275
1002.90 0.1822709
1003.00 0.1822143
1003.10 0.1821577
1003.20 0.1821011
1003.30 0.1820446
1003.40 0.1819881
1003.50 0.1819316
1003.60 0.1818751
1003.70 0.1818186
1003.80 0.1817621
1003.90 0.1817057
1004.00 0.1816493
1004.10 0.1815929
1004.20 0.1815365
1004.30 0.1814802
1004.40 0.1814238
1004.50 0.1813675
1004.60 0.1813112
1004.70 0.1812549
1004.80 0.1811986
1004.90 0.1811424
1005.00 0.1810862
1005.10 0.18103
1005.20 0.1809738
1005.30 0.1809176
1005.40 0.1808614
1005.50 0.1808053
1005.60 0.1807492
1005.70 0.1806931
1005.80 0.180637
1005.90 0.180581
1006.00 0.1805253
1006.10 0.1804711
1006.20 0.1804169
1006.30 0.1803628
1006.40 0.1803086
1006.50 0.1802545
1006.60 0.1802004
1006.70 0.1801463
1006.80 0.1800923
1006.90 0.1800382
1007.00 0.1799842
1007.10 0.1799302
1007.20 0.1798762
1007.30 0.1798222
1007.40 0.1797682
1007.50 0.1797143
1007.60 0.1796604
1007.70 0.1796065
1007.80 0.1795526
1007.90 0.1794987
1008.00 0.1794448
1008.10 0.179391
1008.20 0.1793372
1008.30 0.1792834
1008.40 0.1792296
1008.50 0.1791758
1008.60 0.1791221
1008.70 0.1790684
1008.80 0.1790147
1008.90 0.178961
1009.00 0.1789073
1009.10 0.1788536
1009.20 0.1788
1009.30 0.1787464
1009.40 0.1786928
1009.50 0.1786392
1009.60 0.1785856
1009.70 0.1785321
1009.80 0.1784785
1009.90 0.178425
1010.00 0.1783715
1010.10 0.178318
1010.20 0.1782646
1010.30 0.1782111
1010.40 0.1781577
1010.50 0.1781043
1010.60 0.1780509
1010.70 0.1779975
1010.80 0.1779442
1010.90 0.1778908
1011.00 0.1778375
1011.10 0.1777844
1011.20 0.1777313
1011.30 0.1776782
1011.40 0.1776251
1011.50 0.1775721
1011.60 0.1775191
1011.70 0.177466
1011.80 0.177413
1011.90 0.1773601
1012.00 0.1773071
1012.10 0.1772542
1012.20 0.1772012
1012.30 0.1771483
1012.40 0.1770954
1012.50 0.1770425
1012.60 0.1769897
1012.70 0.1769368
1012.80 0.176884
1012.90 0.1768312
1013.00 0.1767784
1013.10 0.1767257
1013.20 0.1766729
1013.30 0.1766202
1013.40 0.1765674
1013.50 0.1765147
1013.60 0.1764621
1013.70 0.1764094
1013.80 0.1763567
1013.90 0.1763041
1014.00 0.1762515
1014.10 0.1761989
1014.20 0.1761463
1014.30 0.1760937
1014.40 0.1760412
1014.50 0.1759887
1014.60 0.1759362
1014.70 0.1758837
1014.80 0.1758312
1014.90 0.1757787
1015.00 0.1757263
1015.10 0.1756739
1015.20 0.1756214
1015.30 0.1755691
1015.40 0.1755167
1015.50 0.1754643
1015.60 0.175412
1015.70 0.1753597
1015.80 0.1753074
1015.90 0.1752551
1016.00 0.1752028
1016.10 0.1751505
1016.20 0.1750983
1016.30 0.1750461
1016.40 0.1749939
1016.50 0.1749417
1016.60 0.1748895
1016.70 0.1748374
1016.80 0.1747853
1016.90 0.1747331
1017.00 0.174681
1017.10 0.174629
1017.20 0.1745769
1017.30 0.1745248
1017.40 0.1744728
1017.50 0.1744208
1017.60 0.1743688
1017.70 0.1743168
1017.80 0.1742649
1017.90 0.1742129
1018.00 0.174161
1018.10 0.1741091
1018.20 0.1740572
1018.30 0.1740053
1018.40 0.1739534
1018.50 0.1739016
1018.60 0.1738498
1018.70 0.173798
1018.80 0.1737462
1018.90 0.1736944
1019.00 0.1736426
1019.10 0.1735909
1019.20 0.1735392
1019.30 0.1734875
1019.40 0.1734358
1019.50 0.1733841
1019.60 0.1733324
1019.70 0.1732808
1019.80 0.1732292
1019.90 0.1731776
1020.00 0.173126
1020.10 0.1730744
1020.20 0.1730229
1020.30 0.1729713
1020.40 0.1729198
1020.50 0.1728683
1020.60 0.1728168
1020.70 0.1727653
1020.80 0.1727139
1020.90 0.1726624
1021.00 0.172611
1021.10 0.1725596
1021.20 0.1725084
1021.30 0.1724572
1021.40 0.1724061
1021.50 0.1723549
1021.60 0.1723037
1021.70 0.1722526
1021.80 0.1722015
1021.90 0.1721504
1022.00 0.1720993
1022.10 0.1720483
1022.20 0.1719972
1022.30 0.1719462
1022.40 0.1718952
1022.50 0.1718442
1022.60 0.1717932
1022.70 0.1717423
1022.80 0.1716913
1022.90 0.1716404
1023.00 0.1715895
1023.10 0.1715386
1023.20 0.1714877
1023.30 0.1714369
1023.40 0.171386
1023.50 0.1713352
1023.60 0.1712844
1023.70 0.1712336
1023.80 0.1711828
1023.90 0.171132
1024.00 0.1710813
1024.10 0.1710306
1024.20 0.1709799
1024.30 0.1709292
1024.40 0.1708785
1024.50 0.1708278
1024.60 0.1707772
1024.70 0.1707265
1024.80 0.1706759
1024.90 0.1706253
1025.00 0.1705748
1025.10 0.1705242
1025.20 0.1704736
1025.30 0.1704231
1025.40 0.1703726
1025.50 0.1703221
1025.60 0.1702716
1025.70 0.1702212
1025.80 0.1701707
1025.90 0.1701203
1026.00 0.1700699
1026.10 0.1700195
1026.20 0.1699691
1026.30 0.1699187
1026.40 0.1698684
1026.50 0.169818
1026.60 0.1697677
1026.70 0.1697174
1026.80 0.1696671
1026.90 0.1696169
1027.00 0.1695666
1027.10 0.1695164
1027.20 0.1694661
1027.30 0.1694159
1027.40 0.1693657
1027.50 0.1693156
1027.60 0.1692654
1027.70 0.1692153
1027.80 0.1691652
1027.90 0.169115
1028.00 0.169065
1028.10 0.1690149
1028.20 0.1689648
1028.30 0.1689148
1028.40 0.1688648
1028.50 0.1688147
1028.60 0.1687648
1028.70 0.1687148
1028.80 0.1686648
1028.90 0.1686149
1029.00 0.1685649
1029.10 0.168515
1029.20 0.1684651
1029.30 0.1684153
1029.40 0.1683654
1029.50 0.1683155
1029.60 0.1682657
1029.70 0.1682159
1029.80 0.1681661
1029.90 0.1681163
1030.00 0.1680665
1030.10 0.1680168
1030.20 0.1679671
1030.30 0.1679173
1030.40 0.1678676
1030.50 0.167818
1030.60 0.1677683
1030.70 0.1677186
1030.80 0.167669
1030.90 0.1676194
1031.00 0.1675698
1031.10 0.1675202
1031.20 0.1674706
1031.30 0.1674211
1031.40 0.1673717
1031.50 0.1673223
1031.60 0.167273
1031.70 0.1672237
1031.80 0.1671744
1031.90 0.1671251
1032.00 0.1670758
1032.10 0.1670265
1032.20 0.1669773
1032.30 0.1669281
1032.40 0.1668789
1032.50 0.1668297
1032.60 0.1667805
1032.70 0.1667313
1032.80 0.1666822
1032.90 0.1666331
1033.00 0.1665839
1033.10 0.1665349
1033.20 0.1664858
1033.30 0.1664367
1033.40 0.1663877
1033.50 0.1663386
1033.60 0.1662896
1033.70 0.1662406
1033.80 0.1661916
1033.90 0.1661426
1034.00 0.1660937
1034.10 0.1660447
1034.20 0.1659958
1034.30 0.1659469
1034.40 0.165898
1034.50 0.1658491
1034.60 0.1658003
1034.70 0.1657514
1034.80 0.1657026
1034.90 0.1656538
1035.00 0.165605
1035.10 0.1655562
1035.20 0.1655075
1035.30 0.1654587
1035.40 0.16541
1035.50 0.1653613
1035.60 0.1653126
1035.70 0.1652639
1035.80 0.1652152
1035.90 0.1651665
1036.00 0.1651179
1036.10 0.1650693
1036.20 0.1650207
1036.30 0.1649721
1036.40 0.1649235
1036.50 0.1648749
1036.60 0.1648264
1036.70 0.1647779
1036.80 0.1647293
1036.90 0.1646808
1037.00 0.1646324
1037.10 0.1645839
1037.20 0.1645354
1037.30 0.164487
1037.40 0.1644386
1037.50 0.1643902
1037.60 0.1643418
1037.70 0.1642934
1037.80 0.164245
1037.90 0.1641967
1038.00 0.1641484
1038.10 0.1641
1038.20 0.1640517
1038.30 0.1640035
1038.40 0.1639552
1038.50 0.1639069
1038.60 0.1638587
1038.70 0.1638105
1038.80 0.1637623
1038.90 0.1637141
1039.00 0.1636659
1039.10 0.1636178
1039.20 0.1635696
1039.30 0.1635215
1039.40 0.1634734
1039.50 0.1634253
1039.60 0.1633772
1039.70 0.1633291
1039.80 0.1632811
1039.90 0.163233
1040.00 0.163185
1040.10 0.163137
1040.20 0.163089
1040.30 0.1630411
1040.40 0.1629931
1040.50 0.1629451
1040.60 0.1628972
1040.70 0.1628493
1040.80 0.1628014
1040.90 0.1627535
1041.00 0.1627057
1041.10 0.1626578
1041.20 0.16261
1041.30 0.1625622
1041.40 0.1625144
1041.50 0.1624666
1041.60 0.1624188
1041.70 0.1623712
1041.80 0.1623236
1041.90 0.162276
1042.00 0.1622285
1042.10 0.162181
1042.20 0.1621334
1042.30 0.1620859
1042.40 0.1620385
1042.50 0.161991
1042.60 0.1619435
1042.70 0.1618961
1042.80 0.1618487
1042.90 0.1618013
1043.00 0.1617539
1043.10 0.1617065
1043.20 0.1616591
1043.30 0.1616118
1043.40 0.1615644
1043.50 0.1615171
1043.60 0.1614698
1043.70 0.1614225
1043.80 0.1613753
1043.90 0.161328
1044.00 0.1612808
1044.10 0.1612335
1044.20 0.1611863
1044.30 0.1611391
1044.40 0.1610919
1044.50 0.1610448
1044.60 0.1609976
1044.70 0.1609505
1044.80 0.1609034
1044.90 0.1608563
1045.00 0.1608092
1045.10 0.1607621
1045.20 0.160715
1045.30 0.160668
1045.40 0.1606209
1045.50 0.1605739
1045.60 0.1605269
1045.70 0.1604799
1045.80 0.160433
1045.90 0.160386
1046.00 0.1603391
1046.10 0.1602922
1046.20 0.1602452
1046.30 0.1601983
1046.40 0.1601515
1046.50 0.1601046
1046.60 0.1600577
1046.70 0.1600109
1046.80 0.1599641
1046.90 0.1599173
1047.00 0.1598705
1047.10 0.1598237
1047.20 0.159777
1047.30 0.1597302
1047.40 0.1596835
1047.50 0.1596368
1047.60 0.1595901
1047.70 0.1595434
1047.80 0.1594967
1047.90 0.15945
1048.00 0.1594034
1048.10 0.1593568
1048.20 0.1593102
1048.30 0.1592636
1048.40 0.159217
1048.50 0.1591704
1048.60 0.1591239
1048.70 0.1590773
1048.80 0.1590308
1048.90 0.1589843
1049.00 0.1589378
1049.10 0.1588913
1049.20 0.1588449
1049.30 0.1587984
1049.40 0.158752
1049.50 0.1587056
1049.60 0.1586592
1049.70 0.1586128
1049.80 0.1585664
1049.90 0.15852
1050.00 0.1584737
1050.10 0.1584274
1050.20 0.158381
1050.30 0.1583347
1050.40 0.1582885
1050.50 0.1582422
1050.60 0.1581959
1050.70 0.1581497
1050.80 0.1581035
1050.90 0.1580573
1051.00 0.1580111
1051.10 0.1579649
1051.20 0.1579187
1051.30 0.1578726
1051.40 0.1578264
1051.50 0.1577803
1051.60 0.1577342
1051.70 0.1576881
1051.80 0.157642
1051.90 0.1575959
1052.00 0.1575499
1052.10 0.157504
1052.20 0.1574581
1052.30 0.1574123
1052.40 0.1573664
1052.50 0.1573206
1052.60 0.1572748
1052.70 0.157229
1052.80 0.1571832
1052.90 0.1571375
1053.00 0.1570917
1053.10 0.157046
1053.20 0.1570003
1053.30 0.1569546
1053.40 0.1569089
1053.50 0.1568632
1053.60 0.1568176
1053.70 0.1567719
1053.80 0.1567263
1053.90 0.1566807
1054.00 0.1566351
1054.10 0.1565895
1054.20 0.1565439
1054.30 0.1564984
1054.40 0.1564528
1054.50 0.1564073
1054.60 0.1563618
1054.70 0.1563163
1054.80 0.1562708
1054.90 0.1562254
1055.00 0.1561799
1055.10 0.1561345
1055.20 0.156089
1055.30 0.1560436
1055.40 0.1559982
1055.50 0.1559528
1055.60 0.1559075
1055.70 0.1558621
1055.80 0.1558168
1055.90 0.1557715
1056.00 0.1557262
1056.10 0.1556809
1056.20 0.1556356
1056.30 0.1555903
1056.40 0.1555451
1056.50 0.1554998
1056.60 0.1554546
1056.70 0.1554094
1056.80 0.1553642
1056.90 0.155319
1057.00 0.1552738
1057.10 0.1552287
1057.20 0.1551835
1057.30 0.1551384
1057.40 0.1550933
1057.50 0.1550482
1057.60 0.1550031
1057.70 0.1549581
1057.80 0.154913
1057.90 0.154868
1058.00 0.154823
1058.10 0.1547779
1058.20 0.1547329
1058.30 0.154688
1058.40 0.154643
1058.50 0.154598
1058.60 0.1545531
1058.70 0.1545082
1058.80 0.1544633
1058.90 0.1544184
1059.00 0.1543735
1059.10 0.1543286
1059.20 0.1542838
1059.30 0.1542389
1059.40 0.1541941
1059.50 0.1541493
1059.60 0.1541045
1059.70 0.1540597
1059.80 0.154015
1059.90 0.1539702
1060.00 0.1539255
1060.10 0.1538807
1060.20 0.153836
1060.30 0.1537913
1060.40 0.1537466
1060.50 0.153702
1060.60 0.1536573
1060.70 0.1536127
1060.80 0.153568
1060.90 0.1535234
1061.00 0.1534788
1061.10 0.1534342
1061.20 0.1533897
1061.30 0.1533451
1061.40 0.1533006
1061.50 0.153256
1061.60 0.1532115
1061.70 0.153167
1061.80 0.1531225
1061.90 0.1530781
1062.00 0.1530336
1062.10 0.1529892
1062.20 0.1529447
1062.30 0.1529003
1062.40 0.1528559
1062.50 0.1528115
1062.60 0.1527672
1062.70 0.152723
1062.80 0.1526788
1062.90 0.1526347
1063.00 0.1525905
1063.10 0.1525463
1063.20 0.1525022
1063.30 0.1524581
1063.40 0.152414
1063.50 0.1523699
1063.60 0.1523258
1063.70 0.1522817
1063.80 0.1522377
1063.90 0.1521936
1064.00 0.1521496
1064.10 0.1521056
1064.20 0.1520616
1064.30 0.1520176
1064.40 0.1519736
1064.50 0.1519297
1064.60 0.1518857
1064.70 0.1518418
1064.80 0.1517979
1064.90 0.151754
1065.00 0.1517101
1065.10 0.1516662
1065.20 0.1516224
1065.30 0.1515785
1065.40 0.1515347
1065.50 0.1514909
1065.60 0.1514471
1065.70 0.1514033
1065.80 0.1513595
1065.90 0.1513158
1066.00 0.151272
1066.10 0.1512283
1066.20 0.1511845
1066.30 0.1511408
1066.40 0.1510971
1066.50 0.1510535
1066.60 0.1510098
1066.70 0.1509661
1066.80 0.1509225
1066.90 0.1508789
1067.00 0.1508353
1067.10 0.1507917
1067.20 0.1507481
1067.30 0.1507045
1067.40 0.150661
1067.50 0.1506174
1067.60 0.1505739
1067.70 0.1505304
1067.80 0.1504869
1067.90 0.1504434
1068.00 0.1503999
1068.10 0.1503564
1068.20 0.150313
1068.30 0.1502695
1068.40 0.1502261
1068.50 0.1501827
1068.60 0.1501393
1068.70 0.1500959
1068.80 0.1500526
1068.90 0.1500092
1069.00 0.1499659
1069.10 0.1499225
1069.20 0.1498792
1069.30 0.1498359
1069.40 0.1497926
1069.50 0.1497494
1069.60 0.1497061
1069.70 0.1496629
1069.80 0.1496196
1069.90 0.1495764
1070.00 0.1495332
1070.10 0.14949
1070.20 0.1494468
1070.30 0.1494037
1070.40 0.1493605
1070.50 0.1493174
1070.60 0.1492742
1070.70 0.1492311
1070.80 0.149188
1070.90 0.1491449
1071.00 0.1491019
1071.10 0.1490588
1071.20 0.1490158
1071.30 0.1489727
1071.40 0.1489297
1071.50 0.1488867
1071.60 0.1488437
1071.70 0.1488008
1071.80 0.1487578
1071.90 0.1487148
1072.00 0.1486719
1072.10 0.148629
1072.20 0.1485861
1072.30 0.1485432
1072.40 0.1485003
1072.50 0.1484574
1072.60 0.1484146
1072.70 0.1483717
1072.80 0.1483289
1072.90 0.1482861
1073.00 0.1482433
1073.10 0.1482005
1073.20 0.1481577
1073.30 0.1481151
1073.40 0.1480725
1073.50 0.14803
1073.60 0.1479874
1073.70 0.1479448
1073.80 0.1479023
1073.90 0.1478598
1074.00 0.1478172
1074.10 0.1477747
1074.20 0.1477322
1074.30 0.1476898
1074.40 0.1476473
1074.50 0.1476049
1074.60 0.1475624
1074.70 0.14752
1074.80 0.1474776
1074.90 0.1474352
1075.00 0.1473928
1075.10 0.1473504
1075.20 0.1473081
1075.30 0.1472657
1075.40 0.1472234
1075.50 0.1471811
1075.60 0.1471388
1075.70 0.1470965
1075.80 0.1470542
1075.90 0.1470119
1076.00 0.1469697
1076.10 0.1469274
1076.20 0.1468852
1076.30 0.146843
1076.40 0.1468008
1076.50 0.1467586
1076.60 0.1467164
1076.70 0.1466743
1076.80 0.1466321
1076.90 0.14659
1077.00 0.1465479
1077.10 0.1465058
1077.20 0.1464637
1077.30 0.1464216
1077.40 0.1463795
1077.50 0.1463375
1077.60 0.1462954
1077.70 0.1462534
1077.80 0.1462114
1077.90 0.1461694
1078.00 0.1461274
1078.10 0.1460854
1078.20 0.1460435
1078.30 0.1460015
1078.40 0.1459596
1078.50 0.1459176
1078.60 0.1458757
1078.70 0.1458338
1078.80 0.1457919
1078.90 0.1457501
1079.00 0.1457082
1079.10 0.1456664
1079.20 0.1456245
1079.30 0.1455827
1079.40 0.1455409
1079.50 0.1454991
1079.60 0.1454573
1079.70 0.1454156
1079.80 0.1453738
1079.90 0.1453321
1080.00 0.1452903
1080.10 0.1452486
1080.20 0.1452069
1080.30 0.1451652
1080.40 0.1451235
1080.50 0.1450819
1080.60 0.1450402
1080.70 0.1449986
1080.80 0.144957
1080.90 0.1449153
1081.00 0.1448737
1081.10 0.1448322
1081.20 0.1447906
1081.30 0.144749
1081.40 0.1447075
1081.50 0.1446659
1081.60 0.1446244
1081.70 0.1445829
1081.80 0.1445414
1081.90 0.1444999
1082.00 0.1444584
1082.10 0.144417
1082.20 0.1443755
1082.30 0.1443341
1082.40 0.1442927
1082.50 0.1442513
1082.60 0.1442099
1082.70 0.1441685
1082.80 0.1441271
1082.90 0.1440858
1083.00 0.1440444
1083.10 0.1440031
1083.20 0.1439618
1083.30 0.1439205
1083.40 0.1438792
1083.50 0.1438379
1083.60 0.1437967
1083.70 0.1437554
1083.80 0.1437142
1083.90 0.1436729
1084.00 0.1436318
1084.10 0.1435908
1084.20 0.1435497
1084.30 0.1435087
1084.40 0.1434677
1084.50 0.1434267
1084.60 0.1433857
1084.70 0.1433447
1084.80 0.1433038
1084.90 0.1432628
1085.00 0.1432219
1085.10 0.1431809
1085.20 0.14314
1085.30 0.1430991
1085.40 0.1430582
1085.50 0.1430173
1085.60 0.1429765
1085.70 0.1429356
1085.80 0.1428948
1085.90 0.1428539
1086.00 0.1428131
1086.10 0.1427723
1086.20 0.1427315
1086.30 0.1426908
1086.40 0.14265
1086.50 0.1426092
1086.60 0.1425685
1086.70 0.1425278
1086.80 0.1424871
1086.90 0.1424464
1087.00 0.1424057
1087.10 0.142365
1087.20 0.1423243
1087.30 0.1422837
1087.40 0.142243
1087.50 0.1422024
1087.60 0.1421618
1087.70 0.1421212
1087.80 0.1420806
1087.90 0.14204
1088.00 0.1419995
1088.10 0.1419589
1088.20 0.1419184
1088.30 0.1418778
1088.40 0.1418373
1088.50 0.1417968
1088.60 0.1417563
1088.70 0.1417159
1088.80 0.1416754
1088.90 0.141635
1089.00 0.1415945
1089.10 0.1415541
1089.20 0.1415137
1089.30 0.1414733
1089.40 0.1414329
1089.50 0.1413925
1089.60 0.1413521
1089.70 0.1413118
1089.80 0.1412714
1089.90 0.1412311
1090.00 0.1411908
1090.10 0.1411505
1090.20 0.1411102
1090.30 0.1410699
1090.40 0.1410296
1090.50 0.1409894
1090.60 0.1409491
1090.70 0.1409089
1090.80 0.1408687
1090.90 0.1408285
1091.00 0.1407883
1091.10 0.1407481
1091.20 0.1407079
1091.30 0.1406678
1091.40 0.1406276
1091.50 0.1405875
1091.60 0.1405474
1091.70 0.1405073
1091.80 0.1404672
1091.90 0.1404271
1092.00 0.140387
1092.10 0.140347
1092.20 0.1403069
1092.30 0.1402669
1092.40 0.1402269
1092.50 0.1401869
1092.60 0.1401469
1092.70 0.1401069
1092.80 0.1400669
1092.90 0.140027
1093.00 0.139987
1093.10 0.1399471
1093.20 0.1399072
1093.30 0.1398672
1093.40 0.1398273
1093.50 0.1397875
1093.60 0.1397476
1093.70 0.1397077
1093.80 0.1396679
1093.90 0.139628
1094.00 0.1395882
1094.10 0.1395484
1094.20 0.1395086
1094.30 0.1394688
1094.40 0.139429
1094.50 0.1393893
1094.60 0.1393495
1094.70 0.1393098
1094.80 0.1392701
1094.90 0.1392306
1095.00 0.139191
1095.10 0.1391515
1095.20 0.1391119
1095.30 0.1390724
1095.40 0.1390329
1095.50 0.1389934
1095.60 0.1389539
1095.70 0.1389144
1095.80 0.138875
1095.90 0.1388355
1096.00 0.1387961
1096.10 0.1387567
1096.20 0.1387172
1096.30 0.1386778
1096.40 0.1386384
1096.50 0.1385991
1096.60 0.1385597
1096.70 0.1385203
1096.80 0.138481
1096.90 0.1384417
1097.00 0.1384024
1097.10 0.1383631
1097.20 0.1383238
1097.30 0.1382845
1097.40 0.1382452
1097.50 0.138206
1097.60 0.1381667
1097.70 0.1381275
1097.80 0.1380883
1097.90 0.138049
1098.00 0.1380098
1098.10 0.1379707
1098.20 0.1379315
1098.30 0.1378923
1098.40 0.1378532
1098.50 0.137814
1098.60 0.1377749
1098.70 0.1377358
1098.80 0.1376967
1098.90 0.1376576
1099.00 0.1376185
1099.10 0.1375795
1099.20 0.1375404
1099.30 0.1375014
1099.40 0.1374623
1099.50 0.1374233
1099.60 0.1373843
1099.70 0.1373453
1099.80 0.1373063
1099.90 0.1372674
1100.00 0.1372284
1100.10 0.1371895
1100.20 0.1371505
1100.30 0.1371116
1100.40 0.1370727
1100.50 0.1370338
1100.60 0.1369949
1100.70 0.136956
1100.80 0.1369172
1100.90 0.1368783
1101.00 0.1368395
1101.10 0.1368007
1101.20 0.1367618
1101.30 0.136723
1101.40 0.1366842
1101.50 0.1366455
1101.60 0.1366067
1101.70 0.1365679
1101.80 0.1365292
1101.90 0.1364905
1102.00 0.1364517
1102.10 0.136413
1102.20 0.1363743
1102.30 0.1363356
1102.40 0.136297
1102.50 0.1362583
1102.60 0.1362197
1102.70 0.136181
1102.80 0.1361424
1102.90 0.1361038
1103.00 0.1360652
1103.10 0.1360266
1103.20 0.135988
1103.30 0.1359494
1103.40 0.1359109
1103.50 0.1358723
1103.60 0.1358338
1103.70 0.1357953
1103.80 0.1357568
1103.90 0.1357183
1104.00 0.1356798
1104.10 0.1356413
1104.20 0.1356028
1104.30 0.1355644
1104.40 0.135526
1104.50 0.1354875
1104.60 0.1354491
1104.70 0.1354107
1104.80 0.1353723
1104.90 0.1353339
1105.00 0.1352956
1105.10 0.1352572
1105.20 0.1352189
1105.30 0.1351805
1105.40 0.1351422
1105.50 0.1351039
1105.60 0.1350656
1105.70 0.1350273
1105.80 0.1349892
1105.90 0.134951
1106.00 0.1349129
1106.10 0.1348748
1106.20 0.1348367
1106.30 0.1347986
1106.40 0.1347606
1106.50 0.1347225
1106.60 0.1346845
1106.70 0.1346464
1106.80 0.1346084
1106.90 0.1345704
1107.00 0.1345324
1107.10 0.1344944
1107.20 0.1344564
1107.30 0.1344185
1107.40 0.1343805
1107.50 0.1343426
1107.60 0.1343046
1107.70 0.1342667
1107.80 0.1342288
1107.90 0.1341909
1108.00 0.134153
1108.10 0.1341151
1108.20 0.1340773
1108.30 0.1340394
1108.40 0.1340016
1108.50 0.1339638
1108.60 0.133926
1108.70 0.1338881
1108.80 0.1338504
1108.90 0.1338126
1109.00 0.1337748
1109.10 0.133737
1109.20 0.1336993
1109.30 0.1336616
1109.40 0.1336238
1109.50 0.1335861
1109.60 0.1335484
1109.70 0.1335107
1109.80 0.133473
1109.90 0.1334354
1110.00 0.1333977
1110.10 0.1333601
1110.20 0.1333224
1110.30 0.1332848
1110.40 0.1332472
1110.50 0.1332096
1110.60 0.133172
1110.70 0.1331344
1110.80 0.1330969
1110.90 0.1330593
1111.00 0.1330218
1111.10 0.1329843
1111.20 0.1329467
1111.30 0.1329092
1111.40 0.1328717
1111.50 0.1328342
1111.60 0.1327968
1111.70 0.1327593
1111.80 0.1327218
1111.90 0.1326844
1112.00 0.132647
1112.10 0.1326096
1112.20 0.1325722
1112.30 0.1325348
1112.40 0.1324974
1112.50 0.13246
1112.60 0.1324226
1112.70 0.1323853
1112.80 0.132348
1112.90 0.1323106
1113.00 0.1322733
1113.10 0.132236
1113.20 0.1321987
1113.30 0.1321614
1113.40 0.1321242
1113.50 0.1320869
1113.60 0.1320496
1113.70 0.1320124
1113.80 0.1319752
1113.90 0.131938
1114.00 0.1319008
1114.10 0.1318636
1114.20 0.1318264
1114.30 0.1317892
1114.40 0.1317521
1114.50 0.1317149
1114.60 0.1316778
1114.70 0.1316407
1114.80 0.1316035
1114.90 0.1315664
1115.00 0.1315293
1115.10 0.1314923
1115.20 0.1314552
1115.30 0.1314181
1115.40 0.1313811
1115.50 0.1313441
1115.60 0.131307
1115.70 0.13127
1115.80 0.131233
1115.90 0.131196
1116.00 0.131159
1116.10 0.1311221
1116.20 0.1310851
1116.30 0.1310482
1116.40 0.1310112
1116.50 0.1309743
1116.60 0.1309374
1116.70 0.1309005
1116.80 0.1308637
1116.90 0.1308269
1117.00 0.1307902
1117.10 0.1307535
1117.20 0.1307167
1117.30 0.13068
1117.40 0.1306434
1117.50 0.1306067
1117.60 0.13057
1117.70 0.1305333
1117.80 0.1304967
1117.90 0.1304601
1118.00 0.1304234
1118.10 0.1303868
1118.20 0.1303502
1118.30 0.1303136
1118.40 0.130277
1118.50 0.1302405
1118.60 0.1302039
1118.70 0.1301674
1118.80 0.1301308
1118.90 0.1300943
1119.00 0.1300578
1119.10 0.1300213
1119.20 0.1299848
1119.30 0.1299483
1119.40 0.1299118
1119.50 0.1298754
1119.60 0.1298389
1119.70 0.1298025
1119.80 0.1297661
1119.90 0.1297297
1120.00 0.1296933
1120.10 0.1296569
1120.20 0.1296205
1120.30 0.1295841
1120.40 0.1295477
1120.50 0.1295114
1120.60 0.129475
1120.70 0.1294387
1120.80 0.1294024
1120.90 0.1293661
1121.00 0.1293298
1121.10 0.1292935
1121.20 0.1292572
1121.30 0.129221
1121.40 0.1291847
1121.50 0.1291485
1121.60 0.1291123
1121.70 0.129076
1121.80 0.1290398
1121.90 0.1290036
1122.00 0.1289674
1122.10 0.1289313
1122.20 0.1288951
1122.30 0.1288589
1122.40 0.1288228
1122.50 0.1287867
1122.60 0.1287505
1122.70 0.1287144
1122.80 0.1286783
1122.90 0.1286422
1123.00 0.1286061
1123.10 0.1285701
1123.20 0.128534
1123.30 0.128498
1123.40 0.1284619
1123.50 0.1284259
1123.60 0.1283899
1123.70 0.1283539
1123.80 0.1283179
1123.90 0.1282819
1124.00 0.1282459
1124.10 0.12821
1124.20 0.128174
1124.30 0.1281381
1124.40 0.1281021
1124.50 0.1280662
1124.60 0.1280303
1124.70 0.1279944
1124.80 0.1279585
1124.90 0.1279226
1125.00 0.1278868
1125.10 0.1278509
1125.20 0.1278151
1125.30 0.1277792
1125.40 0.1277434
1125.50 0.1277076
1125.60 0.1276718
1125.70 0.127636
1125.80 0.1276002
1125.90 0.1275645
1126.00 0.1275287
1126.10 0.127493
1126.20 0.1274572
1126.30 0.1274215
1126.40 0.1273858
1126.50 0.1273501
1126.60 0.1273144
1126.70 0.1272787
1126.80 0.127243
1126.90 0.1272074
1127.00 0.1271717
1127.10 0.1271361
1127.20 0.1271004
1127.30 0.1270648
1127.40 0.1270292
1127.50 0.1269936
1127.60 0.126958
1127.70 0.1269224
1127.80 0.1268869
1127.90 0.1268513
1128.00 0.1268159
1128.10 0.1267805
1128.20 0.1267451
1128.30 0.1267097
1128.40 0.1266743
1128.50 0.126639
1128.60 0.1266036
1128.70 0.1265683
1128.80 0.1265329
1128.90 0.1264976
1129.00 0.1264623
1129.10 0.126427
1129.20 0.1263917
1129.30 0.1263565
1129.40 0.1263212
1129.50 0.1262859
1129.60 0.1262507
1129.70 0.1262155
1129.80 0.1261802
1129.90 0.126145
1130.00 0.1261098
1130.10 0.1260746
1130.20 0.1260394
1130.30 0.1260043
1130.40 0.1259691
1130.50 0.125934
1130.60 0.1258988
1130.70 0.1258637
1130.80 0.1258286
1130.90 0.1257935
1131.00 0.1257584
1131.10 0.1257233
1131.20 0.1256882
1131.30 0.1256531
1131.40 0.1256181
1131.50 0.125583
1131.60 0.125548
1131.70 0.125513
1131.80 0.1254779
1131.90 0.1254429
1132.00 0.1254079
1132.10 0.125373
1132.20 0.125338
1132.30 0.125303
1132.40 0.1252681
1132.50 0.1252331
1132.60 0.1251982
1132.70 0.1251633
1132.80 0.1251284
1132.90 0.1250935
1133.00 0.1250586
1133.10 0.1250237
1133.20 0.1249888
1133.30 0.124954
1133.40 0.1249191
1133.50 0.1248843
1133.60 0.1248494
1133.70 0.1248146
1133.80 0.1247798
1133.90 0.124745
1134.00 0.1247102
1134.10 0.1246755
1134.20 0.1246407
1134.30 0.1246059
1134.40 0.1245712
1134.50 0.1245365
1134.60 0.1245017
1134.70 0.124467
1134.80 0.1244323
1134.90 0.1243976
1135.00 0.1243629
1135.10 0.1243283
1135.20 0.1242936
1135.30 0.1242589
1135.40 0.1242243
1135.50 0.1241897
1135.60 0.124155
1135.70 0.1241204
1135.80 0.1240858
1135.90 0.1240512
1136.00 0.1240167
1136.10 0.1239821
1136.20 0.1239475
1136.30 0.123913
1136.40 0.1238784
1136.50 0.1238439
1136.60 0.1238094
1136.70 0.1237749
1136.80 0.1237404
1136.90 0.1237059
1137.00 0.1236714
1137.10 0.1236369
1137.20 0.1236025
1137.30 0.123568
1137.40 0.1235336
1137.50 0.1234992
1137.60 0.1234648
1137.70 0.1234303
1137.80 0.1233959
1137.90 0.1233616
1138.00 0.1233272
1138.10 0.1232928
1138.20 0.1232585
1138.30 0.1232241
1138.40 0.1231898
1138.50 0.1231555
1138.60 0.1231211
1138.70 0.1230868
1138.80 0.1230525
1138.90 0.1230182
1139.00 0.122984
1139.10 0.1229497
1139.20 0.1229155
1139.30 0.1228813
1139.40 0.1228472
1139.50 0.1228131
1139.60 0.122779
1139.70 0.122745
1139.80 0.1227109
1139.90 0.1226768
1140.00 0.1226428
1140.10 0.1226087
1140.20 0.1225747
1140.30 0.1225407
1140.40 0.1225067
1140.50 0.1224727
1140.60 0.1224387
1140.70 0.1224047
1140.80 0.1223707
1140.90 0.1223368
1141.00 0.1223028
1141.10 0.1222689
1141.20 0.122235
1141.30 0.122201
1141.40 0.1221671
1141.50 0.1221332
1141.60 0.1220993
1141.70 0.1220655
1141.80 0.1220316
1141.90 0.1219977
1142.00 0.1219639
1142.10 0.12193
1142.20 0.1218962
1142.30 0.1218624
1142.40 0.1218286
1142.50 0.1217948
1142.60 0.121761
1142.70 0.1217272
1142.80 0.1216934
1142.90 0.1216597
1143.00 0.1216259
1143.10 0.1215922
1143.20 0.1215585
1143.30 0.1215247
1143.40 0.121491
1143.50 0.1214573
1143.60 0.1214236
1143.70 0.12139
1143.80 0.1213563
1143.90 0.1213226
1144.00 0.121289
1144.10 0.1212553
1144.20 0.1212217
1144.30 0.1211881
1144.40 0.1211545
1144.50 0.1211209
1144.60 0.1210873
1144.70 0.1210537
1144.80 0.1210201
1144.90 0.1209866
1145.00 0.120953
1145.10 0.1209195
1145.20 0.120886
1145.30 0.1208524
1145.40 0.1208189
1145.50 0.1207854
1145.60 0.1207519
1145.70 0.1207184
1145.80 0.120685
1145.90 0.1206515
1146.00 0.1206181
1146.10 0.1205846
1146.20 0.1205512
1146.30 0.1205178
1146.40 0.1204843
1146.50 0.1204509
1146.60 0.1204175
1146.70 0.1203842
1146.80 0.1203508
1146.90 0.1203174
1147.00 0.1202841
1147.10 0.1202507
1147.20 0.1202174
1147.30 0.1201841
1147.40 0.1201508
1147.50 0.1201174
1147.60 0.1200841
1147.70 0.1200509
1147.80 0.1200176
1147.90 0.1199843
1148.00 0.1199511
1148.10 0.1199178
1148.20 0.1198846
1148.30 0.1198514
1148.40 0.1198181
1148.50 0.1197849
1148.60 0.1197517
1148.70 0.1197185
1148.80 0.1196854
1148.90 0.1196522
1149.00 0.119619
1149.10 0.1195859
1149.20 0.1195527
1149.30 0.1195196
1149.40 0.1194865
1149.50 0.1194534
1149.60 0.1194203
1149.70 0.1193872
1149.80 0.1193541
1149.90 0.119321
1150.00 0.119288
1150.10 0.1192549
1150.20 0.1192219
1150.30 0.1191888
1150.40 0.1191558
1150.50 0.1191228
1150.60 0.1190898
1150.70 0.1190569
1150.80 0.1190241
1150.90 0.1189912
1151.00 0.1189584
1151.10 0.1189255
1151.20 0.1188927
1151.30 0.1188599
1151.40 0.1188271
1151.50 0.1187943
1151.60 0.1187615
1151.70 0.1187287
1151.80 0.118696
1151.90 0.1186632
1152.00 0.1186304
1152.10 0.1185977
1152.20 0.118565
1152.30 0.1185323
1152.40 0.1184995
1152.50 0.1184668
1152.60 0.1184341
1152.70 0.1184015
1152.80 0.1183688
1152.90 0.1183361
1153.00 0.1183035
1153.10 0.1182708
1153.20 0.1182382
1153.30 0.1182056
1153.40 0.118173
1153.50 0.1181403
1153.60 0.1181077
1153.70 0.1180752
1153.80 0.1180426
1153.90 0.11801
1154.00 0.1179775
1154.10 0.1179449
1154.20 0.1179124
1154.30 0.1178798
1154.40 0.1178473
1154.50 0.1178148
1154.60 0.1177823
1154.70 0.1177498
1154.80 0.1177173
1154.90 0.1176849
1155.00 0.1176524
1155.10 0.1176199
1155.20 0.1175875
1155.30 0.1175551
1155.40 0.1175226
1155.50 0.1174902
1155.60 0.1174578
1155.70 0.1174254
1155.80 0.117393
1155.90 0.1173606
1156.00 0.1173283
1156.10 0.1172959
1156.20 0.1172636
1156.30 0.1172312
1156.40 0.1171989
1156.50 0.1171666
1156.60 0.1171343
1156.70 0.117102
1156.80 0.1170697
1156.90 0.1170374
1157.00 0.1170051
1157.10 0.1169729
1157.20 0.1169406
1157.30 0.1169084
1157.40 0.1168761
1157.50 0.1168439
1157.60 0.1168117
1157.70 0.1167795
1157.80 0.1167473
1157.90 0.1167151
1158.00 0.1166829
1158.10 0.1166508
1158.20 0.1166186
1158.30 0.1165865
1158.40 0.1165543
1158.50 0.1165222
1158.60 0.1164901
1158.70 0.116458
1158.80 0.1164259
1158.90 0.1163938
1159.00 0.1163617
1159.10 0.1163296
1159.20 0.1162975
1159.30 0.1162655
1159.40 0.1162334
1159.50 0.1162014
1159.60 0.1161694
1159.70 0.1161374
1159.80 0.1161054
1159.90 0.1160734
1160.00 0.1160414
1160.10 0.1160094
1160.20 0.1159774
1160.30 0.1159455
1160.40 0.1159135
1160.50 0.1158816
1160.60 0.1158496
1160.70 0.1158177
1160.80 0.1157858
1160.90 0.1157539
1161.00 0.115722
1161.10 0.1156901
1161.20 0.1156582
1161.30 0.1156263
1161.40 0.1155945
1161.50 0.1155626
1161.60 0.1155308
1161.70 0.115499
1161.80 0.1154671
1161.90 0.1154353
1162.00 0.1154035
1162.10 0.1153717
1162.20 0.1153401
1162.30 0.1153084
1162.40 0.1152767
1162.50 0.1152451
1162.60 0.1152135
1162.70 0.1151818
1162.80 0.1151502
1162.90 0.1151186
1163.00 0.115087
1163.10 0.1150554
1163.20 0.1150238
1163.30 0.1149923
1163.40 0.1149607
1163.50 0.1149292
1163.60 0.1148976
1163.70 0.1148661
1163.80 0.1148346
1163.90 0.114803
1164.00 0.1147715
1164.10 0.11474
1164.20 0.1147086
1164.30 0.1146771
1164.40 0.1146456
1164.50 0.1146141
1164.60 0.1145827
1164.70 0.1145513
1164.80 0.1145198
1164.90 0.1144884
1165.00 0.114457
1165.10 0.1144256
1165.20 0.1143942
1165.30 0.1143628
1165.40 0.1143314
1165.50 0.1143
1165.60 0.1142687
1165.70 0.1142373
1165.80 0.114206
1165.90 0.1141747
1166.00 0.1141433
1166.10 0.114112
1166.20 0.1140807
1166.30 0.1140494
1166.40 0.1140181
1166.50 0.1139868
1166.60 0.1139556
1166.70 0.1139243
1166.80 0.1138931
1166.90 0.1138618
1167.00 0.1138306
1167.10 0.1137994
1167.20 0.1137681
1167.30 0.1137369
1167.40 0.1137057
1167.50 0.1136746
1167.60 0.1136434
1167.70 0.1136122
1167.80 0.113581
1167.90 0.1135499
1168.00 0.1135188
1168.10 0.1134876
1168.20 0.1134565
1168.30 0.1134254
1168.40 0.1133943
1168.50 0.1133632
1168.60 0.1133321
1168.70 0.113301
1168.80 0.1132699
1168.90 0.1132389
1169.00 0.1132078
1169.10 0.1131768
1169.20 0.1131458
1169.30 0.1131147
1169.40 0.1130837
1169.50 0.1130527
1169.60 0.1130217
1169.70 0.1129907
1169.80 0.1129597
1169.90 0.1129288
1170.00 0.1128978
1170.10 0.1128669
1170.20 0.1128359
1170.30 0.112805
1170.40 0.112774
1170.50 0.1127431
1170.60 0.1127122
1170.70 0.1126813
1170.80 0.1126504
1170.90 0.1126196
1171.00 0.1125887
1171.10 0.1125578
1171.20 0.112527
1171.30 0.1124961
1171.40 0.1124653
1171.50 0.1124344
1171.60 0.1124036
1171.70 0.1123728
1171.80 0.112342
1171.90 0.1123112
1172.00 0.1122804
1172.10 0.1122497
1172.20 0.1122189
1172.30 0.1121881
1172.40 0.1121574
1172.50 0.1121267
1172.60 0.1120959
1172.70 0.1120652
1172.80 0.1120345
1172.90 0.1120038
1173.00 0.1119731
1173.10 0.1119424
1173.20 0.1119117
1173.30 0.1118811
1173.40 0.1118504
1173.50 0.1118197
1173.60 0.1117891
1173.70 0.1117585
1173.80 0.1117279
1173.90 0.1116974
1174.00 0.1116669
1174.10 0.1116364
1174.20 0.111606
1174.30 0.1115755
1174.40 0.111545
1174.50 0.1115146
1174.60 0.1114841
1174.70 0.1114537
1174.80 0.1114233
1174.90 0.1113929
1175.00 0.1113625
1175.10 0.1113321
1175.20 0.1113017
1175.30 0.1112713
1175.40 0.1112409
1175.50 0.1112106
1175.60 0.1111802
1175.70 0.1111499
1175.80 0.1111195
1175.90 0.1110892
1176.00 0.1110589
1176.10 0.1110286
1176.20 0.1109983
1176.30 0.110968
1176.40 0.1109377
1176.50 0.1109074
1176.60 0.1108771
1176.70 0.1108469
1176.80 0.1108166
1176.90 0.1107864
1177.00 0.1107562
1177.10 0.1107259
1177.20 0.1106957
1177.30 0.1106655
1177.40 0.1106353
1177.50 0.1106051
1177.60 0.1105749
1177.70 0.1105448
1177.80 0.1105146
1177.90 0.1104844
1178.00 0.1104543
1178.10 0.1104242
1178.20 0.110394
1178.30 0.1103639
1178.40 0.1103338
1178.50 0.1103037
1178.60 0.1102736
1178.70 0.1102435
1178.80 0.1102134
1178.90 0.1101834
1179.00 0.1101533
1179.10 0.1101233
1179.20 0.1100932
1179.30 0.1100632
1179.40 0.1100332
1179.50 0.1100031
1179.60 0.1099733
1179.70 0.1099444
1179.80 0.1099155
1179.90 0.1098867
1180.00 0.1098579
1180.10 0.109829
1180.20 0.1098002
1180.30 0.1097714
1180.40 0.1097426
1180.50 0.1097138
1180.60 0.109685
1180.70 0.1096562
1180.80 0.1096274
1180.90 0.1095987
1181.00 0.1095699
1181.10 0.1095412
1181.20 0.1095124
1181.30 0.1094837
1181.40 0.109455
1181.50 0.1094263
1181.60 0.1093976
1181.70 0.1093689
1181.80 0.1093402
1181.90 0.1093115
1182.00 0.1092828
1182.10 0.1092541
1182.20 0.1092255
1182.30 0.1091968
1182.40 0.1091682
1182.50 0.1091396
1182.60 0.1091109
1182.70 0.1090823
1182.80 0.1090537
1182.90 0.1090251
1183.00 0.1089965
1183.10 0.1089679
1183.20 0.1089393
1183.30 0.1089108
1183.40 0.1088822
1183.50 0.1088537
1183.60 0.1088251
1183.70 0.1087966
1183.80 0.1087681
1183.90 0.1087395
1184.00 0.108711
1184.10 0.1086825
1184.20 0.108654
1184.30 0.1086255
1184.40 0.1085971
1184.50 0.1085686
1184.60 0.1085401
1184.70 0.1085117
1184.80 0.1084832
1184.90 0.1084548
1185.00 0.1084263
1185.10 0.1083979
1185.20 0.1083695
1185.30 0.1083411
1185.40 0.1083127
1185.50 0.1082839
1185.60 0.1082545
1185.70 0.1082251
1185.80 0.1081957
1185.90 0.1081663
1186.00 0.108137
1186.10 0.1081076
1186.20 0.1080783
1186.30 0.1080489
1186.40 0.1080196
1186.50 0.1079903
1186.60 0.107961
1186.70 0.1079317
1186.80 0.1079024
1186.90 0.1078731
1187.00 0.1078438
1187.10 0.1078145
1187.20 0.1077853
1187.30 0.107756
1187.40 0.1077268
1187.50 0.1076975
1187.60 0.1076683
1187.70 0.1076391
1187.80 0.1076099
1187.90 0.1075806
1188.00 0.1075514
1188.10 0.1075223
1188.20 0.1074931
1188.30 0.1074639
1188.40 0.1074347
1188.50 0.1074056
1188.60 0.1073764
1188.70 0.1073473
1188.80 0.1073182
1188.90 0.107289
1189.00 0.1072599
1189.10 0.1072308
1189.20 0.1072017
1189.30 0.1071726
1189.40 0.1071436
1189.50 0.1071145
1189.60 0.1070854
1189.70 0.1070564
1189.80 0.1070273
1189.90 0.1069983
1190.00 0.1069692
1190.10 0.1069402
1190.20 0.1069112
1190.30 0.1068822
1190.40 0.1068532
1190.50 0.1068242
1190.60 0.1067952
1190.70 0.1067662
1190.80 0.1067373
1190.90 0.1067083
1191.00 0.1066794
1191.10 0.1066504
1191.20 0.1066215
1191.30 0.1065926
1191.40 0.1065637
1191.50 0.1065348
1191.60 0.1065059
1191.70 0.106477
1191.80 0.1064481
1191.90 0.1064192
1192.00 0.1063903
1192.10 0.1063615
1192.20 0.1063326
1192.30 0.1063038
1192.40 0.1062749
1192.50 0.1062461
1192.60 0.1062173
1192.70 0.1061885
1192.80 0.1061597
1192.90 0.1061309
1193.00 0.1061021
1193.10 0.1060733
1193.20 0.1060446
1193.30 0.1060158
1193.40 0.105987
1193.50 0.1059583
1193.60 0.1059296
1193.70 0.1059008
1193.80 0.1058721
1193.90 0.1058434
1194.00 0.1058147
1194.10 0.105786
1194.20 0.1057573
1194.30 0.1057286
1194.40 0.1057
1194.50 0.1056713
1194.60 0.1056426
1194.70 0.105614
1194.80 0.1055854
1194.90 0.1055567
1195.00 0.1055281
1195.10 0.1054995
1195.20 0.1054709
1195.30 0.1054423
1195.40 0.1054137
1195.50 0.1053851
1195.60 0.1053565
1195.70 0.105328
1195.80 0.1052994
1195.90 0.1052709
1196.00 0.1052423
1196.10 0.1052138
1196.20 0.1051853
1196.30 0.1051567
1196.40 0.1051282
1196.50 0.1050997
1196.60 0.1050712
1196.70 0.1050428
1196.80 0.1050143
1196.90 0.1049858
1197.00 0.1049573
1197.10 0.1049289
1197.20 0.1049004
1197.30 0.104872
1197.40 0.1048437
1197.50 0.1048154
1197.60 0.1047871
1197.70 0.1047588
1197.80 0.1047305
1197.90 0.1047022
1198.00 0.1046739
1198.10 0.1046457
1198.20 0.1046174
1198.30 0.1045892
1198.40 0.1045609
1198.50 0.1045327
1198.60 0.1045045
1198.70 0.1044762
1198.80 0.104448
1198.90 0.1044198
1199.00 0.1043916
1199.10 0.1043635
1199.20 0.1043353
1199.30 0.1043071
1199.40 0.1042789
1199.50 0.1042508
1199.60 0.1042227
1199.70 0.1041945
1199.80 0.1041664
1199.90 0.1041383
1200.00 0.1041102
