# Version 2.1 - nm, norm@500 to 1, cut digits, bergeron_He_5000_80.dat_5000
# Wavelength(nm)  Flambda(ergs/cm^s/s/nm)
300.00 0.1464687
300.10 0.146798
300.20 0.1471265
300.30 0.1474566
300.40 0.1478002
300.50 0.1481433
300.60 0.148486
300.70 0.1488281
300.80 0.1491697
300.90 0.1495109
301.00 0.1498516
301.10 0.1501918
301.20 0.1505315
301.30 0.1508707
301.40 0.1512095
301.50 0.1515477
301.60 0.1518855
301.70 0.1522228
301.80 0.1525596
301.90 0.152896
302.00 0.1532318
302.10 0.153584
302.20 0.1539375
302.30 0.1542906
302.40 0.1546432
302.50 0.1549952
302.60 0.1553468
302.70 0.1556978
302.80 0.1560484
302.90 0.1563984
303.00 0.156748
303.10 0.1570971
303.20 0.1574456
303.30 0.1577942
303.40 0.1581468
303.50 0.1584988
303.60 0.1588504
303.70 0.1592015
303.80 0.1595521
303.90 0.1599021
304.00 0.1602517
304.10 0.1606008
304.20 0.1609494
304.30 0.1612975
304.40 0.1616451
304.50 0.1619922
304.60 0.1623505
304.70 0.1627094
304.80 0.1630679
304.90 0.1634259
305.00 0.1637834
305.10 0.1641404
305.20 0.1644969
305.30 0.1648528
305.40 0.1652083
305.50 0.1655633
305.60 0.1659178
305.70 0.1662717
305.80 0.1666252
305.90 0.1669782
306.00 0.1673307
306.10 0.1676826
306.20 0.1680341
306.30 0.1683851
306.40 0.1687566
306.50 0.1691339
306.60 0.1695107
306.70 0.1698869
306.80 0.1702626
306.90 0.1706378
307.00 0.1710124
307.10 0.1713866
307.20 0.1717602
307.30 0.1721333
307.40 0.1725058
307.50 0.1728779
307.60 0.1732494
307.70 0.1736204
307.80 0.1739909
307.90 0.1743608
308.00 0.1747303
308.10 0.1750992
308.20 0.1754676
308.30 0.1758355
308.40 0.1762029
308.50 0.1765698
308.60 0.1769361
308.70 0.177302
308.80 0.1776681
308.90 0.1780359
309.00 0.1784002
309.10 0.178764
309.20 0.1791272
309.30 0.17949
309.40 0.1798541
309.50 0.1802293
309.60 0.180604
309.70 0.1809781
309.80 0.1813517
309.90 0.1817248
310.00 0.1820974
310.10 0.1824694
310.20 0.182841
310.30 0.183212
310.40 0.1835943
310.50 0.1839887
310.60 0.1843827
310.70 0.184776
310.80 0.1851689
310.90 0.1855612
311.00 0.18595
311.10 0.1863383
311.20 0.186726
311.30 0.1871132
311.40 0.1874996
311.50 0.1878854
311.60 0.1882707
311.70 0.1886555
311.80 0.1890397
311.90 0.1894235
312.00 0.1898066
312.10 0.1901893
312.20 0.1905699
312.30 0.1909438
312.40 0.1913172
312.50 0.1916923
312.60 0.1920753
312.70 0.1924578
312.80 0.1928398
312.90 0.1932262
313.00 0.1936176
313.10 0.1940084
313.20 0.1943987
313.30 0.1947889
313.40 0.1951802
313.50 0.1955709
313.60 0.1959611
313.70 0.1963508
313.80 0.1967399
313.90 0.1971284
314.00 0.1975165
314.10 0.1979102
314.20 0.1983033
314.30 0.1986959
314.40 0.199088
314.50 0.1994795
314.60 0.1998705
314.70 0.2002609
314.80 0.2006791
314.90 0.20113
315.00 0.2015293
315.10 0.2019211
315.20 0.2023123
315.30 0.202703
315.40 0.2030932
315.50 0.2034828
315.60 0.2038719
315.70 0.2042766
315.80 0.2046808
315.90 0.2050844
316.00 0.2054875
316.10 0.20589
316.20 0.206292
316.30 0.206645
316.40 0.2070943
316.50 0.2074463
316.60 0.2078944
316.70 0.2082936
316.80 0.2086923
316.90 0.2090904
317.00 0.209488
317.10 0.2098851
317.20 0.2102816
317.30 0.2107013
317.40 0.2111176
317.50 0.2115253
317.60 0.2119325
317.70 0.2123391
317.80 0.2127451
317.90 0.2131781
318.00 0.2135773
318.10 0.2139928
318.20 0.2144077
318.30 0.2148221
318.40 0.2152296
318.50 0.215619
318.60 0.2159955
318.70 0.2164315
318.80 0.2168383
318.90 0.2172207
319.00 0.2176655
319.10 0.2180991
319.20 0.2185277
319.30 0.2189431
319.40 0.219358
319.50 0.2197723
319.60 0.2201594
319.70 0.2205726
319.80 0.2209852
319.90 0.2213973
320.00 0.221817
320.10 0.2222449
320.20 0.2226218
320.30 0.2230538
320.40 0.2234423
320.50 0.2238774
320.60 0.2242818
320.70 0.2247063
320.80 0.2251303
320.90 0.2255537
321.00 0.2259765
321.10 0.2263987
321.20 0.2267917
321.30 0.227218
321.40 0.2276438
321.50 0.228069
321.60 0.2284935
321.70 0.2289176
321.80 0.2293422
321.90 0.2297674
322.00 0.2302004
322.10 0.2306258
322.20 0.2310506
322.30 0.2314748
322.40 0.2318985
322.50 0.2323216
322.60 0.2327441
322.70 0.2331661
322.80 0.2335588
322.90 0.233991
323.00 0.2344226
323.10 0.2348536
323.20 0.235284
323.30 0.2357139
323.40 0.2361432
323.50 0.2365719
323.60 0.237
323.70 0.2374276
323.80 0.2378546
323.90 0.238281
324.00 0.2387007
324.10 0.2391198
324.20 0.2395384
324.30 0.2399626
324.40 0.2404023
324.50 0.2408396
324.60 0.2412764
324.70 0.2417125
324.80 0.2421481
324.90 0.2425831
325.00 0.2430175
325.10 0.2434513
325.20 0.2438816
325.30 0.2443051
325.40 0.244728
325.50 0.2451617
325.60 0.2456087
325.70 0.2460552
325.80 0.2465011
325.90 0.2469398
326.00 0.2473707
326.10 0.2478011
326.20 0.2482309
326.30 0.2486589
326.40 0.2490831
326.50 0.2495244
326.60 0.249965
326.70 0.250405
326.80 0.2508444
326.90 0.2512833
327.00 0.2517216
327.10 0.2521593
327.20 0.2525964
327.30 0.2530329
327.40 0.2534689
327.50 0.2539042
327.60 0.254339
327.70 0.2547732
327.80 0.2552069
327.90 0.2556509
328.00 0.2561015
328.10 0.2565458
328.20 0.2569896
328.30 0.2574327
328.40 0.2578753
328.50 0.258323
328.60 0.2587715
328.70 0.2592194
328.80 0.2596671
328.90 0.260115
329.00 0.2605623
329.10 0.2610091
329.20 0.2614552
329.30 0.2619008
329.40 0.2623458
329.50 0.2627902
329.60 0.2632339
329.70 0.2636772
329.80 0.2641198
329.90 0.2645618
330.00 0.2650144
330.10 0.2654801
330.20 0.2659451
330.30 0.2664095
330.40 0.2668664
330.50 0.2673152
330.60 0.2677634
330.70 0.268211
330.80 0.268658
330.90 0.2691044
331.00 0.2695503
331.10 0.2699955
331.20 0.2704402
331.30 0.2708843
331.40 0.2713277
331.50 0.2717841
331.60 0.2722562
331.70 0.2727277
331.80 0.2731882
331.90 0.2736476
332.00 0.2741065
332.10 0.2745647
332.20 0.2750224
332.30 0.2754794
332.40 0.2759359
332.50 0.2763917
332.60 0.276847
332.70 0.2773016
332.80 0.2777557
332.90 0.2782091
333.00 0.278662
333.10 0.279118
333.20 0.2795779
333.30 0.2800371
333.40 0.2804958
333.50 0.2809539
333.60 0.2814114
333.70 0.2818683
333.80 0.2823245
333.90 0.2827802
334.00 0.2832353
334.10 0.2836885
334.20 0.2841395
334.30 0.2845899
334.40 0.2850398
334.50 0.285489
334.60 0.2859377
334.70 0.2864062
334.80 0.2868834
334.90 0.2873377
335.00 0.2877913
335.10 0.2883
335.20 0.2887737
335.30 0.2892469
335.40 0.2896657
335.50 0.2901054
335.60 0.2905768
335.70 0.2910475
335.80 0.2915177
335.90 0.2919872
336.00 0.2924561
336.10 0.2929244
336.20 0.2933921
336.30 0.2938592
336.40 0.2943257
336.50 0.2947915
336.60 0.2952568
336.70 0.2957215
336.80 0.2961855
336.90 0.2966556
337.00 0.2971332
337.10 0.2976102
337.20 0.2980866
337.30 0.2985581
337.40 0.2990228
337.50 0.2994869
337.60 0.2999503
337.70 0.3004132
337.80 0.3008755
337.90 0.3013449
338.00 0.3018231
338.10 0.3023006
338.20 0.3027775
338.30 0.3032538
338.40 0.30373
338.50 0.3042066
338.60 0.3046826
338.70 0.305158
338.80 0.3056328
338.90 0.3061069
339.00 0.3065805
339.10 0.3070534
339.20 0.3075257
339.30 0.3079934
339.40 0.3084547
339.50 0.3089246
339.60 0.3094053
339.70 0.3098854
339.80 0.3103648
339.90 0.3108436
340.00 0.3113218
340.10 0.3117994
340.20 0.3122764
340.30 0.3127528
340.40 0.3132285
340.50 0.3137036
340.60 0.3141782
340.70 0.3146521
340.80 0.315117
340.90 0.3155692
341.00 0.3160339
341.10 0.3165138
341.20 0.3169931
341.30 0.3174718
341.40 0.3179498
341.50 0.3184273
341.60 0.3189041
341.70 0.3193804
341.80 0.3198647
341.90 0.3203592
342.00 0.320853
342.10 0.3213462
342.20 0.3218267
342.30 0.3222852
342.40 0.3227605
342.50 0.32325
342.60 0.323739
342.70 0.3242273
342.80 0.324715
342.90 0.3252021
343.00 0.3256866
343.10 0.3261681
343.20 0.3266489
343.30 0.3271292
343.40 0.3276087
343.50 0.3280876
343.60 0.3285659
343.70 0.3290435
343.80 0.3295205
343.90 0.329997
344.00 0.3304839
344.10 0.3309864
344.20 0.3314882
344.30 0.3319893
344.40 0.3324731
344.50 0.3329323
344.60 0.3334556
344.70 0.3339155
344.80 0.3343729
344.90 0.3348682
345.00 0.3353817
345.10 0.3358372
345.20 0.336307
345.30 0.3367975
345.40 0.3372874
345.50 0.3377843
345.60 0.3382847
345.70 0.3387771
345.80 0.3392688
345.90 0.33976
346.00 0.3402505
346.10 0.3407404
346.20 0.341233
346.30 0.3417297
346.40 0.3422258
346.50 0.3427212
346.60 0.3432161
346.70 0.3437103
346.80 0.3442039
346.90 0.3446968
347.00 0.3451891
347.10 0.3456808
347.20 0.3461742
347.30 0.3466702
347.40 0.3471655
347.50 0.3476602
347.60 0.3481543
347.70 0.3486478
347.80 0.3491407
347.90 0.3496329
348.00 0.3501245
348.10 0.3506155
348.20 0.3511058
348.30 0.3515956
348.40 0.3520847
348.50 0.3525732
348.60 0.3530611
348.70 0.3535616
348.80 0.3540628
348.90 0.3545593
349.00 0.3550551
349.10 0.3555502
349.20 0.3560448
349.30 0.3565387
349.40 0.357032
349.50 0.3575247
349.60 0.3580168
349.70 0.3585082
349.80 0.358999
349.90 0.3594892
350.00 0.3599788
350.10 0.3604677
350.20 0.3609561
350.30 0.3614489
350.40 0.3619486
350.50 0.3624476
350.60 0.362946
350.70 0.3634438
350.80 0.3639409
350.90 0.3644375
351.00 0.3649334
351.10 0.3654286
351.20 0.3659233
351.30 0.3664173
351.40 0.3669151
351.50 0.3674201
351.60 0.3679245
351.70 0.3684282
351.80 0.3689313
351.90 0.3694338
352.00 0.3699356
352.10 0.3704368
352.20 0.3709571
352.30 0.3714704
352.40 0.3719708
352.50 0.3724707
352.60 0.3729699
352.70 0.3734684
352.80 0.3739664
352.90 0.3744637
353.00 0.3749604
353.10 0.3754565
353.20 0.375952
353.30 0.3764468
353.40 0.376941
353.50 0.3774411
353.60 0.3779421
353.70 0.3784425
353.80 0.3789423
353.90 0.3794456
354.00 0.3799558
354.10 0.3804654
354.20 0.3809743
354.30 0.3814826
354.40 0.3819903
354.50 0.3824973
354.60 0.3830037
354.70 0.3835095
354.80 0.3840118
354.90 0.3845095
355.00 0.3850066
355.10 0.3855031
355.20 0.385999
355.30 0.3865107
355.40 0.3870219
355.50 0.3875323
355.60 0.3880422
355.70 0.3885477
355.80 0.3890509
355.90 0.3895393
356.00 0.3900446
356.10 0.39056
356.20 0.3910747
356.30 0.3915888
356.40 0.3921022
356.50 0.392615
356.60 0.3931272
356.70 0.3936387
356.80 0.3941496
356.90 0.3946598
357.00 0.3951694
357.10 0.3956784
357.20 0.3961868
357.30 0.3966945
357.40 0.3971988
357.50 0.3976975
357.60 0.3981956
357.70 0.3986931
357.80 0.3991916
357.90 0.3996895
358.00 0.4002003
358.10 0.4007139
358.20 0.4012269
358.30 0.4017392
358.40 0.4022509
358.50 0.4027619
358.60 0.4032724
358.70 0.4037821
358.80 0.4042913
358.90 0.4047998
359.00 0.4053103
359.10 0.4058247
359.20 0.4063386
359.30 0.4068521
359.40 0.4073651
359.50 0.4078637
359.60 0.4083583
359.70 0.4088523
359.80 0.4093611
359.90 0.4098692
360.00 0.4103822
360.10 0.4109046
360.20 0.4114263
360.30 0.4119473
360.40 0.4124677
360.50 0.4129875
360.60 0.4134802
360.70 0.4139945
360.80 0.4145082
360.90 0.4150213
361.00 0.4155528
361.10 0.4160587
361.20 0.4165864
361.30 0.4170673
361.40 0.4175772
361.50 0.4180865
361.60 0.4185952
361.70 0.4191032
361.80 0.4196148
361.90 0.4201331
362.00 0.4206508
362.10 0.4211833
362.20 0.4217102
362.30 0.4222209
362.40 0.422731
362.50 0.4232405
362.60 0.4237493
362.70 0.424236
362.80 0.4247535
362.90 0.4252869
363.00 0.4258197
363.10 0.4263226
363.20 0.4268246
363.30 0.4273233
363.40 0.4278391
363.50 0.4283908
363.60 0.4288869
363.70 0.4294069
363.80 0.4298774
363.90 0.4304065
364.00 0.430935
364.10 0.4314628
364.20 0.43199
364.30 0.4324888
364.40 0.43298
364.50 0.4334784
364.60 0.4340143
364.70 0.4345496
364.80 0.4350842
364.90 0.4355723
365.00 0.4360599
365.10 0.4366194
365.20 0.4371057
365.30 0.4376638
365.40 0.4381489
365.50 0.4386696
365.60 0.4391896
365.70 0.4397057
365.80 0.4402212
365.90 0.4407419
366.00 0.4412634
366.10 0.4417849
366.20 0.4423059
366.30 0.4428262
366.40 0.4433458
366.50 0.4437985
366.60 0.4443551
366.70 0.4448759
366.80 0.4453959
366.90 0.4459155
367.00 0.4464348
367.10 0.4469534
367.20 0.4474713
367.30 0.4479886
367.40 0.4485053
367.50 0.4490182
367.60 0.4495296
367.70 0.4500383
367.80 0.4505464
367.90 0.4510539
368.00 0.451589
368.10 0.4520863
368.20 0.452607
368.30 0.4531278
368.40 0.4536479
368.50 0.4541674
368.60 0.4546862
368.70 0.4552044
368.80 0.455722
368.90 0.4562381
369.00 0.4567712
369.10 0.4573084
369.20 0.4577783
369.30 0.4583107
369.40 0.4588424
369.50 0.4593735
369.60 0.4599001
369.70 0.4604261
369.80 0.460942
369.90 0.4614572
370.00 0.4619718
370.10 0.4624691
370.20 0.4629951
370.30 0.4635211
370.40 0.4640472
370.50 0.4645359
370.60 0.4650592
370.70 0.4655563
370.80 0.4660753
370.90 0.4665938
371.00 0.4671192
371.10 0.4676441
371.20 0.4681607
371.30 0.4686766
371.40 0.4692003
371.50 0.4697179
371.60 0.4702348
371.70 0.4707512
371.80 0.4712669
371.90 0.471782
372.00 0.472325
372.10 0.4728198
372.20 0.4733456
372.30 0.4738707
372.40 0.4743953
372.50 0.4749191
372.60 0.4754424
372.70 0.475965
372.80 0.4764716
372.90 0.4769776
373.00 0.4775251
373.10 0.4780724
373.20 0.4785803
373.30 0.4790876
373.40 0.4795942
373.50 0.480135
373.60 0.4806404
373.70 0.4811798
373.80 0.4816884
373.90 0.4821876
374.00 0.4827079
374.10 0.4832275
374.20 0.4837465
374.30 0.4842649
374.40 0.4847827
374.50 0.4853259
374.60 0.485845
374.70 0.4863629
374.80 0.4868801
374.90 0.4873967
375.00 0.4879164
375.10 0.4884356
375.20 0.4889541
375.30 0.4894785
375.40 0.4900023
375.50 0.4905255
375.60 0.4910481
375.70 0.49157
375.80 0.4920913
375.90 0.492612
376.00 0.4930953
376.10 0.4936224
376.20 0.4941493
376.30 0.4946756
376.40 0.4952012
376.50 0.4957217
376.60 0.4962347
376.70 0.496747
376.80 0.4972682
376.90 0.4977981
377.00 0.4983273
377.10 0.498856
377.20 0.4993821
377.30 0.4999008
377.40 0.5004188
377.50 0.5009362
377.60 0.5014527
377.70 0.5019685
377.80 0.5024838
377.90 0.5029984
378.00 0.5035306
378.10 0.5040557
378.20 0.5045799
378.30 0.5051034
378.40 0.5056262
378.50 0.5061485
378.60 0.5066701
378.70 0.5071912
378.80 0.5077115
378.90 0.5082177
379.00 0.5086979
379.10 0.5092373
379.20 0.5097761
379.30 0.5103012
379.40 0.5108128
379.50 0.5113237
379.60 0.511838
379.70 0.5123584
379.80 0.5128801
379.90 0.5134011
380.00 0.5139215
380.10 0.5144413
380.20 0.5149605
380.30 0.5154791
380.40 0.515997
380.50 0.5165143
380.60 0.517034
380.70 0.5175513
380.80 0.518068
380.90 0.518584
381.00 0.5190995
381.10 0.5196181
381.20 0.5201453
381.30 0.5206701
381.40 0.521212
381.50 0.5217228
381.60 0.5222322
381.70 0.5227479
381.80 0.5232975
381.90 0.5237863
382.00 0.5242745
382.10 0.5248284
382.20 0.5253684
382.30 0.5258879
382.40 0.5264054
382.50 0.52692
382.60 0.5274341
382.70 0.5279288
382.80 0.5284274
382.90 0.5289513
383.00 0.5294745
383.10 0.5299971
383.20 0.5305196
383.30 0.5310431
383.40 0.5315658
383.50 0.5320874
383.60 0.5326049
383.70 0.5331238
383.80 0.5336421
383.90 0.5341598
384.00 0.5346769
384.10 0.5351933
384.20 0.5357092
384.30 0.5362244
384.40 0.5367467
384.50 0.537276
384.60 0.5378046
384.70 0.5383327
384.80 0.5388501
384.90 0.5393384
385.00 0.5398426
385.10 0.5403471
385.20 0.5408797
385.30 0.5413929
385.40 0.541911
385.50 0.5424342
385.60 0.5429567
385.70 0.5434786
385.80 0.5439989
385.90 0.5445148
386.00 0.5450228
386.10 0.5455247
386.20 0.5460436
386.30 0.5465619
386.40 0.5471126
386.50 0.5476346
386.60 0.5481366
386.70 0.5486618
386.80 0.5491865
386.90 0.5497105
387.00 0.5501935
387.10 0.5507163
387.20 0.5512318
387.30 0.55176
387.40 0.5522789
387.50 0.5527861
387.60 0.553321
387.70 0.5538401
387.80 0.5543586
387.90 0.5548765
388.00 0.5553821
388.10 0.5559069
388.20 0.5563987
388.30 0.5569066
388.40 0.5574138
388.50 0.5579379
388.60 0.5584803
388.70 0.5590109
388.80 0.5595264
388.90 0.5600383
389.00 0.5605342
389.10 0.5610437
389.20 0.5615477
389.30 0.5620754
389.40 0.562572
389.50 0.5630756
389.60 0.5635924
389.70 0.5641172
389.80 0.5646399
389.90 0.5651621
390.00 0.5656835
390.10 0.5662044
390.20 0.5667247
390.30 0.567242
390.40 0.5677561
390.50 0.5682695
390.60 0.5687824
390.70 0.5692946
390.80 0.5697984
390.90 0.5702939
391.00 0.5708099
391.10 0.5713163
391.20 0.571834
391.30 0.5723704
391.40 0.5728779
391.50 0.5733847
391.60 0.573891
391.70 0.5743967
391.80 0.5749018
391.90 0.5754187
392.00 0.5759465
392.10 0.5764699
392.20 0.5769864
392.30 0.5774715
392.40 0.5779885
392.50 0.5785417
392.60 0.5790316
392.70 0.5795209
392.80 0.5800724
392.90 0.5805466
393.00 0.5810842
393.10 0.5815923
393.20 0.5820712
393.30 0.5825883
393.40 0.5831098
393.50 0.5836402
393.60 0.5841331
393.70 0.584679
393.80 0.5851647
393.90 0.5856782
394.00 0.5861906
394.10 0.5867055
394.20 0.5872295
394.30 0.5877481
394.40 0.5882359
394.50 0.5887361
394.60 0.5892361
394.70 0.5897414
394.80 0.5902683
394.90 0.5907937
395.00 0.5912869
395.10 0.5918027
395.20 0.5923153
395.30 0.5928223
395.40 0.5933287
395.50 0.5938336
395.60 0.5943375
395.70 0.5948442
395.80 0.5953593
395.90 0.5958738
396.00 0.5963888
396.10 0.596908
396.20 0.5974079
396.30 0.5978989
396.40 0.5984284
396.50 0.5989474
396.60 0.5994242
396.70 0.59996
396.80 0.6004563
396.90 0.6009457
397.00 0.6014778
397.10 0.6019929
397.20 0.6025083
397.30 0.6029947
397.40 0.6035004
397.50 0.6040054
397.60 0.6045094
397.70 0.605008
397.80 0.605506
397.90 0.6060108
398.00 0.6065352
398.10 0.6070589
398.20 0.607569
398.30 0.6080637
398.40 0.6085564
398.50 0.6090008
398.60 0.6093755
398.70 0.6099957
398.80 0.6106829
398.90 0.6111796
399.00 0.6113234
399.10 0.6123071
399.20 0.6128358
399.30 0.6133638
399.40 0.6138913
399.50 0.6144182
399.60 0.6149004
399.70 0.6153658
399.80 0.6158307
399.90 0.616295
400.00 0.6167635
400.10 0.617385
400.20 0.6177511
400.30 0.6181955
400.40 0.6186023
400.50 0.6194186
400.60 0.6197695
400.70 0.620364
400.80 0.6207952
400.90 0.6212906
401.00 0.6215208
401.10 0.6223775
401.20 0.622539
401.30 0.6232563
401.40 0.6237358
401.50 0.624092
401.60 0.6244554
401.70 0.6250669
401.80 0.6254751
401.90 0.6262322
402.00 0.6267992
402.10 0.6270642
402.20 0.6279485
402.30 0.6282341
402.40 0.6289271
402.50 0.6294014
402.60 0.6297176
402.70 0.6299695
402.80 0.6305511
402.90 0.6312513
403.00 0.6318316
403.10 0.6322921
403.20 0.6326011
403.30 0.6332024
403.40 0.6336021
403.50 0.6342499
403.60 0.6349328
403.70 0.6351629
403.80 0.635472
403.90 0.6361682
404.00 0.6365908
404.10 0.6374607
404.20 0.6377375
404.30 0.6380139
404.40 0.6386126
404.50 0.6391569
404.60 0.6397275
404.70 0.6402974
404.80 0.6406058
404.90 0.6414353
405.00 0.6415815
405.10 0.6420653
405.20 0.6425902
405.30 0.6431145
405.40 0.6435821
405.50 0.6440492
405.60 0.6445157
405.70 0.6449817
405.80 0.6454472
405.90 0.6459121
406.00 0.6464206
406.10 0.6469285
406.20 0.6474358
406.30 0.6479426
406.40 0.6484825
406.50 0.6489859
406.60 0.6495417
406.70 0.6499535
406.80 0.6505474
406.90 0.6509461
407.00 0.6514439
407.10 0.6519411
407.20 0.6524378
407.30 0.6529339
407.40 0.6534294
407.50 0.6539244
407.60 0.6544188
407.70 0.6549126
407.80 0.6554059
407.90 0.6559028
408.00 0.656534
408.10 0.6569741
408.20 0.6574087
408.30 0.6580319
408.40 0.6586543
408.50 0.6591666
408.60 0.659646
408.70 0.6601249
408.80 0.6605882
408.90 0.6609572
409.00 0.661411
409.10 0.6618644
409.20 0.6623172
409.30 0.6627695
409.40 0.6632225
409.50 0.663714
409.60 0.664205
409.70 0.6646918
409.80 0.6651639
409.90 0.6656451
410.00 0.6664379
410.10 0.6665923
410.20 0.6670818
410.30 0.6676546
410.40 0.6681927
410.50 0.6686226
410.60 0.669052
410.70 0.6695158
410.80 0.6701182
410.90 0.67072
411.00 0.6712363
411.10 0.6717205
411.20 0.6722043
411.30 0.672721
411.40 0.673366
411.50 0.6738463
411.60 0.674326
411.70 0.674758
411.80 0.6750008
411.90 0.6754144
412.00 0.6759415
412.10 0.6766104
412.20 0.6769938
412.30 0.6774292
412.40 0.6780644
412.50 0.6784461
412.60 0.6789291
412.70 0.6794697
412.80 0.6800241
412.90 0.6803964
413.00 0.6808017
413.10 0.6812595
413.20 0.6817167
413.30 0.6821735
413.40 0.6826297
413.50 0.683164
413.60 0.6838988
413.70 0.6842748
413.80 0.6846503
413.90 0.6850254
414.00 0.6854339
414.10 0.6859492
414.20 0.6865992
414.30 0.6871132
414.40 0.6877393
414.50 0.6881265
414.60 0.6885168
414.70 0.6890286
414.80 0.6895398
414.90 0.6900504
415.00 0.6905605
415.10 0.69107
415.20 0.6915447
415.30 0.6919107
415.40 0.6922762
415.50 0.6926445
415.60 0.6931142
415.70 0.6935834
415.80 0.6940804
415.90 0.6946666
416.00 0.6952521
416.10 0.6958139
416.20 0.6962832
416.30 0.6967519
416.40 0.6972201
416.50 0.6976888
416.60 0.69819
416.70 0.6986656
416.80 0.6992133
416.90 0.6994079
417.00 0.6998861
417.10 0.7006877
417.20 0.7011856
417.30 0.7016815
417.40 0.7021301
417.50 0.7025783
417.60 0.702964
417.70 0.7031121
417.80 0.7036069
417.90 0.7041011
418.00 0.7045948
418.10 0.7050879
418.20 0.7055805
418.30 0.7060686
418.40 0.7064644
418.50 0.7069665
418.60 0.707468
418.70 0.707969
418.80 0.7084693
418.90 0.7089692
419.00 0.7094685
419.10 0.7099672
419.20 0.7104653
419.30 0.7109612
419.40 0.7113996
419.50 0.7118374
419.60 0.712268
419.70 0.7126708
419.80 0.7130732
419.90 0.7134905
420.00 0.7139565
420.10 0.714422
420.20 0.714887
420.30 0.7153514
420.40 0.7158153
420.50 0.7162787
420.60 0.7167416
420.70 0.7172039
420.80 0.7176658
420.90 0.7181325
421.00 0.7187731
421.10 0.719413
421.20 0.7200014
421.30 0.7204372
421.40 0.7208725
421.50 0.7213073
421.60 0.7217416
421.70 0.7221754
421.80 0.7226087
421.90 0.7230472
422.00 0.7235035
422.10 0.7239708
422.20 0.7244839
422.30 0.7249965
422.40 0.7255067
422.50 0.7259574
422.60 0.7264077
422.70 0.7268575
422.80 0.7273067
422.90 0.7277555
423.00 0.7282038
423.10 0.7286515
423.20 0.7290987
423.30 0.7295455
423.40 0.7299917
423.50 0.7304374
423.60 0.7308827
423.70 0.7313274
423.80 0.7317716
423.90 0.7322153
424.00 0.7326586
424.10 0.7331013
424.20 0.7335435
424.30 0.7339852
424.40 0.7347975
424.50 0.7352105
424.60 0.7356231
424.70 0.7360352
424.80 0.7364468
424.90 0.736858
425.00 0.7372687
425.10 0.7376789
425.20 0.7380887
425.30 0.738498
425.40 0.7389144
425.50 0.739381
425.60 0.7398471
425.70 0.7403127
425.80 0.7407778
425.90 0.7412423
426.00 0.7417064
426.10 0.7421699
426.20 0.7426329
426.30 0.7430953
426.40 0.7435573
426.50 0.7440188
426.60 0.7444797
426.70 0.7449401
426.80 0.7454
426.90 0.7458595
427.00 0.7463218
427.10 0.7467835
427.20 0.7472447
427.30 0.7477055
427.40 0.7481657
427.50 0.7486253
427.60 0.7490845
427.70 0.7495432
427.80 0.7500013
427.90 0.750459
428.00 0.7509161
428.10 0.7513728
428.20 0.7518289
428.30 0.7522845
428.40 0.7527396
428.50 0.7531942
428.60 0.7536483
428.70 0.7541019
428.80 0.7545546
428.90 0.7550021
429.00 0.7554492
429.10 0.7558958
429.20 0.7563418
429.30 0.7567874
429.40 0.7572325
429.50 0.757677
429.60 0.7581211
429.70 0.7585647
429.80 0.7590078
429.90 0.7594504
430.00 0.7598925
430.10 0.7603341
430.20 0.7607752
430.30 0.7612158
430.40 0.7616559
430.50 0.7620956
430.60 0.7625347
430.70 0.7629734
430.80 0.7634115
430.90 0.7638492
431.00 0.7642864
431.10 0.7647231
431.20 0.7651593
431.30 0.7655962
431.40 0.766047
431.50 0.7664973
431.60 0.7669472
431.70 0.7673965
431.80 0.7678453
431.90 0.7682937
432.00 0.7687415
432.10 0.7691889
432.20 0.7696357
432.30 0.7700821
432.40 0.7705279
432.50 0.7709733
432.60 0.7714182
432.70 0.7718626
432.80 0.7723064
432.90 0.7727498
433.00 0.7731927
433.10 0.7736351
433.20 0.7740771
433.30 0.7745172
433.40 0.7749402
433.50 0.7753627
433.60 0.7757848
433.70 0.7762064
433.80 0.7766562
433.90 0.7771406
434.00 0.7775867
434.10 0.7780091
434.20 0.7784309
434.30 0.7788524
434.40 0.7792733
434.50 0.7796938
434.60 0.7801138
434.70 0.7805334
434.80 0.7809543
434.90 0.7813999
435.00 0.781845
435.10 0.7822896
435.20 0.7827337
435.30 0.7831773
435.40 0.7836204
435.50 0.784063
435.60 0.7845052
435.70 0.7849468
435.80 0.785388
435.90 0.7858287
436.00 0.7862689
436.10 0.7867086
436.20 0.7871478
436.30 0.7875582
436.40 0.7879338
436.50 0.7883125
436.60 0.7886909
436.70 0.7890688
436.80 0.7894463
436.90 0.7898234
437.00 0.7902
437.10 0.7905763
437.20 0.7909983
437.30 0.7914625
437.40 0.7919274
437.50 0.7924078
437.60 0.7928877
437.70 0.7933671
437.80 0.7938459
437.90 0.7943243
438.00 0.7947971
438.10 0.7952039
438.20 0.7956101
438.30 0.7958697
438.40 0.7963666
438.50 0.7967581
438.60 0.7971844
438.70 0.797575
438.80 0.7979652
438.90 0.798355
439.00 0.7987091
439.10 0.799098
439.20 0.7994952
439.30 0.8000085
439.40 0.8005213
439.50 0.8010335
439.60 0.8014839
439.70 0.8016057
439.80 0.8021151
439.90 0.8025495
440.00 0.8029833
440.10 0.8034167
440.20 0.8038497
440.30 0.804283
440.40 0.8047159
440.50 0.8051483
440.60 0.8055802
440.70 0.8060116
440.80 0.8064426
440.90 0.8068731
441.00 0.8073031
441.10 0.8077327
441.20 0.808149
441.30 0.8083961
441.40 0.8087483
441.50 0.8092289
441.60 0.8097091
441.70 0.8102445
441.80 0.8106345
441.90 0.811024
442.00 0.8114131
442.10 0.8118017
442.20 0.8121899
442.30 0.8125777
442.40 0.8129901
442.50 0.8134326
442.60 0.8138747
442.70 0.8142895
442.80 0.8146544
442.90 0.8148955
443.00 0.8153221
443.10 0.8159753
443.20 0.8164683
443.30 0.8168134
443.40 0.8171694
443.50 0.8175387
443.60 0.8180674
443.70 0.8181901
443.80 0.8188038
443.90 0.8192327
444.00 0.819379
444.10 0.8197458
444.20 0.8202716
444.30 0.8209349
444.40 0.8213134
444.50 0.8216914
444.60 0.8220751
444.70 0.8224659
444.80 0.8228358
444.90 0.8231864
445.00 0.8235367
445.10 0.8238866
445.20 0.8242827
445.30 0.8247352
445.40 0.8251873
445.50 0.8256389
445.60 0.82609
445.70 0.8265406
445.80 0.826937
445.90 0.8272834
446.00 0.8276295
446.10 0.8279751
446.20 0.8284839
446.30 0.8286602
446.40 0.8291545
446.50 0.8296323
446.60 0.8301097
446.70 0.8305865
446.80 0.8309998
446.90 0.8313545
447.00 0.8314765
447.10 0.8319273
447.20 0.8325228
447.30 0.8326341
447.40 0.8331222
447.50 0.8334746
447.60 0.8339454
447.70 0.8345256
447.80 0.8349728
447.90 0.8353496
448.00 0.8357123
448.10 0.8360621
448.20 0.8364114
448.30 0.8367604
448.40 0.8371089
448.50 0.8374571
448.60 0.837838
448.70 0.8382491
448.80 0.8386631
448.90 0.8391208
449.00 0.839578
449.10 0.8400347
449.20 0.840491
449.30 0.8405733
449.40 0.8409719
449.50 0.84137
449.60 0.8417634
449.70 0.8421525
449.80 0.8425411
449.90 0.8429293
450.00 0.843317
450.10 0.8437044
450.20 0.8440913
450.30 0.8444778
450.40 0.8448976
450.50 0.845317
450.60 0.845736
450.70 0.8461545
450.80 0.8465726
450.90 0.8469902
451.00 0.8473817
451.10 0.8477729
451.20 0.8482269
451.30 0.8483394
451.40 0.8489131
451.50 0.8494863
451.60 0.8495845
451.70 0.8499196
451.80 0.8504912
451.90 0.8508255
452.00 0.8511593
452.10 0.8514928
452.20 0.8519442
452.30 0.8523951
452.40 0.8528455
452.50 0.8532954
452.60 0.8535566
452.70 0.8538659
452.80 0.8542195
452.90 0.8545728
453.00 0.8549256
453.10 0.8552781
453.20 0.8556917
453.30 0.8561049
453.40 0.8565176
453.50 0.8569299
453.60 0.8573417
453.70 0.8577531
453.80 0.8581154
453.90 0.8584179
454.00 0.85872
454.10 0.8590218
454.20 0.8594137
454.30 0.8598053
454.40 0.8601964
454.50 0.860587
454.60 0.8609773
454.70 0.8613607
454.80 0.8617377
454.90 0.8621144
455.00 0.8624906
455.10 0.8628664
455.20 0.8632419
455.30 0.8636168
455.40 0.8639914
455.50 0.8643656
455.60 0.8647394
455.70 0.8651127
455.80 0.8654822
455.90 0.8658513
456.00 0.86622
456.10 0.8665965
456.20 0.866995
456.30 0.867393
456.40 0.8677906
456.50 0.8681878
456.60 0.8685845
456.70 0.8689808
456.80 0.8693767
456.90 0.8697721
457.00 0.8701672
457.10 0.8705618
457.20 0.870553
457.30 0.8709492
457.40 0.871345
457.50 0.8717404
457.60 0.8721354
457.70 0.87253
457.80 0.8729241
457.90 0.8733178
458.00 0.873711
458.10 0.8741039
458.20 0.8744963
458.30 0.8748882
458.40 0.8752798
458.50 0.8756709
458.60 0.8760616
458.70 0.8764182
458.80 0.8767606
458.90 0.8771026
459.00 0.8774442
459.10 0.8777855
459.20 0.8781264
459.30 0.8784801
459.40 0.8788334
459.50 0.8791863
459.60 0.8795389
459.70 0.879891
459.80 0.8802428
459.90 0.8805942
460.00 0.8809452
460.10 0.8812958
460.20 0.881646
460.30 0.8819958
460.40 0.8823452
460.50 0.8826943
460.60 0.8830429
460.70 0.8833936
460.80 0.8837451
460.90 0.8840962
461.00 0.8844469
461.10 0.8847972
461.20 0.8851335
461.30 0.8854639
461.40 0.8857969
461.50 0.8861302
461.60 0.8864632
461.70 0.8867958
461.80 0.8871737
461.90 0.8875512
462.00 0.8879282
462.10 0.8883049
462.20 0.8886811
462.30 0.8890569
462.40 0.8894323
462.50 0.8898073
462.60 0.8901819
462.70 0.8905561
462.80 0.8909299
462.90 0.8913033
463.00 0.8916762
463.10 0.8920488
463.20 0.8923929
463.30 0.8927252
463.40 0.8930571
463.50 0.8933887
463.60 0.8937198
463.70 0.8940507
463.80 0.8943811
463.90 0.8947166
464.00 0.895053
464.10 0.8953891
464.20 0.8957248
464.30 0.8960602
464.40 0.8963951
464.50 0.8967297
464.60 0.8970639
464.70 0.8974073
464.80 0.897754
464.90 0.8981005
465.00 0.8984465
465.10 0.8987921
465.20 0.8991374
465.30 0.8995058
465.40 0.8998893
465.50 0.9002725
465.60 0.9006552
465.70 0.9010376
465.80 0.9014195
465.90 0.9017093
466.00 0.9019759
466.10 0.9022422
466.20 0.9025082
466.30 0.9028474
466.40 0.9032164
466.50 0.9035849
466.60 0.903953
466.70 0.9043208
466.80 0.9046881
466.90 0.9050551
467.00 0.9054216
467.10 0.9057877
467.20 0.9061535
467.30 0.9063298
467.40 0.9066657
467.50 0.9070606
467.60 0.907455
467.70 0.907849
467.80 0.9082426
467.90 0.9085516
468.00 0.9088259
468.10 0.9090999
468.20 0.9093736
468.30 0.909647
468.40 0.90992
468.50 0.9105057
468.60 0.9107126
468.70 0.91105
468.80 0.9113134
468.90 0.9115953
469.00 0.9119488
469.10 0.9123402
469.20 0.9127204
469.30 0.9131002
469.40 0.9134795
469.50 0.9137843
469.60 0.9140584
469.70 0.9143322
469.80 0.9146057
469.90 0.9149511
470.00 0.9155174
470.10 0.9158673
470.20 0.9161908
470.30 0.9165138
470.40 0.9168366
470.50 0.9171589
470.60 0.9174357
470.70 0.9177009
470.80 0.9179658
470.90 0.9182304
471.00 0.9186115
471.10 0.9191337
471.20 0.9193709
471.30 0.9195252
471.40 0.919897
471.50 0.9201595
471.60 0.9205088
471.70 0.9207708
471.80 0.9211193
471.90 0.9214892
472.00 0.9218587
472.10 0.9222279
472.20 0.9225347
472.30 0.9228257
472.40 0.9231164
472.50 0.9234068
472.60 0.9236968
472.70 0.924179
472.80 0.9245323
472.90 0.9248335
473.00 0.9251343
473.10 0.9254348
473.20 0.925735
473.30 0.9260348
473.40 0.9263343
473.50 0.9266335
473.60 0.9269323
473.70 0.9272308
473.80 0.9275674
473.90 0.9279133
474.00 0.9282587
474.10 0.9286038
474.20 0.9289547
474.30 0.9293077
474.40 0.9296603
474.50 0.9300125
474.60 0.9303611
474.70 0.9306758
474.80 0.9309902
474.90 0.9313043
475.00 0.931618
475.10 0.9319314
475.20 0.9322444
475.30 0.9325571
475.40 0.932856
475.50 0.9331513
475.60 0.9334462
475.70 0.9337407
475.80 0.934035
475.90 0.9343289
476.00 0.9346225
476.10 0.9349157
476.20 0.9352041
476.30 0.9354903
476.40 0.9357762
476.50 0.9360617
476.60 0.936347
476.70 0.9366319
476.80 0.9369164
476.90 0.9372233
477.00 0.9375355
477.10 0.9378474
477.20 0.9381589
477.30 0.9384701
477.40 0.9387809
477.50 0.9390914
477.60 0.9394015
477.70 0.9397113
477.80 0.9400208
477.90 0.9403299
478.00 0.9406386
478.10 0.9409471
478.20 0.9412552
478.30 0.9415629
478.40 0.9418703
478.50 0.9421774
478.60 0.9424841
478.70 0.9427643
478.80 0.9430333
478.90 0.9433595
479.00 0.9436996
479.10 0.9440394
479.20 0.9443789
479.30 0.9447179
479.40 0.9450312
479.50 0.9453292
479.60 0.9456269
479.70 0.9459242
479.80 0.9462212
479.90 0.9465179
480.00 0.9468142
480.10 0.9471102
480.20 0.9474059
480.30 0.9477013
480.40 0.9479963
480.50 0.948291
480.60 0.9485854
480.70 0.9488795
480.80 0.9491732
480.90 0.9494666
481.00 0.9497597
481.10 0.9500524
481.20 0.9503456
481.30 0.9506385
481.40 0.9509311
481.50 0.9512233
481.60 0.9515153
481.70 0.9518069
481.80 0.9520981
481.90 0.9523891
482.00 0.9526797
482.10 0.95297
482.20 0.9532596
482.30 0.9535442
482.40 0.9538285
482.50 0.9541125
482.60 0.9543961
482.70 0.9546795
482.80 0.9549625
482.90 0.9552452
483.00 0.9555276
483.10 0.9558096
483.20 0.9560914
483.30 0.9563728
483.40 0.956654
483.50 0.9569348
483.60 0.9572153
483.70 0.9575217
483.80 0.9578277
483.90 0.9581335
484.00 0.9584389
484.10 0.9587439
484.20 0.9590199
484.30 0.9592833
484.40 0.9595463
484.50 0.9598091
484.60 0.9600716
484.70 0.9603353
484.80 0.9606199
484.90 0.9609042
485.00 0.9611882
485.10 0.9614718
485.20 0.9617552
485.30 0.9620382
485.40 0.9623209
485.50 0.9626033
485.60 0.9628853
485.70 0.9631642
485.80 0.9634428
485.90 0.9637211
486.00 0.9639991
486.10 0.9642768
486.20 0.9645541
486.30 0.9648312
486.40 0.9651079
486.50 0.9653843
486.60 0.9656604
486.70 0.9659383
486.80 0.9662437
486.90 0.9665486
487.00 0.9668533
487.10 0.9671576
487.20 0.9674319
487.30 0.9677058
487.40 0.9679794
487.50 0.9682527
487.60 0.9685257
487.70 0.9687984
487.80 0.9690708
487.90 0.9693428
488.00 0.9696146
488.10 0.9698861
488.20 0.9701553
488.30 0.9703982
488.40 0.9706408
488.50 0.9708832
488.60 0.9711252
488.70 0.971367
488.80 0.9717139
488.90 0.9720604
489.00 0.9723851
489.10 0.9726541
489.20 0.9729229
489.30 0.9731913
489.40 0.9734594
489.50 0.9737273
489.60 0.9739948
489.70 0.974262
489.80 0.974312
489.90 0.9745503
490.00 0.9747884
490.10 0.9750262
490.20 0.9752637
490.30 0.9755009
490.40 0.9758071
490.50 0.9761129
490.60 0.9764184
490.70 0.9767236
490.80 0.9771551
490.90 0.9771323
491.00 0.9775369
491.10 0.9777405
491.20 0.9781443
491.30 0.9783474
491.40 0.9784023
491.50 0.9787528
491.60 0.9789826
491.70 0.9792959
491.80 0.9796113
491.90 0.9799604
492.00 0.9800316
492.10 0.9803624
492.20 0.9805981
492.30 0.981033
492.40 0.9812155
492.50 0.9815626
492.60 0.9816116
492.70 0.9819106
492.80 0.9822093
492.90 0.9825076
493.00 0.9828008
493.10 0.9830301
493.20 0.983259
493.30 0.9834877
493.40 0.9837162
493.50 0.9839443
493.60 0.9843813
493.70 0.984575
493.80 0.9847684
493.90 0.9849549
494.00 0.9851307
494.10 0.9853399
494.20 0.9856202
494.30 0.9859003
494.40 0.98618
494.50 0.9864594
494.60 0.9867369
494.70 0.9869932
494.80 0.9872365
494.90 0.9874434
495.00 0.9876501
495.10 0.9878564
495.20 0.9881096
495.30 0.9883625
495.40 0.988615
495.50 0.9888673
495.60 0.9891193
495.70 0.9893711
495.80 0.9896225
495.90 0.9898737
496.00 0.9901246
496.10 0.9903685
496.20 0.9906013
496.30 0.9908777
496.40 0.9911537
496.50 0.9914295
496.60 0.9917049
496.70 0.9919456
496.80 0.9921861
496.90 0.9924262
497.00 0.9926661
497.10 0.9929057
497.20 0.993145
497.30 0.9933911
497.40 0.9936567
497.50 0.993922
497.60 0.9941745
497.70 0.9944013
497.80 0.9946475
497.90 0.9948934
498.00 0.995139
498.10 0.9953843
498.20 0.9956294
498.30 0.9958742
498.40 0.9961187
498.50 0.9963629
498.60 0.9966069
498.70 0.9967907
498.80 0.9969743
498.90 0.9972084
499.00 0.9974422
499.10 0.9976758
499.20 0.9979409
499.30 0.9982516
499.40 0.9984999
499.50 0.9987479
499.60 0.9989957
499.70 0.9992435
499.80 0.999496
499.90 0.9997481
500.00 1
500.10 1.000252
500.20 1.000501
500.30 1.000745
500.40 1.000989
500.50 1.001233
500.60 1.001476
500.70 1.001719
500.80 1.001942
500.90 1.002123
501.00 1.002303
501.10 1.002484
501.20 1.002654
501.30 1.002831
501.40 1.003132
501.50 1.003309
501.60 1.003524
501.70 1.003931
501.80 1.004099
501.90 1.004275
502.00 1.004485
502.10 1.004767
502.20 1.005048
502.30 1.005305
502.40 1.005556
502.50 1.005794
502.60 1.006032
502.70 1.00627
502.80 1.006508
502.90 1.006745
503.00 1.006959
503.10 1.007123
503.20 1.007288
503.30 1.007452
503.40 1.007637
503.50 1.007882
503.60 1.008127
503.70 1.008371
503.80 1.008614
503.90 1.008849
504.00 1.009091
504.10 1.009347
504.20 1.009602
504.30 1.009858
504.40 1.010091
504.50 1.010261
504.60 1.010529
504.70 1.010698
504.80 1.010934
504.90 1.011036
505.00 1.011156
505.10 1.011514
505.20 1.011824
505.30 1.012001
505.40 1.012177
505.50 1.012353
505.60 1.012545
505.70 1.012769
505.80 1.012992
505.90 1.013215
506.00 1.013439
506.10 1.013661
506.20 1.013887
506.30 1.014119
506.40 1.014352
506.50 1.014584
506.60 1.014816
506.70 1.015048
506.80 1.015279
506.90 1.01551
507.00 1.015741
507.10 1.015884
507.20 1.015904
507.30 1.016115
507.40 1.016325
507.50 1.016535
507.60 1.016745
507.70 1.016954
507.80 1.017163
507.90 1.017372
508.00 1.017581
508.10 1.017789
508.20 1.017997
508.30 1.018205
508.40 1.018413
508.50 1.01862
508.60 1.018828
508.70 1.019035
508.80 1.01927
508.90 1.019514
509.00 1.01973
509.10 1.019947
509.20 1.020165
509.30 1.020383
509.40 1.020601
509.50 1.020818
509.60 1.021036
509.70 1.021253
509.80 1.021469
509.90 1.021686
510.00 1.021902
510.10 1.022118
510.20 1.022334
510.30 1.022546
510.40 1.022748
510.50 1.022949
510.60 1.023151
510.70 1.023352
510.80 1.023553
510.90 1.023754
511.00 1.023955
511.10 1.024155
511.20 1.024355
511.30 1.024555
511.40 1.024755
511.50 1.024954
511.60 1.025146
511.70 1.025321
511.80 1.025496
511.90 1.02567
512.00 1.025845
512.10 1.026019
512.20 1.026193
512.30 1.026375
512.40 1.026581
512.50 1.026787
512.60 1.026993
512.70 1.027198
512.80 1.027403
512.90 1.027608
513.00 1.027812
513.10 1.028017
513.20 1.028221
513.30 1.028425
513.40 1.028629
513.50 1.028832
513.60 1.029035
513.70 1.029238
513.80 1.029441
513.90 1.029643
514.00 1.029842
514.10 1.030039
514.20 1.030237
514.30 1.030434
514.40 1.030631
514.50 1.030827
514.60 1.031024
514.70 1.03122
514.80 1.031416
514.90 1.031612
515.00 1.031807
515.10 1.032003
515.20 1.032198
515.30 1.032393
515.40 1.032587
515.50 1.032781
515.60 1.032976
515.70 1.03317
515.80 1.033363
515.90 1.033557
516.00 1.03375
516.10 1.033943
516.20 1.034136
516.30 1.034328
516.40 1.034521
516.50 1.03471
516.60 1.034888
516.70 1.035066
516.80 1.035244
516.90 1.035421
517.00 1.035598
517.10 1.035775
517.20 1.035952
517.30 1.036128
517.40 1.036305
517.50 1.036481
517.60 1.036657
517.70 1.036832
517.80 1.037008
517.90 1.037183
518.00 1.037358
518.10 1.037533
518.20 1.037707
518.30 1.037881
518.40 1.038056
518.50 1.03823
518.60 1.038403
518.70 1.038577
518.80 1.03875
518.90 1.038923
519.00 1.039096
519.10 1.039269
519.20 1.039443
519.30 1.039616
519.40 1.039789
519.50 1.039962
519.60 1.040135
519.70 1.040307
519.80 1.040479
519.90 1.040652
520.00 1.040823
520.10 1.040995
520.20 1.041166
520.30 1.041338
520.40 1.041509
520.50 1.041679
520.60 1.04185
520.70 1.04202
520.80 1.042191
520.90 1.042361
521.00 1.04253
521.10 1.0427
521.20 1.042869
521.30 1.043038
521.40 1.043207
521.50 1.043376
521.60 1.043545
521.70 1.043713
521.80 1.043881
521.90 1.044049
522.00 1.044217
522.10 1.044384
522.20 1.044551
522.30 1.044719
522.40 1.044885
522.50 1.045052
522.60 1.045219
522.70 1.045385
522.80 1.045551
522.90 1.045717
523.00 1.045882
523.10 1.046048
523.20 1.046213
523.30 1.046378
523.40 1.046543
523.50 1.046708
523.60 1.046872
523.70 1.047036
523.80 1.0472
523.90 1.047364
524.00 1.047528
524.10 1.047691
524.20 1.047855
524.30 1.048018
524.40 1.048182
524.50 1.048346
524.60 1.04851
524.70 1.048673
524.80 1.048837
524.90 1.049
525.00 1.049163
525.10 1.049325
525.20 1.049488
525.30 1.04965
525.40 1.049812
525.50 1.049974
525.60 1.050136
525.70 1.050297
525.80 1.050458
525.90 1.050619
526.00 1.05078
526.10 1.050941
526.20 1.051101
526.30 1.051262
526.40 1.051422
526.50 1.051582
526.60 1.051741
526.70 1.051901
526.80 1.05206
526.90 1.052219
527.00 1.052378
527.10 1.052537
527.20 1.052695
527.30 1.052854
527.40 1.053012
527.50 1.05317
527.60 1.053327
527.70 1.053485
527.80 1.053642
527.90 1.053799
528.00 1.053956
528.10 1.054113
528.20 1.05427
528.30 1.054426
528.40 1.054582
528.50 1.054738
528.60 1.054894
528.70 1.05505
528.80 1.055205
528.90 1.05536
529.00 1.055515
529.10 1.05567
529.20 1.055825
529.30 1.055979
529.40 1.056133
529.50 1.056287
529.60 1.056435
529.70 1.056583
529.80 1.056731
529.90 1.056878
530.00 1.057026
530.10 1.057173
530.20 1.05732
530.30 1.057467
530.40 1.057614
530.50 1.05776
530.60 1.057907
530.70 1.058053
530.80 1.058199
530.90 1.058345
531.00 1.05849
531.10 1.058636
531.20 1.058781
531.30 1.058926
531.40 1.059071
531.50 1.059216
531.60 1.05936
531.70 1.059504
531.80 1.059649
531.90 1.059793
532.00 1.059936
532.10 1.06008
532.20 1.060215
532.30 1.060346
532.40 1.060476
532.50 1.060606
532.60 1.060736
532.70 1.060866
532.80 1.060996
532.90 1.061125
533.00 1.061254
533.10 1.061384
533.20 1.061513
533.30 1.061641
533.40 1.06177
533.50 1.061899
533.60 1.062027
533.70 1.062155
533.80 1.062283
533.90 1.062411
534.00 1.062538
534.10 1.062666
534.20 1.062793
534.30 1.06292
534.40 1.063047
534.50 1.063174
534.60 1.063301
534.70 1.063427
534.80 1.063555
534.90 1.063688
535.00 1.063821
535.10 1.063954
535.20 1.064087
535.30 1.06422
535.40 1.064353
535.50 1.064485
535.60 1.064617
535.70 1.064749
535.80 1.064881
535.90 1.065013
536.00 1.065145
536.10 1.065276
536.20 1.065407
536.30 1.065538
536.40 1.065669
536.50 1.0658
536.60 1.06593
536.70 1.066061
536.80 1.066191
536.90 1.066321
537.00 1.066451
537.10 1.06658
537.20 1.06671
537.30 1.066839
537.40 1.066968
537.50 1.067097
537.60 1.067226
537.70 1.067355
537.80 1.067483
537.90 1.067612
538.00 1.06774
538.10 1.067868
538.20 1.067995
538.30 1.068123
538.40 1.06825
538.50 1.068378
538.60 1.068505
538.70 1.068632
538.80 1.068759
538.90 1.068885
539.00 1.069012
539.10 1.069138
539.20 1.069264
539.30 1.06939
539.40 1.069516
539.50 1.069641
539.60 1.069767
539.70 1.069892
539.80 1.070017
539.90 1.070142
540.00 1.070267
540.10 1.070392
540.20 1.070513
540.30 1.070632
540.40 1.070751
540.50 1.07087
540.60 1.070988
540.70 1.071107
540.80 1.071225
540.90 1.071343
541.00 1.071461
541.10 1.071579
541.20 1.071697
541.30 1.071815
541.40 1.071932
541.50 1.072049
541.60 1.072166
541.70 1.072283
541.80 1.0724
541.90 1.072517
542.00 1.072633
542.10 1.072749
542.20 1.072866
542.30 1.072982
542.40 1.073097
542.50 1.073213
542.60 1.073329
542.70 1.073444
542.80 1.073559
542.90 1.073674
543.00 1.073789
543.10 1.073904
543.20 1.074018
543.30 1.074133
543.40 1.074247
543.50 1.074361
543.60 1.074475
543.70 1.074589
543.80 1.074702
543.90 1.074816
544.00 1.074929
544.10 1.075042
544.20 1.075155
544.30 1.075268
544.40 1.075381
544.50 1.075493
544.60 1.075606
544.70 1.075718
544.80 1.07583
544.90 1.075942
545.00 1.076054
545.10 1.076165
545.20 1.076277
545.30 1.076388
545.40 1.076499
545.50 1.07661
545.60 1.076709
545.70 1.076803
545.80 1.076896
545.90 1.07699
546.00 1.077083
546.10 1.077176
546.20 1.077269
546.30 1.077362
546.40 1.077455
546.50 1.077547
546.60 1.07764
546.70 1.077732
546.80 1.077824
546.90 1.077916
547.00 1.078008
547.10 1.0781
547.20 1.078191
547.30 1.078283
547.40 1.078374
547.50 1.078465
547.60 1.078556
547.70 1.078647
547.80 1.078738
547.90 1.078828
548.00 1.078919
548.10 1.079009
548.20 1.079099
548.30 1.079194
548.40 1.079296
548.50 1.079398
548.60 1.0795
548.70 1.079601
548.80 1.079702
548.90 1.079804
549.00 1.079905
549.10 1.080005
549.20 1.080106
549.30 1.080207
549.40 1.080307
549.50 1.080407
549.60 1.080508
549.70 1.080608
549.80 1.080708
549.90 1.080807
550.00 1.080907
550.10 1.081006
550.20 1.081106
550.30 1.081205
550.40 1.081304
550.50 1.081403
550.60 1.081501
550.70 1.0816
550.80 1.081698
550.90 1.081797
551.00 1.081894
551.10 1.081987
551.20 1.08208
551.30 1.082173
551.40 1.082265
551.50 1.082358
551.60 1.08245
551.70 1.082542
551.80 1.082634
551.90 1.082726
552.00 1.082818
552.10 1.082909
552.20 1.083001
552.30 1.083092
552.40 1.083184
552.50 1.083275
552.60 1.083366
552.70 1.083456
552.80 1.083547
552.90 1.083638
553.00 1.083728
553.10 1.083818
553.20 1.083908
553.30 1.083998
553.40 1.084088
553.50 1.084178
553.60 1.084267
553.70 1.084357
553.80 1.084439
553.90 1.084517
554.00 1.084595
554.10 1.084672
554.20 1.08475
554.30 1.084827
554.40 1.084904
554.50 1.084981
554.60 1.085058
554.70 1.085134
554.80 1.085211
554.90 1.085288
555.00 1.085364
555.10 1.08544
555.20 1.085516
555.30 1.085592
555.40 1.085668
555.50 1.085744
555.60 1.085819
555.70 1.085895
555.80 1.08597
555.90 1.086045
556.00 1.08612
556.10 1.086195
556.20 1.08627
556.30 1.086345
556.40 1.08642
556.50 1.086494
556.60 1.08657
556.70 1.086645
556.80 1.08672
556.90 1.086795
557.00 1.08687
557.10 1.086945
557.20 1.087019
557.30 1.087094
557.40 1.087168
557.50 1.087242
557.60 1.087316
557.70 1.08739
557.80 1.087464
557.90 1.087538
558.00 1.087612
558.10 1.087685
558.20 1.087759
558.30 1.087832
558.40 1.087905
558.50 1.087978
558.60 1.088051
558.70 1.088124
558.80 1.088197
558.90 1.088269
559.00 1.088341
559.10 1.088414
559.20 1.088486
559.30 1.088558
559.40 1.08863
559.50 1.088702
559.60 1.088773
559.70 1.088845
559.80 1.088916
559.90 1.088988
560.00 1.089059
560.10 1.08913
560.20 1.089201
560.30 1.089272
560.40 1.089343
560.50 1.089413
560.60 1.089484
560.70 1.089554
560.80 1.089624
560.90 1.089695
561.00 1.089765
561.10 1.089834
561.20 1.089904
561.30 1.089974
561.40 1.090043
561.50 1.090113
561.60 1.090182
561.70 1.090251
561.80 1.09032
561.90 1.090389
562.00 1.090458
562.10 1.090527
562.20 1.090597
562.30 1.090666
562.40 1.090735
562.50 1.090804
562.60 1.090873
562.70 1.090942
562.80 1.091011
562.90 1.091079
563.00 1.091148
563.10 1.091216
563.20 1.091284
563.30 1.091352
563.40 1.09142
563.50 1.091488
563.60 1.091556
563.70 1.091624
563.80 1.091691
563.90 1.091759
564.00 1.091826
564.10 1.091893
564.20 1.09196
564.30 1.092027
564.40 1.092094
564.50 1.092161
564.60 1.092227
564.70 1.092294
564.80 1.09236
564.90 1.092423
565.00 1.092479
565.10 1.092534
565.20 1.09259
565.30 1.092645
565.40 1.0927
565.50 1.092755
565.60 1.09281
565.70 1.092864
565.80 1.092919
565.90 1.092974
566.00 1.093028
566.10 1.093082
566.20 1.093137
566.30 1.093191
566.40 1.093245
566.50 1.093299
566.60 1.093352
566.70 1.093406
566.80 1.09346
566.90 1.093513
567.00 1.093567
567.10 1.09362
567.20 1.093673
567.30 1.093726
567.40 1.093779
567.50 1.093832
567.60 1.093885
567.70 1.093937
567.80 1.093985
567.90 1.094033
568.00 1.094081
568.10 1.094128
568.20 1.094176
568.30 1.094224
568.40 1.094271
568.50 1.094319
568.60 1.094366
568.70 1.094413
568.80 1.094461
568.90 1.094508
569.00 1.094554
569.10 1.094601
569.20 1.094648
569.30 1.094695
569.40 1.094741
569.50 1.094788
569.60 1.094834
569.70 1.09488
569.80 1.094926
569.90 1.094972
570.00 1.095018
570.10 1.095064
570.20 1.09511
570.30 1.095155
570.40 1.095201
570.50 1.095246
570.60 1.095292
570.70 1.095337
570.80 1.095382
570.90 1.095427
571.00 1.095472
571.10 1.095517
571.20 1.095562
571.30 1.095606
571.40 1.095651
571.50 1.095695
571.60 1.09574
571.70 1.095784
571.80 1.095828
571.90 1.095872
572.00 1.095916
572.10 1.09596
572.20 1.096004
572.30 1.096047
572.40 1.096091
572.50 1.096134
572.60 1.096178
572.70 1.096221
572.80 1.096264
572.90 1.096307
573.00 1.09635
573.10 1.096393
573.20 1.096436
573.30 1.096479
573.40 1.096519
573.50 1.096556
573.60 1.096594
573.70 1.096631
573.80 1.096668
573.90 1.096705
574.00 1.096742
574.10 1.096779
574.20 1.096816
574.30 1.096853
574.40 1.096889
574.50 1.096926
574.60 1.096962
574.70 1.096998
574.80 1.097035
574.90 1.097071
575.00 1.097107
575.10 1.097143
575.20 1.097179
575.30 1.097215
575.40 1.09725
575.50 1.097286
575.60 1.097321
575.70 1.097357
575.80 1.097392
575.90 1.097427
576.00 1.097462
576.10 1.097498
576.20 1.097532
576.30 1.097567
576.40 1.097602
576.50 1.097637
576.60 1.097671
576.70 1.097706
576.80 1.09774
576.90 1.097775
577.00 1.097809
577.10 1.097843
577.20 1.097877
577.30 1.097911
577.40 1.097945
577.50 1.097979
577.60 1.098007
577.70 1.098025
577.80 1.098043
577.90 1.09806
578.00 1.098078
578.10 1.098096
578.20 1.098114
578.30 1.098131
578.40 1.098149
578.50 1.098166
578.60 1.098183
578.70 1.098201
578.80 1.098218
578.90 1.098235
579.00 1.098252
579.10 1.098271
579.20 1.098307
579.30 1.098344
579.40 1.09838
579.50 1.098416
579.60 1.098453
579.70 1.098489
579.80 1.098525
579.90 1.098561
580.00 1.098597
580.10 1.098628
580.20 1.098652
580.30 1.098675
580.40 1.098699
580.50 1.098722
580.60 1.098745
580.70 1.098769
580.80 1.098792
580.90 1.098815
581.00 1.098838
581.10 1.098861
581.20 1.098884
581.30 1.098906
581.40 1.098929
581.50 1.098952
581.60 1.098974
581.70 1.098997
581.80 1.099019
581.90 1.099041
582.00 1.099064
582.10 1.099086
582.20 1.099108
582.30 1.09913
582.40 1.099152
582.50 1.099173
582.60 1.099195
582.70 1.099217
582.80 1.099238
582.90 1.09926
583.00 1.099281
583.10 1.099303
583.20 1.099324
583.30 1.099345
583.40 1.099366
583.50 1.099387
583.60 1.099404
583.70 1.099415
583.80 1.099425
583.90 1.099436
584.00 1.099446
584.10 1.099456
584.20 1.099466
584.30 1.099476
584.40 1.099486
584.50 1.099496
584.60 1.099506
584.70 1.099516
584.80 1.099526
584.90 1.099539
585.00 1.099567
585.10 1.099595
585.20 1.099619
585.30 1.099639
585.40 1.099659
585.50 1.099678
585.60 1.099698
585.70 1.099717
585.80 1.099736
585.90 1.099755
586.00 1.099774
586.10 1.099793
586.20 1.099805
586.30 1.099805
586.40 1.099805
586.50 1.099805
586.60 1.099805
586.70 1.099805
586.80 1.099823
586.90 1.099869
587.00 1.099916
587.10 1.099962
587.20 1.100008
587.30 1.100054
587.40 1.099941
587.50 1.099973
587.60 1.100026
587.70 1.100064
587.80 1.100004
587.90 1.100049
588.00 1.100068
588.10 1.100044
588.20 1.10002
588.30 1.099995
588.40 1.099997
588.50 1.100042
588.60 1.100087
588.70 1.100132
588.80 1.100177
588.90 1.100222
589.00 1.100246
589.10 1.100234
589.20 1.100223
589.30 1.100212
589.40 1.100201
589.50 1.10019
589.60 1.100178
589.70 1.100167
589.80 1.100155
589.90 1.100144
590.00 1.100146
590.10 1.10017
590.20 1.100195
590.30 1.100219
590.40 1.100244
590.50 1.100268
590.60 1.100292
590.70 1.100316
590.80 1.10032
590.90 1.100314
591.00 1.100308
591.10 1.100303
591.20 1.100297
591.30 1.100291
591.40 1.100285
591.50 1.100279
591.60 1.100274
591.70 1.100271
591.80 1.100267
591.90 1.100264
592.00 1.10026
592.10 1.100256
592.20 1.100252
592.30 1.100249
592.40 1.100245
592.50 1.100241
592.60 1.100237
592.70 1.100233
592.80 1.100229
592.90 1.100225
593.00 1.10022
593.10 1.100218
593.20 1.100218
593.30 1.100218
593.40 1.100218
593.50 1.100218
593.60 1.100218
593.70 1.100218
593.80 1.100218
593.90 1.100218
594.00 1.100218
594.10 1.100217
594.20 1.100217
594.30 1.100217
594.40 1.100216
594.50 1.100215
594.60 1.100215
594.70 1.100214
594.80 1.100213
594.90 1.100213
595.00 1.100212
595.10 1.100209
595.20 1.100203
595.30 1.100197
595.40 1.100191
595.50 1.100185
595.60 1.100179
595.70 1.100173
595.80 1.100167
595.90 1.100161
596.00 1.100155
596.10 1.100148
596.20 1.100142
596.30 1.100136
596.40 1.100129
596.50 1.100123
596.60 1.100116
596.70 1.100122
596.80 1.100135
596.90 1.100149
597.00 1.100162
597.10 1.100176
597.20 1.100189
597.30 1.100202
597.40 1.100215
597.50 1.100228
597.60 1.100232
597.70 1.100223
597.80 1.100213
597.90 1.100203
598.00 1.100193
598.10 1.100183
598.20 1.100173
598.30 1.100163
598.40 1.100153
598.50 1.100143
598.60 1.100132
598.70 1.100122
598.80 1.100112
598.90 1.100101
599.00 1.100091
599.10 1.10008
599.20 1.10007
599.30 1.100059
599.40 1.100042
599.50 1.100025
599.60 1.100008
599.70 1.099991
599.80 1.099974
599.90 1.099957
600.00 1.099939
600.10 1.099922
600.20 1.099905
600.30 1.099887
600.40 1.09987
600.50 1.099852
600.60 1.099835
600.70 1.099817
600.80 1.099799
600.90 1.099782
601.00 1.099764
601.10 1.099746
601.20 1.099728
601.30 1.09971
601.40 1.099693
601.50 1.099676
601.60 1.099658
601.70 1.099641
601.80 1.099623
601.90 1.099606
602.00 1.099588
602.10 1.099571
602.20 1.099553
602.30 1.099536
602.40 1.099518
602.50 1.0995
602.60 1.099482
602.70 1.099524
602.80 1.099569
602.90 1.099537
603.00 1.099505
603.10 1.099473
603.20 1.09944
603.30 1.099408
603.40 1.099376
603.50 1.099344
603.60 1.099311
603.70 1.099279
603.80 1.099247
603.90 1.099214
604.00 1.099182
604.10 1.099149
604.20 1.099117
604.30 1.099084
604.40 1.099051
604.50 1.099032
604.60 1.099013
604.70 1.098993
604.80 1.098973
604.90 1.098954
605.00 1.098934
605.10 1.098914
605.20 1.098895
605.30 1.098875
605.40 1.098855
605.50 1.098844
605.60 1.098833
605.70 1.098822
605.80 1.09881
605.90 1.098799
606.00 1.098788
606.10 1.098754
606.20 1.098721
606.30 1.098687
606.40 1.098654
606.50 1.098686
606.60 1.098718
606.70 1.098619
606.80 1.098651
606.90 1.098683
607.00 1.098584
607.10 1.098615
607.20 1.098647
607.30 1.098613
607.40 1.098579
607.50 1.098545
607.60 1.098511
607.70 1.098456
607.80 1.0984
607.90 1.098344
608.00 1.098288
608.10 1.098232
608.20 1.098176
608.30 1.098179
608.40 1.098182
608.50 1.098184
608.60 1.098187
608.70 1.098161
608.80 1.098121
608.90 1.098081
609.00 1.098042
609.10 1.098002
609.20 1.097962
609.30 1.097944
609.40 1.097926
609.50 1.097907
609.60 1.097889
609.70 1.09787
609.80 1.097851
609.90 1.097833
610.00 1.097814
610.10 1.097795
610.20 1.097777
610.30 1.097758
610.40 1.097739
610.50 1.09772
610.60 1.097701
610.70 1.097682
610.80 1.097663
610.90 1.097632
611.00 1.097601
611.10 1.09757
611.20 1.097539
611.30 1.097508
611.40 1.097477
611.50 1.097445
611.60 1.097414
611.70 1.097383
611.80 1.097352
611.90 1.09732
612.00 1.097289
612.10 1.097257
612.20 1.097226
612.30 1.097194
612.40 1.097159
612.50 1.097123
612.60 1.097087
612.70 1.097051
612.80 1.097015
612.90 1.096979
613.00 1.096943
613.10 1.096907
613.20 1.09687
613.30 1.096834
613.40 1.096798
613.50 1.096762
613.60 1.096726
613.70 1.096689
613.80 1.096653
613.90 1.096617
614.00 1.09658
614.10 1.096544
614.20 1.096507
614.30 1.096471
614.40 1.096421
614.50 1.096372
614.60 1.096322
614.70 1.096272
614.80 1.096233
614.90 1.096196
615.00 1.096159
615.10 1.096121
615.20 1.096084
615.30 1.096047
615.40 1.096009
615.50 1.095972
615.60 1.095935
615.70 1.095897
615.80 1.09586
615.90 1.095822
616.00 1.095785
616.10 1.095747
616.20 1.09571
616.30 1.095672
616.40 1.095634
616.50 1.095597
616.60 1.095559
616.70 1.095521
616.80 1.095483
616.90 1.095441
617.00 1.095399
617.10 1.095356
617.20 1.095314
617.30 1.095271
617.40 1.095229
617.50 1.095186
617.60 1.095144
617.70 1.095101
617.80 1.095058
617.90 1.095016
618.00 1.094973
618.10 1.09493
618.20 1.094887
618.30 1.094845
618.40 1.094802
618.50 1.094759
618.60 1.094716
618.70 1.094673
618.80 1.09463
618.90 1.094587
619.00 1.094544
619.10 1.094501
619.20 1.094458
619.30 1.094415
619.40 1.094372
619.50 1.094329
619.60 1.094286
619.70 1.094243
619.80 1.094199
619.90 1.094156
620.00 1.094113
620.10 1.094069
620.20 1.094026
620.30 1.093983
620.40 1.093939
620.50 1.093896
620.60 1.093852
620.70 1.093809
620.80 1.093765
620.90 1.09372
621.00 1.093671
621.10 1.093621
621.20 1.093572
621.30 1.093523
621.40 1.093474
621.50 1.093424
621.60 1.093375
621.70 1.093326
621.80 1.093276
621.90 1.093227
622.00 1.093177
622.10 1.093128
622.20 1.093078
622.30 1.093029
622.40 1.092979
622.50 1.09293
622.60 1.09288
622.70 1.092831
622.80 1.092781
622.90 1.092731
623.00 1.092682
623.10 1.092632
623.20 1.092582
623.30 1.092532
623.40 1.092483
623.50 1.092433
623.60 1.092383
623.70 1.092333
623.80 1.092283
623.90 1.092233
624.00 1.092183
624.10 1.092133
624.20 1.092083
624.30 1.092033
624.40 1.091983
624.50 1.091933
624.60 1.091883
624.70 1.091833
624.80 1.091783
624.90 1.091733
625.00 1.091683
625.10 1.091632
625.20 1.091582
625.30 1.091532
625.40 1.091482
625.50 1.091431
625.60 1.091381
625.70 1.091331
625.80 1.09128
625.90 1.09123
626.00 1.09118
626.10 1.091129
626.20 1.091079
626.30 1.091028
626.40 1.090978
626.50 1.090927
626.60 1.090877
626.70 1.090826
626.80 1.090776
626.90 1.090725
627.00 1.090674
627.10 1.090622
627.20 1.090564
627.30 1.090507
627.40 1.090449
627.50 1.090392
627.60 1.090334
627.70 1.090277
627.80 1.090219
627.90 1.090161
628.00 1.090104
628.10 1.090046
628.20 1.089988
628.30 1.089931
628.40 1.089873
628.50 1.089815
628.60 1.089757
628.70 1.0897
628.80 1.089642
628.90 1.089584
629.00 1.089526
629.10 1.089468
629.20 1.08941
629.30 1.089353
629.40 1.089295
629.50 1.089237
629.60 1.089179
629.70 1.089121
629.80 1.089063
629.90 1.089005
630.00 1.088947
630.10 1.088889
630.20 1.088831
630.30 1.088773
630.40 1.088714
630.50 1.088656
630.60 1.088598
630.70 1.08854
630.80 1.088482
630.90 1.088423
631.00 1.088365
631.10 1.088307
631.20 1.088248
631.30 1.08819
631.40 1.088132
631.50 1.088073
631.60 1.088015
631.70 1.087957
631.80 1.087898
631.90 1.08784
632.00 1.087781
632.10 1.087723
632.20 1.087664
632.30 1.087606
632.40 1.087547
632.50 1.087489
632.60 1.08743
632.70 1.087372
632.80 1.087313
632.90 1.087254
633.00 1.087196
633.10 1.087137
633.20 1.087078
633.30 1.08702
633.40 1.086955
633.50 1.086886
633.60 1.086817
633.70 1.086748
633.80 1.086679
633.90 1.08661
634.00 1.086541
634.10 1.086472
634.20 1.086403
634.30 1.086334
634.40 1.086264
634.50 1.086195
634.60 1.086126
634.70 1.086057
634.80 1.085988
634.90 1.085919
635.00 1.085849
635.10 1.08578
635.20 1.085711
635.30 1.085642
635.40 1.085573
635.50 1.085503
635.60 1.085434
635.70 1.085365
635.80 1.085296
635.90 1.085226
636.00 1.085157
636.10 1.085088
636.20 1.085019
636.30 1.084949
636.40 1.08488
636.50 1.084811
636.60 1.084741
636.70 1.084672
636.80 1.084602
636.90 1.084533
637.00 1.084463
637.10 1.084394
637.20 1.084324
637.30 1.084255
637.40 1.084185
637.50 1.084116
637.60 1.084046
637.70 1.083977
637.80 1.083907
637.90 1.083838
638.00 1.083768
638.10 1.083698
638.20 1.083629
638.30 1.083559
638.40 1.08349
638.50 1.08342
638.60 1.08335
638.70 1.083281
638.80 1.083211
638.90 1.083142
639.00 1.083072
639.10 1.083002
639.20 1.082932
639.30 1.082863
639.40 1.082793
639.50 1.082723
639.60 1.082654
639.70 1.082583
639.80 1.082511
639.90 1.082438
640.00 1.082366
640.10 1.082294
640.20 1.082221
640.30 1.082149
640.40 1.082076
640.50 1.082004
640.60 1.081931
640.70 1.081859
640.80 1.081786
640.90 1.081714
641.00 1.081641
641.10 1.081569
641.20 1.081496
641.30 1.081424
641.40 1.081351
641.50 1.081279
641.60 1.081206
641.70 1.081133
641.80 1.081061
641.90 1.080988
642.00 1.080916
642.10 1.080843
642.20 1.08077
642.30 1.080698
642.40 1.080625
642.50 1.080553
642.60 1.08048
642.70 1.080407
642.80 1.080335
642.90 1.080262
643.00 1.080189
643.10 1.080117
643.20 1.080044
643.30 1.079972
643.40 1.079899
643.50 1.079826
643.60 1.079754
643.70 1.079681
643.80 1.079609
643.90 1.079536
644.00 1.079463
644.10 1.079391
644.20 1.079318
644.30 1.079245
644.40 1.079173
644.50 1.0791
644.60 1.079027
644.70 1.078955
644.80 1.078882
644.90 1.078809
645.00 1.078736
645.10 1.078664
645.20 1.078591
645.30 1.078518
645.40 1.078446
645.50 1.078373
645.60 1.0783
645.70 1.078227
645.80 1.078154
645.90 1.078082
646.00 1.078009
646.10 1.077934
646.20 1.077851
646.30 1.077768
646.40 1.077686
646.50 1.077603
646.60 1.077521
646.70 1.077438
646.80 1.077356
646.90 1.077273
647.00 1.077191
647.10 1.077108
647.20 1.077025
647.30 1.076943
647.40 1.07686
647.50 1.076778
647.60 1.076695
647.70 1.076613
647.80 1.07653
647.90 1.076448
648.00 1.076365
648.10 1.076282
648.20 1.0762
648.30 1.076117
648.40 1.076035
648.50 1.075952
648.60 1.07587
648.70 1.075787
648.80 1.075705
648.90 1.075622
649.00 1.075539
649.10 1.075457
649.20 1.075374
649.30 1.075292
649.40 1.075209
649.50 1.075126
649.60 1.075044
649.70 1.074961
649.80 1.074879
649.90 1.074796
650.00 1.074713
650.10 1.074631
650.20 1.074548
650.30 1.074465
650.40 1.074383
650.50 1.0743
650.60 1.074217
650.70 1.074135
650.80 1.074052
650.90 1.073969
651.00 1.073887
651.10 1.073804
651.20 1.073722
651.30 1.073639
651.40 1.073556
651.50 1.073474
651.60 1.073391
651.70 1.073308
651.80 1.073226
651.90 1.073143
652.00 1.07306
652.10 1.072978
652.20 1.072895
652.30 1.072813
652.40 1.07273
652.50 1.072647
652.60 1.072559
652.70 1.072467
652.80 1.072375
652.90 1.072283
653.00 1.072191
653.10 1.072099
653.20 1.072008
653.30 1.071916
653.40 1.071824
653.50 1.071732
653.60 1.07164
653.70 1.071549
653.80 1.071457
653.90 1.071365
654.00 1.071273
654.10 1.071181
654.20 1.07109
654.30 1.070998
654.40 1.070906
654.50 1.070814
654.60 1.070723
654.70 1.070631
654.80 1.070539
654.90 1.070447
655.00 1.070356
655.10 1.070264
655.20 1.070172
655.30 1.070081
655.40 1.069989
655.50 1.069897
655.60 1.069806
655.70 1.069714
655.80 1.069624
655.90 1.069534
656.00 1.069444
656.10 1.069354
656.20 1.069264
656.30 1.069174
656.40 1.069084
656.50 1.068994
656.60 1.068904
656.70 1.068814
656.80 1.068724
656.90 1.068634
657.00 1.068544
657.10 1.068454
657.20 1.068364
657.30 1.068274
657.40 1.068184
657.50 1.068094
657.60 1.068005
657.70 1.067915
657.80 1.067979
657.90 1.067896
658.00 1.067786
658.10 1.067677
658.20 1.067568
658.30 1.067459
658.40 1.06735
658.50 1.067241
658.60 1.067132
658.70 1.067022
658.80 1.066913
658.90 1.066804
659.00 1.066695
659.10 1.066628
659.20 1.066622
659.30 1.066518
659.40 1.066414
659.50 1.06631
659.60 1.066206
659.70 1.066102
659.80 1.065999
659.90 1.065895
660.00 1.065791
660.10 1.065687
660.20 1.065583
660.30 1.065479
660.40 1.065384
660.50 1.06529
660.60 1.065196
660.70 1.065102
660.80 1.065008
660.90 1.064929
661.00 1.064851
661.10 1.064772
661.20 1.064694
661.30 1.064615
661.40 1.064536
661.50 1.064458
661.60 1.064379
661.70 1.0643
661.80 1.064222
661.90 1.064115
662.00 1.064007
662.10 1.0639
662.20 1.063793
662.30 1.063686
662.40 1.063618
662.50 1.063517
662.60 1.063416
662.70 1.063316
662.80 1.063215
662.90 1.063114
663.00 1.063014
663.10 1.062913
663.20 1.062813
663.30 1.062712
663.40 1.062612
663.50 1.062511
663.60 1.062411
663.70 1.062295
663.80 1.062179
663.90 1.062091
664.00 1.062009
664.10 1.061908
664.20 1.061808
664.30 1.061707
664.40 1.061607
664.50 1.061506
664.60 1.061406
664.70 1.061302
664.80 1.061197
664.90 1.061093
665.00 1.060989
665.10 1.060884
665.20 1.06078
665.30 1.060676
665.40 1.060571
665.50 1.060485
665.60 1.060403
665.70 1.060415
665.80 1.060325
665.90 1.060235
666.00 1.060145
666.10 1.060055
666.20 1.059965
666.30 1.059875
666.40 1.059785
666.50 1.059686
666.60 1.059586
666.70 1.059486
666.80 1.059386
666.90 1.059285
667.00 1.059185
667.10 1.059
667.20 1.0588
667.30 1.058786
667.40 1.058772
667.50 1.058685
667.60 1.058585
667.70 1.058327
667.80 1.058268
667.90 1.058127
668.00 1.058
668.10 1.057868
668.20 1.057768
668.30 1.057668
668.40 1.057568
668.50 1.057468
668.60 1.057368
668.70 1.057301
668.80 1.057195
668.90 1.057088
669.00 1.056982
669.10 1.056876
669.20 1.05677
669.30 1.056669
669.40 1.05657
669.50 1.05647
669.60 1.05637
669.70 1.05627
669.80 1.056171
669.90 1.056071
670.00 1.055971
670.10 1.055871
670.20 1.055772
670.30 1.055678
670.40 1.055585
670.50 1.055492
670.60 1.055399
670.70 1.055306
670.80 1.055203
670.90 1.055101
671.00 1.054998
671.10 1.054896
671.20 1.054793
671.30 1.054691
671.40 1.054588
671.50 1.054486
671.60 1.054384
671.70 1.054281
671.80 1.054179
671.90 1.054082
672.00 1.053986
672.10 1.05389
672.20 1.053794
672.30 1.053698
672.40 1.053578
672.50 1.053456
672.60 1.053335
672.70 1.053213
672.80 1.053092
672.90 1.05297
673.00 1.052848
673.10 1.052727
673.20 1.052605
673.30 1.052664
673.40 1.052579
673.50 1.052469
673.60 1.052359
673.70 1.05225
673.80 1.05214
673.90 1.05203
674.00 1.05192
674.10 1.05181
674.20 1.0517
674.30 1.051591
674.40 1.051481
674.50 1.051371
674.60 1.051261
674.70 1.051152
674.80 1.051042
674.90 1.050932
675.00 1.050823
675.10 1.050713
675.20 1.050603
675.30 1.050494
675.40 1.050386
675.50 1.050279
675.60 1.050171
675.70 1.050064
675.80 1.049956
675.90 1.049849
676.00 1.049742
676.10 1.049634
676.20 1.049527
676.30 1.04942
676.40 1.049312
676.50 1.049205
676.60 1.049098
676.70 1.048991
676.80 1.048883
676.90 1.048776
677.00 1.048669
677.10 1.048562
677.20 1.048455
677.30 1.048348
677.40 1.048241
677.50 1.048134
677.60 1.048026
677.70 1.047919
677.80 1.047812
677.90 1.047696
678.00 1.047577
678.10 1.047459
678.20 1.04734
678.30 1.047222
678.40 1.047103
678.50 1.046985
678.60 1.046867
678.70 1.046748
678.80 1.04663
678.90 1.046512
679.00 1.046393
679.10 1.046279
679.20 1.046165
679.30 1.046052
679.40 1.045938
679.50 1.045825
679.60 1.045711
679.70 1.045598
679.80 1.045485
679.90 1.045371
680.00 1.045258
680.10 1.045145
680.20 1.045031
680.30 1.044918
680.40 1.044805
680.50 1.044692
680.60 1.044578
680.70 1.044465
680.80 1.044352
680.90 1.044239
681.00 1.044126
681.10 1.044013
681.20 1.0439
681.30 1.043787
681.40 1.043674
681.50 1.043561
681.60 1.043448
681.70 1.043335
681.80 1.043222
681.90 1.043109
682.00 1.042996
682.10 1.042883
682.20 1.04277
682.30 1.042657
682.40 1.042545
682.50 1.042432
682.60 1.042319
682.70 1.042206
682.80 1.042094
682.90 1.041981
683.00 1.041868
683.10 1.041756
683.20 1.041643
683.30 1.04153
683.40 1.041418
683.50 1.041305
683.60 1.041193
683.70 1.04108
683.80 1.040968
683.90 1.040855
684.00 1.040743
684.10 1.04063
684.20 1.040518
684.30 1.040405
684.40 1.040293
684.50 1.040181
684.60 1.040068
684.70 1.039956
684.80 1.039844
684.90 1.039731
685.00 1.039619
685.10 1.039507
685.20 1.039395
685.30 1.039283
685.40 1.03917
685.50 1.039058
685.60 1.038946
685.70 1.038834
685.80 1.038722
685.90 1.038606
686.00 1.038489
686.10 1.038372
686.20 1.038255
686.30 1.038138
686.40 1.038021
686.50 1.037905
686.60 1.037788
686.70 1.037671
686.80 1.037554
686.90 1.037437
687.00 1.037321
687.10 1.037204
687.20 1.037087
687.30 1.036971
687.40 1.036854
687.50 1.036738
687.60 1.036621
687.70 1.036504
687.80 1.036388
687.90 1.036271
688.00 1.036155
688.10 1.036038
688.20 1.035922
688.30 1.035806
688.40 1.035689
688.50 1.035573
688.60 1.035457
688.70 1.03534
688.80 1.035224
688.90 1.035108
689.00 1.034991
689.10 1.034875
689.20 1.034759
689.30 1.034643
689.40 1.034527
689.50 1.034411
689.60 1.034295
689.70 1.034179
689.80 1.034062
689.90 1.033946
690.00 1.03383
690.10 1.033714
690.20 1.033599
690.30 1.033483
690.40 1.033367
690.50 1.033251
690.60 1.033135
690.70 1.033019
690.80 1.032903
690.90 1.032788
691.00 1.032672
691.10 1.032556
691.20 1.03244
691.30 1.032325
691.40 1.032209
691.50 1.032093
691.60 1.031978
691.70 1.031862
691.80 1.031747
691.90 1.031631
692.00 1.031515
692.10 1.0314
692.20 1.031285
692.30 1.031169
692.40 1.031054
692.50 1.030938
692.60 1.030823
692.70 1.030706
692.80 1.030581
692.90 1.030457
693.00 1.030333
693.10 1.030209
693.20 1.030084
693.30 1.02996
693.40 1.029836
693.50 1.029712
693.60 1.029588
693.70 1.029464
693.80 1.02934
693.90 1.029216
694.00 1.029092
694.10 1.028968
694.20 1.028844
694.30 1.02872
694.40 1.028596
694.50 1.028472
694.60 1.028349
694.70 1.028225
694.80 1.028101
694.90 1.027977
695.00 1.027854
695.10 1.02773
695.20 1.027606
695.30 1.027483
695.40 1.027359
695.50 1.027236
695.60 1.027112
695.70 1.026989
695.80 1.026865
695.90 1.026742
696.00 1.026619
696.10 1.026495
696.20 1.026372
696.30 1.026249
696.40 1.026125
696.50 1.026002
696.60 1.025876
696.70 1.025749
696.80 1.025622
696.90 1.025495
697.00 1.025368
697.10 1.025241
697.20 1.025114
697.30 1.024987
697.40 1.02486
697.50 1.024733
697.60 1.024606
697.70 1.02448
697.80 1.024353
697.90 1.024226
698.00 1.0241
698.10 1.023973
698.20 1.023846
698.30 1.02372
698.40 1.023593
698.50 1.023467
698.60 1.02334
698.70 1.023214
698.80 1.023087
698.90 1.022961
699.00 1.022835
699.10 1.022711
699.20 1.022587
699.30 1.022463
699.40 1.02234
699.50 1.022216
699.60 1.022092
699.70 1.021968
699.80 1.021844
699.90 1.021719
700.00 1.021595
700.10 1.021471
700.20 1.021346
700.30 1.021222
700.40 1.021098
700.50 1.020974
700.60 1.02085
700.70 1.020725
700.80 1.020601
700.90 1.020477
701.00 1.020353
701.10 1.020232
701.20 1.020112
701.30 1.019991
701.40 1.019871
701.50 1.01975
701.60 1.01963
701.70 1.01951
701.80 1.019389
701.90 1.019269
702.00 1.019149
702.10 1.019029
702.20 1.018909
702.30 1.018788
702.40 1.018668
702.50 1.018548
702.60 1.018419
702.70 1.018289
702.80 1.018158
702.90 1.018028
703.00 1.017897
703.10 1.017767
703.20 1.017636
703.30 1.017506
703.40 1.017375
703.50 1.017245
703.60 1.017114
703.70 1.016984
703.80 1.016854
703.90 1.016724
704.00 1.016593
704.10 1.016463
704.20 1.016331
704.30 1.016198
704.40 1.016066
704.50 1.015933
704.60 1.015801
704.70 1.015669
704.80 1.015536
704.90 1.015404
705.00 1.015271
705.10 1.015139
705.20 1.015012
705.30 1.014886
705.40 1.014761
705.50 1.014635
705.60 1.014509
705.70 1.014384
705.80 1.014245
705.90 1.014103
706.00 1.013962
706.10 1.01382
706.20 1.013718
706.30 1.013625
706.40 1.013568
706.50 1.013332
706.60 1.013193
706.70 1.013095
706.80 1.012966
706.90 1.012873
707.00 1.01274
707.10 1.012599
707.20 1.012458
707.30 1.012317
707.40 1.012189
707.50 1.012063
707.60 1.011938
707.70 1.011813
707.80 1.011688
707.90 1.011564
708.00 1.011433
708.10 1.011302
708.20 1.011171
708.30 1.01104
708.40 1.010908
708.50 1.010777
708.60 1.010646
708.70 1.010515
708.80 1.010384
708.90 1.010253
709.00 1.010124
709.10 1.009995
709.20 1.009867
709.30 1.009738
709.40 1.00961
709.50 1.009481
709.60 1.009353
709.70 1.009225
709.80 1.009096
709.90 1.008968
710.00 1.00884
710.10 1.008712
710.20 1.008583
710.30 1.008455
710.40 1.008327
710.50 1.008199
710.60 1.008069
710.70 1.007938
710.80 1.007808
710.90 1.007678
711.00 1.007547
711.10 1.007417
711.20 1.007287
711.30 1.007157
711.40 1.007026
711.50 1.006896
711.60 1.006766
711.70 1.006636
711.80 1.006506
711.90 1.006376
712.00 1.006246
712.10 1.006114
712.20 1.005982
712.30 1.00585
712.40 1.005718
712.50 1.005586
712.60 1.005454
712.70 1.005322
712.80 1.00519
712.90 1.005059
713.00 1.004927
713.10 1.004795
713.20 1.004663
713.30 1.004532
713.40 1.0044
713.50 1.004268
713.60 1.004137
713.70 1.004009
713.80 1.00389
713.90 1.00377
714.00 1.003651
714.10 1.003517
714.20 1.00338
714.30 1.003244
714.40 1.003107
714.50 1.00297
714.60 1.002833
714.70 1.002697
714.80 1.00256
714.90 1.002424
715.00 1.002287
715.10 1.00215
715.20 1.002014
715.30 1.001878
715.40 1.001741
715.50 1.001605
715.60 1.001468
715.70 1.001332
715.80 1.001196
715.90 1.00106
716.00 1.000923
716.10 1.000787
716.20 1.000651
716.30 1.000515
716.40 1.000379
716.50 1.000243
716.60 1.000104
716.70 0.9999652
716.80 0.9998261
716.90 0.9996869
717.00 0.9995478
717.10 0.9994088
717.20 0.9992698
717.30 0.9991308
717.40 0.9989919
717.50 0.998853
717.60 0.9987141
717.70 0.9985753
717.80 0.9984365
717.90 0.9982977
718.00 0.998159
718.10 0.9980204
718.20 0.9978839
718.30 0.9977485
718.40 0.9976132
718.50 0.997478
718.60 0.9973428
718.70 0.9972076
718.80 0.9970725
718.90 0.9969374
719.00 0.9968023
719.10 0.9966673
719.20 0.9965323
719.30 0.9963973
719.40 0.9962624
719.50 0.9961275
719.60 0.9959926
719.70 0.9958578
719.80 0.9957231
719.90 0.9955883
720.00 0.9954536
720.10 0.9953189
720.20 0.9951843
720.30 0.9950497
720.40 0.9949152
720.50 0.9947806
720.60 0.9946462
720.70 0.994563
720.80 0.9945074
720.90 0.9943672
721.00 0.9942235
721.10 0.9940799
721.20 0.9939363
721.30 0.9937927
721.40 0.9936492
721.50 0.9935057
721.60 0.9933623
721.70 0.9932189
721.80 0.9930756
721.90 0.9929322
722.00 0.992789
722.10 0.9926458
722.20 0.9925026
722.30 0.9923594
722.40 0.9922163
722.50 0.9920733
722.60 0.9919302
722.70 0.9917981
722.80 0.9916718
722.90 0.9915456
723.00 0.9914194
723.10 0.9912932
723.20 0.9911671
723.30 0.9910409
723.40 0.9909149
723.50 0.9907888
723.60 0.9906628
723.70 0.9905368
723.80 0.9904109
723.90 0.9902849
724.00 0.990159
724.10 0.9900332
724.20 0.9898939
724.30 0.9897473
724.40 0.9896008
724.50 0.9894544
724.60 0.989308
724.70 0.9891616
724.80 0.9890153
724.90 0.988869
725.00 0.9887228
725.10 0.9885766
725.20 0.9884304
725.30 0.9882843
725.40 0.9881383
725.50 0.9879922
725.60 0.9878463
725.70 0.9877003
725.80 0.9875679
725.90 0.9874427
726.00 0.9873175
726.10 0.9871924
726.20 0.9870673
726.30 0.9869422
726.40 0.9868171
726.50 0.9866921
726.60 0.9865672
726.70 0.9864422
726.80 0.9863014
726.90 0.9861521
727.00 0.9860029
727.10 0.9858537
727.20 0.9857045
727.30 0.9855554
727.40 0.9854162
727.50 0.9852824
727.60 0.9851487
727.70 0.985015
727.80 0.9848516
727.90 0.9846723
728.00 0.9845571
728.10 0.9843573
728.20 0.984258
728.30 0.9841701
728.40 0.9840184
728.50 0.9839306
728.60 0.9837835
728.70 0.9836046
728.80 0.9834258
728.90 0.983247
729.00 0.9831077
729.10 0.9829897
729.20 0.9828717
729.30 0.9827538
729.40 0.9826359
729.50 0.982518
729.60 0.9823844
729.70 0.9822423
729.80 0.9821003
729.90 0.9819583
730.00 0.9818164
730.10 0.9816745
730.20 0.9815327
730.30 0.9813908
730.40 0.9812491
730.50 0.9811073
730.60 0.9809642
730.70 0.9808203
730.80 0.9806764
730.90 0.9805326
731.00 0.9803888
731.10 0.980245
731.20 0.9801013
731.30 0.9799577
731.40 0.9798141
731.50 0.9796705
731.60 0.979527
731.70 0.9793835
731.80 0.97924
731.90 0.9790966
732.00 0.9789532
732.10 0.9788099
732.20 0.978672
732.30 0.978537
732.40 0.9784021
732.50 0.9782672
732.60 0.9781323
732.70 0.9779975
732.80 0.9778627
732.90 0.977728
733.00 0.9775933
733.10 0.9774586
733.20 0.9773239
733.30 0.9771893
733.40 0.9770548
733.50 0.9769202
733.60 0.9767857
733.70 0.9766432
733.80 0.9764963
733.90 0.9763494
734.00 0.9762026
734.10 0.9760558
734.20 0.9759091
734.30 0.9757624
734.40 0.9756158
734.50 0.9754692
734.60 0.9753227
734.70 0.9751762
734.80 0.9750297
734.90 0.9748833
735.00 0.9747369
735.10 0.9745906
735.20 0.9744443
735.30 0.9742969
735.40 0.9741362
735.50 0.9739756
735.60 0.9738151
735.70 0.9736705
735.80 0.9735345
735.90 0.9733986
736.00 0.9732627
736.10 0.9731268
736.20 0.972991
736.30 0.9728552
736.40 0.9727194
736.50 0.9725837
736.60 0.972448
736.70 0.9723124
736.80 0.9721768
736.90 0.9720412
737.00 0.9719057
737.10 0.9717702
737.20 0.9716348
737.30 0.9714993
737.40 0.971364
737.50 0.9712286
737.60 0.9710933
737.70 0.9709581
737.80 0.9708228
737.90 0.9706877
738.00 0.9705525
738.10 0.9704174
738.20 0.970276
738.30 0.9701312
738.40 0.9699865
738.50 0.9698418
738.60 0.9696972
738.70 0.9695526
738.80 0.969408
738.90 0.9692635
739.00 0.9691191
739.10 0.9689746
739.20 0.9688303
739.30 0.9686859
739.40 0.9685416
739.50 0.9683974
739.60 0.9682532
739.70 0.968109
739.80 0.9679649
739.90 0.9678208
740.00 0.9676768
740.10 0.9675328
740.20 0.9673888
740.30 0.9672449
740.40 0.967101
740.50 0.9669572
740.60 0.9668134
740.70 0.9666697
740.80 0.966526
740.90 0.9663823
741.00 0.9662387
741.10 0.9660951
741.20 0.9659516
741.30 0.9658081
741.40 0.9656647
741.50 0.9655213
741.60 0.9653779
741.70 0.9652346
741.80 0.9650913
741.90 0.9649481
742.00 0.9648049
742.10 0.9646617
742.20 0.9645186
742.30 0.9643756
742.40 0.9642325
742.50 0.9640896
742.60 0.9639466
742.70 0.9637955
742.80 0.9636376
742.90 0.9634799
743.00 0.9633221
743.10 0.9631644
743.20 0.9630068
743.30 0.9628492
743.40 0.9626916
743.50 0.9625342
743.60 0.9623767
743.70 0.9622215
743.80 0.9620749
743.90 0.9619284
744.00 0.961782
744.10 0.9616355
744.20 0.9614892
744.30 0.9613428
744.40 0.9611966
744.50 0.9610503
744.60 0.9609041
744.70 0.960758
744.80 0.9606119
744.90 0.9604658
745.00 0.9603198
745.10 0.9601738
745.20 0.9600279
745.30 0.959882
745.40 0.9597361
745.50 0.9595903
745.60 0.9594445
745.70 0.9592988
745.80 0.9591532
745.90 0.9590075
746.00 0.9588619
746.10 0.9587164
746.20 0.9585709
746.30 0.9584254
746.40 0.95828
746.50 0.9581347
746.60 0.9579893
746.70 0.9578441
746.80 0.9576988
746.90 0.9575536
747.00 0.9574085
747.10 0.9572634
747.20 0.9571183
747.30 0.9569733
747.40 0.9568283
747.50 0.9566834
747.60 0.9565385
747.70 0.9563936
747.80 0.9562488
747.90 0.9561041
748.00 0.9559594
748.10 0.9558147
748.20 0.95567
748.30 0.9555255
748.40 0.9553809
748.50 0.9552364
748.60 0.955092
748.70 0.9549475
748.80 0.9548032
748.90 0.9546588
749.00 0.9545145
749.10 0.9543703
749.20 0.9542261
749.30 0.9540819
749.40 0.9539378
749.50 0.9537938
749.60 0.9536497
749.70 0.9535057
749.80 0.9533618
749.90 0.9532179
750.00 0.953074
750.10 0.9529302
750.20 0.9527861
750.30 0.9526422
750.40 0.9524982
750.50 0.9523544
750.60 0.9522105
750.70 0.9520667
750.80 0.9519229
750.90 0.9517792
751.00 0.9516356
751.10 0.9514919
751.20 0.9513483
751.30 0.9512048
751.40 0.9510613
751.50 0.9509178
751.60 0.9507744
751.70 0.950631
751.80 0.9504877
751.90 0.9503444
752.00 0.9502012
752.10 0.950058
752.20 0.9499148
752.30 0.9497717
752.40 0.9496286
752.50 0.9494856
752.60 0.9493426
752.70 0.9491996
752.80 0.9490567
752.90 0.9489139
753.00 0.948771
753.10 0.9486282
753.20 0.9484855
753.30 0.9483428
753.40 0.9482002
753.50 0.9480576
753.60 0.947915
753.70 0.9477725
753.80 0.94763
753.90 0.9474805
754.00 0.947329
754.10 0.9471776
754.20 0.9470262
754.30 0.9468748
754.40 0.9467236
754.50 0.9465723
754.60 0.9464211
754.70 0.94627
754.80 0.9461189
754.90 0.9459678
755.00 0.9458168
755.10 0.9456659
755.20 0.945515
755.30 0.9453641
755.40 0.9452133
755.50 0.9450625
755.60 0.9449118
755.70 0.9447611
755.80 0.9446105
755.90 0.9444599
756.00 0.9443094
756.10 0.9441589
756.20 0.9440084
756.30 0.943858
756.40 0.9437077
756.50 0.9435574
756.60 0.9434071
756.70 0.9432569
756.80 0.9431067
756.90 0.9429566
757.00 0.9428066
757.10 0.9426565
757.20 0.9425066
757.30 0.9423566
757.40 0.9422067
757.50 0.9420569
757.60 0.9419081
757.70 0.9417618
757.80 0.9416155
757.90 0.9414693
758.00 0.9413232
758.10 0.9411771
758.20 0.941031
758.30 0.940885
758.40 0.940739
758.50 0.940593
758.60 0.9404472
758.70 0.9403013
758.80 0.9401555
758.90 0.9400097
759.00 0.939864
759.10 0.9397184
759.20 0.9395727
759.30 0.9394272
759.40 0.9392816
759.50 0.9391361
759.60 0.9389907
759.70 0.9388453
759.80 0.9386999
759.90 0.9385546
760.00 0.9384093
760.10 0.9382641
760.20 0.9381189
760.30 0.9379737
760.40 0.9378286
760.50 0.9376836
760.60 0.9375386
760.70 0.9373936
760.80 0.9372487
760.90 0.9371038
761.00 0.936959
761.10 0.9368142
761.20 0.9366694
761.30 0.9365247
761.40 0.9363783
761.50 0.9362293
761.60 0.9360803
761.70 0.9359314
761.80 0.9357825
761.90 0.9356337
762.00 0.9354849
762.10 0.9353361
762.20 0.9351874
762.30 0.9350388
762.40 0.9348902
762.50 0.9347416
762.60 0.9345931
762.70 0.9344446
762.80 0.9342962
762.90 0.9341478
763.00 0.9339995
763.10 0.9338512
763.20 0.9337029
763.30 0.9335548
763.40 0.9334066
763.50 0.9332585
763.60 0.9331104
763.70 0.9329624
763.80 0.9328145
763.90 0.9326665
764.00 0.9325187
764.10 0.9323708
764.20 0.932223
764.30 0.9320753
764.40 0.9319276
764.50 0.9317799
764.60 0.9316323
764.70 0.9314848
764.80 0.9313373
764.90 0.9311898
765.00 0.9310424
765.10 0.930895
765.20 0.9307449
765.30 0.9305924
765.40 0.9304398
765.50 0.9302874
765.60 0.930135
765.70 0.9299826
765.80 0.9298303
765.90 0.929678
766.00 0.9295258
766.10 0.9293736
766.20 0.9292215
766.30 0.9290694
766.40 0.9289174
766.50 0.9287654
766.60 0.9286135
766.70 0.9284616
766.80 0.9283097
766.90 0.9281579
767.00 0.9280062
767.10 0.9278545
767.20 0.9277028
767.30 0.9275512
767.40 0.9273997
767.50 0.9272482
767.60 0.9270967
767.70 0.9269453
767.80 0.9267939
767.90 0.9266426
768.00 0.9264914
768.10 0.9263401
768.20 0.926189
768.30 0.9260378
768.40 0.9258867
768.50 0.9257357
768.60 0.9255847
768.70 0.9254338
768.80 0.9252829
768.90 0.925132
769.00 0.9249812
769.10 0.9248305
769.20 0.9246798
769.30 0.9245291
769.40 0.9243785
769.50 0.924228
769.60 0.9240774
769.70 0.923927
769.80 0.9237766
769.90 0.9236262
770.00 0.9234758
770.10 0.9233256
770.20 0.9231753
770.30 0.9230251
770.40 0.922875
770.50 0.9227249
770.60 0.9225749
770.70 0.9224249
770.80 0.9222749
770.90 0.922125
771.00 0.9219751
771.10 0.9218253
771.20 0.9216756
771.30 0.9215259
771.40 0.9213762
771.50 0.9212266
771.60 0.921077
771.70 0.9209274
771.80 0.920778
771.90 0.9206285
772.00 0.9204791
772.10 0.9203298
772.20 0.9201805
772.30 0.9200312
772.40 0.919882
772.50 0.9197329
772.60 0.9195837
772.70 0.9194347
772.80 0.9192856
772.90 0.9191316
773.00 0.9189776
773.10 0.9188237
773.20 0.9186698
773.30 0.9185159
773.40 0.9183621
773.50 0.9182084
773.60 0.9180547
773.70 0.917901
773.80 0.9177474
773.90 0.9175939
774.00 0.9174404
774.10 0.9172869
774.20 0.9171335
774.30 0.9169802
774.40 0.9168269
774.50 0.9166736
774.60 0.9165204
774.70 0.9163672
774.80 0.9162141
774.90 0.916061
775.00 0.915908
775.10 0.915755
775.20 0.9156021
775.30 0.9154493
775.40 0.9152964
775.50 0.9151437
775.60 0.9149909
775.70 0.9148382
775.80 0.9146856
775.90 0.914533
776.00 0.9143805
776.10 0.914228
776.20 0.9140756
776.30 0.9139232
776.40 0.9137708
776.50 0.9136186
776.60 0.9134663
776.70 0.9133141
776.80 0.913162
776.90 0.9130099
777.00 0.9128578
777.10 0.9127058
777.20 0.9125538
777.30 0.9124019
777.40 0.9122501
777.50 0.9120983
777.60 0.9119465
777.70 0.9117948
777.80 0.9116431
777.90 0.9114915
778.00 0.9113399
778.10 0.9111884
778.20 0.9110369
778.30 0.9108855
778.40 0.9107341
778.50 0.9105828
778.60 0.9104315
778.70 0.9102802
778.80 0.910129
778.90 0.9099779
779.00 0.9098268
779.10 0.9096758
779.20 0.9095248
779.30 0.9093738
779.40 0.9092229
779.50 0.909072
779.60 0.9089212
779.70 0.9087705
779.80 0.9086197
779.90 0.9084691
780.00 0.9083185
780.10 0.9081679
780.20 0.9080174
780.30 0.9078669
780.40 0.9077164
780.50 0.9075661
780.60 0.9074159
780.70 0.907266
780.80 0.907116
780.90 0.9069661
781.00 0.9068163
781.10 0.9066665
781.20 0.9065168
781.30 0.9063671
781.40 0.9062174
781.50 0.9060678
781.60 0.9059182
781.70 0.9057687
781.80 0.9056193
781.90 0.9054698
782.00 0.9053205
782.10 0.9051712
782.20 0.9050219
782.30 0.9048726
782.40 0.9047235
782.50 0.9045743
782.60 0.9044252
782.70 0.9042762
782.80 0.9041272
782.90 0.9039782
783.00 0.9038293
783.10 0.9036805
783.20 0.9035317
783.30 0.9033829
783.40 0.9032342
783.50 0.9030855
783.60 0.9029369
783.70 0.9027883
783.80 0.9026398
783.90 0.9024913
784.00 0.9023428
784.10 0.9021945
784.20 0.9020461
784.30 0.9018978
784.40 0.9017496
784.50 0.9016013
784.60 0.9014512
784.70 0.9012967
784.80 0.9011421
784.90 0.9009876
785.00 0.9008332
785.10 0.9006788
785.20 0.9005244
785.30 0.9003702
785.40 0.9002159
785.50 0.9000617
785.60 0.8999076
785.70 0.8997535
785.80 0.8995994
785.90 0.8994454
786.00 0.8992915
786.10 0.8991376
786.20 0.8989837
786.30 0.8988299
786.40 0.8986762
786.50 0.8985225
786.60 0.8983688
786.70 0.8982152
786.80 0.8980617
786.90 0.8979082
787.00 0.8977547
787.10 0.8976013
787.20 0.897448
787.30 0.8972947
787.40 0.8971414
787.50 0.8969882
787.60 0.896835
787.70 0.8966819
787.80 0.8965288
787.90 0.8963758
788.00 0.8962229
788.10 0.8960699
788.20 0.8959171
788.30 0.8957643
788.40 0.8956119
788.50 0.8954597
788.60 0.8953076
788.70 0.8951555
788.80 0.8950035
788.90 0.8948516
789.00 0.8946997
789.10 0.8945478
789.20 0.894396
789.30 0.8942442
789.40 0.8940925
789.50 0.8939408
789.60 0.8937892
789.70 0.8936376
789.80 0.8934861
789.90 0.8933346
790.00 0.8931832
790.10 0.8930318
790.20 0.8928804
790.30 0.8927292
790.40 0.8925779
790.50 0.8924267
790.60 0.8922756
790.70 0.8921245
790.80 0.8919734
790.90 0.8918224
791.00 0.8916715
791.10 0.8915206
791.20 0.8913697
791.30 0.8912189
791.40 0.8910681
791.50 0.8909174
791.60 0.8907668
791.70 0.8906162
791.80 0.8904656
791.90 0.8903151
792.00 0.8901646
792.10 0.8900142
792.20 0.8898638
792.30 0.8897125
792.40 0.8895583
792.50 0.8894042
792.60 0.8892501
792.70 0.8890961
792.80 0.8889421
792.90 0.8887882
793.00 0.8886343
793.10 0.8884804
793.20 0.8883267
793.30 0.8881729
793.40 0.8880192
793.50 0.8878656
793.60 0.887712
793.70 0.8875585
793.80 0.887405
793.90 0.8872516
794.00 0.8870982
794.10 0.8869449
794.20 0.8867916
794.30 0.8866383
794.40 0.8864851
794.50 0.886332
794.60 0.8861789
794.70 0.8860259
794.80 0.8858729
794.90 0.8857199
795.00 0.885567
795.10 0.8854142
795.20 0.8852614
795.30 0.8851086
795.40 0.8849559
795.50 0.8848033
795.60 0.8846507
795.70 0.8844981
795.80 0.8843456
795.90 0.8841931
796.00 0.8840407
796.10 0.8838884
796.20 0.8837361
796.30 0.8835816
796.40 0.8834268
796.50 0.883272
796.60 0.8831173
796.70 0.8829626
796.80 0.882808
796.90 0.8826534
797.00 0.8824988
797.10 0.8823444
797.20 0.8821899
797.30 0.8820356
797.40 0.8818812
797.50 0.8817269
797.60 0.8815727
797.70 0.8814185
797.80 0.8812644
797.90 0.8811103
798.00 0.8809563
798.10 0.8808023
798.20 0.8806484
798.30 0.8804945
798.40 0.8803406
798.50 0.8801868
798.60 0.8800331
798.70 0.8798794
798.80 0.8797258
798.90 0.8795722
799.00 0.8794187
799.10 0.8792652
799.20 0.8791117
799.30 0.8789583
799.40 0.878805
799.50 0.8786517
799.60 0.8784984
799.70 0.8783453
799.80 0.8781921
799.90 0.878039
800.00 0.877886
800.10 0.877733
800.20 0.87758
800.30 0.8774271
800.40 0.8772743
800.50 0.8771215
800.60 0.8769687
800.70 0.876816
800.80 0.8766633
800.90 0.8765107
801.00 0.8763582
801.10 0.8762057
801.20 0.8760532
801.30 0.8759008
801.40 0.8757484
801.50 0.8755961
801.60 0.8754439
801.70 0.8752916
801.80 0.8751395
801.90 0.8749874
802.00 0.8748353
802.10 0.8746833
802.20 0.8745313
802.30 0.8743794
802.40 0.8742275
802.50 0.8740757
802.60 0.8739239
802.70 0.8737722
802.80 0.8736205
802.90 0.8734688
803.00 0.8733173
803.10 0.8731657
803.20 0.8730142
803.30 0.8728628
803.40 0.8727114
803.50 0.8725601
803.60 0.8724088
803.70 0.8722575
803.80 0.8721063
803.90 0.8719552
804.00 0.8718041
804.10 0.871653
804.20 0.8715006
804.30 0.8713434
804.40 0.8711863
804.50 0.8710292
804.60 0.8708722
804.70 0.8707152
804.80 0.8705583
804.90 0.8704014
805.00 0.8702446
805.10 0.8700878
805.20 0.869931
805.30 0.8697744
805.40 0.8696177
805.50 0.8694612
805.60 0.8693046
805.70 0.8691482
805.80 0.8689917
805.90 0.8688354
806.00 0.868679
806.10 0.8685228
806.20 0.8683665
806.30 0.8682104
806.40 0.8680543
806.50 0.8678982
806.60 0.8677422
806.70 0.8675862
806.80 0.8674303
806.90 0.8672744
807.00 0.8671186
807.10 0.8669628
807.20 0.8668071
807.30 0.8666515
807.40 0.8664959
807.50 0.8663403
807.60 0.8661848
807.70 0.8660293
807.80 0.8658739
807.90 0.8657185
808.00 0.8655632
808.10 0.865408
808.20 0.8652528
808.30 0.8651013
808.40 0.8649499
808.50 0.8647985
808.60 0.8646472
808.70 0.8644959
808.80 0.8643447
808.90 0.8641935
809.00 0.8640423
809.10 0.8638913
809.20 0.8637402
809.30 0.8635892
809.40 0.8634383
809.50 0.8632874
809.60 0.8631365
809.70 0.8629857
809.80 0.862835
809.90 0.8626843
810.00 0.8625336
810.10 0.862383
810.20 0.8622325
810.30 0.8620819
810.40 0.8619315
810.50 0.8617811
810.60 0.8616307
810.70 0.8614804
810.80 0.8613301
810.90 0.8611799
811.00 0.8610297
811.10 0.8608796
811.20 0.8607295
811.30 0.8605795
811.40 0.8604295
811.50 0.8602795
811.60 0.8601297
811.70 0.8599798
811.80 0.85983
811.90 0.8596803
812.00 0.8595306
812.10 0.8593809
812.20 0.8592313
812.30 0.8590773
812.40 0.8589222
812.50 0.8587671
812.60 0.8586121
812.70 0.8584572
812.80 0.8583023
812.90 0.8581474
813.00 0.8579926
813.10 0.8578379
813.20 0.8576832
813.30 0.8575285
813.40 0.8573739
813.50 0.8572194
813.60 0.8570649
813.70 0.8569105
813.80 0.8567561
813.90 0.8566017
814.00 0.8564474
814.10 0.8562932
814.20 0.856139
814.30 0.8559848
814.40 0.8558307
814.50 0.8556767
814.60 0.8555227
814.70 0.8553687
814.80 0.8552148
814.90 0.855061
815.00 0.8549072
815.10 0.8547534
815.20 0.8545997
815.30 0.8544461
815.40 0.8542925
815.50 0.8541389
815.60 0.8539854
815.70 0.853832
815.80 0.8536786
815.90 0.8535252
816.00 0.8533719
816.10 0.8532186
816.20 0.8530654
816.30 0.8529123
816.40 0.8527592
816.50 0.8526061
816.60 0.8524531
816.70 0.8523002
816.80 0.8521473
816.90 0.8519944
817.00 0.8518416
817.10 0.8516888
817.20 0.8515361
817.30 0.8513835
817.40 0.8512308
817.50 0.8510783
817.60 0.8509258
817.70 0.8507733
817.80 0.8506209
817.90 0.8504685
818.00 0.8503162
818.10 0.8501639
818.20 0.8500117
818.30 0.8498595
818.40 0.8497074
818.50 0.8495553
818.60 0.8494033
818.70 0.8492513
818.80 0.8490994
818.90 0.8489475
819.00 0.8487957
819.10 0.8486439
819.20 0.8484922
819.30 0.8483378
819.40 0.8481815
819.50 0.8480253
819.60 0.8478691
819.70 0.847713
819.80 0.847557
819.90 0.847401
820.00 0.847245
820.10 0.8470846
820.20 0.8469334
820.30 0.8467892
820.40 0.8466386
820.50 0.8464834
820.60 0.8463282
820.70 0.8461732
820.80 0.8460181
820.90 0.8458631
821.00 0.8457082
821.10 0.8455533
821.20 0.8453985
821.30 0.8452437
821.40 0.8450889
821.50 0.8449342
821.60 0.8447796
821.70 0.844625
821.80 0.8444705
821.90 0.844316
822.00 0.8441615
822.10 0.8440072
822.20 0.8438528
822.30 0.8436985
822.40 0.8435443
822.50 0.8433901
822.60 0.843236
822.70 0.8430819
822.80 0.8429278
822.90 0.8427738
823.00 0.8426199
823.10 0.842466
823.20 0.8423122
823.30 0.8421584
823.40 0.8420047
823.50 0.841851
823.60 0.8416973
823.70 0.8415437
823.80 0.8413902
823.90 0.8412367
824.00 0.8410833
824.10 0.8409299
824.20 0.8407765
824.30 0.8406233
824.40 0.84047
824.50 0.8403168
824.60 0.8401637
824.70 0.8400106
824.80 0.8398575
824.90 0.8397045
825.00 0.8395516
825.10 0.8393987
825.20 0.8392459
825.30 0.8390931
825.40 0.8389403
825.50 0.8387876
825.60 0.838635
825.70 0.8384824
825.80 0.8383298
825.90 0.8381773
826.00 0.8380249
826.10 0.8378725
826.20 0.8377201
826.30 0.8375671
826.40 0.8374135
826.50 0.83726
826.60 0.8371066
826.70 0.8369532
826.80 0.8367998
826.90 0.8366465
827.00 0.8364933
827.10 0.8363401
827.20 0.8361869
827.30 0.8360338
827.40 0.8358808
827.50 0.8357278
827.60 0.8355748
827.70 0.8354219
827.80 0.8352691
827.90 0.8351163
828.00 0.8349635
828.10 0.8348108
828.20 0.8346582
828.30 0.8345056
828.40 0.834353
828.50 0.8342005
828.60 0.8340474
828.70 0.8338937
828.80 0.8337401
828.90 0.8335865
829.00 0.833433
829.10 0.8332795
829.20 0.8331261
829.30 0.8329727
829.40 0.8328194
829.50 0.8326661
829.60 0.8325129
829.70 0.8323597
829.80 0.8322066
829.90 0.8320535
830.00 0.8319005
830.10 0.8317475
830.20 0.8315946
830.30 0.8314417
830.40 0.8312889
830.50 0.8311361
830.60 0.8309834
830.70 0.8308307
830.80 0.8306781
830.90 0.8305255
831.00 0.830373
831.10 0.8302205
831.20 0.8300681
831.30 0.8299157
831.40 0.8297634
831.50 0.8296111
831.60 0.8294589
831.70 0.8293067
831.80 0.8291546
831.90 0.8290025
832.00 0.8288504
832.10 0.8286985
832.20 0.8285465
832.30 0.8283946
832.40 0.8282428
832.50 0.828091
832.60 0.8279393
832.70 0.8277876
832.80 0.8276359
832.90 0.8274843
833.00 0.8273328
833.10 0.8271813
833.20 0.8270299
833.30 0.8268785
833.40 0.8267271
833.50 0.8265758
833.60 0.8264246
833.70 0.8262733
833.80 0.8261222
833.90 0.8259711
834.00 0.82582
834.10 0.825669
834.20 0.8255181
834.30 0.8253672
834.40 0.8252163
834.50 0.8250655
834.60 0.8249147
834.70 0.824764
834.80 0.8246133
834.90 0.8244627
835.00 0.8243121
835.10 0.8241616
835.20 0.8240111
835.30 0.8238607
835.40 0.8237103
835.50 0.82356
835.60 0.8234097
835.70 0.8232595
835.80 0.8231093
835.90 0.8229592
836.00 0.8228091
836.10 0.8226591
836.20 0.8225091
836.30 0.8223591
836.40 0.8222092
836.50 0.8220594
836.60 0.8219096
836.70 0.8217598
836.80 0.8216101
836.90 0.8214579
837.00 0.8213045
837.10 0.8211512
837.20 0.8209979
837.30 0.8208447
837.40 0.8206915
837.50 0.8205384
837.60 0.8203853
837.70 0.8202323
837.80 0.8200794
837.90 0.8199264
838.00 0.8197736
838.10 0.8196207
838.20 0.819468
838.30 0.8193152
838.40 0.8191626
838.50 0.81901
838.60 0.8188574
838.70 0.8187049
838.80 0.8185524
838.90 0.8184
839.00 0.8182476
839.10 0.8180953
839.20 0.817943
839.30 0.8177907
839.40 0.8176386
839.50 0.8174864
839.60 0.8173344
839.70 0.8171823
839.80 0.8170303
839.90 0.8168784
840.00 0.8167265
840.10 0.8165747
840.20 0.8164229
840.30 0.8162712
840.40 0.8161195
840.50 0.8159679
840.60 0.8158163
840.70 0.8156647
840.80 0.8155132
840.90 0.8153618
841.00 0.8152104
841.10 0.8150563
841.20 0.8149017
841.30 0.8147472
841.40 0.8145927
841.50 0.8144383
841.60 0.8142839
841.70 0.8141296
841.80 0.8139753
841.90 0.8138211
842.00 0.8136669
842.10 0.8135128
842.20 0.8133588
842.30 0.8132047
842.40 0.8130508
842.50 0.8128969
842.60 0.812743
842.70 0.8125892
842.80 0.8124354
842.90 0.8122817
843.00 0.812128
843.10 0.8119744
843.20 0.8118208
843.30 0.8116673
843.40 0.8115139
843.50 0.8113605
843.60 0.8112071
843.70 0.8110538
843.80 0.8109005
843.90 0.8107473
844.00 0.8105941
844.10 0.810441
844.20 0.8102879
844.30 0.8101349
844.40 0.8099819
844.50 0.809829
844.60 0.8096762
844.70 0.8095233
844.80 0.8093706
844.90 0.8092179
845.00 0.8090652
845.10 0.8089126
845.20 0.80876
845.30 0.8086071
845.40 0.8084543
845.50 0.8083015
845.60 0.8081487
845.70 0.807996
845.80 0.8078434
845.90 0.8076908
846.00 0.8075382
846.10 0.8073857
846.20 0.8072333
846.30 0.8070809
846.40 0.8069285
846.50 0.8067762
846.60 0.8066239
846.70 0.8064717
846.80 0.8063196
846.90 0.8061675
847.00 0.8060154
847.10 0.8058634
847.20 0.8057115
847.30 0.8055596
847.40 0.8054077
847.50 0.8052559
847.60 0.8051041
847.70 0.8049524
847.80 0.8048008
847.90 0.8046491
848.00 0.8044976
848.10 0.8043461
848.20 0.8041946
848.30 0.8040432
848.40 0.8038918
848.50 0.8037405
848.60 0.8035892
848.70 0.803438
848.80 0.8032868
848.90 0.8031357
849.00 0.8029847
849.10 0.8028336
849.20 0.8026827
849.30 0.8025317
849.40 0.8023808
849.50 0.80223
849.60 0.8020792
849.70 0.8019285
849.80 0.8017778
849.90 0.8016272
850.00 0.8014766
850.10 0.8013261
850.20 0.8011756
850.30 0.8010251
850.40 0.8008747
850.50 0.8007244
850.60 0.8005741
850.70 0.8004239
850.80 0.8002737
850.90 0.8001235
851.00 0.7999734
851.10 0.7998234
851.20 0.7996734
851.30 0.7995234
851.40 0.7993735
851.50 0.7992237
851.60 0.7990738
851.70 0.7989241
851.80 0.7987744
851.90 0.7986247
852.00 0.7984751
852.10 0.7983255
852.20 0.798176
852.30 0.7980265
852.40 0.7978771
852.50 0.7977277
852.60 0.7975784
852.70 0.7974291
852.80 0.7972799
852.90 0.7971307
853.00 0.7969816
853.10 0.7968325
853.20 0.7966835
853.30 0.7965345
853.40 0.7963855
853.50 0.7962366
853.60 0.7960878
853.70 0.7959373
853.80 0.7957851
853.90 0.7956329
854.00 0.7954808
854.10 0.7953287
854.20 0.7951766
854.30 0.7950247
854.40 0.7948727
854.50 0.7947208
854.60 0.794569
854.70 0.7944172
854.80 0.7942655
854.90 0.7941138
855.00 0.7939622
855.10 0.7938106
855.20 0.793659
855.30 0.7935075
855.40 0.7933561
855.50 0.7932047
855.60 0.7930534
855.70 0.7929021
855.80 0.7927508
855.90 0.7925996
856.00 0.7924485
856.10 0.7922974
856.20 0.7921463
856.30 0.7919953
856.40 0.7918444
856.50 0.7916935
856.60 0.7915426
856.70 0.7913918
856.80 0.791241
856.90 0.7910903
857.00 0.7909397
857.10 0.7907891
857.20 0.7906385
857.30 0.790488
857.40 0.7903375
857.50 0.7901871
857.60 0.7900368
857.70 0.7898864
857.80 0.7897362
857.90 0.7895859
858.00 0.7894358
858.10 0.7892856
858.20 0.7891356
858.30 0.7889855
858.40 0.7888356
858.50 0.7886856
858.60 0.7885358
858.70 0.7883859
858.80 0.7882361
858.90 0.7880864
859.00 0.7879367
859.10 0.7877871
859.20 0.7876375
859.30 0.7874879
859.40 0.7873385
859.50 0.787189
859.60 0.7870396
859.70 0.7868903
859.80 0.786741
859.90 0.7865917
860.00 0.7864425
860.10 0.7862933
860.20 0.7861442
860.30 0.7859952
860.40 0.7858462
860.50 0.7856972
860.60 0.7855483
860.70 0.7853994
860.80 0.7852506
860.90 0.7851018
861.00 0.7849531
861.10 0.7848044
861.20 0.7846558
861.30 0.7845072
861.40 0.7843587
861.50 0.7842102
861.60 0.7840617
861.70 0.7839134
861.80 0.783765
861.90 0.7836167
862.00 0.7834685
862.10 0.7833203
862.20 0.7831717
862.30 0.7830203
862.40 0.7828689
862.50 0.7827175
862.60 0.7825662
862.70 0.7824149
862.80 0.7822637
862.90 0.7821126
863.00 0.7819614
863.10 0.7818104
863.20 0.7816594
863.30 0.7815084
863.40 0.7813575
863.50 0.7812066
863.60 0.7810558
863.70 0.780905
863.80 0.7807543
863.90 0.7806036
864.00 0.780453
864.10 0.7803024
864.20 0.7801519
864.30 0.7800014
864.40 0.779851
864.50 0.7797006
864.60 0.7795503
864.70 0.7794
864.80 0.7792498
864.90 0.7790996
865.00 0.7789495
865.10 0.7787994
865.20 0.7786493
865.30 0.7784993
865.40 0.7783494
865.50 0.7781995
865.60 0.7780497
865.70 0.7778999
865.80 0.7777501
865.90 0.7776004
866.00 0.7774508
866.10 0.7773012
866.20 0.7771516
866.30 0.7770021
866.40 0.7768526
866.50 0.7767032
866.60 0.7765539
866.70 0.7764046
866.80 0.7762553
866.90 0.7761061
867.00 0.7759569
867.10 0.7758078
867.20 0.7756587
867.30 0.7755097
867.40 0.7753607
867.50 0.7752118
867.60 0.7750629
867.70 0.7749141
867.80 0.7747653
867.90 0.7746166
868.00 0.7744679
868.10 0.7743192
868.20 0.7741706
868.30 0.7740221
868.40 0.7738736
868.50 0.7737252
868.60 0.7735768
868.70 0.7734284
868.80 0.7732801
868.90 0.7731318
869.00 0.7729836
869.10 0.7728355
869.20 0.7726874
869.30 0.7725393
869.40 0.7723913
869.50 0.7722433
869.60 0.7720954
869.70 0.7719475
869.80 0.7717997
869.90 0.7716519
870.00 0.7715042
870.10 0.7713565
870.20 0.7712088
870.30 0.7710613
870.40 0.7709137
870.50 0.7707662
870.60 0.7706188
870.70 0.7704714
870.80 0.770324
870.90 0.7701738
871.00 0.7700233
871.10 0.7698729
871.20 0.7697225
871.30 0.7695722
871.40 0.7694219
871.50 0.7692717
871.60 0.7691215
871.70 0.7689714
871.80 0.7688213
871.90 0.7686712
872.00 0.7685212
872.10 0.7683713
872.20 0.7682214
872.30 0.7680715
872.40 0.7679217
872.50 0.767772
872.60 0.7676223
872.70 0.7674726
872.80 0.767323
872.90 0.7671735
873.00 0.767024
873.10 0.7668745
873.20 0.7667251
873.30 0.7665758
873.40 0.7664264
873.50 0.7662772
873.60 0.766128
873.70 0.7659788
873.80 0.7658297
873.90 0.7656806
874.00 0.7655316
874.10 0.7653826
874.20 0.7652337
874.30 0.7650848
874.40 0.764936
874.50 0.7647872
874.60 0.7646384
874.70 0.7644897
874.80 0.7643411
874.90 0.7641925
875.00 0.764044
875.10 0.7638955
875.20 0.763747
875.30 0.7635986
875.40 0.7634503
875.50 0.763302
875.60 0.7631537
875.70 0.7630055
875.80 0.7628573
875.90 0.7627092
876.00 0.7625612
876.10 0.7624132
876.20 0.7622652
876.30 0.7621173
876.40 0.7619694
876.50 0.7618216
876.60 0.7616738
876.70 0.7615261
876.80 0.7613784
876.90 0.7612307
877.00 0.7610831
877.10 0.7609356
877.20 0.7607881
877.30 0.7606407
877.40 0.7604933
877.50 0.7603459
877.60 0.7601986
877.70 0.7600513
877.80 0.7599041
877.90 0.759757
878.00 0.7596099
878.10 0.7594628
878.20 0.7593158
878.30 0.7591688
878.40 0.7590219
878.50 0.758875
878.60 0.7587282
878.70 0.7585814
878.80 0.7584346
878.90 0.758288
879.00 0.7581413
879.10 0.7579947
879.20 0.7578482
879.30 0.7577017
879.40 0.7575552
879.50 0.7574088
879.60 0.7572599
879.70 0.7571105
879.80 0.7569611
879.90 0.7568118
880.00 0.7566625
880.10 0.7565133
880.20 0.7563641
880.30 0.756215
880.40 0.7560659
880.50 0.7559169
880.60 0.7557679
880.70 0.755619
880.80 0.7554701
880.90 0.7553213
881.00 0.7551725
881.10 0.7550238
881.20 0.7548751
881.30 0.7547264
881.40 0.7545778
881.50 0.7544293
881.60 0.7542808
881.70 0.7541323
881.80 0.7539839
881.90 0.7538356
882.00 0.7536873
882.10 0.753539
882.20 0.7533908
882.30 0.7532426
882.40 0.7530945
882.50 0.7529465
882.60 0.7527984
882.70 0.7526505
882.80 0.7525025
882.90 0.7523547
883.00 0.7522068
883.10 0.7520591
883.20 0.7519113
883.30 0.7517636
883.40 0.751616
883.50 0.7514684
883.60 0.7513209
883.70 0.7511734
883.80 0.7510259
883.90 0.7508785
884.00 0.7507312
884.10 0.7505839
884.20 0.7504366
884.30 0.7502894
884.40 0.7501423
884.50 0.7499951
884.60 0.7498481
884.70 0.7497011
884.80 0.7495541
884.90 0.7494072
885.00 0.7492603
885.10 0.7491135
885.20 0.7489667
885.30 0.74882
885.40 0.7486733
885.50 0.7485266
885.60 0.74838
885.70 0.7482335
885.80 0.748087
885.90 0.7479405
886.00 0.7477941
886.10 0.7476478
886.20 0.7475015
886.30 0.7473552
886.40 0.747209
886.50 0.7470628
886.60 0.7469167
886.70 0.7467706
886.80 0.7466246
886.90 0.7464786
887.00 0.7463327
887.10 0.7461868
887.20 0.746041
887.30 0.7458952
887.40 0.7457494
887.50 0.7456037
887.60 0.7454581
887.70 0.7453125
887.80 0.7451669
887.90 0.7450214
888.00 0.7448759
888.10 0.7447305
888.20 0.7445851
888.30 0.7444398
888.40 0.7442931
888.50 0.7441463
888.60 0.7439995
888.70 0.7438528
888.80 0.7437061
888.90 0.7435594
889.00 0.7434128
889.10 0.7432663
889.20 0.7431198
889.30 0.7429733
889.40 0.7428269
889.50 0.7426805
889.60 0.7425342
889.70 0.7423879
889.80 0.7422417
889.90 0.7420955
890.00 0.7419494
890.10 0.7418033
890.20 0.7416573
890.30 0.7415113
890.40 0.7413654
890.50 0.7412195
890.60 0.7410736
890.70 0.7409278
890.80 0.7407821
890.90 0.7406363
891.00 0.7404907
891.10 0.7403451
891.20 0.7401995
891.30 0.740054
891.40 0.7399085
891.50 0.7397631
891.60 0.7396177
891.70 0.7394724
891.80 0.7393271
891.90 0.7391818
892.00 0.7390366
892.10 0.7388915
892.20 0.7387464
892.30 0.7386013
892.40 0.7384563
892.50 0.7383114
892.60 0.7381664
892.70 0.7380216
892.80 0.7378768
892.90 0.737732
893.00 0.7375872
893.10 0.7374426
893.20 0.7372979
893.30 0.7371533
893.40 0.7370088
893.50 0.7368643
893.60 0.7367198
893.70 0.7365754
893.80 0.7364311
893.90 0.7362868
894.00 0.7361425
894.10 0.7359983
894.20 0.7358541
894.30 0.73571
894.40 0.7355659
894.50 0.7354218
894.60 0.7352778
894.70 0.7351339
894.80 0.73499
894.90 0.7348461
895.00 0.7347023
895.10 0.7345586
895.20 0.7344149
895.30 0.7342712
895.40 0.7341276
895.50 0.733984
895.60 0.7338404
895.70 0.733697
895.80 0.7335535
895.90 0.7334101
896.00 0.7332668
896.10 0.7331235
896.20 0.7329802
896.30 0.732837
896.40 0.7326938
896.50 0.7325507
896.60 0.7324076
896.70 0.7322646
896.80 0.7321216
896.90 0.7319787
897.00 0.7318358
897.10 0.7316929
897.20 0.7315501
897.30 0.7314058
897.40 0.7312615
897.50 0.7311173
897.60 0.7309732
897.70 0.730829
897.80 0.730685
897.90 0.730541
898.00 0.730397
898.10 0.7302531
898.20 0.7301092
898.30 0.7299653
898.40 0.7298215
898.50 0.7296778
898.60 0.7295341
898.70 0.7293904
898.80 0.7292468
898.90 0.7291033
899.00 0.7289598
899.10 0.7288163
899.20 0.7286729
899.30 0.7285295
899.40 0.7283862
899.50 0.7282429
899.60 0.7280996
899.70 0.7279564
899.80 0.7278133
899.90 0.7276702
900.00 0.7275271
900.10 0.7273841
900.20 0.7272411
900.30 0.7270982
900.40 0.7269553
900.50 0.7268125
900.60 0.7266697
900.70 0.726527
900.80 0.7263843
900.90 0.7262416
901.00 0.726099
901.10 0.7259565
901.20 0.725814
901.30 0.7256715
901.40 0.7255291
901.50 0.7253867
901.60 0.7252444
901.70 0.7251016
901.80 0.7249567
901.90 0.7248119
902.00 0.7246671
902.10 0.7245223
902.20 0.7243776
902.30 0.7242329
902.40 0.7240883
902.50 0.7239438
902.60 0.7237992
902.70 0.7236548
902.80 0.7235103
902.90 0.723366
903.00 0.7232216
903.10 0.7230773
903.20 0.7229331
903.30 0.7227889
903.40 0.7226447
903.50 0.7225006
903.60 0.7223566
903.70 0.7222126
903.80 0.7220686
903.90 0.7219247
904.00 0.7217808
904.10 0.721637
904.20 0.7214932
904.30 0.7213494
904.40 0.7212057
904.50 0.7210621
904.60 0.7209185
904.70 0.7207749
904.80 0.7206314
904.90 0.720488
905.00 0.7203446
905.10 0.7202012
905.20 0.7200579
905.30 0.7199146
905.40 0.7197714
905.50 0.7196282
905.60 0.719485
905.70 0.7193419
905.80 0.7191989
905.90 0.7190559
906.00 0.7189129
906.10 0.71877
906.20 0.7186271
906.30 0.7184841
906.40 0.7183412
906.50 0.7181983
906.60 0.7180554
906.70 0.7179126
906.80 0.7177699
906.90 0.7176272
907.00 0.7174845
907.10 0.7173419
907.20 0.7171993
907.30 0.7170568
907.40 0.7169143
907.50 0.7167719
907.60 0.7166295
907.70 0.7164872
907.80 0.7163449
907.90 0.7162026
908.00 0.7160604
908.10 0.7159182
908.20 0.7157761
908.30 0.7156341
908.40 0.715492
908.50 0.7153501
908.60 0.7152081
908.70 0.7150662
908.80 0.7149244
908.90 0.7147826
909.00 0.7146408
909.10 0.7144991
909.20 0.7143575
909.30 0.7142158
909.40 0.7140743
909.50 0.7139327
909.60 0.7137912
909.70 0.7136498
909.80 0.7135084
909.90 0.7133671
910.00 0.7132258
910.10 0.7130845
910.20 0.7129433
910.30 0.7128021
910.40 0.712661
910.50 0.7125199
910.60 0.7123789
910.70 0.7122378
910.80 0.7120943
910.90 0.7119508
911.00 0.7118074
911.10 0.711664
911.20 0.7115207
911.30 0.7113774
911.40 0.7112342
911.50 0.711091
911.60 0.7109478
911.70 0.7108047
911.80 0.7106616
911.90 0.7105186
912.00 0.7103756
912.10 0.7102327
912.20 0.7100898
912.30 0.709947
912.40 0.7098042
912.50 0.7096615
912.60 0.7095188
912.70 0.7093761
912.80 0.7092335
912.90 0.709091
913.00 0.7089484
913.10 0.708806
913.20 0.7086635
913.30 0.7085212
913.40 0.7083788
913.50 0.7082365
913.60 0.7080943
913.70 0.7079521
913.80 0.7078099
913.90 0.7076678
914.00 0.7075258
914.10 0.7073837
914.20 0.7072418
914.30 0.7070998
914.40 0.706958
914.50 0.7068161
914.60 0.7066743
914.70 0.7065326
914.80 0.7063909
914.90 0.7062492
915.00 0.7061076
915.10 0.7059661
915.20 0.7058245
915.30 0.705683
915.40 0.7055414
915.50 0.7053999
915.60 0.7052584
915.70 0.705117
915.80 0.7049756
915.90 0.7048343
916.00 0.704693
916.10 0.7045518
916.20 0.7044106
916.30 0.7042694
916.40 0.7041283
916.50 0.7039872
916.60 0.7038462
916.70 0.7037053
916.80 0.7035643
916.90 0.7034234
917.00 0.7032826
917.10 0.7031418
917.20 0.7030011
917.30 0.7028604
917.40 0.7027197
917.50 0.7025791
917.60 0.7024385
917.70 0.702298
917.80 0.7021575
917.90 0.7020171
918.00 0.7018767
918.10 0.7017363
918.20 0.701596
918.30 0.7014558
918.40 0.7013155
918.50 0.7011754
918.60 0.7010352
918.70 0.7008952
918.80 0.7007551
918.90 0.7006151
919.00 0.7004752
919.10 0.7003353
919.20 0.7001954
919.30 0.7000556
919.40 0.6999158
919.50 0.6997761
919.60 0.6996364
919.70 0.6994968
919.80 0.6993572
919.90 0.6992153
920.00 0.6990733
920.10 0.6989313
920.20 0.6987894
920.30 0.6986475
920.40 0.6985057
920.50 0.6983639
920.60 0.6982222
920.70 0.6980805
920.80 0.6979389
920.90 0.6977973
921.00 0.6976557
921.10 0.6975142
921.20 0.6973728
921.30 0.6972313
921.40 0.69709
921.50 0.6969486
921.60 0.6968074
921.70 0.6966661
921.80 0.6965249
921.90 0.6963838
922.00 0.6962427
922.10 0.6961016
922.20 0.6959606
922.30 0.6958196
922.40 0.6956787
922.50 0.6955378
922.60 0.695397
922.70 0.6952562
922.80 0.6951155
922.90 0.6949748
923.00 0.6948341
923.10 0.6946935
923.20 0.6945529
923.30 0.6944124
923.40 0.6942719
923.50 0.6941315
923.60 0.6939911
923.70 0.6938508
923.80 0.6937105
923.90 0.6935702
924.00 0.69343
924.10 0.6932898
924.20 0.6931497
924.30 0.6930096
924.40 0.6928696
924.50 0.6927295
924.60 0.6925894
924.70 0.6924495
924.80 0.6923095
924.90 0.6921696
925.00 0.6920297
925.10 0.6918899
925.20 0.6917501
925.30 0.6916104
925.40 0.6914707
925.50 0.6913311
925.60 0.6911915
925.70 0.6910519
925.80 0.6909124
925.90 0.6907729
926.00 0.6906335
926.10 0.6904941
926.20 0.6903548
926.30 0.6902155
926.40 0.6900763
926.50 0.6899371
926.60 0.6897979
926.70 0.6896588
926.80 0.6895197
926.90 0.6893807
927.00 0.6892417
927.10 0.6891028
927.20 0.6889639
927.30 0.688825
927.40 0.6886862
927.50 0.6885474
927.60 0.6884087
927.70 0.68827
927.80 0.6881314
927.90 0.6879928
928.00 0.6878543
928.10 0.6877158
928.20 0.6875773
928.30 0.6874389
928.40 0.6873005
928.50 0.6871622
928.60 0.6870239
928.70 0.6868857
928.80 0.6867475
928.90 0.6866094
929.00 0.6864712
929.10 0.6863332
929.20 0.6861952
929.30 0.6860572
929.40 0.6859192
929.50 0.6857814
929.60 0.6856435
929.70 0.6855057
929.80 0.6853679
929.90 0.6852302
930.00 0.6850926
930.10 0.6849549
930.20 0.6848173
930.30 0.6846798
930.40 0.6845423
930.50 0.6844048
930.60 0.6842674
930.70 0.6841301
930.80 0.6839927
930.90 0.6838554
931.00 0.6837182
931.10 0.683581
931.20 0.6834439
931.30 0.6833067
931.40 0.6831697
931.50 0.6830326
931.60 0.6828957
931.70 0.6827587
931.80 0.6826218
931.90 0.682485
932.00 0.6823482
932.10 0.6822114
932.20 0.6820747
932.30 0.681938
932.40 0.6818014
932.50 0.6816648
932.60 0.6815282
932.70 0.6813917
932.80 0.6812552
932.90 0.6811188
933.00 0.6809824
933.10 0.6808461
933.20 0.6807098
933.30 0.6805736
933.40 0.6804373
933.50 0.6803012
933.60 0.6801651
933.70 0.6800271
933.80 0.6798886
933.90 0.6797502
934.00 0.6796117
934.10 0.6794734
934.20 0.679335
934.30 0.6791967
934.40 0.6790585
934.50 0.6789203
934.60 0.6787821
934.70 0.678644
934.80 0.6785059
934.90 0.6783679
935.00 0.6782299
935.10 0.678092
935.20 0.6779541
935.30 0.6778162
935.40 0.6776784
935.50 0.6775407
935.60 0.6774029
935.70 0.6772652
935.80 0.6771276
935.90 0.67699
936.00 0.6768525
936.10 0.676715
936.20 0.6765775
936.30 0.6764401
936.40 0.6763027
936.50 0.6761654
936.60 0.6760281
936.70 0.6758908
936.80 0.6757536
936.90 0.6756164
937.00 0.6754793
937.10 0.6753423
937.20 0.6752052
937.30 0.6750682
937.40 0.6749313
937.50 0.6747944
937.60 0.6746575
937.70 0.6745207
937.80 0.6743839
937.90 0.6742472
938.00 0.6741105
938.10 0.6739739
938.20 0.6738373
938.30 0.6737007
938.40 0.6735642
938.50 0.6734277
938.60 0.6732913
938.70 0.6731549
938.80 0.6730185
938.90 0.6728822
939.00 0.672746
939.10 0.6726098
939.20 0.6724736
939.30 0.6723375
939.40 0.6722014
939.50 0.6720653
939.60 0.6719293
939.70 0.6717934
939.80 0.6716574
939.90 0.6715216
940.00 0.6713857
940.10 0.6712499
940.20 0.6711142
940.30 0.6709785
940.40 0.6708428
940.50 0.6707072
940.60 0.6705716
940.70 0.6704361
940.80 0.6703006
940.90 0.6701651
941.00 0.6700297
941.10 0.6698944
941.20 0.6697591
941.30 0.6696238
941.40 0.6694885
941.50 0.6693533
941.60 0.6692182
941.70 0.6690831
941.80 0.668948
941.90 0.668813
942.00 0.668678
942.10 0.6685431
942.20 0.6684082
942.30 0.6682733
942.40 0.6681385
942.50 0.6680037
942.60 0.667869
942.70 0.6677343
942.80 0.6675996
942.90 0.667465
943.00 0.6673296
943.10 0.6671927
943.20 0.6670558
943.30 0.666919
943.40 0.6667822
943.50 0.6666455
943.60 0.6665088
943.70 0.6663722
943.80 0.6662356
943.90 0.666099
944.00 0.6659625
944.10 0.6658261
944.20 0.6656896
944.30 0.6655533
944.40 0.6654169
944.50 0.6652806
944.60 0.6651444
944.70 0.6650082
944.80 0.664872
944.90 0.6647359
945.00 0.6645998
945.10 0.6644637
945.20 0.6643277
945.30 0.6641918
945.40 0.6640559
945.50 0.66392
945.60 0.6637842
945.70 0.6636484
945.80 0.6635127
945.90 0.663377
946.00 0.6632413
946.10 0.6631057
946.20 0.6629701
946.30 0.6628346
946.40 0.6626991
946.50 0.6625637
946.60 0.6624283
946.70 0.6622929
946.80 0.6621576
946.90 0.6620223
947.00 0.6618871
947.10 0.6617519
947.20 0.6616167
947.30 0.6614816
947.40 0.6613466
947.50 0.6612116
947.60 0.6610766
947.70 0.6609416
947.80 0.6608068
947.90 0.6606719
948.00 0.6605371
948.10 0.6604023
948.20 0.6602676
948.30 0.6601329
948.40 0.6599983
948.50 0.6598637
948.60 0.6597291
948.70 0.6595946
948.80 0.6594601
948.90 0.6593257
949.00 0.6591913
949.10 0.659057
949.20 0.6589227
949.30 0.6587884
949.40 0.6586542
949.50 0.65852
949.60 0.6583859
949.70 0.6582518
949.80 0.6581177
949.90 0.6579837
950.00 0.6578498
950.10 0.6577158
950.20 0.6575819
950.30 0.6574481
950.40 0.6573143
950.50 0.6571805
950.60 0.6570468
950.70 0.6569131
950.80 0.6567795
950.90 0.6566459
951.00 0.6565124
951.10 0.6563789
951.20 0.6562454
951.30 0.656112
951.40 0.6559786
951.50 0.6558452
951.60 0.6557119
951.70 0.6555787
951.80 0.6554455
951.90 0.6553123
952.00 0.6551791
952.10 0.655046
952.20 0.654913
952.30 0.65478
952.40 0.6546468
952.50 0.6545116
952.60 0.6543764
952.70 0.6542413
952.80 0.6541062
952.90 0.6539712
953.00 0.6538362
953.10 0.6537012
953.20 0.6535663
953.30 0.6534314
953.40 0.6532966
953.50 0.6531618
953.60 0.6530271
953.70 0.6528924
953.80 0.6527577
953.90 0.6526231
954.00 0.6524885
954.10 0.652354
954.20 0.6522195
954.30 0.652085
954.40 0.6519506
954.50 0.6518162
954.60 0.6516819
954.70 0.6515476
954.80 0.6514134
954.90 0.6512792
955.00 0.651145
955.10 0.6510109
955.20 0.6508768
955.30 0.6507428
955.40 0.6506088
955.50 0.6504749
955.60 0.650341
955.70 0.6502071
955.80 0.6500733
955.90 0.6499395
956.00 0.6498057
956.10 0.649672
956.20 0.6495384
956.30 0.6494048
956.40 0.6492712
956.50 0.6491377
956.60 0.6490042
956.70 0.6488707
956.80 0.6487373
956.90 0.648604
957.00 0.6484706
957.10 0.6483373
957.20 0.6482041
957.30 0.6480709
957.40 0.6479377
957.50 0.6478046
957.60 0.6476716
957.70 0.6475385
957.80 0.6474055
957.90 0.6472726
958.00 0.6471397
958.10 0.6470068
958.20 0.646874
958.30 0.6467412
958.40 0.6466084
958.50 0.6464757
958.60 0.6463431
958.70 0.6462105
958.80 0.6460779
958.90 0.6459453
959.00 0.6458128
959.10 0.6456804
959.20 0.645548
959.30 0.6454156
959.40 0.6452833
959.50 0.645151
959.60 0.6450187
959.70 0.6448865
959.80 0.6447544
959.90 0.6446222
960.00 0.6444902
960.10 0.6443581
960.20 0.6442261
960.30 0.6440941
960.40 0.6439622
960.50 0.6438303
960.60 0.6436985
960.70 0.6435667
960.80 0.6434349
960.90 0.6433032
961.00 0.6431716
961.10 0.6430399
961.20 0.6429083
961.30 0.6427768
961.40 0.6426453
961.50 0.6425138
961.60 0.6423824
961.70 0.642251
961.80 0.6421196
961.90 0.6419883
962.00 0.6418561
962.10 0.6417238
962.20 0.6415915
962.30 0.6414592
962.40 0.641327
962.50 0.6411949
962.60 0.6410627
962.70 0.6409306
962.80 0.6407986
962.90 0.6406666
963.00 0.6405346
963.10 0.6404027
963.20 0.6402708
963.30 0.640139
963.40 0.6400072
963.50 0.6398754
963.60 0.6397437
963.70 0.639612
963.80 0.6394804
963.90 0.6393488
964.00 0.6392172
964.10 0.6390857
964.20 0.6389542
964.30 0.6388228
964.40 0.6386914
964.50 0.6385601
964.60 0.6384287
964.70 0.6382975
964.80 0.6381662
964.90 0.6380351
965.00 0.6379039
965.10 0.6377728
965.20 0.6376417
965.30 0.6375107
965.40 0.6373797
965.50 0.6372488
965.60 0.6371179
965.70 0.636987
965.80 0.6368562
965.90 0.6367254
966.00 0.6365947
966.10 0.636464
966.20 0.6363333
966.30 0.6362027
966.40 0.6360721
966.50 0.6359415
966.60 0.635811
966.70 0.6356806
966.80 0.6355502
966.90 0.6354198
967.00 0.6352895
967.10 0.6351592
967.20 0.6350289
967.30 0.6348987
967.40 0.6347685
967.50 0.6346384
967.60 0.6345083
967.70 0.6343782
967.80 0.6342482
967.90 0.6341182
968.00 0.6339883
968.10 0.6338584
968.20 0.6337285
968.30 0.6335987
968.40 0.6334689
968.50 0.6333392
968.60 0.6332095
968.70 0.6330799
968.80 0.6329502
968.90 0.6328207
969.00 0.6326911
969.10 0.6325616
969.20 0.6324322
969.30 0.6323028
969.40 0.6321734
969.50 0.6320441
969.60 0.6319148
969.70 0.6317855
969.80 0.6316563
969.90 0.6315271
970.00 0.631398
970.10 0.6312689
970.20 0.6311398
970.30 0.6310108
970.40 0.6308818
970.50 0.6307529
970.60 0.630624
970.70 0.6304951
970.80 0.6303663
970.90 0.6302375
971.00 0.6301088
971.10 0.6299801
971.20 0.6298514
971.30 0.6297228
971.40 0.6295942
971.50 0.6294657
971.60 0.6293365
971.70 0.629207
971.80 0.6290775
971.90 0.628948
972.00 0.6288186
972.10 0.6286893
972.20 0.6285599
972.30 0.6284307
972.40 0.6283014
972.50 0.6281722
972.60 0.628043
972.70 0.6279139
972.80 0.6277848
972.90 0.6276558
973.00 0.6275268
973.10 0.6273978
973.20 0.6272689
973.30 0.62714
973.40 0.6270111
973.50 0.6268823
973.60 0.6267536
973.70 0.6266248
973.80 0.6264961
973.90 0.6263675
974.00 0.6262389
974.10 0.6261103
974.20 0.6259818
974.30 0.6258533
974.40 0.6257248
974.50 0.6255964
974.60 0.625468
974.70 0.6253397
974.80 0.6252114
974.90 0.6250832
975.00 0.6249549
975.10 0.6248268
975.20 0.6246986
975.30 0.6245705
975.40 0.6244425
975.50 0.6243145
975.60 0.6241865
975.70 0.6240585
975.80 0.6239306
975.90 0.6238028
976.00 0.623675
976.10 0.6235472
976.20 0.6234194
976.30 0.6232917
976.40 0.6231641
976.50 0.6230364
976.60 0.6229088
976.70 0.6227813
976.80 0.6226538
976.90 0.6225263
977.00 0.6223989
977.10 0.6222715
977.20 0.6221441
977.30 0.6220168
977.40 0.6218896
977.50 0.6217623
977.60 0.6216351
977.70 0.621508
977.80 0.6213809
977.90 0.6212538
978.00 0.6211267
978.10 0.6209997
978.20 0.6208728
978.30 0.6207459
978.40 0.620619
978.50 0.6204921
978.60 0.6203653
978.70 0.6202386
978.80 0.6201118
978.90 0.6199851
979.00 0.6198585
979.10 0.6197319
979.20 0.6196053
979.30 0.6194788
979.40 0.6193523
979.50 0.6192258
979.60 0.6190994
979.70 0.618973
979.80 0.6188467
979.90 0.6187204
980.00 0.6185941
980.10 0.6184679
980.20 0.6183417
980.30 0.6182156
980.40 0.6180895
980.50 0.6179634
980.60 0.6178374
980.70 0.6177114
980.80 0.6175854
980.90 0.6174595
981.00 0.6173336
981.10 0.6172078
981.20 0.617082
981.30 0.6169547
981.40 0.6168259
981.50 0.6166971
981.60 0.6165684
981.70 0.6164397
981.80 0.6163111
981.90 0.6161825
982.00 0.6160539
982.10 0.6159254
982.20 0.615797
982.30 0.6156685
982.40 0.6155401
982.50 0.6154118
982.60 0.6152834
982.70 0.6151552
982.80 0.6150269
982.90 0.6148987
983.00 0.6147706
983.10 0.6146424
983.20 0.6145144
983.30 0.6143863
983.40 0.6142583
983.50 0.6141303
983.60 0.6140024
983.70 0.6138745
983.80 0.6137467
983.90 0.6136189
984.00 0.6134911
984.10 0.6133634
984.20 0.6132357
984.30 0.6131081
984.40 0.6129804
984.50 0.6128529
984.60 0.6127253
984.70 0.6125978
984.80 0.6124704
984.90 0.612343
985.00 0.6122156
985.10 0.6120883
985.20 0.611961
985.30 0.6118337
985.40 0.6117065
985.50 0.6115793
985.60 0.6114522
985.70 0.6113251
985.80 0.611198
985.90 0.611071
986.00 0.610944
986.10 0.610817
986.20 0.6106901
986.30 0.6105633
986.40 0.6104364
986.50 0.6103096
986.60 0.6101829
986.70 0.6100562
986.80 0.6099295
986.90 0.6098029
987.00 0.6096763
987.10 0.6095497
987.20 0.6094232
987.30 0.6092967
987.40 0.6091703
987.50 0.6090439
987.60 0.6089175
987.70 0.6087912
987.80 0.6086649
987.90 0.6085386
988.00 0.6084124
988.10 0.6082863
988.20 0.6081601
988.30 0.608034
988.40 0.607908
988.50 0.607782
988.60 0.607656
988.70 0.6075301
988.80 0.6074042
988.90 0.6072783
989.00 0.6071525
989.10 0.6070267
989.20 0.6069009
989.30 0.6067752
989.40 0.6066496
989.50 0.6065239
989.60 0.6063983
989.70 0.6062728
989.80 0.6061473
989.90 0.6060218
990.00 0.6058963
990.10 0.6057709
990.20 0.6056456
990.30 0.6055202
990.40 0.605395
990.50 0.6052697
990.60 0.6051445
990.70 0.6050193
990.80 0.6048942
990.90 0.6047691
991.00 0.604644
991.10 0.6045194
991.20 0.6043954
991.30 0.6042715
991.40 0.6041476
991.50 0.6040238
991.60 0.6039
991.70 0.6037762
991.80 0.6036525
991.90 0.6035288
992.00 0.6034051
992.10 0.6032815
992.20 0.6031579
992.30 0.6030344
992.40 0.6029109
992.50 0.6027874
992.60 0.602664
992.70 0.6025406
992.80 0.6024172
992.90 0.6022939
993.00 0.6021706
993.10 0.6020474
993.20 0.6019242
993.30 0.601801
993.40 0.6016779
993.50 0.6015548
993.60 0.6014317
993.70 0.6013087
993.80 0.6011857
993.90 0.6010628
994.00 0.6009399
994.10 0.600817
994.20 0.6006942
994.30 0.6005714
994.40 0.6004486
994.50 0.6003259
994.60 0.6002032
994.70 0.6000805
994.80 0.5999579
994.90 0.5998354
995.00 0.5997128
995.10 0.5995903
995.20 0.5994679
995.30 0.5993454
995.40 0.5992231
995.50 0.5991007
995.60 0.5989784
995.70 0.5988561
995.80 0.5987339
995.90 0.5986117
996.00 0.5984895
996.10 0.5983642
996.20 0.5982381
996.30 0.5981121
996.40 0.5979862
996.50 0.5978603
996.60 0.5977344
996.70 0.5976086
996.80 0.5974828
996.90 0.597357
997.00 0.5972313
997.10 0.5971056
997.20 0.59698
997.30 0.5968544
997.40 0.5967288
997.50 0.5966033
997.60 0.5964778
997.70 0.5963524
997.80 0.596227
997.90 0.5961016
998.00 0.5959763
998.10 0.595851
998.20 0.5957257
998.30 0.5956005
998.40 0.5954753
998.50 0.5953502
998.60 0.5952251
998.70 0.5951
998.80 0.594975
998.90 0.59485
999.00 0.594725
999.10 0.5946001
999.20 0.5944753
999.30 0.5943504
999.40 0.5942256
999.50 0.5941009
999.60 0.5939761
999.70 0.5938515
999.80 0.5937268
999.90 0.5936022
1000.00 0.5934776
1000.10 0.5933531
1000.20 0.5932286
1000.30 0.5931041
1000.40 0.5929797
1000.50 0.5928553
1000.60 0.592731
1000.70 0.5926067
1000.80 0.5924824
1000.90 0.5923582
1001.00 0.5922345
1001.10 0.5921124
1001.20 0.5919902
1001.30 0.5918681
1001.40 0.5917461
1001.50 0.5916241
1001.60 0.5915021
1001.70 0.5913801
1001.80 0.5912582
1001.90 0.5911363
1002.00 0.5910145
1002.10 0.5908927
1002.20 0.5907709
1002.30 0.5906492
1002.40 0.5905275
1002.50 0.5904059
1002.60 0.5902843
1002.70 0.5901627
1002.80 0.5900411
1002.90 0.5899196
1003.00 0.5897982
1003.10 0.5896767
1003.20 0.5895553
1003.30 0.589434
1003.40 0.5893127
1003.50 0.5891914
1003.60 0.5890701
1003.70 0.5889489
1003.80 0.5888277
1003.90 0.5887066
1004.00 0.5885855
1004.10 0.5884644
1004.20 0.5883434
1004.30 0.5882224
1004.40 0.5881015
1004.50 0.5879805
1004.60 0.5878597
1004.70 0.5877388
1004.80 0.587618
1004.90 0.5874972
1005.00 0.5873765
1005.10 0.5872558
1005.20 0.5871351
1005.30 0.5870145
1005.40 0.5868939
1005.50 0.5867734
1005.60 0.5866528
1005.70 0.5865324
1005.80 0.5864119
1005.90 0.5862915
1006.00 0.5861707
1006.10 0.5860485
1006.20 0.5859263
1006.30 0.5858041
1006.40 0.585682
1006.50 0.5855599
1006.60 0.5854378
1006.70 0.5853158
1006.80 0.5851938
1006.90 0.5850718
1007.00 0.5849499
1007.10 0.584828
1007.20 0.5847062
1007.30 0.5845844
1007.40 0.5844626
1007.50 0.5843409
1007.60 0.5842192
1007.70 0.5840976
1007.80 0.5839759
1007.90 0.5838544
1008.00 0.5837328
1008.10 0.5836113
1008.20 0.5834898
1008.30 0.5833684
1008.40 0.583247
1008.50 0.5831256
1008.60 0.5830043
1008.70 0.582883
1008.80 0.5827618
1008.90 0.5826405
1009.00 0.5825194
1009.10 0.5823982
1009.20 0.5822771
1009.30 0.582156
1009.40 0.582035
1009.50 0.581914
1009.60 0.581793
1009.70 0.5816721
1009.80 0.5815512
1009.90 0.5814304
1010.00 0.5813096
1010.10 0.5811888
1010.20 0.581068
1010.30 0.5809473
1010.40 0.5808267
1010.50 0.580706
1010.60 0.5805854
1010.70 0.5804649
1010.80 0.5803444
1010.90 0.5802239
1011.00 0.5801034
1011.10 0.5799831
1011.20 0.5798628
1011.30 0.5797425
1011.40 0.5796222
1011.50 0.579502
1011.60 0.5793818
1011.70 0.5792617
1011.80 0.5791416
1011.90 0.5790215
1012.00 0.5789015
1012.10 0.5787815
1012.20 0.5786615
1012.30 0.5785416
1012.40 0.5784217
1012.50 0.5783019
1012.60 0.5781821
1012.70 0.5780623
1012.80 0.5779425
1012.90 0.5778228
1013.00 0.5777032
1013.10 0.5775835
1013.20 0.5774639
1013.30 0.5773444
1013.40 0.5772248
1013.50 0.5771053
1013.60 0.5769859
1013.70 0.5768665
1013.80 0.5767471
1013.90 0.5766277
1014.00 0.5765084
1014.10 0.5763892
1014.20 0.5762699
1014.30 0.5761507
1014.40 0.5760315
1014.50 0.5759124
1014.60 0.5757933
1014.70 0.5756742
1014.80 0.5755552
1014.90 0.5754362
1015.00 0.5753173
1015.10 0.5751984
1015.20 0.5750795
1015.30 0.5749606
1015.40 0.5748418
1015.50 0.574723
1015.60 0.5746043
1015.70 0.5744856
1015.80 0.5743669
1015.90 0.5742483
1016.00 0.5741297
1016.10 0.57401
1016.20 0.5738896
1016.30 0.5737693
1016.40 0.573649
1016.50 0.5735287
1016.60 0.5734085
1016.70 0.5732883
1016.80 0.5731681
1016.90 0.573048
1017.00 0.5729279
1017.10 0.5728078
1017.20 0.5726878
1017.30 0.5725678
1017.40 0.5724479
1017.50 0.572328
1017.60 0.5722081
1017.70 0.5720883
1017.80 0.5719685
1017.90 0.5718487
1018.00 0.571729
1018.10 0.5716093
1018.20 0.5714896
1018.30 0.57137
1018.40 0.5712504
1018.50 0.5711309
1018.60 0.5710114
1018.70 0.5708919
1018.80 0.5707724
1018.90 0.570653
1019.00 0.5705337
1019.10 0.5704143
1019.20 0.570295
1019.30 0.5701758
1019.40 0.5700565
1019.50 0.5699373
1019.60 0.5698182
1019.70 0.5696991
1019.80 0.56958
1019.90 0.5694609
1020.00 0.5693419
1020.10 0.569223
1020.20 0.569104
1020.30 0.5689851
1020.40 0.5688662
1020.50 0.5687474
1020.60 0.5686286
1020.70 0.5685099
1020.80 0.5683911
1020.90 0.5682724
1021.00 0.5681538
1021.10 0.5680352
1021.20 0.5679167
1021.30 0.5677982
1021.40 0.5676797
1021.50 0.5675613
1021.60 0.567443
1021.70 0.5673246
1021.80 0.5672063
1021.90 0.5670881
1022.00 0.5669699
1022.10 0.5668517
1022.20 0.5667335
1022.30 0.5666154
1022.40 0.5664973
1022.50 0.5663792
1022.60 0.5662612
1022.70 0.5661433
1022.80 0.5660253
1022.90 0.5659074
1023.00 0.5657895
1023.10 0.5656717
1023.20 0.5655539
1023.30 0.5654361
1023.40 0.5653184
1023.50 0.5652007
1023.60 0.565083
1023.70 0.5649654
1023.80 0.5648478
1023.90 0.5647303
1024.00 0.5646127
1024.10 0.5644952
1024.20 0.5643778
1024.30 0.5642604
1024.40 0.564143
1024.50 0.5640257
1024.60 0.5639083
1024.70 0.5637911
1024.80 0.5636738
1024.90 0.5635566
1025.00 0.5634395
1025.10 0.5633223
1025.20 0.5632052
1025.30 0.5630882
1025.40 0.5629711
1025.50 0.5628541
1025.60 0.5627372
1025.70 0.5626202
1025.80 0.5625033
1025.90 0.5623865
1026.00 0.5622697
1026.10 0.5621529
1026.20 0.5620361
1026.30 0.5619194
1026.40 0.5618027
1026.50 0.5616861
1026.60 0.5615695
1026.70 0.5614529
1026.80 0.5613363
1026.90 0.5612198
1027.00 0.5611034
1027.10 0.5609869
1027.20 0.5608705
1027.30 0.5607541
1027.40 0.5606378
1027.50 0.5605215
1027.60 0.5604052
1027.70 0.560289
1027.80 0.5601728
1027.90 0.5600567
1028.00 0.5599405
1028.10 0.5598244
1028.20 0.5597084
1028.30 0.5595923
1028.40 0.5594764
1028.50 0.5593604
1028.60 0.5592445
1028.70 0.5591286
1028.80 0.5590127
1028.90 0.5588969
1029.00 0.5587811
1029.10 0.5586654
1029.20 0.5585497
1029.30 0.558434
1029.40 0.5583184
1029.50 0.5582027
1029.60 0.5580872
1029.70 0.5579716
1029.80 0.5578561
1029.90 0.5577406
1030.00 0.5576252
1030.10 0.5575098
1030.20 0.5573944
1030.30 0.5572791
1030.40 0.5571638
1030.50 0.5570485
1030.60 0.5569333
1030.70 0.5568181
1030.80 0.5567029
1030.90 0.5565878
1031.00 0.5564727
1031.10 0.5563576
1031.20 0.5562426
1031.30 0.5561276
1031.40 0.556011
1031.50 0.5558944
1031.60 0.5557778
1031.70 0.5556613
1031.80 0.5555448
1031.90 0.5554283
1032.00 0.5553119
1032.10 0.5551954
1032.20 0.5550791
1032.30 0.5549627
1032.40 0.5548464
1032.50 0.5547302
1032.60 0.5546139
1032.70 0.5544977
1032.80 0.5543816
1032.90 0.5542654
1033.00 0.5541493
1033.10 0.5540333
1033.20 0.5539172
1033.30 0.5538012
1033.40 0.5536853
1033.50 0.5535694
1033.60 0.5534535
1033.70 0.5533376
1033.80 0.5532218
1033.90 0.553106
1034.00 0.5529903
1034.10 0.5528745
1034.20 0.5527589
1034.30 0.5526432
1034.40 0.5525276
1034.50 0.552412
1034.60 0.5522965
1034.70 0.552181
1034.80 0.5520655
1034.90 0.55195
1035.00 0.5518346
1035.10 0.5517193
1035.20 0.5516039
1035.30 0.5514886
1035.40 0.5513733
1035.50 0.5512581
1035.60 0.5511429
1035.70 0.5510277
1035.80 0.5509126
1035.90 0.5507975
1036.00 0.5506824
1036.10 0.5505674
1036.20 0.5504524
1036.30 0.5503374
1036.40 0.5502225
1036.50 0.5501076
1036.60 0.5499928
1036.70 0.5498779
1036.80 0.5497631
1036.90 0.5496484
1037.00 0.5495337
1037.10 0.549419
1037.20 0.5493043
1037.30 0.5491897
1037.40 0.5490751
1037.50 0.5489605
1037.60 0.548846
1037.70 0.5487315
1037.80 0.5486171
1037.90 0.5485026
1038.00 0.5483883
1038.10 0.5482739
1038.20 0.5481596
1038.30 0.5480453
1038.40 0.547931
1038.50 0.5478168
1038.60 0.5477026
1038.70 0.5475885
1038.80 0.5474744
1038.90 0.5473603
1039.00 0.5472463
1039.10 0.5471322
1039.20 0.5470183
1039.30 0.5469043
1039.40 0.5467904
1039.50 0.5466765
1039.60 0.5465627
1039.70 0.5464489
1039.80 0.5463351
1039.90 0.5462213
1040.00 0.5461076
1040.10 0.5459939
1040.20 0.5458803
1040.30 0.5457667
1040.40 0.5456531
1040.50 0.5455396
1040.60 0.5454261
1040.70 0.5453126
1040.80 0.5451991
1040.90 0.5450857
1041.00 0.5449724
1041.10 0.544859
1041.20 0.5447457
1041.30 0.5446324
1041.40 0.5445192
1041.50 0.544406
1041.60 0.5442928
1041.70 0.5441783
1041.80 0.5440636
1041.90 0.5439489
1042.00 0.5438342
1042.10 0.5437196
1042.20 0.543605
1042.30 0.5434904
1042.40 0.5433759
1042.50 0.5432614
1042.60 0.5431469
1042.70 0.5430325
1042.80 0.5429181
1042.90 0.5428038
1043.00 0.5426894
1043.10 0.5425751
1043.20 0.5424609
1043.30 0.5423467
1043.40 0.5422325
1043.50 0.5421183
1043.60 0.5420042
1043.70 0.5418901
1043.80 0.5417761
1043.90 0.541662
1044.00 0.541548
1044.10 0.5414341
1044.20 0.5413202
1044.30 0.5412063
1044.40 0.5410924
1044.50 0.5409786
1044.60 0.5408648
1044.70 0.5407511
1044.80 0.5406374
1044.90 0.5405237
1045.00 0.54041
1045.10 0.5402964
1045.20 0.5401828
1045.30 0.5400693
1045.40 0.5399558
1045.50 0.5398423
1045.60 0.5397288
1045.70 0.5396154
1045.80 0.539502
1045.90 0.5393887
1046.00 0.5392754
1046.10 0.5391621
1046.20 0.5390488
1046.30 0.5389356
1046.40 0.5388224
1046.50 0.5387093
1046.60 0.5385962
1046.70 0.5384831
1046.80 0.53837
1046.90 0.5382583
1047.00 0.538147
1047.10 0.5380358
1047.20 0.5379245
1047.30 0.5378133
1047.40 0.5377022
1047.50 0.5375911
1047.60 0.53748
1047.70 0.5373689
1047.80 0.5372579
1047.90 0.5371469
1048.00 0.5370359
1048.10 0.536925
1048.20 0.5368141
1048.30 0.5367032
1048.40 0.5365924
1048.50 0.5364816
1048.60 0.5363709
1048.70 0.5362601
1048.80 0.5361494
1048.90 0.5360388
1049.00 0.5359281
1049.10 0.5358175
1049.20 0.5357069
1049.30 0.5355964
1049.40 0.5354859
1049.50 0.5353754
1049.60 0.535265
1049.70 0.5351546
1049.80 0.5350442
1049.90 0.5349339
1050.00 0.5348235
1050.10 0.5347133
1050.20 0.534603
1050.30 0.5344928
1050.40 0.5343826
1050.50 0.5342725
1050.60 0.5341624
1050.70 0.5340523
1050.80 0.5339422
1050.90 0.5338322
1051.00 0.5337222
1051.10 0.5336122
1051.20 0.5335023
1051.30 0.5333924
1051.40 0.5332826
1051.50 0.5331727
1051.60 0.5330629
1051.70 0.5329532
1051.80 0.5328434
1051.90 0.5327337
1052.00 0.5326241
1052.10 0.5325128
1052.20 0.5324008
1052.30 0.5322888
1052.40 0.5321769
1052.50 0.532065
1052.60 0.5319531
1052.70 0.5318413
1052.80 0.5317294
1052.90 0.5316177
1053.00 0.5315059
1053.10 0.5313942
1053.20 0.5312825
1053.30 0.5311709
1053.40 0.5310593
1053.50 0.5309477
1053.60 0.5308361
1053.70 0.5307246
1053.80 0.5306131
1053.90 0.5305017
1054.00 0.5303902
1054.10 0.5302789
1054.20 0.5301675
1054.30 0.5300562
1054.40 0.5299449
1054.50 0.5298336
1054.60 0.5297224
1054.70 0.5296112
1054.80 0.5295001
1054.90 0.5293889
1055.00 0.5292778
1055.10 0.5291668
1055.20 0.5290557
1055.30 0.5289448
1055.40 0.5288338
1055.50 0.5287229
1055.60 0.528612
1055.70 0.5285011
1055.80 0.5283903
1055.90 0.5282795
1056.00 0.5281687
1056.10 0.528058
1056.20 0.5279473
1056.30 0.5278366
1056.40 0.527726
1056.50 0.5276153
1056.60 0.5275048
1056.70 0.5273942
1056.80 0.5272837
1056.90 0.5271732
1057.00 0.5270628
1057.10 0.5269524
1057.20 0.526842
1057.30 0.5267317
1057.40 0.5266214
1057.50 0.5265111
1057.60 0.5264008
1057.70 0.5262906
1057.80 0.5261804
1057.90 0.5260703
1058.00 0.5259601
1058.10 0.5258501
1058.20 0.52574
1058.30 0.52563
1058.40 0.52552
1058.50 0.52541
1058.60 0.5253001
1058.70 0.5251902
1058.80 0.5250803
1058.90 0.5249705
1059.00 0.5248607
1059.10 0.5247509
1059.20 0.5246412
1059.30 0.5245315
1059.40 0.5244218
1059.50 0.5243122
1059.60 0.5242026
1059.70 0.524093
1059.80 0.5239835
1059.90 0.523874
1060.00 0.5237645
1060.10 0.523655
1060.20 0.5235456
1060.30 0.5234362
1060.40 0.5233269
1060.50 0.5232176
1060.60 0.5231083
1060.70 0.522999
1060.80 0.5228898
1060.90 0.5227806
1061.00 0.5226715
1061.10 0.5225623
1061.20 0.5224532
1061.30 0.5223442
1061.40 0.5222351
1061.50 0.5221261
1061.60 0.5220172
1061.70 0.5219082
1061.80 0.5217993
1061.90 0.5216905
1062.00 0.5215816
1062.10 0.5214728
1062.20 0.521364
1062.30 0.5212553
1062.40 0.5211466
1062.50 0.5210379
1062.60 0.5209289
1062.70 0.5208196
1062.80 0.5207103
1062.90 0.5206011
1063.00 0.5204918
1063.10 0.5203826
1063.20 0.5202735
1063.30 0.5201643
1063.40 0.5200552
1063.50 0.5199462
1063.60 0.5198371
1063.70 0.5197281
1063.80 0.5196192
1063.90 0.5195102
1064.00 0.5194013
1064.10 0.5192925
1064.20 0.5191836
1064.30 0.5190748
1064.40 0.518966
1064.50 0.5188573
1064.60 0.5187486
1064.70 0.5186399
1064.80 0.5185312
1064.90 0.5184226
1065.00 0.518314
1065.10 0.5182055
1065.20 0.5180969
1065.30 0.5179884
1065.40 0.51788
1065.50 0.5177715
1065.60 0.5176631
1065.70 0.5175548
1065.80 0.5174464
1065.90 0.5173381
1066.00 0.5172299
1066.10 0.5171216
1066.20 0.5170134
1066.30 0.5169052
1066.40 0.5167971
1066.50 0.516689
1066.60 0.5165809
1066.70 0.5164728
1066.80 0.5163648
1066.90 0.5162568
1067.00 0.5161488
1067.10 0.5160409
1067.20 0.515933
1067.30 0.5158252
1067.40 0.5157173
1067.50 0.5156095
1067.60 0.5155018
1067.70 0.515394
1067.80 0.5152863
1067.90 0.5151786
1068.00 0.515071
1068.10 0.5149634
1068.20 0.5148558
1068.30 0.5147482
1068.40 0.5146407
1068.50 0.5145332
1068.60 0.5144258
1068.70 0.5143183
1068.80 0.5142109
1068.90 0.5141036
1069.00 0.5139962
1069.10 0.5138889
1069.20 0.5137816
1069.30 0.5136744
1069.40 0.5135672
1069.50 0.51346
1069.60 0.5133529
1069.70 0.5132457
1069.80 0.5131387
1069.90 0.5130316
1070.00 0.5129246
1070.10 0.5128176
1070.20 0.5127106
1070.30 0.5126037
1070.40 0.5124968
1070.50 0.5123899
1070.60 0.5122831
1070.70 0.5121763
1070.80 0.5120695
1070.90 0.5119628
1071.00 0.511856
1071.10 0.5117494
1071.20 0.5116427
1071.30 0.5115361
1071.40 0.5114295
1071.50 0.5113229
1071.60 0.5112164
1071.70 0.5111099
1071.80 0.5110034
1071.90 0.510897
1072.00 0.5107906
1072.10 0.5106842
1072.20 0.5105779
1072.30 0.5104716
1072.40 0.5103653
1072.50 0.510259
1072.60 0.5101528
1072.70 0.5100466
1072.80 0.5099405
1072.90 0.5098343
1073.00 0.5097282
1073.10 0.5096222
1073.20 0.5095158
1073.30 0.5094084
1073.40 0.5093009
1073.50 0.5091935
1073.60 0.5090862
1073.70 0.5089788
1073.80 0.5088715
1073.90 0.5087643
1074.00 0.508657
1074.10 0.5085498
1074.20 0.5084426
1074.30 0.5083355
1074.40 0.5082284
1074.50 0.5081213
1074.60 0.5080142
1074.70 0.5079072
1074.80 0.5078002
1074.90 0.5076932
1075.00 0.5075863
1075.10 0.5074794
1075.20 0.5073725
1075.30 0.5072657
1075.40 0.5071589
1075.50 0.5070521
1075.60 0.5069454
1075.70 0.5068387
1075.80 0.506732
1075.90 0.5066253
1076.00 0.5065187
1076.10 0.5064121
1076.20 0.5063056
1076.30 0.506199
1076.40 0.5060925
1076.50 0.5059861
1076.60 0.5058796
1076.70 0.5057732
1076.80 0.5056668
1076.90 0.5055605
1077.00 0.5054542
1077.10 0.5053479
1077.20 0.5052417
1077.30 0.5051354
1077.40 0.5050292
1077.50 0.5049231
1077.60 0.504817
1077.70 0.5047109
1077.80 0.5046048
1077.90 0.5044988
1078.00 0.5043927
1078.10 0.5042868
1078.20 0.5041808
1078.30 0.5040749
1078.40 0.503969
1078.50 0.5038632
1078.60 0.5037574
1078.70 0.5036516
1078.80 0.5035458
1078.90 0.5034401
1079.00 0.5033344
1079.10 0.5032287
1079.20 0.5031231
1079.30 0.5030175
1079.40 0.5029119
1079.50 0.5028063
1079.60 0.5027008
1079.70 0.5025953
1079.80 0.5024899
1079.90 0.5023844
1080.00 0.502279
1080.10 0.5021737
1080.20 0.5020683
1080.30 0.501963
1080.40 0.5018578
1080.50 0.5017525
1080.60 0.5016473
1080.70 0.5015421
1080.80 0.501437
1080.90 0.5013319
1081.00 0.5012268
1081.10 0.5011217
1081.20 0.5010167
1081.30 0.5009117
1081.40 0.5008067
1081.50 0.5007018
1081.60 0.5005968
1081.70 0.500492
1081.80 0.5003871
1081.90 0.5002823
1082.00 0.5001775
1082.10 0.5000728
1082.20 0.499968
1082.30 0.4998633
1082.40 0.4997587
1082.50 0.499654
1082.60 0.4995494
1082.70 0.4994448
1082.80 0.4993403
1082.90 0.4992358
1083.00 0.4991313
1083.10 0.4990268
1083.20 0.4989224
1083.30 0.498818
1083.40 0.4987136
1083.50 0.4986093
1083.60 0.498505
1083.70 0.4984007
1083.80 0.4982965
1083.90 0.4981922
1084.00 0.4980882
1084.10 0.4979841
1084.20 0.4978801
1084.30 0.4977761
1084.40 0.4976722
1084.50 0.4975683
1084.60 0.4974644
1084.70 0.4973605
1084.80 0.4972567
1084.90 0.4971529
1085.00 0.4970492
1085.10 0.4969454
1085.20 0.4968417
1085.30 0.496738
1085.40 0.4966344
1085.50 0.4965308
1085.60 0.4964272
1085.70 0.4963236
1085.80 0.4962201
1085.90 0.4961166
1086.00 0.4960131
1086.10 0.4959097
1086.20 0.4958063
1086.30 0.4957029
1086.40 0.4955995
1086.50 0.4954962
1086.60 0.4953929
1086.70 0.4952897
1086.80 0.4951864
1086.90 0.4950832
1087.00 0.4949801
1087.10 0.4948769
1087.20 0.4947738
1087.30 0.4946707
1087.40 0.4945677
1087.50 0.4944646
1087.60 0.4943617
1087.70 0.4942587
1087.80 0.4941557
1087.90 0.4940528
1088.00 0.49395
1088.10 0.4938471
1088.20 0.4937443
1088.30 0.4936415
1088.40 0.4935388
1088.50 0.493436
1088.60 0.4933333
1088.70 0.4932306
1088.80 0.493128
1088.90 0.4930254
1089.00 0.4929228
1089.10 0.4928203
1089.20 0.4927177
1089.30 0.4926152
1089.40 0.4925128
1089.50 0.4924103
1089.60 0.4923079
1089.70 0.4922055
1089.80 0.4921032
1089.90 0.4920009
1090.00 0.4918986
1090.10 0.4917963
1090.20 0.4916941
1090.30 0.4915919
1090.40 0.4914897
1090.50 0.4913876
1090.60 0.4912854
1090.70 0.4911834
1090.80 0.4910813
1090.90 0.4909793
1091.00 0.4908773
1091.10 0.4907753
1091.20 0.4906734
1091.30 0.4905714
1091.40 0.4904696
1091.50 0.4903677
1091.60 0.4902659
1091.70 0.4901641
1091.80 0.4900623
1091.90 0.4899606
1092.00 0.4898589
1092.10 0.4897572
1092.20 0.4896555
1092.30 0.4895539
1092.40 0.4894523
1092.50 0.4893508
1092.60 0.4892492
1092.70 0.4891477
1092.80 0.4890462
1092.90 0.4889448
1093.00 0.4888434
1093.10 0.488742
1093.20 0.4886406
1093.30 0.4885393
1093.40 0.488438
1093.50 0.4883367
1093.60 0.4882355
1093.70 0.4881342
1093.80 0.4880331
1093.90 0.4879319
1094.00 0.4878308
1094.10 0.4877297
1094.20 0.4876286
1094.30 0.4875275
1094.40 0.4874265
1094.50 0.4873255
1094.60 0.4872246
1094.70 0.4871237
1094.80 0.4870221
1094.90 0.4869199
1095.00 0.4868177
1095.10 0.4867155
1095.20 0.4866134
1095.30 0.4865112
1095.40 0.4864092
1095.50 0.4863071
1095.60 0.4862051
1095.70 0.4861031
1095.80 0.4860011
1095.90 0.4858992
1096.00 0.4857973
1096.10 0.4856954
1096.20 0.4855936
1096.30 0.4854918
1096.40 0.48539
1096.50 0.4852882
1096.60 0.4851865
1096.70 0.4850848
1096.80 0.4849831
1096.90 0.4848815
1097.00 0.4847798
1097.10 0.4846783
1097.20 0.4845767
1097.30 0.4844752
1097.40 0.4843737
1097.50 0.4842722
1097.60 0.4841708
1097.70 0.4840694
1097.80 0.483968
1097.90 0.4838666
1098.00 0.4837653
1098.10 0.483664
1098.20 0.4835627
1098.30 0.4834615
1098.40 0.4833603
1098.50 0.4832591
1098.60 0.4831579
1098.70 0.4830568
1098.80 0.4829557
1098.90 0.4828547
1099.00 0.4827536
1099.10 0.4826526
1099.20 0.4825516
1099.30 0.4824507
1099.40 0.4823498
1099.50 0.4822489
1099.60 0.482148
1099.70 0.4820472
1099.80 0.4819464
1099.90 0.4818456
1100.00 0.4817448
1100.10 0.4816441
1100.20 0.4815434
1100.30 0.4814428
1100.40 0.4813421
1100.50 0.4812415
1100.60 0.4811409
1100.70 0.4810404
1100.80 0.4809399
1100.90 0.4808394
1101.00 0.4807389
1101.10 0.4806385
1101.20 0.4805381
1101.30 0.4804377
1101.40 0.4803373
1101.50 0.480237
1101.60 0.4801367
1101.70 0.4800365
1101.80 0.4799362
1101.90 0.479836
1102.00 0.4797358
1102.10 0.4796357
1102.20 0.4795356
1102.30 0.4794355
1102.40 0.4793354
1102.50 0.4792354
1102.60 0.4791354
1102.70 0.4790354
1102.80 0.4789354
1102.90 0.4788355
1103.00 0.4787356
1103.10 0.4786358
1103.20 0.4785359
1103.30 0.4784361
1103.40 0.4783363
1103.50 0.4782366
1103.60 0.4781369
1103.70 0.4780372
1103.80 0.4779375
1103.90 0.4778379
1104.00 0.4777382
1104.10 0.4776387
1104.20 0.4775391
1104.30 0.4774396
1104.40 0.4773401
1104.50 0.4772406
1104.60 0.4771412
1104.70 0.4770418
1104.80 0.4769424
1104.90 0.476843
1105.00 0.4767437
1105.10 0.4766444
1105.20 0.4765451
1105.30 0.4764459
1105.40 0.4763466
1105.50 0.4762475
1105.60 0.4761483
1105.70 0.4760492
1105.80 0.4759495
1105.90 0.4758498
1106.00 0.4757502
1106.10 0.4756506
1106.20 0.475551
1106.30 0.4754514
1106.40 0.4753519
1106.50 0.4752524
1106.60 0.4751529
1106.70 0.4750535
1106.80 0.4749541
1106.90 0.4748547
1107.00 0.4747554
1107.10 0.474656
1107.20 0.4745567
1107.30 0.4744575
1107.40 0.4743582
1107.50 0.474259
1107.60 0.4741598
1107.70 0.4740607
1107.80 0.4739616
1107.90 0.4738625
1108.00 0.4737634
1108.10 0.4736643
1108.20 0.4735653
1108.30 0.4734663
1108.40 0.4733674
1108.50 0.4732684
1108.60 0.4731695
1108.70 0.4730707
1108.80 0.4729718
1108.90 0.472873
1109.00 0.4727742
1109.10 0.4726754
1109.20 0.4725767
1109.30 0.472478
1109.40 0.4723793
1109.50 0.4722807
1109.60 0.472182
1109.70 0.4720834
1109.80 0.4719849
1109.90 0.4718863
1110.00 0.4717878
1110.10 0.4716893
1110.20 0.4715909
1110.30 0.4714924
1110.40 0.471394
1110.50 0.4712957
1110.60 0.4711973
1110.70 0.471099
1110.80 0.4710007
1110.90 0.4709025
1111.00 0.4708042
1111.10 0.470706
1111.20 0.4706078
1111.30 0.4705097
1111.40 0.4704116
1111.50 0.4703135
1111.60 0.4702154
1111.70 0.4701173
1111.80 0.4700193
1111.90 0.4699213
1112.00 0.4698234
1112.10 0.4697255
1112.20 0.4696276
1112.30 0.4695297
1112.40 0.4694318
1112.50 0.469334
1112.60 0.4692362
1112.70 0.4691385
1112.80 0.4690407
1112.90 0.468943
1113.00 0.4688453
1113.10 0.4687477
1113.20 0.46865
1113.30 0.4685524
1113.40 0.4684549
1113.50 0.4683573
1113.60 0.4682598
1113.70 0.4681623
1113.80 0.4680649
1113.90 0.4679674
1114.00 0.46787
1114.10 0.4677726
1114.20 0.4676753
1114.30 0.467578
1114.40 0.4674807
1114.50 0.4673834
1114.60 0.4672861
1114.70 0.4671889
1114.80 0.4670917
1114.90 0.4669946
1115.00 0.4668974
1115.10 0.4668003
1115.20 0.4667033
1115.30 0.4666062
1115.40 0.4665092
1115.50 0.4664122
1115.60 0.4663152
1115.70 0.4662183
1115.80 0.4661214
1115.90 0.4660245
1116.00 0.4659276
1116.10 0.4658308
1116.20 0.465734
1116.30 0.4656372
1116.40 0.4655404
1116.50 0.4654437
1116.60 0.465347
1116.70 0.4652503
1116.80 0.4651528
1116.90 0.4650543
1117.00 0.4649557
1117.10 0.4648572
1117.20 0.4647587
1117.30 0.4646603
1117.40 0.4645618
1117.50 0.4644634
1117.60 0.4643651
1117.70 0.4642667
1117.80 0.4641684
1117.90 0.4640701
1118.00 0.4639719
1118.10 0.4638736
1118.20 0.4637754
1118.30 0.4636772
1118.40 0.4635791
1118.50 0.463481
1118.60 0.4633829
1118.70 0.4632848
1118.80 0.4631868
1118.90 0.4630888
1119.00 0.4629908
1119.10 0.4628928
1119.20 0.4627949
1119.30 0.462697
1119.40 0.4625991
1119.50 0.4625013
1119.60 0.4624034
1119.70 0.4623056
1119.80 0.4622079
1119.90 0.4621101
1120.00 0.4620124
1120.10 0.4619148
1120.20 0.4618171
1120.30 0.4617195
1120.40 0.4616219
1120.50 0.4615243
1120.60 0.4614268
1120.70 0.4613293
1120.80 0.4612318
1120.90 0.4611343
1121.00 0.4610369
1121.10 0.4609395
1121.20 0.4608421
1121.30 0.4607447
1121.40 0.4606474
1121.50 0.4605501
1121.60 0.4604528
1121.70 0.4603556
1121.80 0.4602584
1121.90 0.4601612
1122.00 0.460064
1122.10 0.4599669
1122.20 0.4598698
1122.30 0.4597727
1122.40 0.4596765
1122.50 0.4595809
1122.60 0.4594852
1122.70 0.4593896
1122.80 0.4592941
1122.90 0.4591985
1123.00 0.459103
1123.10 0.4590075
1123.20 0.458912
1123.30 0.4588166
1123.40 0.4587212
1123.50 0.4586258
1123.60 0.4585305
1123.70 0.4584351
1123.80 0.4583398
1123.90 0.4582446
1124.00 0.4581493
1124.10 0.4580541
1124.20 0.4579589
1124.30 0.4578637
1124.40 0.4577686
1124.50 0.4576734
1124.60 0.4575784
1124.70 0.4574833
1124.80 0.4573883
1124.90 0.4572932
1125.00 0.4571983
1125.10 0.4571033
1125.20 0.4570084
1125.30 0.4569135
1125.40 0.4568186
1125.50 0.4567237
1125.60 0.4566289
1125.70 0.4565341
1125.80 0.4564393
1125.90 0.4563446
1126.00 0.4562499
1126.10 0.4561552
1126.20 0.4560605
1126.30 0.4559659
1126.40 0.4558713
1126.50 0.4557767
1126.60 0.4556821
1126.70 0.4555876
1126.80 0.4554931
1126.90 0.4553986
1127.00 0.4553041
1127.10 0.4552097
1127.20 0.4551153
1127.30 0.4550209
1127.40 0.4549266
1127.50 0.4548323
1127.60 0.454738
1127.70 0.4546437
1127.80 0.4545494
1127.90 0.4544552
1128.00 0.4543606
1128.10 0.4542659
1128.20 0.4541712
1128.30 0.4540766
1128.40 0.453982
1128.50 0.4538874
1128.60 0.4537928
1128.70 0.4536983
1128.80 0.4536037
1128.90 0.4535092
1129.00 0.4534148
1129.10 0.4533203
1129.20 0.4532259
1129.30 0.4531315
1129.40 0.4530372
1129.50 0.4529429
1129.60 0.4528485
1129.70 0.4527543
1129.80 0.45266
1129.90 0.4525658
1130.00 0.4524716
1130.10 0.4523774
1130.20 0.4522833
1130.30 0.4521891
1130.40 0.452095
1130.50 0.452001
1130.60 0.4519069
1130.70 0.4518129
1130.80 0.4517189
1130.90 0.4516249
1131.00 0.451531
1131.10 0.4514371
1131.20 0.4513432
1131.30 0.4512493
1131.40 0.4511555
1131.50 0.4510617
1131.60 0.4509679
1131.70 0.4508742
1131.80 0.4507804
1131.90 0.4506867
1132.00 0.450593
1132.10 0.4504994
1132.20 0.4504058
1132.30 0.4503122
1132.40 0.4502186
1132.50 0.450125
1132.60 0.4500315
1132.70 0.449938
1132.80 0.4498446
1132.90 0.4497511
1133.00 0.4496577
1133.10 0.4495643
1133.20 0.4494709
1133.30 0.4493776
1133.40 0.4492843
1133.50 0.449191
1133.60 0.4490977
1133.70 0.4490045
1133.80 0.4489113
1133.90 0.4488181
1134.00 0.4487249
1134.10 0.4486318
1134.20 0.4485387
1134.30 0.4484456
1134.40 0.4483526
1134.50 0.4482595
1134.60 0.4481665
1134.70 0.4480736
1134.80 0.4479806
1134.90 0.4478877
1135.00 0.4477948
1135.10 0.4477019
1135.20 0.4476091
1135.30 0.4475162
1135.40 0.4474234
1135.50 0.4473307
1135.60 0.4472379
1135.70 0.4471452
1135.80 0.4470525
1135.90 0.4469598
1136.00 0.4468672
1136.10 0.4467746
1136.20 0.446682
1136.30 0.4465894
1136.40 0.4464969
1136.50 0.4464044
1136.60 0.4463119
1136.70 0.4462194
1136.80 0.446127
1136.90 0.4460346
1137.00 0.4459422
1137.10 0.4458498
1137.20 0.4457575
1137.30 0.4456652
1137.40 0.4455729
1137.50 0.4454806
1137.60 0.4453884
1137.70 0.4452962
1137.80 0.445204
1137.90 0.4451118
1138.00 0.4450197
1138.10 0.4449276
1138.20 0.4448355
1138.30 0.4447435
1138.40 0.4446514
1138.50 0.4445594
1138.60 0.4444675
1138.70 0.4443755
1138.80 0.4442836
1138.90 0.4441917
1139.00 0.4440998
1139.10 0.444008
1139.20 0.4439161
1139.30 0.4438232
1139.40 0.4437302
1139.50 0.4436373
1139.60 0.4435444
1139.70 0.4434515
1139.80 0.4433587
1139.90 0.4432659
1140.00 0.4431731
1140.10 0.4430803
1140.20 0.4429876
1140.30 0.4428949
1140.40 0.4428022
1140.50 0.4427095
1140.60 0.4426169
1140.70 0.4425243
1140.80 0.4424317
1140.90 0.4423391
1141.00 0.4422466
1141.10 0.4421541
1141.20 0.4420616
1141.30 0.4419691
1141.40 0.4418767
1141.50 0.4417843
1141.60 0.4416919
1141.70 0.4415996
1141.80 0.4415072
1141.90 0.4414149
1142.00 0.4413227
1142.10 0.4412304
1142.20 0.4411382
1142.30 0.441046
1142.40 0.4409538
1142.50 0.4408616
1142.60 0.4407695
1142.70 0.4406774
1142.80 0.4405853
1142.90 0.4404933
1143.00 0.4404013
1143.10 0.4403093
1143.20 0.4402173
1143.30 0.4401253
1143.40 0.4400334
1143.50 0.4399415
1143.60 0.4398497
1143.70 0.4397578
1143.80 0.439666
1143.90 0.4395742
1144.00 0.4394824
1144.10 0.4393907
1144.20 0.439299
1144.30 0.4392073
1144.40 0.4391156
1144.50 0.439024
1144.60 0.4389323
1144.70 0.4388408
1144.80 0.4387492
1144.90 0.4386576
1145.00 0.4385661
1145.10 0.4384746
1145.20 0.4383832
1145.30 0.4382917
1145.40 0.4382003
1145.50 0.4381089
1145.60 0.4380176
1145.70 0.4379262
1145.80 0.4378349
1145.90 0.4377436
1146.00 0.4376524
1146.10 0.4375611
1146.20 0.4374699
1146.30 0.4373787
1146.40 0.4372875
1146.50 0.4371964
1146.60 0.4371053
1146.70 0.4370142
1146.80 0.4369231
1146.90 0.4368321
1147.00 0.4367411
1147.10 0.4366501
1147.20 0.4365591
1147.30 0.4364682
1147.40 0.4363773
1147.50 0.4362864
1147.60 0.4361955
1147.70 0.4361047
1147.80 0.4360139
1147.90 0.4359231
1148.00 0.4358323
1148.10 0.4357416
1148.20 0.4356509
1148.30 0.4355602
1148.40 0.4354696
1148.50 0.4353789
1148.60 0.4352883
1148.70 0.4351977
1148.80 0.4351072
1148.90 0.4350166
1149.00 0.4349261
1149.10 0.4348356
1149.20 0.4347452
1149.30 0.4346547
1149.40 0.4345643
1149.50 0.4344739
1149.60 0.4343836
1149.70 0.4342932
1149.80 0.4342029
1149.90 0.4341126
1150.00 0.4340223
1150.10 0.4339321
1150.20 0.4338419
1150.30 0.4337517
1150.40 0.4336615
1150.50 0.4335714
1150.60 0.4334813
1150.70 0.4333907
1150.80 0.4333001
1150.90 0.4332096
1151.00 0.4331191
1151.10 0.4330286
1151.20 0.4329381
1151.30 0.4328477
1151.40 0.4327573
1151.50 0.4326669
1151.60 0.4325766
1151.70 0.4324862
1151.80 0.4323959
1151.90 0.4323056
1152.00 0.4322154
1152.10 0.4321252
1152.20 0.4320349
1152.30 0.4319448
1152.40 0.4318546
1152.50 0.4317645
1152.60 0.4316744
1152.70 0.4315843
1152.80 0.4314942
1152.90 0.4314042
1153.00 0.4313142
1153.10 0.4312242
1153.20 0.4311342
1153.30 0.4310443
1153.40 0.4309544
1153.50 0.4308645
1153.60 0.4307746
1153.70 0.4306848
1153.80 0.430595
1153.90 0.4305052
1154.00 0.4304154
1154.10 0.4303257
1154.20 0.430236
1154.30 0.4301463
1154.40 0.4300566
1154.50 0.429967
1154.60 0.4298774
1154.70 0.4297878
1154.80 0.4296982
1154.90 0.4296087
1155.00 0.4295191
1155.10 0.4294297
1155.20 0.4293402
1155.30 0.4292507
1155.40 0.4291613
1155.50 0.4290719
1155.60 0.4289826
1155.70 0.4288932
1155.80 0.4288039
1155.90 0.4287146
1156.00 0.4286253
1156.10 0.4285361
1156.20 0.4284469
1156.30 0.4283577
1156.40 0.4282685
1156.50 0.4281793
1156.60 0.4280902
1156.70 0.4280011
1156.80 0.4279121
1156.90 0.427823
1157.00 0.427734
1157.10 0.427645
1157.20 0.427556
1157.30 0.4274671
1157.40 0.4273781
1157.50 0.4272892
1157.60 0.4272004
1157.70 0.4271115
1157.80 0.4270227
1157.90 0.4269339
1158.00 0.4268451
1158.10 0.4267563
1158.20 0.4266676
1158.30 0.4265789
1158.40 0.4264902
1158.50 0.4264016
1158.60 0.4263129
1158.70 0.4262243
1158.80 0.4261357
1158.90 0.4260472
1159.00 0.4259586
1159.10 0.4258701
1159.20 0.4257816
1159.30 0.4256932
1159.40 0.4256047
1159.50 0.4255163
1159.60 0.4254279
1159.70 0.4253396
1159.80 0.4252512
1159.90 0.4251629
1160.00 0.4250746
1160.10 0.4249863
1160.20 0.4248981
1160.30 0.4248099
1160.40 0.4247217
1160.50 0.4246335
1160.60 0.4245454
1160.70 0.4244572
1160.80 0.4243691
1160.90 0.424281
1161.00 0.424193
1161.10 0.424105
1161.20 0.424017
1161.30 0.423929
1161.40 0.423841
1161.50 0.4237531
1161.60 0.4236652
1161.70 0.4235773
1161.80 0.4234894
1161.90 0.4234016
1162.00 0.4233138
1162.10 0.423226
1162.20 0.4231384
1162.30 0.4230508
1162.40 0.4229632
1162.50 0.4228756
1162.60 0.4227881
1162.70 0.4227006
1162.80 0.4226131
1162.90 0.4225257
1163.00 0.4224382
1163.10 0.4223508
1163.20 0.4222635
1163.30 0.4221761
1163.40 0.4220888
1163.50 0.4220014
1163.60 0.4219142
1163.70 0.4218269
1163.80 0.4217397
1163.90 0.4216524
1164.00 0.4215652
1164.10 0.4214781
1164.20 0.4213909
1164.30 0.4213038
1164.40 0.4212167
1164.50 0.4211296
1164.60 0.4210426
1164.70 0.4209556
1164.80 0.4208686
1164.90 0.4207816
1165.00 0.4206946
1165.10 0.4206077
1165.20 0.4205208
1165.30 0.4204339
1165.40 0.420347
1165.50 0.4202602
1165.60 0.4201734
1165.70 0.4200866
1165.80 0.4199998
1165.90 0.4199131
1166.00 0.4198264
1166.10 0.4197397
1166.20 0.419653
1166.30 0.4195663
1166.40 0.4194797
1166.50 0.4193931
1166.60 0.4193065
1166.70 0.41922
1166.80 0.4191334
1166.90 0.4190469
1167.00 0.4189604
1167.10 0.418874
1167.20 0.4187875
1167.30 0.4187011
1167.40 0.4186147
1167.50 0.4185284
1167.60 0.418442
1167.70 0.4183557
1167.80 0.4182694
1167.90 0.4181831
1168.00 0.4180958
1168.10 0.4180083
1168.20 0.4179209
1168.30 0.4178335
1168.40 0.4177462
1168.50 0.4176588
1168.60 0.4175715
1168.70 0.4174842
1168.80 0.4173969
1168.90 0.4173097
1169.00 0.4172224
1169.10 0.4171352
1169.20 0.417048
1169.30 0.4169609
1169.40 0.4168737
1169.50 0.4167866
1169.60 0.4166995
1169.70 0.4166125
1169.80 0.4165254
1169.90 0.4164384
1170.00 0.4163514
1170.10 0.4162645
1170.20 0.4161775
1170.30 0.4160906
1170.40 0.4160037
1170.50 0.4159168
1170.60 0.41583
1170.70 0.4157431
1170.80 0.4156563
1170.90 0.4155695
1171.00 0.4154828
1171.10 0.4153961
1171.20 0.4153093
1171.30 0.4152227
1171.40 0.415136
1171.50 0.4150494
1171.60 0.4149627
1171.70 0.4148761
1171.80 0.4147896
1171.90 0.414703
1172.00 0.4146165
1172.10 0.41453
1172.20 0.4144435
1172.30 0.4143571
1172.40 0.4142707
1172.50 0.4141843
1172.60 0.4140979
1172.70 0.4140115
1172.80 0.4139252
1172.90 0.4138389
1173.00 0.4137526
1173.10 0.4136663
1173.20 0.4135801
1173.30 0.4134939
1173.40 0.4134077
1173.50 0.4133215
1173.60 0.4132354
1173.70 0.4131492
1173.80 0.4130632
1173.90 0.4129773
1174.00 0.4128914
1174.10 0.4128055
1174.20 0.4127197
1174.30 0.4126339
1174.40 0.4125481
1174.50 0.4124623
1174.60 0.4123765
1174.70 0.4122908
1174.80 0.4122051
1174.90 0.4121194
1175.00 0.4120337
1175.10 0.411948
1175.20 0.4118624
1175.30 0.4117768
1175.40 0.4116912
1175.50 0.4116057
1175.60 0.4115202
1175.70 0.4114347
1175.80 0.4113492
1175.90 0.4112637
1176.00 0.4111783
1176.10 0.4110929
1176.20 0.4110075
1176.30 0.4109221
1176.40 0.4108368
1176.50 0.4107514
1176.60 0.4106661
1176.70 0.4105809
1176.80 0.4104956
1176.90 0.4104104
1177.00 0.4103252
1177.10 0.41024
1177.20 0.4101548
1177.30 0.4100697
1177.40 0.4099846
1177.50 0.4098995
1177.60 0.4098144
1177.70 0.4097294
1177.80 0.4096444
1177.90 0.4095594
1178.00 0.4094744
1178.10 0.4093894
1178.20 0.4093045
1178.30 0.4092196
1178.40 0.4091347
1178.50 0.4090498
1178.60 0.408965
1178.70 0.4088802
1178.80 0.4087954
1178.90 0.4087106
1179.00 0.4086259
1179.10 0.4085411
1179.20 0.4084564
1179.30 0.4083718
1179.40 0.4082871
1179.50 0.4082025
1179.60 0.4081179
1179.70 0.4080333
1179.80 0.4079487
1179.90 0.4078642
1180.00 0.4077797
1180.10 0.4076952
1180.20 0.4076107
1180.30 0.4075263
1180.40 0.4074418
1180.50 0.4073574
1180.60 0.407273
1180.70 0.4071887
1180.80 0.4071044
1180.90 0.40702
1181.00 0.4069358
1181.10 0.4068515
1181.20 0.4067672
1181.30 0.406683
1181.40 0.4065988
1181.50 0.4065147
1181.60 0.4064305
1181.70 0.4063464
1181.80 0.4062623
1181.90 0.4061782
1182.00 0.4060941
1182.10 0.4060101
1182.20 0.4059261
1182.30 0.4058421
1182.40 0.4057581
1182.50 0.4056741
1182.60 0.4055902
1182.70 0.4055063
1182.80 0.4054224
1182.90 0.4053386
1183.00 0.4052547
1183.10 0.4051709
1183.20 0.4050871
1183.30 0.4050034
1183.40 0.4049196
1183.50 0.4048359
1183.60 0.4047522
1183.70 0.4046685
1183.80 0.4045849
1183.90 0.4045012
1184.00 0.4044176
1184.10 0.404334
1184.20 0.4042505
1184.30 0.4041669
1184.40 0.4040834
1184.50 0.4039999
1184.60 0.4039164
1184.70 0.403833
1184.80 0.4037495
1184.90 0.4036661
1185.00 0.4035827
1185.10 0.4034994
1185.20 0.403416
1185.30 0.4033327
1185.40 0.4032494
1185.50 0.4031657
1185.60 0.4030814
1185.70 0.4029972
1185.80 0.402913
1185.90 0.4028288
1186.00 0.4027446
1186.10 0.4026605
1186.20 0.4025763
1186.30 0.4024922
1186.40 0.4024082
1186.50 0.4023241
1186.60 0.4022401
1186.70 0.402156
1186.80 0.402072
1186.90 0.4019881
1187.00 0.4019041
1187.10 0.4018202
1187.20 0.4017363
1187.30 0.4016524
1187.40 0.4015686
1187.50 0.4014847
1187.60 0.4014009
1187.70 0.4013171
1187.80 0.4012334
1187.90 0.4011496
1188.00 0.4010659
1188.10 0.4009822
1188.20 0.4008985
1188.30 0.4008149
1188.40 0.4007312
1188.50 0.4006476
1188.60 0.400564
1188.70 0.4004805
1188.80 0.4003969
1188.90 0.4003134
1189.00 0.4002299
1189.10 0.4001464
1189.20 0.400063
1189.30 0.3999796
1189.40 0.3998961
1189.50 0.3998128
1189.60 0.3997294
1189.70 0.3996461
1189.80 0.3995627
1189.90 0.3994794
1190.00 0.3993962
1190.10 0.3993129
1190.20 0.3992297
1190.30 0.3991465
1190.40 0.3990633
1190.50 0.3989801
1190.60 0.398897
1190.70 0.3988139
1190.80 0.3987308
1190.90 0.3986477
1191.00 0.3985647
1191.10 0.3984816
1191.20 0.3983986
1191.30 0.3983156
1191.40 0.3982329
1191.50 0.3981511
1191.60 0.3980693
1191.70 0.3979876
1191.80 0.3979058
1191.90 0.3978241
1192.00 0.3977424
1192.10 0.3976608
1192.20 0.3975792
1192.30 0.3974975
1192.40 0.3974159
1192.50 0.3973344
1192.60 0.3972528
1192.70 0.3971713
1192.80 0.3970898
1192.90 0.3970083
1193.00 0.3969268
1193.10 0.3968454
1193.20 0.396764
1193.30 0.3966826
1193.40 0.3966012
1193.50 0.3965199
1193.60 0.3964385
1193.70 0.3963572
1193.80 0.3962759
1193.90 0.3961947
1194.00 0.3961134
1194.10 0.3960322
1194.20 0.395951
1194.30 0.3958698
1194.40 0.3957886
1194.50 0.3957075
1194.60 0.3956264
1194.70 0.3955453
1194.80 0.3954642
1194.90 0.3953832
1195.00 0.3953021
1195.10 0.3952211
1195.20 0.3951402
1195.30 0.3950592
1195.40 0.3949782
1195.50 0.3948973
1195.60 0.3948164
1195.70 0.3947355
1195.80 0.3946547
1195.90 0.3945739
1196.00 0.394493
1196.10 0.3944123
1196.20 0.3943315
1196.30 0.3942507
1196.40 0.39417
1196.50 0.3940893
1196.60 0.3940086
1196.70 0.3939279
1196.80 0.3938473
1196.90 0.3937667
1197.00 0.3936861
1197.10 0.3936055
1197.20 0.393525
1197.30 0.3934444
1197.40 0.393363
1197.50 0.3932816
1197.60 0.3932001
1197.70 0.3931187
1197.80 0.3930373
1197.90 0.3929559
1198.00 0.3928745
1198.10 0.3927932
1198.20 0.3927119
1198.30 0.3926306
1198.40 0.3925493
1198.50 0.3924681
1198.60 0.3923868
1198.70 0.3923056
1198.80 0.3922244
1198.90 0.3921433
1199.00 0.3920621
1199.10 0.391981
1199.20 0.3918999
1199.30 0.3918188
1199.40 0.3917378
1199.50 0.3916567
1199.60 0.3915757
1199.70 0.3914947
1199.80 0.3914137
1199.90 0.3913328
1200.00 0.3912519
