# Version 2.1 - nm, norm@500 to 1, cut digits, bergeron_He_3750_80.dat_3750
# Wavelength(nm)  Flambda(ergs/cm^s/s/nm)
300.00 0.01783971
300.10 0.01790804
300.20 0.01797672
300.30 0.01804553
300.40 0.01811574
300.50 0.01818585
300.60 0.01825586
300.70 0.01832578
300.80 0.01839559
300.90 0.01846532
301.00 0.01853494
301.10 0.01860447
301.20 0.0186739
301.30 0.01874324
301.40 0.01881248
301.50 0.01888162
301.60 0.01895067
301.70 0.01901962
301.80 0.01908848
301.90 0.01915724
302.00 0.0192259
302.10 0.01929791
302.20 0.0193702
302.30 0.01944239
302.40 0.01951448
302.50 0.01958647
302.60 0.01965836
302.70 0.01973015
302.80 0.01980184
302.90 0.01987343
303.00 0.01994493
303.10 0.02001632
303.20 0.02008762
303.30 0.02015934
303.40 0.02023564
303.50 0.02031184
303.60 0.02038794
303.70 0.02046393
303.80 0.02053981
303.90 0.02061559
304.00 0.02069127
304.10 0.02076684
304.20 0.02084231
304.30 0.02091768
304.40 0.02099294
304.50 0.0210681
304.60 0.02114675
304.70 0.0212257
304.80 0.02130454
304.90 0.02138327
305.00 0.02146189
305.10 0.02154041
305.20 0.02161882
305.30 0.02169712
305.40 0.02177531
305.50 0.0218534
305.60 0.02193138
305.70 0.02200925
305.80 0.02208702
305.90 0.02216468
306.00 0.02224223
306.10 0.02231968
306.20 0.02239702
306.30 0.02247426
306.40 0.02255715
306.50 0.02264166
306.60 0.02272604
306.70 0.02281031
306.80 0.02289447
306.90 0.02297851
307.00 0.02306244
307.10 0.02314625
307.20 0.02322995
307.30 0.02331354
307.40 0.02339701
307.50 0.02348037
307.60 0.02356361
307.70 0.02364674
307.80 0.02372976
307.90 0.02381267
308.00 0.02389546
308.10 0.02397814
308.20 0.02406071
308.30 0.02414317
308.40 0.02422551
308.50 0.02430774
308.60 0.02438987
308.70 0.02447187
308.80 0.02455653
308.90 0.02464894
309.00 0.02473502
309.10 0.02482098
309.20 0.02490683
309.30 0.02499257
309.40 0.02507881
309.50 0.02516878
309.60 0.02525863
309.70 0.02534836
309.80 0.02543796
309.90 0.02552745
310.00 0.02561681
310.10 0.02570606
310.20 0.02579518
310.30 0.02588418
310.40 0.02597405
310.50 0.02606486
310.60 0.02615555
310.70 0.02624612
310.80 0.02633657
310.90 0.02642689
311.00 0.02651789
311.10 0.02660876
311.20 0.0266995
311.30 0.02679085
311.40 0.02688412
311.50 0.02697728
311.60 0.0270703
311.70 0.0271632
311.80 0.02725598
311.90 0.02734863
312.00 0.02744116
312.10 0.02753356
312.20 0.02762815
312.30 0.02772643
312.40 0.02782323
312.50 0.02791308
312.60 0.02800919
312.70 0.02810517
312.80 0.02820103
312.90 0.02829716
313.00 0.02839361
313.10 0.02848992
313.20 0.02858611
313.30 0.02868311
313.40 0.02878267
313.50 0.02888209
313.60 0.02898139
313.70 0.02908054
313.80 0.02917957
313.90 0.02927847
314.00 0.02937723
314.10 0.02947788
314.20 0.0295784
314.30 0.02967879
314.40 0.02977904
314.50 0.02987916
314.60 0.02997915
314.70 0.030079
314.80 0.03017968
314.90 0.03028225
315.00 0.03038393
315.10 0.03048585
315.20 0.03058764
315.30 0.03068929
315.40 0.03079081
315.50 0.03089219
315.60 0.03099344
315.70 0.03109851
315.80 0.03120344
315.90 0.03130823
316.00 0.03141289
316.10 0.0315174
316.20 0.03162178
316.30 0.03172602
316.40 0.03183012
316.50 0.03193999
316.60 0.03203791
316.70 0.03214749
316.80 0.03225694
316.90 0.03236329
317.00 0.0324695
317.10 0.03257557
317.20 0.0326815
317.30 0.03278929
317.40 0.03289728
317.50 0.03300611
317.60 0.03311479
317.70 0.03322334
317.80 0.03333174
317.90 0.03344177
318.00 0.03355817
318.10 0.03366867
318.20 0.03377903
318.30 0.03388925
318.40 0.03400008
318.50 0.03411292
318.60 0.03422106
318.70 0.03432953
318.80 0.03445067
318.90 0.03455419
319.00 0.03467491
319.10 0.03478686
319.20 0.03489909
319.30 0.03501238
319.40 0.03512552
319.50 0.03523851
319.60 0.03535724
319.70 0.035473
319.80 0.0355886
319.90 0.03570405
320.00 0.03581711
320.10 0.03592758
320.20 0.03604504
320.30 0.03616517
320.40 0.0362752
320.50 0.03639661
320.60 0.0365151
320.70 0.03663044
320.80 0.03674701
320.90 0.03686492
321.00 0.03698267
321.10 0.03710028
321.20 0.03722236
321.30 0.03734401
321.40 0.0374655
321.50 0.03758683
321.60 0.037708
321.70 0.03782901
321.80 0.0379473
321.90 0.03806266
322.00 0.03818431
322.10 0.03830819
322.20 0.0384319
322.30 0.03855546
322.40 0.03867885
322.50 0.03880208
322.60 0.03892515
322.70 0.03904807
322.80 0.03917345
322.90 0.03929942
323.00 0.03942522
323.10 0.03955086
323.20 0.03967634
323.30 0.03980165
323.40 0.03992681
323.50 0.0400518
323.60 0.04017662
323.70 0.04030129
323.80 0.04042579
323.90 0.04055014
324.00 0.04067887
324.10 0.04080744
324.20 0.04093584
324.30 0.04106544
324.40 0.04119737
324.50 0.04132765
324.60 0.04145776
324.70 0.0415877
324.80 0.04171748
324.90 0.04184709
325.00 0.04197653
325.10 0.0421058
325.20 0.04223522
325.30 0.04236516
325.40 0.04249493
325.50 0.04262665
325.60 0.04276077
325.70 0.04289473
325.80 0.04302851
325.90 0.04316264
326.00 0.04329716
326.10 0.04343151
326.20 0.04356568
326.30 0.0436992
326.40 0.04383115
326.50 0.04397025
326.60 0.04410917
326.70 0.04424791
326.80 0.04438648
326.90 0.04452486
327.00 0.04466307
327.10 0.0448011
327.20 0.04493896
327.30 0.04507664
327.40 0.04521414
327.50 0.04535146
327.60 0.04548861
327.70 0.04562559
327.80 0.04576238
327.90 0.04589699
328.00 0.04603396
328.10 0.04617653
328.20 0.04631891
328.30 0.04646111
328.40 0.04660313
328.50 0.04674476
328.60 0.04688615
328.70 0.04702736
328.80 0.0471696
328.90 0.04731511
329.00 0.04746043
329.10 0.04760557
329.20 0.04775052
329.30 0.04789529
329.40 0.04803987
329.50 0.04818427
329.60 0.04832849
329.70 0.04847252
329.80 0.04861636
329.90 0.04876003
330.00 0.04890573
330.10 0.04905396
330.20 0.049202
330.30 0.04934985
330.40 0.04949913
330.50 0.04964995
330.60 0.04980058
330.70 0.04995102
330.80 0.05010128
330.90 0.05025134
331.00 0.0504012
331.10 0.05055088
331.20 0.05070037
331.30 0.05084967
331.40 0.05099878
331.50 0.0511486
331.60 0.05129933
331.70 0.05144987
331.80 0.05160643
331.90 0.05176304
332.00 0.05191945
332.10 0.05207567
332.20 0.05223169
332.30 0.05238751
332.40 0.05254314
332.50 0.05269857
332.60 0.0528538
332.70 0.05300884
332.80 0.05316368
332.90 0.05331832
333.00 0.05347277
333.10 0.05362958
333.20 0.0537893
333.30 0.05394883
333.40 0.05410815
333.50 0.05426727
333.60 0.05442619
333.70 0.05458491
333.80 0.05474343
333.90 0.05490176
334.00 0.05505988
334.10 0.05522019
334.20 0.05538321
334.30 0.05554602
334.40 0.05570864
334.50 0.05587104
334.60 0.05603325
334.70 0.05619415
334.80 0.05635538
334.90 0.05651911
335.00 0.05668264
335.10 0.05684359
335.20 0.05700984
335.30 0.0571793
335.40 0.05734645
335.50 0.05751076
335.60 0.05767749
335.70 0.05784033
335.80 0.05801059
335.90 0.05817944
336.00 0.05834665
336.10 0.05851365
336.20 0.05868043
336.30 0.05884897
336.40 0.0590197
336.50 0.05919022
336.60 0.05936052
336.70 0.05953061
336.80 0.05970048
336.90 0.05987078
337.00 0.06004164
337.10 0.06021229
337.20 0.06038273
337.30 0.06055508
337.40 0.06073029
337.50 0.06090528
337.60 0.06108005
337.70 0.06125461
337.80 0.06142895
337.90 0.06160329
338.00 0.06177767
338.10 0.06195185
338.20 0.0621258
338.30 0.06229954
338.40 0.06247485
338.50 0.06265432
338.60 0.06283357
338.70 0.0630126
338.80 0.06319141
338.90 0.06336999
339.00 0.06354835
339.10 0.0637265
339.20 0.06390441
339.30 0.06408415
339.40 0.06426658
339.50 0.06444971
339.60 0.06463371
339.70 0.06481749
339.80 0.06500105
339.90 0.06518437
340.00 0.06536747
340.10 0.06555034
340.20 0.06573299
340.30 0.06591541
340.40 0.0660976
340.50 0.06627957
340.60 0.06646132
340.70 0.06664284
340.80 0.06682757
340.90 0.06701702
341.00 0.0672059
341.10 0.06739414
341.20 0.06758214
341.30 0.06776991
341.40 0.06795745
341.50 0.06814475
341.60 0.06833183
341.70 0.06851867
341.80 0.06870733
341.90 0.06889826
342.00 0.06908895
342.10 0.06927941
342.20 0.06946897
342.30 0.06965991
342.40 0.06985221
342.50 0.07004507
342.60 0.07023769
342.70 0.07043007
342.80 0.07062222
342.90 0.07081413
343.00 0.07100743
343.10 0.0712025
343.20 0.07139732
343.30 0.0715919
343.40 0.07178825
343.50 0.07198722
343.60 0.07218595
343.70 0.07238444
343.80 0.07258268
343.90 0.07278068
344.00 0.07297844
344.10 0.07317595
344.20 0.07337323
344.30 0.07357026
344.40 0.07376909
344.50 0.07397063
344.60 0.07417396
344.70 0.07437002
344.80 0.0745758
344.90 0.07477611
345.00 0.07497666
345.10 0.07518169
345.20 0.07538647
345.30 0.075591
345.40 0.07579529
345.50 0.07599932
345.60 0.07620378
345.70 0.07640897
345.80 0.0766139
345.90 0.07681859
346.00 0.07702302
346.10 0.07722721
346.20 0.07743412
346.30 0.07764505
346.40 0.07785572
346.50 0.07806613
346.60 0.07827629
346.70 0.07848619
346.80 0.07869584
346.90 0.07890523
347.00 0.07911437
347.10 0.07932326
347.20 0.07953479
347.30 0.07975025
347.40 0.07996544
347.50 0.08018037
347.60 0.08039504
347.70 0.08060945
347.80 0.0808236
347.90 0.08103749
348.00 0.08125112
348.10 0.0814645
348.20 0.08167761
348.30 0.08189047
348.40 0.08210306
348.50 0.08231541
348.60 0.08252749
348.70 0.08274513
348.80 0.08296592
348.90 0.08318869
349.00 0.08341119
349.10 0.08363342
349.20 0.08385538
349.30 0.08407708
349.40 0.0842985
349.50 0.08451966
349.60 0.08474056
349.70 0.08496118
349.80 0.08518155
349.90 0.08540164
350.00 0.08562147
350.10 0.08584104
350.20 0.08606034
350.30 0.08628324
350.40 0.08651144
350.50 0.08673937
350.60 0.08696702
350.70 0.0871944
350.80 0.08742151
350.90 0.08764834
351.00 0.0878749
351.10 0.08810119
351.20 0.0883272
351.30 0.08855294
351.40 0.08878041
351.50 0.08901115
351.60 0.08924162
351.70 0.08947181
351.80 0.08970172
351.90 0.08993135
352.00 0.09016071
352.10 0.0903898
352.20 0.09062586
352.30 0.09086257
352.40 0.09109918
352.50 0.0913355
352.60 0.09157154
352.70 0.09180729
352.80 0.09204276
352.90 0.09227795
353.00 0.09251286
353.10 0.09274749
353.20 0.09298184
353.30 0.09321591
353.40 0.0934497
353.50 0.09368281
353.60 0.09391555
353.70 0.094148
353.80 0.09438018
353.90 0.09461584
354.00 0.0948579
354.10 0.09509967
354.20 0.09534115
354.30 0.09558234
354.40 0.09582325
354.50 0.09606387
354.60 0.0963042
354.70 0.09654424
354.80 0.09678578
354.90 0.09702959
355.00 0.0972731
355.10 0.09751633
355.20 0.09775927
355.30 0.09800882
355.40 0.09825808
355.50 0.09850705
355.60 0.09875571
355.70 0.09901604
355.80 0.09928143
355.90 0.09955115
356.00 0.09981031
356.10 0.1000645
356.20 0.1003185
356.30 0.1005721
356.40 0.1008255
356.50 0.1010785
356.60 0.1013312
356.70 0.1015837
356.80 0.1018358
356.90 0.1020877
357.00 0.1023392
357.10 0.1025904
357.20 0.1028414
357.30 0.103092
357.40 0.1033407
357.50 0.1035861
357.60 0.1038312
357.70 0.104076
357.80 0.1043541
357.90 0.1046318
358.00 0.1048953
358.10 0.105155
358.20 0.1054145
358.30 0.1056736
358.40 0.1059324
358.50 0.1061909
358.60 0.106449
358.70 0.1067069
358.80 0.1069645
358.90 0.1072218
359.00 0.1074834
359.10 0.1077528
359.20 0.1080201
359.30 0.1082748
359.40 0.1085292
359.50 0.1087934
359.60 0.1090598
359.70 0.1093259
359.80 0.1095769
359.90 0.1098275
360.00 0.1100883
360.10 0.1103671
360.20 0.1106456
360.30 0.1109238
360.40 0.1112017
360.50 0.1114792
360.60 0.1117257
360.70 0.1120049
360.80 0.1122838
360.90 0.1125624
361.00 0.1128348
361.10 0.1130894
361.20 0.1133191
361.30 0.1136554
361.40 0.1139051
361.50 0.1141999
361.60 0.1144663
361.70 0.1147649
361.80 0.1150474
361.90 0.1153016
362.00 0.1155554
362.10 0.115856
362.20 0.1161537
362.30 0.1164258
362.40 0.1166976
362.50 0.116969
362.60 0.1172402
362.70 0.1175425
362.80 0.1178075
362.90 0.1181003
363.00 0.1183928
363.10 0.1186558
363.20 0.1189183
363.30 0.1191874
363.40 0.1194579
363.50 0.1197729
363.60 0.1200652
363.70 0.1203372
363.80 0.1206487
363.90 0.1209229
364.00 0.1211968
364.10 0.1214704
364.20 0.1217437
364.30 0.1220619
364.40 0.1223911
364.50 0.1226839
364.60 0.1229716
364.70 0.123259
364.80 0.123546
364.90 0.1238339
365.00 0.1241214
365.10 0.1244087
365.20 0.1246512
365.30 0.1249821
365.40 0.1252683
365.50 0.1255542
365.60 0.1258397
365.70 0.126133
365.80 0.1264259
365.90 0.1267435
366.00 0.127067
366.10 0.1273665
366.20 0.1276656
366.30 0.1279644
366.40 0.1282629
366.50 0.1284802
366.60 0.1288533
366.70 0.1291498
366.80 0.129446
366.90 0.1297409
367.00 0.1300337
367.10 0.1303262
367.20 0.1306184
367.30 0.1309102
367.40 0.1312017
367.50 0.1315145
367.60 0.1318322
367.70 0.1321292
367.80 0.1324258
367.90 0.132722
368.00 0.1330317
368.10 0.1333919
368.20 0.1336976
368.30 0.1340024
368.40 0.1343069
368.50 0.134611
368.60 0.1349148
368.70 0.1352182
368.80 0.1355213
368.90 0.1358564
369.00 0.1361833
369.10 0.1364935
369.20 0.1367708
369.30 0.1370728
369.40 0.1373745
369.50 0.1376758
369.60 0.1379893
369.70 0.1383025
369.80 0.1386253
369.90 0.1389478
370.00 0.13927
370.10 0.1395602
370.20 0.1399152
370.30 0.1402713
370.40 0.1405406
370.50 0.1408539
370.60 0.1411646
370.70 0.1415235
370.80 0.1418326
370.90 0.1421415
371.00 0.1424537
371.10 0.1427657
371.20 0.1431162
371.30 0.1434663
371.40 0.1437945
371.50 0.1441164
371.60 0.1444379
371.70 0.1447591
371.80 0.1450799
371.90 0.1454003
372.00 0.1456683
372.10 0.1460174
372.20 0.1463519
372.30 0.1466861
372.40 0.1470199
372.50 0.1473533
372.60 0.1476863
372.70 0.1480189
372.80 0.1483209
372.90 0.1486225
373.00 0.1489699
373.10 0.1493173
373.20 0.1496622
373.30 0.1500068
373.40 0.1503509
373.50 0.1506522
373.60 0.1509532
373.70 0.1512962
373.80 0.1516654
373.90 0.1519811
374.00 0.152323
374.10 0.1526645
374.20 0.1530055
374.30 0.1533462
374.40 0.1536865
374.50 0.1540224
374.60 0.1543628
374.70 0.1547031
374.80 0.1550429
374.90 0.1553823
375.00 0.1557203
375.10 0.156058
375.20 0.1563952
375.30 0.1567441
375.40 0.1570925
375.50 0.1574406
375.60 0.1577883
375.70 0.1581356
375.80 0.1584825
375.90 0.158829
376.00 0.159159
376.10 0.1595117
376.20 0.1598642
376.30 0.1602164
376.40 0.1605681
376.50 0.1609176
376.60 0.1612638
376.70 0.1616096
376.80 0.1619533
376.90 0.1622947
377.00 0.1626357
377.10 0.1629763
377.20 0.1633194
377.30 0.1636732
377.40 0.1640266
377.50 0.1643796
377.60 0.1647438
377.70 0.1651075
377.80 0.1654708
377.90 0.1658337
378.00 0.1661778
378.10 0.1665398
378.20 0.1669019
378.30 0.1672636
378.40 0.1676249
378.50 0.1679858
378.60 0.1683463
378.70 0.1687064
378.80 0.1690661
378.90 0.169418
379.00 0.1697559
379.10 0.1701276
379.20 0.1704989
379.30 0.170865
379.40 0.1712258
379.50 0.1715863
379.60 0.1719595
379.70 0.172347
379.80 0.1727154
379.90 0.1730835
380.00 0.1734511
380.10 0.1738184
380.20 0.1741852
380.30 0.1745516
380.40 0.1749176
380.50 0.1752832
380.60 0.1756265
380.70 0.1759983
380.80 0.1763697
380.90 0.1767406
381.00 0.1771112
381.10 0.1775276
381.20 0.177921
381.30 0.1782777
381.40 0.178624
381.50 0.1790308
381.60 0.1794284
381.70 0.1797962
381.80 0.1801862
381.90 0.1805383
382.00 0.1808899
382.10 0.1812817
382.20 0.1816892
382.30 0.1820396
382.40 0.1824104
382.50 0.1828121
382.60 0.1832133
382.70 0.1835765
382.80 0.1839336
382.90 0.1843269
383.00 0.1847197
383.10 0.185112
383.20 0.1855043
383.30 0.1858971
383.40 0.1862778
383.50 0.1866406
383.60 0.1869904
383.70 0.1873908
383.80 0.1877907
383.90 0.1881902
384.00 0.1885893
384.10 0.188988
384.20 0.1893862
384.30 0.1897839
384.40 0.190176
384.50 0.1905623
384.60 0.1909482
384.70 0.1913337
384.80 0.1917146
384.90 0.192097
385.00 0.1925113
385.10 0.1929236
385.20 0.1932825
385.30 0.1936678
385.40 0.1940608
385.50 0.1944615
385.60 0.1948616
385.70 0.1952614
385.80 0.195663
385.90 0.1960729
386.00 0.1964804
386.10 0.196884
386.20 0.1972723
386.30 0.1976602
386.40 0.1980775
386.50 0.1984975
386.60 0.198905
386.70 0.199277
386.80 0.1996685
386.90 0.2000793
387.00 0.2005133
387.10 0.2008857
387.20 0.2013207
387.30 0.2017041
387.40 0.2021111
387.50 0.2025323
387.60 0.202916
387.70 0.2033429
387.80 0.2037693
387.90 0.2041953
388.00 0.2046053
388.10 0.205002
388.20 0.2054244
388.30 0.205842
388.40 0.2062591
388.50 0.2066614
388.60 0.2070465
388.70 0.2075038
388.80 0.2079068
388.90 0.2083135
389.00 0.2087062
389.10 0.2091448
389.20 0.2095389
389.30 0.2099667
389.40 0.2103793
389.50 0.2107932
389.60 0.2112134
389.70 0.2116441
389.80 0.2120654
389.90 0.2124864
390.00 0.2129068
390.10 0.2133268
390.20 0.2137463
390.30 0.2141668
390.40 0.2145884
390.50 0.2150095
390.60 0.2154302
390.70 0.2158504
390.80 0.2162897
390.90 0.216748
391.00 0.2171651
391.10 0.2175799
391.20 0.2179937
391.30 0.2184196
391.40 0.2188617
391.50 0.2193034
391.60 0.2197446
391.70 0.2201853
391.80 0.2206255
391.90 0.2210427
392.00 0.2214457
392.10 0.221866
392.20 0.2222966
392.30 0.2227708
392.40 0.223181
392.50 0.223629
392.60 0.2240911
392.70 0.2244759
392.80 0.224937
392.90 0.2253895
393.00 0.2258048
393.10 0.2262316
393.20 0.226673
393.30 0.2271317
393.40 0.2275765
393.50 0.2280381
393.60 0.2284283
393.70 0.228885
393.80 0.2293413
393.90 0.229797
394.00 0.2302451
394.10 0.2306616
394.20 0.2311246
394.30 0.231562
394.40 0.2319911
394.50 0.2324318
394.60 0.2329085
394.70 0.2333771
394.80 0.2338163
394.90 0.2342552
395.00 0.2347058
395.10 0.235177
395.20 0.2356254
395.30 0.2360737
395.40 0.2365215
395.50 0.2369592
395.60 0.2373929
395.70 0.2378371
395.80 0.238311
395.90 0.2387843
396.00 0.2392535
396.10 0.2396884
396.20 0.240133
396.30 0.2405771
396.40 0.2410207
396.50 0.2415269
396.60 0.2419817
396.70 0.2424298
396.80 0.2428756
396.90 0.2433274
397.00 0.2437831
397.10 0.2442859
397.20 0.2447222
397.30 0.245224
397.40 0.2456899
397.50 0.2461552
397.60 0.2466197
397.70 0.2470795
397.80 0.2475389
397.90 0.2479988
398.00 0.2484614
398.10 0.2489234
398.20 0.2493824
398.30 0.2498382
398.40 0.2502951
398.50 0.2508002
398.60 0.2512539
398.70 0.2517263
398.80 0.2522076
398.90 0.252688
399.00 0.2531672
399.10 0.2536143
399.20 0.2540835
399.30 0.2545522
399.40 0.2550204
399.50 0.2554881
399.60 0.2559699
399.70 0.2564567
399.80 0.2569429
399.90 0.2574286
400.00 0.2579124
400.10 0.2583523
400.20 0.2588577
400.30 0.2593291
400.40 0.2598124
400.50 0.2602775
400.60 0.2607527
400.70 0.2612492
400.80 0.2617522
400.90 0.2621989
401.00 0.262669
401.10 0.2631763
401.20 0.2636558
401.30 0.2641455
401.40 0.2646375
401.50 0.2651312
401.60 0.2656243
401.70 0.2661127
401.80 0.2666082
401.90 0.2670998
402.00 0.2675862
402.10 0.2680203
402.20 0.2685647
402.30 0.2690502
402.40 0.2695284
402.50 0.2700451
402.60 0.2705148
402.70 0.2710178
402.80 0.2715034
402.90 0.2719738
403.00 0.2724584
403.10 0.272957
403.20 0.2734954
403.30 0.2739756
403.40 0.2744627
403.50 0.2749619
403.60 0.2754658
403.70 0.2759956
403.80 0.2764595
403.90 0.2769823
404.00 0.2774931
404.10 0.2779866
404.20 0.2784649
404.30 0.2789427
404.40 0.2794693
404.50 0.2800052
404.60 0.2804815
404.70 0.2809933
404.80 0.2815236
404.90 0.2820154
405.00 0.2824736
405.10 0.2829941
405.20 0.2835239
405.30 0.2840531
405.40 0.2845612
405.50 0.2850687
405.60 0.2855758
405.70 0.2860822
405.80 0.2865882
405.90 0.2870936
406.00 0.2876024
406.10 0.2881106
406.20 0.2886183
406.30 0.2891255
406.40 0.2896342
406.50 0.2901524
406.60 0.2906882
406.70 0.2912028
406.80 0.2917022
406.90 0.29221
407.00 0.292731
407.10 0.2932514
407.20 0.2937713
407.30 0.2942906
407.40 0.2948094
407.50 0.2953277
407.60 0.2958454
407.70 0.2963625
407.80 0.2968792
407.90 0.2973964
408.00 0.29795
408.10 0.2984699
408.20 0.2989856
408.30 0.299533
408.40 0.3000798
408.50 0.3005457
408.60 0.3010855
408.70 0.3016247
408.80 0.3021596
408.90 0.3026696
409.00 0.3032007
409.10 0.3037313
409.20 0.3042612
409.30 0.3047907
409.40 0.3053202
409.50 0.3058695
409.60 0.3064182
409.70 0.3069633
409.80 0.3074956
409.90 0.3080274
410.00 0.3085608
410.10 0.3090555
410.20 0.3095834
410.30 0.3101192
410.40 0.3106561
410.50 0.311198
410.60 0.3117393
410.70 0.3122836
410.80 0.3128415
410.90 0.3133988
411.00 0.313945
411.10 0.3144867
411.20 0.3150279
411.30 0.3155613
411.40 0.3160672
411.50 0.3166299
411.60 0.3171921
411.70 0.3177502
411.80 0.3182939
411.90 0.318837
412.00 0.3193796
412.10 0.3199216
412.20 0.3204631
412.30 0.3210075
412.40 0.3215644
412.50 0.3220841
412.60 0.3226233
412.70 0.32319
412.80 0.3237632
412.90 0.324328
413.00 0.3248736
413.10 0.3254182
413.20 0.3259623
413.30 0.3265058
413.40 0.3270487
413.50 0.3275952
413.60 0.3281589
413.70 0.3287265
413.80 0.3292935
413.90 0.3298599
414.00 0.3304174
414.10 0.3309481
414.20 0.3315197
414.30 0.3320769
414.40 0.3326059
414.50 0.3331969
414.60 0.3337395
414.70 0.3343012
414.80 0.3348624
414.90 0.335423
415.00 0.335983
415.10 0.3365425
415.20 0.337108
415.30 0.337694
415.40 0.3382793
415.50 0.3388631
415.60 0.3394123
415.70 0.339961
415.80 0.3405168
415.90 0.3410959
416.00 0.3416744
416.10 0.3422514
416.20 0.3428244
416.30 0.3433968
416.40 0.3439686
416.50 0.3445392
416.60 0.3450899
416.70 0.3456442
416.80 0.3462255
416.90 0.3468424
417.00 0.3473994
417.10 0.3479722
417.20 0.3485534
417.30 0.349134
417.40 0.349711
417.50 0.3502873
417.60 0.3508653
417.70 0.3514509
417.80 0.3520286
417.90 0.3526057
418.00 0.3531822
418.10 0.3537581
418.20 0.3543334
418.30 0.354909
418.40 0.3555063
418.50 0.3560922
418.60 0.3566776
418.70 0.3572623
418.80 0.3578465
418.90 0.35843
419.00 0.359013
419.10 0.3595954
419.20 0.3601771
419.30 0.3607585
419.40 0.3613474
419.50 0.3619358
419.60 0.3625259
419.70 0.363125
419.80 0.3637235
419.90 0.364321
420.00 0.3649165
420.10 0.3655114
420.20 0.3661056
420.30 0.3666993
420.40 0.3672924
420.50 0.3678848
420.60 0.3684767
420.70 0.3690679
420.80 0.3696585
420.90 0.3702487
421.00 0.3708415
421.10 0.3714338
421.20 0.3720286
421.30 0.3726321
421.40 0.373235
421.50 0.3738373
421.60 0.3744389
421.70 0.37504
421.80 0.3756404
421.90 0.3762413
422.00 0.376845
422.10 0.377451
422.20 0.3780683
422.30 0.3786849
422.40 0.3793008
422.50 0.3799154
422.60 0.3805294
422.70 0.3811427
422.80 0.3817555
422.90 0.3823675
423.00 0.382979
423.10 0.3835899
423.20 0.3842001
423.30 0.3848097
423.40 0.3854187
423.50 0.3860271
423.60 0.3866349
423.70 0.387242
423.80 0.3878485
423.90 0.3884544
424.00 0.3890597
424.10 0.3896644
424.20 0.3902685
424.30 0.390872
424.40 0.3915074
424.50 0.3921324
424.60 0.3927568
424.70 0.3933806
424.80 0.3940038
424.90 0.3946263
425.00 0.3952482
425.10 0.3958694
425.20 0.3964901
425.30 0.3971101
425.40 0.3977311
425.50 0.3983625
425.60 0.3989932
425.70 0.3996234
425.80 0.4002528
425.90 0.4008817
426.00 0.4015099
426.10 0.4021375
426.20 0.4027644
426.30 0.4033907
426.40 0.4040164
426.50 0.4046415
426.60 0.4052659
426.70 0.4058897
426.80 0.4065128
426.90 0.407136
427.00 0.4077773
427.10 0.4084181
427.20 0.4090581
427.30 0.4096976
427.40 0.4103364
427.50 0.4109745
427.60 0.411612
427.70 0.4122489
427.80 0.4128852
427.90 0.4135207
428.00 0.4141557
428.10 0.41479
428.20 0.4154237
428.30 0.4160567
428.40 0.4166891
428.50 0.4173209
428.60 0.417952
428.70 0.4185825
428.80 0.4192143
428.90 0.4198708
429.00 0.4205266
429.10 0.4211818
429.20 0.4218363
429.30 0.4224902
429.40 0.4231434
429.50 0.4237959
429.60 0.4244478
429.70 0.4250991
429.80 0.4257497
429.90 0.4263996
430.00 0.4270489
430.10 0.4276975
430.20 0.4283455
430.30 0.4289929
430.40 0.4296396
430.50 0.4302856
430.60 0.430931
430.70 0.4315758
430.80 0.4322199
430.90 0.4328633
431.00 0.4335062
431.10 0.4341483
431.20 0.4347899
431.30 0.4354326
431.40 0.4360989
431.50 0.4367646
431.60 0.4374296
431.70 0.4380939
431.80 0.4387576
431.90 0.4394206
432.00 0.440083
432.10 0.4407447
432.20 0.4414057
432.30 0.4420661
432.40 0.4427258
432.50 0.4433849
432.60 0.4440433
432.70 0.444701
432.80 0.4453581
432.90 0.4460146
433.00 0.4466704
433.10 0.4473255
433.20 0.44798
433.30 0.4486356
433.40 0.4493152
433.50 0.4499942
433.60 0.4506724
433.70 0.45135
433.80 0.4520153
433.90 0.4526659
434.00 0.4533304
434.10 0.4540032
434.20 0.4546753
434.30 0.4553467
434.40 0.4560175
434.50 0.4566876
434.60 0.457357
434.70 0.4580258
434.80 0.458695
434.90 0.4593788
435.00 0.4600618
435.10 0.4607442
435.20 0.4614259
435.30 0.4621069
435.40 0.4627873
435.50 0.463467
435.60 0.464146
435.70 0.4648243
435.80 0.465502
435.90 0.466179
436.00 0.4668553
436.10 0.467531
436.20 0.468206
436.30 0.4688858
436.40 0.4695721
436.50 0.4702621
436.60 0.4709514
436.70 0.4716401
436.80 0.472328
436.90 0.4730153
437.00 0.4737019
437.10 0.4743878
437.20 0.4750771
437.30 0.4757694
437.40 0.4764608
437.50 0.4771501
437.60 0.4778386
437.70 0.4785265
437.80 0.4792137
437.90 0.4799002
438.00 0.4805869
438.10 0.4812856
438.20 0.4819836
438.30 0.4826606
438.40 0.4833445
438.50 0.4840475
438.60 0.4847498
438.70 0.4854514
438.80 0.4861523
438.90 0.4868525
439.00 0.487552
439.10 0.4882508
439.20 0.488949
439.30 0.4896464
439.40 0.4903432
439.50 0.4910393
439.60 0.4917405
439.70 0.4924738
439.80 0.4931682
439.90 0.4938657
440.00 0.4945625
440.10 0.4952587
440.20 0.4959551
440.30 0.4966641
440.40 0.4973723
440.50 0.4980798
440.60 0.4987867
440.70 0.4994928
440.80 0.5001983
440.90 0.500903
441.00 0.5016071
441.10 0.5023105
441.20 0.5030138
441.30 0.5037238
441.40 0.5044405
441.50 0.5051653
441.60 0.5058895
441.70 0.5066031
441.80 0.5073181
441.90 0.5080325
442.00 0.5087462
442.10 0.5094591
442.20 0.5101714
442.30 0.510883
442.40 0.5115983
442.50 0.5123185
442.60 0.513038
442.70 0.513758
442.80 0.5144777
442.90 0.5151766
443.00 0.5158919
443.10 0.5166275
443.20 0.5173434
443.30 0.5180411
443.40 0.5187529
443.50 0.5194819
443.60 0.5202432
443.70 0.5209482
443.80 0.521645
443.90 0.5224011
444.00 0.523116
444.10 0.5238408
444.20 0.5245528
444.30 0.5252834
444.40 0.5260078
444.50 0.5267316
444.60 0.5274554
444.70 0.5281796
444.80 0.5289079
444.90 0.52964
445.00 0.5303713
445.10 0.5311019
445.20 0.5318355
445.30 0.5325731
445.40 0.53331
445.50 0.5340462
445.60 0.5347817
445.70 0.5355164
445.80 0.5362537
445.90 0.5369932
446.00 0.537732
446.10 0.5384701
446.20 0.5391833
446.30 0.5399011
446.40 0.5406355
446.50 0.541373
446.60 0.5421098
446.70 0.5428459
446.80 0.5435967
446.90 0.544361
447.00 0.5450807
447.10 0.545814
447.20 0.5465465
447.30 0.5472902
447.40 0.5480378
447.50 0.5487682
447.60 0.5495165
447.70 0.5502812
447.80 0.5510209
447.90 0.5517837
448.00 0.5525377
448.10 0.5532834
448.20 0.5540285
448.30 0.5547728
448.40 0.5555164
448.50 0.5562592
448.60 0.5569984
448.70 0.557734
448.80 0.5584704
448.90 0.5592261
449.00 0.559981
449.10 0.5607352
449.20 0.5614886
449.30 0.5622593
449.40 0.5630016
449.50 0.5637433
449.60 0.564495
449.70 0.5652558
449.80 0.5660159
449.90 0.5667753
450.00 0.5675339
450.10 0.5682918
450.20 0.569049
450.30 0.5698054
450.40 0.5705638
450.50 0.5713215
450.60 0.5720784
450.70 0.5728346
450.80 0.5735901
450.90 0.5743449
451.00 0.5750992
451.10 0.5758529
451.20 0.5766184
451.30 0.5773954
451.40 0.5781562
451.50 0.5789163
451.60 0.5796757
451.70 0.5803763
451.80 0.5813371
451.90 0.5819493
452.00 0.5828506
452.10 0.583751
452.20 0.5845059
452.30 0.58526
452.40 0.5860134
452.50 0.5867661
452.60 0.5872877
452.70 0.5879345
452.80 0.5886967
452.90 0.5894581
453.00 0.5902188
453.10 0.5909788
453.20 0.5917738
453.30 0.5925681
453.40 0.5933617
453.50 0.5941545
453.60 0.5949465
453.70 0.5957378
453.80 0.5965043
453.90 0.5972406
454.00 0.5979763
454.10 0.5987113
454.20 0.5994947
454.30 0.6002774
454.40 0.6010593
454.50 0.6018405
454.60 0.602621
454.70 0.6034234
454.80 0.604246
454.90 0.6050679
455.00 0.6058889
455.10 0.6067092
455.20 0.6075287
455.30 0.6083474
455.40 0.6091654
455.50 0.6099825
455.60 0.6107989
455.70 0.6116145
455.80 0.6124154
455.90 0.6132156
456.00 0.614015
456.10 0.6148111
456.20 0.6155997
456.30 0.6163876
456.40 0.6171748
456.50 0.6179612
456.60 0.6187468
456.70 0.6195317
456.80 0.6203159
456.90 0.6210993
457.00 0.6218819
457.10 0.6226639
457.20 0.6234635
457.30 0.6242603
457.40 0.6250564
457.50 0.6258517
457.60 0.6266462
457.70 0.62744
457.80 0.6282331
457.90 0.6290254
458.00 0.6298169
458.10 0.6306077
458.20 0.6313977
458.30 0.632187
458.40 0.6329756
458.50 0.6337634
458.60 0.6345504
458.70 0.6353515
458.80 0.6361578
458.90 0.6369634
459.00 0.6377683
459.10 0.6385724
459.20 0.6393757
459.30 0.6401545
459.40 0.6409326
459.50 0.6417099
459.60 0.6424865
459.70 0.6432624
459.80 0.6440376
459.90 0.644812
460.00 0.6455856
460.10 0.6463586
460.20 0.6471308
460.30 0.6479023
460.40 0.648673
460.50 0.649443
460.60 0.6502123
460.70 0.6510301
460.80 0.6518715
460.90 0.6527121
461.00 0.6535519
461.10 0.6543909
461.20 0.65526
461.30 0.6561408
461.40 0.6569087
461.50 0.6576478
461.60 0.6583862
461.70 0.659124
461.80 0.6599649
461.90 0.6608051
462.00 0.6616445
462.10 0.6624831
462.20 0.663321
462.30 0.664158
462.40 0.6649942
462.50 0.6658297
462.60 0.6666644
462.70 0.6674983
462.80 0.6683314
462.90 0.6691637
463.00 0.6699953
463.10 0.670826
463.20 0.6716547
463.30 0.6724821
463.40 0.6733087
463.50 0.6741345
463.60 0.6749595
463.70 0.6757838
463.80 0.6766073
463.90 0.6774087
464.00 0.6782041
464.10 0.6789988
464.20 0.6797927
464.30 0.6805859
464.40 0.6813783
464.50 0.6821699
464.60 0.6829609
464.70 0.6838094
464.80 0.6846809
464.90 0.6855517
465.00 0.6864216
465.10 0.6872907
465.20 0.688159
465.30 0.6890072
465.40 0.6898418
465.50 0.6906757
465.60 0.6915087
465.70 0.692341
465.80 0.6931725
465.90 0.6939539
466.00 0.6947223
466.10 0.6954899
466.20 0.6962569
466.30 0.6970787
466.40 0.6979226
466.50 0.6987656
466.60 0.6996079
466.70 0.7004493
466.80 0.70129
466.90 0.7021299
467.00 0.702969
467.10 0.7038074
467.20 0.7046449
467.30 0.7055193
467.40 0.7063924
467.50 0.7072607
467.60 0.7081281
467.70 0.7089948
467.80 0.7098606
467.90 0.7106638
468.00 0.711441
468.10 0.7122175
468.20 0.7129932
468.30 0.7137683
468.40 0.7145426
468.50 0.7155076
468.60 0.7165381
468.70 0.7171736
468.80 0.7180829
468.90 0.7190171
469.00 0.719737
469.10 0.7205757
469.20 0.7214783
469.30 0.7223801
469.40 0.7232811
469.50 0.7241469
469.60 0.7249978
469.70 0.725848
469.80 0.7266973
469.90 0.7274533
470.00 0.7283236
470.10 0.7292158
470.20 0.7299961
470.30 0.7307756
470.40 0.7315544
470.50 0.7323325
470.60 0.7332011
470.70 0.7340916
470.80 0.7349814
470.90 0.7358703
471.00 0.7365812
471.10 0.7373846
471.20 0.7383722
471.30 0.7393912
471.40 0.7404092
471.50 0.7408938
471.60 0.7419102
471.70 0.7429256
471.80 0.7437274
471.90 0.7444753
472.00 0.7452225
472.10 0.745969
472.20 0.7468667
472.30 0.7478015
472.40 0.7487354
472.50 0.7496685
472.60 0.7506007
472.70 0.751472
472.80 0.7523188
472.90 0.7531651
473.00 0.7540107
473.10 0.7548554
473.20 0.7556994
473.30 0.7565425
473.40 0.7573849
473.50 0.7582266
473.60 0.7590674
473.70 0.7599075
473.80 0.760747
473.90 0.7615858
474.00 0.7624237
474.10 0.763261
474.20 0.7641649
474.30 0.7650955
474.40 0.7660252
474.50 0.7669541
474.60 0.7678734
474.70 0.7687028
474.80 0.7695314
474.90 0.7703593
475.00 0.7711864
475.10 0.7720128
475.20 0.7728383
475.30 0.7736632
475.40 0.7745517
475.50 0.7754554
475.60 0.7763584
475.70 0.7772605
475.80 0.7781618
475.90 0.7790623
476.00 0.7799619
476.10 0.7808608
476.20 0.7817465
476.30 0.7826264
476.40 0.7835055
476.50 0.7843838
476.60 0.7852613
476.70 0.786138
476.80 0.7870139
476.90 0.7878916
477.00 0.7887691
477.10 0.7896458
477.20 0.7905217
477.30 0.7913968
477.40 0.7922712
477.50 0.7931447
477.60 0.7940174
477.70 0.7948893
477.80 0.7957604
477.90 0.7966307
478.00 0.7975002
478.10 0.7983689
478.20 0.7992368
478.30 0.8001039
478.40 0.8009703
478.50 0.8018358
478.60 0.8027005
478.70 0.8036731
478.80 0.8046891
478.90 0.8055816
479.00 0.8064427
479.10 0.8073031
479.20 0.8081626
479.30 0.8090214
479.40 0.8098992
479.50 0.8107879
479.60 0.8116758
479.70 0.8125628
479.80 0.8134491
479.90 0.8143346
480.00 0.8152192
480.10 0.816103
480.20 0.8169861
480.30 0.8178683
480.40 0.8187497
480.50 0.8196303
480.60 0.8205101
480.70 0.8213891
480.80 0.8222673
480.90 0.8231447
481.00 0.8240213
481.10 0.8248971
481.20 0.8258171
481.30 0.8267362
481.40 0.8276545
481.50 0.828572
481.60 0.8294886
481.70 0.8304044
481.80 0.8313194
481.90 0.8322335
482.00 0.8331468
482.10 0.8340593
482.20 0.8349716
482.30 0.8358912
482.40 0.83681
482.50 0.8377279
482.60 0.838645
482.70 0.8395613
482.80 0.8404768
482.90 0.8413914
483.00 0.8423052
483.10 0.8432182
483.20 0.8441303
483.30 0.8450416
483.40 0.8459521
483.50 0.8468618
483.60 0.8477706
483.70 0.8486611
483.80 0.8495507
483.90 0.8504395
484.00 0.8513275
484.10 0.8522148
484.20 0.8531131
484.30 0.8540158
484.40 0.8549177
484.50 0.8558187
484.60 0.8567189
484.70 0.8576201
484.80 0.8585434
484.90 0.859466
485.00 0.8603876
485.10 0.8613085
485.20 0.8622285
485.30 0.8631477
485.40 0.8640661
485.50 0.8649836
485.60 0.8659003
485.70 0.8667833
485.80 0.8676654
485.90 0.8685468
486.00 0.8694274
486.10 0.8703071
486.20 0.8711861
486.30 0.8720643
486.40 0.8729417
486.50 0.8738183
486.60 0.8746941
486.70 0.8755772
486.80 0.8765675
486.90 0.8775569
487.00 0.8785455
487.10 0.8795331
487.20 0.8804496
487.30 0.8813652
487.40 0.8822801
487.50 0.8831941
487.60 0.8841072
487.70 0.8850196
487.80 0.8859311
487.90 0.8868418
488.00 0.8877517
488.10 0.8886608
488.20 0.8895691
488.30 0.8904777
488.40 0.8913855
488.50 0.8922924
488.60 0.8931986
488.70 0.8941039
488.80 0.8950131
488.90 0.8959214
489.00 0.896834
489.10 0.8977587
489.20 0.8986826
489.30 0.8996057
489.40 0.9005279
489.50 0.9014493
489.60 0.9023699
489.70 0.9032896
489.80 0.904003
489.90 0.9049959
490.00 0.9059878
490.10 0.9069789
490.20 0.9079692
490.30 0.9089585
490.40 0.9098183
490.50 0.9106773
490.60 0.9115356
490.70 0.9123931
490.80 0.913592
490.90 0.914597
491.00 0.9154519
491.10 0.9163061
491.20 0.9171595
491.30 0.9180122
491.40 0.9191733
491.50 0.9197152
491.60 0.9207386
491.70 0.9216697
491.80 0.9226047
491.90 0.9236012
492.00 0.9247783
492.10 0.9256245
492.20 0.9264699
492.30 0.9273146
492.40 0.9281689
492.50 0.9291602
492.60 0.9303318
492.70 0.9311732
492.80 0.9320139
492.90 0.9328538
493.00 0.9337018
493.10 0.9346674
493.20 0.9356322
493.30 0.936596
493.40 0.9375591
493.50 0.9385212
493.60 0.9396873
493.70 0.9405751
493.80 0.9414621
493.90 0.9424026
494.00 0.943427
494.10 0.9444146
494.20 0.9453248
494.30 0.9462343
494.40 0.9471429
494.50 0.9480507
494.60 0.9489609
494.70 0.9499134
494.80 0.9508649
494.90 0.9518149
495.00 0.952764
495.10 0.9537123
495.20 0.9546735
495.30 0.9556339
495.40 0.9565934
495.50 0.9575521
495.60 0.9585099
495.70 0.9594668
495.80 0.960423
495.90 0.9613782
496.00 0.9623326
496.10 0.9632263
496.20 0.9640021
496.30 0.9649125
496.40 0.965822
496.50 0.9667308
496.60 0.9676387
496.70 0.9686016
496.80 0.9695637
496.90 0.9705249
497.00 0.9714853
497.10 0.9724448
497.20 0.9734035
497.30 0.9743491
497.40 0.9752592
497.50 0.9761686
497.60 0.9771503
497.70 0.978272
497.80 0.9791956
497.90 0.9801184
498.00 0.9810404
498.10 0.9819616
498.20 0.9828819
498.30 0.9838014
498.40 0.9847201
498.50 0.985638
498.60 0.9865551
498.70 0.9875873
498.80 0.9886186
498.90 0.9896439
499.00 0.9906682
499.10 0.9916917
499.20 0.99269
499.30 0.9936109
499.40 0.9944591
499.50 0.9953064
499.60 0.996153
499.70 0.9970095
499.80 0.9980072
499.90 0.9990041
500.00 1
500.10 1.000995
500.20 1.001972
500.30 1.002911
500.40 1.00385
500.50 1.004788
500.60 1.005725
500.70 1.006661
500.80 1.007623
500.90 1.008642
501.00 1.009659
501.10 1.010676
501.20 1.011668
501.30 1.012677
501.40 1.013611
501.50 1.014383
501.60 1.015578
501.70 1.016396
501.80 1.017241
501.90 1.018246
502.00 1.019266
502.10 1.020321
502.20 1.021366
502.30 1.0223
502.40 1.023229
502.50 1.02415
502.60 1.025071
502.70 1.02599
502.80 1.026909
502.90 1.027826
503.00 1.028761
503.10 1.029735
503.20 1.030707
503.30 1.031679
503.40 1.032643
503.50 1.033586
503.60 1.034528
503.70 1.03547
503.80 1.036435
503.90 1.037578
504.00 1.038663
504.10 1.039628
504.20 1.040591
504.30 1.041554
504.40 1.042522
504.50 1.043504
504.60 1.044425
504.70 1.045172
504.80 1.046303
504.90 1.047131
505.00 1.047937
505.10 1.048914
505.20 1.049895
505.30 1.050892
505.40 1.051887
505.50 1.052882
505.60 1.053865
505.70 1.054823
505.80 1.05578
505.90 1.056736
506.00 1.057692
506.10 1.058647
506.20 1.059606
506.30 1.060583
506.40 1.061558
506.50 1.062532
506.60 1.063506
506.70 1.064478
506.80 1.06545
506.90 1.066421
507.00 1.067391
507.10 1.068471
507.20 1.069694
507.30 1.070652
507.40 1.071609
507.50 1.072566
507.60 1.073521
507.70 1.074476
507.80 1.07543
507.90 1.076383
508.00 1.077336
508.10 1.078287
508.20 1.079238
508.30 1.080188
508.40 1.081137
508.50 1.082085
508.60 1.083032
508.70 1.083979
508.80 1.085025
508.90 1.086034
509.00 1.086929
509.10 1.087861
509.20 1.088872
509.30 1.089882
509.40 1.090892
509.50 1.0919
509.60 1.092908
509.70 1.093915
509.80 1.094921
509.90 1.095926
510.00 1.09693
510.10 1.097933
510.20 1.098936
510.30 1.09993
510.40 1.100904
510.50 1.101877
510.60 1.102848
510.70 1.10382
510.80 1.10479
510.90 1.105759
511.00 1.106728
511.10 1.107695
511.20 1.108662
511.30 1.109628
511.40 1.110593
511.50 1.111558
511.60 1.112525
511.70 1.113499
511.80 1.114472
511.90 1.115444
512.00 1.116415
512.10 1.117386
512.20 1.118356
512.30 1.119331
512.40 1.120323
512.50 1.121315
512.60 1.122306
512.70 1.123296
512.80 1.124285
512.90 1.125274
513.00 1.126261
513.10 1.127248
513.20 1.128234
513.30 1.129218
513.40 1.130203
513.50 1.131186
513.60 1.132168
513.70 1.13315
513.80 1.13413
513.90 1.13511
514.00 1.136112
514.10 1.137116
514.20 1.13812
514.30 1.139122
514.40 1.140124
514.50 1.141125
514.60 1.142125
514.70 1.143125
514.80 1.144123
514.90 1.145121
515.00 1.146117
515.10 1.147113
515.20 1.148108
515.30 1.149102
515.40 1.150095
515.50 1.151088
515.60 1.152079
515.70 1.15307
515.80 1.15406
515.90 1.155049
516.00 1.156037
516.10 1.157024
516.20 1.158011
516.30 1.158996
516.40 1.159981
516.50 1.160968
516.60 1.161968
516.70 1.162968
516.80 1.163967
516.90 1.164966
517.00 1.165963
517.10 1.16696
517.20 1.167955
517.30 1.16895
517.40 1.169944
517.50 1.170937
517.60 1.171929
517.70 1.172921
517.80 1.173911
517.90 1.174901
518.00 1.17589
518.10 1.176878
518.20 1.177865
518.30 1.178851
518.40 1.179837
518.50 1.180821
518.60 1.181805
518.70 1.182788
518.80 1.18377
518.90 1.184751
519.00 1.185731
519.10 1.186732
519.20 1.187755
519.30 1.188778
519.40 1.189799
519.50 1.19082
519.60 1.191839
519.70 1.192858
519.80 1.193876
519.90 1.194893
520.00 1.195909
520.10 1.196925
520.20 1.197939
520.30 1.198953
520.40 1.199966
520.50 1.200978
520.60 1.201989
520.70 1.202999
520.80 1.204008
520.90 1.205016
521.00 1.206024
521.10 1.207031
521.20 1.208037
521.30 1.209042
521.40 1.210046
521.50 1.211049
521.60 1.212051
521.70 1.213053
521.80 1.214054
521.90 1.215053
522.00 1.216052
522.10 1.217051
522.20 1.218048
522.30 1.219044
522.40 1.22004
522.50 1.221035
522.60 1.222028
522.70 1.223021
522.80 1.224014
522.90 1.225005
523.00 1.225995
523.10 1.226985
523.20 1.227974
523.30 1.228962
523.40 1.229949
523.50 1.230935
523.60 1.23192
523.70 1.232905
523.80 1.233889
523.90 1.234872
524.00 1.235854
524.10 1.236835
524.20 1.237815
524.30 1.238819
524.40 1.239841
524.50 1.240862
524.60 1.241883
524.70 1.242902
524.80 1.243921
524.90 1.244938
525.00 1.245955
525.10 1.246971
525.20 1.247986
525.30 1.249
525.40 1.250014
525.50 1.251026
525.60 1.252038
525.70 1.253049
525.80 1.254059
525.90 1.255068
526.00 1.256076
526.10 1.257083
526.20 1.25809
526.30 1.259095
526.40 1.2601
526.50 1.261104
526.60 1.262107
526.70 1.26311
526.80 1.264111
526.90 1.265111
527.00 1.266111
527.10 1.26711
527.20 1.268108
527.30 1.269105
527.40 1.270101
527.50 1.271097
527.60 1.272091
527.70 1.273085
527.80 1.274078
527.90 1.27507
528.00 1.276061
528.10 1.277052
528.20 1.278041
528.30 1.27903
528.40 1.280018
528.50 1.281005
528.60 1.281991
528.70 1.282976
528.80 1.283961
528.90 1.284944
529.00 1.285927
529.10 1.286909
529.20 1.28789
529.30 1.288871
529.40 1.28985
529.50 1.290836
529.60 1.291862
529.70 1.292888
529.80 1.293913
529.90 1.294937
530.00 1.29596
530.10 1.296983
530.20 1.298004
530.30 1.299025
530.40 1.300044
530.50 1.301063
530.60 1.302081
530.70 1.303098
530.80 1.304115
530.90 1.30513
531.00 1.306145
531.10 1.307158
531.20 1.308171
531.30 1.309183
531.40 1.310194
531.50 1.311205
531.60 1.312214
531.70 1.313223
531.80 1.31423
531.90 1.315237
532.00 1.316243
532.10 1.317249
532.20 1.318264
532.30 1.319284
532.40 1.320302
532.50 1.321321
532.60 1.322338
532.70 1.323354
532.80 1.32437
532.90 1.325385
533.00 1.326398
533.10 1.327411
533.20 1.328423
533.30 1.329435
533.40 1.330445
533.50 1.331455
533.60 1.332463
533.70 1.333471
533.80 1.334478
533.90 1.335485
534.00 1.33649
534.10 1.337494
534.20 1.338498
534.30 1.339501
534.40 1.340503
534.50 1.341504
534.60 1.342504
534.70 1.343504
534.80 1.34451
534.90 1.345546
535.00 1.346582
535.10 1.347617
535.20 1.348651
535.30 1.349685
535.40 1.350717
535.50 1.351748
535.60 1.352779
535.70 1.353809
535.80 1.354838
535.90 1.355866
536.00 1.356893
536.10 1.35792
536.20 1.358945
536.30 1.35997
536.40 1.360993
536.50 1.362016
536.60 1.363038
536.70 1.36406
536.80 1.36508
536.90 1.3661
537.00 1.367118
537.10 1.368136
537.20 1.369153
537.30 1.370169
537.40 1.371184
537.50 1.372199
537.60 1.373212
537.70 1.374225
537.80 1.375237
537.90 1.376248
538.00 1.377258
538.10 1.378267
538.20 1.379276
538.30 1.380283
538.40 1.38129
538.50 1.382296
538.60 1.383301
538.70 1.384305
538.80 1.385309
538.90 1.386311
539.00 1.387313
539.10 1.388314
539.20 1.389314
539.30 1.390313
539.40 1.391311
539.50 1.392309
539.60 1.393306
539.70 1.394301
539.80 1.395296
539.90 1.396291
540.00 1.397284
540.10 1.398277
540.20 1.3993
540.30 1.400337
540.40 1.401372
540.50 1.402406
540.60 1.40344
540.70 1.404472
540.80 1.405504
540.90 1.406535
541.00 1.407565
541.10 1.408594
541.20 1.409623
541.30 1.41065
541.40 1.411677
541.50 1.412703
541.60 1.413728
541.70 1.414752
541.80 1.415775
541.90 1.416798
542.00 1.417819
542.10 1.41884
542.20 1.41986
542.30 1.420879
542.40 1.421897
542.50 1.422914
542.60 1.423931
542.70 1.424946
542.80 1.425961
542.90 1.426975
543.00 1.427988
543.10 1.429
543.20 1.430012
543.30 1.431022
543.40 1.432032
543.50 1.433041
543.60 1.434049
543.70 1.435056
543.80 1.436062
543.90 1.437068
544.00 1.438073
544.10 1.439076
544.20 1.44008
544.30 1.441082
544.40 1.442083
544.50 1.443084
544.60 1.444083
544.70 1.445082
544.80 1.44608
544.90 1.447077
545.00 1.448074
545.10 1.449069
545.20 1.450064
545.30 1.451058
545.40 1.452051
545.50 1.453043
545.60 1.454059
545.70 1.455086
545.80 1.456111
545.90 1.457136
546.00 1.458159
546.10 1.459182
546.20 1.460204
546.30 1.461225
546.40 1.462245
546.50 1.463265
546.60 1.464283
546.70 1.465301
546.80 1.466318
546.90 1.467334
547.00 1.468349
547.10 1.469364
547.20 1.470377
547.30 1.47139
547.40 1.472402
547.50 1.473413
547.60 1.474423
547.70 1.475432
547.80 1.476441
547.90 1.477449
548.00 1.478455
548.10 1.479461
548.20 1.480467
548.30 1.481477
548.40 1.482496
548.50 1.483514
548.60 1.48453
548.70 1.485546
548.80 1.486562
548.90 1.487576
549.00 1.488589
549.10 1.489602
549.20 1.490614
549.30 1.491625
549.40 1.492635
549.50 1.493644
549.60 1.494653
549.70 1.49566
549.80 1.496667
549.90 1.497673
550.00 1.498678
550.10 1.499683
550.20 1.500686
550.30 1.501689
550.40 1.502691
550.50 1.503692
550.60 1.504692
550.70 1.505691
550.80 1.50669
550.90 1.507687
551.00 1.508688
551.10 1.509711
551.20 1.510733
551.30 1.511754
551.40 1.512774
551.50 1.513794
551.60 1.514812
551.70 1.51583
551.80 1.516847
551.90 1.517863
552.00 1.518879
552.10 1.519893
552.20 1.520907
552.30 1.521919
552.40 1.522931
552.50 1.523942
552.60 1.524953
552.70 1.525962
552.80 1.526971
552.90 1.527978
553.00 1.528985
553.10 1.529991
553.20 1.530997
553.30 1.532001
553.40 1.533005
553.50 1.534008
553.60 1.53501
553.70 1.536011
553.80 1.537028
553.90 1.538055
554.00 1.539082
554.10 1.540108
554.20 1.541133
554.30 1.542157
554.40 1.54318
554.50 1.544203
554.60 1.545225
554.70 1.546245
554.80 1.547265
554.90 1.548284
555.00 1.549303
555.10 1.55032
555.20 1.551337
555.30 1.552353
555.40 1.553368
555.50 1.554382
555.60 1.555395
555.70 1.556407
555.80 1.557419
555.90 1.55843
556.00 1.55944
556.10 1.560449
556.20 1.561457
556.30 1.562465
556.40 1.563472
556.50 1.564479
556.60 1.565509
556.70 1.566539
556.80 1.567568
556.90 1.568597
557.00 1.569624
557.10 1.570651
557.20 1.571676
557.30 1.572701
557.40 1.573725
557.50 1.574748
557.60 1.575771
557.70 1.576792
557.80 1.577813
557.90 1.578833
558.00 1.579852
558.10 1.58087
558.20 1.581887
558.30 1.582904
558.40 1.58392
558.50 1.584934
558.60 1.585948
558.70 1.586962
558.80 1.587974
558.90 1.588986
559.00 1.589996
559.10 1.591006
559.20 1.592015
559.30 1.593024
559.40 1.594031
559.50 1.595038
559.60 1.596043
559.70 1.597048
559.80 1.598053
559.90 1.599056
560.00 1.600058
560.10 1.60106
560.20 1.602061
560.30 1.603061
560.40 1.60406
560.50 1.605059
560.60 1.606056
560.70 1.607053
560.80 1.608049
560.90 1.609044
561.00 1.610039
561.10 1.611032
561.20 1.612025
561.30 1.613017
561.40 1.614008
561.50 1.614998
561.60 1.615988
561.70 1.616977
561.80 1.617965
561.90 1.618952
562.00 1.619938
562.10 1.620938
562.20 1.621961
562.30 1.622982
562.40 1.624002
562.50 1.625022
562.60 1.626041
562.70 1.627059
562.80 1.628076
562.90 1.629092
563.00 1.630108
563.10 1.631123
563.20 1.632136
563.30 1.633149
563.40 1.634162
563.50 1.635173
563.60 1.636184
563.70 1.637193
563.80 1.638202
563.90 1.639211
564.00 1.640218
564.10 1.641224
564.20 1.64223
564.30 1.643235
564.40 1.644239
564.50 1.645242
564.60 1.646245
564.70 1.647246
564.80 1.648247
564.90 1.649251
565.00 1.650264
565.10 1.651276
565.20 1.652287
565.30 1.653298
565.40 1.654307
565.50 1.655316
565.60 1.656324
565.70 1.657331
565.80 1.658338
565.90 1.659343
566.00 1.660348
566.10 1.661352
566.20 1.662355
566.30 1.663358
566.40 1.664359
566.50 1.66536
566.60 1.66636
566.70 1.667359
566.80 1.668357
566.90 1.669354
567.00 1.670351
567.10 1.671347
567.20 1.672342
567.30 1.673336
567.40 1.67433
567.50 1.675322
567.60 1.676314
567.70 1.677311
567.80 1.67833
567.90 1.679349
568.00 1.680367
568.10 1.681384
568.20 1.682401
568.30 1.683416
568.40 1.684431
568.50 1.685445
568.60 1.686458
568.70 1.68747
568.80 1.688481
568.90 1.689492
569.00 1.690502
569.10 1.691511
569.20 1.692519
569.30 1.693526
569.40 1.694533
569.50 1.695538
569.60 1.696543
569.70 1.697548
569.80 1.698551
569.90 1.699553
570.00 1.700555
570.10 1.701556
570.20 1.702556
570.30 1.703555
570.40 1.704554
570.50 1.705551
570.60 1.706548
570.70 1.707544
570.80 1.708539
570.90 1.709534
571.00 1.710527
571.10 1.71152
571.20 1.712512
571.30 1.713504
571.40 1.714494
571.50 1.715484
571.60 1.716473
571.70 1.717461
571.80 1.718448
571.90 1.719434
572.00 1.72042
572.10 1.721405
572.20 1.722389
572.30 1.723372
572.40 1.724355
572.50 1.725336
572.60 1.726317
572.70 1.727297
572.80 1.728277
572.90 1.729255
573.00 1.730233
573.10 1.73121
573.20 1.732186
573.30 1.733161
573.40 1.734149
573.50 1.735154
573.60 1.736158
573.70 1.737161
573.80 1.738163
573.90 1.739164
574.00 1.740165
574.10 1.741165
574.20 1.742164
574.30 1.743162
574.40 1.74416
574.50 1.745156
574.60 1.746152
574.70 1.747147
574.80 1.748142
574.90 1.749135
575.00 1.750128
575.10 1.75112
575.20 1.752111
575.30 1.753101
575.40 1.754091
575.50 1.755079
575.60 1.756067
575.70 1.757054
575.80 1.758041
575.90 1.759026
576.00 1.760011
576.10 1.760995
576.20 1.761978
576.30 1.76296
576.40 1.763942
576.50 1.764923
576.60 1.765903
576.70 1.766882
576.80 1.76786
576.90 1.768838
577.00 1.769815
577.10 1.770791
577.20 1.771766
577.30 1.772741
577.40 1.773715
577.50 1.774688
577.60 1.775665
577.70 1.776651
577.80 1.777636
577.90 1.778621
578.00 1.779604
578.10 1.780587
578.20 1.781569
578.30 1.78255
578.40 1.78353
578.50 1.78451
578.60 1.785489
578.70 1.786467
578.80 1.787444
578.90 1.78842
579.00 1.789396
579.10 1.790375
579.20 1.791392
579.30 1.792408
579.40 1.793424
579.50 1.794438
579.60 1.795452
579.70 1.796465
579.80 1.797477
579.90 1.798489
580.00 1.799499
580.10 1.800498
580.20 1.801477
580.30 1.802455
580.40 1.803433
580.50 1.80441
580.60 1.805386
580.70 1.806362
580.80 1.807336
580.90 1.80831
581.00 1.809283
581.10 1.810256
581.20 1.811227
581.30 1.812198
581.40 1.813168
581.50 1.814137
581.60 1.815105
581.70 1.816073
581.80 1.81704
581.90 1.818006
582.00 1.818971
582.10 1.819942
582.20 1.820924
582.30 1.821904
582.40 1.822884
582.50 1.823863
582.60 1.824841
582.70 1.825818
582.80 1.826795
582.90 1.827771
583.00 1.828746
583.10 1.82972
583.20 1.830693
583.30 1.831666
583.40 1.832638
583.50 1.833609
583.60 1.834582
583.70 1.835559
583.80 1.836535
583.90 1.837511
584.00 1.838485
584.10 1.839459
584.20 1.840432
584.30 1.841405
584.40 1.842376
584.50 1.843347
584.60 1.844317
584.70 1.845286
584.80 1.846255
584.90 1.847224
585.00 1.848198
585.10 1.849172
585.20 1.850152
585.30 1.851144
585.40 1.852135
585.50 1.853125
585.60 1.854114
585.70 1.855103
585.80 1.856091
585.90 1.857078
586.00 1.858064
586.10 1.85905
586.20 1.86003
586.30 1.861003
586.40 1.861975
586.50 1.862946
586.60 1.863916
586.70 1.864885
586.80 1.865832
586.90 1.866743
587.00 1.867653
587.10 1.868562
587.20 1.869535
587.30 1.870615
587.40 1.871367
587.50 1.872428
587.60 1.873505
587.70 1.874426
587.80 1.875313
587.90 1.876388
588.00 1.877396
588.10 1.878298
588.20 1.879199
588.30 1.880099
588.40 1.881042
588.50 1.882055
588.60 1.883067
588.70 1.884078
588.80 1.885088
588.90 1.886098
589.00 1.887089
589.10 1.888052
589.20 1.889013
589.30 1.889974
589.40 1.890934
589.50 1.891894
589.60 1.892852
589.70 1.89381
589.80 1.894768
589.90 1.895724
590.00 1.896677
590.10 1.897626
590.20 1.898574
590.30 1.899521
590.40 1.900467
590.50 1.901412
590.60 1.902357
590.70 1.903301
590.80 1.904247
590.90 1.905194
591.00 1.90614
591.10 1.907085
591.20 1.908029
591.30 1.908973
591.40 1.909915
591.50 1.910857
591.60 1.911812
591.70 1.912789
591.80 1.913765
591.90 1.91474
592.00 1.915714
592.10 1.916688
592.20 1.917661
592.30 1.918633
592.40 1.919604
592.50 1.920575
592.60 1.921545
592.70 1.922514
592.80 1.923482
592.90 1.924449
593.00 1.925416
593.10 1.926376
593.20 1.927324
593.30 1.928272
593.40 1.929219
593.50 1.930165
593.60 1.93111
593.70 1.932055
593.80 1.932999
593.90 1.933942
594.00 1.934884
594.10 1.935826
594.20 1.936767
594.30 1.937707
594.40 1.938646
594.50 1.939585
594.60 1.940523
594.70 1.94146
594.80 1.942397
594.90 1.943333
595.00 1.944268
595.10 1.945211
595.20 1.946169
595.30 1.947126
595.40 1.948082
595.50 1.949037
595.60 1.949992
595.70 1.950946
595.80 1.951899
595.90 1.952851
596.00 1.953803
596.10 1.954754
596.20 1.955704
596.30 1.956654
596.40 1.957602
596.50 1.95855
596.60 1.959498
596.70 1.960454
596.80 1.961415
596.90 1.962376
597.00 1.963336
597.10 1.964296
597.20 1.965254
597.30 1.966212
597.40 1.967169
597.50 1.968125
597.60 1.969076
597.70 1.970019
597.80 1.970961
597.90 1.971902
598.00 1.972842
598.10 1.973782
598.20 1.974721
598.30 1.975659
598.40 1.976596
598.50 1.977533
598.60 1.978469
598.70 1.979404
598.80 1.980338
598.90 1.981272
599.00 1.982205
599.10 1.983137
599.20 1.984069
599.30 1.985
599.40 1.985935
599.50 1.98687
599.60 1.987804
599.70 1.988738
599.80 1.98967
599.90 1.990602
600.00 1.991534
600.10 1.992464
600.20 1.993394
600.30 1.994323
600.40 1.995251
600.50 1.996179
600.60 1.997105
600.70 1.998032
600.80 1.998957
600.90 1.999882
601.00 2.000806
601.10 2.001729
601.20 2.002651
601.30 2.003573
601.40 2.004512
601.50 2.00545
601.60 2.006387
601.70 2.007324
601.80 2.008259
601.90 2.009195
602.00 2.010129
602.10 2.011062
602.20 2.011995
602.30 2.012928
602.40 2.013859
602.50 2.01479
602.60 2.01572
602.70 2.016718
602.80 2.01772
602.90 2.018638
603.00 2.019556
603.10 2.020472
603.20 2.021388
603.30 2.022304
603.40 2.023218
603.50 2.024132
603.60 2.025046
603.70 2.025958
603.80 2.02687
603.90 2.027781
604.00 2.028691
604.10 2.029601
604.20 2.03051
604.30 2.031418
604.40 2.032326
604.50 2.033273
604.60 2.034219
604.70 2.035165
604.80 2.03611
604.90 2.037055
605.00 2.037998
605.10 2.038941
605.20 2.039883
605.30 2.040825
605.40 2.041765
605.50 2.042651
605.60 2.043537
605.70 2.044421
605.80 2.045305
605.90 2.046189
606.00 2.047071
606.10 2.048007
606.20 2.048942
606.30 2.049876
606.40 2.05081
606.50 2.051742
606.60 2.052674
606.70 2.053606
606.80 2.054536
606.90 2.055466
607.00 2.056395
607.10 2.057324
607.20 2.058251
607.30 2.059178
607.40 2.060104
607.50 2.06103
607.60 2.061955
607.70 2.062879
607.80 2.063802
607.90 2.064725
608.00 2.065647
608.10 2.066568
608.20 2.067488
608.30 2.068367
608.40 2.069245
608.50 2.070123
608.60 2.071
608.70 2.071887
608.80 2.072778
608.90 2.073668
609.00 2.074558
609.10 2.075446
609.20 2.076335
609.30 2.077247
609.40 2.078159
609.50 2.079071
609.60 2.079981
609.70 2.080891
609.80 2.0818
609.90 2.082709
610.00 2.083616
610.10 2.084523
610.20 2.08543
610.30 2.086335
610.40 2.08724
610.50 2.088145
610.60 2.089048
610.70 2.089951
610.80 2.090853
610.90 2.091776
611.00 2.092697
611.10 2.093618
611.20 2.094539
611.30 2.095459
611.40 2.096378
611.50 2.097296
611.60 2.098213
611.70 2.09913
611.80 2.100046
611.90 2.100962
612.00 2.101876
612.10 2.10279
612.20 2.103704
612.30 2.104616
612.40 2.105507
612.50 2.106397
612.60 2.107287
612.70 2.108175
612.80 2.109063
612.90 2.109951
613.00 2.110838
613.10 2.111724
613.20 2.112609
613.30 2.113493
613.40 2.114377
613.50 2.115261
613.60 2.116143
613.70 2.117025
613.80 2.117906
613.90 2.118787
614.00 2.119666
614.10 2.120545
614.20 2.121424
614.30 2.122302
614.40 2.123265
614.50 2.124228
614.60 2.12519
614.70 2.126151
614.80 2.127051
614.90 2.127937
615.00 2.128823
615.10 2.129708
615.20 2.130592
615.30 2.131475
615.40 2.132358
615.50 2.13324
615.60 2.134122
615.70 2.135003
615.80 2.135883
615.90 2.136762
616.00 2.137641
616.10 2.138519
616.20 2.139396
616.30 2.140273
616.40 2.141149
616.50 2.142024
616.60 2.142899
616.70 2.143773
616.80 2.144646
616.90 2.145543
617.00 2.146439
617.10 2.147334
617.20 2.148229
617.30 2.149123
617.40 2.150016
617.50 2.150908
617.60 2.1518
617.70 2.152691
617.80 2.153582
617.90 2.154472
618.00 2.155361
618.10 2.156249
618.20 2.157137
618.30 2.158024
618.40 2.15891
618.50 2.159796
618.60 2.16068
618.70 2.161565
618.80 2.162448
618.90 2.163331
619.00 2.164213
619.10 2.165095
619.20 2.165976
619.30 2.166856
619.40 2.167735
619.50 2.168614
619.60 2.169492
619.70 2.17037
619.80 2.171246
619.90 2.172123
620.00 2.172998
620.10 2.173873
620.20 2.174747
620.30 2.17562
620.40 2.176493
620.50 2.177365
620.60 2.178236
620.70 2.179107
620.80 2.179977
620.90 2.18085
621.00 2.18173
621.10 2.182608
621.20 2.183487
621.30 2.184364
621.40 2.185241
621.50 2.186117
621.60 2.186993
621.70 2.187868
621.80 2.188742
621.90 2.189615
622.00 2.190488
622.10 2.19136
622.20 2.192232
622.30 2.193103
622.40 2.193973
622.50 2.194842
622.60 2.195711
622.70 2.196579
622.80 2.197447
622.90 2.198313
623.00 2.19918
623.10 2.200045
623.20 2.20091
623.30 2.201774
623.40 2.202637
623.50 2.2035
623.60 2.204362
623.70 2.205224
623.80 2.206084
623.90 2.206944
624.00 2.207804
624.10 2.208663
624.20 2.209521
624.30 2.210378
624.40 2.211235
624.50 2.212091
624.60 2.212947
624.70 2.213801
624.80 2.214655
624.90 2.215509
625.00 2.216362
625.10 2.217214
625.20 2.218065
625.30 2.218916
625.40 2.219766
625.50 2.220616
625.60 2.221465
625.70 2.222313
625.80 2.223161
625.90 2.224008
626.00 2.224854
626.10 2.225699
626.20 2.226544
626.30 2.227389
626.40 2.228232
626.50 2.229075
626.60 2.229918
626.70 2.230759
626.80 2.2316
626.90 2.232441
627.00 2.23328
627.10 2.234123
627.20 2.234975
627.30 2.235827
627.40 2.236678
627.50 2.237528
627.60 2.238377
627.70 2.239226
627.80 2.240074
627.90 2.240922
628.00 2.241769
628.10 2.242615
628.20 2.243461
628.30 2.244306
628.40 2.24515
628.50 2.245994
628.60 2.246837
628.70 2.247679
628.80 2.248521
628.90 2.249362
629.00 2.250202
629.10 2.251042
629.20 2.251881
629.30 2.252719
629.40 2.253557
629.50 2.254394
629.60 2.255231
629.70 2.256067
629.80 2.256902
629.90 2.257736
630.00 2.25857
630.10 2.259404
630.20 2.260236
630.30 2.261085
630.40 2.261935
630.50 2.262784
630.60 2.263633
630.70 2.264481
630.80 2.265328
630.90 2.266175
631.00 2.267021
631.10 2.267866
631.20 2.268711
631.30 2.269555
631.40 2.270398
631.50 2.271241
631.60 2.272083
631.70 2.272924
631.80 2.273765
631.90 2.274605
632.00 2.275445
632.10 2.276283
632.20 2.277122
632.30 2.277959
632.40 2.278796
632.50 2.279632
632.60 2.280468
632.70 2.281303
632.80 2.282137
632.90 2.282971
633.00 2.283804
633.10 2.284636
633.20 2.285468
633.30 2.286299
633.40 2.287127
633.50 2.287951
633.60 2.288775
633.70 2.289598
633.80 2.290421
633.90 2.291243
634.00 2.292064
634.10 2.292885
634.20 2.293705
634.30 2.294524
634.40 2.295343
634.50 2.296161
634.60 2.296978
634.70 2.297795
634.80 2.298612
634.90 2.299427
635.00 2.300242
635.10 2.301057
635.20 2.30187
635.30 2.302683
635.40 2.303496
635.50 2.304308
635.60 2.305119
635.70 2.30593
635.80 2.30674
635.90 2.307549
636.00 2.308358
636.10 2.309166
636.20 2.309973
636.30 2.31078
636.40 2.311586
636.50 2.312392
636.60 2.313213
636.70 2.314036
636.80 2.314857
636.90 2.315678
637.00 2.316499
637.10 2.317319
637.20 2.318138
637.30 2.318956
637.40 2.319774
637.50 2.320592
637.60 2.321408
637.70 2.322224
637.80 2.32304
637.90 2.323855
638.00 2.324669
638.10 2.325482
638.20 2.326295
638.30 2.327108
638.40 2.327919
638.50 2.32873
638.60 2.329541
638.70 2.330351
638.80 2.33116
638.90 2.331969
639.00 2.332776
639.10 2.333584
639.20 2.334391
639.30 2.335197
639.40 2.336002
639.50 2.336807
639.60 2.337611
639.70 2.338416
639.80 2.339221
639.90 2.340026
640.00 2.340831
640.10 2.341635
640.20 2.342438
640.30 2.343241
640.40 2.344043
640.50 2.344844
640.60 2.345645
640.70 2.346445
640.80 2.347245
640.90 2.348044
641.00 2.348842
641.10 2.34964
641.20 2.350437
641.30 2.351234
641.40 2.35203
641.50 2.352825
641.60 2.35362
641.70 2.354414
641.80 2.355207
641.90 2.356
642.00 2.356792
642.10 2.357584
642.20 2.358375
642.30 2.359165
642.40 2.359955
642.50 2.360744
642.60 2.361533
642.70 2.362321
642.80 2.363109
642.90 2.363898
643.00 2.364693
643.10 2.365488
643.20 2.366283
643.30 2.367076
643.40 2.36787
643.50 2.368662
643.60 2.369454
643.70 2.370246
643.80 2.371036
643.90 2.371827
644.00 2.372616
644.10 2.373405
644.20 2.374193
644.30 2.374981
644.40 2.375768
644.50 2.376555
644.60 2.377341
644.70 2.378126
644.80 2.378911
644.90 2.379695
645.00 2.380479
645.10 2.381261
645.20 2.382044
645.30 2.382826
645.40 2.383607
645.50 2.384387
645.60 2.385167
645.70 2.385947
645.80 2.386725
645.90 2.387503
646.00 2.388281
646.10 2.389059
646.20 2.389837
646.30 2.390616
646.40 2.391393
646.50 2.392171
646.60 2.392947
646.70 2.393723
646.80 2.394498
646.90 2.395273
647.00 2.396047
647.10 2.396821
647.20 2.397594
647.30 2.398366
647.40 2.399138
647.50 2.399909
647.60 2.40068
647.70 2.40145
647.80 2.402219
647.90 2.402988
648.00 2.403756
648.10 2.404524
648.20 2.405291
648.30 2.406057
648.40 2.406823
648.50 2.407588
648.60 2.408353
648.70 2.409117
648.80 2.409881
648.90 2.410644
649.00 2.411406
649.10 2.412168
649.20 2.412929
649.30 2.41369
649.40 2.414458
649.50 2.415225
649.60 2.415992
649.70 2.416759
649.80 2.417525
649.90 2.41829
650.00 2.419055
650.10 2.419819
650.20 2.420583
650.30 2.421345
650.40 2.422108
650.50 2.42287
650.60 2.423631
650.70 2.424392
650.80 2.425152
650.90 2.425911
651.00 2.42667
651.10 2.427428
651.20 2.428186
651.30 2.428943
651.40 2.4297
651.50 2.430456
651.60 2.431211
651.70 2.431966
651.80 2.43272
651.90 2.433474
652.00 2.434227
652.10 2.43498
652.20 2.435732
652.30 2.436483
652.40 2.437234
652.50 2.437984
652.60 2.438737
652.70 2.439491
652.80 2.440244
652.90 2.440997
653.00 2.441749
653.10 2.442501
653.20 2.443252
653.30 2.444003
653.40 2.444753
653.50 2.445502
653.60 2.446251
653.70 2.446999
653.80 2.447746
653.90 2.448494
654.00 2.44924
654.10 2.449986
654.20 2.450731
654.30 2.451476
654.40 2.45222
654.50 2.452964
654.60 2.453707
654.70 2.45445
654.80 2.455192
654.90 2.455933
655.00 2.456674
655.10 2.457414
655.20 2.458154
655.30 2.458893
655.40 2.459631
655.50 2.460369
655.60 2.461107
655.70 2.461843
655.80 2.462579
655.90 2.463314
656.00 2.464048
656.10 2.464782
656.20 2.465515
656.30 2.466248
656.40 2.46698
656.50 2.467712
656.60 2.468443
656.70 2.469173
656.80 2.469903
656.90 2.470632
657.00 2.471361
657.10 2.472089
657.20 2.472817
657.30 2.473544
657.40 2.474271
657.50 2.474997
657.60 2.475722
657.70 2.476447
657.80 2.477121
657.90 2.477852
658.00 2.478592
658.10 2.479332
658.20 2.480071
658.30 2.480809
658.40 2.481547
658.50 2.482284
658.60 2.483021
658.70 2.483757
658.80 2.484493
658.90 2.485228
659.00 2.485962
659.10 2.486646
659.20 2.487254
659.30 2.487989
659.40 2.488724
659.50 2.489458
659.60 2.490192
659.70 2.490925
659.80 2.491657
659.90 2.492389
660.00 2.493121
660.10 2.493852
660.20 2.494582
660.30 2.495312
660.40 2.496015
660.50 2.496714
660.60 2.497412
660.70 2.49811
660.80 2.498807
660.90 2.499542
661.00 2.500275
661.10 2.501009
661.20 2.501741
661.30 2.502474
661.40 2.503205
661.50 2.503936
661.60 2.504667
661.70 2.505396
661.80 2.506126
661.90 2.506838
662.00 2.507549
662.10 2.508259
662.20 2.50897
662.30 2.509679
662.40 2.51022
662.50 2.510946
662.60 2.511671
662.70 2.512395
662.80 2.513119
662.90 2.513843
663.00 2.514565
663.10 2.515288
663.20 2.516009
663.30 2.516596
663.40 2.517451
663.50 2.518171
663.60 2.518891
663.70 2.519507
663.80 2.520122
663.90 2.520803
664.00 2.521495
664.10 2.522212
664.20 2.522928
664.30 2.523644
664.40 2.524359
664.50 2.525073
664.60 2.525788
664.70 2.526507
664.80 2.527226
664.90 2.527944
665.00 2.528662
665.10 2.529379
665.20 2.530095
665.30 2.530811
665.40 2.531527
665.50 2.532215
665.60 2.532899
665.70 2.533392
665.80 2.534099
665.90 2.534805
666.00 2.535511
666.10 2.536216
666.20 2.536921
666.30 2.537625
666.40 2.538329
666.50 2.539033
666.60 2.539736
666.70 2.540439
666.80 2.541142
666.90 2.541843
667.00 2.542545
667.10 2.543224
667.20 2.543899
667.30 2.54462
667.40 2.545341
667.50 2.546043
667.60 2.546741
667.70 2.547325
667.80 2.547973
667.90 2.548719
668.00 2.549448
668.10 2.550223
668.20 2.550918
668.30 2.551556
668.40 2.552183
668.50 2.55281
668.60 2.553437
668.70 2.554205
668.80 2.55488
668.90 2.555555
669.00 2.556229
669.10 2.556902
669.20 2.557575
669.30 2.558262
669.40 2.55895
669.50 2.559638
669.60 2.560326
669.70 2.561013
669.80 2.561699
669.90 2.562385
670.00 2.563071
670.10 2.563756
670.20 2.56444
670.30 2.565093
670.40 2.56574
670.50 2.566386
670.60 2.567031
670.70 2.567677
670.80 2.56835
670.90 2.569023
671.00 2.569696
671.10 2.570368
671.20 2.57104
671.30 2.571711
671.40 2.572381
671.50 2.573051
671.60 2.573721
671.70 2.57439
671.80 2.575059
671.90 2.57573
672.00 2.576402
672.10 2.577074
672.20 2.577745
672.30 2.578415
672.40 2.579085
672.50 2.579754
672.60 2.580422
672.70 2.581091
672.80 2.581758
672.90 2.582425
673.00 2.583092
673.10 2.583758
673.20 2.584424
673.30 2.585245
673.40 2.585914
673.50 2.586555
673.60 2.587196
673.70 2.587837
673.80 2.588476
673.90 2.589116
674.00 2.589755
674.10 2.590393
674.20 2.591031
674.30 2.591668
674.40 2.592305
674.50 2.592941
674.60 2.593577
674.70 2.594213
674.80 2.594847
674.90 2.595482
675.00 2.596116
675.10 2.596749
675.20 2.597382
675.30 2.598015
675.40 2.598691
675.50 2.599374
675.60 2.600057
675.70 2.600739
675.80 2.601421
675.90 2.602102
676.00 2.602783
676.10 2.603463
676.20 2.604143
676.30 2.604822
676.40 2.605501
676.50 2.606179
676.60 2.606856
676.70 2.607534
676.80 2.60821
676.90 2.608886
677.00 2.609562
677.10 2.610237
677.20 2.610912
677.30 2.611586
677.40 2.612259
677.50 2.612932
677.60 2.613605
677.70 2.614277
677.80 2.614948
677.90 2.615655
678.00 2.616367
678.10 2.617078
678.20 2.617789
678.30 2.618499
678.40 2.619209
678.50 2.619919
678.60 2.620628
678.70 2.621336
678.80 2.622044
678.90 2.622751
679.00 2.623457
679.10 2.624108
679.20 2.624733
679.30 2.625358
679.40 2.625983
679.50 2.626607
679.60 2.627231
679.70 2.627854
679.80 2.628476
679.90 2.629099
680.00 2.62972
680.10 2.630342
680.20 2.630962
680.30 2.631583
680.40 2.632202
680.50 2.632822
680.60 2.633441
680.70 2.634059
680.80 2.634677
680.90 2.635294
681.00 2.635911
681.10 2.636528
681.20 2.637144
681.30 2.637759
681.40 2.638374
681.50 2.638989
681.60 2.639603
681.70 2.640216
681.80 2.64083
681.90 2.641442
682.00 2.642054
682.10 2.642666
682.20 2.643277
682.30 2.643888
682.40 2.644498
682.50 2.645108
682.60 2.645718
682.70 2.646327
682.80 2.646935
682.90 2.647543
683.00 2.64815
683.10 2.648757
683.20 2.649364
683.30 2.64997
683.40 2.650576
683.50 2.651181
683.60 2.651785
683.70 2.65239
683.80 2.652993
683.90 2.653597
684.00 2.6542
684.10 2.654802
684.20 2.655404
684.30 2.656005
684.40 2.656606
684.50 2.657207
684.60 2.657807
684.70 2.658406
684.80 2.659005
684.90 2.659604
685.00 2.660202
685.10 2.6608
685.20 2.661397
685.30 2.661994
685.40 2.66259
685.50 2.663186
685.60 2.663781
685.70 2.664376
685.80 2.664971
685.90 2.665583
686.00 2.666199
686.10 2.666815
686.20 2.667431
686.30 2.668046
686.40 2.66866
686.50 2.669275
686.60 2.669888
686.70 2.670501
686.80 2.671114
686.90 2.671726
687.00 2.672338
687.10 2.672949
687.20 2.67356
687.30 2.67417
687.40 2.67478
687.50 2.675389
687.60 2.675998
687.70 2.676607
687.80 2.677215
687.90 2.677822
688.00 2.678429
688.10 2.679036
688.20 2.679642
688.30 2.680248
688.40 2.680853
688.50 2.681458
688.60 2.682062
688.70 2.682666
688.80 2.683269
688.90 2.683872
689.00 2.684474
689.10 2.685076
689.20 2.685678
689.30 2.686279
689.40 2.686879
689.50 2.687479
689.60 2.688079
689.70 2.688678
689.80 2.689277
689.90 2.689875
690.00 2.690473
690.10 2.69107
690.20 2.691667
690.30 2.692263
690.40 2.692859
690.50 2.693455
690.60 2.69405
690.70 2.694644
690.80 2.695238
690.90 2.695832
691.00 2.696425
691.10 2.697018
691.20 2.69761
691.30 2.698202
691.40 2.698794
691.50 2.699385
691.60 2.699975
691.70 2.700565
691.80 2.701155
691.90 2.701744
692.00 2.702332
692.10 2.702921
692.20 2.703508
692.30 2.704096
692.40 2.704682
692.50 2.705269
692.60 2.705855
692.70 2.706437
692.80 2.707004
692.90 2.707571
693.00 2.708138
693.10 2.708704
693.20 2.709269
693.30 2.709835
693.40 2.710399
693.50 2.710964
693.60 2.711528
693.70 2.712091
693.80 2.712654
693.90 2.713217
694.00 2.713779
694.10 2.714341
694.20 2.714902
694.30 2.715463
694.40 2.716023
694.50 2.716583
694.60 2.717143
694.70 2.717702
694.80 2.718261
694.90 2.718819
695.00 2.719377
695.10 2.719934
695.20 2.720491
695.30 2.721047
695.40 2.721604
695.50 2.722159
695.60 2.722714
695.70 2.723269
695.80 2.723824
695.90 2.724378
696.00 2.724931
696.10 2.725484
696.20 2.726037
696.30 2.726589
696.40 2.727141
696.50 2.727692
696.60 2.728269
696.70 2.728851
696.80 2.729433
696.90 2.730015
697.00 2.730596
697.10 2.731177
697.20 2.731757
697.30 2.732337
697.40 2.732916
697.50 2.733495
697.60 2.734074
697.70 2.734652
697.80 2.735229
697.90 2.735806
698.00 2.736383
698.10 2.736959
698.20 2.737535
698.30 2.738111
698.40 2.738686
698.50 2.73926
698.60 2.739834
698.70 2.740408
698.80 2.740981
698.90 2.741554
699.00 2.742126
699.10 2.742603
699.20 2.743059
699.30 2.743513
699.40 2.743968
699.50 2.744422
699.60 2.744875
699.70 2.745452
699.80 2.746035
699.90 2.746617
700.00 2.747199
700.10 2.747781
700.20 2.748362
700.30 2.748943
700.40 2.749523
700.50 2.750103
700.60 2.750682
700.70 2.751261
700.80 2.75184
700.90 2.752418
701.00 2.752995
701.10 2.753509
701.20 2.754008
701.30 2.754506
701.40 2.755004
701.50 2.755501
701.60 2.755999
701.70 2.756495
701.80 2.756991
701.90 2.757487
702.00 2.757983
702.10 2.758478
702.20 2.758973
702.30 2.759467
702.40 2.759961
702.50 2.760454
702.60 2.761004
702.70 2.761567
702.80 2.762129
702.90 2.762691
703.00 2.763252
703.10 2.763813
703.20 2.764373
703.30 2.764933
703.40 2.765493
703.50 2.766052
703.60 2.766611
703.70 2.767169
703.80 2.767727
703.90 2.768285
704.00 2.768842
704.10 2.769398
704.20 2.769834
704.30 2.77024
704.40 2.770647
704.50 2.771053
704.60 2.771458
704.70 2.771863
704.80 2.772268
704.90 2.772673
705.00 2.773077
705.10 2.773481
705.20 2.773885
705.30 2.774288
705.40 2.774691
705.50 2.775093
705.60 2.775496
705.70 2.775897
705.80 2.77678
705.90 2.777775
706.00 2.778769
706.10 2.779763
706.20 2.780275
706.30 2.780674
706.40 2.780112
706.50 2.781697
706.60 2.78091
706.70 2.782493
706.80 2.782665
706.90 2.783062
707.00 2.783459
707.10 2.783856
707.20 2.784252
707.30 2.784648
707.40 2.785043
707.50 2.785438
707.60 2.785833
707.70 2.786227
707.80 2.786622
707.90 2.787015
708.00 2.7876
708.10 2.788229
708.20 2.788858
708.30 2.789486
708.40 2.790114
708.50 2.790741
708.60 2.791368
708.70 2.791994
708.80 2.79262
708.90 2.793246
709.00 2.793799
709.10 2.794335
709.20 2.794871
709.30 2.795407
709.40 2.795942
709.50 2.796476
709.60 2.79701
709.70 2.797544
709.80 2.798077
709.90 2.79861
710.00 2.799143
710.10 2.799675
710.20 2.800207
710.30 2.800738
710.40 2.801269
710.50 2.801799
710.60 2.802274
710.70 2.802735
710.80 2.803196
710.90 2.803657
711.00 2.804117
711.10 2.804577
711.20 2.805036
711.30 2.805496
711.40 2.805954
711.50 2.806413
711.60 2.806871
711.70 2.807328
711.80 2.807786
711.90 2.808242
712.00 2.808699
712.10 2.809179
712.20 2.809665
712.30 2.81015
712.40 2.810635
712.50 2.811119
712.60 2.811604
712.70 2.812087
712.80 2.812571
712.90 2.813054
713.00 2.813536
713.10 2.814018
713.20 2.8145
713.30 2.814981
713.40 2.815462
713.50 2.815943
713.60 2.816423
713.70 2.81692
713.80 2.817451
713.90 2.817981
714.00 2.818511
714.10 2.819025
714.20 2.819536
714.30 2.820045
714.40 2.820555
714.50 2.821064
714.60 2.821572
714.70 2.82208
714.80 2.822588
714.90 2.823096
715.00 2.823603
715.10 2.824109
715.20 2.824615
715.30 2.825121
715.40 2.825627
715.50 2.826132
715.60 2.826636
715.70 2.827141
715.80 2.827644
715.90 2.828148
716.00 2.828651
716.10 2.829154
716.20 2.829656
716.30 2.830158
716.40 2.830659
716.50 2.83116
716.60 2.83154
716.70 2.831891
716.80 2.832241
716.90 2.832591
717.00 2.832941
717.10 2.83329
717.20 2.83364
717.30 2.833988
717.40 2.834337
717.50 2.834685
717.60 2.835033
717.70 2.835381
717.80 2.835728
717.90 2.836075
718.00 2.836422
718.10 2.836768
718.20 2.837211
718.30 2.837706
718.40 2.838201
718.50 2.838695
718.60 2.839188
718.70 2.839682
718.80 2.840174
718.90 2.840667
719.00 2.841159
719.10 2.841651
719.20 2.842142
719.30 2.842633
719.40 2.843124
719.50 2.843614
719.60 2.844104
719.70 2.844593
719.80 2.845082
719.90 2.845571
720.00 2.846059
720.10 2.846547
720.20 2.847035
720.30 2.847522
720.40 2.848008
720.50 2.848495
720.60 2.848981
720.70 2.849513
720.80 2.850071
720.90 2.850528
721.00 2.850981
721.10 2.851434
721.20 2.851886
721.30 2.852338
721.40 2.852789
721.50 2.853241
721.60 2.853691
721.70 2.854142
721.80 2.854592
721.90 2.855042
722.00 2.855491
722.10 2.85594
722.20 2.856388
722.30 2.856837
722.40 2.857285
722.50 2.857732
722.60 2.858179
722.70 2.858607
722.80 2.859025
722.90 2.859442
723.00 2.859859
723.10 2.860275
723.20 2.860691
723.30 2.861107
723.40 2.861522
723.50 2.861937
723.60 2.862352
723.70 2.862766
723.80 2.86318
723.90 2.863594
724.00 2.864007
724.10 2.864421
724.20 2.864876
724.30 2.865354
724.40 2.865832
724.50 2.866309
724.60 2.866786
724.70 2.867263
724.80 2.867739
724.90 2.868215
725.00 2.868691
725.10 2.869166
725.20 2.869641
725.30 2.870115
725.40 2.870589
725.50 2.871063
725.60 2.871536
725.70 2.872009
725.80 2.872391
725.90 2.872722
726.00 2.873054
726.10 2.873385
726.20 2.873716
726.30 2.874047
726.40 2.874377
726.50 2.874707
726.60 2.875037
726.70 2.875367
726.80 2.875939
726.90 2.876641
727.00 2.877343
727.10 2.878044
727.20 2.878745
727.30 2.879445
727.40 2.879902
727.50 2.880229
727.60 2.880555
727.70 2.880881
727.80 2.881207
727.90 2.881532
728.00 2.881132
728.10 2.882573
728.20 2.881781
728.30 2.883222
728.40 2.883155
728.50 2.883479
728.60 2.883802
728.70 2.884125
728.80 2.884448
728.90 2.884771
729.00 2.885334
729.10 2.886027
729.20 2.88672
729.30 2.887412
729.40 2.888104
729.50 2.888795
729.60 2.889244
729.70 2.889564
729.80 2.889883
729.90 2.890203
730.00 2.890521
730.10 2.89084
730.20 2.891158
730.30 2.891476
730.40 2.891794
730.50 2.892111
730.60 2.892519
730.70 2.892974
730.80 2.893429
730.90 2.893884
731.00 2.894338
731.10 2.894792
731.20 2.895245
731.30 2.895699
731.40 2.896152
731.50 2.896604
731.60 2.897056
731.70 2.897508
731.80 2.89796
731.90 2.898411
732.00 2.898861
732.10 2.899312
732.20 2.89972
732.30 2.900105
732.40 2.90049
732.50 2.900875
732.60 2.901259
732.70 2.901643
732.80 2.902027
732.90 2.902411
733.00 2.902794
733.10 2.903176
733.20 2.903559
733.30 2.903941
733.40 2.904323
733.50 2.904704
733.60 2.905086
733.70 2.905481
733.80 2.905883
733.90 2.906284
734.00 2.906686
734.10 2.907087
734.20 2.907488
734.30 2.907889
734.40 2.908289
734.50 2.908689
734.60 2.909088
734.70 2.909487
734.80 2.909886
734.90 2.910285
735.00 2.910683
735.10 2.911081
735.20 2.911478
735.30 2.911883
735.40 2.912367
735.50 2.912851
735.60 2.913335
735.70 2.913728
735.80 2.914073
735.90 2.914418
736.00 2.914762
736.10 2.915106
736.20 2.91545
736.30 2.915794
736.40 2.916137
736.50 2.91648
736.60 2.916822
736.70 2.917165
736.80 2.917507
736.90 2.917848
737.00 2.91819
737.10 2.918531
737.20 2.918872
737.30 2.919212
737.40 2.919553
737.50 2.919892
737.60 2.920232
737.70 2.920572
737.80 2.920911
737.90 2.921249
738.00 2.921588
738.10 2.921926
738.20 2.922281
738.30 2.922645
738.40 2.923009
738.50 2.923372
738.60 2.923736
738.70 2.924098
738.80 2.924461
738.90 2.924823
739.00 2.925185
739.10 2.925547
739.20 2.925908
739.30 2.926269
739.40 2.92663
739.50 2.92699
739.60 2.92735
739.70 2.92771
739.80 2.928069
739.90 2.928428
740.00 2.928787
740.10 2.929146
740.20 2.929504
740.30 2.929862
740.40 2.93022
740.50 2.930577
740.60 2.930934
740.70 2.931291
740.80 2.931647
740.90 2.932004
741.00 2.93236
741.10 2.932715
741.20 2.93307
741.30 2.933425
741.40 2.93378
741.50 2.934134
741.60 2.934489
741.70 2.934842
741.80 2.935196
741.90 2.935549
742.00 2.935902
742.10 2.936255
742.20 2.936607
742.30 2.936959
742.40 2.937311
742.50 2.937662
742.60 2.938013
742.70 2.93842
742.80 2.938873
742.90 2.939325
743.00 2.939777
743.10 2.940228
743.20 2.940679
743.30 2.94113
743.40 2.94158
743.50 2.942031
743.60 2.94248
743.70 2.942909
743.80 2.943256
743.90 2.943603
744.00 2.943949
744.10 2.944295
744.20 2.94464
744.30 2.944986
744.40 2.945331
744.50 2.945675
744.60 2.94602
744.70 2.946364
744.80 2.946708
744.90 2.947052
745.00 2.947395
745.10 2.947738
745.20 2.948081
745.30 2.948423
745.40 2.948765
745.50 2.949107
745.60 2.949449
745.70 2.94979
745.80 2.950131
745.90 2.950471
746.00 2.950812
746.10 2.951152
746.20 2.951492
746.30 2.951831
746.40 2.952171
746.50 2.95251
746.60 2.952848
746.70 2.953187
746.80 2.953525
746.90 2.953863
747.00 2.9542
747.10 2.954537
747.20 2.954874
747.30 2.955211
747.40 2.955547
747.50 2.955883
747.60 2.956219
747.70 2.956555
747.80 2.95689
747.90 2.957225
748.00 2.95756
748.10 2.957894
748.20 2.958228
748.30 2.958562
748.40 2.958895
748.50 2.959229
748.60 2.959562
748.70 2.959894
748.80 2.960227
748.90 2.960559
749.00 2.960891
749.10 2.961222
749.20 2.961553
749.30 2.961884
749.40 2.962215
749.50 2.962546
749.60 2.962876
749.70 2.963206
749.80 2.963535
749.90 2.963864
750.00 2.964193
750.10 2.964523
750.20 2.964854
750.30 2.965186
750.40 2.965516
750.50 2.965847
750.60 2.966177
750.70 2.966507
750.80 2.966837
750.90 2.967167
751.00 2.967496
751.10 2.967825
751.20 2.968153
751.30 2.968482
751.40 2.96881
751.50 2.969138
751.60 2.969465
751.70 2.969792
751.80 2.970119
751.90 2.970446
752.00 2.970772
752.10 2.971098
752.20 2.971424
752.30 2.97175
752.40 2.972075
752.50 2.9724
752.60 2.972725
752.70 2.973049
752.80 2.973373
752.90 2.973697
753.00 2.974021
753.10 2.974344
753.20 2.974667
753.30 2.97499
753.40 2.975312
753.50 2.975635
753.60 2.975957
753.70 2.976278
753.80 2.9766
753.90 2.976878
754.00 2.977143
754.10 2.977408
754.20 2.977673
754.30 2.977937
754.40 2.978202
754.50 2.978466
754.60 2.97873
754.70 2.978993
754.80 2.979257
754.90 2.97952
755.00 2.979783
755.10 2.980045
755.20 2.980308
755.30 2.98057
755.40 2.980832
755.50 2.981094
755.60 2.981355
755.70 2.981616
755.80 2.981877
755.90 2.982138
756.00 2.982398
756.10 2.982659
756.20 2.982919
756.30 2.983178
756.40 2.983438
756.50 2.983697
756.60 2.983956
756.70 2.984215
756.80 2.984473
756.90 2.984732
757.00 2.98499
757.10 2.985248
757.20 2.985505
757.30 2.985762
757.40 2.98602
757.50 2.986276
757.60 2.986545
757.70 2.986846
757.80 2.987146
757.90 2.987445
758.00 2.987745
758.10 2.988044
758.20 2.988343
758.30 2.988642
758.40 2.98894
758.50 2.989239
758.60 2.989537
758.70 2.989834
758.80 2.990132
758.90 2.990429
759.00 2.990726
759.10 2.991023
759.20 2.991319
759.30 2.991615
759.40 2.991911
759.50 2.992207
759.60 2.992502
759.70 2.992797
759.80 2.993092
759.90 2.993386
760.00 2.993681
760.10 2.993975
760.20 2.994269
760.30 2.994562
760.40 2.994855
760.50 2.995149
760.60 2.995441
760.70 2.995734
760.80 2.996026
760.90 2.996318
761.00 2.99661
761.10 2.996901
761.20 2.997193
761.30 2.997484
761.40 2.997774
761.50 2.998065
761.60 2.998355
761.70 2.998645
761.80 2.998935
761.90 2.999224
762.00 2.999513
762.10 2.999802
762.20 3.000091
762.30 3.000379
762.40 3.000667
762.50 3.000955
762.60 3.001243
762.70 3.00153
762.80 3.001818
762.90 3.002104
763.00 3.002391
763.10 3.002677
763.20 3.002964
763.30 3.003249
763.40 3.003535
763.50 3.00382
763.60 3.004106
763.70 3.00439
763.80 3.004675
763.90 3.004959
764.00 3.005244
764.10 3.005527
764.20 3.005811
764.30 3.006094
764.40 3.006378
764.50 3.00666
764.60 3.006943
764.70 3.007225
764.80 3.007507
764.90 3.007789
765.00 3.008071
765.10 3.008352
765.20 3.008628
765.30 3.008898
765.40 3.009168
765.50 3.009438
765.60 3.009707
765.70 3.009977
765.80 3.010246
765.90 3.010515
766.00 3.010783
766.10 3.011051
766.20 3.01132
766.30 3.011587
766.40 3.011855
766.50 3.012122
766.60 3.012389
766.70 3.012656
766.80 3.012923
766.90 3.013189
767.00 3.013455
767.10 3.013721
767.20 3.013987
767.30 3.014252
767.40 3.014518
767.50 3.014782
767.60 3.015047
767.70 3.015312
767.80 3.015576
767.90 3.01584
768.00 3.016104
768.10 3.016367
768.20 3.01663
768.30 3.016893
768.40 3.017156
768.50 3.017419
768.60 3.017681
768.70 3.017943
768.80 3.018205
768.90 3.018466
769.00 3.018728
769.10 3.018989
769.20 3.01925
769.30 3.01951
769.40 3.019771
769.50 3.020031
769.60 3.020291
769.70 3.02055
769.80 3.02081
769.90 3.021069
770.00 3.021328
770.10 3.021587
770.20 3.021845
770.30 3.022104
770.40 3.022362
770.50 3.022619
770.60 3.022877
770.70 3.023134
770.80 3.023391
770.90 3.023648
771.00 3.023905
771.10 3.024161
771.20 3.024417
771.30 3.024673
771.40 3.024929
771.50 3.025184
771.60 3.02544
771.70 3.025695
771.80 3.025949
771.90 3.026204
772.00 3.026458
772.10 3.026712
772.20 3.026966
772.30 3.027219
772.40 3.027473
772.50 3.027726
772.60 3.027979
772.70 3.028231
772.80 3.028484
772.90 3.0287
773.00 3.028916
773.10 3.029132
773.20 3.029348
773.30 3.029564
773.40 3.029779
773.50 3.029994
773.60 3.030209
773.70 3.030423
773.80 3.030638
773.90 3.030852
774.00 3.031066
774.10 3.03128
774.20 3.031493
774.30 3.031707
774.40 3.03192
774.50 3.032133
774.60 3.032346
774.70 3.032558
774.80 3.032771
774.90 3.032983
775.00 3.033195
775.10 3.033406
775.20 3.033618
775.30 3.033829
775.40 3.03404
775.50 3.034251
775.60 3.034462
775.70 3.034672
775.80 3.034882
775.90 3.035092
776.00 3.035302
776.10 3.035512
776.20 3.035721
776.30 3.03593
776.40 3.036139
776.50 3.036348
776.60 3.036557
776.70 3.036765
776.80 3.036973
776.90 3.037181
777.00 3.037389
777.10 3.037596
777.20 3.037804
777.30 3.038011
777.40 3.038218
777.50 3.038424
777.60 3.038631
777.70 3.038837
777.80 3.039043
777.90 3.039249
778.00 3.039455
778.10 3.03966
778.20 3.039865
778.30 3.04007
778.40 3.040275
778.50 3.04048
778.60 3.040684
778.70 3.040888
778.80 3.041092
778.90 3.041296
779.00 3.0415
779.10 3.041703
779.20 3.041906
779.30 3.042109
779.40 3.042312
779.50 3.042515
779.60 3.042717
779.70 3.042919
779.80 3.043121
779.90 3.043323
780.00 3.043525
780.10 3.043726
780.20 3.043927
780.30 3.044128
780.40 3.044329
780.50 3.044529
780.60 3.04475
780.70 3.044979
780.80 3.045208
780.90 3.045437
781.00 3.045665
781.10 3.045893
781.20 3.046121
781.30 3.046349
781.40 3.046577
781.50 3.046804
781.60 3.047031
781.70 3.047258
781.80 3.047485
781.90 3.047711
782.00 3.047937
782.10 3.048163
782.20 3.048389
782.30 3.048615
782.40 3.04884
782.50 3.049065
782.60 3.04929
782.70 3.049515
782.80 3.049739
782.90 3.049964
783.00 3.050188
783.10 3.050412
783.20 3.050635
783.30 3.050859
783.40 3.051082
783.50 3.051305
783.60 3.051528
783.70 3.05175
783.80 3.051973
783.90 3.052195
784.00 3.052417
784.10 3.052639
784.20 3.05286
784.30 3.053082
784.40 3.053303
784.50 3.053524
784.60 3.053736
784.70 3.053928
784.80 3.05412
784.90 3.054312
785.00 3.054504
785.10 3.054696
785.20 3.054887
785.30 3.055078
785.40 3.055269
785.50 3.05546
785.60 3.05565
785.70 3.055841
785.80 3.056031
785.90 3.056221
786.00 3.056411
786.10 3.0566
786.20 3.05679
786.30 3.056979
786.40 3.057168
786.50 3.057357
786.60 3.057545
786.70 3.057734
786.80 3.057922
786.90 3.05811
787.00 3.058298
787.10 3.058486
787.20 3.058673
787.30 3.05886
787.40 3.059047
787.50 3.059234
787.60 3.059421
787.70 3.059607
787.80 3.059794
787.90 3.05998
788.00 3.060166
788.10 3.060351
788.20 3.060537
788.30 3.060722
788.40 3.060878
788.50 3.06102
788.60 3.061161
788.70 3.061302
788.80 3.061442
788.90 3.061583
789.00 3.061723
789.10 3.061864
789.20 3.062004
789.30 3.062144
789.40 3.062284
789.50 3.062423
789.60 3.062563
789.70 3.062702
789.80 3.062841
789.90 3.06298
790.00 3.063119
790.10 3.063257
790.20 3.063396
790.30 3.063534
790.40 3.063672
790.50 3.06381
790.60 3.063948
790.70 3.064085
790.80 3.064223
790.90 3.06436
791.00 3.064497
791.10 3.064634
791.20 3.064771
791.30 3.064907
791.40 3.065044
791.50 3.06518
791.60 3.065316
791.70 3.065452
791.80 3.065588
791.90 3.065723
792.00 3.065859
792.10 3.065994
792.20 3.066129
792.30 3.066276
792.40 3.066459
792.50 3.066642
792.60 3.066824
792.70 3.067006
792.80 3.067188
792.90 3.06737
793.00 3.067552
793.10 3.067733
793.20 3.067915
793.30 3.068096
793.40 3.068277
793.50 3.068457
793.60 3.068638
793.70 3.068818
793.80 3.068998
793.90 3.069178
794.00 3.069358
794.10 3.069538
794.20 3.069717
794.30 3.069896
794.40 3.070075
794.50 3.070254
794.60 3.070433
794.70 3.070611
794.80 3.07079
794.90 3.070968
795.00 3.071146
795.10 3.071324
795.20 3.071501
795.30 3.071678
795.40 3.071856
795.50 3.072033
795.60 3.072209
795.70 3.072386
795.80 3.072562
795.90 3.072739
796.00 3.072915
796.10 3.073091
796.20 3.073266
796.30 3.073414
796.40 3.073557
796.50 3.073699
796.60 3.073841
796.70 3.073983
796.80 3.074124
796.90 3.074266
797.00 3.074407
797.10 3.074548
797.20 3.074689
797.30 3.07483
797.40 3.074971
797.50 3.075111
797.60 3.075252
797.70 3.075392
797.80 3.075532
797.90 3.075672
798.00 3.075812
798.10 3.075951
798.20 3.07609
798.30 3.07623
798.40 3.076369
798.50 3.076508
798.60 3.076646
798.70 3.076785
798.80 3.076923
798.90 3.077061
799.00 3.077199
799.10 3.077337
799.20 3.077475
799.30 3.077612
799.40 3.07775
799.50 3.077887
799.60 3.078024
799.70 3.078161
799.80 3.078298
799.90 3.078434
800.00 3.078571
800.10 3.078707
800.20 3.078843
800.30 3.078979
800.40 3.079114
800.50 3.07925
800.60 3.079385
800.70 3.079521
800.80 3.079656
800.90 3.079791
801.00 3.079925
801.10 3.08006
801.20 3.080194
801.30 3.080329
801.40 3.080463
801.50 3.080597
801.60 3.08073
801.70 3.080864
801.80 3.080997
801.90 3.081131
802.00 3.081264
802.10 3.081397
802.20 3.081529
802.30 3.081662
802.40 3.081795
802.50 3.081927
802.60 3.082059
802.70 3.082191
802.80 3.082323
802.90 3.082454
803.00 3.082586
803.10 3.082717
803.20 3.082848
803.30 3.082979
803.40 3.08311
803.50 3.083241
803.60 3.083372
803.70 3.083502
803.80 3.083632
803.90 3.083762
804.00 3.083892
804.10 3.084022
804.20 3.084144
804.30 3.084242
804.40 3.08434
804.50 3.084437
804.60 3.084534
804.70 3.084632
804.80 3.084729
804.90 3.084826
805.00 3.084922
805.10 3.085019
805.20 3.085115
805.30 3.085212
805.40 3.085308
805.50 3.085404
805.60 3.0855
805.70 3.085595
805.80 3.085691
805.90 3.085786
806.00 3.085882
806.10 3.085977
806.20 3.086072
806.30 3.086167
806.40 3.086262
806.50 3.086356
806.60 3.086451
806.70 3.086545
806.80 3.086639
806.90 3.086733
807.00 3.086827
807.10 3.086921
807.20 3.087014
807.30 3.087108
807.40 3.087201
807.50 3.087294
807.60 3.087387
807.70 3.08748
807.80 3.087573
807.90 3.087666
808.00 3.087758
808.10 3.087851
808.20 3.087943
808.30 3.088035
808.40 3.088127
808.50 3.088219
808.60 3.08831
808.70 3.088402
808.80 3.088493
808.90 3.088584
809.00 3.088675
809.10 3.088766
809.20 3.088857
809.30 3.088948
809.40 3.089038
809.50 3.089129
809.60 3.089219
809.70 3.089309
809.80 3.089399
809.90 3.089489
810.00 3.089579
810.10 3.089668
810.20 3.089757
810.30 3.089847
810.40 3.089936
810.50 3.090025
810.60 3.090114
810.70 3.090202
810.80 3.090291
810.90 3.09038
811.00 3.090468
811.10 3.090556
811.20 3.090644
811.30 3.090732
811.40 3.09082
811.50 3.090907
811.60 3.090995
811.70 3.091082
811.80 3.091169
811.90 3.091256
812.00 3.091343
812.10 3.09143
812.20 3.091517
812.30 3.09162
812.40 3.091728
812.50 3.091835
812.60 3.091943
812.70 3.09205
812.80 3.092157
812.90 3.092264
813.00 3.09237
813.10 3.092477
813.20 3.092583
813.30 3.09269
813.40 3.092796
813.50 3.092902
813.60 3.093007
813.70 3.093113
813.80 3.093219
813.90 3.093324
814.00 3.093429
814.10 3.093534
814.20 3.093639
814.30 3.093744
814.40 3.093849
814.50 3.093953
814.60 3.094058
814.70 3.094162
814.80 3.094266
814.90 3.09437
815.00 3.094474
815.10 3.094577
815.20 3.094681
815.30 3.094784
815.40 3.094887
815.50 3.094991
815.60 3.095093
815.70 3.095196
815.80 3.095299
815.90 3.095401
816.00 3.095504
816.10 3.095606
816.20 3.095708
816.30 3.09581
816.40 3.095912
816.50 3.096013
816.60 3.096115
816.70 3.096216
816.80 3.096318
816.90 3.096419
817.00 3.09652
817.10 3.09662
817.20 3.096721
817.30 3.096821
817.40 3.096922
817.50 3.097022
817.60 3.097122
817.70 3.097222
817.80 3.097322
817.90 3.097422
818.00 3.097521
818.10 3.09762
818.20 3.09772
818.30 3.097819
818.40 3.097918
818.50 3.098016
818.60 3.098115
818.70 3.098214
818.80 3.098312
818.90 3.09841
819.00 3.098508
819.10 3.098606
819.20 3.098704
819.30 3.098787
819.40 3.098859
819.50 3.098931
819.60 3.099003
819.70 3.099075
819.80 3.099147
819.90 3.099219
820.00 3.099291
820.10 3.099288
820.20 3.09921
820.30 3.099216
820.40 3.099247
820.50 3.099296
820.60 3.099346
820.70 3.099395
820.80 3.099444
820.90 3.099493
821.00 3.099542
821.10 3.099591
821.20 3.09964
821.30 3.099688
821.40 3.099737
821.50 3.099785
821.60 3.099833
821.70 3.099881
821.80 3.099929
821.90 3.099977
822.00 3.100025
822.10 3.100072
822.20 3.10012
822.30 3.100167
822.40 3.100215
822.50 3.100262
822.60 3.100309
822.70 3.100356
822.80 3.100403
822.90 3.100449
823.00 3.100496
823.10 3.100542
823.20 3.100589
823.30 3.100635
823.40 3.100681
823.50 3.100727
823.60 3.100773
823.70 3.100819
823.80 3.100865
823.90 3.10091
824.00 3.100956
824.10 3.101001
824.20 3.101046
824.30 3.101091
824.40 3.101137
824.50 3.101181
824.60 3.101226
824.70 3.101271
824.80 3.101315
824.90 3.10136
825.00 3.101404
825.10 3.101448
825.20 3.101493
825.30 3.101537
825.40 3.10158
825.50 3.101624
825.60 3.101668
825.70 3.101711
825.80 3.101755
825.90 3.101798
826.00 3.101841
826.10 3.101885
826.20 3.101927
826.30 3.10199
826.40 3.102066
826.50 3.102142
826.60 3.102218
826.70 3.102294
826.80 3.10237
826.90 3.102445
827.00 3.10252
827.10 3.102596
827.20 3.102671
827.30 3.102746
827.40 3.10282
827.50 3.102895
827.60 3.10297
827.70 3.103044
827.80 3.103119
827.90 3.103193
828.00 3.103267
828.10 3.103341
828.20 3.103415
828.30 3.103488
828.40 3.103562
828.50 3.103635
828.60 3.103691
828.70 3.103733
828.80 3.103774
828.90 3.103816
829.00 3.103857
829.10 3.103898
829.20 3.103939
829.30 3.10398
829.40 3.104021
829.50 3.104061
829.60 3.104102
829.70 3.104142
829.80 3.104183
829.90 3.104223
830.00 3.104263
830.10 3.104303
830.20 3.104343
830.30 3.104383
830.40 3.104423
830.50 3.104462
830.60 3.104502
830.70 3.104541
830.80 3.10458
830.90 3.104619
831.00 3.104658
831.10 3.104697
831.20 3.104736
831.30 3.104775
831.40 3.104813
831.50 3.104852
831.60 3.10489
831.70 3.104929
831.80 3.104967
831.90 3.105005
832.00 3.105043
832.10 3.105081
832.20 3.105118
832.30 3.105156
832.40 3.105193
832.50 3.105231
832.60 3.105268
832.70 3.105305
832.80 3.105342
832.90 3.105379
833.00 3.105416
833.10 3.105453
833.20 3.10549
833.30 3.105526
833.40 3.105563
833.50 3.105599
833.60 3.105635
833.70 3.105671
833.80 3.105707
833.90 3.105743
834.00 3.105779
834.10 3.105815
834.20 3.10585
834.30 3.105886
834.40 3.105921
834.50 3.105956
834.60 3.105992
834.70 3.106027
834.80 3.106062
834.90 3.106096
835.00 3.106131
835.10 3.106166
835.20 3.1062
835.30 3.106235
835.40 3.106269
835.50 3.106303
835.60 3.106337
835.70 3.106371
835.80 3.106405
835.90 3.106439
836.00 3.106473
836.10 3.106506
836.20 3.10654
836.30 3.106573
836.40 3.106607
836.50 3.10664
836.60 3.106673
836.70 3.106706
836.80 3.106739
836.90 3.106738
837.00 3.106723
837.10 3.106707
837.20 3.106692
837.30 3.106676
837.40 3.10666
837.50 3.106644
837.60 3.106628
837.70 3.106612
837.80 3.106596
837.90 3.10658
838.00 3.106564
838.10 3.106548
838.20 3.106531
838.30 3.106515
838.40 3.106498
838.50 3.106482
838.60 3.106465
838.70 3.106448
838.80 3.106431
838.90 3.106414
839.00 3.106397
839.10 3.10638
839.20 3.106363
839.30 3.106346
839.40 3.106328
839.50 3.106311
839.60 3.106293
839.70 3.106276
839.80 3.106258
839.90 3.10624
840.00 3.106223
840.10 3.106205
840.20 3.106187
840.30 3.106169
840.40 3.10615
840.50 3.106132
840.60 3.106114
840.70 3.106095
840.80 3.106077
840.90 3.106058
841.00 3.10604
841.10 3.106055
841.20 3.106076
841.30 3.106097
841.40 3.106118
841.50 3.106138
841.60 3.106159
841.70 3.10618
841.80 3.1062
841.90 3.10622
842.00 3.10624
842.10 3.106261
842.20 3.106281
842.30 3.106301
842.40 3.10632
842.50 3.10634
842.60 3.10636
842.70 3.106379
842.80 3.106399
842.90 3.106418
843.00 3.106437
843.10 3.106457
843.20 3.106476
843.30 3.106495
843.40 3.106513
843.50 3.106532
843.60 3.106551
843.70 3.10657
843.80 3.106588
843.90 3.106606
844.00 3.106625
844.10 3.106643
844.20 3.106661
844.30 3.106679
844.40 3.106697
844.50 3.106715
844.60 3.106732
844.70 3.10675
844.80 3.106768
844.90 3.106785
845.00 3.106802
845.10 3.10682
845.20 3.106837
845.30 3.106827
845.40 3.106817
845.50 3.106807
845.60 3.106797
845.70 3.106787
845.80 3.106776
845.90 3.106766
846.00 3.106756
846.10 3.106745
846.20 3.106735
846.30 3.106724
846.40 3.106713
846.50 3.106702
846.60 3.106691
846.70 3.10668
846.80 3.106669
846.90 3.106658
847.00 3.106647
847.10 3.106636
847.20 3.106624
847.30 3.106613
847.40 3.106601
847.50 3.10659
847.60 3.106578
847.70 3.106566
847.80 3.106554
847.90 3.106542
848.00 3.10653
848.10 3.106518
848.20 3.106506
848.30 3.106494
848.40 3.106481
848.50 3.106469
848.60 3.106456
848.70 3.106444
848.80 3.106431
848.90 3.106418
849.00 3.106405
849.10 3.106392
849.20 3.106379
849.30 3.106366
849.40 3.106353
849.50 3.10634
849.60 3.106327
849.70 3.106313
849.80 3.1063
849.90 3.106286
850.00 3.106272
850.10 3.106259
850.20 3.106245
850.30 3.106231
850.40 3.106217
850.50 3.106203
850.60 3.106189
850.70 3.106175
850.80 3.10616
850.90 3.106146
851.00 3.106132
851.10 3.106117
851.20 3.106103
851.30 3.106088
851.40 3.106073
851.50 3.106058
851.60 3.106043
851.70 3.106028
851.80 3.106013
851.90 3.105998
852.00 3.105983
852.10 3.105968
852.20 3.105952
852.30 3.105937
852.40 3.105921
852.50 3.105906
852.60 3.10589
852.70 3.105874
852.80 3.105858
852.90 3.105842
853.00 3.105826
853.10 3.10581
853.20 3.105794
853.30 3.105778
853.40 3.105761
853.50 3.105745
853.60 3.105729
853.70 3.1057
853.80 3.105657
853.90 3.105614
854.00 3.105571
854.10 3.105529
854.20 3.105486
854.30 3.105443
854.40 3.1054
854.50 3.105357
854.60 3.105313
854.70 3.10527
854.80 3.105227
854.90 3.105184
855.00 3.10514
855.10 3.105097
855.20 3.105053
855.30 3.105009
855.40 3.104966
855.50 3.104922
855.60 3.104878
855.70 3.104834
855.80 3.10479
855.90 3.104746
856.00 3.104702
856.10 3.104658
856.20 3.104614
856.30 3.10457
856.40 3.104525
856.50 3.104481
856.60 3.104437
856.70 3.104392
856.80 3.104347
856.90 3.104303
857.00 3.104258
857.10 3.104213
857.20 3.104169
857.30 3.104124
857.40 3.104079
857.50 3.104034
857.60 3.103989
857.70 3.103943
857.80 3.103898
857.90 3.103853
858.00 3.103808
858.10 3.103762
858.20 3.103717
858.30 3.103671
858.40 3.103626
858.50 3.10358
858.60 3.103534
858.70 3.103488
858.80 3.103443
858.90 3.103397
859.00 3.103351
859.10 3.103305
859.20 3.103259
859.30 3.103212
859.40 3.103166
859.50 3.10312
859.60 3.103074
859.70 3.103027
859.80 3.102981
859.90 3.102934
860.00 3.102888
860.10 3.102841
860.20 3.102794
860.30 3.102747
860.40 3.102701
860.50 3.102654
860.60 3.102607
860.70 3.10256
860.80 3.102513
860.90 3.102465
861.00 3.102418
861.10 3.102371
861.20 3.102324
861.30 3.102276
861.40 3.102229
861.50 3.102181
861.60 3.102134
861.70 3.102086
861.80 3.102038
861.90 3.10199
862.00 3.101943
862.10 3.101895
862.20 3.101846
862.30 3.101791
862.40 3.101736
862.50 3.101682
862.60 3.101627
862.70 3.101572
862.80 3.101517
862.90 3.101462
863.00 3.101407
863.10 3.101351
863.20 3.101296
863.30 3.101241
863.40 3.101186
863.50 3.10113
863.60 3.101075
863.70 3.101019
863.80 3.100964
863.90 3.100908
864.00 3.100852
864.10 3.100797
864.20 3.100741
864.30 3.100685
864.40 3.100629
864.50 3.100573
864.60 3.100517
864.70 3.100461
864.80 3.100405
864.90 3.100348
865.00 3.100292
865.10 3.100236
865.20 3.10018
865.30 3.100123
865.40 3.100067
865.50 3.10001
865.60 3.099953
865.70 3.099897
865.80 3.09984
865.90 3.099783
866.00 3.099726
866.10 3.09967
866.20 3.099613
866.30 3.099556
866.40 3.099499
866.50 3.099441
866.60 3.099384
866.70 3.099327
866.80 3.09927
866.90 3.099212
867.00 3.099155
867.10 3.099098
867.20 3.09904
867.30 3.098983
867.40 3.098925
867.50 3.098867
867.60 3.09881
867.70 3.098752
867.80 3.098694
867.90 3.098636
868.00 3.098578
868.10 3.09852
868.20 3.098462
868.30 3.098404
868.40 3.098346
868.50 3.098288
868.60 3.098229
868.70 3.098171
868.80 3.098112
868.90 3.098054
869.00 3.097996
869.10 3.097937
869.20 3.097878
869.30 3.09782
869.40 3.097761
869.50 3.097702
869.60 3.097643
869.70 3.097584
869.80 3.097526
869.90 3.097467
870.00 3.097407
870.10 3.097348
870.20 3.097289
870.30 3.09723
870.40 3.097171
870.50 3.097111
870.60 3.097052
870.70 3.096993
870.80 3.096933
870.90 3.096868
871.00 3.096802
871.10 3.096736
871.20 3.09667
871.30 3.096603
871.40 3.096537
871.50 3.096471
871.60 3.096404
871.70 3.096338
871.80 3.096272
871.90 3.096205
872.00 3.096139
872.10 3.096072
872.20 3.096005
872.30 3.095939
872.40 3.095872
872.50 3.095805
872.60 3.095738
872.70 3.095671
872.80 3.095604
872.90 3.095537
873.00 3.09547
873.10 3.095403
873.20 3.095336
873.30 3.095269
873.40 3.095202
873.50 3.095134
873.60 3.095067
873.70 3.095
873.80 3.094932
873.90 3.094865
874.00 3.094797
874.10 3.09473
874.20 3.094662
874.30 3.094594
874.40 3.094526
874.50 3.094459
874.60 3.094391
874.70 3.094323
874.80 3.094255
874.90 3.094187
875.00 3.094119
875.10 3.094051
875.20 3.09397
875.30 3.093866
875.40 3.093763
875.50 3.093659
875.60 3.093555
875.70 3.093451
875.80 3.093347
875.90 3.093243
876.00 3.09314
876.10 3.093036
876.20 3.092932
876.30 3.092828
876.40 3.092724
876.50 3.092619
876.60 3.092515
876.70 3.092411
876.80 3.092307
876.90 3.092203
877.00 3.092099
877.10 3.091994
877.20 3.09189
877.30 3.091786
877.40 3.091681
877.50 3.091577
877.60 3.091472
877.70 3.091368
877.80 3.091263
877.90 3.091159
878.00 3.091054
878.10 3.09095
878.20 3.090845
878.30 3.09074
878.40 3.090636
878.50 3.090531
878.60 3.090426
878.70 3.090321
878.80 3.090217
878.90 3.090112
879.00 3.090007
879.10 3.089902
879.20 3.089797
879.30 3.089692
879.40 3.089587
879.50 3.089482
879.60 3.0894
879.70 3.089324
879.80 3.089248
879.90 3.089171
880.00 3.089095
880.10 3.089018
880.20 3.088942
880.30 3.088865
880.40 3.088789
880.50 3.088712
880.60 3.088635
880.70 3.088558
880.80 3.088482
880.90 3.088405
881.00 3.088328
881.10 3.088251
881.20 3.088174
881.30 3.088097
881.40 3.08802
881.50 3.087943
881.60 3.087865
881.70 3.087788
881.80 3.087711
881.90 3.087634
882.00 3.087556
882.10 3.087479
882.20 3.087401
882.30 3.087324
882.40 3.087246
882.50 3.087169
882.60 3.087091
882.70 3.087014
882.80 3.086936
882.90 3.086858
883.00 3.08678
883.10 3.086703
883.20 3.086625
883.30 3.086547
883.40 3.086469
883.50 3.086391
883.60 3.086313
883.70 3.086235
883.80 3.086156
883.90 3.086078
884.00 3.085971
884.10 3.085859
884.20 3.085746
884.30 3.085633
884.40 3.085521
884.50 3.085408
884.60 3.085295
884.70 3.085183
884.80 3.08507
884.90 3.084957
885.00 3.084844
885.10 3.084731
885.20 3.084619
885.30 3.084506
885.40 3.084393
885.50 3.08428
885.60 3.084167
885.70 3.084054
885.80 3.083941
885.90 3.083828
886.00 3.083715
886.10 3.083601
886.20 3.083488
886.30 3.083375
886.40 3.083262
886.50 3.083149
886.60 3.083035
886.70 3.082922
886.80 3.082809
886.90 3.082696
887.00 3.082582
887.10 3.082469
887.20 3.082355
887.30 3.082242
887.40 3.082128
887.50 3.082015
887.60 3.081901
887.70 3.081788
887.80 3.081674
887.90 3.081561
888.00 3.081447
888.10 3.081333
888.20 3.08122
888.30 3.081106
888.40 3.080987
888.50 3.080868
888.60 3.080748
888.70 3.080628
888.80 3.080509
888.90 3.080389
889.00 3.080269
889.10 3.08015
889.20 3.08003
889.30 3.07991
889.40 3.07979
889.50 3.07967
889.60 3.079551
889.70 3.079431
889.80 3.079311
889.90 3.079191
890.00 3.079071
890.10 3.078951
890.20 3.078831
890.30 3.078711
890.40 3.078591
890.50 3.078471
890.60 3.078351
890.70 3.078231
890.80 3.078111
890.90 3.07799
891.00 3.07787
891.10 3.07775
891.20 3.07763
891.30 3.07751
891.40 3.077389
891.50 3.077269
891.60 3.077149
891.70 3.077028
891.80 3.076908
891.90 3.076788
892.00 3.076667
892.10 3.076547
892.20 3.076426
892.30 3.076306
892.40 3.076185
892.50 3.076065
892.60 3.075944
892.70 3.075824
892.80 3.075703
892.90 3.075582
893.00 3.075462
893.10 3.075341
893.20 3.07522
893.30 3.0751
893.40 3.074979
893.50 3.074858
893.60 3.074737
893.70 3.074617
893.80 3.074496
893.90 3.074375
894.00 3.074254
894.10 3.074133
894.20 3.074012
894.30 3.073891
894.40 3.07377
894.50 3.073649
894.60 3.073528
894.70 3.073407
894.80 3.073286
894.90 3.073165
895.00 3.073044
895.10 3.072923
895.20 3.072802
895.30 3.072681
895.40 3.072559
895.50 3.072438
895.60 3.072317
895.70 3.072196
895.80 3.072074
895.90 3.071953
896.00 3.071832
896.10 3.07171
896.20 3.071589
896.30 3.071468
896.40 3.071346
896.50 3.071225
896.60 3.071103
896.70 3.070982
896.80 3.07086
896.90 3.070739
897.00 3.070617
897.10 3.070496
897.20 3.070374
897.30 3.070247
897.40 3.070119
897.50 3.069992
897.60 3.069865
897.70 3.069738
897.80 3.06961
897.90 3.069483
898.00 3.069356
898.10 3.069228
898.20 3.069101
898.30 3.068974
898.40 3.068846
898.50 3.068719
898.60 3.068591
898.70 3.068464
898.80 3.068336
898.90 3.068209
899.00 3.068081
899.10 3.067954
899.20 3.067826
899.30 3.067699
899.40 3.067571
899.50 3.067443
899.60 3.067316
899.70 3.067188
899.80 3.06706
899.90 3.066933
900.00 3.066805
900.10 3.066677
900.20 3.066549
900.30 3.066422
900.40 3.066294
900.50 3.066166
900.60 3.066038
900.70 3.06591
900.80 3.065783
900.90 3.065655
901.00 3.065527
901.10 3.065399
901.20 3.065271
901.30 3.065143
901.40 3.065015
901.50 3.064887
901.60 3.064759
901.70 3.064625
901.80 3.064465
901.90 3.064304
902.00 3.064144
902.10 3.063983
902.20 3.063822
902.30 3.063662
902.40 3.063501
902.50 3.063341
902.60 3.06318
902.70 3.06302
902.80 3.062859
902.90 3.062699
903.00 3.062538
903.10 3.062378
903.20 3.062217
903.30 3.062057
903.40 3.061896
903.50 3.061735
903.60 3.061575
903.70 3.061414
903.80 3.061254
903.90 3.061093
904.00 3.060932
904.10 3.060772
904.20 3.060611
904.30 3.060451
904.40 3.06029
904.50 3.060129
904.60 3.059969
904.70 3.059808
904.80 3.059648
904.90 3.059487
905.00 3.059326
905.10 3.059166
905.20 3.059005
905.30 3.058844
905.40 3.058684
905.50 3.058523
905.60 3.058363
905.70 3.058202
905.80 3.058041
905.90 3.057881
906.00 3.05772
906.10 3.057559
906.20 3.057407
906.30 3.057273
906.40 3.057139
906.50 3.057005
906.60 3.056871
906.70 3.056737
906.80 3.056603
906.90 3.056469
907.00 3.056335
907.10 3.056201
907.20 3.056067
907.30 3.055933
907.40 3.055798
907.50 3.055664
907.60 3.05553
907.70 3.055396
907.80 3.055262
907.90 3.055127
908.00 3.054993
908.10 3.054859
908.20 3.054725
908.30 3.05459
908.40 3.054456
908.50 3.054322
908.60 3.054188
908.70 3.054053
908.80 3.053919
908.90 3.053784
909.00 3.05365
909.10 3.053516
909.20 3.053381
909.30 3.053247
909.40 3.053112
909.50 3.052978
909.60 3.052843
909.70 3.052709
909.80 3.052575
909.90 3.05244
910.00 3.052305
910.10 3.052171
910.20 3.052036
910.30 3.051902
910.40 3.051767
910.50 3.051633
910.60 3.051498
910.70 3.051363
910.80 3.051197
910.90 3.051031
911.00 3.050865
911.10 3.050699
911.20 3.050532
911.30 3.050366
911.40 3.0502
911.50 3.050034
911.60 3.049868
911.70 3.049702
911.80 3.049536
911.90 3.049369
912.00 3.049203
912.10 3.049037
912.20 3.048871
912.30 3.048705
912.40 3.048539
912.50 3.048373
912.60 3.048206
912.70 3.04804
912.80 3.047874
912.90 3.047708
913.00 3.047542
913.10 3.047376
913.20 3.047209
913.30 3.047043
913.40 3.046877
913.50 3.046711
913.60 3.046545
913.70 3.046379
913.80 3.046213
913.90 3.046046
914.00 3.04588
914.10 3.045714
914.20 3.045548
914.30 3.045382
914.40 3.045216
914.50 3.04505
914.60 3.044883
914.70 3.044717
914.80 3.044551
914.90 3.044385
915.00 3.044219
915.10 3.044053
915.20 3.043886
915.30 3.043717
915.40 3.043546
915.50 3.043375
915.60 3.043204
915.70 3.043033
915.80 3.042862
915.90 3.042691
916.00 3.04252
916.10 3.042349
916.20 3.042177
916.30 3.042006
916.40 3.041835
916.50 3.041664
916.60 3.041493
916.70 3.041322
916.80 3.041151
916.90 3.04098
917.00 3.040809
917.10 3.040638
917.20 3.040467
917.30 3.040296
917.40 3.040125
917.50 3.039954
917.60 3.039783
917.70 3.039612
917.80 3.039441
917.90 3.03927
918.00 3.039099
918.10 3.038928
918.20 3.038757
918.30 3.038586
918.40 3.038415
918.50 3.038244
918.60 3.038073
918.70 3.037902
918.80 3.037731
918.90 3.03756
919.00 3.037389
919.10 3.037218
919.20 3.037047
919.30 3.036876
919.40 3.036705
919.50 3.036535
919.60 3.036364
919.70 3.036193
919.80 3.036022
919.90 3.035851
920.00 3.03568
920.10 3.035509
920.20 3.035338
920.30 3.035167
920.40 3.034996
920.50 3.034825
920.60 3.034654
920.70 3.034483
920.80 3.034312
920.90 3.034141
921.00 3.03397
921.10 3.033799
921.20 3.033629
921.30 3.033458
921.40 3.033287
921.50 3.033116
921.60 3.032945
921.70 3.032774
921.80 3.032603
921.90 3.032432
922.00 3.032261
922.10 3.03209
922.20 3.03192
922.30 3.031749
922.40 3.031578
922.50 3.031407
922.60 3.031236
922.70 3.031065
922.80 3.030894
922.90 3.030723
923.00 3.030553
923.10 3.030382
923.20 3.030211
923.30 3.03004
923.40 3.029869
923.50 3.029698
923.60 3.029527
923.70 3.029357
923.80 3.029186
923.90 3.029015
924.00 3.028844
924.10 3.028673
924.20 3.028502
924.30 3.028332
924.40 3.02816
924.50 3.027984
924.60 3.027809
924.70 3.027633
924.80 3.027457
924.90 3.027282
925.00 3.027106
925.10 3.026931
925.20 3.026755
925.30 3.026579
925.40 3.026404
925.50 3.026228
925.60 3.026053
925.70 3.025877
925.80 3.025701
925.90 3.025526
926.00 3.02535
926.10 3.025175
926.20 3.024999
926.30 3.024824
926.40 3.024648
926.50 3.024473
926.60 3.024297
926.70 3.024121
926.80 3.023946
926.90 3.02377
927.00 3.023595
927.10 3.023419
927.20 3.023244
927.30 3.023068
927.40 3.022893
927.50 3.022717
927.60 3.022542
927.70 3.022367
927.80 3.022191
927.90 3.022016
928.00 3.02184
928.10 3.021665
928.20 3.021489
928.30 3.021314
928.40 3.021138
928.50 3.020963
928.60 3.020788
928.70 3.020612
928.80 3.020437
928.90 3.020261
929.00 3.020086
929.10 3.01991
929.20 3.019735
929.30 3.01956
929.40 3.019384
929.50 3.019209
929.60 3.019034
929.70 3.018858
929.80 3.018683
929.90 3.018508
930.00 3.018332
930.10 3.018157
930.20 3.017982
930.30 3.017806
930.40 3.017631
930.50 3.017456
930.60 3.01728
930.70 3.017105
930.80 3.01693
930.90 3.016754
931.00 3.016579
931.10 3.016404
931.20 3.016228
931.30 3.016053
931.40 3.015878
931.50 3.015703
931.60 3.015527
931.70 3.015352
931.80 3.015177
931.90 3.015002
932.00 3.014826
932.10 3.014651
932.20 3.014476
932.30 3.014301
932.40 3.014126
932.50 3.01395
932.60 3.013775
932.70 3.0136
932.80 3.013425
932.90 3.01325
933.00 3.013075
933.10 3.012899
933.20 3.012724
933.30 3.012549
933.40 3.012374
933.50 3.012199
933.60 3.012024
933.70 3.011824
933.80 3.011615
933.90 3.011406
934.00 3.011197
934.10 3.010988
934.20 3.01078
934.30 3.010571
934.40 3.010362
934.50 3.010153
934.60 3.009945
934.70 3.009736
934.80 3.009528
934.90 3.009319
935.00 3.00911
935.10 3.008902
935.20 3.008693
935.30 3.008485
935.40 3.008276
935.50 3.008068
935.60 3.007859
935.70 3.007651
935.80 3.007442
935.90 3.007234
936.00 3.007026
936.10 3.006817
936.20 3.006609
936.30 3.006401
936.40 3.006192
936.50 3.005984
936.60 3.005776
936.70 3.005567
936.80 3.005359
936.90 3.005151
937.00 3.004943
937.10 3.004735
937.20 3.004527
937.30 3.004318
937.40 3.00411
937.50 3.003902
937.60 3.003694
937.70 3.003486
937.80 3.003278
937.90 3.00307
938.00 3.002862
938.10 3.002654
938.20 3.002446
938.30 3.002238
938.40 3.002031
938.50 3.001823
938.60 3.001615
938.70 3.001407
938.80 3.001199
938.90 3.000991
939.00 3.000784
939.10 3.000576
939.20 3.000368
939.30 3.00016
939.40 2.999953
939.50 2.999745
939.60 2.999537
939.70 2.99933
939.80 2.999122
939.90 2.998915
940.00 2.998707
940.10 2.998499
940.20 2.998292
940.30 2.998084
940.40 2.997877
940.50 2.99767
940.60 2.997462
940.70 2.997255
940.80 2.997047
940.90 2.99684
941.00 2.996633
941.10 2.996425
941.20 2.996218
941.30 2.996011
941.40 2.995803
941.50 2.995596
941.60 2.995389
941.70 2.995182
941.80 2.994974
941.90 2.994767
942.00 2.99456
942.10 2.994353
942.20 2.994146
942.30 2.993939
942.40 2.993732
942.50 2.993525
942.60 2.993318
942.70 2.993111
942.80 2.992904
942.90 2.992697
943.00 2.992488
943.10 2.992277
943.20 2.992066
943.30 2.991854
943.40 2.991643
943.50 2.991432
943.60 2.991221
943.70 2.99101
943.80 2.990799
943.90 2.990588
944.00 2.990377
944.10 2.990166
944.20 2.989955
944.30 2.989744
944.40 2.989533
944.50 2.989322
944.60 2.989112
944.70 2.988901
944.80 2.98869
944.90 2.988479
945.00 2.988268
945.10 2.988058
945.20 2.987847
945.30 2.987636
945.40 2.987425
945.50 2.987215
945.60 2.987004
945.70 2.986794
945.80 2.986583
945.90 2.986372
946.00 2.986162
946.10 2.985951
946.20 2.985741
946.30 2.98553
946.40 2.98532
946.50 2.985109
946.60 2.984899
946.70 2.984689
946.80 2.984478
946.90 2.984268
947.00 2.984058
947.10 2.983847
947.20 2.983637
947.30 2.983427
947.40 2.983217
947.50 2.983006
947.60 2.982796
947.70 2.982586
947.80 2.982376
947.90 2.982166
948.00 2.981956
948.10 2.981746
948.20 2.981535
948.30 2.981325
948.40 2.981115
948.50 2.980905
948.60 2.980695
948.70 2.980486
948.80 2.980276
948.90 2.980066
949.00 2.979856
949.10 2.979646
949.20 2.979436
949.30 2.979226
949.40 2.979017
949.50 2.978807
949.60 2.978597
949.70 2.978387
949.80 2.978178
949.90 2.977968
950.00 2.977758
950.10 2.977549
950.20 2.977339
950.30 2.977129
950.40 2.97692
950.50 2.97671
950.60 2.976501
950.70 2.976291
950.80 2.976082
950.90 2.975872
951.00 2.975663
951.10 2.975454
951.20 2.975244
951.30 2.975035
951.40 2.974825
951.50 2.974616
951.60 2.974407
951.70 2.974198
951.80 2.973988
951.90 2.973779
952.00 2.97357
952.10 2.973361
952.20 2.973151
952.30 2.972942
952.40 2.972733
952.50 2.97252
952.60 2.972307
952.70 2.972093
952.80 2.97188
952.90 2.971667
953.00 2.971454
953.10 2.971241
953.20 2.971028
953.30 2.970815
953.40 2.970602
953.50 2.970389
953.60 2.970176
953.70 2.969963
953.80 2.96975
953.90 2.969537
954.00 2.969325
954.10 2.969112
954.20 2.968899
954.30 2.968686
954.40 2.968474
954.50 2.968261
954.60 2.968048
954.70 2.967835
954.80 2.967623
954.90 2.96741
955.00 2.967198
955.10 2.966985
955.20 2.966772
955.30 2.96656
955.40 2.966347
955.50 2.966135
955.60 2.965923
955.70 2.96571
955.80 2.965498
955.90 2.965285
956.00 2.965073
956.10 2.964861
956.20 2.964648
956.30 2.964436
956.40 2.964224
956.50 2.964012
956.60 2.963799
956.70 2.963587
956.80 2.963375
956.90 2.963163
957.00 2.962951
957.10 2.962739
957.20 2.962514
957.30 2.962275
957.40 2.962036
957.50 2.961797
957.60 2.961558
957.70 2.961319
957.80 2.96108
957.90 2.960841
958.00 2.960602
958.10 2.960363
958.20 2.960124
958.30 2.959885
958.40 2.959646
958.50 2.959408
958.60 2.959169
958.70 2.95893
958.80 2.958692
958.90 2.958453
959.00 2.958215
959.10 2.957976
959.20 2.957737
959.30 2.957499
959.40 2.957261
959.50 2.957022
959.60 2.956784
959.70 2.956546
959.80 2.956307
959.90 2.956069
960.00 2.955831
960.10 2.955593
960.20 2.955354
960.30 2.955116
960.40 2.954878
960.50 2.95464
960.60 2.954402
960.70 2.954164
960.80 2.953926
960.90 2.953688
961.00 2.953451
961.10 2.953213
961.20 2.952975
961.30 2.952737
961.40 2.952499
961.50 2.952262
961.60 2.952024
961.70 2.951786
961.80 2.951549
961.90 2.951311
962.00 2.951071
962.10 2.95083
962.20 2.950588
962.30 2.950347
962.40 2.950106
962.50 2.949865
962.60 2.949624
962.70 2.949383
962.80 2.949142
962.90 2.948901
963.00 2.94866
963.10 2.94842
963.20 2.948179
963.30 2.947938
963.40 2.947697
963.50 2.947457
963.60 2.947216
963.70 2.946975
963.80 2.946735
963.90 2.946494
964.00 2.946254
964.10 2.946013
964.20 2.945773
964.30 2.945533
964.40 2.945292
964.50 2.945052
964.60 2.944812
964.70 2.944571
964.80 2.944331
964.90 2.944091
965.00 2.943851
965.10 2.943611
965.20 2.943371
965.30 2.943131
965.40 2.942891
965.50 2.942651
965.60 2.942411
965.70 2.942171
965.80 2.941931
965.90 2.941691
966.00 2.941451
966.10 2.941212
966.20 2.940972
966.30 2.940732
966.40 2.940493
966.50 2.940253
966.60 2.940014
966.70 2.939774
966.80 2.939535
966.90 2.939295
967.00 2.939056
967.10 2.938816
967.20 2.938577
967.30 2.938338
967.40 2.938098
967.50 2.937859
967.60 2.93762
967.70 2.937381
967.80 2.937142
967.90 2.936903
968.00 2.936664
968.10 2.936425
968.20 2.936186
968.30 2.935947
968.40 2.935708
968.50 2.935469
968.60 2.93523
968.70 2.934991
968.80 2.934752
968.90 2.934514
969.00 2.934275
969.10 2.934036
969.20 2.933798
969.30 2.933559
969.40 2.933321
969.50 2.933082
969.60 2.932844
969.70 2.932605
969.80 2.932367
969.90 2.932128
970.00 2.93189
970.10 2.931652
970.20 2.931414
970.30 2.931175
970.40 2.930937
970.50 2.930699
970.60 2.930461
970.70 2.930223
970.80 2.929985
970.90 2.929747
971.00 2.929509
971.10 2.929271
971.20 2.929033
971.30 2.928795
971.40 2.928557
971.50 2.92832
971.60 2.928079
971.70 2.927838
971.80 2.927597
971.90 2.927356
972.00 2.927114
972.10 2.926873
972.20 2.926632
972.30 2.926391
972.40 2.92615
972.50 2.925909
972.60 2.925668
972.70 2.925427
972.80 2.925186
972.90 2.924945
973.00 2.924704
973.10 2.924463
973.20 2.924223
973.30 2.923982
973.40 2.923741
973.50 2.923501
973.60 2.92326
973.70 2.923019
973.80 2.922779
973.90 2.922538
974.00 2.922298
974.10 2.922057
974.20 2.921817
974.30 2.921577
974.40 2.921336
974.50 2.921096
974.60 2.920856
974.70 2.920616
974.80 2.920376
974.90 2.920135
975.00 2.919895
975.10 2.919655
975.20 2.919415
975.30 2.919175
975.40 2.918935
975.50 2.918695
975.60 2.918455
975.70 2.918216
975.80 2.917976
975.90 2.917736
976.00 2.917496
976.10 2.917257
976.20 2.917017
976.30 2.916777
976.40 2.916538
976.50 2.916298
976.60 2.916059
976.70 2.915819
976.80 2.91558
976.90 2.91534
977.00 2.915101
977.10 2.914862
977.20 2.914622
977.30 2.914383
977.40 2.914144
977.50 2.913905
977.60 2.913666
977.70 2.913427
977.80 2.913188
977.90 2.912949
978.00 2.91271
978.10 2.912471
978.20 2.912232
978.30 2.911993
978.40 2.911754
978.50 2.911515
978.60 2.911276
978.70 2.911038
978.80 2.910799
978.90 2.91056
979.00 2.910322
979.10 2.910083
979.20 2.909845
979.30 2.909606
979.40 2.909368
979.50 2.909129
979.60 2.908891
979.70 2.908652
979.80 2.908414
979.90 2.908176
980.00 2.907938
980.10 2.907699
980.20 2.907461
980.30 2.907223
980.40 2.906985
980.50 2.906747
980.60 2.906509
980.70 2.906271
980.80 2.906033
980.90 2.905795
981.00 2.905557
981.10 2.905319
981.20 2.905081
981.30 2.904829
981.40 2.904563
981.50 2.904297
981.60 2.90403
981.70 2.903764
981.80 2.903498
981.90 2.903232
982.00 2.902966
982.10 2.9027
982.20 2.902434
982.30 2.902168
982.40 2.901902
982.50 2.901637
982.60 2.901371
982.70 2.901105
982.80 2.900839
982.90 2.900574
983.00 2.900308
983.10 2.900043
983.20 2.899777
983.30 2.899512
983.40 2.899247
983.50 2.898981
983.60 2.898716
983.70 2.898451
983.80 2.898186
983.90 2.89792
984.00 2.897655
984.10 2.89739
984.20 2.897125
984.30 2.89686
984.40 2.896596
984.50 2.896331
984.60 2.896066
984.70 2.895801
984.80 2.895537
984.90 2.895272
985.00 2.895007
985.10 2.894743
985.20 2.894478
985.30 2.894214
985.40 2.893949
985.50 2.893685
985.60 2.893421
985.70 2.893156
985.80 2.892892
985.90 2.892628
986.00 2.892364
986.10 2.8921
986.20 2.891836
986.30 2.891572
986.40 2.891308
986.50 2.891044
986.60 2.89078
986.70 2.890516
986.80 2.890253
986.90 2.889989
987.00 2.889725
987.10 2.889462
987.20 2.889198
987.30 2.888935
987.40 2.888671
987.50 2.888408
987.60 2.888145
987.70 2.887881
987.80 2.887618
987.90 2.887355
988.00 2.887092
988.10 2.886828
988.20 2.886565
988.30 2.886302
988.40 2.886039
988.50 2.885776
988.60 2.885514
988.70 2.885251
988.80 2.884988
988.90 2.884725
989.00 2.884463
989.10 2.8842
989.20 2.883937
989.30 2.883675
989.40 2.883412
989.50 2.88315
989.60 2.882887
989.70 2.882625
989.80 2.882363
989.90 2.8821
990.00 2.881838
990.10 2.881576
990.20 2.881314
990.30 2.881052
990.40 2.88079
990.50 2.880528
990.60 2.880266
990.70 2.880004
990.80 2.879742
990.90 2.87948
991.00 2.879219
991.10 2.878956
991.20 2.878691
991.30 2.878426
991.40 2.878161
991.50 2.877897
991.60 2.877632
991.70 2.877368
991.80 2.877103
991.90 2.876839
992.00 2.876574
992.10 2.87631
992.20 2.876046
992.30 2.875781
992.40 2.875517
992.50 2.875253
992.60 2.874989
992.70 2.874725
992.80 2.874461
992.90 2.874197
993.00 2.873933
993.10 2.873669
993.20 2.873405
993.30 2.873142
993.40 2.872878
993.50 2.872614
993.60 2.872351
993.70 2.872087
993.80 2.871823
993.90 2.87156
994.00 2.871297
994.10 2.871033
994.20 2.87077
994.30 2.870507
994.40 2.870243
994.50 2.86998
994.60 2.869717
994.70 2.869454
994.80 2.869191
994.90 2.868928
995.00 2.868665
995.10 2.868402
995.20 2.868139
995.30 2.867876
995.40 2.867613
995.50 2.867351
995.60 2.867088
995.70 2.866825
995.80 2.866563
995.90 2.8663
996.00 2.866038
996.10 2.865775
996.20 2.865513
996.30 2.865251
996.40 2.864988
996.50 2.864726
996.60 2.864464
996.70 2.864201
996.80 2.863939
996.90 2.863677
997.00 2.863415
997.10 2.863153
997.20 2.862891
997.30 2.862629
997.40 2.862367
997.50 2.862105
997.60 2.861844
997.70 2.861582
997.80 2.86132
997.90 2.861059
998.00 2.860797
998.10 2.860535
998.20 2.860274
998.30 2.860012
998.40 2.859751
998.50 2.85949
998.60 2.859228
998.70 2.858967
998.80 2.858706
998.90 2.858445
999.00 2.858184
999.10 2.857923
999.20 2.857662
999.30 2.857401
999.40 2.85714
999.50 2.856879
999.60 2.856618
999.70 2.856357
999.80 2.856096
999.90 2.855836
1000.00 2.855575
1000.10 2.855314
1000.20 2.855054
1000.30 2.854793
1000.40 2.854533
1000.50 2.854273
1000.60 2.854012
1000.70 2.853752
1000.80 2.853492
1000.90 2.853231
1001.00 2.85297
1001.10 2.852707
1001.20 2.852444
1001.30 2.852181
1001.40 2.851918
1001.50 2.851655
1001.60 2.851392
1001.70 2.851129
1001.80 2.850866
1001.90 2.850604
1002.00 2.850341
1002.10 2.850078
1002.20 2.849816
1002.30 2.849553
1002.40 2.84929
1002.50 2.849028
1002.60 2.848766
1002.70 2.848503
1002.80 2.848241
1002.90 2.847979
1003.00 2.847716
1003.10 2.847454
1003.20 2.847192
1003.30 2.84693
1003.40 2.846668
1003.50 2.846406
1003.60 2.846144
1003.70 2.845882
1003.80 2.84562
1003.90 2.845358
1004.00 2.845096
1004.10 2.844835
1004.20 2.844573
1004.30 2.844311
1004.40 2.84405
1004.50 2.843788
1004.60 2.843527
1004.70 2.843265
1004.80 2.843004
1004.90 2.842743
1005.00 2.842481
1005.10 2.84222
1005.20 2.841959
1005.30 2.841698
1005.40 2.841437
1005.50 2.841176
1005.60 2.840915
1005.70 2.840654
1005.80 2.840393
1005.90 2.840132
1006.00 2.839866
1006.10 2.839582
1006.20 2.839298
1006.30 2.839014
1006.40 2.83873
1006.50 2.838446
1006.60 2.838163
1006.70 2.837879
1006.80 2.837595
1006.90 2.837311
1007.00 2.837028
1007.10 2.836744
1007.20 2.836461
1007.30 2.836178
1007.40 2.835894
1007.50 2.835611
1007.60 2.835328
1007.70 2.835045
1007.80 2.834761
1007.90 2.834478
1008.00 2.834195
1008.10 2.833912
1008.20 2.83363
1008.30 2.833347
1008.40 2.833064
1008.50 2.832781
1008.60 2.832499
1008.70 2.832216
1008.80 2.831933
1008.90 2.831651
1009.00 2.831368
1009.10 2.831086
1009.20 2.830804
1009.30 2.830522
1009.40 2.830239
1009.50 2.829957
1009.60 2.829675
1009.70 2.829393
1009.80 2.829111
1009.90 2.828829
1010.00 2.828547
1010.10 2.828265
1010.20 2.827984
1010.30 2.827702
1010.40 2.82742
1010.50 2.827139
1010.60 2.826857
1010.70 2.826576
1010.80 2.826294
1010.90 2.826013
1011.00 2.825731
1011.10 2.825447
1011.20 2.825163
1011.30 2.824879
1011.40 2.824595
1011.50 2.824311
1011.60 2.824028
1011.70 2.823744
1011.80 2.82346
1011.90 2.823177
1012.00 2.822893
1012.10 2.82261
1012.20 2.822326
1012.30 2.822043
1012.40 2.82176
1012.50 2.821476
1012.60 2.821193
1012.70 2.82091
1012.80 2.820627
1012.90 2.820344
1013.00 2.820061
1013.10 2.819778
1013.20 2.819495
1013.30 2.819212
1013.40 2.818929
1013.50 2.818647
1013.60 2.818364
1013.70 2.818082
1013.80 2.817799
1013.90 2.817517
1014.00 2.817234
1014.10 2.816952
1014.20 2.81667
1014.30 2.816387
1014.40 2.816105
1014.50 2.815823
1014.60 2.815541
1014.70 2.815259
1014.80 2.814977
1014.90 2.814695
1015.00 2.814413
1015.10 2.814131
1015.20 2.81385
1015.30 2.813568
1015.40 2.813286
1015.50 2.813005
1015.60 2.812723
1015.70 2.812442
1015.80 2.812161
1015.90 2.811879
1016.00 2.811598
1016.10 2.811317
1016.20 2.811036
1016.30 2.810754
1016.40 2.810473
1016.50 2.810192
1016.60 2.809911
1016.70 2.809631
1016.80 2.80935
1016.90 2.809069
1017.00 2.808788
1017.10 2.808508
1017.20 2.808227
1017.30 2.807946
1017.40 2.807666
1017.50 2.807385
1017.60 2.807105
1017.70 2.806825
1017.80 2.806544
1017.90 2.806264
1018.00 2.805984
1018.10 2.805704
1018.20 2.805424
1018.30 2.805144
1018.40 2.804864
1018.50 2.804584
1018.60 2.804304
1018.70 2.804025
1018.80 2.803745
1018.90 2.803465
1019.00 2.803186
1019.10 2.802906
1019.20 2.802627
1019.30 2.802347
1019.40 2.802068
1019.50 2.801788
1019.60 2.801509
1019.70 2.80123
1019.80 2.800951
1019.90 2.800672
1020.00 2.800393
1020.10 2.800114
1020.20 2.799835
1020.30 2.799556
1020.40 2.799277
1020.50 2.798998
1020.60 2.79872
1020.70 2.798441
1020.80 2.798162
1020.90 2.797884
1021.00 2.797605
1021.10 2.797327
1021.20 2.797046
1021.30 2.796765
1021.40 2.796484
1021.50 2.796203
1021.60 2.795922
1021.70 2.795641
1021.80 2.79536
1021.90 2.79508
1022.00 2.794799
1022.10 2.794519
1022.20 2.794238
1022.30 2.793958
1022.40 2.793677
1022.50 2.793397
1022.60 2.793117
1022.70 2.792836
1022.80 2.792556
1022.90 2.792276
1023.00 2.791996
1023.10 2.791716
1023.20 2.791436
1023.30 2.791156
1023.40 2.790876
1023.50 2.790597
1023.60 2.790317
1023.70 2.790037
1023.80 2.789758
1023.90 2.789478
1024.00 2.789199
1024.10 2.788919
1024.20 2.78864
1024.30 2.78836
1024.40 2.788081
1024.50 2.787802
1024.60 2.787523
1024.70 2.787244
1024.80 2.786965
1024.90 2.786686
1025.00 2.786407
1025.10 2.786128
1025.20 2.785849
1025.30 2.78557
1025.40 2.785292
1025.50 2.785013
1025.60 2.784734
1025.70 2.784456
1025.80 2.784177
1025.90 2.783899
1026.00 2.78362
1026.10 2.783342
1026.20 2.783064
1026.30 2.782763
1026.40 2.782463
1026.50 2.782163
1026.60 2.781863
1026.70 2.781563
1026.80 2.781264
1026.90 2.780964
1027.00 2.780664
1027.10 2.780364
1027.20 2.780065
1027.30 2.779765
1027.40 2.779466
1027.50 2.779166
1027.60 2.778867
1027.70 2.778568
1027.80 2.778269
1027.90 2.777969
1028.00 2.77767
1028.10 2.777371
1028.20 2.777072
1028.30 2.776773
1028.40 2.776475
1028.50 2.776176
1028.60 2.775877
1028.70 2.775579
1028.80 2.77528
1028.90 2.774981
1029.00 2.774683
1029.10 2.774385
1029.20 2.774086
1029.30 2.773788
1029.40 2.77349
1029.50 2.773192
1029.60 2.772894
1029.70 2.772596
1029.80 2.772298
1029.90 2.772
1030.00 2.771702
1030.10 2.771404
1030.20 2.771107
1030.30 2.770809
1030.40 2.770511
1030.50 2.770214
1030.60 2.769916
1030.70 2.769619
1030.80 2.769322
1030.90 2.769025
1031.00 2.768727
1031.10 2.76843
1031.20 2.768133
1031.30 2.767836
1031.40 2.767537
1031.50 2.767238
1031.60 2.766938
1031.70 2.766639
1031.80 2.76634
1031.90 2.766041
1032.00 2.765742
1032.10 2.765443
1032.20 2.765144
1032.30 2.764846
1032.40 2.764547
1032.50 2.764248
1032.60 2.76395
1032.70 2.763651
1032.80 2.763353
1032.90 2.763054
1033.00 2.762756
1033.10 2.762458
1033.20 2.76216
1033.30 2.761862
1033.40 2.761563
1033.50 2.761265
1033.60 2.760968
1033.70 2.76067
1033.80 2.760372
1033.90 2.760074
1034.00 2.759776
1034.10 2.759479
1034.20 2.759181
1034.30 2.758884
1034.40 2.758586
1034.50 2.758289
1034.60 2.757992
1034.70 2.757694
1034.80 2.757397
1034.90 2.7571
1035.00 2.756803
1035.10 2.756506
1035.20 2.756209
1035.30 2.755912
1035.40 2.755615
1035.50 2.755319
1035.60 2.755022
1035.70 2.754725
1035.80 2.754429
1035.90 2.754132
1036.00 2.753836
1036.10 2.75354
1036.20 2.753243
1036.30 2.752947
1036.40 2.752651
1036.50 2.752355
1036.60 2.752059
1036.70 2.751763
1036.80 2.751467
1036.90 2.751171
1037.00 2.750875
1037.10 2.75058
1037.20 2.750284
1037.30 2.749989
1037.40 2.749693
1037.50 2.749398
1037.60 2.749102
1037.70 2.748807
1037.80 2.748512
1037.90 2.748217
1038.00 2.747922
1038.10 2.747626
1038.20 2.747331
1038.30 2.747037
1038.40 2.746742
1038.50 2.746447
1038.60 2.746152
1038.70 2.745857
1038.80 2.745563
1038.90 2.745268
1039.00 2.744974
1039.10 2.744679
1039.20 2.744385
1039.30 2.744091
1039.40 2.743796
1039.50 2.743502
1039.60 2.743208
1039.70 2.742914
1039.80 2.74262
1039.90 2.742326
1040.00 2.742032
1040.10 2.741739
1040.20 2.741445
1040.30 2.741151
1040.40 2.740858
1040.50 2.740564
1040.60 2.74027
1040.70 2.739977
1040.80 2.739684
1040.90 2.73939
1041.00 2.739097
1041.10 2.738804
1041.20 2.738511
1041.30 2.738218
1041.40 2.737925
1041.50 2.737632
1041.60 2.737339
1041.70 2.737044
1041.80 2.736749
1041.90 2.736454
1042.00 2.736159
1042.10 2.735864
1042.20 2.73557
1042.30 2.735275
1042.40 2.73498
1042.50 2.734685
1042.60 2.734391
1042.70 2.734096
1042.80 2.733802
1042.90 2.733508
1043.00 2.733213
1043.10 2.732919
1043.20 2.732625
1043.30 2.732331
1043.40 2.732037
1043.50 2.731743
1043.60 2.731449
1043.70 2.731155
1043.80 2.730861
1043.90 2.730567
1044.00 2.730273
1044.10 2.72998
1044.20 2.729686
1044.30 2.729393
1044.40 2.729099
1044.50 2.728806
1044.60 2.728513
1044.70 2.728219
1044.80 2.727926
1044.90 2.727633
1045.00 2.72734
1045.10 2.727047
1045.20 2.726754
1045.30 2.726461
1045.40 2.726168
1045.50 2.725876
1045.60 2.725583
1045.70 2.72529
1045.80 2.724998
1045.90 2.724705
1046.00 2.724413
1046.10 2.72412
1046.20 2.723828
1046.30 2.723536
1046.40 2.723244
1046.50 2.722951
1046.60 2.722659
1046.70 2.722367
1046.80 2.722075
1046.90 2.721784
1047.00 2.721492
1047.10 2.7212
1047.20 2.720908
1047.30 2.720617
1047.40 2.720325
1047.50 2.720033
1047.60 2.719742
1047.70 2.719451
1047.80 2.719159
1047.90 2.718868
1048.00 2.718577
1048.10 2.718286
1048.20 2.717995
1048.30 2.717704
1048.40 2.717413
1048.50 2.717122
1048.60 2.716831
1048.70 2.71654
1048.80 2.716249
1048.90 2.715959
1049.00 2.715668
1049.10 2.715378
1049.20 2.715087
1049.30 2.714797
1049.40 2.714506
1049.50 2.714216
1049.60 2.713926
1049.70 2.713636
1049.80 2.713346
1049.90 2.713055
1050.00 2.712766
1050.10 2.712476
1050.20 2.712186
1050.30 2.711896
1050.40 2.711606
1050.50 2.711317
1050.60 2.711027
1050.70 2.710737
1050.80 2.710448
1050.90 2.710158
1051.00 2.709869
1051.10 2.70958
1051.20 2.709291
1051.30 2.709001
1051.40 2.708712
1051.50 2.708423
1051.60 2.708134
1051.70 2.707845
1051.80 2.707556
1051.90 2.707267
1052.00 2.706979
1052.10 2.706675
1052.20 2.706364
1052.30 2.706053
1052.40 2.705741
1052.50 2.70543
1052.60 2.70512
1052.70 2.704809
1052.80 2.704498
1052.90 2.704187
1053.00 2.703876
1053.10 2.703566
1053.20 2.703255
1053.30 2.702945
1053.40 2.702635
1053.50 2.702324
1053.60 2.702014
1053.70 2.701704
1053.80 2.701394
1053.90 2.701084
1054.00 2.700774
1054.10 2.700464
1054.20 2.700154
1054.30 2.699844
1054.40 2.699535
1054.50 2.699225
1054.60 2.698915
1054.70 2.698606
1054.80 2.698296
1054.90 2.697987
1055.00 2.697678
1055.10 2.697369
1055.20 2.697059
1055.30 2.69675
1055.40 2.696441
1055.50 2.696132
1055.60 2.695824
1055.70 2.695515
1055.80 2.695206
1055.90 2.694897
1056.00 2.694589
1056.10 2.69428
1056.20 2.693972
1056.30 2.693663
1056.40 2.693355
1056.50 2.693047
1056.60 2.692739
1056.70 2.692431
1056.80 2.692123
1056.90 2.691815
1057.00 2.691507
1057.10 2.691199
1057.20 2.690891
1057.30 2.690583
1057.40 2.690276
1057.50 2.689968
1057.60 2.689661
1057.70 2.689353
1057.80 2.689046
1057.90 2.688739
1058.00 2.688431
1058.10 2.688124
1058.20 2.687817
1058.30 2.68751
1058.40 2.687203
1058.50 2.686896
1058.60 2.686589
1058.70 2.686283
1058.80 2.685976
1058.90 2.685669
1059.00 2.685363
1059.10 2.685056
1059.20 2.68475
1059.30 2.684444
1059.40 2.684137
1059.50 2.683831
1059.60 2.683525
1059.70 2.683219
1059.80 2.682913
1059.90 2.682607
1060.00 2.682301
1060.10 2.681995
1060.20 2.68169
1060.30 2.681384
1060.40 2.681078
1060.50 2.680773
1060.60 2.680467
1060.70 2.680162
1060.80 2.679857
1060.90 2.679551
1061.00 2.679246
1061.10 2.678941
1061.20 2.678636
1061.30 2.678331
1061.40 2.678026
1061.50 2.677721
1061.60 2.677416
1061.70 2.677112
1061.80 2.676807
1061.90 2.676502
1062.00 2.676198
1062.10 2.675894
1062.20 2.675589
1062.30 2.675285
1062.40 2.674981
1062.50 2.674676
1062.60 2.674371
1062.70 2.674065
1062.80 2.673759
1062.90 2.673454
1063.00 2.673148
1063.10 2.672842
1063.20 2.672536
1063.30 2.672231
1063.40 2.671925
1063.50 2.67162
1063.60 2.671314
1063.70 2.671009
1063.80 2.670704
1063.90 2.670398
1064.00 2.670093
1064.10 2.669788
1064.20 2.669483
1064.30 2.669178
1064.40 2.668873
1064.50 2.668569
1064.60 2.668264
1064.70 2.667959
1064.80 2.667655
1064.90 2.66735
1065.00 2.667046
1065.10 2.666741
1065.20 2.666437
1065.30 2.666133
1065.40 2.665828
1065.50 2.665524
1065.60 2.66522
1065.70 2.664916
1065.80 2.664612
1065.90 2.664309
1066.00 2.664005
1066.10 2.663701
1066.20 2.663397
1066.30 2.663094
1066.40 2.66279
1066.50 2.662487
1066.60 2.662183
1066.70 2.66188
1066.80 2.661577
1066.90 2.661274
1067.00 2.660971
1067.10 2.660667
1067.20 2.660364
1067.30 2.660062
1067.40 2.659759
1067.50 2.659456
1067.60 2.659153
1067.70 2.658851
1067.80 2.658548
1067.90 2.658245
1068.00 2.657943
1068.10 2.657641
1068.20 2.657338
1068.30 2.657036
1068.40 2.656734
1068.50 2.656432
1068.60 2.65613
1068.70 2.655828
1068.80 2.655526
1068.90 2.655224
1069.00 2.654923
1069.10 2.654621
1069.20 2.654319
1069.30 2.654018
1069.40 2.653716
1069.50 2.653415
1069.60 2.653113
1069.70 2.652812
1069.80 2.652511
1069.90 2.65221
1070.00 2.651909
1070.10 2.651608
1070.20 2.651307
1070.30 2.651006
1070.40 2.650705
1070.50 2.650404
1070.60 2.650104
1070.70 2.649803
1070.80 2.649502
1070.90 2.649202
1071.00 2.648901
1071.10 2.648601
1071.20 2.648301
1071.30 2.648001
1071.40 2.6477
1071.50 2.6474
1071.60 2.6471
1071.70 2.6468
1071.80 2.6465
1071.90 2.646201
1072.00 2.645901
1072.10 2.645601
1072.20 2.645301
1072.30 2.645002
1072.40 2.644702
1072.50 2.644403
1072.60 2.644104
1072.70 2.643804
1072.80 2.643505
1072.90 2.643206
1073.00 2.642907
1073.10 2.642608
1073.20 2.642304
1073.30 2.641984
1073.40 2.641664
1073.50 2.641345
1073.60 2.641025
1073.70 2.640705
1073.80 2.640385
1073.90 2.640066
1074.00 2.639746
1074.10 2.639427
1074.20 2.639108
1074.30 2.638788
1074.40 2.638469
1074.50 2.63815
1074.60 2.637831
1074.70 2.637512
1074.80 2.637193
1074.90 2.636874
1075.00 2.636555
1075.10 2.636237
1075.20 2.635918
1075.30 2.6356
1075.40 2.635281
1075.50 2.634963
1075.60 2.634644
1075.70 2.634326
1075.80 2.634008
1075.90 2.63369
1076.00 2.633372
1076.10 2.633054
1076.20 2.632736
1076.30 2.632418
1076.40 2.6321
1076.50 2.631783
1076.60 2.631465
1076.70 2.631148
1076.80 2.63083
1076.90 2.630513
1077.00 2.630195
1077.10 2.629878
1077.20 2.629561
1077.30 2.629244
1077.40 2.628927
1077.50 2.62861
1077.60 2.628293
1077.70 2.627976
1077.80 2.62766
1077.90 2.627343
1078.00 2.627026
1078.10 2.62671
1078.20 2.626393
1078.30 2.626077
1078.40 2.625761
1078.50 2.625444
1078.60 2.625128
1078.70 2.624812
1078.80 2.624496
1078.90 2.62418
1079.00 2.623864
1079.10 2.623549
1079.20 2.623233
1079.30 2.622917
1079.40 2.622602
1079.50 2.622286
1079.60 2.621971
1079.70 2.621655
1079.80 2.62134
1079.90 2.621025
1080.00 2.62071
1080.10 2.620395
1080.20 2.62008
1080.30 2.619765
1080.40 2.61945
1080.50 2.619135
1080.60 2.61882
1080.70 2.618506
1080.80 2.618191
1080.90 2.617877
1081.00 2.617562
1081.10 2.617248
1081.20 2.616934
1081.30 2.616619
1081.40 2.616305
1081.50 2.615991
1081.60 2.615677
1081.70 2.615363
1081.80 2.615049
1081.90 2.614736
1082.00 2.614422
1082.10 2.614108
1082.20 2.613795
1082.30 2.613481
1082.40 2.613168
1082.50 2.612854
1082.60 2.612541
1082.70 2.612228
1082.80 2.611915
1082.90 2.611602
1083.00 2.611289
1083.10 2.610976
1083.20 2.610663
1083.30 2.61035
1083.40 2.610037
1083.50 2.609725
1083.60 2.609412
1083.70 2.6091
1083.80 2.608787
1083.90 2.608475
1084.00 2.608161
1084.10 2.607847
1084.20 2.607533
1084.30 2.60722
1084.40 2.606906
1084.50 2.606592
1084.60 2.606279
1084.70 2.605965
1084.80 2.605652
1084.90 2.605339
1085.00 2.605025
1085.10 2.604712
1085.20 2.604399
1085.30 2.604086
1085.40 2.603773
1085.50 2.60346
1085.60 2.603147
1085.70 2.602834
1085.80 2.602522
1085.90 2.602209
1086.00 2.601897
1086.10 2.601584
1086.20 2.601272
1086.30 2.600959
1086.40 2.600647
1086.50 2.600335
1086.60 2.600023
1086.70 2.599711
1086.80 2.599399
1086.90 2.599087
1087.00 2.598775
1087.10 2.598463
1087.20 2.598151
1087.30 2.59784
1087.40 2.597528
1087.50 2.597217
1087.60 2.596905
1087.70 2.596594
1087.80 2.596283
1087.90 2.595972
1088.00 2.59566
1088.10 2.595349
1088.20 2.595038
1088.30 2.594727
1088.40 2.594417
1088.50 2.594106
1088.60 2.593795
1088.70 2.593484
1088.80 2.593174
1088.90 2.592863
1089.00 2.592553
1089.10 2.592243
1089.20 2.591932
1089.30 2.591622
1089.40 2.591312
1089.50 2.591002
1089.60 2.590692
1089.70 2.590382
1089.80 2.590072
1089.90 2.589762
1090.00 2.589453
1090.10 2.589143
1090.20 2.588834
1090.30 2.588524
1090.40 2.588215
1090.50 2.587905
1090.60 2.587596
1090.70 2.587287
1090.80 2.586978
1090.90 2.586669
1091.00 2.58636
1091.10 2.586051
1091.20 2.585742
1091.30 2.585433
1091.40 2.585124
1091.50 2.584816
1091.60 2.584507
1091.70 2.584199
1091.80 2.58389
1091.90 2.583582
1092.00 2.583273
1092.10 2.582965
1092.20 2.582657
1092.30 2.582349
1092.40 2.582041
1092.50 2.581733
1092.60 2.581425
1092.70 2.581117
1092.80 2.58081
1092.90 2.580502
1093.00 2.580194
1093.10 2.579887
1093.20 2.579579
1093.30 2.579272
1093.40 2.578964
1093.50 2.578657
1093.60 2.57835
1093.70 2.578043
1093.80 2.577736
1093.90 2.577429
1094.00 2.577122
1094.10 2.576815
1094.20 2.576508
1094.30 2.576202
1094.40 2.575895
1094.50 2.575588
1094.60 2.575282
1094.70 2.574975
1094.80 2.574659
1094.90 2.574333
1095.00 2.574007
1095.10 2.573682
1095.20 2.573356
1095.30 2.57303
1095.40 2.572705
1095.50 2.572379
1095.60 2.572054
1095.70 2.571728
1095.80 2.571403
1095.90 2.571078
1096.00 2.570753
1096.10 2.570428
1096.20 2.570103
1096.30 2.569778
1096.40 2.569453
1096.50 2.569128
1096.60 2.568803
1096.70 2.568479
1096.80 2.568154
1096.90 2.56783
1097.00 2.567505
1097.10 2.567181
1097.20 2.566857
1097.30 2.566533
1097.40 2.566209
1097.50 2.565885
1097.60 2.565561
1097.70 2.565237
1097.80 2.564913
1097.90 2.564589
1098.00 2.564266
1098.10 2.563942
1098.20 2.563619
1098.30 2.563295
1098.40 2.562972
1098.50 2.562649
1098.60 2.562325
1098.70 2.562002
1098.80 2.561679
1098.90 2.561356
1099.00 2.561034
1099.10 2.560711
1099.20 2.560388
1099.30 2.560065
1099.40 2.559743
1099.50 2.55942
1099.60 2.559098
1099.70 2.558775
1099.80 2.558453
1099.90 2.558131
1100.00 2.557809
1100.10 2.557487
1100.20 2.557165
1100.30 2.556843
1100.40 2.556521
1100.50 2.556199
1100.60 2.555878
1100.70 2.555556
1100.80 2.555235
1100.90 2.554913
1101.00 2.554592
1101.10 2.55427
1101.20 2.553949
1101.30 2.553628
1101.40 2.553307
1101.50 2.552986
1101.60 2.552665
1101.70 2.552344
1101.80 2.552023
1101.90 2.551703
1102.00 2.551382
1102.10 2.551061
1102.20 2.550741
1102.30 2.550421
1102.40 2.5501
1102.50 2.54978
1102.60 2.54946
1102.70 2.54914
1102.80 2.54882
1102.90 2.5485
1103.00 2.54818
1103.10 2.54786
1103.20 2.54754
1103.30 2.547221
1103.40 2.546901
1103.50 2.546581
1103.60 2.546262
1103.70 2.545943
1103.80 2.545623
1103.90 2.545304
1104.00 2.544985
1104.10 2.544666
1104.20 2.544347
1104.30 2.544028
1104.40 2.543709
1104.50 2.54339
1104.60 2.543072
1104.70 2.542753
1104.80 2.542434
1104.90 2.542116
1105.00 2.541797
1105.10 2.541479
1105.20 2.541161
1105.30 2.540843
1105.40 2.540525
1105.50 2.540206
1105.60 2.539889
1105.70 2.539571
1105.80 2.539251
1105.90 2.538932
1106.00 2.538613
1106.10 2.538294
1106.20 2.537975
1106.30 2.537656
1106.40 2.537338
1106.50 2.537019
1106.60 2.5367
1106.70 2.536382
1106.80 2.536063
1106.90 2.535745
1107.00 2.535426
1107.10 2.535108
1107.20 2.53479
1107.30 2.534472
1107.40 2.534154
1107.50 2.533836
1107.60 2.533518
1107.70 2.5332
1107.80 2.532882
1107.90 2.532565
1108.00 2.532247
1108.10 2.53193
1108.20 2.531612
1108.30 2.531295
1108.40 2.530978
1108.50 2.53066
1108.60 2.530343
1108.70 2.530026
1108.80 2.529709
1108.90 2.529392
1109.00 2.529075
1109.10 2.528758
1109.20 2.528442
1109.30 2.528125
1109.40 2.527808
1109.50 2.527492
1109.60 2.527176
1109.70 2.526859
1109.80 2.526543
1109.90 2.526227
1110.00 2.525911
1110.10 2.525594
1110.20 2.525278
1110.30 2.524963
1110.40 2.524647
1110.50 2.524331
1110.60 2.524015
1110.70 2.5237
1110.80 2.523384
1110.90 2.523069
1111.00 2.522753
1111.10 2.522438
1111.20 2.522123
1111.30 2.521807
1111.40 2.521492
1111.50 2.521177
1111.60 2.520862
1111.70 2.520547
1111.80 2.520233
1111.90 2.519918
1112.00 2.519603
1112.10 2.519288
1112.20 2.518974
1112.30 2.518659
1112.40 2.518345
1112.50 2.518031
1112.60 2.517717
1112.70 2.517402
1112.80 2.517088
1112.90 2.516774
1113.00 2.51646
1113.10 2.516146
1113.20 2.515833
1113.30 2.515519
1113.40 2.515205
1113.50 2.514892
1113.60 2.514578
1113.70 2.514265
1113.80 2.513951
1113.90 2.513638
1114.00 2.513325
1114.10 2.513011
1114.20 2.512698
1114.30 2.512385
1114.40 2.512072
1114.50 2.511759
1114.60 2.511447
1114.70 2.511134
1114.80 2.510821
1114.90 2.510509
1115.00 2.510196
1115.10 2.509884
1115.20 2.509571
1115.30 2.509259
1115.40 2.508947
1115.50 2.508635
1115.60 2.508323
1115.70 2.508011
1115.80 2.507699
1115.90 2.507387
1116.00 2.507075
1116.10 2.506763
1116.20 2.506452
1116.30 2.50614
1116.40 2.505828
1116.50 2.505517
1116.60 2.505206
1116.70 2.504894
1116.80 2.504582
1116.90 2.50427
1117.00 2.503957
1117.10 2.503645
1117.20 2.503333
1117.30 2.503021
1117.40 2.502708
1117.50 2.502396
1117.60 2.502084
1117.70 2.501772
1117.80 2.50146
1117.90 2.501149
1118.00 2.500837
1118.10 2.500525
1118.20 2.500214
1118.30 2.499902
1118.40 2.499591
1118.50 2.499279
1118.60 2.498968
1118.70 2.498657
1118.80 2.498345
1118.90 2.498034
1119.00 2.497723
1119.10 2.497412
1119.20 2.497102
1119.30 2.496791
1119.40 2.49648
1119.50 2.496169
1119.60 2.495859
1119.70 2.495548
1119.80 2.495238
1119.90 2.494927
1120.00 2.494617
1120.10 2.494307
1120.20 2.493997
1120.30 2.493687
1120.40 2.493377
1120.50 2.493067
1120.60 2.492757
1120.70 2.492447
1120.80 2.492137
1120.90 2.491827
1121.00 2.491518
1121.10 2.491208
1121.20 2.490899
1121.30 2.490589
1121.40 2.49028
1121.50 2.489971
1121.60 2.489662
1121.70 2.489353
1121.80 2.489044
1121.90 2.488735
1122.00 2.488426
1122.10 2.488117
1122.20 2.487808
1122.30 2.487499
1122.40 2.487181
1122.50 2.486855
1122.60 2.48653
1122.70 2.486205
1122.80 2.48588
1122.90 2.485555
1123.00 2.48523
1123.10 2.484905
1123.20 2.48458
1123.30 2.484255
1123.40 2.483931
1123.50 2.483606
1123.60 2.483281
1123.70 2.482957
1123.80 2.482633
1123.90 2.482308
1124.00 2.481984
1124.10 2.48166
1124.20 2.481336
1124.30 2.481012
1124.40 2.480688
1124.50 2.480364
1124.60 2.480041
1124.70 2.479717
1124.80 2.479393
1124.90 2.47907
1125.00 2.478746
1125.10 2.478423
1125.20 2.4781
1125.30 2.477777
1125.40 2.477453
1125.50 2.47713
1125.60 2.476807
1125.70 2.476484
1125.80 2.476162
1125.90 2.475839
1126.00 2.475516
1126.10 2.475194
1126.20 2.474871
1126.30 2.474549
1126.40 2.474226
1126.50 2.473904
1126.60 2.473582
1126.70 2.473259
1126.80 2.472937
1126.90 2.472615
1127.00 2.472293
1127.10 2.471972
1127.20 2.47165
1127.30 2.471328
1127.40 2.471006
1127.50 2.470685
1127.60 2.470363
1127.70 2.470042
1127.80 2.469721
1127.90 2.469399
1128.00 2.469077
1128.10 2.468755
1128.20 2.468433
1128.30 2.468111
1128.40 2.467789
1128.50 2.467467
1128.60 2.467145
1128.70 2.466823
1128.80 2.466501
1128.90 2.46618
1129.00 2.465858
1129.10 2.465536
1129.20 2.465215
1129.30 2.464894
1129.40 2.464572
1129.50 2.464251
1129.60 2.46393
1129.70 2.463609
1129.80 2.463288
1129.90 2.462967
1130.00 2.462646
1130.10 2.462325
1130.20 2.462005
1130.30 2.461684
1130.40 2.461363
1130.50 2.461043
1130.60 2.460723
1130.70 2.460402
1130.80 2.460082
1130.90 2.459762
1131.00 2.459442
1131.10 2.459122
1131.20 2.458802
1131.30 2.458482
1131.40 2.458162
1131.50 2.457842
1131.60 2.457523
1131.70 2.457203
1131.80 2.456884
1131.90 2.456564
1132.00 2.456245
1132.10 2.455925
1132.20 2.455606
1132.30 2.455287
1132.40 2.454968
1132.50 2.454649
1132.60 2.45433
1132.70 2.454011
1132.80 2.453693
1132.90 2.453374
1133.00 2.453055
1133.10 2.452737
1133.20 2.452418
1133.30 2.4521
1133.40 2.451782
1133.50 2.451463
1133.60 2.451145
1133.70 2.450827
1133.80 2.450509
1133.90 2.450191
1134.00 2.449873
1134.10 2.449555
1134.20 2.449238
1134.30 2.44892
1134.40 2.448603
1134.50 2.448285
1134.60 2.447968
1134.70 2.44765
1134.80 2.447333
1134.90 2.447016
1135.00 2.446699
1135.10 2.446382
1135.20 2.446065
1135.30 2.445748
1135.40 2.445431
1135.50 2.445114
1135.60 2.444797
1135.70 2.444481
1135.80 2.444164
1135.90 2.443848
1136.00 2.443531
1136.10 2.443215
1136.20 2.442899
1136.30 2.442583
1136.40 2.442267
1136.50 2.44195
1136.60 2.441635
1136.70 2.441319
1136.80 2.441003
1136.90 2.440687
1137.00 2.440371
1137.10 2.440056
1137.20 2.43974
1137.30 2.439425
1137.40 2.43911
1137.50 2.438794
1137.60 2.438479
1137.70 2.438164
1137.80 2.437849
1137.90 2.437534
1138.00 2.437219
1138.10 2.436904
1138.20 2.436589
1138.30 2.436275
1138.40 2.43596
1138.50 2.435645
1138.60 2.435331
1138.70 2.435016
1138.80 2.434702
1138.90 2.434388
1139.00 2.434074
1139.10 2.433759
1139.20 2.433445
1139.30 2.433122
1139.40 2.432799
1139.50 2.432477
1139.60 2.432154
1139.70 2.431831
1139.80 2.431508
1139.90 2.431185
1140.00 2.430863
1140.10 2.43054
1140.20 2.430218
1140.30 2.429896
1140.40 2.429573
1140.50 2.429251
1140.60 2.428929
1140.70 2.428607
1140.80 2.428285
1140.90 2.427963
1141.00 2.427641
1141.10 2.42732
1141.20 2.426998
1141.30 2.426676
1141.40 2.426355
1141.50 2.426033
1141.60 2.425712
1141.70 2.425391
1141.80 2.42507
1141.90 2.424748
1142.00 2.424427
1142.10 2.424106
1142.20 2.423786
1142.30 2.423465
1142.40 2.423144
1142.50 2.422823
1142.60 2.422503
1142.70 2.422182
1142.80 2.421862
1142.90 2.421541
1143.00 2.421221
1143.10 2.420901
1143.20 2.420581
1143.30 2.420261
1143.40 2.419941
1143.50 2.419621
1143.60 2.419301
1143.70 2.418981
1143.80 2.418661
1143.90 2.418342
1144.00 2.418022
1144.10 2.417703
1144.20 2.417383
1144.30 2.417064
1144.40 2.416745
1144.50 2.416425
1144.60 2.416106
1144.70 2.415787
1144.80 2.415468
1144.90 2.415149
1145.00 2.414831
1145.10 2.414512
1145.20 2.414193
1145.30 2.413875
1145.40 2.413556
1145.50 2.413238
1145.60 2.412919
1145.70 2.412601
1145.80 2.412283
1145.90 2.411965
1146.00 2.411647
1146.10 2.411329
1146.20 2.411011
1146.30 2.410693
1146.40 2.410375
1146.50 2.410057
1146.60 2.40974
1146.70 2.409422
1146.80 2.409105
1146.90 2.408787
1147.00 2.40847
1147.10 2.408153
1147.20 2.407836
1147.30 2.407518
1147.40 2.407201
1147.50 2.406884
1147.60 2.406568
1147.70 2.406251
1147.80 2.405934
1147.90 2.405617
1148.00 2.405301
1148.10 2.404984
1148.20 2.404668
1148.30 2.404351
1148.40 2.404035
1148.50 2.403719
1148.60 2.403403
1148.70 2.403087
1148.80 2.402771
1148.90 2.402455
1149.00 2.402139
1149.10 2.401823
1149.20 2.401508
1149.30 2.401192
1149.40 2.400876
1149.50 2.400561
1149.60 2.400245
1149.70 2.39993
1149.80 2.399615
1149.90 2.3993
1150.00 2.398985
1150.10 2.39867
1150.20 2.398355
1150.30 2.39804
1150.40 2.397725
1150.50 2.39741
1150.60 2.397095
1150.70 2.396772
1150.80 2.396448
1150.90 2.396125
1151.00 2.395802
1151.10 2.395479
1151.20 2.395156
1151.30 2.394833
1151.40 2.39451
1151.50 2.394187
1151.60 2.393865
1151.70 2.393542
1151.80 2.39322
1151.90 2.392897
1152.00 2.392575
1152.10 2.392252
1152.20 2.39193
1152.30 2.391608
1152.40 2.391286
1152.50 2.390964
1152.60 2.390642
1152.70 2.39032
1152.80 2.389998
1152.90 2.389677
1153.00 2.389355
1153.10 2.389034
1153.20 2.388712
1153.30 2.388391
1153.40 2.388069
1153.50 2.387748
1153.60 2.387427
1153.70 2.387106
1153.80 2.386785
1153.90 2.386464
1154.00 2.386143
1154.10 2.385822
1154.20 2.385502
1154.30 2.385181
1154.40 2.38486
1154.50 2.38454
1154.60 2.384219
1154.70 2.383899
1154.80 2.383579
1154.90 2.383259
1155.00 2.382939
1155.10 2.382619
1155.20 2.382299
1155.30 2.381979
1155.40 2.381659
1155.50 2.381339
1155.60 2.381019
1155.70 2.3807
1155.80 2.38038
1155.90 2.380061
1156.00 2.379742
1156.10 2.379422
1156.20 2.379103
1156.30 2.378784
1156.40 2.378465
1156.50 2.378146
1156.60 2.377827
1156.70 2.377508
1156.80 2.377189
1156.90 2.376871
1157.00 2.376552
1157.10 2.376233
1157.20 2.375915
1157.30 2.375596
1157.40 2.375278
1157.50 2.37496
1157.60 2.374642
1157.70 2.374323
1157.80 2.374005
1157.90 2.373687
1158.00 2.37337
1158.10 2.373052
1158.20 2.372734
1158.30 2.372416
1158.40 2.372099
1158.50 2.371781
1158.60 2.371464
1158.70 2.371146
1158.80 2.370829
1158.90 2.370512
1159.00 2.370195
1159.10 2.369878
1159.20 2.36956
1159.30 2.369244
1159.40 2.368927
1159.50 2.36861
1159.60 2.368293
1159.70 2.367977
1159.80 2.36766
1159.90 2.367344
1160.00 2.367027
1160.10 2.366711
1160.20 2.366394
1160.30 2.366078
1160.40 2.365762
1160.50 2.365446
1160.60 2.36513
1160.70 2.364814
1160.80 2.364498
1160.90 2.364183
1161.00 2.363867
1161.10 2.363551
1161.20 2.363236
1161.30 2.36292
1161.40 2.362605
1161.50 2.36229
1161.60 2.361974
1161.70 2.361659
1161.80 2.361344
1161.90 2.361029
1162.00 2.360714
1162.10 2.360399
1162.20 2.360069
1162.30 2.359738
1162.40 2.359407
1162.50 2.359077
1162.60 2.358746
1162.70 2.358416
1162.80 2.358086
1162.90 2.357755
1163.00 2.357425
1163.10 2.357095
1163.20 2.356765
1163.30 2.356435
1163.40 2.356106
1163.50 2.355776
1163.60 2.355446
1163.70 2.355117
1163.80 2.354787
1163.90 2.354458
1164.00 2.354128
1164.10 2.353799
1164.20 2.35347
1164.30 2.353141
1164.40 2.352812
1164.50 2.352483
1164.60 2.352154
1164.70 2.351825
1164.80 2.351496
1164.90 2.351168
1165.00 2.350839
1165.10 2.350511
1165.20 2.350182
1165.30 2.349854
1165.40 2.349526
1165.50 2.349198
1165.60 2.34887
1165.70 2.348541
1165.80 2.348214
1165.90 2.347886
1166.00 2.347558
1166.10 2.34723
1166.20 2.346903
1166.30 2.346575
1166.40 2.346248
1166.50 2.34592
1166.60 2.345593
1166.70 2.345266
1166.80 2.344938
1166.90 2.344611
1167.00 2.344284
1167.10 2.343957
1167.20 2.343631
1167.30 2.343304
1167.40 2.342977
1167.50 2.342651
1167.60 2.342324
1167.70 2.341998
1167.80 2.341671
1167.90 2.341345
1168.00 2.341032
1168.10 2.340721
1168.20 2.34041
1168.30 2.340099
1168.40 2.339788
1168.50 2.339477
1168.60 2.339166
1168.70 2.338855
1168.80 2.338544
1168.90 2.338233
1169.00 2.337923
1169.10 2.337612
1169.20 2.337302
1169.30 2.336992
1169.40 2.336681
1169.50 2.336371
1169.60 2.336061
1169.70 2.335751
1169.80 2.335441
1169.90 2.335131
1170.00 2.334821
1170.10 2.334511
1170.20 2.334201
1170.30 2.333892
1170.40 2.333582
1170.50 2.333273
1170.60 2.332963
1170.70 2.332654
1170.80 2.332345
1170.90 2.332035
1171.00 2.331726
1171.10 2.331417
1171.20 2.331108
1171.30 2.330799
1171.40 2.33049
1171.50 2.330182
1171.60 2.329873
1171.70 2.329564
1171.80 2.329256
1171.90 2.328947
1172.00 2.328639
1172.10 2.32833
1172.20 2.328022
1172.30 2.327714
1172.40 2.327406
1172.50 2.327098
1172.60 2.32679
1172.70 2.326482
1172.80 2.326174
1172.90 2.325866
1173.00 2.325558
1173.10 2.325251
1173.20 2.324943
1173.30 2.324635
1173.40 2.324328
1173.50 2.324021
1173.60 2.323713
1173.70 2.323406
1173.80 2.323087
1173.90 2.322764
1174.00 2.322442
1174.10 2.322119
1174.20 2.321797
1174.30 2.321475
1174.40 2.321152
1174.50 2.32083
1174.60 2.320508
1174.70 2.320186
1174.80 2.319864
1174.90 2.319543
1175.00 2.319221
1175.10 2.318899
1175.20 2.318578
1175.30 2.318256
1175.40 2.317935
1175.50 2.317613
1175.60 2.317292
1175.70 2.316971
1175.80 2.31665
1175.90 2.316328
1176.00 2.316007
1176.10 2.315687
1176.20 2.315366
1176.30 2.315045
1176.40 2.314724
1176.50 2.314404
1176.60 2.314083
1176.70 2.313763
1176.80 2.313442
1176.90 2.313122
1177.00 2.312802
1177.10 2.312482
1177.20 2.312162
1177.30 2.311842
1177.40 2.311522
1177.50 2.311202
1177.60 2.310882
1177.70 2.310562
1177.80 2.310243
1177.90 2.309923
1178.00 2.309604
1178.10 2.309284
1178.20 2.308965
1178.30 2.308646
1178.40 2.308326
1178.50 2.308007
1178.60 2.307688
1178.70 2.307369
1178.80 2.30705
1178.90 2.306732
1179.00 2.306413
1179.10 2.306094
1179.20 2.305776
1179.30 2.305457
1179.40 2.305139
1179.50 2.30482
1179.60 2.304502
1179.70 2.304184
1179.80 2.303866
1179.90 2.303548
1180.00 2.30323
1180.10 2.302912
1180.20 2.302594
1180.30 2.302276
1180.40 2.301959
1180.50 2.301641
1180.60 2.301323
1180.70 2.301006
1180.80 2.300688
1180.90 2.300371
1181.00 2.300054
1181.10 2.299737
1181.20 2.29942
1181.30 2.299103
1181.40 2.298786
1181.50 2.298469
1181.60 2.298152
1181.70 2.297835
1181.80 2.297519
1181.90 2.297202
1182.00 2.296886
1182.10 2.296569
1182.20 2.296253
1182.30 2.295936
1182.40 2.29562
1182.50 2.295304
1182.60 2.294988
1182.70 2.294672
1182.80 2.294356
1182.90 2.29404
1183.00 2.293725
1183.10 2.293409
1183.20 2.293093
1183.30 2.292778
1183.40 2.292462
1183.50 2.292147
1183.60 2.291832
1183.70 2.291516
1183.80 2.291201
1183.90 2.290886
1184.00 2.290571
1184.10 2.290256
1184.20 2.289941
1184.30 2.289626
1184.40 2.289312
1184.50 2.288997
1184.60 2.288682
1184.70 2.288368
1184.80 2.288054
1184.90 2.287739
1185.00 2.287425
1185.10 2.287111
1185.20 2.286797
1185.30 2.286482
1185.40 2.286168
1185.50 2.285854
1185.60 2.28554
1185.70 2.285225
1185.80 2.284911
1185.90 2.284596
1186.00 2.284282
1186.10 2.283968
1186.20 2.283654
1186.30 2.28334
1186.40 2.283026
1186.50 2.282712
1186.60 2.282398
1186.70 2.282085
1186.80 2.281771
1186.90 2.281457
1187.00 2.281144
1187.10 2.28083
1187.20 2.280517
1187.30 2.280204
1187.40 2.27989
1187.50 2.279577
1187.60 2.279264
1187.70 2.278951
1187.80 2.278638
1187.90 2.278325
1188.00 2.278013
1188.10 2.2777
1188.20 2.277387
1188.30 2.277075
1188.40 2.276762
1188.50 2.27645
1188.60 2.276137
1188.70 2.275825
1188.80 2.275513
1188.90 2.275201
1189.00 2.274889
1189.10 2.274577
1189.20 2.274265
1189.30 2.273953
1189.40 2.273641
1189.50 2.273329
1189.60 2.273018
1189.70 2.272706
1189.80 2.272395
1189.90 2.272083
1190.00 2.271772
1190.10 2.271461
1190.20 2.27115
1190.30 2.270839
1190.40 2.270527
1190.50 2.270217
1190.60 2.269906
1190.70 2.269595
1190.80 2.269284
1190.90 2.268973
1191.00 2.268663
1191.10 2.268352
1191.20 2.268042
1191.30 2.267731
1191.40 2.267419
1191.50 2.267095
1191.60 2.26677
1191.70 2.266446
1191.80 2.266122
1191.90 2.265798
1192.00 2.265474
1192.10 2.26515
1192.20 2.264827
1192.30 2.264503
1192.40 2.264179
1192.50 2.263856
1192.60 2.263532
1192.70 2.263209
1192.80 2.262886
1192.90 2.262562
1193.00 2.262239
1193.10 2.261916
1193.20 2.261593
1193.30 2.26127
1193.40 2.260947
1193.50 2.260624
1193.60 2.260302
1193.70 2.259979
1193.80 2.259657
1193.90 2.259334
1194.00 2.259012
1194.10 2.258689
1194.20 2.258367
1194.30 2.258045
1194.40 2.257723
1194.50 2.257401
1194.60 2.257079
1194.70 2.256757
1194.80 2.256435
1194.90 2.256114
1195.00 2.255792
1195.10 2.25547
1195.20 2.255149
1195.30 2.254827
1195.40 2.254506
1195.50 2.254185
1195.60 2.253864
1195.70 2.253543
1195.80 2.253222
1195.90 2.252901
1196.00 2.25258
1196.10 2.252259
1196.20 2.251938
1196.30 2.251618
1196.40 2.251297
1196.50 2.250977
1196.60 2.250656
1196.70 2.250336
1196.80 2.250015
1196.90 2.249695
1197.00 2.249375
1197.10 2.249055
1197.20 2.248735
1197.30 2.248415
1197.40 2.248107
1197.50 2.247801
1197.60 2.247494
1197.70 2.247188
1197.80 2.246881
1197.90 2.246575
1198.00 2.246269
1198.10 2.245963
1198.20 2.245657
1198.30 2.245351
1198.40 2.245045
1198.50 2.244739
1198.60 2.244434
1198.70 2.244128
1198.80 2.243822
1198.90 2.243517
1199.00 2.243211
1199.10 2.242906
1199.20 2.242601
1199.30 2.242295
1199.40 2.24199
1199.50 2.241685
1199.60 2.24138
1199.70 2.241075
1199.80 2.24077
1199.90 2.240465
1200.00 2.240161
