# Version 2.1 - nm, norm@500 to 1, cut digits, bergeron_He_8500_75.dat_8500
# Wavelength(nm)  Flambda(ergs/cm^s/s/nm)
300.00 1.459481
300.10 1.459619
300.20 1.459753
300.30 1.459896
300.40 1.460107
300.50 1.460318
300.60 1.460528
300.70 1.460738
300.80 1.460947
300.90 1.461156
301.00 1.461363
301.10 1.461571
301.20 1.461777
301.30 1.461983
301.40 1.462189
301.50 1.462394
301.60 1.462598
301.70 1.462802
301.80 1.463005
301.90 1.463208
302.00 1.463409
302.10 1.46355
302.20 1.463683
302.30 1.463816
302.40 1.463948
302.50 1.46408
302.60 1.464212
302.70 1.464342
302.80 1.464473
302.90 1.464603
303.00 1.464732
303.10 1.464861
303.20 1.464989
303.30 1.465122
303.40 1.465304
303.50 1.465484
303.60 1.465664
303.70 1.465844
303.80 1.466023
303.90 1.466201
304.00 1.466379
304.10 1.466556
304.20 1.466733
304.30 1.466909
304.40 1.467085
304.50 1.46726
304.60 1.467394
304.70 1.467525
304.80 1.467654
304.90 1.467783
305.00 1.467912
305.10 1.46804
305.20 1.468167
305.30 1.468294
305.40 1.468421
305.50 1.468547
305.60 1.468673
305.70 1.468798
305.80 1.468923
305.90 1.469047
306.00 1.469171
306.10 1.469294
306.20 1.469417
306.30 1.469539
306.40 1.469691
306.50 1.469851
306.60 1.47001
306.70 1.470169
306.80 1.470327
306.90 1.470485
307.00 1.470642
307.10 1.470798
307.20 1.470955
307.30 1.47111
307.40 1.471265
307.50 1.47142
307.60 1.471574
307.70 1.471728
307.80 1.471881
307.90 1.472034
308.00 1.472186
308.10 1.472337
308.20 1.472488
308.30 1.472639
308.40 1.472789
308.50 1.472938
308.60 1.473088
308.70 1.473236
308.80 1.473297
308.90 1.473108
309.00 1.473344
309.10 1.47358
309.20 1.473815
309.30 1.474049
309.40 1.474256
309.50 1.474297
309.60 1.474339
309.70 1.47438
309.80 1.47442
309.90 1.47446
310.00 1.4745
310.10 1.47454
310.20 1.474579
310.30 1.474617
310.40 1.474683
310.50 1.474778
310.60 1.474873
310.70 1.474967
310.80 1.475061
310.90 1.475154
311.00 1.475223
311.10 1.475291
311.20 1.475359
311.30 1.475435
311.40 1.475534
311.50 1.475634
311.60 1.475732
311.70 1.475831
311.80 1.475929
311.90 1.476026
312.00 1.476123
312.10 1.47622
312.20 1.47658
312.30 1.476944
312.40 1.477046
312.50 1.477245
312.60 1.477313
312.70 1.47738
312.80 1.477446
312.90 1.477455
313.00 1.477401
313.10 1.477347
313.20 1.477292
313.30 1.477275
313.40 1.477365
313.50 1.477454
313.60 1.477542
313.70 1.477631
313.80 1.477718
313.90 1.477806
314.00 1.477893
314.10 1.478036
314.20 1.478179
314.30 1.478321
314.40 1.478463
314.50 1.478605
314.60 1.478746
314.70 1.478886
314.80 1.479055
314.90 1.479035
315.00 1.478722
315.10 1.478865
315.20 1.479007
315.30 1.479148
315.40 1.47929
315.50 1.47943
315.60 1.47957
315.70 1.479556
315.80 1.479542
315.90 1.479527
316.00 1.479512
316.10 1.479497
316.20 1.479481
316.30 1.479925
316.40 1.479908
316.50 1.479892
316.60 1.480334
316.70 1.480316
316.80 1.480298
316.90 1.48028
317.00 1.480262
317.10 1.480243
317.20 1.480224
317.30 1.480342
317.40 1.480464
317.50 1.480603
317.60 1.480741
317.70 1.480879
317.80 1.481016
317.90 1.480684
318.00 1.480359
318.10 1.480565
318.20 1.48077
318.30 1.480975
318.40 1.48112
318.50 1.481097
318.60 1.480838
318.70 1.480951
318.80 1.480791
318.90 1.480903
319.00 1.480978
319.10 1.480953
319.20 1.480942
319.30 1.480969
319.40 1.480996
319.50 1.481023
319.60 1.48174
319.70 1.481766
319.80 1.481791
319.90 1.481816
320.00 1.481816
320.10 1.481788
320.20 1.481731
320.30 1.481301
320.40 1.481272
320.50 1.481871
320.60 1.481644
320.70 1.481615
320.80 1.481585
320.90 1.481555
321.00 1.481525
321.10 1.481495
321.20 1.482168
321.30 1.482171
321.40 1.482173
321.50 1.482175
321.60 1.482177
321.70 1.482178
321.80 1.482025
321.90 1.481704
322.00 1.48213
322.10 1.482092
322.20 1.482054
322.30 1.482016
322.40 1.481977
322.50 1.481938
322.60 1.481899
322.70 1.48186
322.80 1.481643
322.90 1.481666
323.00 1.481688
323.10 1.481711
323.20 1.481732
323.30 1.481754
323.40 1.481775
323.50 1.481796
323.60 1.481816
323.70 1.481837
323.80 1.481856
323.90 1.481876
324.00 1.481899
324.10 1.481921
324.20 1.481943
324.30 1.482013
324.40 1.482094
324.50 1.482037
324.60 1.48198
324.70 1.481922
324.80 1.481865
324.90 1.481807
325.00 1.481749
325.10 1.481691
325.20 1.481651
325.30 1.481649
325.40 1.481647
325.50 1.481728
325.60 1.48191
325.70 1.482093
325.80 1.482275
325.90 1.482326
326.00 1.482238
326.10 1.482149
326.20 1.482059
326.30 1.481935
326.40 1.481713
326.50 1.481697
326.60 1.481681
326.70 1.481664
326.80 1.481647
326.90 1.48163
327.00 1.481613
327.10 1.481595
327.20 1.481577
327.30 1.481559
327.40 1.481541
327.50 1.481522
327.60 1.481504
327.70 1.481485
327.80 1.481465
327.90 1.48142
328.00 1.481388
328.10 1.481406
328.20 1.481424
328.30 1.481441
328.40 1.481458
328.50 1.481509
328.60 1.481567
328.70 1.481625
328.80 1.481659
328.90 1.481622
329.00 1.481585
329.10 1.481548
329.20 1.48151
329.30 1.481472
329.40 1.481434
329.50 1.481396
329.60 1.481358
329.70 1.481319
329.80 1.481281
329.90 1.481242
330.00 1.481199
330.10 1.481152
330.20 1.481105
330.30 1.481058
330.40 1.481007
330.50 1.480951
330.60 1.480894
330.70 1.480838
330.80 1.480781
330.90 1.480724
331.00 1.480667
331.10 1.480609
331.20 1.480552
331.30 1.480494
331.40 1.480436
331.50 1.480304
331.60 1.480084
331.70 1.479863
331.80 1.479829
331.90 1.479803
332.00 1.479777
332.10 1.47975
332.20 1.479723
332.30 1.479696
332.40 1.479668
332.50 1.479641
332.60 1.479613
332.70 1.479585
332.80 1.479556
332.90 1.479528
333.00 1.479499
333.10 1.479456
333.20 1.479397
333.30 1.479338
333.40 1.479278
333.50 1.479218
333.60 1.479158
333.70 1.479098
333.80 1.479037
333.90 1.478977
334.00 1.478916
334.10 1.478855
334.20 1.478793
334.30 1.478732
334.40 1.47867
334.50 1.478608
334.60 1.478546
334.70 1.47847
334.80 1.478438
334.90 1.478494
335.00 1.47855
335.10 1.478234
335.20 1.47817
335.30 1.477841
335.40 1.477676
335.50 1.477714
335.60 1.477548
335.70 1.477852
335.80 1.477788
335.90 1.477723
336.00 1.477659
336.10 1.477594
336.20 1.477529
336.30 1.477464
336.40 1.477398
336.50 1.477333
336.60 1.477267
336.70 1.477201
336.80 1.477135
336.90 1.477065
337.00 1.476991
337.10 1.476916
337.20 1.476841
337.30 1.476716
337.40 1.476519
337.50 1.476321
337.60 1.476124
337.70 1.475927
337.80 1.475729
337.90 1.475579
338.00 1.475486
338.10 1.475393
338.20 1.4753
338.30 1.475207
338.40 1.475124
338.50 1.475066
338.60 1.475008
338.70 1.47495
338.80 1.474892
338.90 1.474833
339.00 1.474775
339.10 1.474716
339.20 1.474657
339.30 1.4746
339.40 1.474546
339.50 1.474483
339.60 1.47441
339.70 1.474337
339.80 1.474264
339.90 1.47419
340.00 1.474117
340.10 1.474043
340.20 1.473969
340.30 1.473894
340.40 1.47382
340.50 1.473745
340.60 1.473671
340.70 1.473596
340.80 1.473363
340.90 1.472902
341.00 1.472617
341.10 1.472544
341.20 1.472471
341.30 1.472398
341.40 1.472325
341.50 1.472252
341.60 1.472178
341.70 1.472104
341.80 1.47201
341.90 1.471889
342.00 1.471769
342.10 1.471648
342.20 1.471773
342.30 1.471757
342.40 1.471501
342.50 1.4713
342.60 1.471098
342.70 1.470897
342.80 1.470696
342.90 1.470494
343.00 1.470346
343.10 1.470263
343.20 1.47018
343.30 1.470096
343.40 1.470015
343.50 1.469939
343.60 1.469863
343.70 1.469787
343.80 1.46971
343.90 1.469633
344.00 1.469556
344.10 1.469479
344.20 1.469402
344.30 1.469324
344.40 1.469247
344.50 1.469169
344.60 1.468774
344.70 1.468696
344.80 1.468618
344.90 1.46854
345.00 1.468005
345.10 1.467927
345.20 1.467853
345.30 1.467785
345.40 1.467717
345.50 1.46763
345.60 1.467534
345.70 1.467454
345.80 1.467375
345.90 1.467296
346.00 1.467216
346.10 1.467136
346.20 1.467025
346.30 1.466868
346.40 1.466711
346.50 1.466554
346.60 1.466397
346.70 1.46624
346.80 1.466083
346.90 1.465926
347.00 1.465769
347.10 1.465612
347.20 1.465451
347.30 1.465283
347.40 1.465116
347.50 1.464949
347.60 1.464782
347.70 1.464615
347.80 1.464448
347.90 1.46428
348.00 1.464113
348.10 1.463946
348.20 1.463778
348.30 1.463611
348.40 1.463443
348.50 1.463275
348.60 1.463108
348.70 1.463282
348.80 1.463372
348.90 1.463189
349.00 1.463005
349.10 1.462821
349.20 1.462637
349.30 1.462453
349.40 1.462269
349.50 1.462085
349.60 1.461901
349.70 1.461717
349.80 1.461533
349.90 1.461349
350.00 1.461165
350.10 1.460981
350.20 1.460797
350.30 1.460624
350.40 1.460469
350.50 1.460313
350.60 1.460157
350.70 1.460002
350.80 1.459846
350.90 1.45969
351.00 1.459534
351.10 1.459378
351.20 1.459222
351.30 1.459066
351.40 1.458919
351.50 1.458788
351.60 1.458656
351.70 1.458525
351.80 1.458393
351.90 1.458261
352.00 1.45813
352.10 1.457998
352.20 1.457687
352.30 1.457441
352.40 1.457316
352.50 1.457191
352.60 1.457066
352.70 1.45694
352.80 1.456814
352.90 1.456689
353.00 1.456563
353.10 1.456437
353.20 1.456311
353.30 1.456185
353.40 1.456059
353.50 1.455906
353.60 1.455745
353.70 1.455584
353.80 1.455424
353.90 1.455261
354.00 1.455095
354.10 1.454929
354.20 1.454763
354.30 1.454597
354.40 1.454431
354.50 1.454265
354.60 1.454099
354.70 1.453933
354.80 1.45377
354.90 1.453614
355.00 1.453457
355.10 1.4533
355.20 1.453143
355.30 1.452833
355.40 1.452522
355.50 1.452212
355.60 1.451901
355.70 1.451673
355.80 1.451481
355.90 1.451531
356.00 1.451457
356.10 1.451245
356.20 1.451033
356.30 1.450821
356.40 1.450609
356.50 1.450396
356.60 1.450184
356.70 1.449972
356.80 1.44976
356.90 1.449548
357.00 1.449336
357.10 1.449123
357.20 1.448911
357.30 1.448699
357.40 1.448503
357.50 1.448336
357.60 1.448168
357.70 1.448
357.80 1.447844
357.90 1.447688
358.00 1.447505
358.10 1.447315
358.20 1.447125
358.30 1.446935
358.40 1.446745
358.50 1.446555
358.60 1.446365
358.70 1.446175
358.80 1.445985
358.90 1.445795
359.00 1.445614
359.10 1.445449
359.20 1.44528
359.30 1.445088
359.40 1.444895
359.50 1.444823
359.60 1.444782
359.70 1.444741
359.80 1.444476
359.90 1.444211
360.00 1.443944
360.10 1.44367
360.20 1.443397
360.30 1.443124
360.40 1.442851
360.50 1.442577
360.60 1.442681
360.70 1.442412
360.80 1.442142
360.90 1.441873
361.00 1.441867
361.10 1.441712
361.20 1.441227
361.30 1.441134
361.40 1.441006
361.50 1.440948
361.60 1.440404
361.70 1.440311
361.80 1.440163
361.90 1.439916
362.00 1.439669
362.10 1.439373
362.20 1.439111
362.30 1.438932
362.40 1.438752
362.50 1.438573
362.60 1.438393
362.70 1.438111
362.80 1.438328
362.90 1.437883
363.00 1.437438
363.10 1.437281
363.20 1.437126
363.30 1.437159
363.40 1.437065
363.50 1.436971
363.60 1.436528
363.70 1.436473
363.80 1.435992
363.90 1.435864
364.00 1.435737
364.10 1.435609
364.20 1.435481
364.30 1.435134
364.40 1.434731
364.50 1.434641
364.60 1.434314
364.70 1.433987
364.80 1.43366
364.90 1.433565
365.00 1.43347
365.10 1.433375
365.20 1.432935
365.30 1.43284
365.40 1.432401
365.50 1.432305
365.60 1.43221
365.70 1.432052
365.80 1.431895
365.90 1.431542
366.00 1.431142
366.10 1.431034
366.20 1.430927
366.30 1.43082
366.40 1.430712
366.50 1.429979
366.60 1.429883
366.70 1.429622
366.80 1.42936
366.90 1.429134
367.00 1.428969
367.10 1.428805
367.20 1.42864
367.30 1.428476
367.40 1.428311
367.50 1.427959
367.60 1.42756
367.70 1.427321
367.80 1.427082
367.90 1.426843
368.00 1.426836
368.10 1.426401
368.20 1.426242
368.30 1.42609
368.40 1.425938
368.50 1.425785
368.60 1.425633
368.70 1.425481
368.80 1.425328
368.90 1.424952
369.00 1.424479
369.10 1.42408
369.20 1.423987
369.30 1.423891
369.40 1.423794
369.50 1.423697
369.60 1.423262
369.70 1.422827
369.80 1.422601
369.90 1.422377
370.00 1.422153
370.10 1.421771
370.20 1.421668
370.30 1.421571
370.40 1.421481
370.50 1.42104
370.60 1.420935
370.70 1.42052
370.80 1.420419
370.90 1.420319
371.00 1.419893
371.10 1.419463
371.20 1.419363
371.30 1.419262
371.40 1.418728
371.50 1.418585
371.60 1.418442
371.70 1.418299
371.80 1.418156
371.90 1.418012
372.00 1.417446
372.10 1.417159
372.20 1.416951
372.30 1.416743
372.40 1.416535
372.50 1.416327
372.60 1.416119
372.70 1.415911
372.80 1.41581
372.90 1.415709
373.00 1.415286
373.10 1.414859
373.20 1.414762
373.30 1.414664
373.40 1.414236
373.50 1.413809
373.60 1.413711
373.70 1.413613
373.80 1.413001
373.90 1.412759
374.00 1.412497
374.10 1.412235
374.20 1.411973
374.30 1.411711
374.40 1.411778
374.50 1.411516
374.60 1.41125
374.70 1.41099
374.80 1.410729
374.90 1.410469
375.00 1.410153
375.10 1.409837
375.20 1.409521
375.30 1.40933
375.40 1.409139
375.50 1.408947
375.60 1.408756
375.70 1.408565
375.80 1.408374
375.90 1.408182
376.00 1.407434
376.10 1.407246
376.20 1.407065
376.30 1.406883
376.40 1.406702
376.50 1.406473
376.60 1.406173
376.70 1.405874
376.80 1.405578
376.90 1.405285
377.00 1.404992
377.10 1.404699
377.20 1.404439
377.30 1.404298
377.40 1.404158
377.50 1.404017
377.60 1.403694
377.70 1.403372
377.80 1.403049
377.90 1.402727
378.00 1.402865
378.10 1.402581
378.20 1.402286
378.30 1.401991
378.40 1.401696
378.50 1.401402
378.60 1.401107
378.70 1.400813
378.80 1.400518
378.90 1.400235
379.00 1.39997
379.10 1.399744
379.20 1.399517
379.30 1.399242
379.40 1.398916
379.50 1.398591
379.60 1.398316
379.70 1.398101
379.80 1.397831
379.90 1.39756
380.00 1.39729
380.10 1.397019
380.20 1.396749
380.30 1.396479
380.40 1.396209
380.50 1.395939
380.60 1.396018
380.70 1.395718
380.80 1.395417
380.90 1.395117
381.00 1.394817
381.10 1.394481
381.20 1.394268
381.30 1.393888
381.40 1.393384
381.50 1.393302
381.60 1.393173
381.70 1.392863
381.80 1.392764
381.90 1.39235
382.00 1.391936
382.10 1.391838
382.20 1.391362
382.30 1.391263
382.40 1.391085
382.50 1.390787
382.60 1.390489
382.70 1.390294
382.80 1.390111
382.90 1.389824
383.00 1.389536
383.10 1.389249
383.20 1.388943
383.30 1.388565
383.40 1.388227
383.50 1.387949
383.60 1.387888
383.70 1.387576
383.80 1.387265
383.90 1.386953
384.00 1.386642
384.10 1.386331
384.20 1.38602
384.30 1.385709
384.40 1.385411
384.50 1.385125
384.60 1.38484
384.70 1.384555
384.80 1.38433
384.90 1.384174
385.00 1.383721
385.10 1.383286
385.20 1.383313
385.30 1.38291
385.40 1.382566
385.50 1.382282
385.60 1.381997
385.70 1.381713
385.80 1.381415
385.90 1.38106
386.00 1.380744
386.10 1.38047
386.20 1.380231
386.30 1.379993
386.40 1.379667
386.50 1.379672
386.60 1.379321
386.70 1.379223
386.80 1.378663
386.90 1.378411
387.00 1.378313
387.10 1.378215
387.20 1.377504
387.30 1.377406
387.40 1.377308
387.50 1.376869
387.60 1.376595
387.70 1.376344
387.80 1.376093
387.90 1.375842
388.00 1.375495
388.10 1.37488
388.20 1.374883
388.30 1.374562
388.40 1.374241
388.50 1.373973
388.60 1.373688
388.70 1.373531
388.80 1.373112
388.90 1.372786
389.00 1.372688
389.10 1.372233
389.20 1.372149
389.30 1.371896
389.40 1.371503
389.50 1.371189
389.60 1.370887
389.70 1.370328
389.80 1.370037
389.90 1.369746
390.00 1.369455
390.10 1.369164
390.20 1.368874
390.30 1.368618
390.40 1.368403
390.50 1.368188
390.60 1.367973
390.70 1.367758
390.80 1.36747
390.90 1.367111
391.00 1.366661
391.10 1.366546
391.20 1.366309
391.30 1.365799
391.40 1.365501
391.50 1.365204
391.60 1.364907
391.70 1.364609
391.80 1.364312
391.90 1.364091
392.00 1.363834
392.10 1.363398
392.20 1.36303
392.30 1.363045
392.40 1.362744
392.50 1.362154
392.60 1.361953
392.70 1.361856
392.80 1.361565
392.90 1.361177
393.00 1.360801
393.10 1.360479
393.20 1.360206
393.30 1.359812
393.40 1.35954
393.50 1.359295
393.60 1.359198
393.70 1.358938
393.80 1.358438
393.90 1.358044
394.00 1.357711
394.10 1.357669
394.20 1.357281
394.30 1.357
394.40 1.356695
394.50 1.35655
394.60 1.356192
394.70 1.355823
394.80 1.355407
394.90 1.355002
395.00 1.354886
395.10 1.354614
395.20 1.354411
395.30 1.35411
395.40 1.353808
395.50 1.353402
395.60 1.352957
395.70 1.352597
395.80 1.352467
395.90 1.352338
396.00 1.352159
396.10 1.351555
396.20 1.351166
396.30 1.351093
396.40 1.350602
396.50 1.350411
396.60 1.349927
396.70 1.349729
396.80 1.349286
396.90 1.349012
397.00 1.348857
397.10 1.348664
397.20 1.348213
397.30 1.348086
397.40 1.347774
397.50 1.347462
397.60 1.347154
397.70 1.346889
397.80 1.346624
397.90 1.346305
398.00 1.345835
398.10 1.345367
398.20 1.345024
398.30 1.344824
398.40 1.344624
398.50 1.344394
398.60 1.34384
398.70 1.343544
398.80 1.343343
398.90 1.343126
399.00 1.342881
399.10 1.342244
399.20 1.341968
399.30 1.341693
399.40 1.341418
399.50 1.341143
399.60 1.340848
399.70 1.340544
399.80 1.340241
399.90 1.339938
400.00 1.339638
400.10 1.33941
400.20 1.339263
400.30 1.338947
400.40 1.338505
400.50 1.338002
400.60 1.337753
400.70 1.337658
400.80 1.337145
400.90 1.33705
401.00 1.336418
401.10 1.336289
401.20 1.336072
401.30 1.335529
401.40 1.335172
401.50 1.33493
401.60 1.334688
401.70 1.334462
401.80 1.334364
401.90 1.333822
402.00 1.333728
402.10 1.333065
402.20 1.332971
402.30 1.332635
402.40 1.332214
402.50 1.33212
402.60 1.331489
402.70 1.331364
402.80 1.330987
402.90 1.330836
403.00 1.330459
403.10 1.329856
403.20 1.329775
403.30 1.329551
403.40 1.329009
403.50 1.328615
403.60 1.328304
403.70 1.328163
403.80 1.328079
403.90 1.327742
404.00 1.327319
404.10 1.327225
404.20 1.32685
404.30 1.326475
404.40 1.325819
404.50 1.325726
404.60 1.325352
404.70 1.324978
404.80 1.324885
404.90 1.32423
405.00 1.324137
405.10 1.323804
405.20 1.323551
405.30 1.323298
405.40 1.322925
405.50 1.322552
405.60 1.32218
405.70 1.321807
405.80 1.321435
405.90 1.321064
406.00 1.32075
406.10 1.320436
406.20 1.320123
406.30 1.319809
406.40 1.319542
406.50 1.319393
406.60 1.319023
406.70 1.318826
406.80 1.318395
406.90 1.317922
407.00 1.317608
407.10 1.317293
407.20 1.316979
407.30 1.316665
407.40 1.316352
407.50 1.316038
407.60 1.315725
407.70 1.315411
407.80 1.315098
407.90 1.314784
408.00 1.314442
408.10 1.314315
408.20 1.314091
408.30 1.313628
408.40 1.313164
408.50 1.313121
408.60 1.312669
408.70 1.312217
408.80 1.311814
408.90 1.311729
409.00 1.311405
409.10 1.31108
409.20 1.310756
409.30 1.310432
409.40 1.31011
409.50 1.309858
409.60 1.309606
409.70 1.309327
409.80 1.30894
409.90 1.308546
410.00 1.307908
410.10 1.307726
410.20 1.307522
410.30 1.307311
410.40 1.307042
410.50 1.306584
410.60 1.306128
410.70 1.305723
410.80 1.305529
410.90 1.305335
411.00 1.305044
411.10 1.304718
411.20 1.304391
411.30 1.304004
411.40 1.303381
411.50 1.303132
411.60 1.302883
411.70 1.302611
411.80 1.302249
411.90 1.301834
412.00 1.301744
412.10 1.301519
412.20 1.301023
412.30 1.300484
412.40 1.300322
412.50 1.300212
412.60 1.299582
412.70 1.299289
412.80 1.299079
412.90 1.298773
413.00 1.298222
413.10 1.297914
413.20 1.297607
413.30 1.297299
413.40 1.296992
413.50 1.296733
413.60 1.296596
413.70 1.296238
413.80 1.295881
413.90 1.295523
414.00 1.295166
414.10 1.294808
414.20 1.294387
414.30 1.294298
414.40 1.293674
414.50 1.293585
414.60 1.293025
414.70 1.292669
414.80 1.292345
414.90 1.292123
415.00 1.291901
415.10 1.291679
415.20 1.291401
415.30 1.290945
415.40 1.29049
415.50 1.290041
415.60 1.289803
415.70 1.289564
415.80 1.289275
415.90 1.28883
416.00 1.288386
416.10 1.287983
416.20 1.287746
416.30 1.287509
416.40 1.287273
416.50 1.287033
416.60 1.28668
416.70 1.286319
416.80 1.285702
416.90 1.285615
417.00 1.284998
417.10 1.284919
417.20 1.284567
417.30 1.284219
417.40 1.283977
417.50 1.283735
417.60 1.283418
417.70 1.282812
417.80 1.282461
417.90 1.282111
418.00 1.281761
418.10 1.281411
418.20 1.281061
418.30 1.280724
418.40 1.280685
418.50 1.280359
418.60 1.280032
418.70 1.279705
418.80 1.279379
418.90 1.279053
419.00 1.278727
419.10 1.278401
419.20 1.278076
419.30 1.277747
419.40 1.277323
419.50 1.276898
419.60 1.276508
419.70 1.276253
419.80 1.275998
419.90 1.275719
420.00 1.275367
420.10 1.275015
420.20 1.274664
420.30 1.274312
420.40 1.273961
420.50 1.27361
420.60 1.273259
420.70 1.272908
420.80 1.272558
420.90 1.272205
421.00 1.271788
421.10 1.27137
421.20 1.270981
421.30 1.270673
421.40 1.270366
421.50 1.270058
421.60 1.269751
421.70 1.269444
421.80 1.269138
421.90 1.268821
422.00 1.268473
422.10 1.26814
422.20 1.267864
422.30 1.26759
422.40 1.267313
422.50 1.266973
422.60 1.266634
422.70 1.266295
422.80 1.265956
422.90 1.265617
423.00 1.265279
423.10 1.26494
423.20 1.264602
423.30 1.264264
423.40 1.263926
423.50 1.263589
423.60 1.263251
423.70 1.262914
423.80 1.262577
423.90 1.26224
424.00 1.261903
424.10 1.261567
424.20 1.26123
424.30 1.260894
424.40 1.260504
424.50 1.260168
424.60 1.259832
424.70 1.259496
424.80 1.259161
424.90 1.258826
425.00 1.258491
425.10 1.258156
425.20 1.257821
425.30 1.257486
425.40 1.257149
425.50 1.256794
425.60 1.256439
425.70 1.256084
425.80 1.255729
425.90 1.255375
426.00 1.25502
426.10 1.254666
426.20 1.254312
426.30 1.253959
426.40 1.253605
426.50 1.253252
426.60 1.252898
426.70 1.252546
426.80 1.252193
426.90 1.25184
427.00 1.251494
427.10 1.251147
427.20 1.250801
427.30 1.250454
427.40 1.250108
427.50 1.249762
427.60 1.249417
427.70 1.249071
427.80 1.248726
427.90 1.248381
428.00 1.248036
428.10 1.247691
428.20 1.247347
428.30 1.247002
428.40 1.246658
428.50 1.246314
428.60 1.24597
428.70 1.245627
428.80 1.245284
428.90 1.244943
429.00 1.244603
429.10 1.244262
429.20 1.243922
429.30 1.243583
429.40 1.243243
429.50 1.242903
429.60 1.242564
429.70 1.242225
429.80 1.241886
429.90 1.241547
430.00 1.241209
430.10 1.24087
430.20 1.240532
430.30 1.240194
430.40 1.239856
430.50 1.239518
430.60 1.239181
430.70 1.238844
430.80 1.238506
430.90 1.238169
431.00 1.237833
431.10 1.237496
431.20 1.23716
431.30 1.236822
431.40 1.236471
431.50 1.236121
431.60 1.23577
431.70 1.23542
431.80 1.23507
431.90 1.23472
432.00 1.23437
432.10 1.234021
432.20 1.233671
432.30 1.233322
432.40 1.232973
432.50 1.232624
432.60 1.232276
432.70 1.231927
432.80 1.231579
432.90 1.231231
433.00 1.230883
433.10 1.230535
433.20 1.230188
433.30 1.22984
433.40 1.229485
433.50 1.229129
433.60 1.228774
433.70 1.228419
433.80 1.22809
433.90 1.227791
434.00 1.227468
434.10 1.227131
434.20 1.226794
434.30 1.226457
434.40 1.226121
434.50 1.225785
434.60 1.225448
434.70 1.225112
434.80 1.224777
434.90 1.224447
435.00 1.224116
435.10 1.223787
435.20 1.223457
435.30 1.223127
435.40 1.222798
435.50 1.222468
435.60 1.222139
435.70 1.22181
435.80 1.221482
435.90 1.221153
436.00 1.220825
436.10 1.220496
436.20 1.220168
436.30 1.219736
436.40 1.219195
436.50 1.218893
436.60 1.21859
436.70 1.218288
436.80 1.217985
436.90 1.217683
437.00 1.217381
437.10 1.217079
437.20 1.216747
437.30 1.216387
437.40 1.216025
437.50 1.215629
437.60 1.215234
437.70 1.214838
437.80 1.214443
437.90 1.214049
438.00 1.213656
438.10 1.213285
438.20 1.212914
438.30 1.21294
438.40 1.212403
438.50 1.21209
438.60 1.211759
438.70 1.211207
438.80 1.211133
438.90 1.210581
439.00 1.210507
439.10 1.209956
439.20 1.209421
439.30 1.209109
439.40 1.208797
439.50 1.208485
439.60 1.208157
439.70 1.207839
439.80 1.207632
439.90 1.2073
440.00 1.206968
440.10 1.206636
440.20 1.206303
440.30 1.205945
440.40 1.205587
440.50 1.205229
440.60 1.204872
440.70 1.204515
440.80 1.204158
440.90 1.203801
441.00 1.203444
441.10 1.203088
441.20 1.202739
441.30 1.202485
441.40 1.202173
441.50 1.20179
441.60 1.201406
441.70 1.20094
441.80 1.200612
441.90 1.200284
442.00 1.199957
442.10 1.19963
442.20 1.199303
442.30 1.198976
442.40 1.198622
442.50 1.198234
442.60 1.197847
442.70 1.197539
442.80 1.197326
442.90 1.196786
443.00 1.196355
443.10 1.196058
443.20 1.195752
443.30 1.195439
443.40 1.195129
443.50 1.194824
443.60 1.194414
443.70 1.193876
443.80 1.193805
443.90 1.193267
444.00 1.192835
444.10 1.192531
444.20 1.192122
444.30 1.192064
444.40 1.191705
444.50 1.191347
444.60 1.191017
444.70 1.190723
444.80 1.190362
444.90 1.189941
445.00 1.189521
445.10 1.1891
445.20 1.188699
445.30 1.188322
445.40 1.187945
445.50 1.187568
445.60 1.187191
445.70 1.186815
445.80 1.186476
445.90 1.186171
446.00 1.185866
446.10 1.185562
446.20 1.185155
446.30 1.185086
446.40 1.184615
446.50 1.1842
446.60 1.183785
446.70 1.18337
446.80 1.183016
446.90 1.182717
447.00 1.182436
447.10 1.18223
447.20 1.181701
447.30 1.18154
447.40 1.181224
447.50 1.180926
447.60 1.180508
447.70 1.179981
447.80 1.179561
447.90 1.179272
448.00 1.178939
448.10 1.178565
448.20 1.178192
448.30 1.177819
448.40 1.177446
448.50 1.177074
448.60 1.176719
448.70 1.176381
448.80 1.176044
448.90 1.175718
449.00 1.175392
449.10 1.175066
449.20 1.17474
449.30 1.174326
449.40 1.173987
449.50 1.173648
449.60 1.173309
449.70 1.172969
449.80 1.172628
449.90 1.172288
450.00 1.171949
450.10 1.171609
450.20 1.17127
450.30 1.170931
450.40 1.170562
450.50 1.170193
450.60 1.169825
450.70 1.169457
450.80 1.169089
450.90 1.168721
451.00 1.168386
451.10 1.16805
451.20 1.167839
451.30 1.167554
451.40 1.167262
451.50 1.166971
451.60 1.166454
451.70 1.165938
451.80 1.165872
451.90 1.165357
452.00 1.165066
452.10 1.164776
452.20 1.164373
452.30 1.163971
452.40 1.163569
452.50 1.163167
452.60 1.162956
452.70 1.162691
452.80 1.162376
452.90 1.162062
453.00 1.161747
453.10 1.161432
453.20 1.161057
453.30 1.160681
453.40 1.160306
453.50 1.159931
453.60 1.159556
453.70 1.159181
453.80 1.158804
453.90 1.158423
454.00 1.158042
454.10 1.157661
454.20 1.157314
454.30 1.156967
454.40 1.156621
454.50 1.156274
454.60 1.155928
454.70 1.155586
454.80 1.155247
454.90 1.154908
455.00 1.154569
455.10 1.154231
455.20 1.153893
455.30 1.153554
455.40 1.153217
455.50 1.152879
455.60 1.152541
455.70 1.152204
455.80 1.151817
455.90 1.151431
456.00 1.151044
456.10 1.150671
456.20 1.150331
456.30 1.149991
456.40 1.149651
456.50 1.149312
456.60 1.148973
456.70 1.148634
456.80 1.148295
456.90 1.147956
457.00 1.147618
457.10 1.14728
457.20 1.146856
457.30 1.146509
457.40 1.146161
457.50 1.145814
457.60 1.145467
457.70 1.14512
457.80 1.144774
457.90 1.144427
458.00 1.144081
458.10 1.143735
458.20 1.143389
458.30 1.143043
458.40 1.142698
458.50 1.142353
458.60 1.142008
458.70 1.141663
458.80 1.141318
458.90 1.140974
459.00 1.14063
459.10 1.140286
459.20 1.139942
459.30 1.139598
459.40 1.139254
459.50 1.13891
459.60 1.138566
459.70 1.138223
459.80 1.13788
459.90 1.137537
460.00 1.137194
460.10 1.136851
460.20 1.136509
460.30 1.136166
460.40 1.135824
460.50 1.135483
460.60 1.135141
460.70 1.134757
460.80 1.134351
460.90 1.133947
461.00 1.133542
461.10 1.133138
461.20 1.132832
461.30 1.132568
461.40 1.132213
461.50 1.131836
461.60 1.131459
461.70 1.131083
461.80 1.130744
461.90 1.130405
462.00 1.130067
462.10 1.129728
462.20 1.12939
462.30 1.129052
462.40 1.128714
462.50 1.128377
462.60 1.12804
462.70 1.127702
462.80 1.127365
462.90 1.127029
463.00 1.126692
463.10 1.126355
463.20 1.126001
463.30 1.125639
463.40 1.125277
463.50 1.124915
463.60 1.124554
463.70 1.124193
463.80 1.123832
463.90 1.123499
464.00 1.123173
464.10 1.122848
464.20 1.122522
464.30 1.122197
464.40 1.121872
464.50 1.121547
464.60 1.121222
464.70 1.120885
464.80 1.120542
464.90 1.120199
465.00 1.119857
465.10 1.119514
465.20 1.119172
465.30 1.118835
465.40 1.1185
465.50 1.118166
465.60 1.117832
465.70 1.117499
465.80 1.117165
465.90 1.116798
466.00 1.116422
466.10 1.116047
466.20 1.115671
466.30 1.115313
466.40 1.114962
466.50 1.11461
466.60 1.114259
466.70 1.113909
466.80 1.113558
466.90 1.113208
467.00 1.112858
467.10 1.112508
467.20 1.112158
467.30 1.111719
467.40 1.111375
467.50 1.111065
467.60 1.110756
467.70 1.110446
467.80 1.110136
467.90 1.109784
468.00 1.109415
468.10 1.109046
468.20 1.108677
468.30 1.108234
468.40 1.107761
468.50 1.107707
468.60 1.107235
468.70 1.106762
468.80 1.106709
468.90 1.106237
469.00 1.105765
469.10 1.105368
469.20 1.105001
469.30 1.104635
469.40 1.104268
469.50 1.103956
469.60 1.103666
469.70 1.103377
469.80 1.103087
469.90 1.102783
470.00 1.102314
470.10 1.101965
470.20 1.101666
470.30 1.101367
470.40 1.101068
470.50 1.10077
470.60 1.100419
470.70 1.100055
470.80 1.099692
470.90 1.099328
471.00 1.098882
471.10 1.098416
471.20 1.098364
471.30 1.097898
471.40 1.097432
471.50 1.097174
471.60 1.096915
471.70 1.09645
471.80 1.096068
471.90 1.095707
472.00 1.095346
472.10 1.094985
472.20 1.094672
472.30 1.09437
472.40 1.094069
472.50 1.093768
472.60 1.093467
472.70 1.093051
472.80 1.092687
472.90 1.092349
473.00 1.09201
473.10 1.091672
473.20 1.091334
473.30 1.090996
473.40 1.090658
473.50 1.090321
473.60 1.089983
473.70 1.089646
473.80 1.089291
473.90 1.088931
474.00 1.088572
474.10 1.088213
474.20 1.087846
474.30 1.087476
474.40 1.087106
474.50 1.086736
474.60 1.086369
474.70 1.086023
474.80 1.085678
474.90 1.085332
475.00 1.084987
475.10 1.084642
475.20 1.084298
475.30 1.083953
475.40 1.0836
475.50 1.083245
475.60 1.08289
475.70 1.082535
475.80 1.082181
475.90 1.081826
476.00 1.081472
476.10 1.081118
476.20 1.080777
476.30 1.08044
476.40 1.080104
476.50 1.079768
476.60 1.079432
476.70 1.079097
476.80 1.078761
476.90 1.078422
477.00 1.078081
477.10 1.077741
477.20 1.077401
477.30 1.077061
477.40 1.076722
477.50 1.076382
477.60 1.076043
477.70 1.075704
477.80 1.075365
477.90 1.075026
478.00 1.074688
478.10 1.07435
478.20 1.074012
478.30 1.073674
478.40 1.073336
478.50 1.072998
478.60 1.072661
478.70 1.072245
478.80 1.071797
478.90 1.071474
479.00 1.071182
479.10 1.07089
479.20 1.070598
479.30 1.070306
479.40 1.069974
479.50 1.069618
479.60 1.069263
479.70 1.068908
479.80 1.068553
479.90 1.068199
480.00 1.067844
480.10 1.06749
480.20 1.067136
480.30 1.066782
480.40 1.066428
480.50 1.066075
480.60 1.065722
480.70 1.065369
480.80 1.065016
480.90 1.064663
481.00 1.064311
481.10 1.063959
481.20 1.063625
481.30 1.063293
481.40 1.06296
481.50 1.062627
481.60 1.062295
481.70 1.061963
481.80 1.061631
481.90 1.061299
482.00 1.060967
482.10 1.060636
482.20 1.060303
482.30 1.059947
482.40 1.059592
482.50 1.059237
482.60 1.058883
482.70 1.058528
482.80 1.058174
482.90 1.05782
483.00 1.057466
483.10 1.057112
483.20 1.056759
483.30 1.056405
483.40 1.056052
483.50 1.055699
483.60 1.055347
483.70 1.055059
483.80 1.054771
483.90 1.054483
484.00 1.054196
484.10 1.053908
484.20 1.053566
484.30 1.053201
484.40 1.052836
484.50 1.052471
484.60 1.052106
484.70 1.051743
484.80 1.051395
484.90 1.051048
485.00 1.050701
485.10 1.050354
485.20 1.050007
485.30 1.049661
485.40 1.049314
485.50 1.048968
485.60 1.048622
485.70 1.048297
485.80 1.047973
485.90 1.047648
486.00 1.047324
486.10 1.047
486.20 1.046676
486.30 1.046353
486.40 1.046029
486.50 1.045706
486.60 1.045383
486.70 1.045052
486.80 1.044623
486.90 1.044194
487.00 1.043765
487.10 1.043337
487.20 1.043015
487.30 1.042693
487.40 1.042372
487.50 1.04205
487.60 1.041729
487.70 1.041408
487.80 1.041087
487.90 1.040767
488.00 1.040446
488.10 1.040126
488.20 1.039804
488.30 1.039454
488.40 1.039104
488.50 1.038755
488.60 1.038406
488.70 1.038057
488.80 1.037774
488.90 1.037491
489.00 1.037183
489.10 1.036812
489.20 1.036441
489.30 1.03607
489.40 1.035699
489.50 1.035329
489.60 1.034959
489.70 1.034589
489.80 1.034177
489.90 1.033906
490.00 1.033635
490.10 1.033365
490.20 1.033094
490.30 1.032824
490.40 1.032402
490.50 1.031982
490.60 1.031561
490.70 1.03114
490.80 1.031102
490.90 1.030682
491.00 1.030262
491.10 1.029843
491.20 1.029614
491.30 1.029386
491.40 1.028967
491.50 1.028548
491.60 1.028184
491.70 1.027935
491.80 1.027674
491.90 1.027256
492.00 1.026839
492.10 1.026421
492.20 1.026227
492.30 1.025967
492.40 1.02555
492.50 1.025134
492.60 1.024724
492.70 1.024403
492.80 1.024082
492.90 1.023761
493.00 1.023439
493.10 1.023099
493.20 1.022759
493.30 1.022419
493.40 1.022079
493.50 1.021739
493.60 1.021335
493.70 1.021062
493.80 1.020789
493.90 1.020462
494.00 1.020049
494.10 1.019659
494.20 1.019318
494.30 1.018977
494.40 1.018637
494.50 1.018297
494.60 1.017966
494.70 1.017762
494.80 1.017505
494.90 1.017093
495.00 1.016682
495.10 1.016272
495.20 1.015939
495.30 1.015606
495.40 1.015274
495.50 1.014941
495.60 1.014609
495.70 1.014277
495.80 1.013945
495.90 1.013614
496.00 1.013282
496.10 1.013022
496.20 1.012892
496.30 1.012484
496.40 1.012076
496.50 1.011668
496.60 1.011261
496.70 1.010964
496.80 1.010668
496.90 1.010372
497.00 1.010076
497.10 1.00978
497.20 1.009484
497.30 1.00916
497.40 1.008754
497.50 1.008349
497.60 1.007943
497.70 1.007544
497.80 1.007221
497.90 1.006898
498.00 1.006576
498.10 1.006254
498.20 1.005931
498.30 1.005609
498.40 1.005288
498.50 1.004966
498.60 1.004644
498.70 1.004426
498.80 1.004209
498.90 1.003806
499.00 1.003404
499.10 1.003002
499.20 1.0026
499.30 1.002221
499.40 1.001908
499.50 1.001595
499.60 1.001282
499.70 1.000968
499.80 1.000645
499.90 1.000323
500.00 1
500.10 0.9996776
500.20 0.9993501
500.30 0.9990119
500.40 0.9986739
500.50 0.9983361
500.60 0.9979984
500.70 0.997661
500.80 0.9973395
500.90 0.9970518
501.00 0.9967642
501.10 0.9964768
501.20 0.9960792
501.30 0.9956818
501.40 0.9952847
501.50 0.9948878
501.60 0.9948202
501.70 0.9944602
501.80 0.9940639
501.90 0.9936678
502.00 0.9933239
502.10 0.9930904
502.20 0.9928457
502.30 0.9924505
502.40 0.9920749
502.50 0.9917408
502.60 0.9914068
502.70 0.9910731
502.80 0.9907396
502.90 0.9904062
503.00 0.9900823
503.10 0.9897783
503.20 0.9894744
503.30 0.9891707
503.40 0.9888439
503.50 0.9884512
503.60 0.9880587
503.70 0.9876664
503.80 0.9872985
503.90 0.987108
504.00 0.9868531
504.10 0.9864616
504.20 0.9860703
504.30 0.9856793
504.40 0.9853355
504.50 0.9851257
504.60 0.9848689
504.70 0.9844787
504.80 0.9840887
504.90 0.9836989
505.00 0.9833562
505.10 0.9831472
505.20 0.9828914
505.30 0.9825024
505.40 0.9821136
505.50 0.9817251
505.60 0.9813558
505.70 0.9810271
505.80 0.9806985
505.90 0.9803702
506.00 0.980042
506.10 0.979714
506.20 0.9793917
506.30 0.9790851
506.40 0.9787787
506.50 0.9784725
506.60 0.9781664
506.70 0.9778605
506.80 0.9775548
506.90 0.9772492
507.00 0.9769438
507.10 0.976613
507.20 0.9762396
507.30 0.9758994
507.40 0.9755594
507.50 0.9752197
507.60 0.9748801
507.70 0.9745407
507.80 0.9742015
507.90 0.9738625
508.00 0.9735237
508.10 0.9731851
508.20 0.9728466
508.30 0.9725084
508.40 0.9721703
508.50 0.9718325
508.60 0.9714948
508.70 0.9711573
508.80 0.9708085
508.90 0.9705356
509.00 0.970301
509.10 0.970029
509.20 0.9696775
509.30 0.9693261
509.40 0.968975
509.50 0.968624
509.60 0.9682733
509.70 0.9679228
509.80 0.9675724
509.90 0.9672223
510.00 0.9668723
510.10 0.9665226
510.20 0.9661731
510.30 0.9658303
510.40 0.9655065
510.50 0.9651828
510.60 0.9648593
510.70 0.964536
510.80 0.9642129
510.90 0.9638899
511.00 0.9635672
511.10 0.9632446
511.20 0.9629222
511.30 0.9625999
511.40 0.9622779
511.50 0.961956
511.60 0.9616328
511.70 0.9613068
511.80 0.9609809
511.90 0.9606552
512.00 0.9603297
512.10 0.9600044
512.20 0.9596792
512.30 0.959358
512.40 0.9590477
512.50 0.9587375
512.60 0.9584275
512.70 0.9581177
512.80 0.9578081
512.90 0.9574986
513.00 0.9571893
513.10 0.9568801
513.20 0.9565711
513.30 0.9562623
513.40 0.9559537
513.50 0.9556452
513.60 0.9553369
513.70 0.9550288
513.80 0.9547208
513.90 0.954413
514.00 0.9540855
514.10 0.953755
514.20 0.9534247
514.30 0.9530946
514.40 0.9527646
514.50 0.9524349
514.60 0.9521053
514.70 0.9517759
514.80 0.9514467
514.90 0.9511177
515.00 0.9507888
515.10 0.9504602
515.20 0.9501317
515.30 0.9498034
515.40 0.9494753
515.50 0.9491474
515.60 0.9488196
515.70 0.9484921
515.80 0.9481647
515.90 0.9478375
516.00 0.9475105
516.10 0.9471836
516.20 0.946857
516.30 0.9465305
516.40 0.9462042
516.50 0.9458781
516.60 0.9455522
516.70 0.9452265
516.80 0.944901
516.90 0.9445756
517.00 0.9442504
517.10 0.9439254
517.20 0.9436006
517.30 0.943276
517.40 0.9429515
517.50 0.9426272
517.60 0.9423031
517.70 0.9419792
517.80 0.9416555
517.90 0.9413319
518.00 0.9410085
518.10 0.9406853
518.20 0.9403623
518.30 0.9400395
518.40 0.9397168
518.50 0.9393943
518.60 0.939072
518.70 0.9387499
518.80 0.938428
518.90 0.9381062
519.00 0.9377846
519.10 0.937463
519.20 0.9371414
519.30 0.9368199
519.40 0.9364986
519.50 0.9361775
519.60 0.9358566
519.70 0.9355358
519.80 0.9352153
519.90 0.9348949
520.00 0.9345747
520.10 0.9342546
520.20 0.9339348
520.30 0.9336151
520.40 0.9332956
520.50 0.9329762
520.60 0.9326571
520.70 0.9323381
520.80 0.9320193
520.90 0.9317006
521.00 0.9313822
521.10 0.9310639
521.20 0.9307458
521.30 0.9304279
521.40 0.9301101
521.50 0.9297926
521.60 0.9294752
521.70 0.9291579
521.80 0.9288409
521.90 0.928524
522.00 0.9282073
522.10 0.9278908
522.20 0.9275744
522.30 0.9272583
522.40 0.9269423
522.50 0.9266264
522.60 0.9263108
522.70 0.9259953
522.80 0.92568
522.90 0.9253648
523.00 0.9250499
523.10 0.9247351
523.20 0.9244205
523.30 0.924106
523.40 0.9237918
523.50 0.9234777
523.60 0.9231637
523.70 0.92285
523.80 0.9225364
523.90 0.922223
524.00 0.9219098
524.10 0.9215967
524.20 0.9212838
524.30 0.9209673
524.40 0.920648
524.50 0.9203289
524.60 0.9200099
524.70 0.9196912
524.80 0.9193726
524.90 0.9190541
525.00 0.9187359
525.10 0.9184178
525.20 0.9180999
525.30 0.9177822
525.40 0.9174646
525.50 0.9171473
525.60 0.9168301
525.70 0.9165131
525.80 0.9161962
525.90 0.9158795
526.00 0.915563
526.10 0.9152467
526.20 0.9149306
526.30 0.9146146
526.40 0.9142988
526.50 0.9139832
526.60 0.9136677
526.70 0.9133525
526.80 0.9130373
526.90 0.9127224
527.00 0.9124077
527.10 0.9120931
527.20 0.9117787
527.30 0.9114644
527.40 0.9111504
527.50 0.9108365
527.60 0.9105227
527.70 0.9102092
527.80 0.9098958
527.90 0.9095826
528.00 0.9092696
528.10 0.9089567
528.20 0.908644
528.30 0.9083315
528.40 0.9080192
528.50 0.907707
528.60 0.907395
528.70 0.9070832
528.80 0.9067715
528.90 0.90646
529.00 0.9061487
529.10 0.9058375
529.20 0.9055266
529.30 0.9052158
529.40 0.9049051
529.50 0.9045937
529.60 0.9042769
529.70 0.9039603
529.80 0.9036438
529.90 0.9033275
530.00 0.9030114
530.10 0.9026955
530.20 0.9023797
530.30 0.9020641
530.40 0.9017487
530.50 0.9014335
530.60 0.9011184
530.70 0.9008035
530.80 0.9004888
530.90 0.9001743
531.00 0.8998599
531.10 0.8995457
531.20 0.8992316
531.30 0.8989178
531.40 0.8986041
531.50 0.8982906
531.60 0.8979773
531.70 0.8976641
531.80 0.8973511
531.90 0.8970383
532.00 0.8967256
532.10 0.8964131
532.20 0.8961008
532.30 0.8957887
532.40 0.8954768
532.50 0.895165
532.60 0.8948534
532.70 0.8945419
532.80 0.8942306
532.90 0.8939195
533.00 0.8936086
533.10 0.8932978
533.20 0.8929873
533.30 0.8926768
533.40 0.8923666
533.50 0.8920565
533.60 0.8917466
533.70 0.8914368
533.80 0.8911273
533.90 0.8908179
534.00 0.8905086
534.10 0.8901996
534.20 0.8898907
534.30 0.8895819
534.40 0.8892734
534.50 0.888965
534.60 0.8886568
534.70 0.8883487
534.80 0.8880408
534.90 0.8877328
535.00 0.887425
535.10 0.8871174
535.20 0.88681
535.30 0.8865027
535.40 0.8861955
535.50 0.8858886
535.60 0.8855818
535.70 0.8852752
535.80 0.8849687
535.90 0.8846625
536.00 0.8843563
536.10 0.8840504
536.20 0.8837446
536.30 0.883439
536.40 0.8831335
536.50 0.8828282
536.60 0.8825231
536.70 0.8822182
536.80 0.8819134
536.90 0.8816088
537.00 0.8813043
537.10 0.881
537.20 0.8806959
537.30 0.8803919
537.40 0.8800881
537.50 0.8797845
537.60 0.879481
537.70 0.8791777
537.80 0.8788746
537.90 0.8785716
538.00 0.8782688
538.10 0.8779662
538.20 0.8776637
538.30 0.8773614
538.40 0.8770593
538.50 0.8767573
538.60 0.8764555
538.70 0.8761538
538.80 0.8758523
538.90 0.875551
539.00 0.8752498
539.10 0.8749488
539.20 0.874648
539.30 0.8743473
539.40 0.8740468
539.50 0.8737464
539.60 0.8734462
539.70 0.8731462
539.80 0.8728463
539.90 0.8725466
540.00 0.8722471
540.10 0.8719477
540.20 0.8716442
540.30 0.8713391
540.40 0.8710341
540.50 0.8707293
540.60 0.8704247
540.70 0.8701203
540.80 0.869816
540.90 0.8695119
541.00 0.8692079
541.10 0.8689041
541.20 0.8686005
541.30 0.868297
541.40 0.8679937
541.50 0.8676906
541.60 0.8673876
541.70 0.8670848
541.80 0.8667822
541.90 0.8664797
542.00 0.8661774
542.10 0.8658752
542.20 0.8655733
542.30 0.8652714
542.40 0.8649698
542.50 0.8646683
542.60 0.864367
542.70 0.8640658
542.80 0.8637648
542.90 0.863464
543.00 0.8631633
543.10 0.8628628
543.20 0.8625624
543.30 0.8622622
543.40 0.8619622
543.50 0.8616623
543.60 0.8613626
543.70 0.8610631
543.80 0.8607637
543.90 0.8604645
544.00 0.8601655
544.10 0.8598666
544.20 0.8595678
544.30 0.8592693
544.40 0.8589709
544.50 0.8586726
544.60 0.8583745
544.70 0.8580766
544.80 0.8577789
544.90 0.8574813
545.00 0.8571838
545.10 0.8568865
545.20 0.8565894
545.30 0.8562925
545.40 0.8559957
545.50 0.855699
545.60 0.8553985
545.70 0.8550963
545.80 0.8547943
545.90 0.8544925
546.00 0.8541908
546.10 0.8538893
546.20 0.853588
546.30 0.8532868
546.40 0.8529858
546.50 0.852685
546.60 0.8523843
546.70 0.8520838
546.80 0.8517834
546.90 0.8514832
547.00 0.8511832
547.10 0.8508833
547.20 0.8505836
547.30 0.8502841
547.40 0.8499847
547.50 0.8496855
547.60 0.8493864
547.70 0.8490875
547.80 0.8487888
547.90 0.8484902
548.00 0.8481918
548.10 0.8478936
548.20 0.8475955
548.30 0.8472976
548.40 0.8469998
548.50 0.8467022
548.60 0.8464047
548.70 0.8461075
548.80 0.8458104
548.90 0.8455134
549.00 0.8452166
549.10 0.84492
549.20 0.8446235
549.30 0.8443272
549.40 0.844031
549.50 0.843735
549.60 0.8434392
549.70 0.8431435
549.80 0.842848
549.90 0.8425526
550.00 0.8422574
550.10 0.8419623
550.20 0.8416675
550.30 0.8413727
550.40 0.8410782
550.50 0.8407838
550.60 0.8404895
550.70 0.8401954
550.80 0.8399015
550.90 0.8396077
551.00 0.8393124
551.10 0.8390078
551.20 0.8387034
551.30 0.8383992
551.40 0.8380951
551.50 0.8377912
551.60 0.8374875
551.70 0.8371839
551.80 0.8368805
551.90 0.8365773
552.00 0.8362742
552.10 0.8359713
552.20 0.8356685
552.30 0.8353659
552.40 0.8350635
552.50 0.8347612
552.60 0.8344591
552.70 0.8341572
552.80 0.8338555
552.90 0.8335539
553.00 0.8332524
553.10 0.8329511
553.20 0.83265
553.30 0.8323491
553.40 0.8320483
553.50 0.8317477
553.60 0.8314472
553.70 0.8311469
553.80 0.8308533
553.90 0.8305642
554.00 0.8302753
554.10 0.8299865
554.20 0.8296979
554.30 0.8294094
554.40 0.8291211
554.50 0.8288329
554.60 0.8285449
554.70 0.828257
554.80 0.8279693
554.90 0.8276818
555.00 0.8273944
555.10 0.8271072
555.20 0.8268201
555.30 0.8265331
555.40 0.8262463
555.50 0.8259597
555.60 0.8256732
555.70 0.8253869
555.80 0.8251007
555.90 0.8248147
556.00 0.8245288
556.10 0.8242431
556.20 0.8239576
556.30 0.8236722
556.40 0.8233869
556.50 0.8231015
556.60 0.8228111
556.70 0.8225209
556.80 0.8222308
556.90 0.8219409
557.00 0.8216511
557.10 0.8213615
557.20 0.821072
557.30 0.8207827
557.40 0.8204935
557.50 0.8202045
557.60 0.8199157
557.70 0.819627
557.80 0.8193384
557.90 0.8190501
558.00 0.8187618
558.10 0.8184737
558.20 0.8181858
558.30 0.8178981
558.40 0.8176104
558.50 0.817323
558.60 0.8170357
558.70 0.8167485
558.80 0.8164615
558.90 0.8161747
559.00 0.815888
559.10 0.8156014
559.20 0.815315
559.30 0.8150288
559.40 0.8147427
559.50 0.8144568
559.60 0.814171
559.70 0.8138854
559.80 0.8135999
559.90 0.8133146
560.00 0.8130294
560.10 0.8127444
560.20 0.8124595
560.30 0.8121748
560.40 0.8118902
560.50 0.8116058
560.60 0.8113215
560.70 0.8110374
560.80 0.8107535
560.90 0.8104697
561.00 0.810186
561.10 0.8099025
561.20 0.8096191
561.30 0.8093359
561.40 0.8090529
561.50 0.80877
561.60 0.8084872
561.70 0.8082046
561.80 0.8079221
561.90 0.8076398
562.00 0.8073577
562.10 0.8070736
562.20 0.8067865
562.30 0.8064996
562.40 0.8062128
562.50 0.8059261
562.60 0.8056397
562.70 0.8053533
562.80 0.8050672
562.90 0.8047812
563.00 0.8044953
563.10 0.8042096
563.20 0.803924
563.30 0.8036386
563.40 0.8033534
563.50 0.8030683
563.60 0.8027833
563.70 0.8024985
563.80 0.8022139
563.90 0.8019294
564.00 0.801645
564.10 0.8013608
564.20 0.8010768
564.30 0.8007929
564.40 0.8005091
564.50 0.8002255
564.60 0.7999421
564.70 0.7996588
564.80 0.7993757
564.90 0.7990927
565.00 0.7988098
565.10 0.7985271
565.20 0.7982446
565.30 0.7979622
565.40 0.79768
565.50 0.7973979
565.60 0.7971159
565.70 0.7968342
565.80 0.7965525
565.90 0.796271
566.00 0.7959897
566.10 0.7957085
566.20 0.7954274
566.30 0.7951465
566.40 0.7948658
566.50 0.7945852
566.60 0.7943047
566.70 0.7940244
566.80 0.7937443
566.90 0.7934643
567.00 0.7931844
567.10 0.7929047
567.20 0.7926252
567.30 0.7923457
567.40 0.7920665
567.50 0.7917874
567.60 0.7915084
567.70 0.7912286
567.80 0.7909449
567.90 0.7906614
568.00 0.790378
568.10 0.7900947
568.20 0.7898116
568.30 0.7895287
568.40 0.7892459
568.50 0.7889632
568.60 0.7886807
568.70 0.7883984
568.80 0.7881162
568.90 0.7878341
569.00 0.7875522
569.10 0.7872705
569.20 0.7869889
569.30 0.7867074
569.40 0.7864261
569.50 0.786145
569.60 0.785864
569.70 0.7855831
569.80 0.7853024
569.90 0.7850218
570.00 0.7847414
570.10 0.7844612
570.20 0.7841811
570.30 0.7839011
570.40 0.7836213
570.50 0.7833416
570.60 0.7830621
570.70 0.7827827
570.80 0.7825035
570.90 0.7822244
571.00 0.7819455
571.10 0.7816667
571.20 0.7813881
571.30 0.7811096
571.40 0.7808312
571.50 0.780553
571.60 0.780275
571.70 0.7799971
571.80 0.7797193
571.90 0.7794417
572.00 0.7791643
572.10 0.778887
572.20 0.7786098
572.30 0.7783328
572.40 0.7780559
572.50 0.7777792
572.60 0.7775026
572.70 0.7772261
572.80 0.7769498
572.90 0.7766737
573.00 0.7763977
573.10 0.7761218
573.20 0.7758461
573.30 0.7755706
573.40 0.7752944
573.50 0.7750174
573.60 0.7747406
573.70 0.7744638
573.80 0.7741873
573.90 0.7739109
574.00 0.7736346
574.10 0.7733585
574.20 0.7730825
574.30 0.7728066
574.40 0.772531
574.50 0.7722554
574.60 0.77198
574.70 0.7717047
574.80 0.7714296
574.90 0.7711547
575.00 0.7708798
575.10 0.7706052
575.20 0.7703306
575.30 0.7700562
575.40 0.769782
575.50 0.7695079
575.60 0.7692339
575.70 0.7689601
575.80 0.7686865
575.90 0.7684129
576.00 0.7681395
576.10 0.7678663
576.20 0.7675932
576.30 0.7673203
576.40 0.7670475
576.50 0.7667748
576.60 0.7665023
576.70 0.7662299
576.80 0.7659576
576.90 0.7656856
577.00 0.7654136
577.10 0.7651418
577.20 0.7648701
577.30 0.7645986
577.40 0.7643272
577.50 0.764056
577.60 0.7637874
577.70 0.763523
577.80 0.7632587
577.90 0.7629946
578.00 0.7627306
578.10 0.7624667
578.20 0.762203
578.30 0.7619394
578.40 0.761676
578.50 0.7614127
578.60 0.7611495
578.70 0.7608865
578.80 0.7606236
578.90 0.7603608
579.00 0.7600982
579.10 0.7598332
579.20 0.7595426
579.30 0.7592522
579.40 0.7589619
579.50 0.7586718
579.60 0.7583818
579.70 0.758092
579.80 0.7578023
579.90 0.7575128
580.00 0.7572235
580.10 0.756945
580.20 0.7566841
580.30 0.7564233
580.40 0.7561626
580.50 0.7559022
580.60 0.7556418
580.70 0.7553816
580.80 0.7551215
580.90 0.7548615
581.00 0.7546017
581.10 0.754342
581.20 0.7540824
581.30 0.753823
581.40 0.7535637
581.50 0.7533046
581.60 0.7530455
581.70 0.7527866
581.80 0.7525279
581.90 0.7522693
582.00 0.7520108
582.10 0.7517455
582.20 0.7514692
582.30 0.7511931
582.40 0.750917
582.50 0.7506412
582.60 0.7503654
582.70 0.7500898
582.80 0.7498144
582.90 0.7495391
583.00 0.7492639
583.10 0.7489889
583.20 0.7487141
583.30 0.7484393
583.40 0.7481648
583.50 0.7478903
583.60 0.7476229
583.70 0.7473668
583.80 0.7471107
583.90 0.7468549
584.00 0.7465991
584.10 0.7463435
584.20 0.746088
584.30 0.7458326
584.40 0.7455774
584.50 0.7453223
584.60 0.7450674
584.70 0.7448125
584.80 0.7445578
584.90 0.7443033
585.00 0.7440488
585.10 0.7437945
585.20 0.7435301
585.30 0.7432492
585.40 0.7429685
585.50 0.7426879
585.60 0.7424074
585.70 0.7421271
585.80 0.7418469
585.90 0.7415669
586.00 0.7412871
586.10 0.7410074
586.20 0.740738
586.30 0.7404853
586.40 0.7402328
586.50 0.7399804
586.60 0.7397281
586.70 0.739476
586.80 0.7392239
586.90 0.7389721
587.00 0.7387203
587.10 0.7384687
587.20 0.7382172
587.30 0.7379658
587.40 0.7377145
587.50 0.7374634
587.60 0.7372124
587.70 0.7369616
587.80 0.7366603
587.90 0.7362766
588.00 0.7359437
588.10 0.7356935
588.20 0.7354433
588.30 0.7351933
588.40 0.7349434
588.50 0.7346937
588.60 0.7344441
588.70 0.7341946
588.80 0.7339452
588.90 0.733696
589.00 0.7334368
589.10 0.7331613
589.20 0.732886
589.30 0.7326108
589.40 0.7323357
589.50 0.7320608
589.60 0.731786
589.70 0.7315114
589.80 0.7312369
589.90 0.7309626
590.00 0.7306984
590.10 0.7304508
590.20 0.7302033
590.30 0.7299559
590.40 0.7297087
590.50 0.7294615
590.60 0.7292145
590.70 0.7289677
590.80 0.7287209
590.90 0.7284743
591.00 0.7282278
591.10 0.7279814
591.20 0.7277352
591.30 0.727489
591.40 0.727243
591.50 0.7269972
591.60 0.7267447
591.70 0.7264816
591.80 0.7262186
591.90 0.7259557
592.00 0.725693
592.10 0.7254304
592.20 0.7251679
592.30 0.7249056
592.40 0.7246434
592.50 0.7243814
592.60 0.7241194
592.70 0.7238577
592.80 0.723596
592.90 0.7233345
593.00 0.7230731
593.10 0.7228135
593.20 0.7225568
593.30 0.7223002
593.40 0.7220437
593.50 0.7217873
593.60 0.7215311
593.70 0.721275
593.80 0.7210191
593.90 0.7207632
594.00 0.7205075
594.10 0.720252
594.20 0.7199965
594.30 0.7197412
594.40 0.7194861
594.50 0.719231
594.60 0.7189761
594.70 0.7187213
594.80 0.7184667
594.90 0.7182122
595.00 0.7179578
595.10 0.7177022
595.20 0.7174446
595.30 0.7171871
595.40 0.7169297
595.50 0.7166725
595.60 0.7164154
595.70 0.7161585
595.80 0.7159016
595.90 0.7156449
596.00 0.7153884
596.10 0.7151319
596.20 0.7148756
596.30 0.7146195
596.40 0.7143634
596.50 0.7141075
596.60 0.7138518
596.70 0.713589
596.80 0.7133219
596.90 0.713055
597.00 0.7127882
597.10 0.7125215
597.20 0.712255
597.30 0.7119886
597.40 0.7117224
597.50 0.7114563
597.60 0.7111953
597.70 0.7109425
597.80 0.7106899
597.90 0.7104373
598.00 0.710185
598.10 0.7099327
598.20 0.7096806
598.30 0.7094286
598.40 0.7091767
598.50 0.708925
598.60 0.7086734
598.70 0.7084219
598.80 0.7081705
598.90 0.7079193
599.00 0.7076682
599.10 0.7074172
599.20 0.7071664
599.30 0.7069157
599.40 0.706667
599.50 0.7064185
599.60 0.7061701
599.70 0.7059218
599.80 0.7056736
599.90 0.7054256
600.00 0.7051777
600.10 0.7049299
600.20 0.7046823
600.30 0.7044348
600.40 0.7041874
600.50 0.7039401
600.60 0.703693
600.70 0.7034459
600.80 0.7031991
600.90 0.7029523
601.00 0.7027056
601.10 0.7024591
601.20 0.7022127
601.30 0.7019665
601.40 0.7017136
601.50 0.7014608
601.60 0.7012081
601.70 0.7009556
601.80 0.7007032
601.90 0.7004509
602.00 0.7001988
602.10 0.6999468
602.20 0.6996949
602.30 0.6994431
602.40 0.6991915
602.50 0.69894
602.60 0.6986886
602.70 0.6984558
602.80 0.6982241
602.90 0.6979609
603.00 0.6976978
603.10 0.6974348
603.20 0.697172
603.30 0.6969093
603.40 0.6966467
603.50 0.6963843
603.60 0.696122
603.70 0.6958599
603.80 0.6955979
603.90 0.695336
604.00 0.6950742
604.10 0.6948126
604.20 0.6945512
604.30 0.6942898
604.40 0.6940286
604.50 0.693799
604.60 0.6935695
604.70 0.6933401
604.80 0.6931109
604.90 0.6928817
605.00 0.6926527
605.10 0.6924238
605.20 0.692195
605.30 0.6919663
605.40 0.6917377
605.50 0.6914674
605.60 0.6911973
605.70 0.6909273
605.80 0.6906574
605.90 0.6903877
606.00 0.6901181
606.10 0.6898904
606.20 0.6896628
606.30 0.6894353
606.40 0.689208
606.50 0.6889807
606.60 0.6887536
606.70 0.6885265
606.80 0.6882996
606.90 0.6880728
607.00 0.6875965
607.10 0.68737
607.20 0.6871436
607.30 0.6869173
607.40 0.6866911
607.50 0.6864651
607.60 0.6862391
607.70 0.6859718
607.80 0.6857046
607.90 0.6854375
608.00 0.6851706
608.10 0.6849038
608.20 0.6846371
608.30 0.6844121
608.40 0.6841871
608.50 0.6839622
608.60 0.6837375
608.70 0.6835128
608.80 0.6832883
608.90 0.6830639
609.00 0.6828396
609.10 0.6826154
609.20 0.6823913
609.30 0.6821364
609.40 0.6818816
609.50 0.6816269
609.60 0.6813723
609.70 0.6811179
609.80 0.6808636
609.90 0.6806094
610.00 0.6803554
610.10 0.6801015
610.20 0.6798477
610.30 0.6795941
610.40 0.6793406
610.50 0.6790872
610.60 0.6788339
610.70 0.6785808
610.80 0.6783278
610.90 0.6780893
611.00 0.6778509
611.10 0.6776127
611.20 0.6773745
611.30 0.6771365
611.40 0.6768986
611.50 0.6766609
611.60 0.6764232
611.70 0.6761857
611.80 0.6759483
611.90 0.675711
612.00 0.6754738
612.10 0.6752367
612.20 0.6749998
612.30 0.674763
612.40 0.6745181
612.50 0.6742733
612.60 0.6740287
612.70 0.6737842
612.80 0.6735398
612.90 0.6732956
613.00 0.6730514
613.10 0.6728074
613.20 0.6725635
613.30 0.6723198
613.40 0.6720761
613.50 0.6718326
613.60 0.6715892
613.70 0.6713459
613.80 0.6711028
613.90 0.6708598
614.00 0.6706169
614.10 0.6703741
614.20 0.6701314
614.30 0.6698889
614.40 0.6696708
614.50 0.6694529
614.60 0.6692351
614.70 0.6690173
614.80 0.6687803
614.90 0.6685395
615.00 0.6682987
615.10 0.6680581
615.20 0.6678176
615.30 0.6675772
615.40 0.6673369
615.50 0.6670968
615.60 0.6668568
615.70 0.6666169
615.80 0.6663771
615.90 0.6661374
616.00 0.6658979
616.10 0.6656585
616.20 0.6654192
616.30 0.66518
616.40 0.664941
616.50 0.664702
616.60 0.6644632
616.70 0.6642245
616.80 0.6639859
616.90 0.6637469
617.00 0.663508
617.10 0.6632692
617.20 0.6630305
617.30 0.6627919
617.40 0.6625535
617.50 0.6623152
617.60 0.662077
617.70 0.6618389
617.80 0.6616009
617.90 0.6613631
618.00 0.6611254
618.10 0.6608878
618.20 0.6606503
618.30 0.6604129
618.40 0.6601757
618.50 0.6599385
618.60 0.6597015
618.70 0.6594646
618.80 0.6592279
618.90 0.6589912
619.00 0.6587547
619.10 0.6585183
619.20 0.658282
619.30 0.6580458
619.40 0.6578097
619.50 0.6575738
619.60 0.657338
619.70 0.6571022
619.80 0.6568667
619.90 0.6566312
620.00 0.6563958
620.10 0.6561606
620.20 0.6559255
620.30 0.6556905
620.40 0.6554556
620.50 0.6552208
620.60 0.6549862
620.70 0.6547516
620.80 0.6545172
620.90 0.6542831
621.00 0.6540493
621.10 0.6538157
621.20 0.6535822
621.30 0.6533488
621.40 0.6531155
621.50 0.6528823
621.60 0.6526493
621.70 0.6524163
621.80 0.6521835
621.90 0.6519508
622.00 0.6517182
622.10 0.6514857
622.20 0.6512534
622.30 0.6510211
622.40 0.650789
622.50 0.650557
622.60 0.6503251
622.70 0.6500933
622.80 0.6498616
622.90 0.6496301
623.00 0.6493987
623.10 0.6491673
623.20 0.6489361
623.30 0.648705
623.40 0.6484741
623.50 0.6482432
623.60 0.6480125
623.70 0.6477818
623.80 0.6475513
623.90 0.6473209
624.00 0.6470906
624.10 0.6468604
624.20 0.6466304
624.30 0.6464004
624.40 0.6461706
624.50 0.6459409
624.60 0.6457113
624.70 0.6454818
624.80 0.6452524
624.90 0.6450232
625.00 0.644794
625.10 0.644565
625.20 0.6443361
625.30 0.6441072
625.40 0.6438786
625.50 0.64365
625.60 0.6434215
625.70 0.6431931
625.80 0.6429649
625.90 0.6427368
626.00 0.6425088
626.10 0.6422809
626.20 0.6420531
626.30 0.6418254
626.40 0.6415978
626.50 0.6413704
626.60 0.641143
626.70 0.6409158
626.80 0.6406887
626.90 0.6404617
627.00 0.6402348
627.10 0.6400061
627.20 0.6397722
627.30 0.6395384
627.40 0.6393047
627.50 0.6390712
627.60 0.6388377
627.70 0.6386044
627.80 0.6383712
627.90 0.6381381
628.00 0.6379051
628.10 0.6376723
628.20 0.6374395
628.30 0.6372069
628.40 0.6369744
628.50 0.636742
628.60 0.6365097
628.70 0.6362776
628.80 0.6360455
628.90 0.6358136
629.00 0.6355818
629.10 0.6353501
629.20 0.6351185
629.30 0.634887
629.40 0.6346556
629.50 0.6344244
629.60 0.6341933
629.70 0.6339623
629.80 0.6337314
629.90 0.6335006
630.00 0.6332699
630.10 0.6330394
630.20 0.6328089
630.30 0.6325854
630.40 0.6323626
630.50 0.6321399
630.60 0.6319173
630.70 0.6316948
630.80 0.6314724
630.90 0.6312501
631.00 0.6310279
631.10 0.6308059
631.20 0.6305839
631.30 0.6303621
631.40 0.6301404
631.50 0.6299188
631.60 0.6296972
631.70 0.6294758
631.80 0.6292545
631.90 0.6290334
632.00 0.6288123
632.10 0.6285913
632.20 0.6283704
632.30 0.6281497
632.40 0.6279291
632.50 0.6277085
632.60 0.6274881
632.70 0.6272678
632.80 0.6270476
632.90 0.6268274
633.00 0.6266075
633.10 0.6263876
633.20 0.6261678
633.30 0.6259481
633.40 0.6257246
633.50 0.6254981
633.60 0.6252717
633.70 0.6250455
633.80 0.6248193
633.90 0.6245933
634.00 0.6243673
634.10 0.6241415
634.20 0.6239158
634.30 0.6236902
634.40 0.6234647
634.50 0.6232394
634.60 0.6230141
634.70 0.6227889
634.80 0.6225639
634.90 0.622339
635.00 0.6221141
635.10 0.6218894
635.20 0.6216648
635.30 0.6214403
635.40 0.621216
635.50 0.6209917
635.60 0.6207675
635.70 0.6205435
635.80 0.6203196
635.90 0.6200957
636.00 0.619872
636.10 0.6196484
636.20 0.6194249
636.30 0.6192015
636.40 0.6189782
636.50 0.6187551
636.60 0.618532
636.70 0.6183091
636.80 0.6180863
636.90 0.6178635
637.00 0.6176409
637.10 0.6174184
637.20 0.617196
637.30 0.6169738
637.40 0.6167516
637.50 0.6165295
637.60 0.6163076
637.70 0.6160857
637.80 0.615864
637.90 0.6156424
638.00 0.6154208
638.10 0.6151994
638.20 0.6149781
638.30 0.6147569
638.40 0.6145358
638.50 0.6143149
638.60 0.614094
638.70 0.6138732
638.80 0.6136526
638.90 0.613432
639.00 0.6132116
639.10 0.6129913
639.20 0.612771
639.30 0.6125509
639.40 0.6123309
639.50 0.612111
639.60 0.6118912
639.70 0.6116716
639.80 0.6114523
639.90 0.6112331
640.00 0.6110141
640.10 0.6107951
640.20 0.6105762
640.30 0.6103575
640.40 0.6101388
640.50 0.6099203
640.60 0.6097018
640.70 0.6094835
640.80 0.6092653
640.90 0.6090472
641.00 0.6088292
641.10 0.6086113
641.20 0.6083935
641.30 0.6081758
641.40 0.6079582
641.50 0.6077407
641.60 0.6075233
641.70 0.6073061
641.80 0.6070889
641.90 0.6068718
642.00 0.6066549
642.10 0.606438
642.20 0.6062213
642.30 0.6060047
642.40 0.6057881
642.50 0.6055717
642.60 0.6053554
642.70 0.6051392
642.80 0.6049231
642.90 0.6047071
643.00 0.6044912
643.10 0.6042754
643.20 0.6040597
643.30 0.6038441
643.40 0.6036286
643.50 0.6034132
643.60 0.603198
643.70 0.6029828
643.80 0.6027677
643.90 0.6025528
644.00 0.6023379
644.10 0.6021232
644.20 0.6019085
644.30 0.601694
644.40 0.6014795
644.50 0.6012652
644.60 0.601051
644.70 0.6008368
644.80 0.6006228
644.90 0.6004089
645.00 0.6001951
645.10 0.5999814
645.20 0.5997678
645.30 0.5995542
645.40 0.5993408
645.50 0.5991275
645.60 0.5989144
645.70 0.5987013
645.80 0.5984883
645.90 0.5982754
646.00 0.5980626
646.10 0.59785
646.20 0.5976377
646.30 0.5974255
646.40 0.5972134
646.50 0.5970014
646.60 0.5967895
646.70 0.5965777
646.80 0.596366
646.90 0.5961544
647.00 0.595943
647.10 0.5957316
647.20 0.5955203
647.30 0.5953091
647.40 0.5950981
647.50 0.5948871
647.60 0.5946762
647.70 0.5944654
647.80 0.5942548
647.90 0.5940442
648.00 0.5938337
648.10 0.5936234
648.20 0.5934131
648.30 0.593203
648.40 0.5929929
648.50 0.592783
648.60 0.5925731
648.70 0.5923633
648.80 0.5921537
648.90 0.5919441
649.00 0.5917347
649.10 0.5915253
649.20 0.5913161
649.30 0.591107
649.40 0.5908914
649.50 0.5906757
649.60 0.5904602
649.70 0.5902447
649.80 0.5900293
649.90 0.5898141
650.00 0.5895989
650.10 0.5893838
650.20 0.5891689
650.30 0.588954
650.40 0.5887393
650.50 0.5885247
650.60 0.5883101
650.70 0.5880957
650.80 0.5878814
650.90 0.5876671
651.00 0.587453
651.10 0.587239
651.20 0.5870251
651.30 0.5868113
651.40 0.5865976
651.50 0.586384
651.60 0.5861705
651.70 0.5859571
651.80 0.5857438
651.90 0.5855306
652.00 0.5853175
652.10 0.5851045
652.20 0.5848917
652.30 0.5846789
652.40 0.5844662
652.50 0.5842536
652.60 0.5840452
652.70 0.5838389
652.80 0.5836328
652.90 0.5834267
653.00 0.5832208
653.10 0.5830149
653.20 0.5828092
653.30 0.5826036
653.40 0.582398
653.50 0.5821926
653.60 0.5819872
653.70 0.581782
653.80 0.5815768
653.90 0.5813717
654.00 0.5811668
654.10 0.5809619
654.20 0.5807572
654.30 0.5805525
654.40 0.5803479
654.50 0.5801435
654.60 0.5799391
654.70 0.5797348
654.80 0.5795307
654.90 0.5793266
655.00 0.5791226
655.10 0.5789187
655.20 0.5787149
655.30 0.5785112
655.40 0.5783077
655.50 0.5781042
655.60 0.5779008
655.70 0.5776975
655.80 0.5774892
655.90 0.5772811
656.00 0.577073
656.10 0.5768651
656.20 0.5766572
656.30 0.5764495
656.40 0.5762418
656.50 0.5760343
656.60 0.5758268
656.70 0.5756195
656.80 0.5754122
656.90 0.575205
657.00 0.574998
657.10 0.574791
657.20 0.5745842
657.30 0.5743774
657.40 0.5741708
657.50 0.5739642
657.60 0.5737577
657.70 0.5735514
657.80 0.573377
657.90 0.5731737
658.00 0.5729654
658.10 0.5727571
658.20 0.572549
658.30 0.572341
658.40 0.572133
658.50 0.5719252
658.60 0.5717175
658.70 0.5715098
658.80 0.5713023
658.90 0.5710949
659.00 0.5708875
659.10 0.5706939
659.20 0.5705208
659.30 0.5703097
659.40 0.5700988
659.50 0.569888
659.60 0.5696773
659.70 0.5694667
659.80 0.5692562
659.90 0.5690458
660.00 0.5688355
660.10 0.5686253
660.20 0.5684152
660.30 0.5682052
660.40 0.5679904
660.50 0.567775
660.60 0.5675596
660.70 0.5673444
660.80 0.5671293
660.90 0.5669366
661.00 0.566744
661.10 0.5665515
661.20 0.5663591
661.30 0.5661668
661.40 0.5659746
661.50 0.5657825
661.60 0.5655904
661.70 0.5653985
661.80 0.5652066
661.90 0.5649951
662.00 0.5647836
662.10 0.5645723
662.20 0.5643611
662.30 0.5641499
662.40 0.5639735
662.50 0.5637509
662.60 0.5635283
662.70 0.5633059
662.80 0.5630836
662.90 0.5629137
663.00 0.5627439
663.10 0.5625742
663.20 0.5624046
663.30 0.562235
663.40 0.5620655
663.50 0.5617916
663.60 0.5615179
663.70 0.5613487
663.80 0.5611796
663.90 0.5610105
664.00 0.5608415
664.10 0.5606379
664.20 0.5604343
664.30 0.5602309
664.40 0.5600275
664.50 0.5598242
664.60 0.5596211
664.70 0.5594272
664.80 0.5592333
664.90 0.5590396
665.00 0.558846
665.10 0.5586524
665.20 0.5584589
665.30 0.5582656
665.40 0.5580723
665.50 0.5578053
665.60 0.5575255
665.70 0.5573447
665.80 0.5571501
665.90 0.5569556
666.00 0.5567613
666.10 0.556567
666.20 0.5563728
666.30 0.5561786
666.40 0.5559846
666.50 0.5557844
666.60 0.5555832
666.70 0.555382
666.80 0.555181
666.90 0.55498
667.00 0.5547791
667.10 0.5546077
667.20 0.5544414
667.30 0.5542753
667.40 0.5541092
667.50 0.5538554
667.60 0.5535863
667.70 0.553405
667.80 0.5532393
667.90 0.5530736
668.00 0.5529081
668.10 0.552655
668.20 0.5523865
668.30 0.5522058
668.40 0.5520406
668.50 0.5518754
668.60 0.5517104
668.70 0.5515454
668.80 0.5513405
668.90 0.5511357
669.00 0.5509311
669.10 0.5507265
669.20 0.5505221
669.30 0.5503167
669.40 0.5501112
669.50 0.5499058
669.60 0.5497006
669.70 0.5494954
669.80 0.5492903
669.90 0.5490853
670.00 0.5488805
670.10 0.5486757
670.20 0.548471
670.30 0.5482653
670.40 0.5480596
670.50 0.5478539
670.60 0.5476484
670.70 0.5474429
670.80 0.5472614
670.90 0.5470799
671.00 0.5468985
671.10 0.5467172
671.20 0.546536
671.30 0.5463549
671.40 0.5461739
671.50 0.5459929
671.60 0.545812
671.70 0.5456312
671.80 0.5454505
671.90 0.5452502
672.00 0.5450466
672.10 0.544843
672.20 0.5446395
672.30 0.5444361
672.40 0.5442501
672.50 0.5440655
672.60 0.543881
672.70 0.5436965
672.80 0.5435121
672.90 0.5433279
673.00 0.5431437
673.10 0.5429596
673.20 0.5427755
673.30 0.5424379
673.40 0.5422244
673.50 0.542033
673.60 0.5418417
673.70 0.5416504
673.80 0.5414593
673.90 0.5412682
674.00 0.5410772
674.10 0.5408864
674.20 0.5406956
674.30 0.5405048
674.40 0.5403142
674.50 0.5401237
674.60 0.5399333
674.70 0.5397429
674.80 0.5395526
674.90 0.5393625
675.00 0.5391724
675.10 0.5389824
675.20 0.5387925
675.30 0.5386027
675.40 0.5384112
675.50 0.5382196
675.60 0.538028
675.70 0.5378365
675.80 0.5376451
675.90 0.5374538
676.00 0.5372626
676.10 0.5370715
676.20 0.5368805
676.30 0.5366895
676.40 0.5364987
676.50 0.5363079
676.60 0.5361173
676.70 0.5359267
676.80 0.5357362
676.90 0.5355458
677.00 0.5353555
677.10 0.5351653
677.20 0.5349751
677.30 0.5347851
677.40 0.5345951
677.50 0.5344052
677.60 0.5342155
677.70 0.5340258
677.80 0.5338362
677.90 0.5336459
678.00 0.5334555
678.10 0.5332653
678.20 0.5330751
678.30 0.532885
678.40 0.532695
678.50 0.5325051
678.60 0.5323153
678.70 0.5321256
678.80 0.531936
678.90 0.5317464
679.00 0.5315569
679.10 0.5313679
679.20 0.5311792
679.30 0.5309905
679.40 0.5308019
679.50 0.5306134
679.60 0.530425
679.70 0.5302367
679.80 0.5300484
679.90 0.5298603
680.00 0.5296722
680.10 0.5294843
680.20 0.5292964
680.30 0.5291086
680.40 0.5289209
680.50 0.5287333
680.60 0.5285457
680.70 0.5283583
680.80 0.5281709
680.90 0.5279836
681.00 0.5277965
681.10 0.5276094
681.20 0.5274224
681.30 0.5272354
681.40 0.5270486
681.50 0.5268618
681.60 0.5266752
681.70 0.5264886
681.80 0.5263021
681.90 0.5261157
682.00 0.5259294
682.10 0.5257432
682.20 0.525557
682.30 0.525371
682.40 0.525185
682.50 0.5249991
682.60 0.5248133
682.70 0.5246276
682.80 0.524442
682.90 0.5242565
683.00 0.524071
683.10 0.5238856
683.20 0.5237004
683.30 0.5235152
683.40 0.5233301
683.50 0.523145
683.60 0.5229601
683.70 0.5227753
683.80 0.5225905
683.90 0.5224058
684.00 0.5222212
684.10 0.5220367
684.20 0.5218523
684.30 0.521668
684.40 0.5214837
684.50 0.5212995
684.60 0.5211155
684.70 0.5209315
684.80 0.5207476
684.90 0.5205637
685.00 0.52038
685.10 0.5201963
685.20 0.5200128
685.30 0.5198293
685.40 0.5196459
685.50 0.5194626
685.60 0.5192793
685.70 0.5190962
685.80 0.5189131
685.90 0.5187281
686.00 0.5185427
686.10 0.5183574
686.20 0.5181721
686.30 0.517987
686.40 0.5178019
686.50 0.5176169
686.60 0.517432
686.70 0.5172472
686.80 0.5170624
686.90 0.5168778
687.00 0.5166932
687.10 0.5165088
687.20 0.5163244
687.30 0.5161401
687.40 0.5159558
687.50 0.5157717
687.60 0.5155876
687.70 0.5154037
687.80 0.5152198
687.90 0.515036
688.00 0.5148523
688.10 0.5146687
688.20 0.5144851
688.30 0.5143017
688.40 0.5141183
688.50 0.513935
688.60 0.5137518
688.70 0.5135687
688.80 0.5133857
688.90 0.5132027
689.00 0.5130199
689.10 0.5128371
689.20 0.5126544
689.30 0.5124718
689.40 0.5122893
689.50 0.5121068
689.60 0.5119245
689.70 0.5117422
689.80 0.51156
689.90 0.5113779
690.00 0.5111959
690.10 0.511014
690.20 0.5108321
690.30 0.5106503
690.40 0.5104687
690.50 0.5102871
690.60 0.5101055
690.70 0.5099241
690.80 0.5097428
690.90 0.5095615
691.00 0.5093803
691.10 0.5091992
691.20 0.5090182
691.30 0.5088373
691.40 0.5086564
691.50 0.5084757
691.60 0.508295
691.70 0.5081144
691.80 0.5079339
691.90 0.5077534
692.00 0.5075731
692.10 0.5073928
692.20 0.5072126
692.30 0.5070325
692.40 0.5068525
692.50 0.5066726
692.60 0.5064927
692.70 0.5063137
692.80 0.5061376
692.90 0.5059616
693.00 0.5057857
693.10 0.5056098
693.20 0.505434
693.30 0.5052583
693.40 0.5050827
693.50 0.5049072
693.60 0.5047317
693.70 0.5045563
693.80 0.504381
693.90 0.5042058
694.00 0.5040307
694.10 0.5038556
694.20 0.5036807
694.30 0.5035058
694.40 0.5033309
694.50 0.5031562
694.60 0.5029815
694.70 0.502807
694.80 0.5026325
694.90 0.502458
695.00 0.5022837
695.10 0.5021094
695.20 0.5019353
695.30 0.5017612
695.40 0.5015871
695.50 0.5014132
695.60 0.5012393
695.70 0.5010656
695.80 0.5008919
695.90 0.5007182
696.00 0.5005447
696.10 0.5003712
696.20 0.5001978
696.30 0.5000245
696.40 0.4998513
696.50 0.4996781
696.60 0.4994983
696.70 0.4993171
696.80 0.4991359
696.90 0.4989547
697.00 0.4987737
697.10 0.4985928
697.20 0.4984119
697.30 0.4982311
697.40 0.4980504
697.50 0.4978698
697.60 0.4976893
697.70 0.4975088
697.80 0.4973284
697.90 0.4971482
698.00 0.496968
698.10 0.4967878
698.20 0.4966078
698.30 0.4964278
698.40 0.496248
698.50 0.4960682
698.60 0.4958885
698.70 0.4957089
698.80 0.4955293
698.90 0.4953499
699.00 0.4951705
699.10 0.4949957
699.20 0.494822
699.30 0.4946484
699.40 0.4944748
699.50 0.4943014
699.60 0.494128
699.70 0.4939599
699.80 0.4937922
699.90 0.4936245
700.00 0.493457
700.10 0.4932895
700.20 0.493122
700.30 0.4929547
700.40 0.4927874
700.50 0.4926202
700.60 0.4924531
700.70 0.492286
700.80 0.492119
700.90 0.4919521
701.00 0.4917853
701.10 0.4916097
701.20 0.4914321
701.30 0.4912545
701.40 0.491077
701.50 0.4908997
701.60 0.4907224
701.70 0.4905451
701.80 0.490368
701.90 0.4901909
702.00 0.4900139
702.10 0.4898371
702.20 0.4896602
702.30 0.4894835
702.40 0.4893068
702.50 0.4891303
702.60 0.4889557
702.70 0.4887816
702.80 0.4886076
702.90 0.4884336
703.00 0.4882598
703.10 0.488086
703.20 0.4879123
703.30 0.4877387
703.40 0.4875652
703.50 0.4873917
703.60 0.4872184
703.70 0.4870451
703.80 0.4868719
703.90 0.4866987
704.00 0.4865257
704.10 0.4863527
704.20 0.4861779
704.30 0.4860028
704.40 0.4858277
704.50 0.4856527
704.60 0.4854778
704.70 0.485303
704.80 0.4851282
704.90 0.4849536
705.00 0.484779
705.10 0.4846045
705.20 0.4844351
705.30 0.4842669
705.40 0.4840988
705.50 0.4839308
705.60 0.4837628
705.70 0.4835949
705.80 0.4834521
705.90 0.4833151
706.00 0.4831782
706.10 0.4830413
706.20 0.4828298
706.30 0.4826009
706.40 0.4824468
706.50 0.4823102
706.60 0.4821737
706.70 0.4820373
706.80 0.4818263
706.90 0.4815979
707.00 0.481407
707.10 0.4812248
707.20 0.4810427
707.30 0.4808608
707.40 0.4806913
707.50 0.4805248
707.60 0.4803583
707.70 0.480192
707.80 0.4800257
707.90 0.4798595
708.00 0.4797033
708.10 0.4795494
708.20 0.4793957
708.30 0.479242
708.40 0.4790884
708.50 0.4789348
708.60 0.4787813
708.70 0.4786279
708.80 0.4784746
708.90 0.4783213
709.00 0.4781551
709.10 0.4779859
709.20 0.4778168
709.30 0.4776478
709.40 0.4774789
709.50 0.4773101
709.60 0.4771413
709.70 0.4769726
709.80 0.476804
709.90 0.4766354
710.00 0.4764669
710.10 0.4762986
710.20 0.4761302
710.30 0.475962
710.40 0.4757938
710.50 0.4756257
710.60 0.4754559
710.70 0.4752857
710.80 0.4751155
710.90 0.4749455
711.00 0.4747755
711.10 0.4746056
711.20 0.4744357
711.30 0.474266
711.40 0.4740963
711.50 0.4739267
711.60 0.4737572
711.70 0.4735877
711.80 0.4734184
711.90 0.4732491
712.00 0.4730798
712.10 0.4729133
712.20 0.4727475
712.30 0.4725818
712.40 0.4724161
712.50 0.4722506
712.60 0.472085
712.70 0.4719196
712.80 0.4717542
712.90 0.471589
713.00 0.4714237
713.10 0.4712586
713.20 0.4710935
713.30 0.4709285
713.40 0.4707636
713.50 0.4705988
713.60 0.470434
713.70 0.4702632
713.80 0.4700802
713.90 0.4698972
714.00 0.4697143
714.10 0.4695497
714.20 0.4693893
714.30 0.4692291
714.40 0.4690689
714.50 0.4689088
714.60 0.4687487
714.70 0.4685887
714.80 0.4684288
714.90 0.468269
715.00 0.4681092
715.10 0.4679495
715.20 0.4677899
715.30 0.4676304
715.40 0.4674709
715.50 0.4673115
715.60 0.4671521
715.70 0.4669929
715.80 0.4668337
715.90 0.4666745
716.00 0.4665155
716.10 0.4663565
716.20 0.4661976
716.30 0.4660387
716.40 0.4658799
716.50 0.4657212
716.60 0.4655589
716.70 0.4653957
716.80 0.4652326
716.90 0.4650696
717.00 0.4649067
717.10 0.4647438
717.20 0.464581
717.30 0.4644183
717.40 0.4642557
717.50 0.4640931
717.60 0.4639306
717.70 0.4637682
717.80 0.4636058
717.90 0.4634435
718.00 0.4632813
718.10 0.4631192
718.20 0.4629555
718.30 0.4627909
718.40 0.4626264
718.50 0.462462
718.60 0.4622977
718.70 0.4621334
718.80 0.4619692
718.90 0.4618051
719.00 0.4616411
719.10 0.4614771
719.20 0.4613132
719.30 0.4611494
719.40 0.4609857
719.50 0.460822
719.60 0.4606584
719.70 0.4604949
719.80 0.4603314
719.90 0.4601681
720.00 0.4600047
720.10 0.4598415
720.20 0.4596784
720.30 0.4595153
720.40 0.4593523
720.50 0.4591893
720.60 0.4590264
720.70 0.4588867
720.80 0.4587594
720.90 0.458595
721.00 0.4584291
721.10 0.4582633
721.20 0.4580976
721.30 0.457932
721.40 0.4577664
721.50 0.4576009
721.60 0.4574355
721.70 0.4572702
721.80 0.4571049
721.90 0.4569397
722.00 0.4567746
722.10 0.4566095
722.20 0.4564446
722.30 0.4562797
722.40 0.4561148
722.50 0.4559501
722.60 0.4557854
722.70 0.4556229
722.80 0.4554616
722.90 0.4553004
723.00 0.4551393
723.10 0.4549782
723.20 0.4548172
723.30 0.4546563
723.40 0.4544955
723.50 0.4543347
723.60 0.454174
723.70 0.4540134
723.80 0.4538528
723.90 0.4536923
724.00 0.4535319
724.10 0.4533715
724.20 0.4532127
724.30 0.4530547
724.40 0.4528967
724.50 0.4527389
724.60 0.452581
724.70 0.4524233
724.80 0.4522656
724.90 0.452108
725.00 0.4519505
725.10 0.4517931
725.20 0.4516357
725.30 0.4514784
725.40 0.4513211
725.50 0.4511639
725.60 0.4510068
725.70 0.4508498
725.80 0.4506914
725.90 0.4505323
726.00 0.4503733
726.10 0.4502144
726.20 0.4500555
726.30 0.4498967
726.40 0.449738
726.50 0.4495793
726.60 0.4494207
726.70 0.4492622
726.80 0.4491075
726.90 0.448955
727.00 0.4488024
727.10 0.44865
727.20 0.4484976
727.30 0.4483453
727.40 0.4481837
727.50 0.448017
727.60 0.4478504
727.70 0.4476839
727.80 0.4475457
727.90 0.4474227
728.00 0.4472998
728.10 0.4471661
728.20 0.4468807
728.30 0.446758
728.40 0.4466353
728.50 0.4465127
728.60 0.446362
728.70 0.4461962
728.80 0.4460304
728.90 0.4458648
729.00 0.4457086
729.10 0.4455575
729.20 0.4454064
729.30 0.4452555
729.40 0.4451046
729.50 0.4449537
729.60 0.4447992
729.70 0.4446428
729.80 0.4444864
729.90 0.4443301
730.00 0.4441738
730.10 0.4440176
730.20 0.4438615
730.30 0.4437055
730.40 0.4435495
730.50 0.4433936
730.60 0.4432392
730.70 0.4430855
730.80 0.442932
730.90 0.4427785
731.00 0.4426251
731.10 0.4424718
731.20 0.4423185
731.30 0.4421653
731.40 0.4420121
731.50 0.441859
731.60 0.441706
731.70 0.4415531
731.80 0.4414002
731.90 0.4412474
732.00 0.4410947
732.10 0.440942
732.20 0.440788
732.30 0.4406333
732.40 0.4404787
732.50 0.4403241
732.60 0.4401697
732.70 0.4400152
732.80 0.4398609
732.90 0.4397066
733.00 0.4395524
733.10 0.4393983
733.20 0.4392442
733.30 0.4390902
733.40 0.4389363
733.50 0.4387824
733.60 0.4386286
733.70 0.438477
733.80 0.4383265
733.90 0.4381762
734.00 0.4380259
734.10 0.4378756
734.20 0.4377255
734.30 0.4375753
734.40 0.4374253
734.50 0.4372753
734.60 0.4371254
734.70 0.4369756
734.80 0.4368258
734.90 0.4366761
735.00 0.4365265
735.10 0.4363769
735.20 0.4362274
735.30 0.4360764
735.40 0.4359082
735.50 0.4357401
735.60 0.4355721
735.70 0.4354143
735.80 0.4352619
735.90 0.4351097
736.00 0.4349575
736.10 0.4348054
736.20 0.4346533
736.30 0.4345013
736.40 0.4343494
736.50 0.4341975
736.60 0.4340457
736.70 0.433894
736.80 0.4337423
736.90 0.4335907
737.00 0.4334392
737.10 0.4332878
737.20 0.4331364
737.30 0.432985
737.40 0.4328338
737.50 0.4326826
737.60 0.4325314
737.70 0.4323804
737.80 0.4322294
737.90 0.4320784
738.00 0.4319276
738.10 0.4317768
738.20 0.4316261
738.30 0.4314755
738.40 0.431325
738.50 0.4311745
738.60 0.4310241
738.70 0.4308738
738.80 0.4307235
738.90 0.4305733
739.00 0.4304232
739.10 0.4302731
739.20 0.4301231
739.30 0.4299732
739.40 0.4298233
739.50 0.4296735
739.60 0.4295237
739.70 0.4293741
739.80 0.4292244
739.90 0.4290749
740.00 0.4289254
740.10 0.428776
740.20 0.4286266
740.30 0.4284774
740.40 0.4283281
740.50 0.428179
740.60 0.4280299
740.70 0.4278809
740.80 0.4277319
740.90 0.427583
741.00 0.4274342
741.10 0.4272854
741.20 0.4271367
741.30 0.4269881
741.40 0.4268395
741.50 0.426691
741.60 0.4265425
741.70 0.4263942
741.80 0.4262458
741.90 0.4260976
742.00 0.4259494
742.10 0.4258013
742.20 0.4256532
742.30 0.4255052
742.40 0.4253573
742.50 0.4252094
742.60 0.4250616
742.70 0.4249145
742.80 0.4247679
742.90 0.4246213
743.00 0.4244748
743.10 0.4243284
743.20 0.424182
743.30 0.4240357
743.40 0.4238895
743.50 0.4237433
743.60 0.4235972
743.70 0.4234508
743.80 0.4233031
743.90 0.4231555
744.00 0.423008
744.10 0.4228605
744.20 0.4227131
744.30 0.4225657
744.40 0.4224185
744.50 0.4222712
744.60 0.4221241
744.70 0.421977
744.80 0.4218299
744.90 0.421683
745.00 0.4215361
745.10 0.4213892
745.20 0.4212425
745.30 0.4210957
745.40 0.4209491
745.50 0.4208025
745.60 0.420656
745.70 0.4205095
745.80 0.4203631
745.90 0.4202168
746.00 0.4200705
746.10 0.4199243
746.20 0.4197782
746.30 0.4196321
746.40 0.4194861
746.50 0.4193401
746.60 0.4191942
746.70 0.4190484
746.80 0.4189026
746.90 0.4187569
747.00 0.4186113
747.10 0.4184657
747.20 0.4183202
747.30 0.4181748
747.40 0.4180294
747.50 0.4178841
747.60 0.4177388
747.70 0.4175936
747.80 0.4174485
747.90 0.4173034
748.00 0.4171584
748.10 0.4170134
748.20 0.4168686
748.30 0.4167237
748.40 0.416579
748.50 0.4164343
748.60 0.4162896
748.70 0.4161451
748.80 0.4160006
748.90 0.4158561
749.00 0.4157117
749.10 0.4155674
749.20 0.4154231
749.30 0.4152789
749.40 0.4151348
749.50 0.4149907
749.60 0.4148467
749.70 0.4147028
749.80 0.4145589
749.90 0.4144151
750.00 0.4142713
750.10 0.4141284
750.20 0.4139874
750.30 0.4138466
750.40 0.4137058
750.50 0.4135651
750.60 0.4134244
750.70 0.4132838
750.80 0.4131433
750.90 0.4130028
751.00 0.4128624
751.10 0.412722
751.20 0.4125817
751.30 0.4124414
751.40 0.4123012
751.50 0.4121611
751.60 0.4120211
751.70 0.411881
751.80 0.4117411
751.90 0.4116012
752.00 0.4114614
752.10 0.4113216
752.20 0.4111819
752.30 0.4110423
752.40 0.4109027
752.50 0.4107632
752.60 0.4106237
752.70 0.4104843
752.80 0.4103449
752.90 0.4102056
753.00 0.4100664
753.10 0.4099272
753.20 0.4097881
753.30 0.4096491
753.40 0.4095101
753.50 0.4093712
753.60 0.4092323
753.70 0.4090935
753.80 0.4089547
753.90 0.4088126
754.00 0.4086697
754.10 0.4085268
754.20 0.408384
754.30 0.4082412
754.40 0.4080985
754.50 0.4079559
754.60 0.4078133
754.70 0.4076708
754.80 0.4075283
754.90 0.4073859
755.00 0.4072436
755.10 0.4071013
755.20 0.4069591
755.30 0.4068169
755.40 0.4066748
755.50 0.4065328
755.60 0.4063908
755.70 0.4062489
755.80 0.4061071
755.90 0.4059653
756.00 0.4058235
756.10 0.4056819
756.20 0.4055403
756.30 0.4053987
756.40 0.4052572
756.50 0.4051158
756.60 0.4049744
756.70 0.4048331
756.80 0.4046919
756.90 0.4045507
757.00 0.4044096
757.10 0.4042685
757.20 0.4041275
757.30 0.4039866
757.40 0.4038457
757.50 0.4037049
757.60 0.4035642
757.70 0.4034239
757.80 0.4032836
757.90 0.4031433
758.00 0.4030032
758.10 0.402863
758.20 0.402723
758.30 0.402583
758.40 0.4024431
758.50 0.4023032
758.60 0.4021634
758.70 0.4020236
758.80 0.4018839
758.90 0.4017443
759.00 0.4016047
759.10 0.4014652
759.20 0.4013257
759.30 0.4011863
759.40 0.401047
759.50 0.4009077
759.60 0.4007685
759.70 0.4006293
759.80 0.4004902
759.90 0.4003512
760.00 0.4002122
760.10 0.4000732
760.20 0.3999344
760.30 0.3997956
760.40 0.3996568
760.50 0.3995181
760.60 0.3993795
760.70 0.3992409
760.80 0.3991024
760.90 0.398964
761.00 0.3988256
761.10 0.3986873
761.20 0.398549
761.30 0.3984108
761.40 0.3982726
761.50 0.3981345
761.60 0.3979965
761.70 0.3978585
761.80 0.3977206
761.90 0.3975827
762.00 0.3974449
762.10 0.3973071
762.20 0.3971695
762.30 0.3970318
762.40 0.3968943
762.50 0.3967567
762.60 0.3966193
762.70 0.3964819
762.80 0.3963446
762.90 0.3962073
763.00 0.3960701
763.10 0.3959329
763.20 0.3957958
763.30 0.3956588
763.40 0.3955218
763.50 0.3953848
763.60 0.395248
763.70 0.3951112
763.80 0.3949744
763.90 0.3948377
764.00 0.3947011
764.10 0.3945645
764.20 0.394428
764.30 0.3942915
764.40 0.3941551
764.50 0.3940187
764.60 0.3938825
764.70 0.3937462
764.80 0.39361
764.90 0.3934739
765.00 0.3933379
765.10 0.3932019
765.20 0.3930672
765.30 0.3929337
765.40 0.3928002
765.50 0.3926668
765.60 0.3925335
765.70 0.3924002
765.80 0.392267
765.90 0.3921338
766.00 0.3920007
766.10 0.3918676
766.20 0.3917346
766.30 0.3916017
766.40 0.3914688
766.50 0.391336
766.60 0.3912032
766.70 0.3910705
766.80 0.3909378
766.90 0.3908052
767.00 0.3906727
767.10 0.3905402
767.20 0.3904077
767.30 0.3902753
767.40 0.390143
767.50 0.3900107
767.60 0.3898785
767.70 0.3897464
767.80 0.3896143
767.90 0.3894822
768.00 0.3893502
768.10 0.3892183
768.20 0.3890864
768.30 0.3889546
768.40 0.3888228
768.50 0.3886911
768.60 0.3885594
768.70 0.3884278
768.80 0.3882963
768.90 0.3881648
769.00 0.3880333
769.10 0.3879019
769.20 0.3877706
769.30 0.3876393
769.40 0.3875081
769.50 0.387377
769.60 0.3872458
769.70 0.3871148
769.80 0.3869838
769.90 0.3868528
770.00 0.386722
770.10 0.3865911
770.20 0.3864603
770.30 0.3863296
770.40 0.3861989
770.50 0.3860683
770.60 0.3859378
770.70 0.3858073
770.80 0.3856768
770.90 0.3855464
771.00 0.3854161
771.10 0.3852858
771.20 0.3851556
771.30 0.3850254
771.40 0.3848953
771.50 0.3847652
771.60 0.3846352
771.70 0.3845052
771.80 0.3843753
771.90 0.3842455
772.00 0.3841157
772.10 0.3839859
772.20 0.3838562
772.30 0.3837266
772.40 0.383597
772.50 0.3834675
772.60 0.383338
772.70 0.3832086
772.80 0.3830793
772.90 0.3829463
773.00 0.3828133
773.10 0.3826804
773.20 0.3825476
773.30 0.3824148
773.40 0.3822821
773.50 0.3821495
773.60 0.3820168
773.70 0.3818843
773.80 0.3817518
773.90 0.3816194
774.00 0.381487
774.10 0.3813547
774.20 0.3812224
774.30 0.3810902
774.40 0.380958
774.50 0.3808259
774.60 0.3806939
774.70 0.3805619
774.80 0.3804299
774.90 0.380298
775.00 0.3801662
775.10 0.3800344
775.20 0.3799027
775.30 0.3797711
775.40 0.3796395
775.50 0.3795079
775.60 0.3793764
775.70 0.379245
775.80 0.3791136
775.90 0.3789823
776.00 0.378851
776.10 0.3787198
776.20 0.3785886
776.30 0.3784575
776.40 0.3783264
776.50 0.3781954
776.60 0.3780645
776.70 0.3779336
776.80 0.3778028
776.90 0.377672
777.00 0.3775413
777.10 0.3774106
777.20 0.37728
777.30 0.3771494
777.40 0.3770189
777.50 0.3768885
777.60 0.3767581
777.70 0.3766277
777.80 0.3764974
777.90 0.3763672
778.00 0.376237
778.10 0.3761069
778.20 0.3759768
778.30 0.3758468
778.40 0.3757168
778.50 0.3755869
778.60 0.3754571
778.70 0.3753273
778.80 0.3751975
778.90 0.3750679
779.00 0.3749382
779.10 0.3748086
779.20 0.3746791
779.30 0.3745496
779.40 0.3744202
779.50 0.3742909
779.60 0.3741615
779.70 0.3740323
779.80 0.3739031
779.90 0.3737739
780.00 0.3736448
780.10 0.3735158
780.20 0.3733868
780.30 0.3732579
780.40 0.373129
780.50 0.3730002
780.60 0.3728738
780.70 0.3727484
780.80 0.3726231
780.90 0.3724978
781.00 0.3723726
781.10 0.3722474
781.20 0.3721222
781.30 0.3719972
781.40 0.3718721
781.50 0.3717472
781.60 0.3716222
781.70 0.3714974
781.80 0.3713726
781.90 0.3712478
782.00 0.3711231
782.10 0.3709984
782.20 0.3708738
782.30 0.3707492
782.40 0.3706247
782.50 0.3705003
782.60 0.3703759
782.70 0.3702515
782.80 0.3701272
782.90 0.370003
783.00 0.3698788
783.10 0.3697546
783.20 0.3696305
783.30 0.3695065
783.40 0.3693825
783.50 0.3692585
783.60 0.3691346
783.70 0.3690108
783.80 0.368887
783.90 0.3687633
784.00 0.3686396
784.10 0.3685159
784.20 0.3683924
784.30 0.3682688
784.40 0.3681453
784.50 0.3680219
784.60 0.3678979
784.70 0.3677723
784.80 0.3676469
784.90 0.3675214
785.00 0.3673961
785.10 0.3672708
785.20 0.3671455
785.30 0.3670203
785.40 0.3668951
785.50 0.36677
785.60 0.366645
785.70 0.36652
785.80 0.366395
785.90 0.3662701
786.00 0.3661453
786.10 0.3660205
786.20 0.3658957
786.30 0.365771
786.40 0.3656464
786.50 0.3655218
786.60 0.3653973
786.70 0.3652728
786.80 0.3651483
786.90 0.3650239
787.00 0.3648996
787.10 0.3647753
787.20 0.3646511
787.30 0.3645269
787.40 0.3644028
787.50 0.3642787
787.60 0.3641547
787.70 0.3640307
787.80 0.3639068
787.90 0.3637829
788.00 0.3636591
788.10 0.3635353
788.20 0.3634116
788.30 0.363288
788.40 0.3631653
788.50 0.3630432
788.60 0.3629211
788.70 0.362799
788.80 0.362677
788.90 0.3625551
789.00 0.3624332
789.10 0.3623114
789.20 0.3621896
789.30 0.3620679
789.40 0.3619462
789.50 0.3618245
789.60 0.361703
789.70 0.3615814
789.80 0.3614599
789.90 0.3613385
790.00 0.3612171
790.10 0.3610958
790.20 0.3609745
790.30 0.3608533
790.40 0.3607321
790.50 0.3606109
790.60 0.3604898
790.70 0.3603688
790.80 0.3602478
790.90 0.3601269
791.00 0.360006
791.10 0.3598852
791.20 0.3597644
791.30 0.3596436
791.40 0.3595229
791.50 0.3594023
791.60 0.3592817
791.70 0.3591612
791.80 0.3590407
791.90 0.3589202
792.00 0.3587998
792.10 0.3586795
792.20 0.3585592
792.30 0.358438
792.40 0.3583141
792.50 0.3581902
792.60 0.3580664
792.70 0.3579426
792.80 0.3578189
792.90 0.3576953
793.00 0.3575717
793.10 0.3574481
793.20 0.3573246
793.30 0.3572011
793.40 0.3570777
793.50 0.3569543
793.60 0.356831
793.70 0.3567078
793.80 0.3565846
793.90 0.3564614
794.00 0.3563383
794.10 0.3562153
794.20 0.3560922
794.30 0.3559693
794.40 0.3558464
794.50 0.3557235
794.60 0.3556007
794.70 0.355478
794.80 0.3553553
794.90 0.3552326
795.00 0.35511
795.10 0.3549875
795.20 0.354865
795.30 0.3547425
795.40 0.3546201
795.50 0.3544978
795.60 0.3543755
795.70 0.3542532
795.80 0.354131
795.90 0.3540089
796.00 0.3538868
796.10 0.3537648
796.20 0.3536428
796.30 0.3535226
796.40 0.3534029
796.50 0.3532832
796.60 0.3531635
796.70 0.3530439
796.80 0.3529244
796.90 0.3528049
797.00 0.3526855
797.10 0.3525661
797.20 0.3524467
797.30 0.3523274
797.40 0.3522081
797.50 0.3520889
797.60 0.3519698
797.70 0.3518507
797.80 0.3517316
797.90 0.3516126
798.00 0.3514936
798.10 0.3513747
798.20 0.3512559
798.30 0.351137
798.40 0.3510183
798.50 0.3508996
798.60 0.3507809
798.70 0.3506623
798.80 0.3505437
798.90 0.3504252
799.00 0.3503067
799.10 0.3501883
799.20 0.3500699
799.30 0.3499516
799.40 0.3498333
799.50 0.349715
799.60 0.3495968
799.70 0.3494787
799.80 0.3493606
799.90 0.3492426
800.00 0.3491246
800.10 0.3490066
800.20 0.3488887
800.30 0.3487709
800.40 0.3486531
800.50 0.3485353
800.60 0.3484176
800.70 0.3483
800.80 0.3481823
800.90 0.3480648
801.00 0.3479473
801.10 0.3478298
801.20 0.3477124
801.30 0.347595
801.40 0.3474777
801.50 0.3473604
801.60 0.3472432
801.70 0.347126
801.80 0.3470089
801.90 0.3468918
802.00 0.3467747
802.10 0.3466577
802.20 0.3465408
802.30 0.3464239
802.40 0.3463071
802.50 0.3461903
802.60 0.3460735
802.70 0.3459568
802.80 0.3458401
802.90 0.3457235
803.00 0.345607
803.10 0.3454905
803.20 0.345374
803.30 0.3452576
803.40 0.3451412
803.50 0.3450249
803.60 0.3449086
803.70 0.3447923
803.80 0.3446762
803.90 0.34456
804.00 0.3444439
804.10 0.3443279
804.20 0.3442116
804.30 0.3440942
804.40 0.3439768
804.50 0.3438595
804.60 0.3437422
804.70 0.343625
804.80 0.3435078
804.90 0.3433907
805.00 0.3432736
805.10 0.3431565
805.20 0.3430396
805.30 0.3429226
805.40 0.3428057
805.50 0.3426889
805.60 0.3425721
805.70 0.3424553
805.80 0.3423386
805.90 0.342222
806.00 0.3421054
806.10 0.3419888
806.20 0.3418723
806.30 0.3417558
806.40 0.3416394
806.50 0.341523
806.60 0.3414067
806.70 0.3412904
806.80 0.3411742
806.90 0.341058
807.00 0.3409419
807.10 0.3408258
807.20 0.3407098
807.30 0.3405938
807.40 0.3404778
807.50 0.3403619
807.60 0.3402461
807.70 0.3401302
807.80 0.3400145
807.90 0.3398988
808.00 0.3397831
808.10 0.3396675
808.20 0.339552
808.30 0.3394399
808.40 0.339328
808.50 0.339216
808.60 0.3391041
808.70 0.3389923
808.80 0.3388805
808.90 0.3387687
809.00 0.338657
809.10 0.3385454
809.20 0.3384337
809.30 0.3383222
809.40 0.3382106
809.50 0.3380991
809.60 0.3379877
809.70 0.3378763
809.80 0.337765
809.90 0.3376537
810.00 0.3375424
810.10 0.3374312
810.20 0.33732
810.30 0.3372089
810.40 0.3370978
810.50 0.3369868
810.60 0.3368758
810.70 0.3367648
810.80 0.3366539
810.90 0.336543
811.00 0.3364322
811.10 0.3363215
811.20 0.3362107
811.30 0.3361
811.40 0.3359894
811.50 0.3358788
811.60 0.3357683
811.70 0.3356578
811.80 0.3355473
811.90 0.3354369
812.00 0.3353265
812.10 0.3352162
812.20 0.3351059
812.30 0.334994
812.40 0.3348818
812.50 0.3347696
812.60 0.3346574
812.70 0.3345453
812.80 0.3344332
812.90 0.3343212
813.00 0.3342092
813.10 0.3340973
813.20 0.3339854
813.30 0.3338736
813.40 0.3337618
813.50 0.33365
813.60 0.3335383
813.70 0.3334266
813.80 0.333315
813.90 0.3332034
814.00 0.3330919
814.10 0.3329804
814.20 0.332869
814.30 0.3327576
814.40 0.3326463
814.50 0.3325349
814.60 0.3324237
814.70 0.3323125
814.80 0.3322013
814.90 0.3320902
815.00 0.3319791
815.10 0.3318681
815.20 0.3317571
815.30 0.3316461
815.40 0.3315352
815.50 0.3314243
815.60 0.3313135
815.70 0.3312028
815.80 0.331092
815.90 0.3309813
816.00 0.3308707
816.10 0.3307601
816.20 0.3306496
816.30 0.3305391
816.40 0.3304286
816.50 0.3303182
816.60 0.3302078
816.70 0.3300975
816.80 0.3299872
816.90 0.329877
817.00 0.3297668
817.10 0.3296566
817.20 0.3295465
817.30 0.3294364
817.40 0.3293264
817.50 0.3292164
817.60 0.3291065
817.70 0.3289966
817.80 0.3288868
817.90 0.328777
818.00 0.3286672
818.10 0.3285575
818.20 0.3284478
818.30 0.3283382
818.40 0.3282286
818.50 0.3281191
818.60 0.3280096
818.70 0.3279001
818.80 0.3277907
818.90 0.3276814
819.00 0.3275721
819.10 0.3274628
819.20 0.3273535
819.30 0.3272426
819.40 0.3271305
819.50 0.3270185
819.60 0.3269065
819.70 0.3267946
819.80 0.3266827
819.90 0.3265709
820.00 0.3264591
820.10 0.3263502
820.20 0.3262179
820.30 0.3260792
820.40 0.3259574
820.50 0.3258479
820.60 0.3257383
820.70 0.3256289
820.80 0.3255194
820.90 0.32541
821.00 0.3253007
821.10 0.3251914
821.20 0.3250821
821.30 0.3249729
821.40 0.3248637
821.50 0.3247546
821.60 0.3246455
821.70 0.3245365
821.80 0.3244275
821.90 0.3243185
822.00 0.3242096
822.10 0.3241007
822.20 0.3239919
822.30 0.3238831
822.40 0.3237744
822.50 0.3236657
822.60 0.323557
822.70 0.3234484
822.80 0.3233398
822.90 0.3232313
823.00 0.3231228
823.10 0.3230144
823.20 0.322906
823.30 0.3227977
823.40 0.3226894
823.50 0.3225811
823.60 0.3224729
823.70 0.3223647
823.80 0.3222566
823.90 0.3221485
824.00 0.3220404
824.10 0.3219324
824.20 0.3218244
824.30 0.3217165
824.40 0.3216086
824.50 0.3215008
824.60 0.321393
824.70 0.3212853
824.80 0.3211776
824.90 0.3210699
825.00 0.3209623
825.10 0.3208547
825.20 0.3207472
825.30 0.3206397
825.40 0.3205322
825.50 0.3204248
825.60 0.3203174
825.70 0.3202101
825.80 0.3201028
825.90 0.3199956
826.00 0.3198884
826.10 0.3197813
826.20 0.3196741
826.30 0.3195674
826.40 0.3194608
826.50 0.3193543
826.60 0.3192479
826.70 0.3191415
826.80 0.3190351
826.90 0.3189288
827.00 0.3188225
827.10 0.3187162
827.20 0.31861
827.30 0.3185039
827.40 0.3183977
827.50 0.3182917
827.60 0.3181856
827.70 0.3180796
827.80 0.3179737
827.90 0.3178678
828.00 0.3177619
828.10 0.3176561
828.20 0.3175503
828.30 0.3174445
828.40 0.3173388
828.50 0.3172332
828.60 0.3171275
828.70 0.3170219
828.80 0.3169163
828.90 0.3168108
829.00 0.3167052
829.10 0.3165998
829.20 0.3164944
829.30 0.316389
829.40 0.3162836
829.50 0.3161783
829.60 0.3160731
829.70 0.3159678
829.80 0.3158627
829.90 0.3157575
830.00 0.3156524
830.10 0.3155474
830.20 0.3154424
830.30 0.3153374
830.40 0.3152325
830.50 0.3151276
830.60 0.3150228
830.70 0.314918
830.80 0.3148132
830.90 0.3147085
831.00 0.3146038
831.10 0.3144992
831.20 0.3143946
831.30 0.31429
831.40 0.3141855
831.50 0.314081
831.60 0.3139766
831.70 0.3138722
831.80 0.3137678
831.90 0.3136635
832.00 0.3135593
832.10 0.313455
832.20 0.3133509
832.30 0.3132467
832.40 0.3131426
832.50 0.3130385
832.60 0.3129345
832.70 0.3128305
832.80 0.3127266
832.90 0.3126227
833.00 0.3125188
833.10 0.312415
833.20 0.3123112
833.30 0.3122075
833.40 0.3121038
833.50 0.3120002
833.60 0.3118966
833.70 0.311793
833.80 0.3116894
833.90 0.311586
834.00 0.3114825
834.10 0.3113791
834.20 0.3112757
834.30 0.3111724
834.40 0.3110691
834.50 0.3109659
834.60 0.3108627
834.70 0.3107595
834.80 0.3106564
834.90 0.3105533
835.00 0.3104502
835.10 0.3103472
835.20 0.3102443
835.30 0.3101413
835.40 0.3100385
835.50 0.3099356
835.60 0.3098328
835.70 0.3097301
835.80 0.3096273
835.90 0.3095247
836.00 0.309422
836.10 0.3093194
836.20 0.3092168
836.30 0.3091143
836.40 0.3090118
836.50 0.3089094
836.60 0.308807
836.70 0.3087046
836.80 0.3086023
836.90 0.3085002
837.00 0.3083983
837.10 0.3082964
837.20 0.3081945
837.30 0.3080927
837.40 0.3079909
837.50 0.3078891
837.60 0.3077874
837.70 0.3076857
837.80 0.3075841
837.90 0.3074825
838.00 0.3073809
838.10 0.3072794
838.20 0.3071779
838.30 0.3070765
838.40 0.3069751
838.50 0.3068737
838.60 0.3067724
838.70 0.3066711
838.80 0.3065699
838.90 0.3064687
839.00 0.3063675
839.10 0.3062664
839.20 0.3061653
839.30 0.3060643
839.40 0.3059633
839.50 0.3058623
839.60 0.3057614
839.70 0.3056605
839.80 0.3055596
839.90 0.3054588
840.00 0.3053581
840.10 0.3052573
840.20 0.3051566
840.30 0.305056
840.40 0.3049554
840.50 0.3048548
840.60 0.3047543
840.70 0.3046538
840.80 0.3045533
840.90 0.3044529
841.00 0.3043525
841.10 0.3042522
841.20 0.3041519
841.30 0.3040517
841.40 0.3039515
841.50 0.3038513
841.60 0.3037511
841.70 0.303651
841.80 0.303551
841.90 0.303451
842.00 0.303351
842.10 0.3032511
842.20 0.3031512
842.30 0.3030513
842.40 0.3029515
842.50 0.3028517
842.60 0.3027519
842.70 0.3026522
842.80 0.3025526
842.90 0.3024529
843.00 0.3023533
843.10 0.3022538
843.20 0.3021543
843.30 0.3020548
843.40 0.3019554
843.50 0.301856
843.60 0.3017566
843.70 0.3016573
843.80 0.301558
843.90 0.3014588
844.00 0.3013596
844.10 0.3012604
844.20 0.3011613
844.30 0.3010622
844.40 0.3009631
844.50 0.3008641
844.60 0.3007652
844.70 0.3006662
844.80 0.3005673
844.90 0.3004685
845.00 0.3003697
845.10 0.3002709
845.20 0.3001721
845.30 0.3000737
845.40 0.2999753
845.50 0.2998769
845.60 0.2997786
845.70 0.2996803
845.80 0.2995821
845.90 0.2994839
846.00 0.2993857
846.10 0.2992876
846.20 0.2991895
846.30 0.2990914
846.40 0.2989934
846.50 0.2988954
846.60 0.2987975
846.70 0.2986996
846.80 0.2986017
846.90 0.2985039
847.00 0.2984061
847.10 0.2983084
847.20 0.2982107
847.30 0.298113
847.40 0.2980153
847.50 0.2979177
847.60 0.2978202
847.70 0.2977227
847.80 0.2976252
847.90 0.2975277
848.00 0.2974303
848.10 0.2973329
848.20 0.2972356
848.30 0.2971383
848.40 0.297041
848.50 0.2969438
848.60 0.2968466
848.70 0.2967495
848.80 0.2966524
848.90 0.2965553
849.00 0.2964583
849.10 0.2963613
849.20 0.2962643
849.30 0.2961674
849.40 0.2960705
849.50 0.2959736
849.60 0.2958768
849.70 0.2957801
849.80 0.2956833
849.90 0.2955866
850.00 0.29549
850.10 0.2953933
850.20 0.2952968
850.30 0.2952002
850.40 0.2951037
850.50 0.2950072
850.60 0.2949108
850.70 0.2948144
850.80 0.294718
850.90 0.2946217
851.00 0.2945254
851.10 0.2944291
851.20 0.2943329
851.30 0.2942368
851.40 0.2941406
851.50 0.2940445
851.60 0.2939484
851.70 0.2938524
851.80 0.2937564
851.90 0.2936605
852.00 0.2935645
852.10 0.2934687
852.20 0.2933728
852.30 0.293277
852.40 0.2931812
852.50 0.2930855
852.60 0.2929898
852.70 0.2928941
852.80 0.2927985
852.90 0.2927029
853.00 0.2926074
853.10 0.2925119
853.20 0.2924164
853.30 0.292321
853.40 0.2922256
853.50 0.2921302
853.60 0.2920349
853.70 0.2919383
853.80 0.2918403
853.90 0.2917424
854.00 0.2916445
854.10 0.2915467
854.20 0.2914489
854.30 0.2913511
854.40 0.2912534
854.50 0.2911557
854.60 0.2910581
854.70 0.2909605
854.80 0.2908629
854.90 0.2907654
855.00 0.2906679
855.10 0.2905704
855.20 0.290473
855.30 0.2903756
855.40 0.2902783
855.50 0.290181
855.60 0.2900837
855.70 0.2899865
855.80 0.2898893
855.90 0.2897921
856.00 0.289695
856.10 0.2895979
856.20 0.2895009
856.30 0.2894039
856.40 0.2893069
856.50 0.28921
856.60 0.2891131
856.70 0.2890162
856.80 0.2889194
856.90 0.2888226
857.00 0.2887259
857.10 0.2886291
857.20 0.2885325
857.30 0.2884358
857.40 0.2883392
857.50 0.2882427
857.60 0.2881462
857.70 0.2880497
857.80 0.2879532
857.90 0.2878568
858.00 0.2877628
858.10 0.2876694
858.20 0.287576
858.30 0.2874827
858.40 0.2873894
858.50 0.2872961
858.60 0.2872029
858.70 0.2871097
858.80 0.2870165
858.90 0.2869234
859.00 0.2868303
859.10 0.2867372
859.20 0.2866442
859.30 0.2865512
859.40 0.2864583
859.50 0.2863654
859.60 0.2862725
859.70 0.2861797
859.80 0.2860868
859.90 0.2859941
860.00 0.2859013
860.10 0.2858086
860.20 0.285716
860.30 0.2856234
860.40 0.2855308
860.50 0.2854382
860.60 0.2853457
860.70 0.2852532
860.80 0.2851607
860.90 0.2850683
861.00 0.2849759
861.10 0.2848836
861.20 0.2847913
861.30 0.284699
861.40 0.2846068
861.50 0.2845146
861.60 0.2844224
861.70 0.2843303
861.80 0.2842382
861.90 0.2841461
862.00 0.2840541
862.10 0.2839621
862.20 0.28387
862.30 0.2837769
862.40 0.2836838
862.50 0.2835908
862.60 0.2834978
862.70 0.2834048
862.80 0.2833119
862.90 0.283219
863.00 0.2831262
863.10 0.2830333
863.20 0.2829406
863.30 0.2828478
863.40 0.2827551
863.50 0.2826624
863.60 0.2825698
863.70 0.2824772
863.80 0.2823846
863.90 0.2822921
864.00 0.2821996
864.10 0.2821071
864.20 0.2820147
864.30 0.2819223
864.40 0.28183
864.50 0.2817376
864.60 0.2816454
864.70 0.2815531
864.80 0.2814609
864.90 0.2813687
865.00 0.2812766
865.10 0.2811844
865.20 0.2810924
865.30 0.2810003
865.40 0.2809083
865.50 0.2808164
865.60 0.2807244
865.70 0.2806325
865.80 0.2805407
865.90 0.2804488
866.00 0.280357
866.10 0.2802653
866.20 0.2801735
866.30 0.2800818
866.40 0.2799902
866.50 0.2798986
866.60 0.279807
866.70 0.2797154
866.80 0.2796239
866.90 0.2795324
867.00 0.279441
867.10 0.2793496
867.20 0.2792582
867.30 0.2791669
867.40 0.2790755
867.50 0.2789843
867.60 0.278893
867.70 0.2788018
867.80 0.2787107
867.90 0.2786195
868.00 0.2785284
868.10 0.2784374
868.20 0.2783463
868.30 0.2782553
868.40 0.2781644
868.50 0.2780734
868.60 0.2779825
868.70 0.2778917
868.80 0.2778009
868.90 0.2777101
869.00 0.2776193
869.10 0.2775286
869.20 0.2774379
869.30 0.2773473
869.40 0.2772566
869.50 0.2771661
869.60 0.2770755
869.70 0.276985
869.80 0.2768945
869.90 0.2768041
870.00 0.2767137
870.10 0.2766233
870.20 0.2765329
870.30 0.2764426
870.40 0.2763523
870.50 0.2762621
870.60 0.2761719
870.70 0.2760817
870.80 0.2759916
870.90 0.275903
871.00 0.2758146
871.10 0.2757262
871.20 0.2756378
871.30 0.2755495
871.40 0.2754612
871.50 0.275373
871.60 0.2752848
871.70 0.2751966
871.80 0.2751084
871.90 0.2750203
872.00 0.2749322
872.10 0.2748442
872.20 0.2747562
872.30 0.2746682
872.40 0.2745802
872.50 0.2744923
872.60 0.2744044
872.70 0.2743166
872.80 0.2742288
872.90 0.274141
873.00 0.2740532
873.10 0.2739655
873.20 0.2738778
873.30 0.2737902
873.40 0.2737026
873.50 0.273615
873.60 0.2735274
873.70 0.2734399
873.80 0.2733524
873.90 0.273265
874.00 0.2731776
874.10 0.2730902
874.20 0.2730028
874.30 0.2729155
874.40 0.2728282
874.50 0.2727409
874.60 0.2726537
874.70 0.2725665
874.80 0.2724794
874.90 0.2723922
875.00 0.2723051
875.10 0.2722181
875.20 0.2721301
875.30 0.2720403
875.40 0.2719506
875.50 0.2718609
875.60 0.2717712
875.70 0.2716816
875.80 0.271592
875.90 0.2715025
876.00 0.271413
876.10 0.2713235
876.20 0.2712341
876.30 0.2711446
876.40 0.2710553
876.50 0.2709659
876.60 0.2708766
876.70 0.2707873
876.80 0.2706981
876.90 0.2706089
877.00 0.2705197
877.10 0.2704305
877.20 0.2703414
877.30 0.2702523
877.40 0.2701633
877.50 0.2700743
877.60 0.2699853
877.70 0.2698964
877.80 0.2698075
877.90 0.2697186
878.00 0.2696297
878.10 0.2695409
878.20 0.2694521
878.30 0.2693634
878.40 0.2692747
878.50 0.269186
878.60 0.2690974
878.70 0.2690088
878.80 0.2689202
878.90 0.2688316
879.00 0.2687431
879.10 0.2686547
879.20 0.2685662
879.30 0.2684778
879.40 0.2683894
879.50 0.2683011
879.60 0.2682152
879.70 0.2681299
879.80 0.2680447
879.90 0.2679594
880.00 0.2678742
880.10 0.267789
880.20 0.2677039
880.30 0.2676188
880.40 0.2675337
880.50 0.2674487
880.60 0.2673636
880.70 0.2672787
880.80 0.2671937
880.90 0.2671088
881.00 0.2670239
881.10 0.266939
881.20 0.2668542
881.30 0.2667694
881.40 0.2666847
881.50 0.2665999
881.60 0.2665152
881.70 0.2664306
881.80 0.2663459
881.90 0.2662613
882.00 0.2661768
882.10 0.2660922
882.20 0.2660077
882.30 0.2659232
882.40 0.2658388
882.50 0.2657544
882.60 0.26567
882.70 0.2655856
882.80 0.2655013
882.90 0.265417
883.00 0.2653328
883.10 0.2652485
883.20 0.2651643
883.30 0.2650802
883.40 0.264996
883.50 0.2649119
883.60 0.2648279
883.70 0.2647438
883.80 0.2646598
883.90 0.2645759
884.00 0.2644897
884.10 0.2644031
884.20 0.2643165
884.30 0.26423
884.40 0.2641435
884.50 0.264057
884.60 0.2639706
884.70 0.2638842
884.80 0.2637978
884.90 0.2637115
885.00 0.2636252
885.10 0.2635389
885.20 0.2634526
885.30 0.2633664
885.40 0.2632803
885.50 0.2631941
885.60 0.263108
885.70 0.2630219
885.80 0.2629359
885.90 0.2628499
886.00 0.2627639
886.10 0.2626779
886.20 0.262592
886.30 0.2625061
886.40 0.2624203
886.50 0.2623345
886.60 0.2622487
886.70 0.2621629
886.80 0.2620772
886.90 0.2619915
887.00 0.2619058
887.10 0.2618202
887.20 0.2617346
887.30 0.261649
887.40 0.2615635
887.50 0.261478
887.60 0.2613925
887.70 0.2613071
887.80 0.2612217
887.90 0.2611363
888.00 0.261051
888.10 0.2609657
888.20 0.2608804
888.30 0.2607951
888.40 0.2607113
888.50 0.2606277
888.60 0.2605441
888.70 0.2604606
888.80 0.260377
888.90 0.2602936
889.00 0.2602101
889.10 0.2601267
889.20 0.2600433
889.30 0.2599599
889.40 0.2598766
889.50 0.2597933
889.60 0.25971
889.70 0.2596268
889.80 0.2595436
889.90 0.2594604
890.00 0.2593773
890.10 0.2592942
890.20 0.2592111
890.30 0.259128
890.40 0.259045
890.50 0.258962
890.60 0.2588791
890.70 0.2587962
890.80 0.2587133
890.90 0.2586304
891.00 0.2585476
891.10 0.2584647
891.20 0.258382
891.30 0.2582992
891.40 0.2582165
891.50 0.2581338
891.60 0.2580512
891.70 0.2579686
891.80 0.257886
891.90 0.2578034
892.00 0.2577209
892.10 0.2576384
892.20 0.2575559
892.30 0.2574735
892.40 0.2573911
892.50 0.2573087
892.60 0.2572263
892.70 0.257144
892.80 0.2570617
892.90 0.2569795
893.00 0.2568973
893.10 0.2568151
893.20 0.2567329
893.30 0.2566508
893.40 0.2565687
893.50 0.2564866
893.60 0.2564046
893.70 0.2563225
893.80 0.2562406
893.90 0.2561586
894.00 0.2560767
894.10 0.2559948
894.20 0.2559129
894.30 0.2558311
894.40 0.2557493
894.50 0.2556675
894.60 0.2555858
894.70 0.2555041
894.80 0.2554224
894.90 0.2553407
895.00 0.2552591
895.10 0.2551775
895.20 0.255096
895.30 0.2550144
895.40 0.2549329
895.50 0.2548515
895.60 0.25477
895.70 0.2546886
895.80 0.2546072
895.90 0.2545259
896.00 0.2544446
896.10 0.2543633
896.20 0.254282
896.30 0.2542008
896.40 0.2541196
896.50 0.2540384
896.60 0.2539573
896.70 0.2538762
896.80 0.2537951
896.90 0.253714
897.00 0.253633
897.10 0.253552
897.20 0.253471
897.30 0.2533891
897.40 0.2533071
897.50 0.2532252
897.60 0.2531434
897.70 0.2530615
897.80 0.2529797
897.90 0.2528979
898.00 0.2528162
898.10 0.2527345
898.20 0.2526528
898.30 0.2525711
898.40 0.2524895
898.50 0.2524079
898.60 0.2523263
898.70 0.2522448
898.80 0.2521633
898.90 0.2520818
899.00 0.2520003
899.10 0.2519189
899.20 0.2518375
899.30 0.2517562
899.40 0.2516748
899.50 0.2515935
899.60 0.2515123
899.70 0.251431
899.80 0.2513498
899.90 0.2512686
900.00 0.2511875
900.10 0.2511064
900.20 0.2510253
900.30 0.2509442
900.40 0.2508632
900.50 0.2507822
900.60 0.2507012
900.70 0.2506203
900.80 0.2505393
900.90 0.2504585
901.00 0.2503776
901.10 0.2502968
901.20 0.250216
901.30 0.2501352
901.40 0.2500545
901.50 0.2499738
901.60 0.2498931
901.70 0.2498129
901.80 0.2497348
901.90 0.2496568
902.00 0.2495787
902.10 0.2495007
902.20 0.2494227
902.30 0.2493448
902.40 0.2492669
902.50 0.249189
902.60 0.2491111
902.70 0.2490333
902.80 0.2489555
902.90 0.2488777
903.00 0.2487999
903.10 0.2487222
903.20 0.2486445
903.30 0.2485668
903.40 0.2484892
903.50 0.2484116
903.60 0.248334
903.70 0.2482564
903.80 0.2481789
903.90 0.2481014
904.00 0.2480239
904.10 0.2479465
904.20 0.2478691
904.30 0.2477917
904.40 0.2477143
904.50 0.247637
904.60 0.2475597
904.70 0.2474824
904.80 0.2474052
904.90 0.247328
905.00 0.2472508
905.10 0.2471736
905.20 0.2470965
905.30 0.2470194
905.40 0.2469423
905.50 0.2468653
905.60 0.2467882
905.70 0.2467113
905.80 0.2466343
905.90 0.2465574
906.00 0.2464804
906.10 0.2464036
906.20 0.246326
906.30 0.2462469
906.40 0.2461679
906.50 0.2460889
906.60 0.2460099
906.70 0.2459309
906.80 0.245852
906.90 0.2457731
907.00 0.2456942
907.10 0.2456154
907.20 0.2455366
907.30 0.2454578
907.40 0.245379
907.50 0.2453003
907.60 0.2452216
907.70 0.2451429
907.80 0.2450643
907.90 0.2449857
908.00 0.2449071
908.10 0.2448285
908.20 0.24475
908.30 0.2446715
908.40 0.244593
908.50 0.2445146
908.60 0.2444362
908.70 0.2443578
908.80 0.2442794
908.90 0.2442011
909.00 0.2441228
909.10 0.2440445
909.20 0.2439663
909.30 0.2438881
909.40 0.2438099
909.50 0.2437318
909.60 0.2436536
909.70 0.2435755
909.80 0.2434975
909.90 0.2434194
910.00 0.2433414
910.10 0.2432634
910.20 0.2431855
910.30 0.2431075
910.40 0.2430296
910.50 0.2429518
910.60 0.2428739
910.70 0.2427961
910.80 0.2427183
910.90 0.2426406
911.00 0.2425628
911.10 0.2424851
911.20 0.2424075
911.30 0.2423298
911.40 0.2422522
911.50 0.2421746
911.60 0.2420971
911.70 0.2420195
911.80 0.241942
911.90 0.2418645
912.00 0.2417871
912.10 0.2417097
912.20 0.2416323
912.30 0.2415549
912.40 0.2414776
912.50 0.2414003
912.60 0.241323
912.70 0.2412458
912.80 0.2411685
912.90 0.2410913
913.00 0.2410142
913.10 0.240937
913.20 0.2408599
913.30 0.2407828
913.40 0.2407058
913.50 0.2406288
913.60 0.2405518
913.70 0.2404748
913.80 0.2403978
913.90 0.2403209
914.00 0.240244
914.10 0.2401672
914.20 0.2400904
914.30 0.2400135
914.40 0.2399368
914.50 0.23986
914.60 0.2397833
914.70 0.2397066
914.80 0.23963
914.90 0.2395533
915.00 0.2394767
915.10 0.2394001
915.20 0.2393236
915.30 0.2392472
915.40 0.239171
915.50 0.2390947
915.60 0.2390185
915.70 0.2389423
915.80 0.2388662
915.90 0.2387901
916.00 0.238714
916.10 0.2386379
916.20 0.2385619
916.30 0.2384859
916.40 0.2384099
916.50 0.2383339
916.60 0.238258
916.70 0.2381821
916.80 0.2381062
916.90 0.2380304
917.00 0.2379546
917.10 0.2378788
917.20 0.237803
917.30 0.2377273
917.40 0.2376516
917.50 0.2375759
917.60 0.2375002
917.70 0.2374246
917.80 0.237349
917.90 0.2372734
918.00 0.2371979
918.10 0.2371223
918.20 0.2370469
918.30 0.2369714
918.40 0.236896
918.50 0.2368205
918.60 0.2367452
918.70 0.2366698
918.80 0.2365945
918.90 0.2365192
919.00 0.2364439
919.10 0.2363687
919.20 0.2362934
919.30 0.2362183
919.40 0.2361431
919.50 0.236068
919.60 0.2359928
919.70 0.2359178
919.80 0.2358427
919.90 0.2357677
920.00 0.2356927
920.10 0.2356177
920.20 0.2355427
920.30 0.2354678
920.40 0.2353929
920.50 0.2353181
920.60 0.2352432
920.70 0.2351684
920.80 0.2350936
920.90 0.2350189
921.00 0.2349441
921.10 0.2348694
921.20 0.2347947
921.30 0.2347201
921.40 0.2346455
921.50 0.2345709
921.60 0.2344963
921.70 0.2344218
921.80 0.2343472
921.90 0.2342727
922.00 0.2341983
922.10 0.2341238
922.20 0.2340494
922.30 0.2339751
922.40 0.2339007
922.50 0.2338264
922.60 0.2337521
922.70 0.2336778
922.80 0.2336035
922.90 0.2335293
923.00 0.2334551
923.10 0.2333809
923.20 0.2333068
923.30 0.2332327
923.40 0.2331586
923.50 0.2330845
923.60 0.2330105
923.70 0.2329365
923.80 0.2328625
923.90 0.2327885
924.00 0.2327146
924.10 0.2326407
924.20 0.2325668
924.30 0.232493
924.40 0.2324192
924.50 0.2323456
924.60 0.2322721
924.70 0.2321986
924.80 0.2321251
924.90 0.2320516
925.00 0.2319782
925.10 0.2319048
925.20 0.2318314
925.30 0.2317581
925.40 0.2316848
925.50 0.2316115
925.60 0.2315382
925.70 0.2314649
925.80 0.2313917
925.90 0.2313185
926.00 0.2312453
926.10 0.2311722
926.20 0.2310991
926.30 0.231026
926.40 0.2309529
926.50 0.2308799
926.60 0.2308069
926.70 0.2307339
926.80 0.2306609
926.90 0.230588
927.00 0.2305151
927.10 0.2304422
927.20 0.2303694
927.30 0.2302965
927.40 0.2302237
927.50 0.2301509
927.60 0.2300782
927.70 0.2300055
927.80 0.2299328
927.90 0.2298601
928.00 0.2297874
928.10 0.2297148
928.20 0.2296422
928.30 0.2295697
928.40 0.2294971
928.50 0.2294246
928.60 0.2293521
928.70 0.2292796
928.80 0.2292072
928.90 0.2291348
929.00 0.2290624
929.10 0.2289923
929.20 0.2289222
929.30 0.2288522
929.40 0.2287822
929.50 0.2287123
929.60 0.2286423
929.70 0.2285724
929.80 0.2285026
929.90 0.2284327
930.00 0.2283629
930.10 0.2282931
930.20 0.2282233
930.30 0.2281535
930.40 0.2280838
930.50 0.2280141
930.60 0.2279444
930.70 0.2278747
930.80 0.2278051
930.90 0.2277355
931.00 0.2276659
931.10 0.2275963
931.20 0.2275268
931.30 0.2274573
931.40 0.2273878
931.50 0.2273183
931.60 0.2272489
931.70 0.2271795
931.80 0.2271101
931.90 0.2270407
932.00 0.2269714
932.10 0.2269021
932.20 0.2268328
932.30 0.2267635
932.40 0.2266943
932.50 0.226625
932.60 0.2265558
932.70 0.2264867
932.80 0.2264175
932.90 0.2263484
933.00 0.2262793
933.10 0.2262102
933.20 0.2261412
933.30 0.2260722
933.40 0.2260032
933.50 0.2259342
933.60 0.2258653
933.70 0.2257948
933.80 0.2257239
933.90 0.2256529
934.00 0.225582
934.10 0.2255111
934.20 0.2254403
934.30 0.2253694
934.40 0.2252986
934.50 0.2252279
934.60 0.2251571
934.70 0.2250864
934.80 0.2250157
934.90 0.224945
935.00 0.2248743
935.10 0.2248037
935.20 0.2247331
935.30 0.2246625
935.40 0.2245919
935.50 0.2245214
935.60 0.2244509
935.70 0.2243804
935.80 0.22431
935.90 0.2242395
936.00 0.2241691
936.10 0.2240988
936.20 0.2240284
936.30 0.2239581
936.40 0.2238878
936.50 0.2238175
936.60 0.2237472
936.70 0.223677
936.80 0.2236068
936.90 0.2235366
937.00 0.2234665
937.10 0.2233963
937.20 0.2233262
937.30 0.2232561
937.40 0.2231861
937.50 0.223116
937.60 0.223046
937.70 0.2229761
937.80 0.2229061
937.90 0.2228362
938.00 0.2227663
938.10 0.2226964
938.20 0.2226265
938.30 0.2225567
938.40 0.2224869
938.50 0.2224171
938.60 0.2223473
938.70 0.2222776
938.80 0.2222079
938.90 0.2221382
939.00 0.2220685
939.10 0.2219989
939.20 0.2219293
939.30 0.2218597
939.40 0.2217901
939.50 0.2217206
939.60 0.2216511
939.70 0.2215816
939.80 0.2215121
939.90 0.2214427
940.00 0.2213733
940.10 0.2213039
940.20 0.2212345
940.30 0.2211652
940.40 0.2210958
940.50 0.2210266
940.60 0.2209573
940.70 0.220888
940.80 0.2208188
940.90 0.2207496
941.00 0.2206805
941.10 0.2206113
941.20 0.2205422
941.30 0.2204731
941.40 0.220404
941.50 0.220335
941.60 0.2202659
941.70 0.2201969
941.80 0.220128
941.90 0.220059
942.00 0.2199901
942.10 0.2199212
942.20 0.2198523
942.30 0.2197834
942.40 0.2197146
942.50 0.2196458
942.60 0.219577
942.70 0.2195083
942.80 0.2194395
942.90 0.2193708
943.00 0.2193022
943.10 0.2192338
943.20 0.2191654
943.30 0.219097
943.40 0.2190286
943.50 0.2189603
943.60 0.2188919
943.70 0.2188237
943.80 0.2187554
943.90 0.2186871
944.00 0.2186189
944.10 0.2185507
944.20 0.2184825
944.30 0.2184144
944.40 0.2183463
944.50 0.2182782
944.60 0.2182101
944.70 0.218142
944.80 0.218074
944.90 0.218006
945.00 0.217938
945.10 0.21787
945.20 0.2178021
945.30 0.2177342
945.40 0.2176663
945.50 0.2175984
945.60 0.2175306
945.70 0.2174628
945.80 0.217395
945.90 0.2173272
946.00 0.2172595
946.10 0.2171917
946.20 0.217124
946.30 0.2170564
946.40 0.2169887
946.50 0.2169211
946.60 0.2168535
946.70 0.2167859
946.80 0.2167184
946.90 0.2166508
947.00 0.2165833
947.10 0.2165158
947.20 0.2164484
947.30 0.2163809
947.40 0.2163135
947.50 0.2162461
947.60 0.2161788
947.70 0.2161114
947.80 0.2160441
947.90 0.2159768
948.00 0.2159095
948.10 0.2158423
948.20 0.2157751
948.30 0.2157079
948.40 0.2156407
948.50 0.2155735
948.60 0.2155064
948.70 0.2154393
948.80 0.2153722
948.90 0.2153052
949.00 0.2152381
949.10 0.2151711
949.20 0.2151041
949.30 0.2150371
949.40 0.2149702
949.50 0.2149033
949.60 0.2148364
949.70 0.2147695
949.80 0.2147027
949.90 0.2146358
950.00 0.214569
950.10 0.2145023
950.20 0.2144355
950.30 0.2143688
950.40 0.2143021
950.50 0.2142354
950.60 0.2141687
950.70 0.2141021
950.80 0.2140355
950.90 0.2139689
951.00 0.2139023
951.10 0.2138358
951.20 0.2137692
951.30 0.2137027
951.40 0.2136363
951.50 0.2135698
951.60 0.2135034
951.70 0.213437
951.80 0.2133706
951.90 0.2133042
952.00 0.2132379
952.10 0.2131716
952.20 0.2131053
952.30 0.213039
952.40 0.2129728
952.50 0.2129068
952.60 0.2128408
952.70 0.2127748
952.80 0.2127089
952.90 0.212643
953.00 0.2125771
953.10 0.2125112
953.20 0.2124454
953.30 0.2123795
953.40 0.2123137
953.50 0.212248
953.60 0.2121822
953.70 0.2121165
953.80 0.2120508
953.90 0.2119851
954.00 0.2119194
954.10 0.2118538
954.20 0.2117881
954.30 0.2117225
954.40 0.211657
954.50 0.2115914
954.60 0.2115259
954.70 0.2114604
954.80 0.2113949
954.90 0.2113295
955.00 0.211264
955.10 0.2111986
955.20 0.2111332
955.30 0.2110678
955.40 0.2110025
955.50 0.2109372
955.60 0.2108719
955.70 0.2108066
955.80 0.2107413
955.90 0.2106761
956.00 0.2106109
956.10 0.2105457
956.20 0.2104806
956.30 0.2104154
956.40 0.2103503
956.50 0.2102852
956.60 0.2102201
956.70 0.2101551
956.80 0.21009
956.90 0.210025
957.00 0.2099601
957.10 0.2098951
957.20 0.2098302
957.30 0.2097652
957.40 0.2097003
957.50 0.2096355
957.60 0.2095706
957.70 0.2095058
957.80 0.209441
957.90 0.2093762
958.00 0.2093115
958.10 0.2092467
958.20 0.209182
958.30 0.2091173
958.40 0.2090527
958.50 0.208988
958.60 0.2089234
958.70 0.2088588
958.80 0.2087942
958.90 0.2087297
959.00 0.2086651
959.10 0.2086006
959.20 0.2085361
959.30 0.2084717
959.40 0.2084072
959.50 0.2083428
959.60 0.2082784
959.70 0.208214
959.80 0.2081497
959.90 0.2080853
960.00 0.208021
960.10 0.2079567
960.20 0.2078925
960.30 0.2078282
960.40 0.207764
960.50 0.2076998
960.60 0.2076356
960.70 0.2075715
960.80 0.2075073
960.90 0.2074432
961.00 0.2073791
961.10 0.2073151
961.20 0.207251
961.30 0.207187
961.40 0.207123
961.50 0.207059
961.60 0.2069951
961.70 0.2069312
961.80 0.2068672
961.90 0.2068034
962.00 0.2067397
962.10 0.206676
962.20 0.2066124
962.30 0.2065488
962.40 0.2064852
962.50 0.2064217
962.60 0.2063582
962.70 0.2062947
962.80 0.2062312
962.90 0.2061677
963.00 0.2061043
963.10 0.2060408
963.20 0.2059775
963.30 0.2059141
963.40 0.2058507
963.50 0.2057874
963.60 0.2057241
963.70 0.2056608
963.80 0.2055975
963.90 0.2055343
964.00 0.2054711
964.10 0.2054079
964.20 0.2053447
964.30 0.2052815
964.40 0.2052184
964.50 0.2051553
964.60 0.2050922
964.70 0.2050291
964.80 0.2049661
964.90 0.204903
965.00 0.20484
965.10 0.2047771
965.20 0.2047141
965.30 0.2046512
965.40 0.2045882
965.50 0.2045253
965.60 0.2044625
965.70 0.2043996
965.80 0.2043368
965.90 0.204274
966.00 0.2042112
966.10 0.2041484
966.20 0.2040857
966.30 0.204023
966.40 0.2039603
966.50 0.2038976
966.60 0.2038349
966.70 0.2037723
966.80 0.2037097
966.90 0.2036471
967.00 0.2035845
967.10 0.2035219
967.20 0.2034594
967.30 0.2033969
967.40 0.2033344
967.50 0.203272
967.60 0.2032095
967.70 0.2031471
967.80 0.2030847
967.90 0.2030223
968.00 0.20296
968.10 0.2028976
968.20 0.2028353
968.30 0.202773
968.40 0.2027107
968.50 0.2026485
968.60 0.2025863
968.70 0.2025241
968.80 0.2024619
968.90 0.2023997
969.00 0.2023376
969.10 0.2022754
969.20 0.2022133
969.30 0.2021513
969.40 0.2020892
969.50 0.2020272
969.60 0.2019652
969.70 0.2019032
969.80 0.2018412
969.90 0.2017792
970.00 0.2017173
970.10 0.2016554
970.20 0.2015935
970.30 0.2015316
970.40 0.2014698
970.50 0.201408
970.60 0.2013462
970.70 0.2012844
970.80 0.2012226
970.90 0.2011609
971.00 0.2010992
971.10 0.2010375
971.20 0.2009758
971.30 0.2009141
971.40 0.2008525
971.50 0.2007909
971.60 0.2007288
971.70 0.2006664
971.80 0.2006041
971.90 0.2005417
972.00 0.2004794
972.10 0.2004171
972.20 0.2003549
972.30 0.2002926
972.40 0.2002304
972.50 0.2001682
972.60 0.200106
972.70 0.2000439
972.80 0.1999817
972.90 0.1999196
973.00 0.1998575
973.10 0.1997954
973.20 0.1997334
973.30 0.1996714
973.40 0.1996093
973.50 0.1995474
973.60 0.1994854
973.70 0.1994234
973.80 0.1993615
973.90 0.1992996
974.00 0.1992377
974.10 0.1991759
974.20 0.199114
974.30 0.1990522
974.40 0.1989904
974.50 0.1989286
974.60 0.1988669
974.70 0.1988051
974.80 0.1987434
974.90 0.1986817
975.00 0.1986201
975.10 0.1985584
975.20 0.1984968
975.30 0.1984352
975.40 0.1983736
975.50 0.198312
975.60 0.1982505
975.70 0.198189
975.80 0.1981275
975.90 0.198066
976.00 0.1980045
976.10 0.1979431
976.20 0.1978817
976.30 0.1978203
976.40 0.1977589
976.50 0.1976975
976.60 0.1976362
976.70 0.1975749
976.80 0.1975136
976.90 0.1974523
977.00 0.1973911
977.10 0.1973298
977.20 0.1972686
977.30 0.1972075
977.40 0.1971463
977.50 0.1970851
977.60 0.197024
977.70 0.1969629
977.80 0.1969018
977.90 0.1968408
978.00 0.1967797
978.10 0.1967187
978.20 0.1966577
978.30 0.1965967
978.40 0.1965358
978.50 0.1964748
978.60 0.1964139
978.70 0.196353
978.80 0.1962921
978.90 0.1962313
979.00 0.1961705
979.10 0.1961096
979.20 0.1960489
979.30 0.1959881
979.40 0.1959273
979.50 0.1958666
979.60 0.1958059
979.70 0.1957452
979.80 0.1956845
979.90 0.1956239
980.00 0.1955633
980.10 0.1955027
980.20 0.1954421
980.30 0.1953815
980.40 0.195321
980.50 0.1952604
980.60 0.1951999
980.70 0.1951395
980.80 0.195079
980.90 0.1950186
981.00 0.1949581
981.10 0.1948977
981.20 0.1948374
981.30 0.1947776
981.40 0.1947184
981.50 0.1946593
981.60 0.1946002
981.70 0.1945411
981.80 0.194482
981.90 0.1944229
982.00 0.1943639
982.10 0.1943049
982.20 0.1942459
982.30 0.1941869
982.40 0.194128
982.50 0.194069
982.60 0.1940101
982.70 0.1939512
982.80 0.1938923
982.90 0.1938335
983.00 0.1937746
983.10 0.1937158
983.20 0.193657
983.30 0.1935982
983.40 0.1935395
983.50 0.1934807
983.60 0.193422
983.70 0.1933633
983.80 0.1933046
983.90 0.193246
984.00 0.1931873
984.10 0.1931287
984.20 0.1930701
984.30 0.1930115
984.40 0.192953
984.50 0.1928944
984.60 0.1928359
984.70 0.1927774
984.80 0.1927189
984.90 0.1926605
985.00 0.192602
985.10 0.1925436
985.20 0.1924852
985.30 0.1924268
985.40 0.1923685
985.50 0.1923101
985.60 0.1922518
985.70 0.1921935
985.80 0.1921352
985.90 0.192077
986.00 0.1920187
986.10 0.1919605
986.20 0.1919023
986.30 0.1918441
986.40 0.1917859
986.50 0.1917278
986.60 0.1916697
986.70 0.1916116
986.80 0.1915535
986.90 0.1914954
987.00 0.1914374
987.10 0.1913793
987.20 0.1913213
987.30 0.1912633
987.40 0.1912054
987.50 0.1911474
987.60 0.1910895
987.70 0.1910316
987.80 0.1909737
987.90 0.1909158
988.00 0.190858
988.10 0.1908001
988.20 0.1907423
988.30 0.1906845
988.40 0.1906267
988.50 0.190569
988.60 0.1905113
988.70 0.1904535
988.80 0.1903958
988.90 0.1903382
989.00 0.1902805
989.10 0.1902229
989.20 0.1901653
989.30 0.1901077
989.40 0.1900501
989.50 0.1899925
989.60 0.189935
989.70 0.1898774
989.80 0.1898199
989.90 0.1897625
990.00 0.189705
990.10 0.1896476
990.20 0.1895901
990.30 0.1895327
990.40 0.1894753
990.50 0.189418
990.60 0.1893606
990.70 0.1893033
990.80 0.189246
990.90 0.1891887
991.00 0.1891314
991.10 0.1890742
991.20 0.1890172
991.30 0.1889602
991.40 0.1889032
991.50 0.1888462
991.60 0.1887892
991.70 0.1887323
991.80 0.1886753
991.90 0.1886184
992.00 0.1885615
992.10 0.1885047
992.20 0.1884478
992.30 0.188391
992.40 0.1883342
992.50 0.1882774
992.60 0.1882206
992.70 0.1881638
992.80 0.1881071
992.90 0.1880504
993.00 0.1879937
993.10 0.187937
993.20 0.1878803
993.30 0.1878237
993.40 0.187767
993.50 0.1877104
993.60 0.1876539
993.70 0.1875973
993.80 0.1875407
993.90 0.1874842
994.00 0.1874277
994.10 0.1873712
994.20 0.1873147
994.30 0.1872583
994.40 0.1872018
994.50 0.1871454
994.60 0.187089
994.70 0.1870326
994.80 0.1869763
994.90 0.1869199
995.00 0.1868636
995.10 0.1868073
995.20 0.186751
995.30 0.1866948
995.40 0.1866385
995.50 0.1865823
995.60 0.1865261
995.70 0.1864699
995.80 0.1864137
995.90 0.1863576
996.00 0.1863014
996.10 0.1862453
996.20 0.1861892
996.30 0.1861331
996.40 0.1860771
996.50 0.1860211
996.60 0.185965
996.70 0.185909
996.80 0.1858531
996.90 0.1857971
997.00 0.1857412
997.10 0.1856852
997.20 0.1856293
997.30 0.1855734
997.40 0.1855176
997.50 0.1854617
997.60 0.1854059
997.70 0.1853501
997.80 0.1852943
997.90 0.1852385
998.00 0.1851828
998.10 0.185127
998.20 0.1850713
998.30 0.1850156
998.40 0.1849599
998.50 0.1849043
998.60 0.1848486
998.70 0.184793
998.80 0.1847374
998.90 0.1846818
999.00 0.1846262
999.10 0.1845707
999.20 0.1845151
999.30 0.1844596
999.40 0.1844041
999.50 0.1843486
999.60 0.1842932
999.70 0.1842377
999.80 0.1841823
999.90 0.1841269
1000.00 0.1840715
1000.10 0.1840162
1000.20 0.1839608
1000.30 0.1839055
1000.40 0.1838502
1000.50 0.1837949
1000.60 0.1837396
1000.70 0.1836844
1000.80 0.1836291
1000.90 0.1835739
1001.00 0.1835187
1001.10 0.1834637
1001.20 0.1834088
1001.30 0.1833538
1001.40 0.1832988
1001.50 0.1832439
1001.60 0.183189
1001.70 0.1831341
1001.80 0.1830792
1001.90 0.1830244
1002.00 0.1829696
1002.10 0.1829147
1002.20 0.1828599
1002.30 0.1828052
1002.40 0.1827504
1002.50 0.1826956
1002.60 0.1826409
1002.70 0.1825862
1002.80 0.1825315
1002.90 0.1824768
1003.00 0.1824222
1003.10 0.1823676
1003.20 0.1823129
1003.30 0.1822583
1003.40 0.1822038
1003.50 0.1821492
1003.60 0.1820946
1003.70 0.1820401
1003.80 0.1819856
1003.90 0.1819311
1004.00 0.1818766
1004.10 0.1818222
1004.20 0.1817678
1004.30 0.1817133
1004.40 0.1816589
1004.50 0.1816045
1004.60 0.1815502
1004.70 0.1814958
1004.80 0.1814415
1004.90 0.1813872
1005.00 0.1813329
1005.10 0.1812786
1005.20 0.1812244
1005.30 0.1811701
1005.40 0.1811159
1005.50 0.1810617
1005.60 0.1810075
1005.70 0.1809534
1005.80 0.1808992
1005.90 0.1808451
1006.00 0.180791
1006.10 0.1807369
1006.20 0.1806828
1006.30 0.1806287
1006.40 0.1805747
1006.50 0.1805207
1006.60 0.1804666
1006.70 0.1804127
1006.80 0.1803587
1006.90 0.1803047
1007.00 0.1802508
1007.10 0.1801969
1007.20 0.180143
1007.30 0.1800891
1007.40 0.1800352
1007.50 0.1799814
1007.60 0.1799275
1007.70 0.1798737
1007.80 0.1798199
1007.90 0.1797662
1008.00 0.1797124
1008.10 0.1796587
1008.20 0.1796049
1008.30 0.1795512
1008.40 0.1794975
1008.50 0.1794439
1008.60 0.1793902
1008.70 0.1793366
1008.80 0.179283
1008.90 0.1792294
1009.00 0.1791758
1009.10 0.1791222
1009.20 0.1790687
1009.30 0.1790151
1009.40 0.1789616
1009.50 0.1789081
1009.60 0.1788547
1009.70 0.1788012
1009.80 0.1787478
1009.90 0.1786943
1010.00 0.1786409
1010.10 0.1785876
1010.20 0.1785342
1010.30 0.1784808
1010.40 0.1784275
1010.50 0.1783742
1010.60 0.1783209
1010.70 0.1782676
1010.80 0.1782143
1010.90 0.1781611
1011.00 0.1781076
1011.10 0.1780528
1011.20 0.177998
1011.30 0.1779432
1011.40 0.1778885
1011.50 0.1778337
1011.60 0.177779
1011.70 0.1777243
1011.80 0.1776696
1011.90 0.177615
1012.00 0.1775603
1012.10 0.1775057
1012.20 0.1774511
1012.30 0.1773965
1012.40 0.1773419
1012.50 0.1772874
1012.60 0.1772328
1012.70 0.1771783
1012.80 0.1771238
1012.90 0.1770693
1013.00 0.1770149
1013.10 0.1769604
1013.20 0.176906
1013.30 0.1768516
1013.40 0.1767972
1013.50 0.1767428
1013.60 0.1766884
1013.70 0.1766341
1013.80 0.1765798
1013.90 0.1765255
1014.00 0.1764712
1014.10 0.1764169
1014.20 0.1763627
1014.30 0.1763084
1014.40 0.1762542
1014.50 0.1762
1014.60 0.1761459
1014.70 0.1760917
1014.80 0.1760376
1014.90 0.1759834
1015.00 0.1759293
1015.10 0.1758752
1015.20 0.1758212
1015.30 0.1757671
1015.40 0.1757131
1015.50 0.1756591
1015.60 0.1756051
1015.70 0.1755511
1015.80 0.1754971
1015.90 0.1754432
1016.00 0.1753893
1016.10 0.1753364
1016.20 0.1752843
1016.30 0.1752322
1016.40 0.1751801
1016.50 0.175128
1016.60 0.175076
1016.70 0.1750239
1016.80 0.1749719
1016.90 0.1749199
1017.00 0.1748679
1017.10 0.1748159
1017.20 0.174764
1017.30 0.174712
1017.40 0.1746601
1017.50 0.1746082
1017.60 0.1745563
1017.70 0.1745044
1017.80 0.1744526
1017.90 0.1744007
1018.00 0.1743489
1018.10 0.1742971
1018.20 0.1742453
1018.30 0.1741936
1018.40 0.1741418
1018.50 0.1740901
1018.60 0.1740383
1018.70 0.1739866
1018.80 0.1739349
1018.90 0.1738833
1019.00 0.1738316
1019.10 0.17378
1019.20 0.1737284
1019.30 0.1736768
1019.40 0.1736252
1019.50 0.1735736
1019.60 0.1735221
1019.70 0.1734705
1019.80 0.173419
1019.90 0.1733675
1020.00 0.173316
1020.10 0.1732646
1020.20 0.1732131
1020.30 0.1731617
1020.40 0.1731103
1020.50 0.1730589
1020.60 0.1730075
1020.70 0.1729561
1020.80 0.1729048
1020.90 0.1728534
1021.00 0.1728021
1021.10 0.1727508
1021.20 0.1726997
1021.30 0.1726486
1021.40 0.1725976
1021.50 0.1725465
1021.60 0.1724955
1021.70 0.1724444
1021.80 0.1723934
1021.90 0.1723424
1022.00 0.1722915
1022.10 0.1722405
1022.20 0.1721896
1022.30 0.1721387
1022.40 0.1720877
1022.50 0.1720369
1022.60 0.171986
1022.70 0.1719351
1022.80 0.1718843
1022.90 0.1718335
1023.00 0.1717827
1023.10 0.1717319
1023.20 0.1716811
1023.30 0.1716303
1023.40 0.1715796
1023.50 0.1715289
1023.60 0.1714782
1023.70 0.1714275
1023.80 0.1713768
1023.90 0.1713261
1024.00 0.1712755
1024.10 0.1712249
1024.20 0.1711742
1024.30 0.1711237
1024.40 0.1710731
1024.50 0.1710225
1024.60 0.170972
1024.70 0.1709215
1024.80 0.1708709
1024.90 0.1708204
1025.00 0.17077
1025.10 0.1707195
1025.20 0.1706691
1025.30 0.1706186
1025.40 0.1705682
1025.50 0.1705178
1025.60 0.1704675
1025.70 0.1704171
1025.80 0.1703667
1025.90 0.1703164
1026.00 0.1702661
1026.10 0.1702158
1026.20 0.1701655
1026.30 0.1701153
1026.40 0.170065
1026.50 0.1700148
1026.60 0.1699645
1026.70 0.1699143
1026.80 0.1698642
1026.90 0.169814
1027.00 0.1697638
1027.10 0.1697137
1027.20 0.1696636
1027.30 0.1696135
1027.40 0.1695634
1027.50 0.1695133
1027.60 0.1694633
1027.70 0.1694132
1027.80 0.1693632
1027.90 0.1693132
1028.00 0.1692632
1028.10 0.1692132
1028.20 0.1691633
1028.30 0.1691133
1028.40 0.1690634
1028.50 0.1690135
1028.60 0.1689636
1028.70 0.1689137
1028.80 0.1688639
1028.90 0.168814
1029.00 0.1687642
1029.10 0.1687144
1029.20 0.1686646
1029.30 0.1686148
1029.40 0.168565
1029.50 0.1685153
1029.60 0.1684656
1029.70 0.1684158
1029.80 0.1683661
1029.90 0.1683165
1030.00 0.1682668
1030.10 0.1682171
1030.20 0.1681675
1030.30 0.1681179
1030.40 0.1680683
1030.50 0.1680187
1030.60 0.1679691
1030.70 0.1679196
1030.80 0.16787
1030.90 0.1678205
1031.00 0.167771
1031.10 0.1677215
1031.20 0.1676721
1031.30 0.1676226
1031.40 0.1675733
1031.50 0.1675241
1031.60 0.1674748
1031.70 0.1674256
1031.80 0.1673764
1031.90 0.1673272
1032.00 0.167278
1032.10 0.1672289
1032.20 0.1671797
1032.30 0.1671306
1032.40 0.1670815
1032.50 0.1670324
1032.60 0.1669833
1032.70 0.1669342
1032.80 0.1668852
1032.90 0.1668362
1033.00 0.1667872
1033.10 0.1667382
1033.20 0.1666892
1033.30 0.1666402
1033.40 0.1665912
1033.50 0.1665423
1033.60 0.1664934
1033.70 0.1664445
1033.80 0.1663956
1033.90 0.1663467
1034.00 0.1662979
1034.10 0.166249
1034.20 0.1662002
1034.30 0.1661514
1034.40 0.1661026
1034.50 0.1660538
1034.60 0.166005
1034.70 0.1659563
1034.80 0.1659076
1034.90 0.1658588
1035.00 0.1658101
1035.10 0.1657615
1035.20 0.1657128
1035.30 0.1656641
1035.40 0.1656155
1035.50 0.1655669
1035.60 0.1655183
1035.70 0.1654697
1035.80 0.1654211
1035.90 0.1653725
1036.00 0.165324
1036.10 0.1652755
1036.20 0.165227
1036.30 0.1651785
1036.40 0.16513
1036.50 0.1650815
1036.60 0.1650331
1036.70 0.1649846
1036.80 0.1649362
1036.90 0.1648878
1037.00 0.1648394
1037.10 0.164791
1037.20 0.1647427
1037.30 0.1646943
1037.40 0.164646
1037.50 0.1645977
1037.60 0.1645494
1037.70 0.1645011
1037.80 0.1644528
1037.90 0.1644046
1038.00 0.1643564
1038.10 0.1643081
1038.20 0.1642599
1038.30 0.1642117
1038.40 0.1641636
1038.50 0.1641154
1038.60 0.1640673
1038.70 0.1640192
1038.80 0.163971
1038.90 0.1639229
1039.00 0.1638749
1039.10 0.1638268
1039.20 0.1637788
1039.30 0.1637307
1039.40 0.1636827
1039.50 0.1636347
1039.60 0.1635867
1039.70 0.1635387
1039.80 0.1634908
1039.90 0.1634428
1040.00 0.1633949
1040.10 0.163347
1040.20 0.1632991
1040.30 0.1632512
1040.40 0.1632034
1040.50 0.1631555
1040.60 0.1631077
1040.70 0.1630599
1040.80 0.1630121
1040.90 0.1629643
1041.00 0.1629165
1041.10 0.1628688
1041.20 0.162821
1041.30 0.1627733
1041.40 0.1627256
1041.50 0.1626779
1041.60 0.1626302
1041.70 0.1625813
1041.80 0.1625322
1041.90 0.1624831
1042.00 0.162434
1042.10 0.162385
1042.20 0.1623359
1042.30 0.1622869
1042.40 0.1622379
1042.50 0.1621889
1042.60 0.1621399
1042.70 0.1620909
1042.80 0.162042
1042.90 0.161993
1043.00 0.1619441
1043.10 0.1618952
1043.20 0.1618463
1043.30 0.1617974
1043.40 0.1617486
1043.50 0.1616997
1043.60 0.1616509
1043.70 0.1616021
1043.80 0.1615533
1043.90 0.1615045
1044.00 0.1614557
1044.10 0.161407
1044.20 0.1613583
1044.30 0.1613095
1044.40 0.1612608
1044.50 0.1612122
1044.60 0.1611635
1044.70 0.1611148
1044.80 0.1610662
1044.90 0.1610176
1045.00 0.160969
1045.10 0.1609204
1045.20 0.1608718
1045.30 0.1608232
1045.40 0.1607747
1045.50 0.1607262
1045.60 0.1606776
1045.70 0.1606291
1045.80 0.1605807
1045.90 0.1605322
1046.00 0.1604837
1046.10 0.1604353
1046.20 0.1603869
1046.30 0.1603385
1046.40 0.1602901
1046.50 0.1602417
1046.60 0.1601934
1046.70 0.160145
1046.80 0.1600967
1046.90 0.1600496
1047.00 0.1600029
1047.10 0.1599562
1047.20 0.1599096
1047.30 0.1598629
1047.40 0.1598163
1047.50 0.1597697
1047.60 0.1597231
1047.70 0.1596765
1047.80 0.15963
1047.90 0.1595834
1048.00 0.1595369
1048.10 0.1594904
1048.20 0.1594439
1048.30 0.1593974
1048.40 0.1593509
1048.50 0.1593044
1048.60 0.159258
1048.70 0.1592115
1048.80 0.1591651
1048.90 0.1591187
1049.00 0.1590723
1049.10 0.159026
1049.20 0.1589796
1049.30 0.1589333
1049.40 0.1588869
1049.50 0.1588406
1049.60 0.1587943
1049.70 0.158748
1049.80 0.1587018
1049.90 0.1586555
1050.00 0.1586093
1050.10 0.158563
1050.20 0.1585168
1050.30 0.1584706
1050.40 0.1584245
1050.50 0.1583783
1050.60 0.1583321
1050.70 0.158286
1050.80 0.1582399
1050.90 0.1581938
1051.00 0.1581477
1051.10 0.1581016
1051.20 0.1580555
1051.30 0.1580095
1051.40 0.1579635
1051.50 0.1579174
1051.60 0.1578714
1051.70 0.1578254
1051.80 0.1577795
1051.90 0.1577335
1052.00 0.1576876
1052.10 0.1576417
1052.20 0.157596
1052.30 0.1575502
1052.40 0.1575045
1052.50 0.1574588
1052.60 0.1574131
1052.70 0.1573674
1052.80 0.1573217
1052.90 0.1572761
1053.00 0.1572304
1053.10 0.1571848
1053.20 0.1571392
1053.30 0.1570936
1053.40 0.157048
1053.50 0.1570024
1053.60 0.1569569
1053.70 0.1569113
1053.80 0.1568658
1053.90 0.1568203
1054.00 0.1567748
1054.10 0.1567293
1054.20 0.1566839
1054.30 0.1566384
1054.40 0.156593
1054.50 0.1565475
1054.60 0.1565021
1054.70 0.1564567
1054.80 0.1564114
1054.90 0.156366
1055.00 0.1563206
1055.10 0.1562753
1055.20 0.15623
1055.30 0.1561847
1055.40 0.1561394
1055.50 0.1560941
1055.60 0.1560488
1055.70 0.1560036
1055.80 0.1559583
1055.90 0.1559131
1056.00 0.1558679
1056.10 0.1558227
1056.20 0.1557775
1056.30 0.1557324
1056.40 0.1556872
1056.50 0.1556421
1056.60 0.1555969
1056.70 0.1555518
1056.80 0.1555067
1056.90 0.1554617
1057.00 0.1554166
1057.10 0.1553715
1057.20 0.1553265
1057.30 0.1552815
1057.40 0.1552365
1057.50 0.1551915
1057.60 0.1551465
1057.70 0.1551015
1057.80 0.1550566
1057.90 0.1550116
1058.00 0.1549667
1058.10 0.1549218
1058.20 0.1548769
1058.30 0.154832
1058.40 0.1547872
1058.50 0.1547423
1058.60 0.1546975
1058.70 0.1546526
1058.80 0.1546078
1058.90 0.154563
1059.00 0.1545183
1059.10 0.1544735
1059.20 0.1544287
1059.30 0.154384
1059.40 0.1543393
1059.50 0.1542946
1059.60 0.1542499
1059.70 0.1542052
1059.80 0.1541605
1059.90 0.1541159
1060.00 0.1540712
1060.10 0.1540266
1060.20 0.153982
1060.30 0.1539374
1060.40 0.1538928
1060.50 0.1538482
1060.60 0.1538037
1060.70 0.1537591
1060.80 0.1537146
1060.90 0.1536701
1061.00 0.1536256
1061.10 0.1535811
1061.20 0.1535366
1061.30 0.1534922
1061.40 0.1534477
1061.50 0.1534033
1061.60 0.1533589
1061.70 0.1533145
1061.80 0.1532701
1061.90 0.1532257
1062.00 0.1531814
1062.10 0.153137
1062.20 0.1530927
1062.30 0.1530484
1062.40 0.1530041
1062.50 0.1529598
1062.60 0.1529156
1062.70 0.1528715
1062.80 0.1528274
1062.90 0.1527833
1063.00 0.1527392
1063.10 0.1526952
1063.20 0.1526511
1063.30 0.1526071
1063.40 0.1525631
1063.50 0.1525191
1063.60 0.1524751
1063.70 0.1524311
1063.80 0.1523872
1063.90 0.1523432
1064.00 0.1522993
1064.10 0.1522554
1064.20 0.1522115
1064.30 0.1521676
1064.40 0.1521237
1064.50 0.1520799
1064.60 0.152036
1064.70 0.1519922
1064.80 0.1519484
1064.90 0.1519046
1065.00 0.1518608
1065.10 0.151817
1065.20 0.1517732
1065.30 0.1517295
1065.40 0.1516857
1065.50 0.151642
1065.60 0.1515983
1065.70 0.1515546
1065.80 0.1515109
1065.90 0.1514673
1066.00 0.1514236
1066.10 0.15138
1066.20 0.1513364
1066.30 0.1512927
1066.40 0.1512491
1066.50 0.1512056
1066.60 0.151162
1066.70 0.1511184
1066.80 0.1510749
1066.90 0.1510314
1067.00 0.1509878
1067.10 0.1509443
1067.20 0.1509009
1067.30 0.1508574
1067.40 0.1508139
1067.50 0.1507705
1067.60 0.150727
1067.70 0.1506836
1067.80 0.1506402
1067.90 0.1505963
1068.00 0.1505514
1068.10 0.1505065
1068.20 0.1504616
1068.30 0.1504168
1068.40 0.1503719
1068.50 0.1503271
1068.60 0.1502823
1068.70 0.1502375
1068.80 0.1501927
1068.90 0.1501479
1069.00 0.1501032
1069.10 0.1500584
1069.20 0.1500137
1069.30 0.149969
1069.40 0.1499243
1069.50 0.1498796
1069.60 0.1498349
1069.70 0.1497903
1069.80 0.1497456
1069.90 0.149701
1070.00 0.1496564
1070.10 0.1496117
1070.20 0.1495672
1070.30 0.1495226
1070.40 0.149478
1070.50 0.1494335
1070.60 0.1493889
1070.70 0.1493444
1070.80 0.1492999
1070.90 0.1492554
1071.00 0.1492109
1071.10 0.1491665
1071.20 0.149122
1071.30 0.1490776
1071.40 0.1490332
1071.50 0.1489888
1071.60 0.1489444
1071.70 0.1489
1071.80 0.1488556
1071.90 0.1488113
1072.00 0.1487669
1072.10 0.1487226
1072.20 0.1486783
1072.30 0.148634
1072.40 0.1485897
1072.50 0.1485454
1072.60 0.1485012
1072.70 0.1484569
1072.80 0.1484127
1072.90 0.1483685
1073.00 0.1483243
1073.10 0.1482801
1073.20 0.1482363
1073.30 0.1481938
1073.40 0.1481513
1073.50 0.1481088
1073.60 0.1480664
1073.70 0.1480239
1073.80 0.1479815
1073.90 0.1479391
1074.00 0.1478966
1074.10 0.1478542
1074.20 0.1478119
1074.30 0.1477695
1074.40 0.1477271
1074.50 0.1476848
1074.60 0.1476425
1074.70 0.1476001
1074.80 0.1475578
1074.90 0.1475155
1075.00 0.1474733
1075.10 0.147431
1075.20 0.1473888
1075.30 0.1473465
1075.40 0.1473043
1075.50 0.1472621
1075.60 0.1472199
1075.70 0.1471777
1075.80 0.1471355
1075.90 0.1470934
1076.00 0.1470512
1076.10 0.1470091
1076.20 0.146967
1076.30 0.1469248
1076.40 0.1468828
1076.50 0.1468407
1076.60 0.1467986
1076.70 0.1467566
1076.80 0.1467145
1076.90 0.1466725
1077.00 0.1466305
1077.10 0.1465885
1077.20 0.1465465
1077.30 0.1465045
1077.40 0.1464625
1077.50 0.1464206
1077.60 0.1463786
1077.70 0.1463367
1077.80 0.1462948
1077.90 0.1462529
1078.00 0.146211
1078.10 0.1461692
1078.20 0.1461273
1078.30 0.1460854
1078.40 0.1460436
1078.50 0.1460018
1078.60 0.14596
1078.70 0.1459182
1078.80 0.1458764
1078.90 0.1458346
1079.00 0.1457929
1079.10 0.1457511
1079.20 0.1457094
1079.30 0.1456677
1079.40 0.145626
1079.50 0.1455843
1079.60 0.1455426
1079.70 0.145501
1079.80 0.1454593
1079.90 0.1454177
1080.00 0.1453761
1080.10 0.1453344
1080.20 0.1452928
1080.30 0.1452513
1080.40 0.1452097
1080.50 0.1451681
1080.60 0.1451266
1080.70 0.145085
1080.80 0.1450435
1080.90 0.145002
1081.00 0.1449605
1081.10 0.144919
1081.20 0.1448776
1081.30 0.1448361
1081.40 0.1447946
1081.50 0.1447532
1081.60 0.1447118
1081.70 0.1446704
1081.80 0.144629
1081.90 0.1445876
1082.00 0.1445462
1082.10 0.1445049
1082.20 0.1444635
1082.30 0.1444222
1082.40 0.1443809
1082.50 0.1443396
1082.60 0.1442983
1082.70 0.144257
1082.80 0.1442158
1082.90 0.1441745
1083.00 0.1441333
1083.10 0.144092
1083.20 0.1440508
1083.30 0.1440096
1083.40 0.1439684
1083.50 0.1439273
1083.60 0.1438861
1083.70 0.1438449
1083.80 0.1438038
1083.90 0.1437627
1084.00 0.1437217
1084.10 0.1436807
1084.20 0.1436398
1084.30 0.1435989
1084.40 0.143558
1084.50 0.1435171
1084.60 0.1434762
1084.70 0.1434353
1084.80 0.1433944
1084.90 0.1433536
1085.00 0.1433127
1085.10 0.1432719
1085.20 0.1432311
1085.30 0.1431903
1085.40 0.1431495
1085.50 0.1431087
1085.60 0.1430679
1085.70 0.1430272
1085.80 0.1429864
1085.90 0.1429457
1086.00 0.142905
1086.10 0.1428643
1086.20 0.1428236
1086.30 0.1427829
1086.40 0.1427423
1086.50 0.1427016
1086.60 0.142661
1086.70 0.1426204
1086.80 0.1425797
1086.90 0.1425391
1087.00 0.1424985
1087.10 0.142458
1087.20 0.1424174
1087.30 0.1423769
1087.40 0.1423363
1087.50 0.1422958
1087.60 0.1422553
1087.70 0.1422148
1087.80 0.1421743
1087.90 0.1421338
1088.00 0.1420933
1088.10 0.1420529
1088.20 0.1420125
1088.30 0.141972
1088.40 0.1419316
1088.50 0.1418912
1088.60 0.1418508
1088.70 0.1418104
1088.80 0.1417701
1088.90 0.1417297
1089.00 0.1416894
1089.10 0.1416491
1089.20 0.1416087
1089.30 0.1415684
1089.40 0.1415281
1089.50 0.1414879
1089.60 0.1414476
1089.70 0.1414073
1089.80 0.1413671
1089.90 0.1413269
1090.00 0.1412867
1090.10 0.1412464
1090.20 0.1412063
1090.30 0.1411661
1090.40 0.1411259
1090.50 0.1410857
1090.60 0.1410456
1090.70 0.1410055
1090.80 0.1409653
1090.90 0.1409252
1091.00 0.1408851
1091.10 0.1408451
1091.20 0.140805
1091.30 0.1407649
1091.40 0.1407249
1091.50 0.1406849
1091.60 0.1406448
1091.70 0.1406048
1091.80 0.1405648
1091.90 0.1405248
1092.00 0.1404849
1092.10 0.1404449
1092.20 0.140405
1092.30 0.140365
1092.40 0.1403251
1092.50 0.1402852
1092.60 0.1402453
1092.70 0.1402054
1092.80 0.1401655
1092.90 0.1401257
1093.00 0.1400858
1093.10 0.140046
1093.20 0.1400062
1093.30 0.1399664
1093.40 0.1399266
1093.50 0.1398868
1093.60 0.139847
1093.70 0.1398072
1093.80 0.1397675
1093.90 0.1397277
1094.00 0.139688
1094.10 0.1396483
1094.20 0.1396086
1094.30 0.1395689
1094.40 0.1395292
1094.50 0.1394896
1094.60 0.1394499
1094.70 0.1394103
1094.80 0.1393707
1094.90 0.1393312
1095.00 0.1392918
1095.10 0.1392523
1095.20 0.1392129
1095.30 0.1391734
1095.40 0.139134
1095.50 0.1390946
1095.60 0.1390552
1095.70 0.1390159
1095.80 0.1389765
1095.90 0.1389371
1096.00 0.1388978
1096.10 0.1388585
1096.20 0.1388192
1096.30 0.1387798
1096.40 0.1387405
1096.50 0.1387013
1096.60 0.138662
1096.70 0.1386227
1096.80 0.1385835
1096.90 0.1385443
1097.00 0.138505
1097.10 0.1384658
1097.20 0.1384266
1097.30 0.1383874
1097.40 0.1383483
1097.50 0.1383091
1097.60 0.13827
1097.70 0.1382308
1097.80 0.1381917
1097.90 0.1381526
1098.00 0.1381135
1098.10 0.1380744
1098.20 0.1380353
1098.30 0.1379962
1098.40 0.1379572
1098.50 0.1379181
1098.60 0.1378791
1098.70 0.1378401
1098.80 0.1378011
1098.90 0.1377621
1099.00 0.1377231
1099.10 0.1376841
1099.20 0.1376452
1099.30 0.1376062
1099.40 0.1375673
1099.50 0.1375284
1099.60 0.1374895
1099.70 0.1374506
1099.80 0.1374117
1099.90 0.1373728
1100.00 0.1373339
1100.10 0.1372951
1100.20 0.1372562
1100.30 0.1372174
1100.40 0.1371786
1100.50 0.1371398
1100.60 0.137101
1100.70 0.1370622
1100.80 0.1370234
1100.90 0.1369847
1101.00 0.1369459
1101.10 0.1369072
1101.20 0.1368685
1101.30 0.1368298
1101.40 0.1367911
1101.50 0.1367524
1101.60 0.1367137
1101.70 0.136675
1101.80 0.1366364
1101.90 0.1365978
1102.00 0.1365591
1102.10 0.1365205
1102.20 0.1364819
1102.30 0.1364433
1102.40 0.1364047
1102.50 0.1363662
1102.60 0.1363276
1102.70 0.1362891
1102.80 0.1362505
1102.90 0.136212
1103.00 0.1361735
1103.10 0.136135
1103.20 0.1360965
1103.30 0.136058
1103.40 0.1360196
1103.50 0.1359811
1103.60 0.1359427
1103.70 0.1359042
1103.80 0.1358658
1103.90 0.1358274
1104.00 0.135789
1104.10 0.1357507
1104.20 0.1357123
1104.30 0.1356739
1104.40 0.1356356
1104.50 0.1355972
1104.60 0.1355589
1104.70 0.1355206
1104.80 0.1354823
1104.90 0.135444
1105.00 0.1354057
1105.10 0.1353675
1105.20 0.1353292
1105.30 0.135291
1105.40 0.1352528
1105.50 0.1352145
1105.60 0.1351763
1105.70 0.1351381
1105.80 0.1350994
1105.90 0.1350607
1106.00 0.135022
1106.10 0.1349833
1106.20 0.1349446
1106.30 0.1349059
1106.40 0.1348673
1106.50 0.1348286
1106.60 0.13479
1106.70 0.1347514
1106.80 0.1347128
1106.90 0.1346742
1107.00 0.1346356
1107.10 0.134597
1107.20 0.1345584
1107.30 0.1345199
1107.40 0.1344813
1107.50 0.1344428
1107.60 0.1344043
1107.70 0.1343658
1107.80 0.1343273
1107.90 0.1342888
1108.00 0.1342503
1108.10 0.1342119
1108.20 0.1341734
1108.30 0.134135
1108.40 0.1340966
1108.50 0.1340582
1108.60 0.1340198
1108.70 0.1339814
1108.80 0.133943
1108.90 0.1339046
1109.00 0.1338663
1109.10 0.1338279
1109.20 0.1337896
1109.30 0.1337513
1109.40 0.133713
1109.50 0.1336747
1109.60 0.1336364
1109.70 0.1335981
1109.80 0.1335599
1109.90 0.1335216
1110.00 0.1334834
1110.10 0.1334452
1110.20 0.1334069
1110.30 0.1333687
1110.40 0.1333305
1110.50 0.1332924
1110.60 0.1332542
1110.70 0.133216
1110.80 0.1331779
1110.90 0.1331398
1111.00 0.1331016
1111.10 0.1330635
1111.20 0.1330254
1111.30 0.1329874
1111.40 0.1329493
1111.50 0.1329112
1111.60 0.1328732
1111.70 0.1328351
1111.80 0.1327971
1111.90 0.1327591
1112.00 0.1327211
1112.10 0.1326831
1112.20 0.1326451
1112.30 0.1326071
1112.40 0.1325692
1112.50 0.1325312
1112.60 0.1324933
1112.70 0.1324554
1112.80 0.1324174
1112.90 0.1323795
1113.00 0.1323416
1113.10 0.1323038
1113.20 0.1322659
1113.30 0.132228
1113.40 0.1321902
1113.50 0.1321524
1113.60 0.1321145
1113.70 0.1320767
1113.80 0.1320389
1113.90 0.1320011
1114.00 0.1319634
1114.10 0.1319256
1114.20 0.1318879
1114.30 0.1318501
1114.40 0.1318124
1114.50 0.1317747
1114.60 0.131737
1114.70 0.1316993
1114.80 0.1316616
1114.90 0.1316239
1115.00 0.1315862
1115.10 0.1315486
1115.20 0.1315109
1115.30 0.1314733
1115.40 0.1314357
1115.50 0.1313981
1115.60 0.1313605
1115.70 0.1313229
1115.80 0.1312854
1115.90 0.1312478
1116.00 0.1312102
1116.10 0.1311727
1116.20 0.1311352
1116.30 0.1310977
1116.40 0.1310602
1116.50 0.1310227
1116.60 0.1309852
1116.70 0.1309477
1116.80 0.1309106
1116.90 0.130874
1117.00 0.1308373
1117.10 0.1308007
1117.20 0.1307641
1117.30 0.1307275
1117.40 0.1306909
1117.50 0.1306543
1117.60 0.1306178
1117.70 0.1305812
1117.80 0.1305447
1117.90 0.1305081
1118.00 0.1304716
1118.10 0.1304351
1118.20 0.1303986
1118.30 0.1303621
1118.40 0.1303256
1118.50 0.1302891
1118.60 0.1302527
1118.70 0.1302162
1118.80 0.1301798
1118.90 0.1301434
1119.00 0.1301069
1119.10 0.1300705
1119.20 0.1300341
1119.30 0.1299978
1119.40 0.1299614
1119.50 0.129925
1119.60 0.1298887
1119.70 0.1298523
1119.80 0.129816
1119.90 0.1297797
1120.00 0.1297434
1120.10 0.1297071
1120.20 0.1296708
1120.30 0.1296345
1120.40 0.1295983
1120.50 0.129562
1120.60 0.1295258
1120.70 0.1294895
1120.80 0.1294533
1120.90 0.1294171
1121.00 0.1293809
1121.10 0.1293447
1121.20 0.1293085
1121.30 0.1292724
1121.40 0.1292362
1121.50 0.1292001
1121.60 0.1291639
1121.70 0.1291278
1121.80 0.1290917
1121.90 0.1290556
1122.00 0.1290195
1122.10 0.1289834
1122.20 0.1289474
1122.30 0.1289113
1122.40 0.1288753
1122.50 0.1288392
1122.60 0.1288032
1122.70 0.1287672
1122.80 0.1287312
1122.90 0.1286952
1123.00 0.1286592
1123.10 0.1286232
1123.20 0.1285873
1123.30 0.1285513
1123.40 0.1285154
1123.50 0.1284794
1123.60 0.1284435
1123.70 0.1284076
1123.80 0.1283717
1123.90 0.1283358
1124.00 0.1283
1124.10 0.1282641
1124.20 0.1282282
1124.30 0.1281924
1124.40 0.1281566
1124.50 0.1281207
1124.60 0.1280849
1124.70 0.1280491
1124.80 0.1280133
1124.90 0.1279775
1125.00 0.1279418
1125.10 0.127906
1125.20 0.1278703
1125.30 0.1278345
1125.40 0.1277988
1125.50 0.1277631
1125.60 0.1277274
1125.70 0.1276917
1125.80 0.127656
1125.90 0.1276203
1126.00 0.1275847
1126.10 0.127549
1126.20 0.1275134
1126.30 0.1274777
1126.40 0.1274421
1126.50 0.1274065
1126.60 0.1273709
1126.70 0.1273353
1126.80 0.1272997
1126.90 0.1272642
1127.00 0.1272286
1127.10 0.1271931
1127.20 0.1271575
1127.30 0.127122
1127.40 0.1270865
1127.50 0.127051
1127.60 0.1270155
1127.70 0.12698
1127.80 0.1269446
1127.90 0.1269091
1128.00 0.1268737
1128.10 0.1268384
1128.20 0.1268031
1128.30 0.1267679
1128.40 0.1267326
1128.50 0.1266973
1128.60 0.1266621
1128.70 0.1266268
1128.80 0.1265916
1128.90 0.1265563
1129.00 0.1265211
1129.10 0.1264859
1129.20 0.1264507
1129.30 0.1264156
1129.40 0.1263804
1129.50 0.1263452
1129.60 0.1263101
1129.70 0.1262749
1129.80 0.1262398
1129.90 0.1262047
1130.00 0.1261696
1130.10 0.1261345
1130.20 0.1260994
1130.30 0.1260643
1130.40 0.1260292
1130.50 0.1259942
1130.60 0.1259591
1130.70 0.1259241
1130.80 0.1258891
1130.90 0.125854
1131.00 0.125819
1131.10 0.125784
1131.20 0.1257491
1131.30 0.1257141
1131.40 0.1256791
1131.50 0.1256442
1131.60 0.1256092
1131.70 0.1255743
1131.80 0.1255394
1131.90 0.1255045
1132.00 0.1254696
1132.10 0.1254347
1132.20 0.1253998
1132.30 0.1253649
1132.40 0.1253301
1132.50 0.1252952
1132.60 0.1252604
1132.70 0.1252255
1132.80 0.1251907
1132.90 0.1251559
1133.00 0.1251211
1133.10 0.1250863
1133.20 0.1250516
1133.30 0.1250168
1133.40 0.124982
1133.50 0.1249473
1133.60 0.1249125
1133.70 0.1248778
1133.80 0.1248431
1133.90 0.1248084
1134.00 0.1247737
1134.10 0.124739
1134.20 0.1247043
1134.30 0.1246697
1134.40 0.124635
1134.50 0.1246004
1134.60 0.1245658
1134.70 0.1245311
1134.80 0.1244965
1134.90 0.1244619
1135.00 0.1244273
1135.10 0.1243927
1135.20 0.1243582
1135.30 0.1243236
1135.40 0.1242891
1135.50 0.1242545
1135.60 0.12422
1135.70 0.1241855
1135.80 0.124151
1135.90 0.1241165
1136.00 0.124082
1136.10 0.1240475
1136.20 0.124013
1136.30 0.1239786
1136.40 0.1239441
1136.50 0.1239097
1136.60 0.1238752
1136.70 0.1238408
1136.80 0.1238064
1136.90 0.123772
1137.00 0.1237376
1137.10 0.1237033
1137.20 0.1236689
1137.30 0.1236345
1137.40 0.1236002
1137.50 0.1235659
1137.60 0.1235315
1137.70 0.1234972
1137.80 0.1234629
1137.90 0.1234286
1138.00 0.1233943
1138.10 0.12336
1138.20 0.1233258
1138.30 0.1232915
1138.40 0.1232573
1138.50 0.123223
1138.60 0.1231888
1138.70 0.1231546
1138.80 0.1231204
1138.90 0.1230862
1139.00 0.123052
1139.10 0.1230178
1139.20 0.1229837
1139.30 0.1229496
1139.40 0.1229156
1139.50 0.1228816
1139.60 0.1228476
1139.70 0.1228136
1139.80 0.1227796
1139.90 0.1227457
1140.00 0.1227117
1140.10 0.1226778
1140.20 0.1226438
1140.30 0.1226099
1140.40 0.122576
1140.50 0.1225421
1140.60 0.1225082
1140.70 0.1224743
1140.80 0.1224404
1140.90 0.1224065
1141.00 0.1223727
1141.10 0.1223388
1141.20 0.122305
1141.30 0.1222711
1141.40 0.1222373
1141.50 0.1222035
1141.60 0.1221697
1141.70 0.1221359
1141.80 0.1221021
1141.90 0.1220684
1142.00 0.1220346
1142.10 0.1220009
1142.20 0.1219671
1142.30 0.1219334
1142.40 0.1218997
1142.50 0.121866
1142.60 0.1218323
1142.70 0.1217986
1142.80 0.1217649
1142.90 0.1217312
1143.00 0.1216975
1143.10 0.1216639
1143.20 0.1216303
1143.30 0.1215966
1143.40 0.121563
1143.50 0.1215294
1143.60 0.1214958
1143.70 0.1214622
1143.80 0.1214286
1143.90 0.121395
1144.00 0.1213615
1144.10 0.1213279
1144.20 0.1212944
1144.30 0.1212609
1144.40 0.1212273
1144.50 0.1211938
1144.60 0.1211603
1144.70 0.1211268
1144.80 0.1210933
1144.90 0.1210599
1145.00 0.1210264
1145.10 0.1209929
1145.20 0.1209595
1145.30 0.1209261
1145.40 0.1208926
1145.50 0.1208592
1145.60 0.1208258
1145.70 0.1207924
1145.80 0.120759
1145.90 0.1207257
1146.00 0.1206923
1146.10 0.1206589
1146.20 0.1206256
1146.30 0.1205923
1146.40 0.1205589
1146.50 0.1205256
1146.60 0.1204923
1146.70 0.120459
1146.80 0.1204257
1146.90 0.1203925
1147.00 0.1203592
1147.10 0.1203259
1147.20 0.1202927
1147.30 0.1202594
1147.40 0.1202262
1147.50 0.120193
1147.60 0.1201598
1147.70 0.1201266
1147.80 0.1200934
1147.90 0.1200602
1148.00 0.1200271
1148.10 0.1199939
1148.20 0.1199607
1148.30 0.1199276
1148.40 0.1198945
1148.50 0.1198613
1148.60 0.1198282
1148.70 0.1197951
1148.80 0.119762
1148.90 0.119729
1149.00 0.1196959
1149.10 0.1196628
1149.20 0.1196298
1149.30 0.1195967
1149.40 0.1195637
1149.50 0.1195307
1149.60 0.1194977
1149.70 0.1194646
1149.80 0.1194317
1149.90 0.1193987
1150.00 0.1193657
1150.10 0.1193327
1150.20 0.1192998
1150.30 0.1192668
1150.40 0.1192339
1150.50 0.119201
1150.60 0.119168
1150.70 0.1191353
1150.80 0.1191025
1150.90 0.1190697
1151.00 0.1190369
1151.10 0.1190042
1151.20 0.1189715
1151.30 0.1189387
1151.40 0.118906
1151.50 0.1188733
1151.60 0.1188406
1151.70 0.1188079
1151.80 0.1187752
1151.90 0.1187425
1152.00 0.1187099
1152.10 0.1186772
1152.20 0.1186446
1152.30 0.1186119
1152.40 0.1185793
1152.50 0.1185467
1152.60 0.1185141
1152.70 0.1184815
1152.80 0.1184489
1152.90 0.1184163
1153.00 0.1183837
1153.10 0.1183512
1153.20 0.1183186
1153.30 0.1182861
1153.40 0.1182536
1153.50 0.118221
1153.60 0.1181885
1153.70 0.118156
1153.80 0.1181235
1153.90 0.118091
1154.00 0.1180586
1154.10 0.1180261
1154.20 0.1179936
1154.30 0.1179612
1154.40 0.1179288
1154.50 0.1178963
1154.60 0.1178639
1154.70 0.1178315
1154.80 0.1177991
1154.90 0.1177667
1155.00 0.1177343
1155.10 0.117702
1155.20 0.1176696
1155.30 0.1176373
1155.40 0.1176049
1155.50 0.1175726
1155.60 0.1175403
1155.70 0.1175079
1155.80 0.1174756
1155.90 0.1174433
1156.00 0.1174111
1156.10 0.1173788
1156.20 0.1173465
1156.30 0.1173143
1156.40 0.117282
1156.50 0.1172498
1156.60 0.1172175
1156.70 0.1171853
1156.80 0.1171531
1156.90 0.1171209
1157.00 0.1170887
1157.10 0.1170566
1157.20 0.1170244
1157.30 0.1169922
1157.40 0.1169601
1157.50 0.1169279
1157.60 0.1168958
1157.70 0.1168637
1157.80 0.1168316
1157.90 0.1167995
1158.00 0.1167674
1158.10 0.1167353
1158.20 0.1167032
1158.30 0.1166712
1158.40 0.1166391
1158.50 0.116607
1158.60 0.116575
1158.70 0.116543
1158.80 0.116511
1158.90 0.116479
1159.00 0.116447
1159.10 0.116415
1159.20 0.116383
1159.30 0.116351
1159.40 0.116319
1159.50 0.1162871
1159.60 0.1162551
1159.70 0.1162232
1159.80 0.1161913
1159.90 0.1161594
1160.00 0.1161275
1160.10 0.1160956
1160.20 0.1160637
1160.30 0.1160318
1160.40 0.1159999
1160.50 0.1159681
1160.60 0.1159362
1160.70 0.1159044
1160.80 0.1158725
1160.90 0.1158407
1161.00 0.1158089
1161.10 0.1157771
1161.20 0.1157453
1161.30 0.1157135
1161.40 0.1156817
1161.50 0.1156499
1161.60 0.1156182
1161.70 0.1155864
1161.80 0.1155547
1161.90 0.115523
1162.00 0.1154912
1162.10 0.1154595
1162.20 0.1154279
1162.30 0.1153964
1162.40 0.1153648
1162.50 0.1153332
1162.60 0.1153017
1162.70 0.1152701
1162.80 0.1152386
1162.90 0.1152071
1163.00 0.1151755
1163.10 0.115144
1163.20 0.1151125
1163.30 0.115081
1163.40 0.1150496
1163.50 0.1150181
1163.60 0.1149866
1163.70 0.1149552
1163.80 0.1149237
1163.90 0.1148923
1164.00 0.1148609
1164.10 0.1148295
1164.20 0.114798
1164.30 0.1147666
1164.40 0.1147353
1164.50 0.1147039
1164.60 0.1146725
1164.70 0.1146411
1164.80 0.1146098
1164.90 0.1145784
1165.00 0.1145471
1165.10 0.1145158
1165.20 0.1144845
1165.30 0.1144532
1165.40 0.1144219
1165.50 0.1143906
1165.60 0.1143593
1165.70 0.114328
1165.80 0.1142968
1165.90 0.1142655
1166.00 0.1142343
1166.10 0.114203
1166.20 0.1141718
1166.30 0.1141406
1166.40 0.1141094
1166.50 0.1140782
1166.60 0.114047
1166.70 0.1140158
1166.80 0.1139846
1166.90 0.1139535
1167.00 0.1139223
1167.10 0.1138912
1167.20 0.11386
1167.30 0.1138289
1167.40 0.1137978
1167.50 0.1137667
1167.60 0.1137356
1167.70 0.1137045
1167.80 0.1136734
1167.90 0.1136423
1168.00 0.1136113
1168.10 0.1135802
1168.20 0.1135492
1168.30 0.1135181
1168.40 0.1134871
1168.50 0.1134561
1168.60 0.1134251
1168.70 0.1133941
1168.80 0.1133631
1168.90 0.1133321
1169.00 0.1133011
1169.10 0.1132702
1169.20 0.1132392
1169.30 0.1132083
1169.40 0.1131773
1169.50 0.1131464
1169.60 0.1131155
1169.70 0.1130846
1169.80 0.1130537
1169.90 0.1130228
1170.00 0.1129919
1170.10 0.112961
1170.20 0.1129301
1170.30 0.1128993
1170.40 0.1128684
1170.50 0.1128376
1170.60 0.1128068
1170.70 0.112776
1170.80 0.1127451
1170.90 0.1127143
1171.00 0.1126835
1171.10 0.1126528
1171.20 0.112622
1171.30 0.1125912
1171.40 0.1125604
1171.50 0.1125297
1171.60 0.112499
1171.70 0.1124682
1171.80 0.1124375
1171.90 0.1124068
1172.00 0.1123761
1172.10 0.1123454
1172.20 0.1123147
1172.30 0.112284
1172.40 0.1122533
1172.50 0.1122227
1172.60 0.112192
1172.70 0.1121614
1172.80 0.1121307
1172.90 0.1121001
1173.00 0.1120695
1173.10 0.1120389
1173.20 0.1120083
1173.30 0.1119777
1173.40 0.1119471
1173.50 0.1119165
1173.60 0.111886
1173.70 0.1118554
1173.80 0.111825
1173.90 0.1117945
1174.00 0.1117641
1174.10 0.1117337
1174.20 0.1117033
1174.30 0.1116729
1174.40 0.1116425
1174.50 0.1116122
1174.60 0.1115818
1174.70 0.1115514
1174.80 0.1115211
1174.90 0.1114907
1175.00 0.1114604
1175.10 0.1114301
1175.20 0.1113998
1175.30 0.1113695
1175.40 0.1113392
1175.50 0.1113089
1175.60 0.1112786
1175.70 0.1112483
1175.80 0.1112181
1175.90 0.1111878
1176.00 0.1111576
1176.10 0.1111273
1176.20 0.1110971
1176.30 0.1110669
1176.40 0.1110367
1176.50 0.1110065
1176.60 0.1109763
1176.70 0.1109461
1176.80 0.1109159
1176.90 0.1108858
1177.00 0.1108556
1177.10 0.1108255
1177.20 0.1107953
1177.30 0.1107652
1177.40 0.1107351
1177.50 0.110705
1177.60 0.1106749
1177.70 0.1106448
1177.80 0.1106147
1177.90 0.1105846
1178.00 0.1105545
1178.10 0.1105245
1178.20 0.1104944
1178.30 0.1104644
1178.40 0.1104343
1178.50 0.1104043
1178.60 0.1103743
1178.70 0.1103443
1178.80 0.1103143
1178.90 0.1102843
1179.00 0.1102543
1179.10 0.1102243
1179.20 0.1101943
1179.30 0.1101644
1179.40 0.1101344
1179.50 0.1101045
1179.60 0.1100745
1179.70 0.1100446
1179.80 0.1100147
1179.90 0.1099848
1180.00 0.1099549
1180.10 0.109925
1180.20 0.1098951
1180.30 0.1098653
1180.40 0.1098354
1180.50 0.1098055
1180.60 0.1097757
1180.70 0.1097459
1180.80 0.109716
1180.90 0.1096862
1181.00 0.1096564
1181.10 0.1096266
1181.20 0.1095968
1181.30 0.109567
1181.40 0.1095372
1181.50 0.1095075
1181.60 0.1094777
1181.70 0.1094479
1181.80 0.1094182
1181.90 0.1093885
1182.00 0.1093587
1182.10 0.109329
1182.20 0.1092993
1182.30 0.1092696
1182.40 0.1092399
1182.50 0.1092102
1182.60 0.1091806
1182.70 0.1091509
1182.80 0.1091212
1182.90 0.1090916
1183.00 0.1090619
1183.10 0.1090323
1183.20 0.1090027
1183.30 0.1089731
1183.40 0.1089435
1183.50 0.1089139
1183.60 0.1088843
1183.70 0.1088547
1183.80 0.1088251
1183.90 0.1087955
1184.00 0.108766
1184.10 0.1087364
1184.20 0.1087069
1184.30 0.1086774
1184.40 0.1086478
1184.50 0.1086183
1184.60 0.1085888
1184.70 0.1085593
1184.80 0.1085298
1184.90 0.1085003
1185.00 0.1084709
1185.10 0.1084414
1185.20 0.1084119
1185.30 0.1083825
1185.40 0.1083531
1185.50 0.1083237
1185.60 0.1082944
1185.70 0.108265
1185.80 0.1082358
1185.90 0.1082065
1186.00 0.1081772
1186.10 0.1081479
1186.20 0.1081186
1186.30 0.1080894
1186.40 0.1080601
1186.50 0.1080309
1186.60 0.1080017
1186.70 0.1079724
1186.80 0.1079432
1186.90 0.107914
1187.00 0.1078848
1187.10 0.1078556
1187.20 0.1078265
1187.30 0.1077973
1187.40 0.1077681
1187.50 0.107739
1187.60 0.1077098
1187.70 0.1076807
1187.80 0.1076515
1187.90 0.1076224
1188.00 0.1075933
1188.10 0.1075642
1188.20 0.1075351
1188.30 0.107506
1188.40 0.1074769
1188.50 0.1074479
1188.60 0.1074188
1188.70 0.1073897
1188.80 0.1073607
1188.90 0.1073317
1189.00 0.1073026
1189.10 0.1072736
1189.20 0.1072446
1189.30 0.1072156
1189.40 0.1071866
1189.50 0.1071576
1189.60 0.1071286
1189.70 0.1070996
1189.80 0.1070707
1189.90 0.1070417
1190.00 0.1070128
1190.10 0.1069838
1190.20 0.1069549
1190.30 0.106926
1190.40 0.106897
1190.50 0.1068681
1190.60 0.1068392
1190.70 0.1068103
1190.80 0.1067815
1190.90 0.1067526
1191.00 0.1067237
1191.10 0.1066948
1191.20 0.106666
1191.30 0.1066372
1191.40 0.1066083
1191.50 0.1065795
1191.60 0.1065507
1191.70 0.1065219
1191.80 0.1064931
1191.90 0.1064643
1192.00 0.1064355
1192.10 0.1064067
1192.20 0.1063779
1192.30 0.1063492
1192.40 0.1063204
1192.50 0.1062917
1192.60 0.1062629
1192.70 0.1062342
1192.80 0.1062055
1192.90 0.1061768
1193.00 0.1061481
1193.10 0.1061194
1193.20 0.1060907
1193.30 0.106062
1193.40 0.1060333
1193.50 0.1060047
1193.60 0.105976
1193.70 0.1059474
1193.80 0.1059187
1193.90 0.1058901
1194.00 0.1058615
1194.10 0.1058329
1194.20 0.1058043
1194.30 0.1057757
1194.40 0.1057471
1194.50 0.1057185
1194.60 0.1056899
1194.70 0.1056613
1194.80 0.1056328
1194.90 0.1056042
1195.00 0.1055757
1195.10 0.1055472
1195.20 0.1055186
1195.30 0.1054901
1195.40 0.1054616
1195.50 0.1054331
1195.60 0.1054046
1195.70 0.1053761
1195.80 0.1053476
1195.90 0.1053192
1196.00 0.1052907
1196.10 0.1052623
1196.20 0.1052338
1196.30 0.1052054
1196.40 0.1051769
1196.50 0.1051485
1196.60 0.1051201
1196.70 0.1050917
1196.80 0.1050633
1196.90 0.1050349
1197.00 0.1050065
1197.10 0.1049782
1197.20 0.1049498
1197.30 0.1049214
1197.40 0.1048932
1197.50 0.104865
1197.60 0.1048367
1197.70 0.1048085
1197.80 0.1047803
1197.90 0.1047521
1198.00 0.1047239
1198.10 0.1046957
1198.20 0.1046675
1198.30 0.1046394
1198.40 0.1046112
1198.50 0.1045831
1198.60 0.1045549
1198.70 0.1045268
1198.80 0.1044987
1198.90 0.1044705
1199.00 0.1044424
1199.10 0.1044143
1199.20 0.1043862
1199.30 0.1043581
1199.40 0.10433
1199.50 0.104302
1199.60 0.1042739
1199.70 0.1042458
1199.80 0.1042178
1199.90 0.1041897
1200.00 0.1041617
