# Version 2.1 - nm, norm@500 to 1, cut digits, bergeron_He_8500_90.dat_8500
# Wavelength(nm)  Flambda(ergs/cm^s/s/nm)
300.00 1.515337
300.10 1.515461
300.20 1.515586
300.30 1.515713
300.40 1.515857
300.50 1.516001
300.60 1.516145
300.70 1.516287
300.80 1.51643
300.90 1.516572
301.00 1.516713
301.10 1.516854
301.20 1.516994
301.30 1.517134
301.40 1.517273
301.50 1.517412
301.60 1.51755
301.70 1.517687
301.80 1.517825
301.90 1.517961
302.00 1.518097
302.10 1.518152
302.20 1.518197
302.30 1.518242
302.40 1.518286
302.50 1.51833
302.60 1.518374
302.70 1.518417
302.80 1.51846
302.90 1.518502
303.00 1.518544
303.10 1.518586
303.20 1.518627
303.30 1.518681
303.40 1.518857
303.50 1.519032
303.60 1.519207
303.70 1.519381
303.80 1.519554
303.90 1.519727
304.00 1.519899
304.10 1.520071
304.20 1.520243
304.30 1.520413
304.40 1.520583
304.50 1.520753
304.60 1.520831
304.70 1.520898
304.80 1.520965
304.90 1.521032
305.00 1.521098
305.10 1.521164
305.20 1.521229
305.30 1.521294
305.40 1.521358
305.50 1.521422
305.60 1.521486
305.70 1.521549
305.80 1.521612
305.90 1.521674
306.00 1.521736
306.10 1.521798
306.20 1.521859
306.30 1.52192
306.40 1.52199
306.50 1.522063
306.60 1.522135
306.70 1.522207
306.80 1.522279
306.90 1.52235
307.00 1.522421
307.10 1.522491
307.20 1.522561
307.30 1.522631
307.40 1.5227
307.50 1.522769
307.60 1.522837
307.70 1.522905
307.80 1.522972
307.90 1.523039
308.00 1.523106
308.10 1.523172
308.20 1.523238
308.30 1.523303
308.40 1.523368
308.50 1.523433
308.60 1.523497
308.70 1.523561
308.80 1.523556
308.90 1.523354
309.00 1.523386
309.10 1.523416
309.20 1.523447
309.30 1.523477
309.40 1.523522
309.50 1.52366
309.60 1.523797
309.70 1.523934
309.80 1.52407
309.90 1.524205
310.00 1.524341
310.10 1.524475
310.20 1.52461
310.30 1.524743
310.40 1.52477
310.50 1.524682
310.60 1.524593
310.70 1.524504
310.80 1.524414
310.90 1.524325
311.00 1.524388
311.10 1.524452
311.20 1.524514
311.30 1.524585
311.40 1.524681
311.50 1.524776
311.60 1.52487
311.70 1.524964
311.80 1.525058
311.90 1.525151
312.00 1.525244
312.10 1.525336
312.20 1.525214
312.30 1.525098
312.40 1.525196
312.50 1.525395
312.60 1.525457
312.70 1.52552
312.80 1.525582
312.90 1.525585
313.00 1.525523
313.10 1.525461
313.20 1.5254
313.30 1.525376
313.40 1.525462
313.50 1.525547
313.60 1.525632
313.70 1.525716
313.80 1.5258
313.90 1.525884
314.00 1.525967
314.10 1.525984
314.20 1.526001
314.30 1.526018
314.40 1.526034
314.50 1.52605
314.60 1.526066
314.70 1.526081
314.80 1.52584
314.90 1.525489
315.00 1.525806
315.10 1.525788
315.20 1.52577
315.30 1.525752
315.40 1.525734
315.50 1.525715
315.60 1.525696
315.70 1.525676
315.80 1.525657
315.90 1.525637
316.00 1.525617
316.10 1.525596
316.20 1.525575
316.30 1.525554
316.40 1.526004
316.50 1.525511
316.60 1.52549
316.70 1.525467
316.80 1.525445
316.90 1.525422
317.00 1.525399
317.10 1.525376
317.20 1.525353
317.30 1.525469
317.40 1.525591
317.50 1.525729
317.60 1.525866
317.70 1.526004
317.80 1.52614
317.90 1.525795
318.00 1.525397
318.10 1.525371
318.20 1.525345
318.30 1.525318
318.40 1.525291
318.50 1.525264
318.60 1.525599
318.70 1.525896
318.80 1.525868
318.90 1.525839
319.00 1.525124
319.10 1.525095
319.20 1.52508
319.30 1.525105
319.40 1.525129
319.50 1.525153
319.60 1.524961
319.70 1.524985
319.80 1.525008
319.90 1.525031
320.00 1.525027
320.10 1.524996
320.20 1.525443
320.30 1.52541
320.40 1.525378
320.50 1.525345
320.60 1.524834
320.70 1.524801
320.80 1.524768
320.90 1.524734
321.00 1.524701
321.10 1.524666
321.20 1.525314
321.30 1.525155
321.40 1.524997
321.50 1.524838
321.60 1.52468
321.70 1.524521
321.80 1.524575
321.90 1.524858
322.00 1.524383
322.10 1.524341
322.20 1.5243
322.30 1.524258
322.40 1.524217
322.50 1.524174
322.60 1.524132
322.70 1.52409
322.80 1.52475
322.90 1.52469
323.00 1.52463
323.10 1.52457
323.20 1.524509
323.30 1.524448
323.40 1.524387
323.50 1.524326
323.60 1.524265
323.70 1.524203
323.80 1.524141
323.90 1.524079
324.00 1.52386
324.10 1.52364
324.20 1.523421
324.30 1.523313
324.40 1.523394
324.50 1.523335
324.60 1.523274
324.70 1.523214
324.80 1.523153
324.90 1.523092
325.00 1.523031
325.10 1.52297
325.20 1.522927
325.30 1.522923
325.40 1.522919
325.50 1.5229
325.60 1.522862
325.70 1.522823
325.80 1.522784
325.90 1.52272
326.00 1.522628
326.10 1.522535
326.20 1.522443
326.30 1.522314
326.40 1.522085
326.50 1.522006
326.60 1.521928
326.70 1.521849
326.80 1.52177
326.90 1.521691
327.00 1.521611
327.10 1.521531
327.20 1.521452
327.30 1.521372
327.40 1.521291
327.50 1.521211
327.60 1.52113
327.70 1.52105
327.80 1.520969
327.90 1.52089
328.00 1.520857
328.10 1.520875
328.20 1.520893
328.30 1.52091
328.40 1.520927
328.50 1.520779
328.60 1.520592
328.70 1.520405
328.80 1.520257
328.90 1.52022
329.00 1.520182
329.10 1.520143
329.20 1.520105
329.30 1.520066
329.40 1.520027
329.50 1.519988
329.60 1.519949
329.70 1.519909
329.80 1.519869
329.90 1.519829
330.00 1.519688
330.10 1.519422
330.20 1.519156
330.30 1.51889
330.40 1.518724
330.50 1.518667
330.60 1.518609
330.70 1.518552
330.80 1.518494
330.90 1.518436
331.00 1.518378
331.10 1.51832
331.20 1.518261
331.30 1.518202
331.40 1.518143
331.50 1.518009
331.60 1.517783
331.70 1.517557
331.80 1.517462
331.90 1.517372
332.00 1.517282
332.10 1.517192
332.20 1.517102
332.30 1.517012
332.40 1.516921
332.50 1.51683
332.60 1.516739
332.70 1.516648
332.80 1.516557
332.90 1.516465
333.00 1.516374
333.10 1.516296
333.20 1.516237
333.30 1.516177
333.40 1.516116
333.50 1.516056
333.60 1.515995
333.70 1.515934
333.80 1.515873
333.90 1.515812
334.00 1.515751
334.10 1.515626
334.20 1.515423
334.30 1.51522
334.40 1.515018
334.50 1.514815
334.60 1.514612
334.70 1.514458
334.80 1.514427
334.90 1.514486
335.00 1.514545
335.10 1.514221
335.20 1.514158
335.30 1.513717
335.40 1.513653
335.50 1.51359
335.60 1.513526
335.70 1.513001
335.80 1.512937
335.90 1.512873
336.00 1.512809
336.10 1.512744
336.20 1.51268
336.30 1.512615
336.40 1.51255
336.50 1.512484
336.60 1.512419
336.70 1.512353
336.80 1.512287
336.90 1.512125
337.00 1.511845
337.10 1.511565
337.20 1.511285
337.30 1.511095
337.40 1.511034
337.50 1.510973
337.60 1.510912
337.70 1.51085
337.80 1.510788
337.90 1.51064
338.00 1.510387
338.10 1.510134
338.20 1.509881
338.30 1.509628
338.40 1.509431
338.50 1.509375
338.60 1.509318
338.70 1.50926
338.80 1.509203
338.90 1.509145
339.00 1.509088
339.10 1.50903
339.20 1.508971
339.30 1.508744
339.40 1.508273
339.50 1.507953
339.60 1.507819
339.70 1.507684
339.80 1.507549
339.90 1.507414
340.00 1.507279
340.10 1.507143
340.20 1.507008
340.30 1.506872
340.40 1.506737
340.50 1.506601
340.60 1.506465
340.70 1.506329
340.80 1.506227
340.90 1.506172
341.00 1.506064
341.10 1.505891
341.20 1.505718
341.30 1.505544
341.40 1.505371
341.50 1.505198
341.60 1.505024
341.70 1.504851
341.80 1.504702
341.90 1.504581
342.00 1.504461
342.10 1.504341
342.20 1.504069
342.30 1.504117
342.40 1.504199
342.50 1.503996
342.60 1.503793
342.70 1.50359
342.80 1.503386
342.90 1.503183
343.00 1.503034
343.10 1.502952
343.20 1.50287
343.30 1.502787
343.40 1.502653
343.50 1.502445
343.60 1.502237
343.70 1.502029
343.80 1.501821
343.90 1.501612
344.00 1.501377
344.10 1.501102
344.20 1.500828
344.30 1.500553
344.40 1.50036
344.50 1.500285
344.60 1.500678
344.70 1.500224
344.80 1.499751
344.90 1.499655
345.00 1.499742
345.10 1.499269
345.20 1.498963
345.30 1.498897
345.40 1.498832
345.50 1.498747
345.60 1.498598
345.70 1.498389
345.80 1.498181
345.90 1.497972
346.00 1.497763
346.10 1.497554
346.20 1.497367
346.30 1.497211
346.40 1.497055
346.50 1.496898
346.60 1.496742
346.70 1.496585
346.80 1.496428
346.90 1.496272
347.00 1.496115
347.10 1.495958
347.20 1.495797
347.30 1.49563
347.40 1.495463
347.50 1.495296
347.60 1.495129
347.70 1.494962
347.80 1.494795
347.90 1.494628
348.00 1.494461
348.10 1.494293
348.20 1.494126
348.30 1.493959
348.40 1.493791
348.50 1.493624
348.60 1.493456
348.70 1.493202
348.80 1.492961
348.90 1.492777
349.00 1.492593
349.10 1.492409
349.20 1.492226
349.30 1.492042
349.40 1.491858
349.50 1.491674
349.60 1.49149
349.70 1.491306
349.80 1.491122
349.90 1.490938
350.00 1.490754
350.10 1.49057
350.20 1.490386
350.30 1.490185
350.40 1.489961
350.50 1.489737
350.60 1.489512
350.70 1.489288
350.80 1.489064
350.90 1.48884
351.00 1.488615
351.10 1.488391
351.20 1.488167
351.30 1.487943
351.40 1.487716
351.50 1.487484
351.60 1.487252
351.70 1.48702
351.80 1.486788
351.90 1.486556
352.00 1.486325
352.10 1.486093
352.20 1.486229
352.30 1.48623
352.40 1.485976
352.50 1.485721
352.60 1.485467
352.70 1.485213
352.80 1.484959
352.90 1.484705
353.00 1.484452
353.10 1.484198
353.20 1.483944
353.30 1.48369
353.40 1.483436
353.50 1.483259
353.60 1.4831
353.70 1.482941
353.80 1.482782
353.90 1.482591
354.00 1.482343
354.10 1.482094
354.20 1.481846
354.30 1.481598
354.40 1.48135
354.50 1.481101
354.60 1.480853
354.70 1.480605
354.80 1.480396
354.90 1.480241
355.00 1.480087
355.10 1.479932
355.20 1.479777
355.30 1.479639
355.40 1.4795
355.50 1.47936
355.60 1.479221
355.70 1.479046
355.80 1.478855
355.90 1.478433
356.00 1.478098
356.10 1.477886
356.20 1.477675
356.30 1.477464
356.40 1.477252
356.50 1.477041
356.60 1.476829
356.70 1.476618
356.80 1.476406
356.90 1.476195
357.00 1.475983
357.10 1.475772
357.20 1.475561
357.30 1.475349
357.40 1.475154
357.50 1.474988
357.60 1.474823
357.70 1.474657
357.80 1.474168
357.90 1.473679
358.00 1.473431
358.10 1.473242
358.20 1.473054
358.30 1.472866
358.40 1.472677
358.50 1.472489
358.60 1.472301
358.70 1.472112
358.80 1.471924
358.90 1.471736
359.00 1.471556
359.10 1.471393
359.20 1.471186
359.30 1.470681
359.40 1.470176
359.50 1.470047
359.60 1.470012
359.70 1.469976
359.80 1.469711
359.90 1.469447
360.00 1.469179
360.10 1.468905
360.20 1.468632
360.30 1.468358
360.40 1.468085
360.50 1.467811
360.60 1.467925
360.70 1.467655
360.80 1.467385
360.90 1.467116
361.00 1.466651
361.10 1.466241
361.20 1.466474
361.30 1.465951
361.40 1.465574
361.50 1.465485
361.60 1.464935
361.70 1.464846
361.80 1.464701
361.90 1.464455
362.00 1.464208
362.10 1.463912
362.20 1.463651
362.30 1.463474
362.40 1.463297
362.50 1.46312
362.60 1.462942
362.70 1.46266
362.80 1.462173
362.90 1.46208
363.00 1.461988
363.10 1.461837
363.20 1.461685
363.30 1.461011
363.40 1.460922
363.50 1.460833
363.60 1.460386
363.70 1.460337
363.80 1.459851
363.90 1.459558
364.00 1.459265
364.10 1.458972
364.20 1.458679
364.30 1.458612
364.40 1.458602
364.50 1.457808
364.60 1.457716
364.70 1.457624
364.80 1.457532
364.90 1.457088
365.00 1.456644
365.10 1.456554
365.20 1.456464
365.30 1.456374
365.40 1.455577
365.50 1.455488
365.60 1.455398
365.70 1.455243
365.80 1.455089
365.90 1.454735
366.00 1.454332
366.10 1.454057
366.20 1.453781
366.30 1.453506
366.40 1.453231
366.50 1.45317
366.60 1.453087
366.70 1.452826
366.80 1.452566
366.90 1.452296
367.00 1.452008
367.10 1.451721
367.20 1.451434
367.30 1.451147
367.40 1.450861
367.50 1.450482
367.60 1.450081
367.70 1.449844
367.80 1.449606
367.90 1.449369
368.00 1.449022
368.10 1.448923
368.20 1.448686
368.30 1.448447
368.40 1.448207
368.50 1.447968
368.60 1.447729
368.70 1.44749
368.80 1.447251
368.90 1.446815
369.00 1.446644
369.10 1.446626
369.20 1.44585
369.30 1.445759
369.40 1.445668
369.50 1.445577
369.60 1.445138
369.70 1.4447
369.80 1.444477
369.90 1.444255
370.00 1.444033
370.10 1.44365
370.20 1.443211
370.30 1.442776
370.40 1.442688
370.50 1.442597
370.60 1.442506
370.70 1.441728
370.80 1.441633
370.90 1.441539
371.00 1.44111
371.10 1.440678
371.20 1.440583
371.30 1.440489
371.40 1.439903
371.50 1.439638
371.60 1.439372
371.70 1.439107
371.80 1.438841
371.90 1.438576
372.00 1.438685
372.10 1.438398
372.20 1.43808
372.30 1.437761
372.40 1.437443
372.50 1.437125
372.60 1.436807
372.70 1.436489
372.80 1.436394
372.90 1.436299
373.00 1.435873
373.10 1.435444
373.20 1.435353
373.30 1.435261
373.40 1.434493
373.50 1.434401
373.60 1.43431
373.70 1.433542
373.80 1.433599
373.90 1.433359
374.00 1.433099
374.10 1.432839
374.20 1.432579
374.30 1.432319
374.40 1.431974
374.50 1.431462
374.60 1.431199
374.70 1.43094
374.80 1.430682
374.90 1.430424
375.00 1.430109
375.10 1.429793
375.20 1.429478
375.30 1.429195
375.40 1.428912
375.50 1.42863
375.60 1.428347
375.70 1.428064
375.80 1.427782
375.90 1.427499
376.00 1.427401
376.10 1.427081
376.20 1.426758
376.30 1.426435
376.40 1.426113
376.50 1.4258
376.60 1.425502
376.70 1.425204
376.80 1.424909
376.90 1.424618
377.00 1.424327
377.10 1.424036
377.20 1.423777
377.30 1.423642
377.40 1.423507
377.50 1.423372
377.60 1.42305
377.70 1.422728
377.80 1.422407
377.90 1.422085
378.00 1.421591
378.10 1.421293
378.20 1.421
378.30 1.420707
378.40 1.420414
378.50 1.420121
378.60 1.419828
378.70 1.419535
378.80 1.419243
378.90 1.418961
379.00 1.418699
379.10 1.418476
379.20 1.418253
379.30 1.417979
379.40 1.417655
379.50 1.417331
379.60 1.417058
379.70 1.41683
379.80 1.416482
379.90 1.416134
380.00 1.415787
380.10 1.415439
380.20 1.415092
380.30 1.414745
380.40 1.414398
380.50 1.414051
380.60 1.414141
380.70 1.413842
380.80 1.413544
380.90 1.413245
381.00 1.412947
381.10 1.412612
381.20 1.412403
381.30 1.412023
381.40 1.411515
381.50 1.411441
381.60 1.411318
381.70 1.411008
381.80 1.410269
381.90 1.410178
382.00 1.410087
382.10 1.409349
382.20 1.409387
382.30 1.408972
382.40 1.408605
382.50 1.408309
382.60 1.408013
382.70 1.407823
382.80 1.407645
382.90 1.40736
383.00 1.407075
383.10 1.40679
383.20 1.406486
383.30 1.406107
383.40 1.40577
383.50 1.405495
383.60 1.404801
383.70 1.404491
383.80 1.404181
383.90 1.403872
384.00 1.403562
384.10 1.403253
384.20 1.402944
384.30 1.402635
384.40 1.402339
384.50 1.402056
384.60 1.401773
384.70 1.401491
384.80 1.40127
384.90 1.401119
385.00 1.400665
385.10 1.400228
385.20 1.400266
385.30 1.399862
385.40 1.399519
385.50 1.399237
385.60 1.398956
385.70 1.398674
385.80 1.398377
385.90 1.398023
386.00 1.397709
386.10 1.397438
386.20 1.397203
386.30 1.396968
386.40 1.396489
386.50 1.396027
386.60 1.395834
386.70 1.395585
386.80 1.395495
386.90 1.394774
387.00 1.394683
387.10 1.394592
387.20 1.393872
387.30 1.393782
387.40 1.393225
387.50 1.393251
387.60 1.392948
387.70 1.392543
387.80 1.392139
387.90 1.391735
388.00 1.391418
388.10 1.391175
388.20 1.390657
388.30 1.390338
388.40 1.39002
388.50 1.389754
388.60 1.38965
388.70 1.389382
388.80 1.389292
388.90 1.388578
389.00 1.388488
389.10 1.388031
389.20 1.387955
389.30 1.387706
389.40 1.387312
389.50 1.387001
389.60 1.386702
389.70 1.386138
389.80 1.385849
389.90 1.385561
390.00 1.385273
390.10 1.384985
390.20 1.384696
390.30 1.384386
390.40 1.384051
390.50 1.383716
390.60 1.383381
390.70 1.383046
390.80 1.382699
390.90 1.382341
391.00 1.38189
391.10 1.381783
391.20 1.381549
391.30 1.381036
391.40 1.380741
391.50 1.380447
391.60 1.380152
391.70 1.379858
391.80 1.379563
391.90 1.379346
392.00 1.379094
392.10 1.378656
392.20 1.378195
392.30 1.377701
392.40 1.377436
392.50 1.377314
392.60 1.377026
392.70 1.376524
392.80 1.376435
392.90 1.375848
393.00 1.375473
393.10 1.375153
393.20 1.374912
393.30 1.374823
393.40 1.374679
393.50 1.37398
393.60 1.373891
393.70 1.373635
393.80 1.373132
393.90 1.372739
394.00 1.372408
394.10 1.372376
394.20 1.371988
394.30 1.37171
394.40 1.371357
394.50 1.370662
394.60 1.370306
394.70 1.369996
394.80 1.369858
394.90 1.369703
395.00 1.369097
395.10 1.368921
395.20 1.368543
395.30 1.368245
395.40 1.367946
395.50 1.367718
395.60 1.367517
395.70 1.367235
395.80 1.366734
395.90 1.366233
396.00 1.365781
396.10 1.365709
396.20 1.36532
396.30 1.36485
396.40 1.364762
396.50 1.364577
396.60 1.363986
396.70 1.363899
396.80 1.363455
396.90 1.363124
397.00 1.363036
397.10 1.362349
397.20 1.362262
397.30 1.361678
397.40 1.361368
397.50 1.361059
397.60 1.360754
397.70 1.360494
397.80 1.360233
397.90 1.359915
398.00 1.359445
398.10 1.358974
398.20 1.358634
398.30 1.35844
398.40 1.358244
398.50 1.35802
398.60 1.357462
398.70 1.357169
398.80 1.356973
398.90 1.356607
399.00 1.355927
399.10 1.355877
399.20 1.355606
399.30 1.355334
399.40 1.355062
399.50 1.354791
399.60 1.354407
399.70 1.35398
399.80 1.353554
399.90 1.353129
400.00 1.352709
400.10 1.352487
400.20 1.352347
400.30 1.352033
400.40 1.351591
400.50 1.351086
400.60 1.350841
400.70 1.350754
400.80 1.350239
400.90 1.349661
401.00 1.349479
401.10 1.349393
401.20 1.348721
401.30 1.348487
401.40 1.34828
401.50 1.348042
401.60 1.347791
401.70 1.34712
401.80 1.346909
401.90 1.34667
402.00 1.346278
402.10 1.345609
402.20 1.345523
402.30 1.34519
402.40 1.344769
402.50 1.344683
402.60 1.344047
402.70 1.34393
402.80 1.343554
402.90 1.34341
403.00 1.343034
403.10 1.342426
403.20 1.342341
403.30 1.341675
403.40 1.341465
403.50 1.341197
403.60 1.340888
403.70 1.340755
403.80 1.340101
403.90 1.339766
404.00 1.339343
404.10 1.339258
404.20 1.338885
404.30 1.338511
404.40 1.338164
404.50 1.337765
404.60 1.33768
404.70 1.337019
404.80 1.336935
404.90 1.336274
405.00 1.336066
405.10 1.335859
405.20 1.33561
405.30 1.335362
405.40 1.33499
405.50 1.334619
405.60 1.334248
405.70 1.333877
405.80 1.333506
405.90 1.333136
406.00 1.332825
406.10 1.332514
406.20 1.332203
406.30 1.331892
406.40 1.331572
406.50 1.331061
406.60 1.330833
406.70 1.330357
406.80 1.329926
406.90 1.329452
407.00 1.32914
407.10 1.328829
407.20 1.328518
407.30 1.328207
407.40 1.327896
407.50 1.327586
407.60 1.327275
407.70 1.326965
407.80 1.326655
407.90 1.326344
408.00 1.326004
408.10 1.325602
408.20 1.325248
408.30 1.324967
408.40 1.324687
408.50 1.324138
408.60 1.323881
408.70 1.323625
408.80 1.323325
408.90 1.322756
409.00 1.322434
409.10 1.322112
409.20 1.321791
409.30 1.32147
409.40 1.321145
409.50 1.320698
409.60 1.320252
409.70 1.31987
409.80 1.319744
409.90 1.319603
410.00 1.318959
410.10 1.318784
410.20 1.31841
410.30 1.317986
410.40 1.317599
410.50 1.317325
410.60 1.317052
410.70 1.316751
410.80 1.316336
410.90 1.315922
411.00 1.315574
411.10 1.31525
411.20 1.314927
411.30 1.314636
411.40 1.314465
411.50 1.314023
411.60 1.313582
411.70 1.313157
411.80 1.312797
411.90 1.312382
412.00 1.312301
412.10 1.311665
412.20 1.311584
412.30 1.311043
412.40 1.310867
412.50 1.310311
412.60 1.310072
412.70 1.309689
412.80 1.30927
412.90 1.308822
413.00 1.308774
413.10 1.30836
413.20 1.307946
413.30 1.307532
413.40 1.307119
413.50 1.306777
413.60 1.306648
413.70 1.306292
413.80 1.305937
413.90 1.305581
414.00 1.305226
414.10 1.304871
414.20 1.30445
414.30 1.30437
414.40 1.303741
414.50 1.303661
414.60 1.303098
414.70 1.302744
414.80 1.30239
414.90 1.302037
415.00 1.301684
415.10 1.30133
415.20 1.300993
415.30 1.300708
415.40 1.300423
415.50 1.300133
415.60 1.299703
415.70 1.299274
415.80 1.298884
415.90 1.298618
416.00 1.298353
416.10 1.298068
416.20 1.297706
416.30 1.297344
416.40 1.296982
416.50 1.29662
416.60 1.29627
416.70 1.295911
416.80 1.29529
416.90 1.295211
417.00 1.29459
417.10 1.29452
417.20 1.294171
417.30 1.293819
417.40 1.293391
417.50 1.292963
417.60 1.292589
417.70 1.292427
417.80 1.292079
417.90 1.291731
418.00 1.291383
418.10 1.291035
418.20 1.290687
418.30 1.290332
418.40 1.289786
418.50 1.289462
418.60 1.289138
418.70 1.288815
418.80 1.288492
418.90 1.288169
419.00 1.287846
419.10 1.287523
419.20 1.2872
419.30 1.286875
419.40 1.286451
419.50 1.286027
419.60 1.285602
419.70 1.28517
419.80 1.284739
419.90 1.284328
420.00 1.283978
420.10 1.283629
420.20 1.28328
420.30 1.282931
420.40 1.282582
420.50 1.282234
420.60 1.281885
420.70 1.281537
420.80 1.281189
420.90 1.280845
421.00 1.28062
421.10 1.280394
421.20 1.280131
421.30 1.27975
421.40 1.279371
421.50 1.278991
421.60 1.278612
421.70 1.278232
421.80 1.277853
421.90 1.277483
422.00 1.277137
422.10 1.276773
422.20 1.276335
422.30 1.275898
422.40 1.275464
422.50 1.275127
422.60 1.274791
422.70 1.274455
422.80 1.274119
422.90 1.273783
423.00 1.273447
423.10 1.273112
423.20 1.272777
423.30 1.272442
423.40 1.272107
423.50 1.271772
423.60 1.271437
423.70 1.271103
423.80 1.270769
423.90 1.270435
424.00 1.270101
424.10 1.269767
424.20 1.269433
424.30 1.2691
424.40 1.26871
424.50 1.268324
424.60 1.267938
424.70 1.267552
424.80 1.267167
424.90 1.266782
425.00 1.266397
425.10 1.266012
425.20 1.265628
425.30 1.265243
425.40 1.264863
425.50 1.264511
425.60 1.264158
425.70 1.263806
425.80 1.263453
425.90 1.263101
426.00 1.26275
426.10 1.262398
426.20 1.262046
426.30 1.261695
426.40 1.261344
426.50 1.260993
426.60 1.260643
426.70 1.260292
426.80 1.259942
426.90 1.259592
427.00 1.259248
427.10 1.258904
427.20 1.25856
427.30 1.258216
427.40 1.257873
427.50 1.25753
427.60 1.257187
427.70 1.256844
427.80 1.256501
427.90 1.256158
428.00 1.255816
428.10 1.255474
428.20 1.255132
428.30 1.25479
428.40 1.254449
428.50 1.254107
428.60 1.253766
428.70 1.253425
428.80 1.253083
428.90 1.252724
429.00 1.252366
429.10 1.252008
429.20 1.25165
429.30 1.251292
429.40 1.250935
429.50 1.250577
429.60 1.25022
429.70 1.249863
429.80 1.249507
429.90 1.24915
430.00 1.248794
430.10 1.248438
430.20 1.248082
430.30 1.247726
430.40 1.247371
430.50 1.247015
430.60 1.24666
430.70 1.246305
430.80 1.24595
430.90 1.245596
431.00 1.245241
431.10 1.244887
431.20 1.244533
431.30 1.244178
431.40 1.243804
431.50 1.243431
431.60 1.243057
431.70 1.242684
431.80 1.242311
431.90 1.241938
432.00 1.241565
432.10 1.241193
432.20 1.240821
432.30 1.240449
432.40 1.240077
432.50 1.239706
432.60 1.239334
432.70 1.238963
432.80 1.238592
432.90 1.238222
433.00 1.237851
433.10 1.237481
433.20 1.237111
433.30 1.236742
433.40 1.236389
433.50 1.236036
433.60 1.235683
433.70 1.235331
433.80 1.235004
433.90 1.234709
434.00 1.234353
434.10 1.23396
434.20 1.233567
434.30 1.233175
434.40 1.232783
434.50 1.232391
434.60 1.231999
434.70 1.231608
434.80 1.231218
434.90 1.230857
435.00 1.230496
435.10 1.230135
435.20 1.229774
435.30 1.229414
435.40 1.229053
435.50 1.228693
435.60 1.228333
435.70 1.227974
435.80 1.227614
435.90 1.227255
436.00 1.226896
436.10 1.226537
436.20 1.226178
436.30 1.22589
436.40 1.225676
436.50 1.225311
436.60 1.224946
436.70 1.224582
436.80 1.224218
436.90 1.223854
437.00 1.223491
437.10 1.223127
437.20 1.222767
437.30 1.222409
437.40 1.222049
437.50 1.221655
437.60 1.221261
437.70 1.220867
437.80 1.220473
437.90 1.22008
438.00 1.219689
438.10 1.21932
438.20 1.218951
438.30 1.218595
438.40 1.21845
438.50 1.21814
438.60 1.217813
438.70 1.217258
438.80 1.216991
438.90 1.216639
439.00 1.216102
439.10 1.215792
439.20 1.215484
439.30 1.215175
439.40 1.214866
439.50 1.214558
439.60 1.214232
439.70 1.21368
439.80 1.213229
439.90 1.2129
440.00 1.212571
440.10 1.212243
440.20 1.211912
440.30 1.211557
440.40 1.211201
440.50 1.210846
440.60 1.210491
440.70 1.210136
440.80 1.209781
440.90 1.209427
441.00 1.209072
441.10 1.208718
441.20 1.208351
441.30 1.207803
441.40 1.207405
441.50 1.207189
441.60 1.206972
441.70 1.206584
441.80 1.206186
441.90 1.205788
442.00 1.20539
442.10 1.204992
442.20 1.204594
442.30 1.204197
442.40 1.203805
442.50 1.203419
442.60 1.203033
442.70 1.202729
442.80 1.202543
442.90 1.202297
443.00 1.201918
443.10 1.201376
443.20 1.200954
443.30 1.200644
443.40 1.200339
443.50 1.200037
443.60 1.199628
443.70 1.199087
443.80 1.199026
443.90 1.198486
444.00 1.198054
444.10 1.197754
444.20 1.197346
444.30 1.197286
444.40 1.196747
444.50 1.196208
444.60 1.195782
444.70 1.195491
444.80 1.195194
444.90 1.194891
445.00 1.194589
445.10 1.194286
445.20 1.193951
445.30 1.193575
445.40 1.1932
445.50 1.192824
445.60 1.192449
445.70 1.192075
445.80 1.191677
445.90 1.19126
446.00 1.190842
446.10 1.190425
446.20 1.190429
446.30 1.189896
446.40 1.189424
446.50 1.18901
446.60 1.188596
446.70 1.188182
446.80 1.18783
446.90 1.187535
447.00 1.187259
447.10 1.187058
447.20 1.186527
447.30 1.185997
447.40 1.185938
447.50 1.185408
447.60 1.18504
447.70 1.18482
447.80 1.184401
447.90 1.184116
448.00 1.183786
448.10 1.183414
448.20 1.183043
448.30 1.182672
448.40 1.182301
448.50 1.18193
448.60 1.181578
448.70 1.181242
448.80 1.180901
448.90 1.180476
449.00 1.180052
449.10 1.179628
449.20 1.179204
449.30 1.179202
449.40 1.178677
449.50 1.178153
449.60 1.177726
449.70 1.177388
449.80 1.177051
449.90 1.176714
450.00 1.176377
450.10 1.17604
450.20 1.175704
450.30 1.175367
450.40 1.175
450.50 1.174634
450.60 1.174267
450.70 1.173901
450.80 1.173535
450.90 1.17317
451.00 1.172837
451.10 1.172504
451.20 1.172074
451.30 1.171554
451.40 1.171267
451.50 1.17098
451.60 1.170693
451.70 1.170406
451.80 1.169888
451.90 1.169832
452.00 1.169314
452.10 1.168797
452.20 1.168511
452.30 1.168225
452.40 1.167939
452.50 1.167654
452.60 1.167138
452.70 1.166728
452.80 1.166417
452.90 1.166105
453.00 1.165794
453.10 1.165483
453.20 1.165109
453.30 1.164735
453.40 1.164362
453.50 1.163988
453.60 1.163615
453.70 1.163242
453.80 1.162866
453.90 1.162487
454.00 1.162108
454.10 1.161729
454.20 1.161384
454.30 1.16104
454.40 1.160696
454.50 1.160352
454.60 1.160008
454.70 1.159645
454.80 1.159266
454.90 1.158886
455.00 1.158507
455.10 1.158128
455.20 1.157749
455.30 1.15737
455.40 1.156992
455.50 1.156613
455.60 1.156235
455.70 1.155858
455.80 1.155472
455.90 1.155087
456.00 1.154702
456.10 1.15433
456.20 1.153993
456.30 1.153656
456.40 1.153319
456.50 1.152983
456.60 1.152646
456.70 1.15231
456.80 1.151974
456.90 1.151638
457.00 1.151302
457.10 1.150966
457.20 1.150543
457.30 1.150167
457.40 1.14979
457.50 1.149414
457.60 1.149038
457.70 1.148662
457.80 1.148286
457.90 1.14791
458.00 1.147535
458.10 1.14716
458.20 1.146785
458.30 1.146411
458.40 1.146036
458.50 1.145662
458.60 1.145288
458.70 1.144937
458.80 1.144595
458.90 1.144253
459.00 1.143911
459.10 1.14357
459.20 1.143229
459.30 1.142887
459.40 1.142546
459.50 1.142204
459.60 1.141863
459.70 1.141523
459.80 1.141182
459.90 1.140841
460.00 1.140501
460.10 1.140161
460.20 1.139821
460.30 1.139481
460.40 1.139142
460.50 1.138802
460.60 1.138463
460.70 1.13808
460.80 1.137676
460.90 1.137272
461.00 1.136868
461.10 1.136464
461.20 1.136163
461.30 1.135902
461.40 1.13555
461.50 1.135174
461.60 1.134799
461.70 1.134424
461.80 1.134057
461.90 1.13369
462.00 1.133323
462.10 1.132956
462.20 1.132589
462.30 1.132223
462.40 1.131857
462.50 1.131491
462.60 1.131125
462.70 1.13076
462.80 1.130395
462.90 1.13003
463.00 1.129665
463.10 1.1293
463.20 1.128939
463.30 1.128579
463.40 1.128219
463.50 1.127859
463.60 1.1275
463.70 1.127141
463.80 1.126782
463.90 1.126408
464.00 1.126031
464.10 1.125654
464.20 1.125277
464.30 1.124901
464.40 1.124525
464.50 1.124149
464.60 1.123773
464.70 1.123422
464.80 1.123082
464.90 1.122742
465.00 1.122402
465.10 1.122062
465.20 1.121723
465.30 1.121388
465.40 1.121056
465.50 1.120725
465.60 1.120394
465.70 1.120063
465.80 1.119732
465.90 1.119366
466.00 1.118992
466.10 1.118618
466.20 1.118245
466.30 1.117888
466.40 1.117539
466.50 1.11719
466.60 1.116841
466.70 1.116493
466.80 1.116144
466.90 1.115796
467.00 1.115448
467.10 1.115101
467.20 1.114753
467.30 1.114313
467.40 1.113905
467.50 1.113513
467.60 1.113122
467.70 1.11273
467.80 1.112339
467.90 1.111965
468.00 1.111598
468.10 1.111231
468.20 1.110864
468.30 1.110573
468.40 1.110314
468.50 1.109903
468.60 1.109483
468.70 1.109385
468.80 1.108912
468.90 1.108439
469.00 1.108281
469.10 1.107999
469.20 1.107634
469.30 1.107269
469.40 1.106905
469.50 1.10653
469.60 1.106151
469.70 1.105773
469.80 1.105394
469.90 1.105009
470.00 1.104539
470.10 1.104192
470.20 1.103896
470.30 1.103601
470.40 1.103305
470.50 1.10301
470.60 1.102661
470.70 1.102299
470.80 1.101938
470.90 1.101576
471.00 1.10113
471.10 1.100662
471.20 1.100195
471.30 1.100153
471.40 1.099687
471.50 1.09922
471.60 1.098924
471.70 1.09867
471.80 1.098332
471.90 1.097972
472.00 1.097613
472.10 1.097254
472.20 1.096877
472.30 1.096495
472.40 1.096114
472.50 1.095734
472.60 1.095353
472.70 1.094914
472.80 1.094552
472.90 1.094216
473.00 1.093879
473.10 1.093544
473.20 1.093208
473.30 1.092872
473.40 1.092537
473.50 1.092202
473.60 1.091867
473.70 1.091532
473.80 1.091179
473.90 1.090821
474.00 1.090464
474.10 1.090107
474.20 1.089741
474.30 1.089372
474.40 1.089004
474.50 1.088636
474.60 1.08827
474.70 1.087926
474.80 1.087583
474.90 1.08724
475.00 1.086897
475.10 1.086554
475.20 1.086212
475.30 1.085869
475.40 1.085518
475.50 1.085165
475.60 1.084812
475.70 1.084459
475.80 1.084106
475.90 1.083753
476.00 1.083401
476.10 1.083049
476.20 1.082709
476.30 1.082375
476.40 1.082041
476.50 1.081707
476.60 1.081374
476.70 1.08104
476.80 1.080707
476.90 1.080351
477.00 1.07999
477.10 1.079629
477.20 1.079269
477.30 1.078908
477.40 1.078548
477.50 1.078187
477.60 1.077827
477.70 1.077468
477.80 1.077108
477.90 1.076749
478.00 1.07639
478.10 1.076031
478.20 1.075672
478.30 1.075314
478.40 1.074955
478.50 1.074597
478.60 1.074239
478.70 1.073817
478.80 1.073368
478.90 1.072984
479.00 1.072615
479.10 1.072247
479.20 1.071879
479.30 1.071512
479.40 1.071153
479.50 1.070799
479.60 1.070446
479.70 1.070092
479.80 1.06974
479.90 1.069387
480.00 1.069034
480.10 1.068682
480.20 1.06833
480.30 1.067978
480.40 1.067626
480.50 1.067274
480.60 1.066923
480.70 1.066572
480.80 1.066221
480.90 1.06587
481.00 1.065519
481.10 1.065169
481.20 1.064838
481.30 1.064508
481.40 1.064177
481.50 1.063847
481.60 1.063517
481.70 1.063187
481.80 1.062857
481.90 1.062528
482.00 1.062198
482.10 1.061869
482.20 1.061539
482.30 1.061185
482.40 1.060832
482.50 1.060478
482.60 1.060125
482.70 1.059772
482.80 1.05942
482.90 1.059067
483.00 1.058715
483.10 1.058363
483.20 1.058011
483.30 1.05766
483.40 1.057308
483.50 1.056957
483.60 1.056606
483.70 1.056245
483.80 1.055885
483.90 1.055525
484.00 1.055164
484.10 1.054805
484.20 1.054442
484.30 1.054078
484.40 1.053714
484.50 1.053351
484.60 1.052987
484.70 1.052625
484.80 1.05228
484.90 1.051934
485.00 1.051589
485.10 1.051244
485.20 1.050899
485.30 1.050554
485.40 1.05021
485.50 1.049866
485.60 1.049522
485.70 1.049199
485.80 1.048877
485.90 1.048555
486.00 1.048233
486.10 1.047912
486.20 1.04759
486.30 1.047269
486.40 1.046948
486.50 1.046627
486.60 1.046306
486.70 1.045978
486.80 1.045549
486.90 1.045119
487.00 1.04469
487.10 1.044261
487.20 1.043942
487.30 1.043622
487.40 1.043303
487.50 1.042984
487.60 1.042665
487.70 1.042347
487.80 1.042028
487.90 1.04171
488.00 1.041392
488.10 1.041074
488.20 1.040754
488.30 1.040406
488.40 1.040058
488.50 1.03971
488.60 1.039363
488.70 1.039015
488.80 1.03859
488.90 1.038165
489.00 1.037771
489.10 1.037455
489.20 1.03714
489.30 1.036824
489.40 1.036509
489.50 1.036193
489.60 1.035878
489.70 1.035563
489.80 1.035146
489.90 1.034801
490.00 1.034456
490.10 1.034112
490.20 1.033767
490.30 1.033423
490.40 1.033002
490.50 1.03258
490.60 1.03216
490.70 1.031739
490.80 1.03171
490.90 1.03129
491.00 1.03087
491.10 1.03045
491.20 1.030031
491.30 1.030003
491.40 1.029583
491.50 1.029164
491.60 1.028801
491.70 1.028556
491.80 1.028299
491.90 1.027881
492.00 1.027464
492.10 1.027046
492.20 1.026629
492.30 1.026475
492.40 1.026184
492.50 1.025768
492.60 1.025358
492.70 1.025039
492.80 1.02472
492.90 1.024402
493.00 1.024082
493.10 1.023743
493.20 1.023404
493.30 1.023066
493.40 1.022728
493.50 1.02239
493.60 1.021976
493.70 1.021562
493.80 1.021148
493.90 1.020807
494.00 1.020581
494.10 1.020318
494.20 1.019979
494.30 1.01964
494.40 1.019301
494.50 1.018963
494.60 1.018619
494.70 1.018207
494.80 1.017826
494.90 1.017533
495.00 1.01724
495.10 1.016948
495.20 1.016577
495.30 1.016206
495.40 1.015836
495.50 1.015465
495.60 1.015095
495.70 1.014725
495.80 1.014356
495.90 1.013986
496.00 1.013617
496.10 1.013334
496.20 1.013211
496.30 1.012802
496.40 1.012394
496.50 1.011986
496.60 1.011579
496.70 1.011228
496.80 1.010878
496.90 1.010528
497.00 1.010178
497.10 1.009828
497.20 1.009479
497.30 1.009149
497.40 1.008873
497.50 1.008597
497.60 1.00828
497.70 1.00788
497.80 1.007559
497.90 1.007239
498.00 1.006918
498.10 1.006598
498.20 1.006278
498.30 1.005958
498.40 1.005638
498.50 1.005318
498.60 1.004999
498.70 1.004596
498.80 1.004193
498.90 1.003893
499.00 1.003594
499.10 1.003295
499.20 1.002963
499.30 1.002561
499.40 1.00216
499.50 1.001758
499.60 1.001358
499.70 1.000962
499.80 1.000641
499.90 1.000321
500.00 1
500.10 0.9996796
500.20 0.999354
500.30 0.9990174
500.40 0.998681
500.50 0.9983448
500.60 0.9980087
500.70 0.9976729
500.80 0.9973534
500.90 0.9970685
501.00 0.9967838
501.10 0.9964992
501.20 0.9961016
501.30 0.9957042
501.40 0.9953071
501.50 0.9949102
501.60 0.9945136
501.70 0.9944921
501.80 0.9940958
501.90 0.9936997
502.00 0.9933039
502.10 0.9929082
502.20 0.9925278
502.30 0.9923464
502.40 0.9920968
502.50 0.9917019
502.60 0.9913073
502.70 0.990913
502.80 0.9905189
502.90 0.990125
503.00 0.9897607
503.10 0.9894592
503.20 0.9891577
503.30 0.9888565
503.40 0.9885549
503.50 0.9882522
503.60 0.9879497
503.70 0.9876473
503.80 0.9873343
503.90 0.9869425
504.00 0.9865802
504.10 0.9862803
504.20 0.9859805
504.30 0.985681
504.40 0.9853578
504.50 0.9849672
504.60 0.9845768
504.70 0.9841867
504.80 0.9837968
504.90 0.9834072
505.00 0.9830659
505.10 0.9828616
505.20 0.9826094
505.30 0.9822205
505.40 0.9818319
505.50 0.9814434
505.60 0.9810747
505.70 0.9807477
505.80 0.9804208
505.90 0.9800941
506.00 0.9797676
506.10 0.9794412
506.20 0.97911
506.30 0.9787645
506.40 0.9784191
506.50 0.978074
506.60 0.977729
506.70 0.9773842
506.80 0.9770397
506.90 0.9766953
507.00 0.9763511
507.10 0.9761048
507.20 0.975988
507.30 0.9756491
507.40 0.9753104
507.50 0.9749719
507.60 0.9746336
507.70 0.9742955
507.80 0.9739575
507.90 0.9736198
508.00 0.9732822
508.10 0.9729449
508.20 0.9726077
508.30 0.9722707
508.40 0.9719339
508.50 0.9715973
508.60 0.9712609
508.70 0.9709246
508.80 0.9705768
508.90 0.9701954
509.00 0.9698142
509.10 0.9694525
509.20 0.9691322
509.30 0.968812
509.40 0.968492
509.50 0.9681721
509.60 0.9678525
509.70 0.967533
509.80 0.9672137
509.90 0.9668945
510.00 0.9665756
510.10 0.9662568
510.20 0.9659382
510.30 0.9656114
510.40 0.9652611
510.50 0.964911
510.60 0.964561
510.70 0.9642113
510.80 0.9638617
510.90 0.9635124
511.00 0.9631633
511.10 0.9628143
511.20 0.9624656
511.30 0.9621171
511.40 0.9617687
511.50 0.9614206
511.60 0.9610801
511.70 0.9607555
511.80 0.9604312
511.90 0.960107
512.00 0.959783
512.10 0.9594591
512.20 0.9591355
512.30 0.9588102
512.40 0.9584798
512.50 0.9581496
512.60 0.9578196
512.70 0.9574898
512.80 0.9571602
512.90 0.9568308
513.00 0.9565015
513.10 0.9561724
513.20 0.9558435
513.30 0.9555148
513.40 0.9551863
513.50 0.954858
513.60 0.9545298
513.70 0.9542018
513.80 0.9538741
513.90 0.9535464
514.00 0.9532174
514.10 0.9528883
514.20 0.9525594
514.30 0.9522306
514.40 0.9519021
514.50 0.9515737
514.60 0.9512455
514.70 0.9509175
514.80 0.9505897
514.90 0.9502621
515.00 0.9499346
515.10 0.9496073
515.20 0.9492803
515.30 0.9489533
515.40 0.9486266
515.50 0.9483001
515.60 0.9479737
515.70 0.9476475
515.80 0.9473215
515.90 0.9469957
516.00 0.9466701
516.10 0.9463446
516.20 0.9460194
516.30 0.9456943
516.40 0.9453693
516.50 0.9450446
516.60 0.9447201
516.70 0.9443957
516.80 0.9440716
516.90 0.9437476
517.00 0.9434238
517.10 0.9431001
517.20 0.9427767
517.30 0.9424534
517.40 0.9421303
517.50 0.9418074
517.60 0.9414846
517.70 0.9411621
517.80 0.9408397
517.90 0.9405175
518.00 0.9401955
518.10 0.9398736
518.20 0.939552
518.30 0.9392305
518.40 0.9389092
518.50 0.9385881
518.60 0.9382671
518.70 0.9379463
518.80 0.9376257
518.90 0.9373053
519.00 0.9369851
519.10 0.9366616
519.20 0.9363346
519.30 0.9360077
519.40 0.935681
519.50 0.9353545
519.60 0.9350282
519.70 0.9347021
519.80 0.9343761
519.90 0.9340504
520.00 0.9337248
520.10 0.9333994
520.20 0.9330741
520.30 0.9327491
520.40 0.9324242
520.50 0.9320995
520.60 0.931775
520.70 0.9314507
520.80 0.9311265
520.90 0.9308026
521.00 0.9304788
521.10 0.9301552
521.20 0.9298317
521.30 0.9295085
521.40 0.9291854
521.50 0.9288625
521.60 0.9285398
521.70 0.9282173
521.80 0.927895
521.90 0.9275728
522.00 0.9272508
522.10 0.926929
522.20 0.9266073
522.30 0.9262859
522.40 0.9259646
522.50 0.9256435
522.60 0.9253226
522.70 0.9250018
522.80 0.9246813
522.90 0.9243609
523.00 0.9240407
523.10 0.9237206
523.20 0.9234008
523.30 0.9230811
523.40 0.9227616
523.50 0.9224423
523.60 0.9221231
523.70 0.9218041
523.80 0.9214853
523.90 0.9211667
524.00 0.9208483
524.10 0.92053
524.20 0.9202119
524.30 0.9198901
524.40 0.9195655
524.50 0.9192411
524.60 0.9189169
524.70 0.9185928
524.80 0.9182689
524.90 0.9179452
525.00 0.9176217
525.10 0.9172983
525.20 0.9169751
525.30 0.9166521
525.40 0.9163293
525.50 0.9160067
525.60 0.9156843
525.70 0.915362
525.80 0.9150399
525.90 0.914718
526.00 0.9143962
526.10 0.9140747
526.20 0.9137533
526.30 0.9134321
526.40 0.9131111
526.50 0.9127902
526.60 0.9124696
526.70 0.9121491
526.80 0.9118288
526.90 0.9115086
527.00 0.9111887
527.10 0.9108689
527.20 0.9105493
527.30 0.9102299
527.40 0.9099106
527.50 0.9095915
527.60 0.9092726
527.70 0.9089539
527.80 0.9086354
527.90 0.908317
528.00 0.9079988
528.10 0.9076808
528.20 0.907363
528.30 0.9070453
528.40 0.9067278
528.50 0.9064105
528.60 0.9060934
528.70 0.9057764
528.80 0.9054596
528.90 0.905143
529.00 0.9048265
529.10 0.9045103
529.20 0.9041942
529.30 0.9038783
529.40 0.9035625
529.50 0.9032469
529.60 0.9029313
529.70 0.9026158
529.80 0.9023005
529.90 0.9019854
530.00 0.9016704
530.10 0.9013556
530.20 0.901041
530.30 0.9007265
530.40 0.9004123
530.50 0.9000982
530.60 0.8997843
530.70 0.8994705
530.80 0.8991569
530.90 0.8988435
531.00 0.8985303
531.10 0.8982172
531.20 0.8979044
531.30 0.8975916
531.40 0.8972791
531.50 0.8969667
531.60 0.8966545
531.70 0.8963425
531.80 0.8960306
531.90 0.8957189
532.00 0.8954074
532.10 0.8950961
532.20 0.8947849
532.30 0.8944739
532.40 0.8941631
532.50 0.8938524
532.60 0.893542
532.70 0.8932316
532.80 0.8929215
532.90 0.8926115
533.00 0.8923017
533.10 0.8919921
533.20 0.8916826
533.30 0.8913733
533.40 0.8910642
533.50 0.8907553
533.60 0.8904465
533.70 0.8901378
533.80 0.8898294
533.90 0.8895211
534.00 0.889213
534.10 0.8889051
534.20 0.8885973
534.30 0.8882897
534.40 0.8879822
534.50 0.887675
534.60 0.8873679
534.70 0.8870609
534.80 0.8867529
534.90 0.8864399
535.00 0.8861271
535.10 0.8858144
535.20 0.8855019
535.30 0.8851895
535.40 0.8848774
535.50 0.8845654
535.60 0.8842536
535.70 0.8839419
535.80 0.8836304
535.90 0.8833191
536.00 0.883008
536.10 0.882697
536.20 0.8823862
536.30 0.8820756
536.40 0.8817652
536.50 0.8814549
536.60 0.8811448
536.70 0.8808348
536.80 0.880525
536.90 0.8802154
537.00 0.879906
537.10 0.8795967
537.20 0.8792876
537.30 0.8789787
537.40 0.8786699
537.50 0.8783614
537.60 0.8780529
537.70 0.8777447
537.80 0.8774366
537.90 0.8771287
538.00 0.8768209
538.10 0.8765134
538.20 0.8762059
538.30 0.8758987
538.40 0.8755916
538.50 0.8752847
538.60 0.874978
538.70 0.8746714
538.80 0.874365
538.90 0.8740588
539.00 0.8737527
539.10 0.8734468
539.20 0.8731411
539.30 0.8728355
539.40 0.8725301
539.50 0.8722248
539.60 0.8719198
539.70 0.8716149
539.80 0.8713101
539.90 0.8710056
540.00 0.8707011
540.10 0.8703969
540.20 0.8700885
540.30 0.8697784
540.40 0.8694685
540.50 0.8691587
540.60 0.8688492
540.70 0.8685398
540.80 0.8682306
540.90 0.8679215
541.00 0.8676126
541.10 0.8673039
541.20 0.8669953
541.30 0.866687
541.40 0.8663788
541.50 0.8660707
541.60 0.8657628
541.70 0.8654551
541.80 0.8651476
541.90 0.8648402
542.00 0.864533
542.10 0.864226
542.20 0.8639191
542.30 0.8636124
542.40 0.8633059
542.50 0.8629995
542.60 0.8626933
542.70 0.8623873
542.80 0.8620814
542.90 0.8617757
543.00 0.8614702
543.10 0.8611649
543.20 0.8608597
543.30 0.8605546
543.40 0.8602498
543.50 0.8599451
543.60 0.8596405
543.70 0.8593362
543.80 0.859032
543.90 0.8587279
544.00 0.8584241
544.10 0.8581204
544.20 0.8578168
544.30 0.8575134
544.40 0.8572102
544.50 0.8569072
544.60 0.8566043
544.70 0.8563016
544.80 0.8559991
544.90 0.8556967
545.00 0.8553944
545.10 0.8550924
545.20 0.8547905
545.30 0.8544888
545.40 0.8541872
545.50 0.8538858
545.60 0.8535845
545.70 0.8532833
545.80 0.8529823
545.90 0.8526814
546.00 0.8523807
546.10 0.8520802
546.20 0.8517798
546.30 0.8514796
546.40 0.8511795
546.50 0.8508796
546.60 0.8505799
546.70 0.8502803
546.80 0.8499809
546.90 0.8496817
547.00 0.8493826
547.10 0.8490837
547.20 0.8487849
547.30 0.8484864
547.40 0.8481879
547.50 0.8478896
547.60 0.8475915
547.70 0.8472936
547.80 0.8469958
547.90 0.8466982
548.00 0.8464007
548.10 0.8461034
548.20 0.8458063
548.30 0.8455093
548.40 0.8452125
548.50 0.8449158
548.60 0.8446193
548.70 0.844323
548.80 0.8440268
548.90 0.8437308
549.00 0.8434349
549.10 0.8431392
549.20 0.8428437
549.30 0.8425483
549.40 0.8422531
549.50 0.841958
549.60 0.8416631
549.70 0.8413684
549.80 0.8410738
549.90 0.8407794
550.00 0.8404851
550.10 0.840191
550.20 0.839897
550.30 0.8396032
550.40 0.8393096
550.50 0.8390161
550.60 0.8387228
550.70 0.8384297
550.80 0.8381366
550.90 0.8378438
551.00 0.8375494
551.10 0.8372455
551.20 0.8369417
551.30 0.8366381
551.40 0.8363347
551.50 0.8360314
551.60 0.8357283
551.70 0.8354254
551.80 0.8351226
551.90 0.83482
552.00 0.8345176
552.10 0.8342153
552.20 0.8339132
552.30 0.8336112
552.40 0.8333094
552.50 0.8330078
552.60 0.8327063
552.70 0.832405
552.80 0.8321039
552.90 0.8318029
553.00 0.8315021
553.10 0.8312015
553.20 0.830901
553.30 0.8306007
553.40 0.8303005
553.50 0.8300006
553.60 0.8297007
553.70 0.8294011
553.80 0.8291083
553.90 0.8288201
554.00 0.8285321
554.10 0.8282442
554.20 0.8279565
554.30 0.8276689
554.40 0.8273815
554.50 0.8270942
554.60 0.8268071
554.70 0.8265202
554.80 0.8262334
554.90 0.8259468
555.00 0.8256603
555.10 0.8253739
555.20 0.8250877
555.30 0.8248017
555.40 0.8245158
555.50 0.8242301
555.60 0.8239445
555.70 0.8236591
555.80 0.8233738
555.90 0.8230887
556.00 0.8228038
556.10 0.822519
556.20 0.8222343
556.30 0.8219498
556.40 0.8216654
556.50 0.8213807
556.60 0.8210855
556.70 0.8207906
556.80 0.8204958
556.90 0.8202011
557.00 0.8199067
557.10 0.8196123
557.20 0.8193182
557.30 0.8190242
557.40 0.8187303
557.50 0.8184366
557.60 0.8181431
557.70 0.8178497
557.80 0.8175565
557.90 0.8172635
558.00 0.8169706
558.10 0.8166778
558.20 0.8163852
558.30 0.8160928
558.40 0.8158005
558.50 0.8155084
558.60 0.8152165
558.70 0.8149247
558.80 0.814633
558.90 0.8143415
559.00 0.8140502
559.10 0.813759
559.20 0.813468
559.30 0.8131772
559.40 0.8128865
559.50 0.8125959
559.60 0.8123055
559.70 0.8120153
559.80 0.8117252
559.90 0.8114353
560.00 0.8111455
560.10 0.8108559
560.20 0.8105664
560.30 0.8102771
560.40 0.8099879
560.50 0.8096989
560.60 0.8094101
560.70 0.8091214
560.80 0.8088329
560.90 0.8085445
561.00 0.8082563
561.10 0.8079682
561.20 0.8076803
561.30 0.8073925
561.40 0.8071049
561.50 0.8068175
561.60 0.8065302
561.70 0.806243
561.80 0.805956
561.90 0.8056692
562.00 0.8053825
562.10 0.8050959
562.20 0.8048096
562.30 0.8045233
562.40 0.8042373
562.50 0.8039513
562.60 0.8036656
562.70 0.8033799
562.80 0.8030945
562.90 0.8028091
563.00 0.802524
563.10 0.802239
563.20 0.8019541
563.30 0.8016694
563.40 0.8013848
563.50 0.8011004
563.60 0.8008162
563.70 0.8005321
563.80 0.8002481
563.90 0.7999643
564.00 0.7996807
564.10 0.7993972
564.20 0.7991138
564.30 0.7988306
564.40 0.7985476
564.50 0.7982647
564.60 0.7979819
564.70 0.7976993
564.80 0.7974169
564.90 0.7971315
565.00 0.7968389
565.10 0.7965464
565.20 0.796254
565.30 0.7959618
565.40 0.7956698
565.50 0.7953779
565.60 0.7950862
565.70 0.7947946
565.80 0.7945032
565.90 0.7942119
566.00 0.7939208
566.10 0.7936299
566.20 0.7933391
566.30 0.7930485
566.40 0.792758
566.50 0.7924677
566.60 0.7921775
566.70 0.7918875
566.80 0.7915976
566.90 0.7913079
567.00 0.7910184
567.10 0.790729
567.20 0.7904398
567.30 0.7901507
567.40 0.7898618
567.50 0.789573
567.60 0.7892844
567.70 0.7889969
567.80 0.7887139
567.90 0.788431
568.00 0.7881482
568.10 0.7878656
568.20 0.7875832
568.30 0.7873009
568.40 0.7870187
568.50 0.7867367
568.60 0.7864549
568.70 0.7861732
568.80 0.7858917
568.90 0.7856103
569.00 0.785329
569.10 0.7850479
569.20 0.784767
569.30 0.7844862
569.40 0.7842055
569.50 0.783925
569.60 0.7836447
569.70 0.7833644
569.80 0.7830844
569.90 0.7828045
570.00 0.7825247
570.10 0.7822451
570.20 0.7819656
570.30 0.7816863
570.40 0.7814071
570.50 0.7811281
570.60 0.7808493
570.70 0.7805705
570.80 0.7802919
570.90 0.7800135
571.00 0.7797352
571.10 0.7794571
571.20 0.7791791
571.30 0.7789013
571.40 0.7786236
571.50 0.778346
571.60 0.7780686
571.70 0.7777913
571.80 0.7775142
571.90 0.7772373
572.00 0.7769604
572.10 0.7766838
572.20 0.7764072
572.30 0.7761309
572.40 0.7758546
572.50 0.7755785
572.60 0.7753026
572.70 0.7750268
572.80 0.7747511
572.90 0.7744756
573.00 0.7742003
573.10 0.7739251
573.20 0.77365
573.30 0.773375
573.40 0.7730995
573.50 0.7728231
573.60 0.7725468
573.70 0.7722707
573.80 0.7719948
573.90 0.7717189
574.00 0.7714432
574.10 0.7711677
574.20 0.7708923
574.30 0.7706171
574.40 0.770342
574.50 0.770067
574.60 0.7697922
574.70 0.7695175
574.80 0.769243
574.90 0.7689686
575.00 0.7686944
575.10 0.7684203
575.20 0.7681464
575.30 0.7678725
575.40 0.7675989
575.50 0.7673254
575.60 0.767052
575.70 0.7667788
575.80 0.7665057
575.90 0.7662328
576.00 0.76596
576.10 0.7656873
576.20 0.7654148
576.30 0.7651424
576.40 0.7648702
576.50 0.7645981
576.60 0.7643262
576.70 0.7640544
576.80 0.7637827
576.90 0.7635112
577.00 0.7632398
577.10 0.7629686
577.20 0.7626975
577.30 0.7624266
577.40 0.7621558
577.50 0.7618851
577.60 0.7616172
577.70 0.7613535
577.80 0.76109
577.90 0.7608266
578.00 0.7605634
578.10 0.7603003
578.20 0.7600373
578.30 0.7597745
578.40 0.7595118
578.50 0.7592492
578.60 0.7589868
578.70 0.7587245
578.80 0.7584624
578.90 0.7582004
579.00 0.7579385
579.10 0.7576741
579.20 0.7573836
579.30 0.7570931
579.40 0.7568029
579.50 0.7565128
579.60 0.7562228
579.70 0.755933
579.80 0.7556433
579.90 0.7553538
580.00 0.7550645
580.10 0.7547863
580.20 0.7545261
580.30 0.7542661
580.40 0.7540062
580.50 0.7537465
580.60 0.7534868
580.70 0.7532274
580.80 0.752968
580.90 0.7527088
581.00 0.7524497
581.10 0.7521907
581.20 0.7519319
581.30 0.7516732
581.40 0.7514147
581.50 0.7511563
581.60 0.750898
581.70 0.7506398
581.80 0.7503818
581.90 0.7501239
582.00 0.7498662
582.10 0.7496015
582.20 0.7493255
582.30 0.7490496
582.40 0.7487738
582.50 0.7484982
582.60 0.7482227
582.70 0.7479474
582.80 0.7476722
582.90 0.7473972
583.00 0.7471223
583.10 0.7468475
583.20 0.7465729
583.30 0.7462985
583.40 0.7460242
583.50 0.74575
583.60 0.745475
583.70 0.7451986
583.80 0.7449224
583.90 0.7446463
584.00 0.7443703
584.10 0.7440945
584.20 0.7438188
584.30 0.7435433
584.40 0.7432679
584.50 0.7429927
584.60 0.7427176
584.70 0.7424427
584.80 0.7421679
584.90 0.741897
585.00 0.7416434
585.10 0.7413899
585.20 0.7411365
585.30 0.7408833
585.40 0.7406302
585.50 0.7403772
585.60 0.7401244
585.70 0.7398717
585.80 0.7396191
585.90 0.7393666
586.00 0.7391143
586.10 0.7388621
586.20 0.7386101
586.30 0.7383581
586.40 0.7381063
586.50 0.7378546
586.60 0.7376031
586.70 0.7373517
586.80 0.7370743
586.90 0.7367547
587.00 0.7364352
587.10 0.7361159
587.20 0.7358227
587.30 0.7355722
587.40 0.7353218
587.50 0.7350715
587.60 0.7348213
587.70 0.7345712
587.80 0.7343213
587.90 0.7340715
588.00 0.7338219
588.10 0.7335723
588.20 0.7333229
588.30 0.7330736
588.40 0.7328245
588.50 0.7325755
588.60 0.7323266
588.70 0.7320778
588.80 0.7318291
588.90 0.7315806
589.00 0.7313219
589.10 0.7310464
589.20 0.7307711
589.30 0.7304959
589.40 0.7302209
589.50 0.729946
589.60 0.7296713
589.70 0.7293967
589.80 0.7291223
589.90 0.7288479
590.00 0.7285841
590.10 0.7283372
590.20 0.7280904
590.30 0.7278437
590.40 0.7275972
590.50 0.7273508
590.60 0.7271045
590.70 0.7268583
590.80 0.7265898
590.90 0.7263114
591.00 0.7260331
591.10 0.725755
591.20 0.725477
591.30 0.7251991
591.40 0.7249214
591.50 0.7246439
591.60 0.7243719
591.70 0.7241091
591.80 0.7238465
591.90 0.723584
592.00 0.7233216
592.10 0.7230593
592.20 0.7227972
592.30 0.7225352
592.40 0.7222734
592.50 0.7220117
592.60 0.7217501
592.70 0.7214887
592.80 0.7212274
592.90 0.7209662
593.00 0.7207052
593.10 0.720446
593.20 0.7201897
593.30 0.7199335
593.40 0.7196775
593.50 0.7194216
593.60 0.7191658
593.70 0.7189102
593.80 0.7186547
593.90 0.7183993
594.00 0.7181441
594.10 0.717889
594.20 0.717634
594.30 0.7173791
594.40 0.7171244
594.50 0.7168698
594.60 0.7166154
594.70 0.716361
594.80 0.7161068
594.90 0.7158528
595.00 0.7155989
595.10 0.7153437
595.20 0.7150864
595.30 0.7148293
595.40 0.7145723
595.50 0.7143155
595.60 0.7140587
595.70 0.7138021
595.80 0.7135457
595.90 0.7132893
596.00 0.7130331
596.10 0.7127771
596.20 0.7125211
596.30 0.7122653
596.40 0.7120097
596.50 0.7117541
596.60 0.7114987
596.70 0.7112361
596.80 0.7109691
596.90 0.7107022
597.00 0.7104355
597.10 0.7101689
597.20 0.7099024
597.30 0.7096361
597.40 0.7093699
597.50 0.7091039
597.60 0.7088431
597.70 0.7085907
597.80 0.7083384
597.90 0.7080863
598.00 0.7078344
598.10 0.7075825
598.20 0.7073308
598.30 0.7070792
598.40 0.7068277
598.50 0.7065764
598.60 0.7063251
598.70 0.7060741
598.80 0.7058231
598.90 0.7055723
599.00 0.7053216
599.10 0.705071
599.20 0.7048206
599.30 0.7045702
599.40 0.704322
599.50 0.704074
599.60 0.703826
599.70 0.7035782
599.80 0.7033305
599.90 0.7030829
600.00 0.7028354
600.10 0.7025881
600.20 0.7023409
600.30 0.7020938
600.40 0.7018469
600.50 0.7016001
600.60 0.7013534
600.70 0.7011068
600.80 0.7008604
600.90 0.700614
601.00 0.7003678
601.10 0.7001218
601.20 0.6998758
601.30 0.69963
601.40 0.6993774
601.50 0.6991248
601.60 0.6988725
601.70 0.6986202
601.80 0.6983681
601.90 0.6981161
602.00 0.6978642
602.10 0.6976125
602.20 0.6973608
602.30 0.6971094
602.40 0.696858
602.50 0.6966068
602.60 0.6963557
602.70 0.6961236
602.80 0.6958927
602.90 0.6956456
603.00 0.6953987
603.10 0.6951519
603.20 0.6949052
603.30 0.6946586
603.40 0.6944122
603.50 0.6941659
603.60 0.6939197
603.70 0.6936737
603.80 0.6934277
603.90 0.6931819
604.00 0.6929362
604.10 0.6926907
604.20 0.6924453
604.30 0.6921999
604.40 0.6919548
604.50 0.6917
604.60 0.6914454
604.70 0.6911909
604.80 0.6909366
604.90 0.6906823
605.00 0.6904282
605.10 0.6901743
605.20 0.6899204
605.30 0.6896667
605.40 0.6894132
605.50 0.6891426
605.60 0.6888721
605.70 0.6886018
605.80 0.6883316
605.90 0.6880616
606.00 0.6877917
606.10 0.6875647
606.20 0.6873379
606.30 0.6871112
606.40 0.6868846
606.50 0.6866581
606.60 0.6864317
606.70 0.6862054
606.80 0.6859793
606.90 0.6857532
607.00 0.6855273
607.10 0.6851735
607.20 0.6848198
607.30 0.6845943
607.40 0.6843689
607.50 0.6841436
607.60 0.6839184
607.70 0.6836933
607.80 0.6834684
607.90 0.6832435
608.00 0.6830188
608.10 0.6827942
608.20 0.6825697
608.30 0.6822861
608.40 0.6820027
608.50 0.6817194
608.60 0.6814362
608.70 0.681194
608.80 0.6809703
608.90 0.6807466
609.00 0.6805231
609.10 0.6802996
609.20 0.6800763
609.30 0.6798213
609.40 0.6795665
609.50 0.6793117
609.60 0.6790571
609.70 0.6788027
609.80 0.6785483
609.90 0.6782941
610.00 0.67804
610.10 0.6777861
610.20 0.6775322
610.30 0.6772786
610.40 0.677025
610.50 0.6767716
610.60 0.6765183
610.70 0.6762651
610.80 0.676012
610.90 0.6757739
611.00 0.6755358
611.10 0.6752979
611.20 0.6750601
611.30 0.6748224
611.40 0.6745849
611.50 0.6743474
611.60 0.6741101
611.70 0.6738729
611.80 0.6736358
611.90 0.6733989
612.00 0.673162
612.10 0.6729253
612.20 0.6726887
612.30 0.6724522
612.40 0.6722074
612.50 0.6719628
612.60 0.6717183
612.70 0.6714739
612.80 0.6712296
612.90 0.6709855
613.00 0.6707415
613.10 0.6704976
613.20 0.6702538
613.30 0.6700101
613.40 0.6697666
613.50 0.6695232
613.60 0.6692799
613.70 0.6690368
613.80 0.6687937
613.90 0.6685508
614.00 0.668308
614.10 0.6680654
614.20 0.6678228
614.30 0.6675804
614.40 0.6673631
614.50 0.6671459
614.60 0.6669288
614.70 0.6667119
614.80 0.6664751
614.90 0.6662344
615.00 0.6659938
615.10 0.6657533
615.20 0.6655129
615.30 0.6652727
615.40 0.6650326
615.50 0.6647926
615.60 0.6645527
615.70 0.6643129
615.80 0.6640733
615.90 0.6638338
616.00 0.6635944
616.10 0.6633551
616.20 0.6631159
616.30 0.6628769
616.40 0.662638
616.50 0.6623992
616.60 0.6621605
616.70 0.661922
616.80 0.6616835
616.90 0.6614446
617.00 0.6612058
617.10 0.6609672
617.20 0.6607286
617.30 0.6604902
617.40 0.6602519
617.50 0.6600137
617.60 0.6597756
617.70 0.6595376
617.80 0.6592998
617.90 0.6590621
618.00 0.6588245
618.10 0.658587
618.20 0.6583497
618.30 0.6581124
618.40 0.6578753
618.50 0.6576383
618.60 0.6574014
618.70 0.6571646
618.80 0.656928
618.90 0.6566915
619.00 0.6564551
619.10 0.6562188
619.20 0.6559826
619.30 0.6557466
619.40 0.6555106
619.50 0.6552748
619.60 0.6550391
619.70 0.6548035
619.80 0.6545681
619.90 0.6543327
620.00 0.6540975
620.10 0.6538624
620.20 0.6536274
620.30 0.6533925
620.40 0.6531578
620.50 0.6529231
620.60 0.6526886
620.70 0.6524542
620.80 0.6522199
620.90 0.6519859
621.00 0.6517523
621.10 0.6515188
621.20 0.6512854
621.30 0.6510522
621.40 0.650819
621.50 0.650586
621.60 0.6503531
621.70 0.6501203
621.80 0.6498876
621.90 0.649655
622.00 0.6494226
622.10 0.6491902
622.20 0.648958
622.30 0.6487259
622.40 0.6484939
622.50 0.648262
622.60 0.6480303
622.70 0.6477986
622.80 0.6475671
622.90 0.6473357
623.00 0.6471044
623.10 0.6468732
623.20 0.6466422
623.30 0.6464112
623.40 0.6461804
623.50 0.6459497
623.60 0.645719
623.70 0.6454886
623.80 0.6452582
623.90 0.6450279
624.00 0.6447978
624.10 0.6445677
624.20 0.6443378
624.30 0.644108
624.40 0.6438783
624.50 0.6436487
624.60 0.6434193
624.70 0.6431899
624.80 0.6429607
624.90 0.6427316
625.00 0.6425026
625.10 0.6422737
625.20 0.6420449
625.30 0.6418162
625.40 0.6415877
625.50 0.6413592
625.60 0.6411309
625.70 0.6409027
625.80 0.6406746
625.90 0.6404466
626.00 0.6402187
626.10 0.639991
626.20 0.6397633
626.30 0.6395358
626.40 0.6393084
626.50 0.639081
626.60 0.6388539
626.70 0.6386268
626.80 0.6383998
626.90 0.6381729
627.00 0.6379462
627.10 0.6377175
627.20 0.6374836
627.30 0.6372498
627.40 0.637016
627.50 0.6367824
627.60 0.6365489
627.70 0.6363156
627.80 0.6360823
627.90 0.6358492
628.00 0.6356162
628.10 0.6353833
628.20 0.6351505
628.30 0.6349178
628.40 0.6346852
628.50 0.6344528
628.60 0.6342205
628.70 0.6339883
628.80 0.6337562
628.90 0.6335242
629.00 0.6332923
629.10 0.6330606
629.20 0.632829
629.30 0.6325974
629.40 0.632366
629.50 0.6321348
629.60 0.6319036
629.70 0.6316725
629.80 0.6314416
629.90 0.6312108
630.00 0.6309801
630.10 0.6307495
630.20 0.630519
630.30 0.6302956
630.40 0.6300729
630.50 0.6298504
630.60 0.6296279
630.70 0.6294056
630.80 0.6291833
630.90 0.6289612
631.00 0.6287392
631.10 0.6285173
631.20 0.6282955
631.30 0.6280738
631.40 0.6278522
631.50 0.6276307
631.60 0.6274094
631.70 0.6271881
631.80 0.626967
631.90 0.6267459
632.00 0.626525
632.10 0.6263042
632.20 0.6260835
632.30 0.6258629
632.40 0.6256424
632.50 0.625422
632.60 0.6252017
632.70 0.6249816
632.80 0.6247615
632.90 0.6245415
633.00 0.6243217
633.10 0.6241019
633.20 0.6238823
633.30 0.6236628
633.40 0.6234393
633.50 0.6232128
633.60 0.6229864
633.70 0.6227601
633.80 0.6225339
633.90 0.6223078
634.00 0.6220819
634.10 0.621856
634.20 0.6216303
634.30 0.6214047
634.40 0.6211791
634.50 0.6209537
634.60 0.6207284
634.70 0.6205032
634.80 0.6202782
634.90 0.6200532
635.00 0.6198284
635.10 0.6196036
635.20 0.619379
635.30 0.6191545
635.40 0.6189301
635.50 0.6187058
635.60 0.6184816
635.70 0.6182575
635.80 0.6180335
635.90 0.6178097
636.00 0.6175859
636.10 0.6173623
636.20 0.6171388
636.30 0.6169154
636.40 0.616692
636.50 0.6164689
636.60 0.6162458
636.70 0.6160228
636.80 0.6157999
636.90 0.6155772
637.00 0.6153546
637.10 0.615132
637.20 0.6149096
637.30 0.6146873
637.40 0.6144651
637.50 0.614243
637.60 0.614021
637.70 0.6137992
637.80 0.6135774
637.90 0.6133557
638.00 0.6131342
638.10 0.6129127
638.20 0.6126914
638.30 0.6124702
638.40 0.6122491
638.50 0.6120281
638.60 0.6118072
638.70 0.6115864
638.80 0.6113657
638.90 0.6111451
639.00 0.6109247
639.10 0.6107043
639.20 0.6104841
639.30 0.6102639
639.40 0.6100439
639.50 0.609824
639.60 0.6096042
639.70 0.6093845
639.80 0.6091652
639.90 0.608946
640.00 0.6087269
640.10 0.6085079
640.20 0.6082891
640.30 0.6080703
640.40 0.6078516
640.50 0.6076331
640.60 0.6074146
640.70 0.6071963
640.80 0.606978
640.90 0.6067599
641.00 0.6065419
641.10 0.6063239
641.20 0.6061061
641.30 0.6058884
641.40 0.6056708
641.50 0.6054533
641.60 0.6052359
641.70 0.6050187
641.80 0.6048015
641.90 0.6045844
642.00 0.6043674
642.10 0.6041506
642.20 0.6039338
642.30 0.6037172
642.40 0.6035006
642.50 0.6032842
642.60 0.6030679
642.70 0.6028517
642.80 0.6026355
642.90 0.6024195
643.00 0.6022036
643.10 0.6019878
643.20 0.6017721
643.30 0.6015565
643.40 0.601341
643.50 0.6011256
643.60 0.6009103
643.70 0.6006951
643.80 0.60048
643.90 0.6002651
644.00 0.6000502
644.10 0.5998354
644.20 0.5996208
644.30 0.5994062
644.40 0.5991918
644.50 0.5989774
644.60 0.5987632
644.70 0.598549
644.80 0.598335
644.90 0.5981211
645.00 0.5979072
645.10 0.5976935
645.20 0.5974799
645.30 0.5972664
645.40 0.597053
645.50 0.5968397
645.60 0.5966265
645.70 0.5964134
645.80 0.5962004
645.90 0.5959875
646.00 0.5957747
646.10 0.5955621
646.20 0.5953497
646.30 0.5951375
646.40 0.5949254
646.50 0.5947134
646.60 0.5945016
646.70 0.5942898
646.80 0.5940781
646.90 0.5938665
647.00 0.593655
647.10 0.5934436
647.20 0.5932323
647.30 0.5930212
647.40 0.5928101
647.50 0.5925991
647.60 0.5923882
647.70 0.5921775
647.80 0.5919668
647.90 0.5917562
648.00 0.5915458
648.10 0.5913354
648.20 0.5911252
648.30 0.590915
648.40 0.5907049
648.50 0.590495
648.60 0.5902851
648.70 0.5900754
648.80 0.5898657
648.90 0.5896562
649.00 0.5894467
649.10 0.5892374
649.20 0.5890281
649.30 0.588819
649.40 0.5886099
649.50 0.588401
649.60 0.5881922
649.70 0.5879834
649.80 0.5877748
649.90 0.5875663
650.00 0.5873578
650.10 0.5871495
650.20 0.5869413
650.30 0.5867331
650.40 0.5865251
650.50 0.5863172
650.60 0.5861093
650.70 0.5859016
650.80 0.585694
650.90 0.5854864
651.00 0.585279
651.10 0.5850717
651.20 0.5848645
651.30 0.5846573
651.40 0.5844503
651.50 0.5842434
651.60 0.5840365
651.70 0.5838298
651.80 0.5836232
651.90 0.5834166
652.00 0.5832102
652.10 0.5830038
652.20 0.5827976
652.30 0.5825915
652.40 0.5823854
652.50 0.5821795
652.60 0.5819687
652.70 0.5817554
652.80 0.5815422
652.90 0.5813291
653.00 0.5811161
653.10 0.5809032
653.20 0.5806904
653.30 0.5804777
653.40 0.5802651
653.50 0.5800526
653.60 0.5798402
653.70 0.5796279
653.80 0.5794158
653.90 0.5792037
654.00 0.5789917
654.10 0.5787798
654.20 0.5785681
654.30 0.5783564
654.40 0.5781448
654.50 0.5779334
654.60 0.577722
654.70 0.5775107
654.80 0.5772996
654.90 0.5770885
655.00 0.5768776
655.10 0.5766667
655.20 0.576456
655.30 0.5762453
655.40 0.5760348
655.50 0.5758243
655.60 0.575614
655.70 0.5754038
655.80 0.5752063
655.90 0.575009
656.00 0.5748118
656.10 0.5746147
656.20 0.5744176
656.30 0.5742207
656.40 0.5740238
656.50 0.5738271
656.60 0.5736304
656.70 0.5734338
656.80 0.5732373
656.90 0.5730409
657.00 0.5728446
657.10 0.5726484
657.20 0.5724523
657.30 0.5722563
657.40 0.5720604
657.50 0.5718646
657.60 0.5716688
657.70 0.5714732
657.80 0.5711098
657.90 0.5708928
658.00 0.5707018
658.10 0.5705109
658.20 0.57032
658.30 0.5701293
658.40 0.5699386
658.50 0.569748
658.60 0.5695576
658.70 0.5693672
658.80 0.5691769
658.90 0.5689866
659.00 0.5687965
659.10 0.5685514
659.20 0.5682237
659.30 0.5680319
659.40 0.5678402
659.50 0.5676485
659.60 0.567457
659.70 0.5672655
659.80 0.5670741
659.90 0.5668828
660.00 0.5666916
660.10 0.5665005
660.20 0.5663095
660.30 0.5661185
660.40 0.5659063
660.50 0.5656903
660.60 0.5654745
660.70 0.5652587
660.80 0.5650431
660.90 0.5648505
661.00 0.564658
661.10 0.5644656
661.20 0.5642733
661.30 0.564081
661.40 0.5638889
661.50 0.5636969
661.60 0.5635049
661.70 0.563313
661.80 0.5631213
661.90 0.5629093
662.00 0.5626974
662.10 0.5624856
662.20 0.562274
662.30 0.5620624
662.40 0.5618865
662.50 0.5616631
662.60 0.5614398
662.70 0.5612167
662.80 0.5609936
662.90 0.5608244
663.00 0.5606552
663.10 0.5604861
663.20 0.5603171
663.30 0.5601482
663.40 0.5597648
663.50 0.5595961
663.60 0.5594275
663.70 0.5592589
663.80 0.5590904
663.90 0.558922
664.00 0.5587537
664.10 0.5585497
664.20 0.5583459
664.30 0.5581422
664.40 0.5579385
664.50 0.557735
664.60 0.5575315
664.70 0.5573376
664.80 0.5571437
664.90 0.55695
665.00 0.5567563
665.10 0.5565627
665.20 0.5563692
665.30 0.5561758
665.40 0.5559825
665.50 0.5557136
665.60 0.5554314
665.70 0.5552509
665.80 0.5550563
665.90 0.5548617
666.00 0.5546672
666.10 0.5544729
666.20 0.5542786
666.30 0.5540844
666.40 0.5538903
666.50 0.5536898
666.60 0.5534883
666.70 0.5532869
666.80 0.5530856
666.90 0.5528843
667.00 0.5526832
667.10 0.5525122
667.20 0.5523466
667.30 0.5521811
667.40 0.5520156
667.50 0.5517602
667.60 0.551489
667.70 0.551308
667.80 0.5511429
667.90 0.5509778
668.00 0.5508129
668.10 0.5505581
668.20 0.5502877
668.30 0.5501071
668.40 0.5499426
668.50 0.549778
668.60 0.5496136
668.70 0.5494492
668.80 0.5492439
668.90 0.5490388
669.00 0.5488337
669.10 0.5486287
669.20 0.5484238
669.30 0.548218
669.40 0.5480121
669.50 0.5478063
669.60 0.5476006
669.70 0.547395
669.80 0.5471895
669.90 0.546984
670.00 0.5467787
670.10 0.5465735
670.20 0.5463684
670.30 0.5461991
670.40 0.5460361
670.50 0.5458733
670.60 0.5457105
670.70 0.5455478
670.80 0.5453475
670.90 0.5451473
671.00 0.5449472
671.10 0.5447473
671.20 0.5445474
671.30 0.5443476
671.40 0.5441479
671.50 0.5439483
671.60 0.5437488
671.70 0.5435493
671.80 0.54335
671.90 0.5431465
672.00 0.5429424
672.10 0.5427384
672.20 0.5425345
672.30 0.5423306
672.40 0.5421446
672.50 0.54196
672.60 0.5417755
672.70 0.5415911
672.80 0.5414068
672.90 0.5412225
673.00 0.5410384
673.10 0.5408543
673.20 0.5406703
673.30 0.5405097
673.40 0.5403226
673.50 0.540131
673.60 0.5399394
673.70 0.539748
673.80 0.5395566
673.90 0.5393653
674.00 0.5391741
674.10 0.538983
674.20 0.5387919
674.30 0.538601
674.40 0.5384102
674.50 0.5382194
674.60 0.5380287
674.70 0.5378382
674.80 0.5376477
674.90 0.5374573
675.00 0.537267
675.10 0.5370767
675.20 0.5368866
675.30 0.5366966
675.40 0.5365049
675.50 0.5363129
675.60 0.5361211
675.70 0.5359293
675.80 0.5357377
675.90 0.5355461
676.00 0.5353546
676.10 0.5351632
676.20 0.5349719
676.30 0.5347807
676.40 0.5345896
676.50 0.5343986
676.60 0.5342076
676.70 0.5340168
676.80 0.533826
676.90 0.5336353
677.00 0.5334447
677.10 0.5332542
677.20 0.5330638
677.30 0.5328735
677.40 0.5326833
677.50 0.5324932
677.60 0.5323031
677.70 0.5321131
677.80 0.5319233
677.90 0.5317327
678.00 0.531542
678.10 0.5313515
678.20 0.531161
678.30 0.5309706
678.40 0.5307804
678.50 0.5305902
678.60 0.5304001
678.70 0.53021
678.80 0.5300201
678.90 0.5298303
679.00 0.5296405
679.10 0.5294512
679.20 0.5292622
679.30 0.5290732
679.40 0.5288844
679.50 0.5286956
679.60 0.5285069
679.70 0.5283183
679.80 0.5281298
679.90 0.5279414
680.00 0.5277531
680.10 0.5275648
680.20 0.5273767
680.30 0.5271886
680.40 0.5270006
680.50 0.5268127
680.60 0.5266249
680.70 0.5264372
680.80 0.5262495
680.90 0.526062
681.00 0.5258745
681.10 0.5256872
681.20 0.5254999
681.30 0.5253127
681.40 0.5251256
681.50 0.5249386
681.60 0.5247516
681.70 0.5245648
681.80 0.524378
681.90 0.5241913
682.00 0.5240048
682.10 0.5238183
682.20 0.5236319
682.30 0.5234455
682.40 0.5232593
682.50 0.5230731
682.60 0.5228871
682.70 0.5227011
682.80 0.5225152
682.90 0.5223294
683.00 0.5221437
683.10 0.521958
683.20 0.5217725
683.30 0.521587
683.40 0.5214017
683.50 0.5212164
683.60 0.5210312
683.70 0.5208461
683.80 0.520661
683.90 0.5204761
684.00 0.5202912
684.10 0.5201064
684.20 0.5199218
684.30 0.5197372
684.40 0.5195526
684.50 0.5193682
684.60 0.5191839
684.70 0.5189996
684.80 0.5188154
684.90 0.5186314
685.00 0.5184474
685.10 0.5182634
685.20 0.5180796
685.30 0.5178959
685.40 0.5177122
685.50 0.5175286
685.60 0.5173451
685.70 0.5171617
685.80 0.5169784
685.90 0.5167954
686.00 0.5166126
686.10 0.5164299
686.20 0.5162472
686.30 0.5160646
686.40 0.5158822
686.50 0.5156997
686.60 0.5155174
686.70 0.5153352
686.80 0.515153
686.90 0.514971
687.00 0.514789
687.10 0.5146071
687.20 0.5144253
687.30 0.5142436
687.40 0.5140619
687.50 0.5138804
687.60 0.5136989
687.70 0.5135175
687.80 0.5133362
687.90 0.513155
688.00 0.5129738
688.10 0.5127928
688.20 0.5126118
688.30 0.5124309
688.40 0.5122501
688.50 0.5120694
688.60 0.5118887
688.70 0.5117082
688.80 0.5115277
688.90 0.5113473
689.00 0.511167
689.10 0.5109868
689.20 0.5108066
689.30 0.5106266
689.40 0.5104466
689.50 0.5102667
689.60 0.5100869
689.70 0.5099072
689.80 0.5097275
689.90 0.509548
690.00 0.5093685
690.10 0.5091891
690.20 0.5090098
690.30 0.5088305
690.40 0.5086514
690.50 0.5084723
690.60 0.5082933
690.70 0.5081144
690.80 0.5079356
690.90 0.5077569
691.00 0.5075782
691.10 0.5073997
691.20 0.5072212
691.30 0.5070428
691.40 0.5068644
691.50 0.5066862
691.60 0.506508
691.70 0.5063299
691.80 0.5061519
691.90 0.505974
692.00 0.5057962
692.10 0.5056184
692.20 0.5054408
692.30 0.5052632
692.40 0.5050857
692.50 0.5049082
692.60 0.5047309
692.70 0.5045527
692.80 0.5043712
692.90 0.5041898
693.00 0.5040085
693.10 0.5038272
693.20 0.5036461
693.30 0.503465
693.40 0.503284
693.50 0.5031031
693.60 0.5029223
693.70 0.5027415
693.80 0.5025609
693.90 0.5023803
694.00 0.5021998
694.10 0.5020194
694.20 0.5018391
694.30 0.5016588
694.40 0.5014787
694.50 0.5012986
694.60 0.5011186
694.70 0.5009387
694.80 0.5007589
694.90 0.5005791
695.00 0.5003995
695.10 0.5002199
695.20 0.5000404
695.30 0.499861
695.40 0.4996816
695.50 0.4995024
695.60 0.4993232
695.70 0.4991441
695.80 0.4989651
695.90 0.4987862
696.00 0.4986074
696.10 0.4984286
696.20 0.4982499
696.30 0.4980714
696.40 0.4978928
696.50 0.4977144
696.60 0.4975396
696.70 0.4973656
696.80 0.4971918
696.90 0.497018
697.00 0.4968443
697.10 0.4966707
697.20 0.4964972
697.30 0.4963237
697.40 0.4961504
697.50 0.4959771
697.60 0.4958038
697.70 0.4956307
697.80 0.4954576
697.90 0.4952847
698.00 0.4951118
698.10 0.4949389
698.20 0.4947662
698.30 0.4945935
698.40 0.4944209
698.50 0.4942484
698.60 0.494076
698.70 0.4939036
698.80 0.4937314
698.90 0.4935592
699.00 0.4933871
699.10 0.4932133
699.20 0.4930393
699.30 0.4928654
699.40 0.4926915
699.50 0.4925178
699.60 0.4923441
699.70 0.4921628
699.80 0.4919813
699.90 0.4917998
700.00 0.4916185
700.10 0.4914372
700.20 0.491256
700.30 0.4910749
700.40 0.4908938
700.50 0.4907129
700.60 0.490532
700.70 0.4903512
700.80 0.4901705
700.90 0.4899899
701.00 0.4898093
701.10 0.4896411
701.20 0.4894759
701.30 0.4893107
701.40 0.4891456
701.50 0.4889806
701.60 0.4888157
701.70 0.4886508
701.80 0.488486
701.90 0.4883213
702.00 0.4881566
702.10 0.487992
702.20 0.4878275
702.30 0.4876631
702.40 0.4874987
702.50 0.4873345
702.60 0.4871619
702.70 0.4869874
702.80 0.486813
702.90 0.4866386
703.00 0.4864644
703.10 0.4862902
703.20 0.4861161
703.30 0.4859421
703.40 0.4857682
703.50 0.4855944
703.60 0.4854206
703.70 0.4852469
703.80 0.4850733
703.90 0.4848998
704.00 0.4847263
704.10 0.4845529
704.20 0.4843777
704.30 0.4842021
704.40 0.4840266
704.50 0.4838512
704.60 0.4836758
704.70 0.4835005
704.80 0.4833253
704.90 0.4831502
705.00 0.4829752
705.10 0.4828002
705.20 0.4826305
705.30 0.482462
705.40 0.4822936
705.50 0.4821253
705.60 0.481957
705.70 0.4817889
705.80 0.481608
705.90 0.4814242
706.00 0.4812405
706.10 0.4810568
706.20 0.4809116
706.30 0.4807755
706.40 0.4806393
706.50 0.4805033
706.60 0.4803673
706.70 0.4800424
706.80 0.4799065
706.90 0.4797708
707.00 0.4795968
707.10 0.479414
707.20 0.4792312
707.30 0.4790486
707.40 0.4788787
707.50 0.4787119
707.60 0.4785452
707.70 0.4783786
707.80 0.478212
707.90 0.4780455
708.00 0.4778893
708.10 0.4777355
708.20 0.4775818
708.30 0.4774281
708.40 0.4772745
708.50 0.477121
708.60 0.4769675
708.70 0.4768141
708.80 0.4766608
708.90 0.4765076
709.00 0.4763411
709.10 0.4761715
709.20 0.4760021
709.30 0.4758327
709.40 0.4756634
709.50 0.4754942
709.60 0.475325
709.70 0.4751559
709.80 0.4749869
709.90 0.474818
710.00 0.4746491
710.10 0.4744804
710.20 0.4743117
710.30 0.4741431
710.40 0.4739745
710.50 0.473806
710.60 0.4736358
710.70 0.4734651
710.80 0.4732945
710.90 0.473124
711.00 0.4729536
711.10 0.4727833
711.20 0.472613
711.30 0.4724428
711.40 0.4722727
711.50 0.4721027
711.60 0.4719327
711.70 0.4717628
711.80 0.471593
711.90 0.4714233
712.00 0.4712536
712.10 0.4710868
712.20 0.4709206
712.30 0.4707545
712.40 0.4705885
712.50 0.4704226
712.60 0.4702567
712.70 0.470091
712.80 0.4699252
712.90 0.4697596
713.00 0.4695941
713.10 0.4694286
713.20 0.4692632
713.30 0.4690978
713.40 0.4689326
713.50 0.4687674
713.60 0.4686023
713.70 0.468431
713.80 0.4682471
713.90 0.4680633
714.00 0.4678796
714.10 0.4677146
714.20 0.467554
714.30 0.4673935
714.40 0.4672331
714.50 0.4670727
714.60 0.4669125
714.70 0.4667522
714.80 0.4665921
714.90 0.466432
715.00 0.466272
715.10 0.4661121
715.20 0.4659522
715.30 0.4657924
715.40 0.4656327
715.50 0.4654731
715.60 0.4653135
715.70 0.465154
715.80 0.4649946
715.90 0.4648352
716.00 0.4646759
716.10 0.4645167
716.20 0.4643575
716.30 0.4641985
716.40 0.4640395
716.50 0.4638805
716.60 0.4637178
716.70 0.4635543
716.80 0.4633909
716.90 0.4632275
717.00 0.4630642
717.10 0.462901
717.20 0.4627379
717.30 0.4625748
717.40 0.4624118
717.50 0.4622489
717.60 0.462086
717.70 0.4619233
717.80 0.4617606
717.90 0.4615979
718.00 0.4614354
718.10 0.4612729
718.20 0.4611088
718.30 0.4609438
718.40 0.4607789
718.50 0.4606141
718.60 0.4604493
718.70 0.4602847
718.80 0.4601201
718.90 0.4599555
719.00 0.4597911
719.10 0.4596267
719.20 0.4594624
719.30 0.4592982
719.40 0.459134
719.50 0.4589699
719.60 0.4588059
719.70 0.458642
719.80 0.4584781
719.90 0.4583143
720.00 0.4581506
720.10 0.457987
720.20 0.4578234
720.30 0.4576599
720.40 0.4574965
720.50 0.4573331
720.60 0.4571699
720.70 0.4570303
720.80 0.4569035
720.90 0.4567482
721.00 0.4565917
721.10 0.4564354
721.20 0.4562791
721.30 0.4561228
721.40 0.4559667
721.50 0.4558106
721.60 0.4556545
721.70 0.4554986
721.80 0.4553427
721.90 0.4551869
722.00 0.4550311
722.10 0.4548755
722.20 0.4547198
722.30 0.4545643
722.40 0.4544088
722.50 0.4542534
722.60 0.4540981
722.70 0.4539386
722.80 0.4537768
722.90 0.4536152
723.00 0.4534536
723.10 0.4532921
723.20 0.4531306
723.30 0.4529693
723.40 0.452808
723.50 0.4526467
723.60 0.4524856
723.70 0.4523245
723.80 0.4521635
723.90 0.4520026
724.00 0.4518417
724.10 0.4516809
724.20 0.4515216
724.30 0.4513632
724.40 0.4512049
724.50 0.4510466
724.60 0.4508884
724.70 0.4507303
724.80 0.4505723
724.90 0.4504143
725.00 0.4502564
725.10 0.4500985
725.20 0.4499407
725.30 0.449783
725.40 0.4496254
725.50 0.4494678
725.60 0.4493104
725.70 0.4491529
725.80 0.4489941
725.90 0.4488346
726.00 0.4486751
726.10 0.4485158
726.20 0.4483564
726.30 0.4481972
726.40 0.448038
726.50 0.4478789
726.60 0.4477199
726.70 0.4475609
726.80 0.4474059
726.90 0.4472531
727.00 0.4471003
727.10 0.4469475
727.20 0.4467949
727.30 0.4466423
727.40 0.4464801
727.50 0.4463128
727.60 0.4461455
727.70 0.4459784
727.80 0.4458402
727.90 0.4457177
728.00 0.4455953
728.10 0.4454618
728.20 0.4451726
728.30 0.4450503
728.40 0.4449281
728.50 0.444806
728.60 0.444655
728.70 0.4444885
728.80 0.4443221
728.90 0.4441558
729.00 0.4439992
729.10 0.4438478
729.20 0.4436965
729.30 0.4435452
729.40 0.4433941
729.50 0.443243
729.60 0.4430881
729.70 0.4429312
729.80 0.4427744
729.90 0.4426176
730.00 0.4424609
730.10 0.4423043
730.20 0.4421478
730.30 0.4419913
730.40 0.4418349
730.50 0.4416786
730.60 0.4415237
730.70 0.4413697
730.80 0.4412158
730.90 0.441062
731.00 0.4409082
731.10 0.4407545
731.20 0.4406008
731.30 0.4404472
731.40 0.4402937
731.50 0.4401403
731.60 0.4399869
731.70 0.4398336
731.80 0.4396803
731.90 0.4395272
732.00 0.439374
732.10 0.439221
732.20 0.4390666
732.30 0.4389115
732.40 0.4387565
732.50 0.4386015
732.60 0.4384466
732.70 0.4382917
732.80 0.438137
732.90 0.4379823
733.00 0.4378276
733.10 0.4376731
733.20 0.4375186
733.30 0.4373642
733.40 0.4372098
733.50 0.4370555
733.60 0.4369013
733.70 0.4367493
733.80 0.4365985
733.90 0.4364478
734.00 0.4362972
734.10 0.4361466
734.20 0.4359961
734.30 0.4358457
734.40 0.4356953
734.50 0.435545
734.60 0.4353948
734.70 0.4352446
734.80 0.4350945
734.90 0.4349444
735.00 0.4347945
735.10 0.4346446
735.20 0.4344947
735.30 0.4343434
735.40 0.4341744
735.50 0.4340055
735.60 0.4338366
735.70 0.4336828
735.80 0.433537
735.90 0.4333913
736.00 0.4332456
736.10 0.4331001
736.20 0.4329546
736.30 0.4328091
736.40 0.4326637
736.50 0.4325184
736.60 0.4323731
736.70 0.4322279
736.80 0.4320828
736.90 0.4319377
737.00 0.4317927
737.10 0.4316478
737.20 0.4315029
737.30 0.431358
737.40 0.4312133
737.50 0.4310686
737.60 0.430924
737.70 0.4307794
737.80 0.4306349
737.90 0.4304904
738.00 0.430346
738.10 0.4302017
738.20 0.430053
738.30 0.429902
738.40 0.429751
738.50 0.4296001
738.60 0.4294492
738.70 0.4292984
738.80 0.4291477
738.90 0.4289971
739.00 0.4288465
739.10 0.428696
739.20 0.4285455
739.30 0.4283951
739.40 0.4282448
739.50 0.4280946
739.60 0.4279444
739.70 0.4277942
739.80 0.4276442
739.90 0.4274942
740.00 0.4273443
740.10 0.4271944
740.20 0.4270446
740.30 0.4268949
740.40 0.4267452
740.50 0.4265956
740.60 0.4264461
740.70 0.4262966
740.80 0.4261472
740.90 0.4259978
741.00 0.4258486
741.10 0.4256994
741.20 0.4255502
741.30 0.4254011
741.40 0.4252521
741.50 0.4251032
741.60 0.4249543
741.70 0.4248055
741.80 0.4246567
741.90 0.424508
742.00 0.4243594
742.10 0.4242108
742.20 0.4240623
742.30 0.4239139
742.40 0.4237655
742.50 0.4236172
742.60 0.423469
742.70 0.4233214
742.80 0.4231744
742.90 0.4230274
743.00 0.4228805
743.10 0.4227337
743.20 0.4225869
743.30 0.4224402
743.40 0.4222935
743.50 0.422147
743.60 0.4220004
743.70 0.4218542
743.80 0.4217087
743.90 0.4215633
744.00 0.421418
744.10 0.4212727
744.20 0.4211275
744.30 0.4209824
744.40 0.4208373
744.50 0.4206923
744.60 0.4205473
744.70 0.4204025
744.80 0.4202576
744.90 0.4201129
745.00 0.4199682
745.10 0.4198235
745.20 0.419679
745.30 0.4195344
745.40 0.41939
745.50 0.4192456
745.60 0.4191013
745.70 0.418957
745.80 0.4188128
745.90 0.4186687
746.00 0.4185246
746.10 0.4183806
746.20 0.4182366
746.30 0.4180927
746.40 0.4179489
746.50 0.4178051
746.60 0.4176614
746.70 0.4175178
746.80 0.4173742
746.90 0.4172307
747.00 0.4170872
747.10 0.4169439
747.20 0.4168005
747.30 0.4166572
747.40 0.416514
747.50 0.4163709
747.60 0.4162278
747.70 0.4160848
747.80 0.4159418
747.90 0.4157989
748.00 0.4156561
748.10 0.4155133
748.20 0.4153706
748.30 0.4152279
748.40 0.4150853
748.50 0.4149428
748.60 0.4148003
748.70 0.4146579
748.80 0.4145156
748.90 0.4143733
749.00 0.4142311
749.10 0.4140889
749.20 0.4139468
749.30 0.4138047
749.40 0.4136628
749.50 0.4135208
749.60 0.413379
749.70 0.4132372
749.80 0.4130955
749.90 0.4129538
750.00 0.4128122
750.10 0.4126694
750.20 0.4125236
750.30 0.4123779
750.40 0.4122322
750.50 0.4120866
750.60 0.4119411
750.70 0.4117956
750.80 0.4116502
750.90 0.4115049
751.00 0.4113596
751.10 0.4112144
751.20 0.4110692
751.30 0.4109241
751.40 0.4107791
751.50 0.4106341
751.60 0.4104892
751.70 0.4103444
751.80 0.4101996
751.90 0.4100549
752.00 0.4099102
752.10 0.4097656
752.20 0.4096211
752.30 0.4094766
752.40 0.4093322
752.50 0.4091879
752.60 0.4090436
752.70 0.4088993
752.80 0.4087552
752.90 0.4086111
753.00 0.4084671
753.10 0.4083231
753.20 0.4081792
753.30 0.4080353
753.40 0.4078915
753.50 0.4077478
753.60 0.4076042
753.70 0.4074606
753.80 0.407317
753.90 0.407177
754.00 0.407038
754.10 0.4068991
754.20 0.4067602
754.30 0.4066214
754.40 0.4064826
754.50 0.406344
754.60 0.4062053
754.70 0.4060667
754.80 0.4059282
754.90 0.4057898
755.00 0.4056514
755.10 0.405513
755.20 0.4053748
755.30 0.4052365
755.40 0.4050984
755.50 0.4049603
755.60 0.4048222
755.70 0.4046843
755.80 0.4045463
755.90 0.4044085
756.00 0.4042707
756.10 0.4041329
756.20 0.4039952
756.30 0.4038576
756.40 0.40372
756.50 0.4035825
756.60 0.4034451
756.70 0.4033077
756.80 0.4031703
756.90 0.403033
757.00 0.4028958
757.10 0.4027587
757.20 0.4026216
757.30 0.4024845
757.40 0.4023475
757.50 0.4022106
757.60 0.4020726
757.70 0.4019317
757.80 0.401791
757.90 0.4016502
758.00 0.4015096
758.10 0.401369
758.20 0.4012284
758.30 0.4010879
758.40 0.4009475
758.50 0.4008072
758.60 0.4006669
758.70 0.4005266
758.80 0.4003864
758.90 0.4002463
759.00 0.4001062
759.10 0.3999662
759.20 0.3998263
759.30 0.3996864
759.40 0.3995466
759.50 0.3994068
759.60 0.3992671
759.70 0.3991275
759.80 0.3989879
759.90 0.3988484
760.00 0.3987089
760.10 0.3985695
760.20 0.3984302
760.30 0.3982909
760.40 0.3981516
760.50 0.3980125
760.60 0.3978734
760.70 0.3977343
760.80 0.3975953
760.90 0.3974564
761.00 0.3973175
761.10 0.3971787
761.20 0.39704
761.30 0.3969013
761.40 0.3967644
761.50 0.3966301
761.60 0.3964959
761.70 0.3963617
761.80 0.3962276
761.90 0.3960935
762.00 0.3959595
762.10 0.3958256
762.20 0.3956917
762.30 0.3955579
762.40 0.3954241
762.50 0.3952904
762.60 0.3951568
762.70 0.3950232
762.80 0.3948896
762.90 0.3947561
763.00 0.3946227
763.10 0.3944893
763.20 0.394356
763.30 0.3942228
763.40 0.3940896
763.50 0.3939564
763.60 0.3938233
763.70 0.3936903
763.80 0.3935573
763.90 0.3934244
764.00 0.3932915
764.10 0.3931587
764.20 0.393026
764.30 0.3928933
764.40 0.3927606
764.50 0.392628
764.60 0.3924955
764.70 0.392363
764.80 0.3922306
764.90 0.3920982
765.00 0.3919659
765.10 0.3918337
765.20 0.3917005
765.30 0.3915666
765.40 0.3914327
765.50 0.3912989
765.60 0.3911651
765.70 0.3910314
765.80 0.3908977
765.90 0.3907641
766.00 0.3906305
766.10 0.390497
766.20 0.3903636
766.30 0.3902302
766.40 0.3900969
766.50 0.3899636
766.60 0.3898304
766.70 0.3896972
766.80 0.3895641
766.90 0.3894311
767.00 0.3892981
767.10 0.3891651
767.20 0.3890323
767.30 0.3888994
767.40 0.3887667
767.50 0.388634
767.60 0.3885013
767.70 0.3883687
767.80 0.3882362
767.90 0.3881037
768.00 0.3879712
768.10 0.3878389
768.20 0.3877066
768.30 0.3875743
768.40 0.3874421
768.50 0.3873099
768.60 0.3871778
768.70 0.3870458
768.80 0.3869138
768.90 0.3867819
769.00 0.38665
769.10 0.3865182
769.20 0.3863864
769.30 0.3862547
769.40 0.386123
769.50 0.3859915
769.60 0.3858599
769.70 0.3857284
769.80 0.385597
769.90 0.3854656
770.00 0.3853343
770.10 0.385203
770.20 0.3850718
770.30 0.3849407
770.40 0.3848096
770.50 0.3846785
770.60 0.3845475
770.70 0.3844166
770.80 0.3842857
770.90 0.3841549
771.00 0.3840241
771.10 0.3838934
771.20 0.3837627
771.30 0.3836321
771.40 0.3835016
771.50 0.3833711
771.60 0.3832406
771.70 0.3831103
771.80 0.3829799
771.90 0.3828496
772.00 0.3827194
772.10 0.3825893
772.20 0.3824591
772.30 0.3823291
772.40 0.3821991
772.50 0.3820691
772.60 0.3819392
772.70 0.3818094
772.80 0.3816796
772.90 0.3815481
773.00 0.3814167
773.10 0.3812853
773.20 0.381154
773.30 0.3810228
773.40 0.3808916
773.50 0.3807605
773.60 0.3806294
773.70 0.3804983
773.80 0.3803674
773.90 0.3802364
774.00 0.3801056
774.10 0.3799748
774.20 0.379844
774.30 0.3797133
774.40 0.3795827
774.50 0.3794521
774.60 0.3793215
774.70 0.379191
774.80 0.3790606
774.90 0.3789302
775.00 0.3787999
775.10 0.3786697
775.20 0.3785395
775.30 0.3784093
775.40 0.3782792
775.50 0.3781492
775.60 0.3780192
775.70 0.3778892
775.80 0.3777593
775.90 0.3776295
776.00 0.3774997
776.10 0.37737
776.20 0.3772404
776.30 0.3771107
776.40 0.3769812
776.50 0.3768517
776.60 0.3767222
776.70 0.3765929
776.80 0.3764635
776.90 0.3763342
777.00 0.376205
777.10 0.3760758
777.20 0.3759467
777.30 0.3758176
777.40 0.3756886
777.50 0.3755596
777.60 0.3754307
777.70 0.3753019
777.80 0.3751731
777.90 0.3750443
778.00 0.3749157
778.10 0.374787
778.20 0.3746584
778.30 0.3745299
778.40 0.3744014
778.50 0.374273
778.60 0.3741446
778.70 0.3740163
778.80 0.3738881
778.90 0.3737598
779.00 0.3736317
779.10 0.3735036
779.20 0.3733755
779.30 0.3732475
779.40 0.3731196
779.50 0.3729917
779.60 0.3728639
779.70 0.3727361
779.80 0.3726084
779.90 0.3724807
780.00 0.3723531
780.10 0.3722255
780.20 0.372098
780.30 0.3719705
780.40 0.3718431
780.50 0.3717158
780.60 0.3715895
780.70 0.3714636
780.80 0.3713378
780.90 0.3712121
781.00 0.3710864
781.10 0.3709608
781.20 0.3708352
781.30 0.3707097
781.40 0.3705842
781.50 0.3704588
781.60 0.3703334
781.70 0.3702081
781.80 0.3700828
781.90 0.3699576
782.00 0.3698325
782.10 0.3697074
782.20 0.3695823
782.30 0.3694573
782.40 0.3693323
782.50 0.3692074
782.60 0.3690826
782.70 0.3689578
782.80 0.3688331
782.90 0.3687084
783.00 0.3685837
783.10 0.3684591
783.20 0.3683346
783.30 0.3682101
783.40 0.3680857
783.50 0.3679613
783.60 0.3678369
783.70 0.3677127
783.80 0.3675884
783.90 0.3674642
784.00 0.3673401
784.10 0.367216
784.20 0.367092
784.30 0.366968
784.40 0.3668441
784.50 0.3667202
784.60 0.3665957
784.70 0.3664697
784.80 0.3663438
784.90 0.3662178
785.00 0.366092
785.10 0.3659662
785.20 0.3658404
785.30 0.3657147
785.40 0.3655891
785.50 0.3654635
785.60 0.3653379
785.70 0.3652124
785.80 0.365087
785.90 0.3649616
786.00 0.3648362
786.10 0.364711
786.20 0.3645857
786.30 0.3644605
786.40 0.3643354
786.50 0.3642103
786.60 0.3640853
786.70 0.3639603
786.80 0.3638354
786.90 0.3637105
787.00 0.3635857
787.10 0.3634609
787.20 0.3633362
787.30 0.3632115
787.40 0.3630869
787.50 0.3629624
787.60 0.3628378
787.70 0.3627134
787.80 0.362589
787.90 0.3624646
788.00 0.3623403
788.10 0.3622161
788.20 0.3620918
788.30 0.3619677
788.40 0.3618446
788.50 0.361722
788.60 0.3615995
788.70 0.361477
788.80 0.3613545
788.90 0.3612322
789.00 0.3611098
789.10 0.3609875
789.20 0.3608653
789.30 0.3607431
789.40 0.360621
789.50 0.3604989
789.60 0.3603769
789.70 0.3602549
789.80 0.360133
789.90 0.3600111
790.00 0.3598893
790.10 0.3597675
790.20 0.3596458
790.30 0.3595241
790.40 0.3594025
790.50 0.3592809
790.60 0.3591594
790.70 0.3590379
790.80 0.3589165
790.90 0.3587951
791.00 0.3586737
791.10 0.3585525
791.20 0.3584312
791.30 0.3583101
791.40 0.3581889
791.50 0.3580678
791.60 0.3579468
791.70 0.3578258
791.80 0.3577049
791.90 0.357584
792.00 0.3574632
792.10 0.3573424
792.20 0.3572217
792.30 0.357101
792.40 0.3569804
792.50 0.3568598
792.60 0.3567392
792.70 0.3566187
792.80 0.3564983
792.90 0.3563779
793.00 0.3562576
793.10 0.3561373
793.20 0.356017
793.30 0.3558968
793.40 0.3557767
793.50 0.3556566
793.60 0.3555365
793.70 0.3554165
793.80 0.3552966
793.90 0.3551767
794.00 0.3550568
794.10 0.354937
794.20 0.3548173
794.30 0.3546976
794.40 0.3545779
794.50 0.3544583
794.60 0.3543387
794.70 0.3542192
794.80 0.3540998
794.90 0.3539804
795.00 0.353861
795.10 0.3537417
795.20 0.3536224
795.30 0.3535032
795.40 0.353384
795.50 0.3532649
795.60 0.3531459
795.70 0.3530268
795.80 0.3529079
795.90 0.3527889
796.00 0.3526701
796.10 0.3525512
796.20 0.3524325
796.30 0.3523124
796.40 0.3521922
796.50 0.352072
796.60 0.3519518
796.70 0.3518317
796.80 0.3517117
796.90 0.3515917
797.00 0.3514717
797.10 0.3513518
797.20 0.351232
797.30 0.3511122
797.40 0.3509924
797.50 0.3508727
797.60 0.3507531
797.70 0.3506335
797.80 0.3505139
797.90 0.3503944
798.00 0.3502749
798.10 0.3501555
798.20 0.3500362
798.30 0.3499169
798.40 0.3497976
798.50 0.3496784
798.60 0.3495592
798.70 0.3494401
798.80 0.349321
798.90 0.349202
799.00 0.349083
799.10 0.3489641
799.20 0.3488452
799.30 0.3487264
799.40 0.3486076
799.50 0.3484889
799.60 0.3483702
799.70 0.3482516
799.80 0.348133
799.90 0.3480145
800.00 0.347896
800.10 0.3477775
800.20 0.3476591
800.30 0.3475408
800.40 0.3474225
800.50 0.3473043
800.60 0.3471861
800.70 0.3470679
800.80 0.3469498
800.90 0.3468318
801.00 0.3467137
801.10 0.3465958
801.20 0.3464779
801.30 0.34636
801.40 0.3462422
801.50 0.3461244
801.60 0.3460067
801.70 0.3458891
801.80 0.3457714
801.90 0.3456539
802.00 0.3455363
802.10 0.3454189
802.20 0.3453014
802.30 0.3451841
802.40 0.3450667
802.50 0.3449494
802.60 0.3448322
802.70 0.344715
802.80 0.3445979
802.90 0.3444808
803.00 0.3443637
803.10 0.3442467
803.20 0.3441298
803.30 0.3440129
803.40 0.343896
803.50 0.3437792
803.60 0.3436624
803.70 0.3435457
803.80 0.343429
803.90 0.3433124
804.00 0.3431959
804.10 0.3430793
804.20 0.3429633
804.30 0.342849
804.40 0.3427348
804.50 0.3426205
804.60 0.3425064
804.70 0.3423923
804.80 0.3422782
804.90 0.3421641
805.00 0.3420502
805.10 0.3419362
805.20 0.3418223
805.30 0.3417085
805.40 0.3415947
805.50 0.3414809
805.60 0.3413672
805.70 0.3412536
805.80 0.34114
805.90 0.3410264
806.00 0.3409129
806.10 0.3407994
806.20 0.340686
806.30 0.3405726
806.40 0.3404592
806.50 0.3403459
806.60 0.3402327
806.70 0.3401195
806.80 0.3400063
806.90 0.3398932
807.00 0.3397801
807.10 0.3396671
807.20 0.3395541
807.30 0.3394412
807.40 0.3393283
807.50 0.3392155
807.60 0.3391027
807.70 0.33899
807.80 0.3388772
807.90 0.3387646
808.00 0.338652
808.10 0.3385394
808.20 0.3384269
808.30 0.3383144
808.40 0.338202
808.50 0.3380896
808.60 0.3379773
808.70 0.337865
808.80 0.3377527
808.90 0.3376405
809.00 0.3375284
809.10 0.3374162
809.20 0.3373042
809.30 0.3371922
809.40 0.3370802
809.50 0.3369682
809.60 0.3368564
809.70 0.3367445
809.80 0.3366327
809.90 0.336521
810.00 0.3364092
810.10 0.3362976
810.20 0.336186
810.30 0.3360744
810.40 0.3359629
810.50 0.3358514
810.60 0.3357399
810.70 0.3356285
810.80 0.3355172
810.90 0.3354059
811.00 0.3352946
811.10 0.3351834
811.20 0.3350722
811.30 0.3349611
811.40 0.33485
811.50 0.334739
811.60 0.334628
811.70 0.3345171
811.80 0.3344061
811.90 0.3342953
812.00 0.3341845
812.10 0.3340737
812.20 0.333963
812.30 0.3338506
812.40 0.3337379
812.50 0.3336252
812.60 0.3335125
812.70 0.3333999
812.80 0.3332874
812.90 0.3331748
813.00 0.3330624
813.10 0.3329499
813.20 0.3328376
813.30 0.3327252
813.40 0.3326129
813.50 0.3325007
813.60 0.3323885
813.70 0.3322763
813.80 0.3321642
813.90 0.3320522
814.00 0.3319402
814.10 0.3318282
814.20 0.3317163
814.30 0.3316044
814.40 0.3314925
814.50 0.3313807
814.60 0.331269
814.70 0.3311573
814.80 0.3310456
814.90 0.330934
815.00 0.3308224
815.10 0.3307109
815.20 0.3305994
815.30 0.330488
815.40 0.3303766
815.50 0.3302653
815.60 0.330154
815.70 0.3300427
815.80 0.3299315
815.90 0.3298203
816.00 0.3297092
816.10 0.3295981
816.20 0.3294871
816.30 0.3293761
816.40 0.3292652
816.50 0.3291543
816.60 0.3290434
816.70 0.3289326
816.80 0.3288218
816.90 0.3287111
817.00 0.3286004
817.10 0.3284898
817.20 0.3283792
817.30 0.3282687
817.40 0.3281582
817.50 0.3280477
817.60 0.3279373
817.70 0.3278269
817.80 0.3277166
817.90 0.3276063
818.00 0.3274961
818.10 0.3273859
818.20 0.3272757
818.30 0.3271656
818.40 0.3270556
818.50 0.3269456
818.60 0.3268356
818.70 0.3267257
818.80 0.3266158
818.90 0.3265059
819.00 0.3263961
819.10 0.3262864
819.20 0.3261767
819.30 0.3260652
819.40 0.3259526
819.50 0.32584
819.60 0.3257275
819.70 0.325615
819.80 0.3255026
819.90 0.3253902
820.00 0.3252778
820.10 0.3251685
820.20 0.3250892
820.30 0.3250099
820.40 0.3249128
820.50 0.3248027
820.60 0.3246926
820.70 0.3245826
820.80 0.3244727
820.90 0.3243627
821.00 0.3242529
821.10 0.324143
821.20 0.3240332
821.30 0.3239235
821.40 0.3238138
821.50 0.3237041
821.60 0.3235945
821.70 0.323485
821.80 0.3233754
821.90 0.323266
822.00 0.3231565
822.10 0.3230471
822.20 0.3229378
822.30 0.3228285
822.40 0.3227192
822.50 0.32261
822.60 0.3225008
822.70 0.3223917
822.80 0.3222826
822.90 0.3221735
823.00 0.3220645
823.10 0.3219556
823.20 0.3218466
823.30 0.3217378
823.40 0.3216289
823.50 0.3215202
823.60 0.3214114
823.70 0.3213027
823.80 0.3211941
823.90 0.3210854
824.00 0.3209769
824.10 0.3208684
824.20 0.3207599
824.30 0.3206514
824.40 0.320543
824.50 0.3204347
824.60 0.3203264
824.70 0.3202181
824.80 0.3201099
824.90 0.3200017
825.00 0.3198936
825.10 0.3197855
825.20 0.3196774
825.30 0.3195694
825.40 0.3194614
825.50 0.3193535
825.60 0.3192456
825.70 0.3191378
825.80 0.31903
825.90 0.3189222
826.00 0.3188145
826.10 0.3187069
826.20 0.3185993
826.30 0.318492
826.40 0.3183849
826.50 0.3182779
826.60 0.318171
826.70 0.3180641
826.80 0.3179572
826.90 0.3178504
827.00 0.3177436
827.10 0.3176368
827.20 0.3175301
827.30 0.3174235
827.40 0.3173168
827.50 0.3172103
827.60 0.3171037
827.70 0.3169972
827.80 0.3168908
827.90 0.3167844
828.00 0.316678
828.10 0.3165717
828.20 0.3164654
828.30 0.3163592
828.40 0.316253
828.50 0.3161468
828.60 0.3160416
828.70 0.3159371
828.80 0.3158327
828.90 0.3157283
829.00 0.3156239
829.10 0.3155196
829.20 0.3154154
829.30 0.3153111
829.40 0.315207
829.50 0.3151028
829.60 0.3149987
829.70 0.3148947
829.80 0.3147906
829.90 0.3146867
830.00 0.3145827
830.10 0.3144788
830.20 0.314375
830.30 0.3142712
830.40 0.3141674
830.50 0.3140637
830.60 0.31396
830.70 0.3138563
830.80 0.3137527
830.90 0.3136491
831.00 0.3135456
831.10 0.3134421
831.20 0.3133387
831.30 0.3132353
831.40 0.3131319
831.50 0.3130286
831.60 0.3129253
831.70 0.312822
831.80 0.3127188
831.90 0.3126157
832.00 0.3125126
832.10 0.3124095
832.20 0.3123064
832.30 0.3122034
832.40 0.3121005
832.50 0.3119975
832.60 0.3118947
832.70 0.3117918
832.80 0.311689
832.90 0.3115863
833.00 0.3114836
833.10 0.3113809
833.20 0.3112782
833.30 0.3111756
833.40 0.3110731
833.50 0.3109706
833.60 0.3108681
833.70 0.3107657
833.80 0.3106633
833.90 0.3105609
834.00 0.3104586
834.10 0.3103563
834.20 0.3102541
834.30 0.3101519
834.40 0.3100497
834.50 0.3099476
834.60 0.3098455
834.70 0.3097435
834.80 0.3096415
834.90 0.3095396
835.00 0.3094376
835.10 0.3093358
835.20 0.3092339
835.30 0.3091321
835.40 0.3090304
835.50 0.3089287
835.60 0.308827
835.70 0.3087254
835.80 0.3086238
835.90 0.3085222
836.00 0.3084207
836.10 0.3083192
836.20 0.3082178
836.30 0.3081164
836.40 0.308015
836.50 0.3079137
836.60 0.3078124
836.70 0.3077112
836.80 0.30761
836.90 0.3075079
837.00 0.3074055
837.10 0.307303
837.20 0.3072007
837.30 0.3070983
837.40 0.306996
837.50 0.3068938
837.60 0.3067916
837.70 0.3066894
837.80 0.3065873
837.90 0.3064852
838.00 0.3063831
838.10 0.3062811
838.20 0.3061791
838.30 0.3060772
838.40 0.3059753
838.50 0.3058734
838.60 0.3057716
838.70 0.3056698
838.80 0.3055681
838.90 0.3054664
839.00 0.3053648
839.10 0.3052631
839.20 0.3051616
839.30 0.30506
839.40 0.3049585
839.50 0.3048571
839.60 0.3047557
839.70 0.3046543
839.80 0.3045529
839.90 0.3044516
840.00 0.3043504
840.10 0.3042492
840.20 0.304148
840.30 0.3040469
840.40 0.3039458
840.50 0.3038447
840.60 0.3037437
840.70 0.3036427
840.80 0.3035417
840.90 0.3034408
841.00 0.30334
841.10 0.3032419
841.20 0.3031443
841.30 0.3030467
841.40 0.3029492
841.50 0.3028517
841.60 0.3027543
841.70 0.3026569
841.80 0.3025595
841.90 0.3024622
842.00 0.3023649
842.10 0.3022677
842.20 0.3021704
842.30 0.3020733
842.40 0.3019761
842.50 0.301879
842.60 0.301782
842.70 0.3016849
842.80 0.3015879
842.90 0.301491
843.00 0.3013941
843.10 0.3012972
843.20 0.3012004
843.30 0.3011036
843.40 0.3010068
843.50 0.3009101
843.60 0.3008134
843.70 0.3007167
843.80 0.3006201
843.90 0.3005235
844.00 0.300427
844.10 0.3003305
844.20 0.300234
844.30 0.3001376
844.40 0.3000412
844.50 0.2999449
844.60 0.2998486
844.70 0.2997523
844.80 0.299656
844.90 0.2995598
845.00 0.2994637
845.10 0.2993675
845.20 0.2992714
845.30 0.2991725
845.40 0.2990736
845.50 0.2989747
845.60 0.2988759
845.70 0.2987771
845.80 0.2986784
845.90 0.2985797
846.00 0.298481
846.10 0.2983824
846.20 0.2982838
846.30 0.2981852
846.40 0.2980867
846.50 0.2979883
846.60 0.2978898
846.70 0.2977914
846.80 0.2976931
846.90 0.2975947
847.00 0.2974964
847.10 0.2973982
847.20 0.2973
847.30 0.2972018
847.40 0.2971037
847.50 0.2970056
847.60 0.2969075
847.70 0.2968095
847.80 0.2967115
847.90 0.2966136
848.00 0.2965157
848.10 0.2964178
848.20 0.29632
848.30 0.2962222
848.40 0.2961244
848.50 0.2960267
848.60 0.295929
848.70 0.2958314
848.80 0.2957338
848.90 0.2956362
849.00 0.2955387
849.10 0.2954412
849.20 0.2953438
849.30 0.2952464
849.40 0.295149
849.50 0.2950516
849.60 0.2949543
849.70 0.2948571
849.80 0.2947598
849.90 0.2946627
850.00 0.2945655
850.10 0.2944684
850.20 0.2943713
850.30 0.2942743
850.40 0.2941773
850.50 0.2940803
850.60 0.2939834
850.70 0.2938865
850.80 0.2937897
850.90 0.2936928
851.00 0.2935961
851.10 0.2934993
851.20 0.2934026
851.30 0.293306
851.40 0.2932093
851.50 0.2931127
851.60 0.2930162
851.70 0.2929197
851.80 0.2928232
851.90 0.2927268
852.00 0.2926304
852.10 0.292534
852.20 0.2924377
852.30 0.2923414
852.40 0.2922451
852.50 0.2921489
852.60 0.2920527
852.70 0.2919566
852.80 0.2918605
852.90 0.2917644
853.00 0.2916684
853.10 0.2915724
853.20 0.2914764
853.30 0.2913805
853.40 0.2912846
853.50 0.2911888
853.60 0.291093
853.70 0.2909973
853.80 0.2909019
853.90 0.2908064
854.00 0.290711
854.10 0.2906157
854.20 0.2905204
854.30 0.2904251
854.40 0.2903298
854.50 0.2902346
854.60 0.2901395
854.70 0.2900443
854.80 0.2899492
854.90 0.2898542
855.00 0.2897591
855.10 0.2896641
855.20 0.2895692
855.30 0.2894743
855.40 0.2893794
855.50 0.2892846
855.60 0.2891897
855.70 0.289095
855.80 0.2890002
855.90 0.2889055
856.00 0.2888109
856.10 0.2887163
856.20 0.2886217
856.30 0.2885271
856.40 0.2884326
856.50 0.2883381
856.60 0.2882437
856.70 0.2881493
856.80 0.2880549
856.90 0.2879606
857.00 0.2878663
857.10 0.287772
857.20 0.2876778
857.30 0.2875836
857.40 0.2874894
857.50 0.2873953
857.60 0.2873012
857.70 0.2872072
857.80 0.2871132
857.90 0.2870192
858.00 0.2869253
858.10 0.2868314
858.20 0.2867375
858.30 0.2866437
858.40 0.2865499
858.50 0.2864561
858.60 0.2863624
858.70 0.2862687
858.80 0.2861751
858.90 0.2860815
859.00 0.2859879
859.10 0.2858943
859.20 0.2858008
859.30 0.2857074
859.40 0.2856139
859.50 0.2855205
859.60 0.2854272
859.70 0.2853338
859.80 0.2852405
859.90 0.2851473
860.00 0.2850541
860.10 0.2849609
860.20 0.2848677
860.30 0.2847746
860.40 0.2846815
860.50 0.2845885
860.60 0.2844955
860.70 0.2844025
860.80 0.2843096
860.90 0.2842167
861.00 0.2841238
861.10 0.284031
861.20 0.2839382
861.30 0.2838454
861.40 0.2837527
861.50 0.28366
861.60 0.2835674
861.70 0.2834747
861.80 0.2833822
861.90 0.2832896
862.00 0.2831971
862.10 0.2831046
862.20 0.2830122
862.30 0.2829201
862.40 0.282828
862.50 0.2827359
862.60 0.2826439
862.70 0.2825519
862.80 0.2824599
862.90 0.282368
863.00 0.2822761
863.10 0.2821842
863.20 0.2820924
863.30 0.2820006
863.40 0.2819089
863.50 0.2818172
863.60 0.2817255
863.70 0.2816338
863.80 0.2815422
863.90 0.2814506
864.00 0.2813591
864.10 0.2812676
864.20 0.2811761
864.30 0.2810847
864.40 0.2809933
864.50 0.2809019
864.60 0.2808106
864.70 0.2807193
864.80 0.280628
864.90 0.2805368
865.00 0.2804456
865.10 0.2803544
865.20 0.2802633
865.30 0.2801722
865.40 0.2800811
865.50 0.2799901
865.60 0.2798991
865.70 0.2798082
865.80 0.2797172
865.90 0.2796264
866.00 0.2795355
866.10 0.2794447
866.20 0.2793539
866.30 0.2792632
866.40 0.2791724
866.50 0.2790818
866.60 0.2789911
866.70 0.2789005
866.80 0.2788099
866.90 0.2787194
867.00 0.2786289
867.10 0.2785384
867.20 0.278448
867.30 0.2783576
867.40 0.2782672
867.50 0.2781769
867.60 0.2780866
867.70 0.2779963
867.80 0.2779061
867.90 0.2778159
868.00 0.2777257
868.10 0.2776356
868.20 0.2775455
868.30 0.2774554
868.40 0.2773654
868.50 0.2772754
868.60 0.2771855
868.70 0.2770955
868.80 0.2770056
868.90 0.2769158
869.00 0.276826
869.10 0.2767362
869.20 0.2766464
869.30 0.2765567
869.40 0.276467
869.50 0.2763774
869.60 0.2762877
869.70 0.2761982
869.80 0.2761086
869.90 0.2760191
870.00 0.2759296
870.10 0.2758402
870.20 0.2757507
870.30 0.2756614
870.40 0.275572
870.50 0.2754827
870.60 0.2753934
870.70 0.2753042
870.80 0.275215
870.90 0.2751234
871.00 0.2750317
871.10 0.27494
871.20 0.2748483
871.30 0.2747567
871.40 0.2746651
871.50 0.2745735
871.60 0.274482
871.70 0.2743905
871.80 0.274299
871.90 0.2742076
872.00 0.2741162
872.10 0.2740248
872.20 0.2739335
872.30 0.2738422
872.40 0.2737509
872.50 0.2736597
872.60 0.2735685
872.70 0.2734773
872.80 0.2733862
872.90 0.2732951
873.00 0.2732041
873.10 0.2731131
873.20 0.2730221
873.30 0.2729311
873.40 0.2728402
873.50 0.2727493
873.60 0.2726585
873.70 0.2725677
873.80 0.2724769
873.90 0.2723862
874.00 0.2722955
874.10 0.2722048
874.20 0.2721142
874.30 0.2720235
874.40 0.271933
874.50 0.2718424
874.60 0.2717519
874.70 0.2716615
874.80 0.271571
874.90 0.2714806
875.00 0.2713903
875.10 0.2713
875.20 0.2712107
875.30 0.2711232
875.40 0.2710358
875.50 0.2709485
875.60 0.2708611
875.70 0.2707738
875.80 0.2706866
875.90 0.2705993
876.00 0.2705121
876.10 0.270425
876.20 0.2703378
876.30 0.2702507
876.40 0.2701637
876.50 0.2700766
876.60 0.2699896
876.70 0.2699026
876.80 0.2698157
876.90 0.2697288
877.00 0.2696419
877.10 0.2695551
877.20 0.2694683
877.30 0.2693815
877.40 0.2692947
877.50 0.269208
877.60 0.2691213
877.70 0.2690347
877.80 0.2689481
877.90 0.2688615
878.00 0.268775
878.10 0.2686884
878.20 0.268602
878.30 0.2685155
878.40 0.2684291
878.50 0.2683427
878.60 0.2682563
878.70 0.26817
878.80 0.2680837
878.90 0.2679975
879.00 0.2679112
879.10 0.267825
879.20 0.2677389
879.30 0.2676528
879.40 0.2675667
879.50 0.2674806
879.60 0.2673948
879.70 0.267309
879.80 0.2672233
879.90 0.2671376
880.00 0.267052
880.10 0.2669663
880.20 0.2668808
880.30 0.2667952
880.40 0.2667097
880.50 0.2666242
880.60 0.2665387
880.70 0.2664533
880.80 0.2663679
880.90 0.2662825
881.00 0.2661972
881.10 0.2661119
881.20 0.2660266
881.30 0.2659414
881.40 0.2658562
881.50 0.265771
881.60 0.2656859
881.70 0.2656008
881.80 0.2655157
881.90 0.2654306
882.00 0.2653456
882.10 0.2652606
882.20 0.2651757
882.30 0.2650908
882.40 0.2650059
882.50 0.264921
882.60 0.2648362
882.70 0.2647514
882.80 0.2646667
882.90 0.2645819
883.00 0.2644972
883.10 0.2644126
883.20 0.2643279
883.30 0.2642433
883.40 0.2641588
883.50 0.2640742
883.60 0.2639897
883.70 0.2639052
883.80 0.2638208
883.90 0.2637364
884.00 0.263652
884.10 0.2635676
884.20 0.2634833
884.30 0.263399
884.40 0.2633147
884.50 0.2632305
884.60 0.2631463
884.70 0.2630621
884.80 0.262978
884.90 0.2628939
885.00 0.2628098
885.10 0.2627258
885.20 0.2626418
885.30 0.2625578
885.40 0.2624738
885.50 0.2623899
885.60 0.262306
885.70 0.2622222
885.80 0.2621384
885.90 0.2620546
886.00 0.2619708
886.10 0.2618871
886.20 0.2618034
886.30 0.2617197
886.40 0.2616361
886.50 0.2615524
886.60 0.2614689
886.70 0.2613853
886.80 0.2613018
886.90 0.2612183
887.00 0.2611349
887.10 0.2610515
887.20 0.2609681
887.30 0.2608847
887.40 0.2608014
887.50 0.2607181
887.60 0.2606348
887.70 0.2605516
887.80 0.2604684
887.90 0.2603852
888.00 0.2603021
888.10 0.260219
888.20 0.2601359
888.30 0.2600528
888.40 0.2599688
888.50 0.2598848
888.60 0.2598007
888.70 0.2597167
888.80 0.2596327
888.90 0.2595487
889.00 0.2594648
889.10 0.2593809
889.20 0.259297
889.30 0.2592132
889.40 0.2591294
889.50 0.2590456
889.60 0.2589618
889.70 0.2588781
889.80 0.2587944
889.90 0.2587108
890.00 0.2586272
890.10 0.2585436
890.20 0.25846
890.30 0.2583765
890.40 0.258293
890.50 0.2582095
890.60 0.2581261
890.70 0.2580427
890.80 0.2579593
890.90 0.257876
891.00 0.2577927
891.10 0.2577094
891.20 0.2576261
891.30 0.2575429
891.40 0.2574597
891.50 0.2573766
891.60 0.2572934
891.70 0.2572103
891.80 0.2571273
891.90 0.2570442
892.00 0.2569612
892.10 0.2568783
892.20 0.2567953
892.30 0.2567124
892.40 0.2566295
892.50 0.2565467
892.60 0.2564639
892.70 0.2563811
892.80 0.2562983
892.90 0.2562156
893.00 0.2561329
893.10 0.2560502
893.20 0.2559676
893.30 0.255885
893.40 0.2558024
893.50 0.2557199
893.60 0.2556373
893.70 0.2555549
893.80 0.2554724
893.90 0.25539
894.00 0.2553076
894.10 0.2552252
894.20 0.2551429
894.30 0.2550606
894.40 0.2549783
894.50 0.2548961
894.60 0.2548139
894.70 0.2547317
894.80 0.2546496
894.90 0.2545674
895.00 0.2544854
895.10 0.2544033
895.20 0.2543213
895.30 0.2542393
895.40 0.2541573
895.50 0.2540754
895.60 0.2539935
895.70 0.2539116
895.80 0.2538298
895.90 0.2537479
896.00 0.2536662
896.10 0.2535844
896.20 0.2535027
896.30 0.253421
896.40 0.2533393
896.50 0.2532577
896.60 0.2531761
896.70 0.2530945
896.80 0.253013
896.90 0.2529315
897.00 0.25285
897.10 0.2527685
897.20 0.2526872
897.30 0.2526073
897.40 0.2525275
897.50 0.2524477
897.60 0.252368
897.70 0.2522883
897.80 0.2522086
897.90 0.2521289
898.00 0.2520493
898.10 0.2519697
898.20 0.2518901
898.30 0.2518105
898.40 0.251731
898.50 0.2516515
898.60 0.2515721
898.70 0.2514927
898.80 0.2514133
898.90 0.2513339
899.00 0.2512545
899.10 0.2511752
899.20 0.251096
899.30 0.2510167
899.40 0.2509375
899.50 0.2508583
899.60 0.2507791
899.70 0.2507
899.80 0.2506209
899.90 0.2505418
900.00 0.2504627
900.10 0.2503837
900.20 0.2503047
900.30 0.2502258
900.40 0.2501468
900.50 0.2500679
900.60 0.249989
900.70 0.2499102
900.80 0.2498314
900.90 0.2497526
901.00 0.2496738
901.10 0.2495951
901.20 0.2495164
901.30 0.2494377
901.40 0.249359
901.50 0.2492804
901.60 0.2492018
901.70 0.2491233
901.80 0.2490447
901.90 0.2489662
902.00 0.2488878
902.10 0.2488093
902.20 0.2487309
902.30 0.2486525
902.40 0.2485742
902.50 0.2484958
902.60 0.2484175
902.70 0.2483392
902.80 0.248261
902.90 0.2481828
903.00 0.2481046
903.10 0.2480264
903.20 0.2479483
903.30 0.2478702
903.40 0.2477921
903.50 0.2477141
903.60 0.2476361
903.70 0.2475581
903.80 0.2474801
903.90 0.2474022
904.00 0.2473243
904.10 0.2472464
904.20 0.2471686
904.30 0.2470907
904.40 0.2470129
904.50 0.2469352
904.60 0.2468574
904.70 0.2467797
904.80 0.2467021
904.90 0.2466244
905.00 0.2465468
905.10 0.2464692
905.20 0.2463916
905.30 0.2463141
905.40 0.2462366
905.50 0.2461591
905.60 0.2460817
905.70 0.2460042
905.80 0.2459268
905.90 0.2458495
906.00 0.2457721
906.10 0.2456948
906.20 0.2456168
906.30 0.2455373
906.40 0.2454577
906.50 0.2453782
906.60 0.2452987
906.70 0.2452193
906.80 0.2451399
906.90 0.2450605
907.00 0.2449811
907.10 0.2449018
907.20 0.2448225
907.30 0.2447432
907.40 0.244664
907.50 0.2445848
907.60 0.2445056
907.70 0.2444265
907.80 0.2443473
907.90 0.2442682
908.00 0.2441892
908.10 0.2441101
908.20 0.2440311
908.30 0.2439521
908.40 0.2438732
908.50 0.2437943
908.60 0.2437154
908.70 0.2436365
908.80 0.2435577
908.90 0.2434789
909.00 0.2434001
909.10 0.2433213
909.20 0.2432426
909.30 0.2431639
909.40 0.2430853
909.50 0.2430066
909.60 0.242928
909.70 0.2428494
909.80 0.2427709
909.90 0.2426924
910.00 0.2426139
910.10 0.2425354
910.20 0.242457
910.30 0.2423786
910.40 0.2423002
910.50 0.2422218
910.60 0.2421435
910.70 0.2420653
910.80 0.2419895
910.90 0.2419138
911.00 0.2418381
911.10 0.2417624
911.20 0.2416868
911.30 0.2416112
911.40 0.2415356
911.50 0.24146
911.60 0.2413845
911.70 0.241309
911.80 0.2412335
911.90 0.241158
912.00 0.2410826
912.10 0.2410072
912.20 0.2409318
912.30 0.2408565
912.40 0.2407812
912.50 0.2407059
912.60 0.2406306
912.70 0.2405554
912.80 0.2404802
912.90 0.240405
913.00 0.2403299
913.10 0.2402547
913.20 0.2401797
913.30 0.2401046
913.40 0.2400295
913.50 0.2399545
913.60 0.2398795
913.70 0.2398046
913.80 0.2397296
913.90 0.2396547
914.00 0.2395798
914.10 0.239505
914.20 0.2394302
914.30 0.2393554
914.40 0.2392806
914.50 0.2392059
914.60 0.2391311
914.70 0.2390564
914.80 0.2389818
914.90 0.2389071
915.00 0.2388325
915.10 0.2387579
915.20 0.2386834
915.30 0.2386073
915.40 0.2385305
915.50 0.2384538
915.60 0.2383771
915.70 0.2383005
915.80 0.2382238
915.90 0.2381472
916.00 0.2380707
916.10 0.2379941
916.20 0.2379176
916.30 0.2378411
916.40 0.2377646
916.50 0.2376882
916.60 0.2376118
916.70 0.2375354
916.80 0.237459
916.90 0.2373827
917.00 0.2373064
917.10 0.2372301
917.20 0.2371539
917.30 0.2370777
917.40 0.2370015
917.50 0.2369253
917.60 0.2368492
917.70 0.2367731
917.80 0.236697
917.90 0.2366209
918.00 0.2365449
918.10 0.2364689
918.20 0.236393
918.30 0.236317
918.40 0.2362411
918.50 0.2361652
918.60 0.2360893
918.70 0.2360135
918.80 0.2359377
918.90 0.2358619
919.00 0.2357862
919.10 0.2357105
919.20 0.2356348
919.30 0.2355591
919.40 0.2354835
919.50 0.2354078
919.60 0.2353323
919.70 0.2352567
919.80 0.2351812
919.90 0.235108
920.00 0.2350349
920.10 0.2349619
920.20 0.2348889
920.30 0.2348159
920.40 0.234743
920.50 0.2346701
920.60 0.2345972
920.70 0.2345244
920.80 0.2344515
920.90 0.2343787
921.00 0.2343059
921.10 0.2342332
921.20 0.2341605
921.30 0.2340878
921.40 0.2340151
921.50 0.2339424
921.60 0.2338698
921.70 0.2337972
921.80 0.2337246
921.90 0.2336521
922.00 0.2335796
922.10 0.2335071
922.20 0.2334346
922.30 0.2333622
922.40 0.2332898
922.50 0.2332174
922.60 0.233145
922.70 0.2330727
922.80 0.2330004
922.90 0.2329281
923.00 0.2328558
923.10 0.2327836
923.20 0.2327114
923.30 0.2326392
923.40 0.232567
923.50 0.2324949
923.60 0.2324228
923.70 0.2323507
923.80 0.2322787
923.90 0.2322066
924.00 0.2321346
924.10 0.2320627
924.20 0.2319907
924.30 0.2319188
924.40 0.2318465
924.50 0.2317725
924.60 0.2316984
924.70 0.2316244
924.80 0.2315505
924.90 0.2314765
925.00 0.2314026
925.10 0.2313287
925.20 0.2312549
925.30 0.231181
925.40 0.2311072
925.50 0.2310335
925.60 0.2309597
925.70 0.230886
925.80 0.2308123
925.90 0.2307386
926.00 0.2306649
926.10 0.2305913
926.20 0.2305177
926.30 0.2304442
926.40 0.2303706
926.50 0.2302971
926.60 0.2302236
926.70 0.2301501
926.80 0.2300767
926.90 0.2300033
927.00 0.2299299
927.10 0.2298566
927.20 0.2297832
927.30 0.2297099
927.40 0.2296366
927.50 0.2295634
927.60 0.2294902
927.70 0.229417
927.80 0.2293438
927.90 0.2292706
928.00 0.2291975
928.10 0.2291244
928.20 0.2290513
928.30 0.2289783
928.40 0.2289053
928.50 0.2288323
928.60 0.2287593
928.70 0.2286864
928.80 0.2286135
928.90 0.2285406
929.00 0.2284677
929.10 0.2283972
929.20 0.2283267
929.30 0.2282563
929.40 0.2281859
929.50 0.2281155
929.60 0.2280452
929.70 0.2279749
929.80 0.2279046
929.90 0.2278343
930.00 0.2277641
930.10 0.2276938
930.20 0.2276236
930.30 0.2275535
930.40 0.2274833
930.50 0.2274132
930.60 0.2273431
930.70 0.227273
930.80 0.227203
930.90 0.227133
931.00 0.227063
931.10 0.226993
931.20 0.2269231
931.30 0.2268532
931.40 0.2267833
931.50 0.2267134
931.60 0.2266435
931.70 0.2265737
931.80 0.2265039
931.90 0.2264341
932.00 0.2263644
932.10 0.2262947
932.20 0.226225
932.30 0.2261553
932.40 0.2260857
932.50 0.226016
932.60 0.2259464
932.70 0.2258769
932.80 0.2258073
932.90 0.2257378
933.00 0.2256683
933.10 0.2255988
933.20 0.2255294
933.30 0.2254599
933.40 0.2253905
933.50 0.2253211
933.60 0.2252518
933.70 0.2251818
933.80 0.2251115
933.90 0.2250413
934.00 0.2249711
934.10 0.2249009
934.20 0.2248307
934.30 0.2247606
934.40 0.2246905
934.50 0.2246204
934.60 0.2245504
934.70 0.2244803
934.80 0.2244103
934.90 0.2243403
935.00 0.2242704
935.10 0.2242004
935.20 0.2241305
935.30 0.2240607
935.40 0.2239908
935.50 0.223921
935.60 0.2238512
935.70 0.2237814
935.80 0.2237116
935.90 0.2236419
936.00 0.2235722
936.10 0.2235025
936.20 0.2234328
936.30 0.2233632
936.40 0.2232936
936.50 0.223224
936.60 0.2231544
936.70 0.2230849
936.80 0.2230154
936.90 0.2229459
937.00 0.2228764
937.10 0.222807
937.20 0.2227376
937.30 0.2226682
937.40 0.2225988
937.50 0.2225295
937.60 0.2224602
937.70 0.2223909
937.80 0.2223216
937.90 0.2222523
938.00 0.2221831
938.10 0.2221139
938.20 0.2220448
938.30 0.2219756
938.40 0.2219065
938.50 0.2218374
938.60 0.2217683
938.70 0.2216993
938.80 0.2216303
938.90 0.2215613
939.00 0.2214923
939.10 0.2214233
939.20 0.2213544
939.30 0.2212855
939.40 0.2212166
939.50 0.2211478
939.60 0.221079
939.70 0.2210101
939.80 0.2209414
939.90 0.2208726
940.00 0.2208039
940.10 0.2207352
940.20 0.2206665
940.30 0.2205978
940.40 0.2205292
940.50 0.2204606
940.60 0.220392
940.70 0.2203234
940.80 0.2202549
940.90 0.2201864
941.00 0.2201179
941.10 0.2200494
941.20 0.219981
941.30 0.2199126
941.40 0.2198442
941.50 0.2197758
941.60 0.2197075
941.70 0.2196392
941.80 0.2195709
941.90 0.2195026
942.00 0.2194343
942.10 0.2193661
942.20 0.2192979
942.30 0.2192297
942.40 0.2191616
942.50 0.2190935
942.60 0.2190253
942.70 0.2189573
942.80 0.2188892
942.90 0.2188212
943.00 0.2187528
943.10 0.2186839
943.20 0.2186151
943.30 0.2185462
943.40 0.2184774
943.50 0.2184086
943.60 0.2183398
943.70 0.2182711
943.80 0.2182023
943.90 0.2181336
944.00 0.218065
944.10 0.2179963
944.20 0.2179277
944.30 0.2178591
944.40 0.2177905
944.50 0.2177219
944.60 0.2176534
944.70 0.2175849
944.80 0.2175164
944.90 0.217448
945.00 0.2173795
945.10 0.2173111
945.20 0.2172427
945.30 0.2171744
945.40 0.217106
945.50 0.2170377
945.60 0.2169694
945.70 0.2169012
945.80 0.2168329
945.90 0.2167647
946.00 0.2166965
946.10 0.2166283
946.20 0.2165602
946.30 0.2164921
946.40 0.216424
946.50 0.2163559
946.60 0.2162878
946.70 0.2162198
946.80 0.2161518
946.90 0.2160838
947.00 0.2160159
947.10 0.2159479
947.20 0.21588
947.30 0.2158122
947.40 0.2157443
947.50 0.2156765
947.60 0.2156086
947.70 0.2155409
947.80 0.2154731
947.90 0.2154054
948.00 0.2153376
948.10 0.2152699
948.20 0.2152023
948.30 0.2151346
948.40 0.215067
948.50 0.2149994
948.60 0.2149318
948.70 0.2148643
948.80 0.2147968
948.90 0.2147293
949.00 0.2146618
949.10 0.2145943
949.20 0.2145269
949.30 0.2144595
949.40 0.2143921
949.50 0.2143247
949.60 0.2142574
949.70 0.2141901
949.80 0.2141228
949.90 0.2140555
950.00 0.2139883
950.10 0.2139211
950.20 0.2138539
950.30 0.2137867
950.40 0.2137195
950.50 0.2136524
950.60 0.2135853
950.70 0.2135182
950.80 0.2134512
950.90 0.2133842
951.00 0.2133171
951.10 0.2132502
951.20 0.2131832
951.30 0.2131163
951.40 0.2130493
951.50 0.2129825
951.60 0.2129156
951.70 0.2128487
951.80 0.2127819
951.90 0.2127151
952.00 0.2126484
952.10 0.2125816
952.20 0.2125149
952.30 0.2124482
952.40 0.2123817
952.50 0.2123174
952.60 0.2122532
952.70 0.212189
952.80 0.2121248
952.90 0.2120606
953.00 0.2119965
953.10 0.2119324
953.20 0.2118683
953.30 0.2118042
953.40 0.2117401
953.50 0.2116761
953.60 0.2116121
953.70 0.2115481
953.80 0.2114841
953.90 0.2114202
954.00 0.2113563
954.10 0.2112924
954.20 0.2112285
954.30 0.2111646
954.40 0.2111008
954.50 0.211037
954.60 0.2109732
954.70 0.2109094
954.80 0.2108457
954.90 0.210782
955.00 0.2107183
955.10 0.2106546
955.20 0.2105909
955.30 0.2105273
955.40 0.2104637
955.50 0.2104001
955.60 0.2103365
955.70 0.210273
955.80 0.2102095
955.90 0.210146
956.00 0.2100825
956.10 0.210019
956.20 0.2099556
956.30 0.2098922
956.40 0.2098288
956.50 0.2097654
956.60 0.2097021
956.70 0.2096387
956.80 0.2095754
956.90 0.2095122
957.00 0.2094489
957.10 0.2093857
957.20 0.2093214
957.30 0.2092561
957.40 0.2091907
957.50 0.2091254
957.60 0.2090601
957.70 0.2089949
957.80 0.2089296
957.90 0.2088644
958.00 0.2087992
958.10 0.208734
958.20 0.2086689
958.30 0.2086038
958.40 0.2085386
958.50 0.2084736
958.60 0.2084085
958.70 0.2083435
958.80 0.2082784
958.90 0.2082134
959.00 0.2081485
959.10 0.2080835
959.20 0.2080186
959.30 0.2079537
959.40 0.2078888
959.50 0.2078239
959.60 0.2077591
959.70 0.2076943
959.80 0.2076295
959.90 0.2075647
960.00 0.2075
960.10 0.2074353
960.20 0.2073706
960.30 0.2073059
960.40 0.2072412
960.50 0.2071766
960.60 0.207112
960.70 0.2070474
960.80 0.2069828
960.90 0.2069183
961.00 0.2068537
961.10 0.2067892
961.20 0.2067248
961.30 0.2066603
961.40 0.2065959
961.50 0.2065315
961.60 0.2064671
961.70 0.2064027
961.80 0.2063384
961.90 0.206274
962.00 0.2062108
962.10 0.2061478
962.20 0.2060848
962.30 0.2060218
962.40 0.2059589
962.50 0.205896
962.60 0.2058331
962.70 0.2057702
962.80 0.2057074
962.90 0.2056445
963.00 0.2055817
963.10 0.2055189
963.20 0.2054562
963.30 0.2053934
963.40 0.2053307
963.50 0.205268
963.60 0.2052053
963.70 0.2051426
963.80 0.20508
963.90 0.2050174
964.00 0.2049548
964.10 0.2048922
964.20 0.2048297
964.30 0.2047671
964.40 0.2047046
964.50 0.2046421
964.60 0.2045797
964.70 0.2045172
964.80 0.2044548
964.90 0.2043924
965.00 0.20433
965.10 0.2042677
965.20 0.2042053
965.30 0.204143
965.40 0.2040807
965.50 0.2040184
965.60 0.2039562
965.70 0.203894
965.80 0.2038318
965.90 0.2037696
966.00 0.2037074
966.10 0.2036453
966.20 0.2035831
966.30 0.203521
966.40 0.203459
966.50 0.2033969
966.60 0.2033349
966.70 0.2032728
966.80 0.2032108
966.90 0.2031489
967.00 0.2030869
967.10 0.203025
967.20 0.2029631
967.30 0.2029012
967.40 0.2028393
967.50 0.2027775
967.60 0.2027157
967.70 0.2026539
967.80 0.2025921
967.90 0.2025303
968.00 0.2024686
968.10 0.2024068
968.20 0.2023452
968.30 0.2022835
968.40 0.2022218
968.50 0.2021602
968.60 0.2020986
968.70 0.202037
968.80 0.2019754
968.90 0.2019139
969.00 0.2018523
969.10 0.2017908
969.20 0.2017293
969.30 0.2016679
969.40 0.2016064
969.50 0.201545
969.60 0.2014836
969.70 0.2014222
969.80 0.2013609
969.90 0.2012995
970.00 0.2012382
970.10 0.2011769
970.20 0.2011156
970.30 0.2010544
970.40 0.2009931
970.50 0.2009319
970.60 0.2008707
970.70 0.2008096
970.80 0.2007484
970.90 0.2006873
971.00 0.2006262
971.10 0.2005651
971.20 0.200504
971.30 0.200443
971.40 0.200382
971.50 0.2003209
971.60 0.2002594
971.70 0.2001976
971.80 0.2001359
971.90 0.2000741
972.00 0.2000124
972.10 0.1999507
972.20 0.199889
972.30 0.1998273
972.40 0.1997656
972.50 0.199704
972.60 0.1996424
972.70 0.1995808
972.80 0.1995193
972.90 0.1994577
973.00 0.1993962
973.10 0.1993347
973.20 0.1992732
973.30 0.1992118
973.40 0.1991503
973.50 0.1990889
973.60 0.1990275
973.70 0.1989661
973.80 0.1989048
973.90 0.1988435
974.00 0.1987822
974.10 0.1987209
974.20 0.1986596
974.30 0.1985983
974.40 0.1985371
974.50 0.1984759
974.60 0.1984147
974.70 0.1983536
974.80 0.1982924
974.90 0.1982313
975.00 0.1981702
975.10 0.1981091
975.20 0.1980481
975.30 0.197987
975.40 0.197926
975.50 0.197865
975.60 0.197804
975.70 0.1977431
975.80 0.1976821
975.90 0.1976212
976.00 0.1975603
976.10 0.1974995
976.20 0.1974386
976.30 0.1973778
976.40 0.197317
976.50 0.1972562
976.60 0.1971954
976.70 0.1971347
976.80 0.1970739
976.90 0.1970132
977.00 0.1969525
977.10 0.1968919
977.20 0.1968312
977.30 0.1967706
977.40 0.19671
977.50 0.1966494
977.60 0.1965889
977.70 0.1965283
977.80 0.1964678
977.90 0.1964073
978.00 0.1963468
978.10 0.1962864
978.20 0.1962259
978.30 0.1961655
978.40 0.1961051
978.50 0.1960447
978.60 0.1959844
978.70 0.1959241
978.80 0.1958637
978.90 0.1958035
979.00 0.1957432
979.10 0.1956829
979.20 0.1956227
979.30 0.1955625
979.40 0.1955023
979.50 0.1954421
979.60 0.195382
979.70 0.1953218
979.80 0.1952617
979.90 0.1952016
980.00 0.1951416
980.10 0.1950815
980.20 0.1950215
980.30 0.1949615
980.40 0.1949015
980.50 0.1948416
980.60 0.1947816
980.70 0.1947217
980.80 0.1946618
980.90 0.1946019
981.00 0.194542
981.10 0.1944822
981.20 0.1944224
981.30 0.1943632
981.40 0.1943046
981.50 0.194246
981.60 0.1941875
981.70 0.194129
981.80 0.1940704
981.90 0.194012
982.00 0.1939535
982.10 0.1938951
982.20 0.1938366
982.30 0.1937782
982.40 0.1937198
982.50 0.1936615
982.60 0.1936031
982.70 0.1935448
982.80 0.1934865
982.90 0.1934282
983.00 0.19337
983.10 0.1933117
983.20 0.1932535
983.30 0.1931953
983.40 0.1931371
983.50 0.1930789
983.60 0.1930208
983.70 0.1929626
983.80 0.1929045
983.90 0.1928465
984.00 0.1927884
984.10 0.1927303
984.20 0.1926723
984.30 0.1926143
984.40 0.1925563
984.50 0.1924983
984.60 0.1924404
984.70 0.1923824
984.80 0.1923245
984.90 0.1922666
985.00 0.1922088
985.10 0.1921509
985.20 0.1920931
985.30 0.1920353
985.40 0.1919775
985.50 0.1919197
985.60 0.1918619
985.70 0.1918042
985.80 0.1917465
985.90 0.1916888
986.00 0.1916311
986.10 0.1915735
986.20 0.1915158
986.30 0.1914582
986.40 0.1914006
986.50 0.191343
986.60 0.1912855
986.70 0.1912279
986.80 0.1911704
986.90 0.1911129
987.00 0.1910554
987.10 0.1909979
987.20 0.1909405
987.30 0.1908831
987.40 0.1908257
987.50 0.1907683
987.60 0.1907109
987.70 0.1906536
987.80 0.1905962
987.90 0.1905389
988.00 0.1904816
988.10 0.1904243
988.20 0.1903671
988.30 0.1903099
988.40 0.1902527
988.50 0.1901955
988.60 0.1901383
988.70 0.1900811
988.80 0.190024
988.90 0.1899669
989.00 0.1899098
989.10 0.1898527
989.20 0.1897956
989.30 0.1897386
989.40 0.1896816
989.50 0.1896246
989.60 0.1895676
989.70 0.1895106
989.80 0.1894537
989.90 0.1893968
990.00 0.1893398
990.10 0.189283
990.20 0.1892261
990.30 0.1891692
990.40 0.1891124
990.50 0.1890556
990.60 0.1889988
990.70 0.188942
990.80 0.1888853
990.90 0.1888285
991.00 0.1887718
991.10 0.1887148
991.20 0.1886574
991.30 0.1885999
991.40 0.1885425
991.50 0.1884851
991.60 0.1884277
991.70 0.1883703
991.80 0.188313
991.90 0.1882557
992.00 0.1881984
992.10 0.1881411
992.20 0.1880838
992.30 0.1880265
992.40 0.1879693
992.50 0.1879121
992.60 0.1878549
992.70 0.1877977
992.80 0.1877406
992.90 0.1876834
993.00 0.1876263
993.10 0.1875692
993.20 0.1875121
993.30 0.1874551
993.40 0.187398
993.50 0.187341
993.60 0.187284
993.70 0.187227
993.80 0.1871701
993.90 0.1871131
994.00 0.1870562
994.10 0.1869993
994.20 0.1869424
994.30 0.1868855
994.40 0.1868287
994.50 0.1867718
994.60 0.186715
994.70 0.1866582
994.80 0.1866015
994.90 0.1865447
995.00 0.186488
995.10 0.1864313
995.20 0.1863746
995.30 0.1863179
995.40 0.1862612
995.50 0.1862046
995.60 0.186148
995.70 0.1860914
995.80 0.1860348
995.90 0.1859782
996.00 0.1859217
996.10 0.1858651
996.20 0.1858086
996.30 0.1857522
996.40 0.1856957
996.50 0.1856392
996.60 0.1855828
996.70 0.1855264
996.80 0.18547
996.90 0.1854136
997.00 0.1853573
997.10 0.185301
997.20 0.1852446
997.30 0.1851883
997.40 0.1851321
997.50 0.1850758
997.60 0.1850196
997.70 0.1849633
997.80 0.1849071
997.90 0.184851
998.00 0.1847948
998.10 0.1847387
998.20 0.1846825
998.30 0.1846264
998.40 0.1845703
998.50 0.1845143
998.60 0.1844582
998.70 0.1844022
998.80 0.1843462
998.90 0.1842902
999.00 0.1842342
999.10 0.1841782
999.20 0.1841223
999.30 0.1840664
999.40 0.1840105
999.50 0.1839546
999.60 0.1838987
999.70 0.1838429
999.80 0.1837871
999.90 0.1837312
1000.00 0.1836755
1000.10 0.1836197
1000.20 0.1835639
1000.30 0.1835082
1000.40 0.1834525
1000.50 0.1833968
1000.60 0.1833411
1000.70 0.1832855
1000.80 0.1832298
1000.90 0.1831742
1001.00 0.1831186
1001.10 0.1830632
1001.20 0.1830079
1001.30 0.1829525
1001.40 0.1828971
1001.50 0.1828418
1001.60 0.1827865
1001.70 0.1827312
1001.80 0.182676
1001.90 0.1826207
1002.00 0.1825655
1002.10 0.1825103
1002.20 0.1824551
1002.30 0.1823999
1002.40 0.1823447
1002.50 0.1822896
1002.60 0.1822345
1002.70 0.1821794
1002.80 0.1821243
1002.90 0.1820692
1003.00 0.1820142
1003.10 0.1819591
1003.20 0.1819041
1003.30 0.1818491
1003.40 0.1817941
1003.50 0.1817392
1003.60 0.1816842
1003.70 0.1816293
1003.80 0.1815744
1003.90 0.1815195
1004.00 0.1814647
1004.10 0.1814098
1004.20 0.181355
1004.30 0.1813002
1004.40 0.1812454
1004.50 0.1811906
1004.60 0.1811359
1004.70 0.1810811
1004.80 0.1810264
1004.90 0.1809717
1005.00 0.180917
1005.10 0.1808623
1005.20 0.1808077
1005.30 0.1807531
1005.40 0.1806985
1005.50 0.1806439
1005.60 0.1805893
1005.70 0.1805347
1005.80 0.1804802
1005.90 0.1804257
1006.00 0.1803712
1006.10 0.1803167
1006.20 0.1802622
1006.30 0.1802078
1006.40 0.1801533
1006.50 0.1800989
1006.60 0.1800445
1006.70 0.1799901
1006.80 0.1799358
1006.90 0.1798814
1007.00 0.1798271
1007.10 0.1797728
1007.20 0.1797185
1007.30 0.1796642
1007.40 0.17961
1007.50 0.1795557
1007.60 0.1795015
1007.70 0.1794473
1007.80 0.1793931
1007.90 0.179339
1008.00 0.1792848
1008.10 0.1792307
1008.20 0.1791766
1008.30 0.1791225
1008.40 0.1790684
1008.50 0.1790144
1008.60 0.1789603
1008.70 0.1789063
1008.80 0.1788523
1008.90 0.1787983
1009.00 0.1787444
1009.10 0.1786904
1009.20 0.1786365
1009.30 0.1785826
1009.40 0.1785287
1009.50 0.1784748
1009.60 0.1784209
1009.70 0.1783671
1009.80 0.1783133
1009.90 0.1782595
1010.00 0.1782057
1010.10 0.1781519
1010.20 0.1780982
1010.30 0.1780444
1010.40 0.1779907
1010.50 0.177937
1010.60 0.1778833
1010.70 0.1778297
1010.80 0.177776
1010.90 0.1777224
1011.00 0.1776691
1011.10 0.1776175
1011.20 0.177566
1011.30 0.1775144
1011.40 0.1774629
1011.50 0.1774114
1011.60 0.1773599
1011.70 0.1773084
1011.80 0.177257
1011.90 0.1772055
1012.00 0.1771541
1012.10 0.1771027
1012.20 0.1770513
1012.30 0.1769999
1012.40 0.1769485
1012.50 0.1768972
1012.60 0.1768459
1012.70 0.1767946
1012.80 0.1767433
1012.90 0.176692
1013.00 0.1766407
1013.10 0.1765895
1013.20 0.1765383
1013.30 0.1764871
1013.40 0.1764359
1013.50 0.1763847
1013.60 0.1763335
1013.70 0.1762824
1013.80 0.1762313
1013.90 0.1761802
1014.00 0.1761291
1014.10 0.176078
1014.20 0.1760269
1014.30 0.1759759
1014.40 0.1759249
1014.50 0.1758739
1014.60 0.1758229
1014.70 0.1757719
1014.80 0.1757209
1014.90 0.17567
1015.00 0.1756191
1015.10 0.1755682
1015.20 0.1755173
1015.30 0.1754664
1015.40 0.1754155
1015.50 0.1753647
1015.60 0.1753139
1015.70 0.1752631
1015.80 0.1752123
1015.90 0.1751615
1016.00 0.1751107
1016.10 0.1750589
1016.20 0.1750063
1016.30 0.1749538
1016.40 0.1749013
1016.50 0.1748488
1016.60 0.1747964
1016.70 0.1747439
1016.80 0.1746915
1016.90 0.1746391
1017.00 0.1745867
1017.10 0.1745343
1017.20 0.1744819
1017.30 0.1744296
1017.40 0.1743773
1017.50 0.174325
1017.60 0.1742727
1017.70 0.1742204
1017.80 0.1741681
1017.90 0.1741159
1018.00 0.1740637
1018.10 0.1740115
1018.20 0.1739593
1018.30 0.1739071
1018.40 0.173855
1018.50 0.1738028
1018.60 0.1737507
1018.70 0.1736986
1018.80 0.1736465
1018.90 0.1735944
1019.00 0.1735424
1019.10 0.1734903
1019.20 0.1734383
1019.30 0.1733863
1019.40 0.1733343
1019.50 0.1732824
1019.60 0.1732304
1019.70 0.1731785
1019.80 0.1731266
1019.90 0.1730747
1020.00 0.1730228
1020.10 0.1729709
1020.20 0.1729191
1020.30 0.1728673
1020.40 0.1728154
1020.50 0.1727636
1020.60 0.1727119
1020.70 0.1726601
1020.80 0.1726084
1020.90 0.1725566
1021.00 0.1725049
1021.10 0.1724532
1021.20 0.1724017
1021.30 0.1723503
1021.40 0.1722988
1021.50 0.1722473
1021.60 0.1721959
1021.70 0.1721445
1021.80 0.1720931
1021.90 0.1720417
1022.00 0.1719903
1022.10 0.171939
1022.20 0.1718877
1022.30 0.1718364
1022.40 0.1717851
1022.50 0.1717338
1022.60 0.1716825
1022.70 0.1716313
1022.80 0.17158
1022.90 0.1715288
1023.00 0.1714776
1023.10 0.1714264
1023.20 0.1713753
1023.30 0.1713241
1023.40 0.171273
1023.50 0.1712219
1023.60 0.1711708
1023.70 0.1711197
1023.80 0.1710687
1023.90 0.1710176
1024.00 0.1709666
1024.10 0.1709156
1024.20 0.1708646
1024.30 0.1708136
1024.40 0.1707626
1024.50 0.1707117
1024.60 0.1706608
1024.70 0.1706098
1024.80 0.1705589
1024.90 0.1705081
1025.00 0.1704572
1025.10 0.1704064
1025.20 0.1703555
1025.30 0.1703047
1025.40 0.1702539
1025.50 0.1702031
1025.60 0.1701524
1025.70 0.1701016
1025.80 0.1700509
1025.90 0.1700002
1026.00 0.1699495
1026.10 0.1698988
1026.20 0.1698481
1026.30 0.1697975
1026.40 0.1697468
1026.50 0.1696962
1026.60 0.1696456
1026.70 0.169595
1026.80 0.1695445
1026.90 0.1694939
1027.00 0.1694434
1027.10 0.1693929
1027.20 0.1693424
1027.30 0.1692919
1027.40 0.1692414
1027.50 0.169191
1027.60 0.1691405
1027.70 0.1690901
1027.80 0.1690397
1027.90 0.1689893
1028.00 0.1689389
1028.10 0.1688886
1028.20 0.1688382
1028.30 0.1687879
1028.40 0.1687376
1028.50 0.1686873
1028.60 0.168637
1028.70 0.1685868
1028.80 0.1685366
1028.90 0.1684863
1029.00 0.1684361
1029.10 0.1683859
1029.20 0.1683358
1029.30 0.1682856
1029.40 0.1682355
1029.50 0.1681853
1029.60 0.1681352
1029.70 0.1680851
1029.80 0.168035
1029.90 0.167985
1030.00 0.1679349
1030.10 0.1678849
1030.20 0.1678349
1030.30 0.1677849
1030.40 0.1677349
1030.50 0.167685
1030.60 0.167635
1030.70 0.1675851
1030.80 0.1675352
1030.90 0.1674853
1031.00 0.1674354
1031.10 0.1673855
1031.20 0.1673357
1031.30 0.1672858
1031.40 0.1672362
1031.50 0.1671866
1031.60 0.1671369
1031.70 0.1670874
1031.80 0.1670378
1031.90 0.1669882
1032.00 0.1669387
1032.10 0.1668891
1032.20 0.1668396
1032.30 0.1667901
1032.40 0.1667406
1032.50 0.1666912
1032.60 0.1666417
1032.70 0.1665923
1032.80 0.1665429
1032.90 0.1664935
1033.00 0.1664441
1033.10 0.1663947
1033.20 0.1663454
1033.30 0.166296
1033.40 0.1662467
1033.50 0.1661974
1033.60 0.1661481
1033.70 0.1660988
1033.80 0.1660496
1033.90 0.1660003
1034.00 0.1659511
1034.10 0.1659019
1034.20 0.1658527
1034.30 0.1658035
1034.40 0.1657544
1034.50 0.1657052
1034.60 0.1656561
1034.70 0.165607
1034.80 0.1655579
1034.90 0.1655088
1035.00 0.1654597
1035.10 0.1654107
1035.20 0.1653616
1035.30 0.1653126
1035.40 0.1652636
1035.50 0.1652146
1035.60 0.1651657
1035.70 0.1651167
1035.80 0.1650678
1035.90 0.1650188
1036.00 0.1649699
1036.10 0.164921
1036.20 0.1648722
1036.30 0.1648233
1036.40 0.1647745
1036.50 0.1647263
1036.60 0.1646792
1036.70 0.1646321
1036.80 0.164585
1036.90 0.1645379
1037.00 0.1644909
1037.10 0.1644438
1037.20 0.1643968
1037.30 0.1643498
1037.40 0.1643028
1037.50 0.1642558
1037.60 0.1642089
1037.70 0.1641619
1037.80 0.164115
1037.90 0.1640681
1038.00 0.1640212
1038.10 0.1639743
1038.20 0.1639274
1038.30 0.1638806
1038.40 0.1638337
1038.50 0.1637869
1038.60 0.1637401
1038.70 0.1636933
1038.80 0.1636465
1038.90 0.1635997
1039.00 0.163553
1039.10 0.1635062
1039.20 0.1634595
1039.30 0.1634128
1039.40 0.1633661
1039.50 0.1633194
1039.60 0.1632728
1039.70 0.1632261
1039.80 0.1631795
1039.90 0.1631329
1040.00 0.1630863
1040.10 0.1630397
1040.20 0.1629931
1040.30 0.1629466
1040.40 0.1629
1040.50 0.1628535
1040.60 0.162807
1040.70 0.1627605
1040.80 0.162714
1040.90 0.1626675
1041.00 0.1626211
1041.10 0.1625746
1041.20 0.1625282
1041.30 0.1624818
1041.40 0.1624354
1041.50 0.162389
1041.60 0.1623427
1041.70 0.162295
1041.80 0.1622472
1041.90 0.1621994
1042.00 0.1621515
1042.10 0.1621037
1042.20 0.1620559
1042.30 0.1620082
1042.40 0.1619604
1042.50 0.1619126
1042.60 0.1618649
1042.70 0.1618172
1042.80 0.1617695
1042.90 0.1617218
1043.00 0.1616741
1043.10 0.1616265
1043.20 0.1615789
1043.30 0.1615312
1043.40 0.1614836
1043.50 0.161436
1043.60 0.1613884
1043.70 0.1613409
1043.80 0.1612933
1043.90 0.1612458
1044.00 0.1611983
1044.10 0.1611508
1044.20 0.1611033
1044.30 0.1610558
1044.40 0.1610084
1044.50 0.1609609
1044.60 0.1609135
1044.70 0.1608661
1044.80 0.1608187
1044.90 0.1607713
1045.00 0.160724
1045.10 0.1606766
1045.20 0.1606293
1045.30 0.160582
1045.40 0.1605347
1045.50 0.1604874
1045.60 0.1604401
1045.70 0.1603928
1045.80 0.1603456
1045.90 0.1602984
1046.00 0.1602512
1046.10 0.160204
1046.20 0.1601568
1046.30 0.1601096
1046.40 0.1600624
1046.50 0.1600153
1046.60 0.1599682
1046.70 0.1599211
1046.80 0.159874
1046.90 0.1598269
1047.00 0.1597799
1047.10 0.1597328
1047.20 0.1596858
1047.30 0.1596388
1047.40 0.1595918
1047.50 0.1595448
1047.60 0.1594978
1047.70 0.1594508
1047.80 0.1594039
1047.90 0.159357
1048.00 0.1593101
1048.10 0.1592632
1048.20 0.1592163
1048.30 0.1591694
1048.40 0.1591226
1048.50 0.1590757
1048.60 0.1590289
1048.70 0.1589821
1048.80 0.1589353
1048.90 0.1588885
1049.00 0.1588418
1049.10 0.158795
1049.20 0.1587483
1049.30 0.1587016
1049.40 0.1586549
1049.50 0.1586082
1049.60 0.1585615
1049.70 0.1585149
1049.80 0.1584682
1049.90 0.1584216
1050.00 0.158375
1050.10 0.1583284
1050.20 0.1582818
1050.30 0.1582352
1050.40 0.1581887
1050.50 0.1581421
1050.60 0.1580956
1050.70 0.1580491
1050.80 0.1580026
1050.90 0.1579561
1051.00 0.1579097
1051.10 0.1578632
1051.20 0.1578168
1051.30 0.1577704
1051.40 0.1577239
1051.50 0.1576776
1051.60 0.1576312
1051.70 0.1575848
1051.80 0.1575385
1051.90 0.1574921
1052.00 0.1574458
1052.10 0.1573996
1052.20 0.1573535
1052.30 0.1573074
1052.40 0.1572613
1052.50 0.1572152
1052.60 0.1571692
1052.70 0.1571231
1052.80 0.1570771
1052.90 0.1570311
1053.00 0.1569851
1053.10 0.1569391
1053.20 0.1568931
1053.30 0.1568471
1053.40 0.1568012
1053.50 0.1567552
1053.60 0.1567093
1053.70 0.1566634
1053.80 0.1566175
1053.90 0.1565717
1054.00 0.1565258
1054.10 0.15648
1054.20 0.1564341
1054.30 0.1563883
1054.40 0.1563425
1054.50 0.1562967
1054.60 0.1562509
1054.70 0.1562052
1054.80 0.1561594
1054.90 0.1561137
1055.00 0.156068
1055.10 0.1560223
1055.20 0.1559766
1055.30 0.1559309
1055.40 0.1558853
1055.50 0.1558396
1055.60 0.155794
1055.70 0.1557484
1055.80 0.1557028
1055.90 0.1556572
1056.00 0.1556117
1056.10 0.1555661
1056.20 0.1555206
1056.30 0.155475
1056.40 0.1554295
1056.50 0.155384
1056.60 0.1553385
1056.70 0.1552931
1056.80 0.1552476
1056.90 0.1552022
1057.00 0.1551568
1057.10 0.1551113
1057.20 0.155066
1057.30 0.1550206
1057.40 0.1549752
1057.50 0.1549298
1057.60 0.1548845
1057.70 0.1548392
1057.80 0.1547939
1057.90 0.1547486
1058.00 0.1547033
1058.10 0.154658
1058.20 0.1546128
1058.30 0.1545675
1058.40 0.1545223
1058.50 0.1544771
1058.60 0.1544319
1058.70 0.1543867
1058.80 0.1543416
1058.90 0.1542964
1059.00 0.1542513
1059.10 0.1542062
1059.20 0.154161
1059.30 0.154116
1059.40 0.1540709
1059.50 0.1540258
1059.60 0.1539808
1059.70 0.1539357
1059.80 0.1538907
1059.90 0.1538457
1060.00 0.1538007
1060.10 0.1537557
1060.20 0.1537107
1060.30 0.1536658
1060.40 0.1536208
1060.50 0.1535759
1060.60 0.153531
1060.70 0.1534861
1060.80 0.1534412
1060.90 0.1533964
1061.00 0.1533515
1061.10 0.1533067
1061.20 0.1532619
1061.30 0.153217
1061.40 0.1531722
1061.50 0.1531275
1061.60 0.1530827
1061.70 0.1530379
1061.80 0.1529932
1061.90 0.1529485
1062.00 0.1529038
1062.10 0.1528591
1062.20 0.1528144
1062.30 0.1527697
1062.40 0.1527251
1062.50 0.1526804
1062.60 0.1526359
1062.70 0.1525914
1062.80 0.152547
1062.90 0.1525025
1063.00 0.1524581
1063.10 0.1524137
1063.20 0.1523693
1063.30 0.152325
1063.40 0.1522806
1063.50 0.1522363
1063.60 0.1521919
1063.70 0.1521476
1063.80 0.1521033
1063.90 0.152059
1064.00 0.1520148
1064.10 0.1519705
1064.20 0.1519263
1064.30 0.151882
1064.40 0.1518378
1064.50 0.1517936
1064.60 0.1517494
1064.70 0.1517052
1064.80 0.1516611
1064.90 0.1516169
1065.00 0.1515728
1065.10 0.1515287
1065.20 0.1514846
1065.30 0.1514405
1065.40 0.1513964
1065.50 0.1513523
1065.60 0.1513083
1065.70 0.1512642
1065.80 0.1512202
1065.90 0.1511762
1066.00 0.1511322
1066.10 0.1510882
1066.20 0.1510443
1066.30 0.1510003
1066.40 0.1509564
1066.50 0.1509124
1066.60 0.1508685
1066.70 0.1508246
1066.80 0.1507807
1066.90 0.1507369
1067.00 0.150693
1067.10 0.1506492
1067.20 0.1506053
1067.30 0.1505615
1067.40 0.1505177
1067.50 0.1504739
1067.60 0.1504302
1067.70 0.1503864
1067.80 0.1503427
1067.90 0.1502994
1068.00 0.1502573
1068.10 0.1502151
1068.20 0.150173
1068.30 0.1501309
1068.40 0.1500887
1068.50 0.1500466
1068.60 0.1500046
1068.70 0.1499625
1068.80 0.1499204
1068.90 0.1498784
1069.00 0.1498363
1069.10 0.1497943
1069.20 0.1497523
1069.30 0.1497103
1069.40 0.1496683
1069.50 0.1496264
1069.60 0.1495844
1069.70 0.1495425
1069.80 0.1495005
1069.90 0.1494586
1070.00 0.1494167
1070.10 0.1493748
1070.20 0.149333
1070.30 0.1492911
1070.40 0.1492492
1070.50 0.1492074
1070.60 0.1491656
1070.70 0.1491238
1070.80 0.149082
1070.90 0.1490402
1071.00 0.1489984
1071.10 0.1489567
1071.20 0.1489149
1071.30 0.1488732
1071.40 0.1488315
1071.50 0.1487897
1071.60 0.148748
1071.70 0.1487064
1071.80 0.1486647
1071.90 0.148623
1072.00 0.1485814
1072.10 0.1485398
1072.20 0.1484982
1072.30 0.1484566
1072.40 0.148415
1072.50 0.1483734
1072.60 0.1483318
1072.70 0.1482903
1072.80 0.1482487
1072.90 0.1482072
1073.00 0.1481657
1073.10 0.1481242
1073.20 0.1480824
1073.30 0.1480395
1073.40 0.1479967
1073.50 0.1479539
1073.60 0.147911
1073.70 0.1478682
1073.80 0.1478254
1073.90 0.1477827
1074.00 0.1477399
1074.10 0.1476971
1074.20 0.1476544
1074.30 0.1476117
1074.40 0.1475689
1074.50 0.1475262
1074.60 0.1474836
1074.70 0.1474409
1074.80 0.1473982
1074.90 0.1473556
1075.00 0.1473129
1075.10 0.1472703
1075.20 0.1472277
1075.30 0.1471851
1075.40 0.1471425
1075.50 0.1471
1075.60 0.1470574
1075.70 0.1470149
1075.80 0.1469723
1075.90 0.1469298
1076.00 0.1468873
1076.10 0.1468448
1076.20 0.1468024
1076.30 0.1467599
1076.40 0.1467174
1076.50 0.146675
1076.60 0.1466326
1076.70 0.1465902
1076.80 0.1465478
1076.90 0.1465054
1077.00 0.146463
1077.10 0.1464207
1077.20 0.1463783
1077.30 0.146336
1077.40 0.1462937
1077.50 0.1462514
1077.60 0.1462091
1077.70 0.1461668
1077.80 0.1461245
1077.90 0.1460823
1078.00 0.1460401
1078.10 0.1459978
1078.20 0.1459556
1078.30 0.1459134
1078.40 0.1458712
1078.50 0.1458291
1078.60 0.1457869
1078.70 0.1457448
1078.80 0.1457026
1078.90 0.1456605
1079.00 0.1456184
1079.10 0.1455763
1079.20 0.1455342
1079.30 0.1454922
1079.40 0.1454501
1079.50 0.1454081
1079.60 0.145366
1079.70 0.145324
1079.80 0.145282
1079.90 0.14524
1080.00 0.1451981
1080.10 0.1451561
1080.20 0.1451141
1080.30 0.1450722
1080.40 0.1450303
1080.50 0.1449884
1080.60 0.1449465
1080.70 0.1449046
1080.80 0.1448627
1080.90 0.1448209
1081.00 0.144779
1081.10 0.1447372
1081.20 0.1446954
1081.30 0.1446536
1081.40 0.1446118
1081.50 0.14457
1081.60 0.1445282
1081.70 0.1444865
1081.80 0.1444447
1081.90 0.144403
1082.00 0.1443613
1082.10 0.1443196
1082.20 0.1442779
1082.30 0.1442362
1082.40 0.1441945
1082.50 0.1441529
1082.60 0.1441113
1082.70 0.1440696
1082.80 0.144028
1082.90 0.1439864
1083.00 0.1439448
1083.10 0.1439033
1083.20 0.1438617
1083.30 0.1438202
1083.40 0.1437786
1083.50 0.1437371
1083.60 0.1436956
1083.70 0.1436541
1083.80 0.1436126
1083.90 0.1435711
1084.00 0.1435298
1084.10 0.1434885
1084.20 0.1434472
1084.30 0.143406
1084.40 0.1433647
1084.50 0.1433235
1084.60 0.1432822
1084.70 0.143241
1084.80 0.1431998
1084.90 0.1431586
1085.00 0.1431174
1085.10 0.1430763
1085.20 0.1430351
1085.30 0.142994
1085.40 0.1429528
1085.50 0.1429117
1085.60 0.1428706
1085.70 0.1428295
1085.80 0.1427884
1085.90 0.1427474
1086.00 0.1427063
1086.10 0.1426653
1086.20 0.1426243
1086.30 0.1425832
1086.40 0.1425422
1086.50 0.1425013
1086.60 0.1424603
1086.70 0.1424193
1086.80 0.1423784
1086.90 0.1423374
1087.00 0.1422965
1087.10 0.1422556
1087.20 0.1422147
1087.30 0.1421738
1087.40 0.1421329
1087.50 0.1420921
1087.60 0.1420512
1087.70 0.1420104
1087.80 0.1419695
1087.90 0.1419287
1088.00 0.1418879
1088.10 0.1418471
1088.20 0.1418064
1088.30 0.1417656
1088.40 0.1417248
1088.50 0.1416841
1088.60 0.1416434
1088.70 0.1416027
1088.80 0.141562
1088.90 0.1415213
1089.00 0.1414806
1089.10 0.14144
1089.20 0.1413993
1089.30 0.1413587
1089.40 0.141318
1089.50 0.1412774
1089.60 0.1412368
1089.70 0.1411962
1089.80 0.1411557
1089.90 0.1411151
1090.00 0.1410745
1090.10 0.141034
1090.20 0.1409935
1090.30 0.140953
1090.40 0.1409125
1090.50 0.140872
1090.60 0.1408315
1090.70 0.140791
1090.80 0.1407506
1090.90 0.1407101
1091.00 0.1406697
1091.10 0.1406293
1091.20 0.1405889
1091.30 0.1405485
1091.40 0.1405081
1091.50 0.1404678
1091.60 0.1404274
1091.70 0.1403871
1091.80 0.1403467
1091.90 0.1403064
1092.00 0.1402661
1092.10 0.1402258
1092.20 0.1401856
1092.30 0.1401453
1092.40 0.140105
1092.50 0.1400648
1092.60 0.1400246
1092.70 0.1399844
1092.80 0.1399441
1092.90 0.139904
1093.00 0.1398638
1093.10 0.1398236
1093.20 0.1397835
1093.30 0.1397433
1093.40 0.1397032
1093.50 0.1396631
1093.60 0.139623
1093.70 0.1395829
1093.80 0.1395428
1093.90 0.1395027
1094.00 0.1394627
1094.10 0.1394226
1094.20 0.1393826
1094.30 0.1393426
1094.40 0.1393026
1094.50 0.1392626
1094.60 0.1392226
1094.70 0.1391826
1094.80 0.1391431
1094.90 0.139104
1095.00 0.139065
1095.10 0.1390259
1095.20 0.1389869
1095.30 0.1389478
1095.40 0.1389088
1095.50 0.1388698
1095.60 0.1388308
1095.70 0.1387918
1095.80 0.1387528
1095.90 0.1387139
1096.00 0.1386749
1096.10 0.138636
1096.20 0.1385971
1096.30 0.1385582
1096.40 0.1385193
1096.50 0.1384804
1096.60 0.1384415
1096.70 0.1384026
1096.80 0.1383638
1096.90 0.1383249
1097.00 0.1382861
1097.10 0.1382473
1097.20 0.1382085
1097.30 0.1381697
1097.40 0.1381309
1097.50 0.1380921
1097.60 0.1380534
1097.70 0.1380146
1097.80 0.1379759
1097.90 0.1379372
1098.00 0.1378985
1098.10 0.1378598
1098.20 0.1378211
1098.30 0.1377824
1098.40 0.1377437
1098.50 0.1377051
1098.60 0.1376664
1098.70 0.1376278
1098.80 0.1375892
1098.90 0.1375506
1099.00 0.137512
1099.10 0.1374734
1099.20 0.1374348
1099.30 0.1373963
1099.40 0.1373577
1099.50 0.1373192
1099.60 0.1372807
1099.70 0.1372422
1099.80 0.1372037
1099.90 0.1371652
1100.00 0.1371267
1100.10 0.1370882
1100.20 0.1370498
1100.30 0.1370114
1100.40 0.1369729
1100.50 0.1369345
1100.60 0.1368961
1100.70 0.1368577
1100.80 0.1368193
1100.90 0.136781
1101.00 0.1367426
1101.10 0.1367042
1101.20 0.1366659
1101.30 0.1366276
1101.40 0.1365893
1101.50 0.136551
1101.60 0.1365127
1101.70 0.1364744
1101.80 0.1364361
1101.90 0.1363979
1102.00 0.1363596
1102.10 0.1363214
1102.20 0.1362832
1102.30 0.136245
1102.40 0.1362068
1102.50 0.1361686
1102.60 0.1361304
1102.70 0.1360923
1102.80 0.1360541
1102.90 0.136016
1103.00 0.1359779
1103.10 0.1359398
1103.20 0.1359016
1103.30 0.1358636
1103.40 0.1358255
1103.50 0.1357874
1103.60 0.1357494
1103.70 0.1357113
1103.80 0.1356733
1103.90 0.1356353
1104.00 0.1355972
1104.10 0.1355592
1104.20 0.1355213
1104.30 0.1354833
1104.40 0.1354453
1104.50 0.1354074
1104.60 0.1353694
1104.70 0.1353315
1104.80 0.1352936
1104.90 0.1352557
1105.00 0.1352178
1105.10 0.1351799
1105.20 0.135142
1105.30 0.1351042
1105.40 0.1350663
1105.50 0.1350285
1105.60 0.1349906
1105.70 0.1349528
1105.80 0.1349144
1105.90 0.1348761
1106.00 0.1348377
1106.10 0.1347994
1106.20 0.1347611
1106.30 0.1347228
1106.40 0.1346845
1106.50 0.1346462
1106.60 0.1346079
1106.70 0.1345696
1106.80 0.1345314
1106.90 0.1344932
1107.00 0.1344549
1107.10 0.1344167
1107.20 0.1343785
1107.30 0.1343403
1107.40 0.1343021
1107.50 0.1342639
1107.60 0.1342258
1107.70 0.1341876
1107.80 0.1341495
1107.90 0.1341114
1108.00 0.1340733
1108.10 0.1340352
1108.20 0.1339971
1108.30 0.133959
1108.40 0.1339209
1108.50 0.1338829
1108.60 0.1338448
1108.70 0.1338068
1108.80 0.1337688
1108.90 0.1337308
1109.00 0.1336928
1109.10 0.1336548
1109.20 0.1336168
1109.30 0.1335788
1109.40 0.1335409
1109.50 0.1335029
1109.60 0.133465
1109.70 0.1334271
1109.80 0.1333892
1109.90 0.1333513
1110.00 0.1333134
1110.10 0.1332755
1110.20 0.1332377
1110.30 0.1331998
1110.40 0.133162
1110.50 0.1331242
1110.60 0.1330864
1110.70 0.1330486
1110.80 0.1330108
1110.90 0.132973
1111.00 0.1329352
1111.10 0.1328975
1111.20 0.1328597
1111.30 0.132822
1111.40 0.1327843
1111.50 0.1327465
1111.60 0.1327088
1111.70 0.1326712
1111.80 0.1326335
1111.90 0.1325958
1112.00 0.1325582
1112.10 0.1325205
1112.20 0.1324829
1112.30 0.1324453
1112.40 0.1324077
1112.50 0.1323701
1112.60 0.1323325
1112.70 0.1322949
1112.80 0.1322573
1112.90 0.1322198
1113.00 0.1321823
1113.10 0.1321447
1113.20 0.1321072
1113.30 0.1320697
1113.40 0.1320322
1113.50 0.1319947
1113.60 0.1319572
1113.70 0.1319198
1113.80 0.1318823
1113.90 0.1318449
1114.00 0.1318075
1114.10 0.1317701
1114.20 0.1317327
1114.30 0.1316953
1114.40 0.1316579
1114.50 0.1316205
1114.60 0.1315831
1114.70 0.1315458
1114.80 0.1315085
1114.90 0.1314711
1115.00 0.1314338
1115.10 0.1313965
1115.20 0.1313592
1115.30 0.1313219
1115.40 0.1312847
1115.50 0.1312474
1115.60 0.1312102
1115.70 0.1311729
1115.80 0.1311357
1115.90 0.1310985
1116.00 0.1310613
1116.10 0.1310241
1116.20 0.1309869
1116.30 0.1309498
1116.40 0.1309126
1116.50 0.1308755
1116.60 0.1308383
1116.70 0.1308012
1116.80 0.1307648
1116.90 0.1307292
1117.00 0.1306936
1117.10 0.130658
1117.20 0.1306224
1117.30 0.1305868
1117.40 0.1305513
1117.50 0.1305157
1117.60 0.1304802
1117.70 0.1304447
1117.80 0.1304091
1117.90 0.1303736
1118.00 0.1303382
1118.10 0.1303027
1118.20 0.1302672
1118.30 0.1302317
1118.40 0.1301963
1118.50 0.1301608
1118.60 0.1301254
1118.70 0.13009
1118.80 0.1300546
1118.90 0.1300192
1119.00 0.1299838
1119.10 0.1299484
1119.20 0.1299131
1119.30 0.1298777
1119.40 0.1298424
1119.50 0.129807
1119.60 0.1297717
1119.70 0.1297364
1119.80 0.1297011
1119.90 0.1296658
1120.00 0.1296305
1120.10 0.1295952
1120.20 0.12956
1120.30 0.1295247
1120.40 0.1294895
1120.50 0.1294543
1120.60 0.1294191
1120.70 0.1293838
1120.80 0.1293486
1120.90 0.1293135
1121.00 0.1292783
1121.10 0.1292431
1121.20 0.129208
1121.30 0.1291728
1121.40 0.1291377
1121.50 0.1291026
1121.60 0.1290675
1121.70 0.1290323
1121.80 0.1289973
1121.90 0.1289622
1122.00 0.1289271
1122.10 0.128892
1122.20 0.128857
1122.30 0.128822
1122.40 0.1287861
1122.50 0.1287497
1122.60 0.1287134
1122.70 0.128677
1122.80 0.1286407
1122.90 0.1286044
1123.00 0.1285681
1123.10 0.1285318
1123.20 0.1284955
1123.30 0.1284592
1123.40 0.128423
1123.50 0.1283867
1123.60 0.1283505
1123.70 0.1283142
1123.80 0.128278
1123.90 0.1282418
1124.00 0.1282056
1124.10 0.1281694
1124.20 0.1281332
1124.30 0.1280971
1124.40 0.1280609
1124.50 0.1280248
1124.60 0.1279886
1124.70 0.1279525
1124.80 0.1279164
1124.90 0.1278803
1125.00 0.1278442
1125.10 0.1278081
1125.20 0.1277721
1125.30 0.127736
1125.40 0.1276999
1125.50 0.1276639
1125.60 0.1276279
1125.70 0.1275919
1125.80 0.1275559
1125.90 0.1275199
1126.00 0.1274839
1126.10 0.1274479
1126.20 0.1274119
1126.30 0.127376
1126.40 0.1273401
1126.50 0.1273041
1126.60 0.1272682
1126.70 0.1272323
1126.80 0.1271964
1126.90 0.1271605
1127.00 0.1271246
1127.10 0.1270888
1127.20 0.1270529
1127.30 0.1270171
1127.40 0.1269812
1127.50 0.1269454
1127.60 0.1269096
1127.70 0.1268738
1127.80 0.126838
1127.90 0.1268022
1128.00 0.1267666
1128.10 0.126731
1128.20 0.1266953
1128.30 0.1266597
1128.40 0.1266241
1128.50 0.1265886
1128.60 0.126553
1128.70 0.1265174
1128.80 0.1264819
1128.90 0.1264463
1129.00 0.1264108
1129.10 0.1263753
1129.20 0.1263398
1129.30 0.1263043
1129.40 0.1262688
1129.50 0.1262333
1129.60 0.1261979
1129.70 0.1261624
1129.80 0.126127
1129.90 0.1260915
1130.00 0.1260561
1130.10 0.1260207
1130.20 0.1259853
1130.30 0.1259499
1130.40 0.1259145
1130.50 0.1258792
1130.60 0.1258438
1130.70 0.1258085
1130.80 0.1257731
1130.90 0.1257378
1131.00 0.1257025
1131.10 0.1256672
1131.20 0.1256319
1131.30 0.1255966
1131.40 0.1255613
1131.50 0.125526
1131.60 0.1254908
1131.70 0.1254555
1131.80 0.1254203
1131.90 0.1253851
1132.00 0.1253499
1132.10 0.1253147
1132.20 0.1252795
1132.30 0.1252443
1132.40 0.1252091
1132.50 0.125174
1132.60 0.1251388
1132.70 0.1251037
1132.80 0.1250686
1132.90 0.1250334
1133.00 0.1249983
1133.10 0.1249632
1133.20 0.1249282
1133.30 0.1248931
1133.40 0.124858
1133.50 0.124823
1133.60 0.1247879
1133.70 0.1247529
1133.80 0.1247179
1133.90 0.1246828
1134.00 0.1246478
1134.10 0.1246128
1134.20 0.1245779
1134.30 0.1245429
1134.40 0.1245079
1134.50 0.124473
1134.60 0.124438
1134.70 0.1244031
1134.80 0.1243682
1134.90 0.1243333
1135.00 0.1242984
1135.10 0.1242635
1135.20 0.1242286
1135.30 0.1241937
1135.40 0.1241589
1135.50 0.124124
1135.60 0.1240892
1135.70 0.1240544
1135.80 0.1240196
1135.90 0.1239848
1136.00 0.12395
1136.10 0.1239152
1136.20 0.1238804
1136.30 0.1238456
1136.40 0.1238109
1136.50 0.1237761
1136.60 0.1237414
1136.70 0.1237067
1136.80 0.123672
1136.90 0.1236373
1137.00 0.1236026
1137.10 0.1235679
1137.20 0.1235332
1137.30 0.1234986
1137.40 0.1234639
1137.50 0.1234293
1137.60 0.1233946
1137.70 0.12336
1137.80 0.1233254
1137.90 0.1232908
1138.00 0.1232562
1138.10 0.1232216
1138.20 0.1231871
1138.30 0.1231525
1138.40 0.123118
1138.50 0.1230834
1138.60 0.1230489
1138.70 0.1230144
1138.80 0.1229799
1138.90 0.1229454
1139.00 0.1229109
1139.10 0.1228764
1139.20 0.1228419
1139.30 0.1228082
1139.40 0.1227745
1139.50 0.1227409
1139.60 0.1227072
1139.70 0.1226736
1139.80 0.1226399
1139.90 0.1226063
1140.00 0.1225727
1140.10 0.1225391
1140.20 0.1225054
1140.30 0.1224719
1140.40 0.1224383
1140.50 0.1224047
1140.60 0.1223711
1140.70 0.1223376
1140.80 0.122304
1140.90 0.1222705
1141.00 0.122237
1141.10 0.1222035
1141.20 0.12217
1141.30 0.1221365
1141.40 0.122103
1141.50 0.1220695
1141.60 0.1220361
1141.70 0.1220026
1141.80 0.1219692
1141.90 0.1219357
1142.00 0.1219023
1142.10 0.1218689
1142.20 0.1218355
1142.30 0.1218021
1142.40 0.1217687
1142.50 0.1217353
1142.60 0.121702
1142.70 0.1216686
1142.80 0.1216353
1142.90 0.1216019
1143.00 0.1215686
1143.10 0.1215353
1143.20 0.121502
1143.30 0.1214687
1143.40 0.1214354
1143.50 0.1214021
1143.60 0.1213688
1143.70 0.1213356
1143.80 0.1213023
1143.90 0.1212691
1144.00 0.1212359
1144.10 0.1212026
1144.20 0.1211694
1144.30 0.1211362
1144.40 0.121103
1144.50 0.1210699
1144.60 0.1210367
1144.70 0.1210035
1144.80 0.1209704
1144.90 0.1209372
1145.00 0.1209041
1145.10 0.120871
1145.20 0.1208379
1145.30 0.1208048
1145.40 0.1207717
1145.50 0.1207386
1145.60 0.1207055
1145.70 0.1206725
1145.80 0.1206394
1145.90 0.1206064
1146.00 0.1205733
1146.10 0.1205403
1146.20 0.1205073
1146.30 0.1204743
1146.40 0.1204413
1146.50 0.1204083
1146.60 0.1203753
1146.70 0.1203424
1146.80 0.1203094
1146.90 0.1202765
1147.00 0.1202435
1147.10 0.1202106
1147.20 0.1201777
1147.30 0.1201448
1147.40 0.1201119
1147.50 0.120079
1147.60 0.1200461
1147.70 0.1200132
1147.80 0.1199804
1147.90 0.1199475
1148.00 0.1199147
1148.10 0.1198819
1148.20 0.119849
1148.30 0.1198162
1148.40 0.1197834
1148.50 0.1197506
1148.60 0.1197178
1148.70 0.1196851
1148.80 0.1196523
1148.90 0.1196196
1149.00 0.1195868
1149.10 0.1195541
1149.20 0.1195213
1149.30 0.1194886
1149.40 0.1194559
1149.50 0.1194232
1149.60 0.1193905
1149.70 0.1193579
1149.80 0.1193252
1149.90 0.1192925
1150.00 0.1192599
1150.10 0.1192272
1150.20 0.1191946
1150.30 0.119162
1150.40 0.1191294
1150.50 0.1190968
1150.60 0.1190642
1150.70 0.1190311
1150.80 0.118998
1150.90 0.1189649
1151.00 0.1189319
1151.10 0.1188988
1151.20 0.1188658
1151.30 0.1188328
1151.40 0.1187997
1151.50 0.1187667
1151.60 0.1187337
1151.70 0.1187007
1151.80 0.1186678
1151.90 0.1186348
1152.00 0.1186018
1152.10 0.1185689
1152.20 0.1185359
1152.30 0.118503
1152.40 0.1184701
1152.50 0.1184372
1152.60 0.1184043
1152.70 0.1183714
1152.80 0.1183385
1152.90 0.1183056
1153.00 0.1182728
1153.10 0.1182399
1153.20 0.1182071
1153.30 0.1181742
1153.40 0.1181414
1153.50 0.1181086
1153.60 0.1180758
1153.70 0.118043
1153.80 0.1180102
1153.90 0.1179774
1154.00 0.1179447
1154.10 0.1179119
1154.20 0.1178791
1154.30 0.1178464
1154.40 0.1178137
1154.50 0.117781
1154.60 0.1177482
1154.70 0.1177155
1154.80 0.1176829
1154.90 0.1176502
1155.00 0.1176175
1155.10 0.1175848
1155.20 0.1175522
1155.30 0.1175195
1155.40 0.1174869
1155.50 0.1174543
1155.60 0.1174217
1155.70 0.1173891
1155.80 0.1173565
1155.90 0.1173239
1156.00 0.1172913
1156.10 0.1172587
1156.20 0.1172262
1156.30 0.1171936
1156.40 0.1171618
1156.50 0.1171305
1156.60 0.1170992
1156.70 0.1170679
1156.80 0.1170366
1156.90 0.1170054
1157.00 0.1169741
1157.10 0.1169429
1157.20 0.1169116
1157.30 0.1168804
1157.40 0.1168492
1157.50 0.116818
1157.60 0.1167868
1157.70 0.1167556
1157.80 0.1167244
1157.90 0.1166932
1158.00 0.1166621
1158.10 0.1166309
1158.20 0.1165998
1158.30 0.1165686
1158.40 0.1165375
1158.50 0.1165064
1158.60 0.1164753
1158.70 0.1164442
1158.80 0.1164131
1158.90 0.116382
1159.00 0.1163509
1159.10 0.1163199
1159.20 0.1162888
1159.30 0.1162578
1159.40 0.1162267
1159.50 0.1161957
1159.60 0.1161647
1159.70 0.1161337
1159.80 0.1161027
1159.90 0.1160717
1160.00 0.1160407
1160.10 0.1160097
1160.20 0.1159788
1160.30 0.1159478
1160.40 0.1159168
1160.50 0.1158859
1160.60 0.115855
1160.70 0.1158241
1160.80 0.1157931
1160.90 0.1157622
1161.00 0.1157314
1161.10 0.1157005
1161.20 0.1156696
1161.30 0.1156387
1161.40 0.1156079
1161.50 0.115577
1161.60 0.1155462
1161.70 0.1155153
1161.80 0.1154845
1161.90 0.1154537
1162.00 0.1154229
1162.10 0.1153921
1162.20 0.1153602
1162.30 0.1153283
1162.40 0.1152965
1162.50 0.1152646
1162.60 0.1152328
1162.70 0.1152009
1162.80 0.1151691
1162.90 0.1151373
1163.00 0.1151055
1163.10 0.1150737
1163.20 0.1150419
1163.30 0.1150101
1163.40 0.1149783
1163.50 0.1149466
1163.60 0.1149148
1163.70 0.1148831
1163.80 0.1148513
1163.90 0.1148196
1164.00 0.1147879
1164.10 0.1147562
1164.20 0.1147245
1164.30 0.1146928
1164.40 0.1146611
1164.50 0.1146294
1164.60 0.1145978
1164.70 0.1145661
1164.80 0.1145345
1164.90 0.1145028
1165.00 0.1144712
1165.10 0.1144396
1165.20 0.114408
1165.30 0.1143764
1165.40 0.1143448
1165.50 0.1143132
1165.60 0.1142817
1165.70 0.1142501
1165.80 0.1142185
1165.90 0.114187
1166.00 0.1141555
1166.10 0.1141239
1166.20 0.1140924
1166.30 0.1140609
1166.40 0.1140294
1166.50 0.1139979
1166.60 0.1139664
1166.70 0.113935
1166.80 0.1139035
1166.90 0.1138721
1167.00 0.1138406
1167.10 0.1138092
1167.20 0.1137778
1167.30 0.1137463
1167.40 0.1137149
1167.50 0.1136835
1167.60 0.1136521
1167.70 0.1136208
1167.80 0.1135894
1167.90 0.113558
1168.00 0.1135267
1168.10 0.1134953
1168.20 0.113464
1168.30 0.1134327
1168.40 0.1134014
1168.50 0.1133701
1168.60 0.1133388
1168.70 0.1133075
1168.80 0.1132762
1168.90 0.1132449
1169.00 0.1132137
1169.10 0.1131824
1169.20 0.1131512
1169.30 0.11312
1169.40 0.1130887
1169.50 0.1130575
1169.60 0.1130263
1169.70 0.1129951
1169.80 0.1129639
1169.90 0.1129327
1170.00 0.1129016
1170.10 0.1128704
1170.20 0.1128393
1170.30 0.1128081
1170.40 0.112777
1170.50 0.1127459
1170.60 0.1127147
1170.70 0.1126836
1170.80 0.1126525
1170.90 0.1126215
1171.00 0.1125904
1171.10 0.1125593
1171.20 0.1125282
1171.30 0.1124972
1171.40 0.1124661
1171.50 0.1124351
1171.60 0.1124041
1171.70 0.1123731
1171.80 0.1123421
1171.90 0.1123111
1172.00 0.1122801
1172.10 0.1122491
1172.20 0.1122181
1172.30 0.1121872
1172.40 0.1121562
1172.50 0.1121253
1172.60 0.1120943
1172.70 0.1120634
1172.80 0.1120325
1172.90 0.1120016
1173.00 0.1119707
1173.10 0.1119398
1173.20 0.1119089
1173.30 0.111878
1173.40 0.1118471
1173.50 0.1118163
1173.60 0.1117854
1173.70 0.1117546
1173.80 0.1117248
1173.90 0.1116952
1174.00 0.1116657
1174.10 0.1116362
1174.20 0.1116067
1174.30 0.1115772
1174.40 0.1115477
1174.50 0.1115182
1174.60 0.1114887
1174.70 0.1114592
1174.80 0.1114298
1174.90 0.1114003
1175.00 0.1113709
1175.10 0.1113414
1175.20 0.111312
1175.30 0.1112826
1175.40 0.1112532
1175.50 0.1112238
1175.60 0.1111944
1175.70 0.111165
1175.80 0.1111356
1175.90 0.1111062
1176.00 0.1110769
1176.10 0.1110475
1176.20 0.1110182
1176.30 0.1109888
1176.40 0.1109595
1176.50 0.1109302
1176.60 0.1109009
1176.70 0.1108716
1176.80 0.1108423
1176.90 0.110813
1177.00 0.1107837
1177.10 0.1107544
1177.20 0.1107252
1177.30 0.1106959
1177.40 0.1106667
1177.50 0.1106374
1177.60 0.1106082
1177.70 0.110579
1177.80 0.1105498
1177.90 0.1105206
1178.00 0.1104914
1178.10 0.1104622
1178.20 0.110433
1178.30 0.1104038
1178.40 0.1103747
1178.50 0.1103455
1178.60 0.1103164
1178.70 0.1102872
1178.80 0.1102581
1178.90 0.110229
1179.00 0.1101999
1179.10 0.1101708
1179.20 0.1101417
1179.30 0.1101126
1179.40 0.1100835
1179.50 0.1100544
1179.60 0.1100252
1179.70 0.109995
1179.80 0.1099648
1179.90 0.1099346
1180.00 0.1099045
1180.10 0.1098743
1180.20 0.1098441
1180.30 0.109814
1180.40 0.1097838
1180.50 0.1097537
1180.60 0.1097236
1180.70 0.1096934
1180.80 0.1096633
1180.90 0.1096332
1181.00 0.1096031
1181.10 0.109573
1181.20 0.1095429
1181.30 0.1095129
1181.40 0.1094828
1181.50 0.1094528
1181.60 0.1094227
1181.70 0.1093927
1181.80 0.1093627
1181.90 0.1093326
1182.00 0.1093026
1182.10 0.1092726
1182.20 0.1092426
1182.30 0.1092127
1182.40 0.1091827
1182.50 0.1091527
1182.60 0.1091227
1182.70 0.1090928
1182.80 0.1090629
1182.90 0.1090329
1183.00 0.109003
1183.10 0.1089731
1183.20 0.1089432
1183.30 0.1089133
1183.40 0.1088834
1183.50 0.1088535
1183.60 0.1088236
1183.70 0.1087938
1183.80 0.1087639
1183.90 0.1087341
1184.00 0.1087042
1184.10 0.1086744
1184.20 0.1086446
1184.30 0.1086148
1184.40 0.108585
1184.50 0.1085552
1184.60 0.1085254
1184.70 0.1084956
1184.80 0.1084658
1184.90 0.1084361
1185.00 0.1084063
1185.10 0.1083766
1185.20 0.1083468
1185.30 0.1083171
1185.40 0.1082874
1185.50 0.1082582
1185.60 0.1082297
1185.70 0.1082013
1185.80 0.1081728
1185.90 0.1081444
1186.00 0.108116
1186.10 0.1080876
1186.20 0.1080592
1186.30 0.1080308
1186.40 0.1080024
1186.50 0.107974
1186.60 0.1079456
1186.70 0.1079172
1186.80 0.1078889
1186.90 0.1078605
1187.00 0.1078322
1187.10 0.1078038
1187.20 0.1077755
1187.30 0.1077472
1187.40 0.1077189
1187.50 0.1076906
1187.60 0.1076623
1187.70 0.107634
1187.80 0.1076057
1187.90 0.1075774
1188.00 0.1075492
1188.10 0.1075209
1188.20 0.1074927
1188.30 0.1074644
1188.40 0.1074362
1188.50 0.107408
1188.60 0.1073797
1188.70 0.1073515
1188.80 0.1073233
1188.90 0.1072951
1189.00 0.1072669
1189.10 0.1072388
1189.20 0.1072106
1189.30 0.1071824
1189.40 0.1071543
1189.50 0.1071261
1189.60 0.107098
1189.70 0.1070699
1189.80 0.1070418
1189.90 0.1070136
1190.00 0.1069855
1190.10 0.1069574
1190.20 0.1069293
1190.30 0.1069013
1190.40 0.1068732
1190.50 0.1068451
1190.60 0.1068171
1190.70 0.106789
1190.80 0.106761
1190.90 0.1067329
1191.00 0.1067049
1191.10 0.1066769
1191.20 0.1066489
1191.30 0.1066209
1191.40 0.1065927
1191.50 0.1065636
1191.60 0.1065345
1191.70 0.1065054
1191.80 0.1064763
1191.90 0.1064473
1192.00 0.1064182
1192.10 0.1063891
1192.20 0.1063601
1192.30 0.106331
1192.40 0.106302
1192.50 0.106273
1192.60 0.106244
1192.70 0.1062149
1192.80 0.1061859
1192.90 0.1061569
1193.00 0.106128
1193.10 0.106099
1193.20 0.10607
1193.30 0.1060411
1193.40 0.1060121
1193.50 0.1059832
1193.60 0.1059542
1193.70 0.1059253
1193.80 0.1058964
1193.90 0.1058675
1194.00 0.1058386
1194.10 0.1058097
1194.20 0.1057808
1194.30 0.1057519
1194.40 0.105723
1194.50 0.1056942
1194.60 0.1056653
1194.70 0.1056365
1194.80 0.1056076
1194.90 0.1055788
1195.00 0.10555
1195.10 0.1055212
1195.20 0.1054924
1195.30 0.1054636
1195.40 0.1054348
1195.50 0.105406
1195.60 0.1053772
1195.70 0.1053485
1195.80 0.1053197
1195.90 0.105291
1196.00 0.1052622
1196.10 0.1052335
1196.20 0.1052048
1196.30 0.105176
1196.40 0.1051473
1196.50 0.1051186
1196.60 0.10509
1196.70 0.1050613
1196.80 0.1050326
1196.90 0.1050039
1197.00 0.1049753
1197.10 0.1049466
1197.20 0.104918
1197.30 0.1048893
1197.40 0.1048618
1197.50 0.1048344
1197.60 0.104807
1197.70 0.1047796
1197.80 0.1047522
1197.90 0.1047248
1198.00 0.1046975
1198.10 0.1046701
1198.20 0.1046427
1198.30 0.1046154
1198.40 0.1045881
1198.50 0.1045607
1198.60 0.1045334
1198.70 0.1045061
1198.80 0.1044788
1198.90 0.1044515
1199.00 0.1044242
1199.10 0.1043969
1199.20 0.1043696
1199.30 0.1043424
1199.40 0.1043151
1199.50 0.1042878
1199.60 0.1042606
1199.70 0.1042334
1199.80 0.1042061
1199.90 0.1041789
1200.00 0.1041517
