# Version 2.1 - nm, norm@500 to 1, cut digits
# Wavelength(nm)  Flambda(ergs/cm^s/s/nm)
300.00 1.404751e-95
300.10 1.404751e-95
300.20 1.404751e-95
300.30 1.404751e-95
300.40 1.404751e-95
300.50 1.404751e-95
300.60 1.404751e-95
300.70 1.404751e-95
300.80 1.404751e-95
300.90 1.404751e-95
301.00 1.404751e-95
301.10 1.404751e-95
301.20 1.404751e-95
301.30 1.404751e-95
301.40 1.404751e-95
301.50 1.404751e-95
301.60 1.404751e-95
301.70 1.404751e-95
301.80 1.404751e-95
301.90 1.404751e-95
302.00 1.404751e-95
302.10 1.404751e-95
302.20 1.404751e-95
302.30 1.404751e-95
302.40 1.404751e-95
302.50 1.404751e-95
302.60 1.404751e-95
302.70 1.404751e-95
302.80 1.404751e-95
302.90 1.404751e-95
303.00 1.404751e-95
303.10 1.404751e-95
303.20 1.404751e-95
303.30 1.404751e-95
303.40 1.404751e-95
303.50 1.404751e-95
303.60 1.404751e-95
303.70 1.404751e-95
303.80 1.404751e-95
303.90 1.404751e-95
304.00 1.404751e-95
304.10 1.404751e-95
304.20 1.404751e-95
304.30 1.404751e-95
304.40 1.404751e-95
304.50 1.404751e-95
304.60 1.404751e-95
304.70 1.404751e-95
304.80 1.404751e-95
304.90 1.404751e-95
305.00 1.404751e-95
305.10 1.404751e-95
305.20 1.404751e-95
305.30 1.404751e-95
305.40 1.404751e-95
305.50 1.404751e-95
305.60 1.404751e-95
305.70 1.404751e-95
305.80 1.404751e-95
305.90 1.404751e-95
306.00 1.404751e-95
306.10 1.404751e-95
306.20 1.404751e-95
306.30 1.404751e-95
306.40 1.404751e-95
306.50 1.404751e-95
306.60 1.404751e-95
306.70 1.404751e-95
306.80 1.404751e-95
306.90 1.404751e-95
307.00 1.404751e-95
307.10 1.404751e-95
307.20 1.404751e-95
307.30 1.404751e-95
307.40 1.404751e-95
307.50 1.404751e-95
307.60 1.404751e-95
307.70 1.404751e-95
307.80 1.404751e-95
307.90 1.404751e-95
308.00 1.404751e-95
308.10 1.404751e-95
308.20 1.404751e-95
308.30 1.404751e-95
308.40 1.404751e-95
308.50 1.404751e-95
308.60 1.404751e-95
308.70 1.404751e-95
308.80 1.404751e-95
308.90 1.404751e-95
309.00 1.404751e-95
309.10 1.404751e-95
309.20 1.404751e-95
309.30 1.404751e-95
309.40 1.404751e-95
309.50 1.404751e-95
309.60 1.404751e-95
309.70 1.404751e-95
309.80 1.404751e-95
309.90 1.404751e-95
310.00 1.404751e-95
310.10 1.404751e-95
310.20 1.404751e-95
310.30 1.404751e-95
310.40 1.404751e-95
310.50 1.404751e-95
310.60 1.404751e-95
310.70 1.404751e-95
310.80 1.404751e-95
310.90 1.404751e-95
311.00 1.404751e-95
311.10 1.404751e-95
311.20 1.404751e-95
311.30 1.404751e-95
311.40 1.404751e-95
311.50 1.404751e-95
311.60 1.404751e-95
311.70 1.404751e-95
311.80 1.404751e-95
311.90 1.404751e-95
312.00 1.404751e-95
312.10 1.404751e-95
312.20 1.404751e-95
312.30 1.404751e-95
312.40 1.404751e-95
312.50 1.404751e-95
312.60 1.404751e-95
312.70 1.404751e-95
312.80 1.404751e-95
312.90 1.404751e-95
313.00 1.404751e-95
313.10 1.404751e-95
313.20 1.404751e-95
313.30 1.404751e-95
313.40 1.404751e-95
313.50 1.404751e-95
313.60 1.404751e-95
313.70 1.404751e-95
313.80 1.404751e-95
313.90 1.404751e-95
314.00 1.404751e-95
314.10 1.404751e-95
314.20 1.404751e-95
314.30 1.404751e-95
314.40 1.404751e-95
314.50 1.404751e-95
314.60 1.404751e-95
314.70 1.404751e-95
314.80 1.404751e-95
314.90 1.404751e-95
315.00 1.404751e-95
315.10 1.404751e-95
315.20 1.404751e-95
315.30 1.404751e-95
315.40 1.404751e-95
315.50 1.404751e-95
315.60 1.404751e-95
315.70 1.404751e-95
315.80 1.404751e-95
315.90 1.404751e-95
316.00 1.404751e-95
316.10 1.404751e-95
316.20 1.404751e-95
316.30 1.404751e-95
316.40 1.404751e-95
316.50 1.404751e-95
316.60 1.404751e-95
316.70 1.404751e-95
316.80 1.404751e-95
316.90 1.404751e-95
317.00 1.404751e-95
317.10 1.404751e-95
317.20 1.404751e-95
317.30 1.404751e-95
317.40 1.404751e-95
317.50 1.404751e-95
317.60 1.404751e-95
317.70 1.404751e-95
317.80 1.404751e-95
317.90 1.404751e-95
318.00 1.404751e-95
318.10 1.404751e-95
318.20 1.404751e-95
318.30 1.404751e-95
318.40 1.404751e-95
318.50 1.404751e-95
318.60 1.404751e-95
318.70 1.404751e-95
318.80 1.404751e-95
318.90 1.404751e-95
319.00 1.404751e-95
319.10 1.404751e-95
319.20 1.404751e-95
319.30 1.404751e-95
319.40 1.404751e-95
319.50 1.404751e-95
319.60 1.404751e-95
319.70 1.404751e-95
319.80 1.404751e-95
319.90 1.404751e-95
320.00 1.404751e-95
320.10 1.404751e-95
320.20 1.404751e-95
320.30 1.404751e-95
320.40 1.404751e-95
320.50 1.404751e-95
320.60 1.404751e-95
320.70 1.404751e-95
320.80 1.404751e-95
320.90 1.404751e-95
321.00 1.404751e-95
321.10 1.404751e-95
321.20 1.404751e-95
321.30 1.404751e-95
321.40 1.404751e-95
321.50 1.404751e-95
321.60 1.404751e-95
321.70 1.404751e-95
321.80 1.404751e-95
321.90 1.404751e-95
322.00 1.404751e-95
322.10 1.404751e-95
322.20 1.404751e-95
322.30 1.404751e-95
322.40 1.404751e-95
322.50 1.404751e-95
322.60 1.404751e-95
322.70 1.404751e-95
322.80 1.404751e-95
322.90 1.404751e-95
323.00 1.404751e-95
323.10 1.404751e-95
323.20 1.404751e-95
323.30 1.404751e-95
323.40 1.404751e-95
323.50 1.404751e-95
323.60 1.404751e-95
323.70 1.404751e-95
323.80 1.404751e-95
323.90 1.404751e-95
324.00 1.404751e-95
324.10 1.404751e-95
324.20 1.404751e-95
324.30 1.404751e-95
324.40 1.404751e-95
324.50 1.404751e-95
324.60 1.404751e-95
324.70 1.404751e-95
324.80 1.404751e-95
324.90 1.404751e-95
325.00 1.404751e-95
325.10 1.404751e-95
325.20 1.404751e-95
325.30 1.404751e-95
325.40 1.404751e-95
325.50 1.404751e-95
325.60 1.404751e-95
325.70 1.404751e-95
325.80 1.404751e-95
325.90 1.404751e-95
326.00 1.404751e-95
326.10 1.404751e-95
326.20 1.404751e-95
326.30 1.404751e-95
326.40 1.404751e-95
326.50 1.404751e-95
326.60 1.404751e-95
326.70 1.404751e-95
326.80 1.404751e-95
326.90 1.404751e-95
327.00 1.404751e-95
327.10 1.404751e-95
327.20 1.404751e-95
327.30 1.404751e-95
327.40 1.404751e-95
327.50 1.404751e-95
327.60 1.404751e-95
327.70 1.404751e-95
327.80 1.404751e-95
327.90 1.404751e-95
328.00 1.404751e-95
328.10 1.404751e-95
328.20 1.404751e-95
328.30 1.404751e-95
328.40 1.404751e-95
328.50 1.404751e-95
328.60 1.404751e-95
328.70 1.404751e-95
328.80 1.404751e-95
328.90 1.404751e-95
329.00 1.404751e-95
329.10 1.404751e-95
329.20 1.404751e-95
329.30 1.404751e-95
329.40 1.404751e-95
329.50 1.404751e-95
329.60 1.404751e-95
329.70 1.404751e-95
329.80 1.404751e-95
329.90 1.404751e-95
330.00 1.404751e-95
330.10 1.404751e-95
330.20 1.404751e-95
330.30 1.404751e-95
330.40 1.404751e-95
330.50 1.404751e-95
330.60 1.404751e-95
330.70 1.404751e-95
330.80 1.404751e-95
330.90 1.404751e-95
331.00 1.404751e-95
331.10 1.404751e-95
331.20 1.404751e-95
331.30 1.404751e-95
331.40 1.404751e-95
331.50 1.404751e-95
331.60 1.404751e-95
331.70 1.404751e-95
331.80 1.404751e-95
331.90 1.404751e-95
332.00 1.404751e-95
332.10 1.404751e-95
332.20 1.404751e-95
332.30 1.404751e-95
332.40 1.404751e-95
332.50 1.404751e-95
332.60 1.404751e-95
332.70 1.404751e-95
332.80 1.404751e-95
332.90 1.404751e-95
333.00 1.404751e-95
333.10 1.404751e-95
333.20 1.404751e-95
333.30 1.404751e-95
333.40 1.404751e-95
333.50 1.404751e-95
333.60 1.404751e-95
333.70 1.404751e-95
333.80 1.404751e-95
333.90 1.404751e-95
334.00 1.404751e-95
334.10 1.404751e-95
334.20 1.404751e-95
334.30 1.404751e-95
334.40 1.404751e-95
334.50 1.404751e-95
334.60 1.404751e-95
334.70 1.404751e-95
334.80 1.404751e-95
334.90 1.404751e-95
335.00 1.404751e-95
335.10 1.404751e-95
335.20 1.404751e-95
335.30 1.404751e-95
335.40 1.404751e-95
335.50 1.404751e-95
335.60 1.404751e-95
335.70 1.404751e-95
335.80 1.404751e-95
335.90 1.404751e-95
336.00 1.404751e-95
336.10 1.404751e-95
336.20 1.404751e-95
336.30 1.404751e-95
336.40 1.404751e-95
336.50 1.404751e-95
336.60 1.404751e-95
336.70 1.404751e-95
336.80 1.404751e-95
336.90 1.404751e-95
337.00 1.404751e-95
337.10 1.404751e-95
337.20 1.404751e-95
337.30 1.404751e-95
337.40 1.404751e-95
337.50 1.404751e-95
337.60 1.404751e-95
337.70 1.404751e-95
337.80 1.404751e-95
337.90 1.404751e-95
338.00 1.404751e-95
338.10 1.404751e-95
338.20 1.404751e-95
338.30 1.404751e-95
338.40 1.404751e-95
338.50 1.404751e-95
338.60 1.404751e-95
338.70 1.404751e-95
338.80 1.404751e-95
338.90 1.404751e-95
339.00 1.404751e-95
339.10 1.404751e-95
339.20 1.404751e-95
339.30 1.404751e-95
339.40 1.404751e-95
339.50 1.404751e-95
339.60 1.404751e-95
339.70 1.404751e-95
339.80 1.404751e-95
339.90 1.404751e-95
340.00 1.404751e-95
340.10 1.404751e-95
340.20 1.404751e-95
340.30 1.404751e-95
340.40 1.404751e-95
340.50 1.404751e-95
340.60 1.404751e-95
340.70 1.404751e-95
340.80 1.404751e-95
340.90 1.404751e-95
341.00 1.404751e-95
341.10 1.404751e-95
341.20 1.404751e-95
341.30 1.404751e-95
341.40 1.404751e-95
341.50 1.404751e-95
341.60 1.404751e-95
341.70 1.404751e-95
341.80 1.404751e-95
341.90 1.404751e-95
342.00 1.404751e-95
342.10 1.404751e-95
342.20 1.404751e-95
342.30 1.404751e-95
342.40 1.404751e-95
342.50 1.404751e-95
342.60 1.404751e-95
342.70 1.404751e-95
342.80 1.404751e-95
342.90 1.404751e-95
343.00 1.404751e-95
343.10 1.404751e-95
343.20 1.404751e-95
343.30 1.404751e-95
343.40 1.404751e-95
343.50 1.404751e-95
343.60 1.404751e-95
343.70 1.404751e-95
343.80 1.404751e-95
343.90 1.404751e-95
344.00 1.404751e-95
344.10 1.404751e-95
344.20 1.404751e-95
344.30 1.404751e-95
344.40 1.404751e-95
344.50 1.404751e-95
344.60 1.404751e-95
344.70 1.404751e-95
344.80 1.404751e-95
344.90 1.404751e-95
345.00 1.404751e-95
345.10 1.404751e-95
345.20 1.404751e-95
345.30 1.404751e-95
345.40 1.404751e-95
345.50 1.404751e-95
345.60 1.404751e-95
345.70 1.404751e-95
345.80 1.404751e-95
345.90 1.404751e-95
346.00 1.404751e-95
346.10 1.404751e-95
346.20 1.404751e-95
346.30 1.404751e-95
346.40 1.404751e-95
346.50 1.404751e-95
346.60 1.404751e-95
346.70 1.404751e-95
346.80 1.404751e-95
346.90 1.404751e-95
347.00 1.404751e-95
347.10 1.404751e-95
347.20 1.404751e-95
347.30 1.404751e-95
347.40 1.404751e-95
347.50 1.404751e-95
347.60 1.404751e-95
347.70 1.404751e-95
347.80 1.404751e-95
347.90 1.404751e-95
348.00 1.404751e-95
348.10 1.404751e-95
348.20 1.404751e-95
348.30 1.404751e-95
348.40 1.404751e-95
348.50 1.404751e-95
348.60 1.404751e-95
348.70 1.404751e-95
348.80 1.404751e-95
348.90 1.404751e-95
349.00 1.404751e-95
349.10 1.404751e-95
349.20 1.404751e-95
349.30 1.404751e-95
349.40 1.404751e-95
349.50 1.404751e-95
349.60 1.404751e-95
349.70 1.404751e-95
349.80 1.404751e-95
349.90 1.404751e-95
350.00 1.404751e-95
350.10 1.404751e-95
350.20 1.404751e-95
350.30 1.404751e-95
350.40 1.404751e-95
350.50 1.404751e-95
350.60 1.404751e-95
350.70 1.404751e-95
350.80 1.404751e-95
350.90 1.404751e-95
351.00 1.404751e-95
351.10 1.404751e-95
351.20 1.404751e-95
351.30 1.404751e-95
351.40 1.404751e-95
351.50 1.404751e-95
351.60 1.404751e-95
351.70 1.404751e-95
351.80 1.404751e-95
351.90 1.404751e-95
352.00 1.404751e-95
352.10 1.404751e-95
352.20 1.404751e-95
352.30 1.404751e-95
352.40 1.404751e-95
352.50 1.404751e-95
352.60 1.404751e-95
352.70 1.404751e-95
352.80 1.404751e-95
352.90 1.404751e-95
353.00 1.404751e-95
353.10 1.404751e-95
353.20 1.404751e-95
353.30 1.404751e-95
353.40 1.404751e-95
353.50 1.404751e-95
353.60 1.404751e-95
353.70 1.404751e-95
353.80 1.404751e-95
353.90 1.404751e-95
354.00 1.404751e-95
354.10 1.404751e-95
354.20 1.404751e-95
354.30 1.404751e-95
354.40 1.404751e-95
354.50 1.404751e-95
354.60 1.404751e-95
354.70 1.404751e-95
354.80 1.404751e-95
354.90 1.404751e-95
355.00 1.404751e-95
355.10 1.404751e-95
355.20 1.404751e-95
355.30 1.404751e-95
355.40 1.404751e-95
355.50 1.404751e-95
355.60 1.404751e-95
355.70 1.404751e-95
355.80 1.404751e-95
355.90 1.404751e-95
356.00 1.404751e-95
356.10 1.404751e-95
356.20 1.404751e-95
356.30 1.404751e-95
356.40 1.404751e-95
356.50 1.404751e-95
356.60 1.404751e-95
356.70 1.404751e-95
356.80 1.404751e-95
356.90 1.404751e-95
357.00 1.404751e-95
357.10 1.404751e-95
357.20 1.404751e-95
357.30 1.404751e-95
357.40 1.404751e-95
357.50 1.404751e-95
357.60 1.404751e-95
357.70 1.404751e-95
357.80 1.404751e-95
357.90 1.404751e-95
358.00 1.404751e-95
358.10 1.404751e-95
358.20 1.404751e-95
358.30 1.404751e-95
358.40 1.404751e-95
358.50 1.404751e-95
358.60 1.404751e-95
358.70 1.404751e-95
358.80 1.404751e-95
358.90 1.404751e-95
359.00 1.404751e-95
359.10 1.404751e-95
359.20 1.404751e-95
359.30 1.404751e-95
359.40 1.404751e-95
359.50 1.404751e-95
359.60 1.404751e-95
359.70 1.404751e-95
359.80 1.404751e-95
359.90 1.404751e-95
360.00 1.404751e-95
360.10 1.404751e-95
360.20 1.404751e-95
360.30 1.404751e-95
360.40 1.404751e-95
360.50 1.404751e-95
360.60 1.404751e-95
360.70 1.404751e-95
360.80 1.404751e-95
360.90 1.404751e-95
361.00 1.404751e-95
361.10 1.404751e-95
361.20 1.404751e-95
361.30 1.404751e-95
361.40 1.404751e-95
361.50 1.404751e-95
361.60 1.404751e-95
361.70 1.404751e-95
361.80 1.404751e-95
361.90 1.404751e-95
362.00 1.404751e-95
362.10 1.404751e-95
362.20 1.404751e-95
362.30 1.404751e-95
362.40 1.404751e-95
362.50 1.404751e-95
362.60 1.404751e-95
362.70 1.404751e-95
362.80 1.404751e-95
362.90 1.404751e-95
363.00 1.404751e-95
363.10 1.404751e-95
363.20 1.404751e-95
363.30 1.404751e-95
363.40 1.404751e-95
363.50 1.404751e-95
363.60 1.404751e-95
363.70 1.404751e-95
363.80 1.404751e-95
363.90 1.404751e-95
364.00 1.404751e-95
364.10 1.404751e-95
364.20 1.404751e-95
364.30 1.404751e-95
364.40 1.404751e-95
364.50 1.404751e-95
364.60 1.404751e-95
364.70 1.404751e-95
364.80 1.404751e-95
364.90 1.404751e-95
365.00 1.404751e-95
365.10 1.404751e-95
365.20 1.404751e-95
365.30 1.404751e-95
365.40 1.404751e-95
365.50 1.404751e-95
365.60 1.404751e-95
365.70 1.404751e-95
365.80 1.404751e-95
365.90 1.404751e-95
366.00 1.404751e-95
366.10 1.404751e-95
366.20 1.404751e-95
366.30 1.404751e-95
366.40 1.404751e-95
366.50 1.404751e-95
366.60 1.404751e-95
366.70 1.404751e-95
366.80 1.404751e-95
366.90 1.404751e-95
367.00 1.404751e-95
367.10 1.404751e-95
367.20 1.404751e-95
367.30 1.404751e-95
367.40 1.404751e-95
367.50 1.404751e-95
367.60 1.404751e-95
367.70 1.404751e-95
367.80 1.404751e-95
367.90 1.404751e-95
368.00 1.404751e-95
368.10 1.404751e-95
368.20 1.404751e-95
368.30 1.404751e-95
368.40 1.404751e-95
368.50 1.404751e-95
368.60 1.404751e-95
368.70 1.404751e-95
368.80 1.404751e-95
368.90 1.404751e-95
369.00 1.404751e-95
369.10 1.404751e-95
369.20 1.404751e-95
369.30 1.404751e-95
369.40 1.404751e-95
369.50 1.404751e-95
369.60 1.404751e-95
369.70 1.404751e-95
369.80 1.404751e-95
369.90 1.404751e-95
370.00 1.404751e-95
370.10 1.404751e-95
370.20 1.404751e-95
370.30 1.404751e-95
370.40 1.404751e-95
370.50 1.404751e-95
370.60 1.404751e-95
370.70 1.404751e-95
370.80 1.404751e-95
370.90 1.404751e-95
371.00 1.404751e-95
371.10 1.404751e-95
371.20 1.404751e-95
371.30 1.404751e-95
371.40 1.404751e-95
371.50 1.404751e-95
371.60 1.404751e-95
371.70 1.404751e-95
371.80 1.404751e-95
371.90 1.404751e-95
372.00 1.404751e-95
372.10 1.404751e-95
372.20 1.404751e-95
372.30 1.404751e-95
372.40 1.404751e-95
372.50 1.404751e-95
372.60 1.404751e-95
372.70 1.404751e-95
372.80 1.404751e-95
372.90 1.404751e-95
373.00 1.404751e-95
373.10 1.404751e-95
373.20 1.404751e-95
373.30 1.404751e-95
373.40 1.404751e-95
373.50 1.404751e-95
373.60 1.404751e-95
373.70 1.404751e-95
373.80 1.404751e-95
373.90 1.404751e-95
374.00 1.404751e-95
374.10 1.404751e-95
374.20 1.404751e-95
374.30 1.404751e-95
374.40 1.404751e-95
374.50 1.404751e-95
374.60 1.404751e-95
374.70 1.404751e-95
374.80 1.404751e-95
374.90 1.404751e-95
375.00 1.404751e-95
375.10 1.404751e-95
375.20 1.404751e-95
375.30 1.404751e-95
375.40 1.404751e-95
375.50 1.404751e-95
375.60 1.404751e-95
375.70 1.404751e-95
375.80 1.404751e-95
375.90 1.404751e-95
376.00 1.404751e-95
376.10 1.404751e-95
376.20 1.404751e-95
376.30 1.404751e-95
376.40 1.404751e-95
376.50 1.404751e-95
376.60 1.404751e-95
376.70 1.404751e-95
376.80 1.404751e-95
376.90 1.404751e-95
377.00 1.404751e-95
377.10 1.404751e-95
377.20 1.404751e-95
377.30 1.404751e-95
377.40 1.404751e-95
377.50 1.404751e-95
377.60 1.404751e-95
377.70 1.404751e-95
377.80 1.404751e-95
377.90 1.404751e-95
378.00 1.404751e-95
378.10 1.404751e-95
378.20 1.404751e-95
378.30 1.404751e-95
378.40 1.404751e-95
378.50 1.404751e-95
378.60 1.404751e-95
378.70 1.404751e-95
378.80 1.404751e-95
378.90 1.404751e-95
379.00 1.404751e-95
379.10 1.404751e-95
379.20 1.404751e-95
379.30 1.404751e-95
379.40 1.404751e-95
379.50 1.404751e-95
379.60 1.404751e-95
379.70 1.404751e-95
379.80 1.404751e-95
379.90 1.404751e-95
380.00 1.404751e-95
380.10 1.404751e-95
380.20 1.404751e-95
380.30 1.404751e-95
380.40 1.404751e-95
380.50 1.404751e-95
380.60 1.404751e-95
380.70 1.404751e-95
380.80 1.404751e-95
380.90 1.404751e-95
381.00 1.404751e-95
381.10 1.404751e-95
381.20 1.404751e-95
381.30 1.404751e-95
381.40 1.404751e-95
381.50 1.404751e-95
381.60 1.404751e-95
381.70 1.404751e-95
381.80 1.404751e-95
381.90 1.404751e-95
382.00 1.404751e-95
382.10 1.404751e-95
382.20 1.404751e-95
382.30 1.404751e-95
382.40 1.404751e-95
382.50 1.404751e-95
382.60 1.404751e-95
382.70 1.404751e-95
382.80 1.404751e-95
382.90 1.404751e-95
383.00 1.404751e-95
383.10 1.404751e-95
383.20 1.404751e-95
383.30 1.404751e-95
383.40 1.404751e-95
383.50 1.404751e-95
383.60 1.404751e-95
383.70 1.404751e-95
383.80 1.404751e-95
383.90 1.404751e-95
384.00 1.404751e-95
384.10 1.404751e-95
384.20 1.404751e-95
384.30 1.404751e-95
384.40 1.404751e-95
384.50 1.404751e-95
384.60 1.404751e-95
384.70 1.404751e-95
384.80 1.404751e-95
384.90 1.404751e-95
385.00 1.404751e-95
385.10 1.404751e-95
385.20 1.404751e-95
385.30 1.404751e-95
385.40 1.404751e-95
385.50 1.404751e-95
385.60 1.404751e-95
385.70 1.404751e-95
385.80 1.404751e-95
385.90 1.404751e-95
386.00 1.404751e-95
386.10 1.404751e-95
386.20 1.404751e-95
386.30 1.404751e-95
386.40 1.404751e-95
386.50 1.404751e-95
386.60 1.404751e-95
386.70 1.404751e-95
386.80 1.404751e-95
386.90 1.404751e-95
387.00 1.404751e-95
387.10 1.404751e-95
387.20 1.404751e-95
387.30 1.404751e-95
387.40 1.404751e-95
387.50 1.404751e-95
387.60 1.404751e-95
387.70 1.404751e-95
387.80 1.404751e-95
387.90 1.404751e-95
388.00 1.404751e-95
388.10 1.404751e-95
388.20 1.404751e-95
388.30 1.404751e-95
388.40 1.404751e-95
388.50 1.404751e-95
388.60 1.404751e-95
388.70 1.404751e-95
388.80 1.404751e-95
388.90 1.404751e-95
389.00 1.404751e-95
389.10 1.404751e-95
389.20 1.404751e-95
389.30 1.404751e-95
389.40 1.404751e-95
389.50 1.404751e-95
389.60 1.404751e-95
389.70 1.404751e-95
389.80 1.404751e-95
389.90 1.404751e-95
390.00 1.404751e-95
390.10 1.404751e-95
390.20 1.404751e-95
390.30 1.404751e-95
390.40 1.404751e-95
390.50 1.404751e-95
390.60 1.404751e-95
390.70 1.404751e-95
390.80 1.404751e-95
390.90 1.404751e-95
391.00 1.404751e-95
391.10 1.404751e-95
391.20 1.404751e-95
391.30 1.404751e-95
391.40 1.404751e-95
391.50 1.404751e-95
391.60 1.404751e-95
391.70 1.404751e-95
391.80 1.404751e-95
391.90 1.404751e-95
392.00 1.404751e-95
392.10 1.404751e-95
392.20 1.404751e-95
392.30 1.404751e-95
392.40 1.404751e-95
392.50 1.404751e-95
392.60 1.404751e-95
392.70 1.404751e-95
392.80 1.404751e-95
392.90 1.404751e-95
393.00 1.404751e-95
393.10 1.404751e-95
393.20 1.404751e-95
393.30 1.404751e-95
393.40 1.404751e-95
393.50 1.404751e-95
393.60 1.404751e-95
393.70 1.404751e-95
393.80 1.404751e-95
393.90 1.404751e-95
394.00 1.404751e-95
394.10 1.404751e-95
394.20 1.404751e-95
394.30 1.404751e-95
394.40 1.404751e-95
394.50 1.404751e-95
394.60 1.404751e-95
394.70 1.404751e-95
394.80 1.404751e-95
394.90 1.404751e-95
395.00 0.007070265
395.10 0.01370032
395.20 0.01985395
395.30 0.02553648
395.40 0.03105603
395.50 0.03684853
395.60 0.04324997
395.70 0.05038341
395.80 0.05806563
395.90 0.06598014
396.00 0.0737416
396.10 0.08086438
396.20 0.08697676
396.30 0.09193085
396.40 0.09581756
396.50 0.09898242
396.60 0.1018548
396.70 0.1049328
396.80 0.1086907
396.90 0.1133576
397.00 0.1188631
397.10 0.1249419
397.20 0.1313173
397.30 0.1376762
397.40 0.1437425
397.50 0.1494183
397.60 0.1547993
397.70 0.1601251
397.80 0.1655709
397.90 0.1712287
398.00 0.1772852
398.10 0.1838695
398.20 0.1908305
398.30 0.1978718
398.40 0.2047726
398.50 0.2114399
398.60 0.2178807
398.70 0.2242414
398.80 0.2308259
398.90 0.2379509
399.00 0.2456767
399.10 0.2537887
399.20 0.2619415
399.30 0.2697445
399.40 0.2768606
399.50 0.2831983
399.60 0.2889432
399.70 0.2944545
399.80 0.3002004
399.90 0.3066547
400.00 0.3140695
400.10 0.3223729
400.20 0.3312188
400.30 0.3401723
400.40 0.34891
400.50 0.3571937
400.60 0.3648739
400.70 0.3718414
400.80 0.3779183
400.90 0.3828696
401.00 0.3866168
401.10 0.3893137
401.20 0.3912217
401.30 0.3926501
401.40 0.3940124
401.50 0.3956893
401.60 0.3978526
401.70 0.4005532
401.80 0.4038463
401.90 0.4077663
402.00 0.4122233
402.10 0.416986
402.20 0.4217835
402.30 0.4263803
402.40 0.4304832
402.50 0.4337707
402.60 0.4359779
402.70 0.4370008
402.80 0.4370615
402.90 0.4370615
403.00 0.4371412
403.10 0.4381352
403.20 0.4400782
403.30 0.4427351
403.40 0.445815
403.50 0.449198
403.60 0.452892
403.70 0.4568567
403.80 0.461119
403.90 0.4658707
404.00 0.471423
404.10 0.4780865
404.20 0.4859808
404.30 0.4948517
404.40 0.5040682
404.50 0.5129678
404.60 0.5211051
404.70 0.5282044
404.80 0.5341574
404.90 0.5389575
405.00 0.5356902
405.10 0.5322123
405.20 0.5289281
405.30 0.5261282
405.40 0.5237069
405.50 0.5212764
405.60 0.5183903
405.70 0.5148532
405.80 0.5109806
405.90 0.5073365
406.00 0.5044736
406.10 0.5029565
406.20 0.5032795
406.30 0.5057278
406.40 0.5101025
406.50 0.5157599
406.60 0.5219344
406.70 0.5277148
406.80 0.5323311
406.90 0.5354492
407.00 0.5370856
407.10 0.5375684
407.20 0.5373941
407.30 0.5371852
407.40 0.5375398
407.50 0.5388578
407.60 0.5411156
407.70 0.5436803
407.80 0.5458467
407.90 0.5471336
408.00 0.5472265
408.10 0.5462964
408.20 0.5449224
408.30 0.5438044
408.40 0.5435159
408.50 0.5442203
408.60 0.5457161
408.70 0.5474637
408.80 0.5487288
408.90 0.5487905
409.00 0.5472855
409.10 0.544496
409.20 0.5410862
409.30 0.5378588
409.40 0.5355712
409.50 0.5345795
409.60 0.5348175
409.70 0.5359247
409.80 0.5373692
409.90 0.5386293
410.00 0.5393949
410.10 0.5396445
410.20 0.5395407
410.30 0.5393342
410.40 0.5393097
410.50 0.5397075
410.60 0.5407317
410.70 0.5426033
410.80 0.5455219
410.90 0.549576
411.00 0.5545074
411.10 0.5597167
411.20 0.5646682
411.30 0.5691126
411.40 0.572932
411.50 0.5761817
411.60 0.5792346
411.70 0.582546
411.80 0.5862351
411.90 0.5900872
412.00 0.593761
412.10 0.5968952
412.20 0.5991919
412.30 0.6005987
412.40 0.6016245
412.50 0.6031883
412.60 0.6061991
412.70 0.6114008
412.80 0.6191611
412.90 0.6289074
413.00 0.6403755
413.10 0.6521369
413.20 0.6632978
413.30 0.6732292
413.40 0.6815393
413.50 0.6878796
413.60 0.6920254
413.70 0.6940326
413.80 0.6940912
413.90 0.6925231
414.00 0.689727
414.10 0.6858965
414.20 0.6811001
414.30 0.67564
414.40 0.6701339
414.50 0.6652403
414.60 0.6614201
414.70 0.6589281
414.80 0.6578601
414.90 0.6582509
415.00 0.6600197
415.10 0.6629809
415.20 0.6669791
415.30 0.6718478
415.40 0.677362
415.50 0.6834164
415.60 0.6900273
415.70 0.6970737
415.80 0.7041701
415.90 0.7106954
416.00 0.7161242
416.10 0.7201409
416.20 0.7223602
416.30 0.722541
416.40 0.7209192
416.50 0.7180055
416.60 0.7144466
416.70 0.7110329
416.80 0.7084094
416.90 0.7070129
417.00 0.7072735
417.10 0.7093894
417.20 0.7131609
417.30 0.7181764
417.40 0.7238623
417.50 0.7295018
417.60 0.7345992
417.70 0.7391592
417.80 0.7434181
417.90 0.7475673
418.00 0.7515252
418.10 0.7548436
418.20 0.7571668
418.30 0.7584168
418.40 0.7586661
418.50 0.7582104
418.60 0.7574826
418.70 0.7569093
418.80 0.7568379
418.90 0.7576839
419.00 0.7598012
419.10 0.7629657
419.20 0.7665503
419.30 0.7698573
419.40 0.7723404
419.50 0.7737906
419.60 0.7741825
419.70 0.7734611
419.80 0.7715107
419.90 0.7682992
420.00 0.7639568
420.10 0.7588394
420.20 0.7533496
420.30 0.7475986
420.40 0.7416068
420.50 0.7356714
420.60 0.7301016
420.70 0.7250878
420.80 0.7208051
420.90 0.7174162
421.00 0.7151636
421.10 0.7143456
421.20 0.7150327
421.30 0.7169506
421.40 0.719615
421.50 0.7223154
421.60 0.7242865
421.70 0.7249756
421.80 0.7241699
421.90 0.7218901
422.00 0.7183577
422.10 0.7140623
422.20 0.7095925
422.30 0.7053734
422.40 0.7014563
422.50 0.6976434
422.60 0.6937289
422.70 0.689415
422.80 0.6843568
422.90 0.6783723
423.00 0.6715998
423.10 0.6644975
423.20 0.6575838
423.30 0.651276
423.40 0.6459276
423.50 0.6418076
423.60 0.6390306
423.70 0.6376295
423.80 0.6375671
423.90 0.6385175
424.00 0.6398716
424.10 0.641097
424.20 0.6418797
424.30 0.6420506
424.40 0.6414993
424.50 0.6401466
424.60 0.637956
424.70 0.6349775
424.80 0.6313133
424.90 0.6271132
425.00 0.6225186
425.10 0.6174993
425.20 0.6118692
425.30 0.6054584
425.40 0.5982414
425.50 0.5903489
425.60 0.5820206
425.70 0.5734773
425.80 0.5648355
425.90 0.5562946
426.00 0.5481884
426.10 0.5408609
426.20 0.5347471
426.30 0.5301295
426.40 0.5270355
426.50 0.5254057
426.60 0.5250036
426.70 0.5254712
426.80 0.5264732
426.90 0.5275552
427.00 0.5280704
427.10 0.5274765
427.20 0.5255712
427.30 0.522396
427.40 0.5180923
427.50 0.5129255
427.60 0.5071187
427.70 0.5008447
427.80 0.4943861
427.90 0.4881004
428.00 0.4825249
428.10 0.4782476
428.20 0.4755443
428.30 0.4742471
428.40 0.4739226
428.50 0.4741248
428.60 0.4745771
428.70 0.4752282
428.80 0.4760619
428.90 0.4768645
429.00 0.4774316
429.10 0.4778399
429.20 0.4782697
429.30 0.4788922
429.40 0.4796991
429.50 0.4804795
429.60 0.4811067
429.70 0.4818503
429.80 0.4833131
429.90 0.4860028
430.00 0.4901322
430.10 0.4954354
430.20 0.5014919
430.30 0.5081298
430.40 0.5151994
430.50 0.5222841
430.60 0.5288263
430.70 0.5343673
430.80 0.5387042
430.90 0.5418868
431.00 0.5439781
431.10 0.5449775
431.20 0.5449584
431.30 0.5441056
431.40 0.5426378
431.50 0.5409047
431.60 0.53927
431.70 0.5380205
431.80 0.5372926
431.90 0.5371949
432.00 0.5379534
432.10 0.539631
432.20 0.5420302
432.30 0.5448261
432.40 0.5477542
432.50 0.5506519
432.60 0.5533443
432.70 0.5556321
432.80 0.5572707
432.90 0.5580667
433.00 0.5580386
433.10 0.5573546
433.20 0.556391
433.30 0.5556249
433.40 0.5553914
433.50 0.5559673
433.60 0.5575802
433.70 0.5602894
433.80 0.5639648
433.90 0.5682738
434.00 0.5727576
434.10 0.5770495
434.20 0.5809913
434.30 0.5846313
434.40 0.588239
434.50 0.5921999
434.60 0.5969508
434.70 0.6029028
434.80 0.6102244
434.90 0.6186629
435.00 0.6276575
435.10 0.636533
435.20 0.6445658
435.30 0.6511748
435.40 0.6561175
435.50 0.6594631
435.60 0.6616
435.70 0.6631818
435.80 0.6648505
435.90 0.6670492
436.00 0.6699034
436.10 0.6732941
436.20 0.6769164
436.30 0.6804156
436.40 0.6834805
436.50 0.6858208
436.60 0.6872647
436.70 0.6877534
436.80 0.6872887
436.90 0.6860306
437.00 0.684239
437.10 0.6822099
437.20 0.680349
437.30 0.6790384
437.40 0.6786671
437.50 0.6794979
437.60 0.6817059
437.70 0.6853179
437.80 0.6900114
437.90 0.6953069
438.00 0.7006272
438.10 0.7054439
438.20 0.7094659
438.30 0.7126691
438.40 0.7152774
438.50 0.7176169
438.60 0.7197905
438.70 0.7216964
438.80 0.7231371
438.90 0.7238788
439.00 0.7235974
439.10 0.7219949
439.20 0.7190855
439.30 0.7151519
439.40 0.7108302
439.50 0.706931
439.60 0.7040453
439.70 0.702334
439.80 0.7014559
439.90 0.7007558
440.00 0.6995994
440.10 0.6976683
440.20 0.6949104
440.30 0.6913711
440.40 0.687074
440.50 0.6821089
440.60 0.6767179
440.70 0.67109
440.80 0.6652234
440.90 0.6591088
441.00 0.6529644
441.10 0.6472156
441.20 0.6423398
441.30 0.6386058
441.40 0.6359771
441.50 0.6342427
441.60 0.63311
441.70 0.6322421
441.80 0.6315549
441.90 0.6311816
442.00 0.6312083
442.10 0.6317396
442.20 0.6329378
442.30 0.6348931
442.40 0.6375002
442.50 0.6404124
442.60 0.6431835
442.70 0.645521
442.80 0.6473859
442.90 0.6487851
443.00 0.649563
443.10 0.6495869
443.20 0.6488341
443.30 0.6474236
443.40 0.6455417
443.50 0.6433374
443.60 0.6408952
443.70 0.6381402
443.80 0.6348734
443.90 0.6310406
444.00 0.6268522
444.10 0.6226187
444.20 0.618646
444.30 0.6151043
444.40 0.6119743
444.50 0.6090939
444.60 0.6061632
444.70 0.6027484
444.80 0.5985809
444.90 0.5937642
445.00 0.588679
445.10 0.583925
445.20 0.5802463
445.30 0.5783751
445.40 0.578709
445.50 0.5811884
445.60 0.5852784
445.70 0.5901327
445.80 0.5950403
445.90 0.5995014
446.00 0.6030963
446.10 0.6055474
446.20 0.606763
446.30 0.6067888
446.40 0.6058286
446.50 0.6042569
446.60 0.6025528
446.70 0.6011077
446.80 0.6001802
446.90 0.5998308
447.00 0.5999648
447.10 0.6004538
447.20 0.6009151
447.30 0.6008413
447.40 0.5999037
447.50 0.5980541
447.60 0.5954619
447.70 0.5924432
447.80 0.5893119
447.90 0.5862777
448.00 0.5834858
448.10 0.5809273
448.20 0.5784038
448.30 0.5756586
448.40 0.5724655
448.50 0.5686697
448.60 0.5644231
448.70 0.5600973
448.80 0.5561479
448.90 0.5530841
449.00 0.5513509
449.10 0.5513195
449.20 0.5532297
449.30 0.5569906
449.40 0.5619606
449.50 0.56715
449.60 0.5716168
449.70 0.5746947
449.80 0.5761964
449.90 0.5764314
450.00 0.5759575
450.10 0.5754315
450.20 0.5754347
450.30 0.5763498
450.40 0.5784184
450.50 0.5816032
450.60 0.585649
450.70 0.5903749
450.80 0.595772
450.90 0.6018283
451.00 0.6084244
451.10 0.615301
451.20 0.6220461
451.30 0.6282467
451.40 0.6336286
451.50 0.6381082
451.60 0.6417679
451.70 0.6448192
451.80 0.6474392
451.90 0.6497492
452.00 0.6518671
452.10 0.6538947
452.20 0.655919
452.30 0.6580133
452.40 0.6601365
452.50 0.662153
452.60 0.6639262
452.70 0.6653071
452.80 0.6661794
452.90 0.6665061
453.00 0.6664808
453.10 0.6664767
453.20 0.6668514
453.30 0.6677975
453.40 0.6692961
453.50 0.6711176
453.60 0.6728755
453.70 0.6742918
453.80 0.6753639
453.90 0.6762912
454.00 0.6773925
454.10 0.6790045
454.20 0.6813512
454.30 0.6845341
454.40 0.6884222
454.50 0.6926134
454.60 0.6965996
454.70 0.6999694
454.80 0.7024661
454.90 0.7040783
455.00 0.7050874
455.10 0.7058039
455.20 0.7064513
455.30 0.7071149
455.40 0.7076537
455.50 0.7077995
455.60 0.707426
455.70 0.7066663
455.80 0.7058655
455.90 0.7055123
456.00 0.7061801
456.10 0.7083359
456.20 0.7121945
456.30 0.7176283
456.40 0.7241001
456.50 0.7308962
456.60 0.7373614
456.70 0.7430423
456.80 0.7477224
456.90 0.7515343
457.00 0.7549424
457.10 0.758332
457.20 0.7618799
457.30 0.7656612
457.40 0.7696042
457.50 0.7735042
457.60 0.7770801
457.70 0.7800971
457.80 0.7825521
457.90 0.7846131
458.00 0.7864607
458.10 0.7883522
458.20 0.79069
458.30 0.79377
458.40 0.7975445
458.50 0.8017134
458.60 0.8058388
458.70 0.8094951
458.80 0.8123215
458.90 0.8140273
459.00 0.8145875
459.10 0.8141876
459.20 0.8130236
459.30 0.8113125
459.40 0.8093677
459.50 0.8075315
459.60 0.8060842
459.70 0.8052231
459.80 0.804963
459.90 0.8052123
460.00 0.8059494
460.10 0.8071083
460.20 0.8086857
460.30 0.8108694
460.40 0.813741
460.50 0.8172069
460.60 0.821087
460.70 0.8250438
460.80 0.8286265
460.90 0.8314663
461.00 0.8332774
461.10 0.8338424
461.20 0.8330874
461.30 0.8311462
461.40 0.8282487
461.50 0.8245752
461.60 0.8203056
461.70 0.8156177
461.80 0.8107836
461.90 0.8061718
462.00 0.8021089
462.10 0.7988712
462.20 0.7966237
462.30 0.7952572
462.40 0.7944638
462.50 0.7939039
462.60 0.7933607
462.70 0.7928013
462.80 0.7923606
462.90 0.7923458
463.00 0.7930255
463.10 0.794461
463.20 0.7965151
463.30 0.7989087
463.40 0.8013779
463.50 0.8037733
463.60 0.8060779
463.70 0.8083815
463.80 0.8107727
463.90 0.8132594
464.00 0.8156763
464.10 0.8177151
464.20 0.8190584
464.30 0.8194786
464.40 0.8189513
464.50 0.8178132
464.60 0.8167161
464.70 0.8163567
464.80 0.8171919
464.90 0.8192646
465.00 0.8222166
465.10 0.8255895
465.20 0.8290335
465.30 0.8322252
465.40 0.8350154
465.50 0.8374079
465.60 0.8393061
465.70 0.8405623
465.80 0.8410915
465.90 0.8408332
466.00 0.83965
466.10 0.8374361
466.20 0.834334
466.30 0.830765
466.40 0.8274033
466.50 0.8248996
466.60 0.8236769
466.70 0.8240694
466.80 0.8262108
466.90 0.8298462
467.00 0.8344486
467.10 0.8395035
467.20 0.8446186
467.30 0.8494354
467.40 0.8536903
467.50 0.8573025
467.60 0.8603171
467.70 0.8628257
467.80 0.8648753
467.90 0.8664034
468.00 0.8672358
468.10 0.8670405
468.20 0.8655054
468.30 0.8627266
468.40 0.8592454
468.50 0.8556594
468.60 0.8523966
468.70 0.8498394
468.80 0.848402
468.90 0.8484162
469.00 0.8499631
469.10 0.8528558
469.20 0.8567407
469.30 0.8612927
469.40 0.866323
469.50 0.8717902
469.60 0.8776676
469.70 0.8837388
469.80 0.8896775
469.90 0.8952546
470.00 0.9003401
470.10 0.9047857
470.20 0.9083467
470.30 0.9107559
470.40 0.9119324
470.50 0.9121155
470.60 0.9117287
470.70 0.9111277
470.80 0.9104467
470.90 0.9095627
471.00 0.908304
471.10 0.9066799
471.20 0.9048526
471.30 0.9030094
471.40 0.9014485
471.50 0.9005363
471.60 0.9004921
471.70 0.901335
471.80 0.902895
471.90 0.9047668
472.00 0.9064015
472.10 0.9073737
472.20 0.9076046
472.30 0.9074136
472.40 0.9073059
472.50 0.907664
472.60 0.908605
472.70 0.9099734
472.80 0.9113207
472.90 0.9121088
473.00 0.9120021
473.10 0.9109862
473.20 0.909323
473.30 0.9075496
473.40 0.9063816
473.50 0.9063816
473.60 0.9077206
473.70 0.9101869
473.80 0.9133072
473.90 0.9164998
474.00 0.9193354
474.10 0.9216168
474.20 0.9232907
474.30 0.9244507
474.40 0.9253783
474.50 0.9263033
474.60 0.9272307
474.70 0.9279992
474.80 0.9283771
474.90 0.9282158
475.00 0.9274389
475.10 0.9258985
475.20 0.9233796
475.30 0.9198406
475.40 0.9154152
475.50 0.9103137
475.60 0.9048732
475.70 0.8994447
475.80 0.8941741
475.90 0.8890907
476.00 0.884405
476.10 0.8804122
476.20 0.8772638
476.30 0.8748638
476.40 0.8728733
476.50 0.8708663
476.60 0.8684131
476.70 0.8650506
476.80 0.8604476
476.90 0.8546132
477.00 0.8478064
477.10 0.8403697
477.20 0.8327573
477.30 0.8255481
477.40 0.8191616
477.50 0.8136755
477.60 0.8088644
477.70 0.8043776
477.80 0.8000596
477.90 0.7961515
478.00 0.7931785
478.10 0.79166
478.20 0.7918428
478.30 0.7935697
478.40 0.7964253
478.50 0.8000185
478.60 0.8040422
478.70 0.8080181
478.80 0.8112666
478.90 0.8132456
479.00 0.8137494
479.10 0.8127766
479.20 0.810393
479.30 0.8066643
479.40 0.8016521
479.50 0.7955673
479.60 0.7888602
479.70 0.7821693
479.80 0.7761817
479.90 0.771281
480.00 0.7673368
480.10 0.7639659
480.20 0.7607803
480.30 0.7573597
480.40 0.7533631
480.50 0.7487258
480.60 0.7437758
480.70 0.7393648
480.80 0.7367225
480.90 0.7370458
481.00 0.7410209
481.10 0.748617
481.20 0.7591755
481.30 0.7716265
481.40 0.7846562
481.50 0.7969652
481.60 0.8075487
481.70 0.8158387
481.80 0.8217532
481.90 0.8257156
482.00 0.828475
482.10 0.8305801
482.20 0.832186
482.30 0.8332431
482.40 0.8337849
482.50 0.8340696
482.60 0.8345177
482.70 0.8355848
482.80 0.8376755
482.90 0.8410134
483.00 0.8455342
483.10 0.8509405
483.20 0.8567686
483.30 0.8623651
483.40 0.8669633
483.50 0.8700605
483.60 0.8716517
483.70 0.8720957
483.80 0.8719565
483.90 0.8718469
484.00 0.8721633
484.10 0.8731207
484.20 0.8749149
484.30 0.8776347
484.40 0.8811926
484.50 0.8853797
484.60 0.8899412
484.70 0.8947455
484.80 0.8998061
484.90 0.9050528
485.00 0.9104067
485.10 0.9159563
485.20 0.9218155
485.30 0.9279765
485.40 0.9344288
485.50 0.9412875
485.60 0.9486829
485.70 0.9566485
485.80 0.965127
485.90 0.9739648
486.00 0.9828704
486.10 0.9914435
486.20 0.9993271
486.30 1.006427
486.40 1.012858
486.50 1.01875
486.60 1.024304
486.70 1.029804
486.80 1.035502
486.90 1.041443
487.00 1.047493
487.10 1.053577
487.20 1.059773
487.30 1.066289
487.40 1.07344
487.50 1.081664
487.60 1.091391
487.70 1.102814
487.80 1.115667
487.90 1.129248
488.00 1.142644
488.10 1.155027
488.20 1.165785
488.30 1.17453
488.40 1.181173
488.50 1.185899
488.60 1.189168
488.70 1.191712
488.80 1.19441
488.90 1.198001
489.00 1.202902
489.10 1.20929
489.20 1.217217
489.30 1.226624
489.40 1.237247
489.50 1.248482
489.60 1.25944
489.70 1.269253
489.80 1.277281
489.90 1.283261
490.00 1.287322
490.10 1.289799
490.20 1.291123
490.30 1.291783
490.40 1.292188
490.50 1.29242
490.60 1.292161
490.70 1.290748
490.80 1.287387
490.90 1.281515
491.00 1.273133
491.10 1.262739
491.20 1.251151
491.30 1.239409
491.40 1.228561
491.50 1.219522
491.60 1.212988
491.70 1.209174
491.80 1.207725
491.90 1.207978
492.00 1.209149
492.10 1.210487
492.20 1.211431
492.30 1.21166
492.40 1.211
492.50 1.209521
492.60 1.207462
492.70 1.205036
492.80 1.202452
492.90 1.199942
493.00 1.19767
493.10 1.195755
493.20 1.194356
493.30 1.193538
493.40 1.19324
493.50 1.193311
493.60 1.193532
493.70 1.193728
493.80 1.193805
493.90 1.193742
494.00 1.19371
494.10 1.19402
494.20 1.194915
494.30 1.196397
494.40 1.198213
494.50 1.199966
494.60 1.201223
494.70 1.201548
494.80 1.200539
494.90 1.198023
495.00 1.194043
495.10 1.188693
495.20 1.182215
495.30 1.175019
495.40 1.167562
495.50 1.160203
495.60 1.153224
495.70 1.146944
495.80 1.141706
495.90 1.137785
496.00 1.135266
496.10 1.134103
496.20 1.134124
496.30 1.134909
496.40 1.135959
496.50 1.136956
496.60 1.137619
496.70 1.137594
496.80 1.136582
496.90 1.134573
497.00 1.131834
497.10 1.128688
497.20 1.125279
497.30 1.121383
497.40 1.11656
497.50 1.110403
497.60 1.10275
497.70 1.093821
497.80 1.084153
497.90 1.074386
498.00 1.065186
498.10 1.057142
498.20 1.050629
498.30 1.045725
498.40 1.042227
498.50 1.03978
498.60 1.037924
498.70 1.036267
498.80 1.034599
498.90 1.032795
499.00 1.030758
499.10 1.028405
499.20 1.025595
499.30 1.022121
499.40 1.017947
499.50 1.013377
499.60 1.008952
499.70 1.00521
499.80 1.002475
499.90 1.000783
500.00 1
500.10 1.000035
500.20 1.000864
500.30 1.002464
500.40 1.00485
500.50 1.008137
500.60 1.012552
500.70 1.018274
500.80 1.025211
500.90 1.033014
501.00 1.04124
501.10 1.049531
501.20 1.057698
501.30 1.065676
501.40 1.073602
501.50 1.081627
501.60 1.089743
501.70 1.097973
501.80 1.106341
501.90 1.114702
502.00 1.122774
502.10 1.130424
502.20 1.137732
502.30 1.144747
502.40 1.15137
502.50 1.157401
502.60 1.162658
502.70 1.167146
502.80 1.17102
502.90 1.174479
503.00 1.177711
503.10 1.180705
503.20 1.183258
503.30 1.185299
503.40 1.186971
503.50 1.188434
503.60 1.189846
503.70 1.191374
503.80 1.193164
503.90 1.195257
504.00 1.197516
504.10 1.19963
504.20 1.201158
504.30 1.201812
504.40 1.201633
504.50 1.201003
504.60 1.200507
504.70 1.200717
504.80 1.202161
504.90 1.205195
505.00 1.209899
505.10 1.21619
505.20 1.223836
505.30 1.232486
505.40 1.241736
505.50 1.251162
505.60 1.260394
505.70 1.269093
505.80 1.276855
505.90 1.283208
506.00 1.287806
506.10 1.2905
506.20 1.291345
506.30 1.29078
506.40 1.289566
506.50 1.288513
506.60 1.288364
506.70 1.289696
506.80 1.292792
506.90 1.297509
507.00 1.303311
507.10 1.309475
507.20 1.31538
507.30 1.320822
507.40 1.325976
507.50 1.331086
507.60 1.336268
507.70 1.341385
507.80 1.346042
507.90 1.349792
508.00 1.352346
508.10 1.353653
508.20 1.353848
508.30 1.353253
508.40 1.35228
508.50 1.351339
508.60 1.350832
508.70 1.350971
508.80 1.351763
508.90 1.353169
509.00 1.355088
509.10 1.357418
509.20 1.360205
509.30 1.363518
509.40 1.367271
509.50 1.371228
509.60 1.375124
509.70 1.37875
509.80 1.382063
509.90 1.385138
510.00 1.387989
510.10 1.390533
510.20 1.392655
510.30 1.394293
510.40 1.3955
510.50 1.396402
510.60 1.397014
510.70 1.397364
510.80 1.397662
510.90 1.398139
511.00 1.398886
511.10 1.399817
511.20 1.400611
511.30 1.400821
511.40 1.400011
511.50 1.397845
511.60 1.394124
511.70 1.388757
511.80 1.381791
511.90 1.373379
512.00 1.363937
512.10 1.354044
512.20 1.344171
512.30 1.334759
512.40 1.326282
512.50 1.319113
512.60 1.313377
512.70 1.308869
512.80 1.30513
512.90 1.301572
513.00 1.297628
513.10 1.292965
513.20 1.287604
513.30 1.281847
513.40 1.27605
513.50 1.270595
513.60 1.265849
513.70 1.262019
513.80 1.259071
513.90 1.256815
514.00 1.255037
514.10 1.253522
514.20 1.252138
514.30 1.250877
514.40 1.24976
514.50 1.248711
514.60 1.247549
514.70 1.246121
514.80 1.244352
514.90 1.24226
515.00 1.240006
515.10 1.237757
515.20 1.235611
515.30 1.23355
515.40 1.231436
515.50 1.22907
515.60 1.226153
515.70 1.222418
515.80 1.217938
515.90 1.213223
516.00 1.209018
516.10 1.206049
516.20 1.204889
516.30 1.20574
516.40 1.20828
516.50 1.211831
516.60 1.215596
516.70 1.218798
516.80 1.220759
516.90 1.221145
517.00 1.220159
517.10 1.218364
517.20 1.216367
517.30 1.214634
517.40 1.213494
517.50 1.213245
517.60 1.214118
517.70 1.216276
517.80 1.219828
517.90 1.224683
518.00 1.23046
518.10 1.236719
518.20 1.243239
518.30 1.249939
518.40 1.256704
518.50 1.263357
518.60 1.269607
518.70 1.275133
518.80 1.279638
518.90 1.282843
519.00 1.284612
519.10 1.284892
519.20 1.283614
519.30 1.280895
519.40 1.277068
519.50 1.272526
519.60 1.267686
519.70 1.263027
519.80 1.259024
519.90 1.256167
520.00 1.254966
520.10 1.255756
520.20 1.258537
520.30 1.262988
520.40 1.268443
520.50 1.274052
520.60 1.279141
520.70 1.283257
520.80 1.286212
520.90 1.288172
521.00 1.289457
521.10 1.290449
521.20 1.291631
521.30 1.293457
521.40 1.296201
521.50 1.299969
521.60 1.304724
521.70 1.310346
521.80 1.316801
521.90 1.324173
522.00 1.33246
522.10 1.34154
522.20 1.351181
522.30 1.361028
522.40 1.370703
522.50 1.379791
522.60 1.387898
522.70 1.394823
522.80 1.400665
522.90 1.405862
523.00 1.411081
523.10 1.416953
523.20 1.423804
523.30 1.431628
523.40 1.440203
523.50 1.449156
523.60 1.458044
523.70 1.466469
523.80 1.474222
523.90 1.48136
524.00 1.488102
524.10 1.49472
524.20 1.501364
524.30 1.507971
524.40 1.514395
524.50 1.520511
524.60 1.526268
524.70 1.531672
524.80 1.536763
524.90 1.541655
525.00 1.546533
525.10 1.551697
525.20 1.557465
525.30 1.564099
525.40 1.571723
525.50 1.580215
525.60 1.589273
525.70 1.598443
525.80 1.607058
525.90 1.61442
526.00 1.619945
526.10 1.623324
526.20 1.624609
526.30 1.62421
526.40 1.622829
526.50 1.621155
526.60 1.619661
526.70 1.618586
526.80 1.617998
526.90 1.617806
527.00 1.617746
527.10 1.617504
527.20 1.616852
527.30 1.615626
527.40 1.613783
527.50 1.611422
527.60 1.608666
527.70 1.605593
527.80 1.602294
527.90 1.59897
528.00 1.595905
528.10 1.593307
528.20 1.5912
528.30 1.58951
528.40 1.588098
528.50 1.586786
528.60 1.585554
528.70 1.584576
528.80 1.584065
528.90 1.584211
529.00 1.585112
529.10 1.586812
529.20 1.589305
529.30 1.592501
529.40 1.596275
529.50 1.60055
529.60 1.605236
529.70 1.610172
529.80 1.615237
529.90 1.620347
530.00 1.62535
530.10 1.63008
530.20 1.634434
530.30 1.638284
530.40 1.641594
530.50 1.644442
530.60 1.646902
530.70 1.649023
530.80 1.650761
530.90 1.652051
531.00 1.652958
531.10 1.653652
531.20 1.654249
531.30 1.654826
531.40 1.655504
531.50 1.656456
531.60 1.65786
531.70 1.659813
531.80 1.66226
531.90 1.665003
532.00 1.667732
532.10 1.670131
532.20 1.672097
532.30 1.673638
532.40 1.674791
532.50 1.675825
532.60 1.677273
532.70 1.679732
532.80 1.683567
532.90 1.688673
533.00 1.694533
533.10 1.700515
533.20 1.706019
533.30 1.710535
533.40 1.713775
533.50 1.715731
533.60 1.716672
533.70 1.717158
533.80 1.717756
533.90 1.718791
534.00 1.72038
534.10 1.722516
534.20 1.725209
534.30 1.728531
534.40 1.73253
534.50 1.737179
534.60 1.742413
534.70 1.748202
534.80 1.75453
534.90 1.761325
535.00 1.768329
535.10 1.775092
535.20 1.781309
535.30 1.786967
535.40 1.792238
535.50 1.797431
535.60 1.802927
535.70 1.809097
535.80 1.816216
535.90 1.824323
536.00 1.833279
536.10 1.842797
536.20 1.852469
536.30 1.861847
536.40 1.87065
536.50 1.878984
536.60 1.887201
536.70 1.895693
536.80 1.904867
536.90 1.915044
537.00 1.92623
537.10 1.938121
537.20 1.950269
537.30 1.962257
537.40 1.973674
537.50 1.984074
537.60 1.993196
537.70 2.00114
537.80 2.008219
537.90 2.01475
538.00 2.020996
538.10 2.027115
538.20 2.03305
538.30 2.038607
538.40 2.04371
538.50 2.048414
538.60 2.05277
538.70 2.056799
538.80 2.060602
538.90 2.064413
539.00 2.068554
539.10 2.073282
539.20 2.078654
539.30 2.084512
539.40 2.090584
539.50 2.096556
539.60 2.10223
539.70 2.107492
539.80 2.112071
539.90 2.1156
540.00 2.11788
540.10 2.118936
540.20 2.118958
540.30 2.118368
540.40 2.117591
540.50 2.116866
540.60 2.116327
540.70 2.116136
540.80 2.116438
540.90 2.117164
541.00 2.118014
541.10 2.118659
541.20 2.119039
541.30 2.119377
541.40 2.119959
541.50 2.120902
541.60 2.122119
541.70 2.123291
541.80 2.123996
541.90 2.123972
542.00 2.123186
542.10 2.121708
542.20 2.119644
542.30 2.117338
542.40 2.115283
542.50 2.113774
542.60 2.112755
542.70 2.11181
542.80 2.110303
542.90 2.10773
543.00 2.103914
543.10 2.098994
543.20 2.093371
543.30 2.087592
543.40 2.08223
543.50 2.077701
543.60 2.07416
543.70 2.071451
543.80 2.069221
543.90 2.067051
544.00 2.064487
544.10 2.061167
544.20 2.056901
544.30 2.051567
544.40 2.045025
544.50 2.037194
544.60 2.028112
544.70 2.017931
544.80 2.006904
544.90 1.995407
545.00 1.98392
545.10 1.972896
545.20 1.962496
545.30 1.952523
545.40 1.942569
545.50 1.932209
545.60 1.921189
545.70 1.909497
545.80 1.897397
545.90 1.885339
546.00 1.87381
546.10 1.863086
546.20 1.853131
546.30 1.84367
546.40 1.834124
546.50 1.823797
546.60 1.812224
546.70 1.799365
546.80 1.785487
546.90 1.770942
547.00 1.756038
547.10 1.741025
547.20 1.726054
547.30 1.711142
547.40 1.696187
547.50 1.681114
547.60 1.665996
547.70 1.651046
547.80 1.636592
547.90 1.622887
548.00 1.609978
548.10 1.597728
548.20 1.585956
548.30 1.574556
548.40 1.563463
548.50 1.552675
548.60 1.542165
548.70 1.531778
548.80 1.521318
548.90 1.510603
549.00 1.499405
549.10 1.487469
549.20 1.474727
549.30 1.46142
549.40 1.447909
549.50 1.43446
549.60 1.421117
549.70 1.407741
549.80 1.394266
549.90 1.380755
550.00 1.398025
550.10 1.391344
550.20 1.384705
550.30 1.37691
550.40 1.366694
550.50 1.353236
550.60 1.336487
550.70 1.317105
550.80 1.296426
550.90 1.275898
551.00 1.256587
551.10 1.23898
551.20 1.222953
551.30 1.208307
551.40 1.19519
551.50 1.184006
551.60 1.175032
551.70 1.168005
551.80 1.162246
551.90 1.156876
552.00 1.150896
552.10 1.143426
552.20 1.13396
552.30 1.122586
552.40 1.109839
552.50 1.096391
552.60 1.08274
552.70 1.068947
552.80 1.054786
552.90 1.040042
553.00 1.024787
553.10 1.009843
553.20 0.9962678
553.30 0.9848837
553.40 0.9763709
553.50 0.9707222
553.60 0.9670171
553.70 0.9635514
553.80 0.9584717
553.90 0.9507161
554.00 0.9404628
554.10 0.9290211
554.20 0.9182037
554.30 0.9097867
554.40 0.9052721
554.50 0.9054903
554.60 0.9107124
554.70 0.9205858
554.80 0.9338193
554.90 0.9490499
555.00 0.9654692
555.10 0.9826526
555.20 1.001766
555.30 1.027154
555.40 1.065022
555.50 1.121125
555.60 1.199431
555.70 1.300823
555.80 1.422
555.90 1.555648
556.00 1.691682
556.10 1.819472
556.20 1.93033
556.30 2.018834
556.40 2.08383
556.50 2.129136
556.60 2.161641
556.70 2.187703
556.80 2.211808
556.90 2.236723
557.00 2.263229
557.10 2.290515
557.20 2.317655
557.30 2.343963
557.40 2.369028
557.50 2.39309
557.60 2.416932
557.70 2.441925
557.80 2.469407
557.90 2.500056
558.00 2.533804
558.10 2.569846
558.20 2.607302
558.30 2.645394
558.40 2.683392
558.50 2.720734
558.60 2.756328
558.70 2.788804
558.80 2.817274
558.90 2.841149
559.00 2.859971
559.10 2.873744
559.20 2.881971
559.30 2.881668
559.40 2.868152
559.50 2.837042
559.60 2.785295
559.70 2.71247
559.80 2.621657
559.90 2.519088
560.00 2.413527
560.10 2.314735
560.20 2.231084
560.30 2.167966
560.40 2.126762
560.50 2.104189
560.60 2.094064
560.70 2.090797
560.80 2.090349
560.90 2.089863
561.00 2.088004
561.10 2.084755
561.20 2.080474
561.30 2.075748
561.40 2.071097
561.50 2.066616
561.60 2.062161
561.70 2.057363
561.80 2.052043
561.90 2.046332
562.00 2.040621
562.10 2.03559
562.20 2.031617
562.30 2.028623
562.40 2.026041
562.50 2.022799
562.60 2.018018
562.70 2.011101
562.80 2.00186
562.90 1.990914
563.00 1.979582
563.10 1.96937
563.20 1.961223
563.30 1.955368
563.40 1.951278
563.50 1.947699
563.60 1.94339
563.70 1.937623
563.80 1.929995
563.90 1.920525
564.00 1.909791
564.10 1.898857
564.20 1.888941
564.30 1.881088
564.40 1.876313
564.50 1.875562
564.60 1.879359
564.70 1.887549
564.80 1.899336
564.90 1.913391
565.00 1.927932
565.10 1.941027
565.20 1.95153
565.30 1.959191
565.40 1.964164
565.50 1.967027
565.60 1.968761
565.70 1.970419
565.80 1.972573
565.90 1.975287
566.00 1.978337
566.10 1.98134
566.20 1.984171
566.30 1.987022
566.40 1.99019
566.50 1.994003
566.60 1.99868
566.70 2.004555
566.80 2.011996
566.90 2.021058
567.00 2.031486
567.10 2.042951
567.20 2.055216
567.30 2.068113
567.40 2.0817
567.50 2.096102
567.60 2.111067
567.70 2.126145
567.80 2.141457
567.90 2.157926
568.00 2.176639
568.10 2.198186
568.20 2.222549
568.30 2.249084
568.40 2.276307
568.50 2.302083
568.60 2.324284
568.70 2.341342
568.80 2.35258
568.90 2.358394
569.00 2.360307
569.10 2.360508
569.20 2.360652
569.30 2.361575
569.40 2.363818
569.50 2.367584
569.60 2.372784
569.70 2.379226
569.80 2.386795
569.90 2.395399
570.00 2.404759
570.10 2.414265
570.20 2.422859
570.30 2.429626
570.40 2.434135
570.50 2.436521
570.60 2.437642
570.70 2.438462
570.80 2.43958
570.90 2.441222
571.00 2.443094
571.10 2.444322
571.20 2.443614
571.30 2.439497
571.40 2.430738
571.50 2.41693
571.60 2.398708
571.70 2.377328
571.80 2.354242
571.90 2.330818
572.00 2.308151
572.10 2.287199
572.20 2.26872
572.30 2.253037
572.40 2.240107
572.50 2.229915
572.60 2.222544
572.70 2.218261
572.80 2.217604
572.90 2.220985
573.00 2.228275
573.10 2.238903
573.20 2.252235
573.30 2.267512
573.40 2.283704
573.50 2.299554
573.60 2.313563
573.70 2.324294
573.80 2.330696
573.90 2.332313
574.00 2.329403
574.10 2.32283
574.20 2.313978
574.30 2.304329
574.40 2.295427
574.50 2.288547
574.60 2.283996
574.70 2.281164
574.80 2.278978
574.90 2.276321
575.00 2.272487
575.10 2.267618
575.20 2.262788
575.30 2.259772
575.40 2.260552
575.50 2.266662
575.60 2.278664
575.70 2.296092
575.80 2.317455
575.90 2.340339
576.00 2.361974
576.10 2.379806
576.20 2.391934
576.30 2.397372
576.40 2.39633
576.50 2.389965
576.60 2.379858
576.70 2.367378
576.80 2.353431
576.90 2.33891
577.00 2.324649
577.10 2.311335
577.20 2.299325
577.30 2.288699
577.40 2.279721
577.50 2.272747
577.60 2.268193
577.70 2.26675
577.80 2.269115
577.90 2.275706
578.00 2.286702
578.10 2.302018
578.20 2.321101
578.30 2.34261
578.40 2.364446
578.50 2.384343
578.60 2.400898
578.70 2.414029
578.80 2.424628
578.90 2.434485
579.00 2.445702
579.10 2.459478
579.20 2.475758
579.30 2.493514
579.40 2.51103
579.50 2.526562
579.60 2.538692
579.70 2.546577
579.80 2.550355
579.90 2.551008
580.00 2.549698
580.10 2.547317
580.20 2.544531
580.30 2.542036
580.40 2.540653
580.50 2.541517
580.60 2.545937
580.70 2.55479
580.80 2.568064
580.90 2.584526
581.00 2.602258
581.10 2.61918
581.20 2.633484
581.30 2.644263
581.40 2.651683
581.50 2.656962
581.60 2.661744
581.70 2.666995
581.80 2.672625
581.90 2.677717
582.00 2.680931
582.10 2.681098
582.20 2.67757
582.30 2.670495
582.40 2.66104
582.50 2.651001
582.60 2.641829
582.70 2.63386
582.80 2.626329
582.90 2.617635
583.00 2.606075
583.10 2.59094
583.20 2.57285
583.30 2.553153
583.40 2.533096
583.50 2.513377
583.60 2.494538
583.70 2.477204
583.80 2.461592
583.90 2.447603
584.00 2.435398
584.10 2.425431
584.20 2.418378
584.30 2.414656
584.40 2.413727
584.50 2.413673
584.60 2.411706
584.70 2.405471
584.80 2.393838
584.90 2.377103
585.00 2.35656
585.10 2.333795
585.20 2.310285
585.30 2.286992
585.40 2.263838
585.50 2.239833
585.60 2.213652
585.70 2.184392
585.80 2.152133
585.90 2.117889
586.00 2.082975
586.10 2.048385
586.20 2.014621
586.30 1.9818
586.40 1.949532
586.50 1.917154
586.60 1.884252
586.70 1.850767
586.80 1.8172
586.90 1.784315
587.00 1.752555
587.10 1.72192
587.20 1.692032
587.30 1.66282
587.40 1.635109
587.50 1.610107
587.60 1.588746
587.70 1.571353
587.80 1.557749
587.90 1.547092
588.00 1.537699
588.10 1.527854
588.20 1.516196
588.30 1.502134
588.40 1.486136
588.50 1.469237
588.60 1.452669
588.70 1.437496
588.80 1.424285
588.90 1.413363
589.00 1.405159
589.10 1.399978
589.20 1.397745
589.30 1.398044
589.40 1.400306
589.50 1.403697
589.60 1.407128
589.70 1.409425
589.80 1.409557
589.90 1.407048
590.00 1.402429
590.10 1.396986
590.20 1.392117
590.30 1.388777
590.40 1.387122
590.50 1.386861
590.60 1.387663
590.70 1.389771
590.80 1.394037
590.90 1.401551
591.00 1.41347
591.10 1.430652
591.20 1.453242
591.30 1.48034
591.40 1.50954
591.50 1.537528
591.60 1.561402
591.70 1.57935
591.80 1.591042
591.90 1.597785
592.00 1.60198
592.10 1.605825
592.20 1.610835
592.30 1.617875
592.40 1.626948
592.50 1.637651
592.60 1.649378
592.70 1.661233
592.80 1.672681
592.90 1.683512
593.00 1.693336
593.10 1.702039
593.20 1.709846
593.30 1.717038
593.40 1.724216
593.50 1.732606
593.60 1.743706
593.70 1.758568
593.80 1.777645
593.90 1.80048
594.00 1.825773
594.10 1.852175
594.20 1.87869
594.30 1.904849
594.40 1.930846
594.50 1.957021
594.60 1.983201
594.70 2.008548
594.80 2.031914
594.90 2.052202
595.00 2.068424
595.10 2.080034
595.20 2.087131
595.30 2.090339
595.40 2.090989
595.50 2.090995
595.60 2.092051
595.70 2.095218
595.80 2.10064
595.90 2.10756
596.00 2.115163
596.10 2.12298
596.20 2.130356
596.30 2.136356
596.40 2.140474
596.50 2.1427
596.60 2.143555
596.70 2.144204
596.80 2.145573
596.90 2.14786
597.00 2.150744
597.10 2.153509
597.20 2.155535
597.30 2.156545
597.40 2.156365
597.50 2.154963
597.60 2.152714
597.70 2.150377
597.80 2.148578
597.90 2.147792
598.00 2.148026
598.10 2.148456
598.20 2.148
598.30 2.146009
598.40 2.142416
598.50 2.137617
598.60 2.132524
598.70 2.128591
598.80 2.127295
598.90 2.129579
599.00 2.135885
599.10 2.145959
599.20 2.158685
599.30 2.172461
599.40 2.185731
599.50 2.19737
599.60 2.206766
599.70 2.213696
599.80 2.218378
599.90 2.221482
600.00 2.280993
600.10 2.260762
600.20 2.222541
600.30 2.181136
600.40 2.148213
600.50 2.125941
600.60 2.116314
600.70 2.129485
600.80 2.175046
600.90 2.249986
601.00 2.34559
601.10 2.448175
601.20 2.53618
601.30 2.594486
601.40 2.613088
601.50 2.585799
601.60 2.514416
601.70 2.410936
601.80 2.29732
601.90 2.197585
602.00 2.133612
602.10 2.116463
602.20 2.140412
602.30 2.189488
602.40 2.246445
602.50 2.302886
602.60 2.362288
602.70 2.421896
602.80 2.476174
602.90 2.524313
603.00 2.559983
603.10 2.568699
603.20 2.541645
603.30 2.491222
603.40 2.440853
603.50 2.407133
603.60 2.399839
603.70 2.426533
603.80 2.488276
603.90 2.574096
604.00 2.66353
604.10 2.734557
604.20 2.772656
604.30 2.772084
604.40 2.742047
604.50 2.703393
604.60 2.682742
604.70 2.690001
604.80 2.703189
604.90 2.697214
605.00 2.668861
605.10 2.622499
605.20 2.556125
605.30 2.483919
605.40 2.433089
605.50 2.421927
605.60 2.446983
605.70 2.495285
605.80 2.554556
605.90 2.606523
606.00 2.627845
606.10 2.606432
606.20 2.556653
606.30 2.504328
606.40 2.467625
606.50 2.461722
606.60 2.500829
606.70 2.580858
606.80 2.68303
606.90 2.788479
607.00 2.885716
607.10 2.964916
607.20 3.014311
607.30 3.032679
607.40 3.027748
607.50 3.00728
607.60 2.977
607.70 2.944894
607.80 2.915742
607.90 2.884778
608.00 2.846709
608.10 2.805067
608.20 2.765426
608.30 2.728214
608.40 2.692698
608.50 2.658026
608.60 2.629244
608.70 2.614842
608.80 2.617146
608.90 2.633817
609.00 2.661017
609.10 2.69649
609.20 2.73783
609.30 2.781369
609.40 2.821383
609.50 2.846088
609.60 2.849653
609.70 2.840547
609.80 2.827176
609.90 2.818907
610.00 2.824099
610.10 2.839944
610.20 2.85963
610.30 2.881289
610.40 2.907108
610.50 2.934977
610.60 2.958904
610.70 2.974177
610.80 2.982667
610.90 2.98851
611.00 2.99002
611.10 2.983719
611.20 2.96921
611.30 2.949161
611.40 2.922968
611.50 2.890352
611.60 2.857738
611.70 2.829343
611.80 2.801293
611.90 2.769999
612.00 2.738976
612.10 2.712234
612.20 2.685101
612.30 2.650977
612.40 2.610645
612.50 2.56478
612.60 2.514763
612.70 2.464105
612.80 2.418308
612.90 2.383292
613.00 2.362261
613.10 2.357732
613.20 2.370497
613.30 2.400557
613.40 2.439796
613.50 2.474456
613.60 2.494463
613.70 2.487125
613.80 2.441921
613.90 2.362287
614.00 2.26872
614.10 2.185587
614.20 2.130247
614.30 2.115401
614.40 2.142987
614.50 2.202487
614.60 2.27578
614.70 2.334766
614.80 2.358747
614.90 2.34373
615.00 2.301092
615.10 2.261261
615.20 2.253074
615.30 2.283193
615.40 2.337277
615.50 2.397599
615.60 2.452386
615.70 2.488193
615.80 2.49545
615.90 2.474129
616.00 2.434201
616.10 2.393796
616.20 2.366407
616.30 2.358239
616.40 2.363312
616.50 2.362201
616.60 2.332003
616.70 2.266322
616.80 2.180573
616.90 2.097439
617.00 2.037105
617.10 2.019648
617.20 2.052647
617.30 2.126167
617.40 2.217569
617.50 2.294623
617.60 2.331958
617.70 2.314853
617.80 2.24257
617.90 2.130112
618.00 2.004333
618.10 1.892792
618.20 1.810964
618.30 1.763355
618.40 1.749753
618.50 1.760893
618.60 1.784626
618.70 1.809894
618.80 1.827205
618.90 1.836259
619.00 1.838366
619.10 1.832697
619.20 1.81645
619.30 1.78999
619.40 1.756724
619.50 1.721989
619.60 1.696277
619.70 1.689542
619.80 1.703809
619.90 1.736243
620.00 1.780932
620.10 1.830718
620.20 1.879861
620.30 1.915976
620.40 1.923333
620.50 1.894067
620.60 1.83469
620.70 1.761438
620.80 1.693526
620.90 1.649484
621.00 1.638458
621.10 1.654525
621.20 1.686081
621.30 1.723358
621.40 1.754002
621.50 1.764671
621.60 1.747606
621.70 1.709871
621.80 1.670487
621.90 1.649624
622.00 1.659879
622.10 1.698044
622.20 1.757423
622.30 1.834039
622.40 1.917306
622.50 1.994827
622.60 2.055382
622.70 2.085832
622.80 2.081597
622.90 2.051735
623.00 2.013836
623.10 1.977736
623.20 1.946788
623.30 1.924991
623.40 1.913177
623.50 1.912782
623.60 1.917332
623.70 1.913296
623.80 1.891541
623.90 1.85421
624.00 1.807929
624.10 1.758378
624.20 1.714837
624.30 1.686934
624.40 1.672173
624.50 1.669103
624.60 1.682065
624.70 1.709665
624.80 1.74727
624.90 1.790295
625.00 1.844116
625.10 1.914782
625.20 1.99776
625.30 2.078406
625.40 2.140751
625.50 2.175788
625.60 2.180135
625.70 2.154845
625.80 2.10919
625.90 2.052779
626.00 1.994507
626.10 1.950169
626.20 1.936814
626.30 1.965907
626.40 2.032243
626.50 2.116437
626.60 2.20537
626.70 2.289702
626.80 2.356237
626.90 2.39569
627.00 2.402311
627.10 2.374378
627.20 2.316865
627.30 2.244406
627.40 2.176435
627.50 2.1299
627.60 2.116062
627.70 2.138337
627.80 2.19287
627.90 2.269876
628.00 2.355146
628.10 2.441663
628.20 2.531423
628.30 2.614337
628.40 2.675506
628.50 2.708351
628.60 2.706455
628.70 2.670879
628.80 2.61648
628.90 2.556659
629.00 2.499666
629.10 2.456596
629.20 2.438177
629.30 2.459703
629.40 2.543841
629.50 2.699564
629.60 2.912831
629.70 3.167879
629.80 3.447221
629.90 3.719025
630.00 3.948921
630.10 4.103372
630.20 4.149615
630.30 4.080978
630.40 3.925702
630.50 3.725987
630.60 3.529081
630.70 3.371009
630.80 3.259743
630.90 3.186506
631.00 3.141088
631.10 3.116758
631.20 3.107138
631.30 3.105832
631.40 3.110843
631.50 3.130128
631.60 3.176528
631.70 3.250058
631.80 3.334216
631.90 3.410971
632.00 3.469031
632.10 3.506386
632.20 3.526953
632.30 3.539857
632.40 3.563655
632.50 3.605053
632.60 3.653627
632.70 3.701191
632.80 3.744
632.90 3.77415
633.00 3.781561
633.10 3.764651
633.20 3.732731
633.30 3.697502
633.40 3.663862
633.50 3.636002
633.60 3.622627
633.70 3.624929
633.80 3.632869
633.90 3.642162
634.00 3.657285
634.10 3.681524
634.20 3.716828
634.30 3.761354
634.40 3.810428
634.50 3.85948
634.60 3.902724
634.70 3.936541
634.80 3.961517
634.90 3.980086
635.00 3.992584
635.10 3.998509
635.20 3.99795
635.30 3.990737
635.40 3.9783
635.50 3.960398
635.60 3.931518
635.70 3.890567
635.80 3.842641
635.90 3.78505
636.00 3.716108
636.10 3.641112
636.20 3.575229
636.30 3.534067
636.40 3.525297
636.50 3.560607
636.60 3.64304
636.70 3.762421
636.80 3.901131
636.90 4.041199
637.00 4.16978
637.10 4.271355
637.20 4.331349
637.30 4.354201
637.40 4.35278
637.50 4.337488
637.60 4.310711
637.70 4.268079
637.80 4.213923
637.90 4.153438
638.00 4.09229
638.10 4.039269
638.20 4.003873
638.30 3.988377
638.40 3.988595
638.50 4.000618
638.60 4.019857
638.70 4.042732
638.80 4.066848
638.90 4.089636
639.00 4.109769
639.10 4.129319
639.20 4.146543
639.30 4.160942
639.40 4.175446
639.50 4.191845
639.60 4.210526
639.70 4.22885
639.80 4.244679
639.90 4.263025
640.00 4.288958
640.10 4.317427
640.20 4.337672
640.30 4.3381
640.40 4.313566
640.50 4.268561
640.60 4.211143
640.70 4.14856
640.80 4.090269
640.90 4.043369
641.00 4.009615
641.10 3.993738
641.20 3.993213
641.30 3.997737
641.40 4.005566
641.50 4.01991
641.60 4.038935
641.70 4.060404
641.80 4.079792
641.90 4.087577
642.00 4.075992
642.10 4.042981
642.20 3.996521
642.30 3.951613
642.40 3.919277
642.50 3.90175
642.60 3.902792
642.70 3.919228
642.80 3.938199
642.90 3.945892
643.00 3.933273
643.10 3.900173
643.20 3.855175
643.30 3.811441
643.40 3.784221
643.50 3.783576
643.60 3.804325
643.70 3.835791
643.80 3.870209
643.90 3.900571
644.00 3.920313
644.10 3.932196
644.20 3.944829
644.30 3.964029
644.40 3.993177
644.50 4.028834
644.60 4.064424
644.70 4.097101
644.80 4.122202
644.90 4.135527
645.00 4.13824
645.10 4.133336
645.20 4.125536
645.30 4.117686
645.40 4.11134
645.50 4.109136
645.60 4.108261
645.70 4.105085
645.80 4.100197
645.90 4.100818
646.00 4.112532
646.10 4.133133
646.20 4.158644
646.30 4.183005
646.40 4.198597
646.50 4.202191
646.60 4.195668
646.70 4.184105
646.80 4.172819
646.90 4.167238
647.00 4.172925
647.10 4.19422
647.20 4.234883
647.30 4.289762
647.40 4.351447
647.50 4.414305
647.60 4.473587
647.70 4.528704
647.80 4.57972
647.90 4.624056
648.00 4.656268
648.10 4.673815
648.20 4.67643
648.30 4.661318
648.40 4.627272
648.50 4.579919
648.60 4.527517
648.70 4.477885
648.80 4.435317
648.90 4.404055
649.00 4.391348
649.10 4.402036
649.20 4.436778
649.30 4.491184
649.40 4.560723
649.50 4.643704
649.60 4.735905
649.70 4.828567
649.80 4.910755
649.90 4.970814
650.00 5.002913
650.10 5.009356
650.20 4.999756
650.30 4.990476
650.40 4.994223
650.50 5.014857
650.60 5.055731
650.70 5.117392
650.80 5.192687
650.90 5.273427
651.00 5.355462
651.10 5.439062
651.20 5.527508
651.30 5.621603
651.40 5.718375
651.50 5.819674
651.60 5.927972
651.70 6.037678
651.80 6.139772
651.90 6.228307
652.00 6.297404
652.10 6.344884
652.20 6.382065
652.30 6.425517
652.40 6.488411
652.50 6.582594
652.60 6.715825
652.70 6.891023
652.80 7.098643
652.90 7.307688
653.00 7.480745
653.10 7.592369
653.20 7.634414
653.30 7.618453
653.40 7.56946
653.50 7.514336
653.60 7.474527
653.70 7.464322
653.80 7.491031
653.90 7.54987
654.00 7.621653
654.10 7.681628
654.20 7.720348
654.30 7.744094
654.40 7.756734
654.50 7.754569
654.60 7.732444
654.70 7.686799
654.80 7.619188
654.90 7.533132
655.00 7.427645
655.10 7.319694
655.20 7.239432
655.30 7.207017
655.40 7.238044
655.50 7.337442
655.60 7.49717
655.70 7.719504
655.80 8.020297
655.90 8.403592
656.00 8.853716
656.10 9.324741
656.20 9.740599
656.30 10.03494
656.40 10.16348
656.50 10.08898
656.60 9.803692
656.70 9.349054
656.80 8.797327
656.90 8.234789
657.00 7.740902
657.10 7.366186
657.20 7.121914
657.30 6.987365
657.40 6.914119
657.50 6.85061
657.60 6.767911
657.70 6.649354
657.80 6.495237
657.90 6.326114
658.00 6.167668
658.10 6.039438
658.20 5.956941
658.30 5.933306
658.40 5.973877
658.50 6.066463
658.60 6.183302
658.70 6.294701
658.80 6.382622
658.90 6.442014
659.00 6.472026
659.10 6.476617
659.20 6.467877
659.30 6.458053
659.40 6.456261
659.50 6.471779
659.60 6.508138
659.70 6.565447
659.80 6.637239
659.90 6.710528
660.00 6.77865
660.10 6.844183
660.20 6.905298
660.30 6.953024
660.40 6.986123
660.50 7.008167
660.60 7.016867
660.70 7.011835
660.80 6.998188
660.90 6.980027
661.00 6.963799
661.10 6.954436
661.20 6.949211
661.30 6.939385
661.40 6.913786
661.50 6.863849
661.60 6.794868
661.70 6.721995
661.80 6.65405
661.90 6.596297
662.00 6.554637
662.10 6.527032
662.20 6.506544
662.30 6.489946
662.40 6.470676
662.50 6.441923
662.60 6.409201
662.70 6.389464
662.80 6.398922
662.90 6.439642
663.00 6.498912
663.10 6.559849
663.20 6.60951
663.30 6.640931
663.40 6.652581
663.50 6.644173
663.60 6.61366
663.70 6.56165
663.80 6.498114
663.90 6.437761
664.00 6.392074
664.10 6.365091
664.20 6.3575
664.30 6.371976
664.40 6.406188
664.50 6.452114
664.60 6.495941
664.70 6.514963
664.80 6.487128
664.90 6.412086
665.00 6.311381
665.10 6.21111
665.20 6.13414
665.30 6.094262
665.40 6.09356
665.50 6.124957
665.60 6.169866
665.70 6.205245
665.80 6.216658
665.90 6.199557
666.00 6.155877
666.10 6.09915
666.20 6.050695
666.30 6.024414
666.40 6.023892
666.50 6.04643
666.60 6.085604
666.70 6.134663
666.80 6.18483
666.90 6.228556
667.00 6.265383
667.10 6.300921
667.20 6.344546
667.30 6.400504
667.40 6.4692
667.50 6.546903
667.60 6.619986
667.70 6.668133
667.80 6.676818
667.90 6.64512
668.00 6.581213
668.10 6.496936
668.20 6.403509
668.30 6.312538
668.40 6.23426
668.50 6.174368
668.60 6.135348
668.70 6.119053
668.80 6.123119
668.90 6.136793
669.00 6.147028
669.10 6.14658
669.20 6.135122
669.30 6.117317
669.40 6.097712
669.50 6.077925
669.60 6.060088
669.70 6.050427
669.80 6.059213
669.90 6.095083
670.00 6.154478
670.10 6.223026
670.20 6.291445
670.30 6.355451
670.40 6.409798
670.50 6.456735
670.60 6.500324
670.70 6.538828
670.80 6.576314
670.90 6.625727
671.00 6.69896
671.10 6.78943
671.20 6.871291
671.30 6.916632
671.40 6.909142
671.50 6.845391
671.60 6.724539
671.70 6.557835
671.80 6.375886
671.90 6.206938
672.00 6.073707
672.10 5.997118
672.20 5.98108
672.30 6.00906
672.40 6.057723
672.50 6.110279
672.60 6.163151
672.70 6.216168
672.80 6.26498
672.90 6.306266
673.00 6.339664
673.10 6.367016
673.20 6.391695
673.30 6.419454
673.40 6.450752
673.50 6.479962
673.60 6.504131
673.70 6.524259
673.80 6.542959
673.90 6.567843
674.00 6.607517
674.10 6.665471
674.20 6.73504
674.30 6.800796
674.40 6.853224
674.50 6.888178
674.60 6.90088
674.70 6.892389
674.80 6.870835
674.90 6.845608
675.00 6.820874
675.10 6.801326
675.20 6.79391
675.30 6.797058
675.40 6.803605
675.50 6.808691
675.60 6.816336
675.70 6.836097
675.80 6.870207
675.90 6.914121
676.00 6.96459
676.10 7.021281
676.20 7.081653
676.30 7.136984
676.40 7.185901
676.50 7.232232
676.60 7.277429
676.70 7.322974
676.80 7.36729
676.90 7.404665
677.00 7.431497
677.10 7.451406
677.20 7.473762
677.30 7.503018
677.40 7.532788
677.50 7.55186
677.60 7.550469
677.70 7.52593
677.80 7.478269
677.90 7.406397
678.00 7.307968
678.10 7.184968
678.20 7.046669
678.30 6.909376
678.40 6.787268
678.50 6.68633
678.60 6.6019
678.70 6.530487
678.80 6.4807
678.90 6.458495
679.00 6.468604
679.10 6.513943
679.20 6.588939
679.30 6.685559
679.40 6.799719
679.50 6.925661
679.60 7.048052
679.70 7.145216
679.80 7.201789
679.90 7.214041
680.00 7.195352
680.10 7.16484
680.20 7.132097
680.30 7.106224
680.40 7.095015
680.50 7.100759
680.60 7.123283
680.70 7.15915
680.80 7.195963
680.90 7.217564
681.00 7.216817
681.10 7.198889
681.20 7.173011
681.30 7.146039
681.40 7.120417
681.50 7.095018
681.60 7.069421
681.70 7.041825
681.80 7.013654
681.90 6.994759
682.00 6.995674
682.10 7.027778
682.20 7.107701
682.30 7.248081
682.40 7.444677
682.50 7.668049
682.60 7.874728
682.70 8.027343
682.80 8.099735
682.90 8.084382
683.00 7.992598
683.10 7.849654
683.20 7.685131
683.30 7.527905
683.40 7.40697
683.50 7.339581
683.60 7.323079
683.70 7.338614
683.80 7.365587
683.90 7.397422
684.00 7.43658
684.10 7.477396
684.20 7.511648
684.30 7.535662
684.40 7.547474
684.50 7.543848
684.60 7.517018
684.70 7.459814
684.80 7.368665
684.90 7.24862
685.00 7.121267
685.10 7.018269
685.20 6.961598
685.30 6.950243
685.40 6.96946
685.50 7.009755
685.60 7.062344
685.70 7.118837
685.80 7.182444
685.90 7.261439
686.00 7.357937
686.10 7.465762
686.20 7.576217
686.30 7.677101
686.40 7.74808
686.50 7.77211
686.60 7.74508
686.70 7.679713
686.80 7.603132
686.90 7.538934
687.00 7.502584
687.10 7.496989
687.20 7.508811
687.30 7.51739
687.40 7.512732
687.50 7.493216
687.60 7.45692
687.70 7.4115
687.80 7.373146
687.90 7.352869
688.00 7.358736
688.10 7.397168
688.20 7.457174
688.30 7.522651
688.40 7.585091
688.50 7.634107
688.60 7.661614
688.70 7.674124
688.80 7.681793
688.90 7.689514
689.00 7.697535
689.10 7.699276
689.20 7.690623
689.30 7.672508
689.40 7.645328
689.50 7.611468
689.60 7.58072
689.70 7.559224
689.80 7.546476
689.90 7.544107
690.00 7.548633
690.10 7.548362
690.20 7.535236
690.30 7.511292
690.40 7.491631
690.50 7.497008
690.60 7.536221
690.70 7.61566
690.80 7.739849
690.90 7.890534
691.00 8.043275
691.10 8.187414
691.20 8.30957
691.30 8.391221
691.40 8.422434
691.50 8.394338
691.60 8.302771
691.70 8.166467
691.80 8.021387
691.90 7.903168
692.00 7.844723
692.10 7.869087
692.20 7.981476
692.30 8.178437
692.40 8.436676
692.50 8.705194
692.60 8.936021
692.70 9.103508
692.80 9.200085
692.90 9.23915
693.00 9.248843
693.10 9.255545
693.20 9.27435
693.30 9.308668
693.40 9.354873
693.50 9.403025
693.60 9.440541
693.70 9.457521
693.80 9.458906
693.90 9.467845
694.00 9.508447
694.10 9.597307
694.20 9.748171
694.30 9.968749
694.40 10.25494
694.50 10.58565
694.60 10.92535
694.70 11.24023
694.80 11.50282
694.90 11.68845
695.00 11.77995
695.10 11.77196
695.20 11.67089
695.30 11.49587
695.40 11.2753
695.50 11.04532
695.60 10.83974
695.70 10.68296
695.80 10.58774
695.90 10.55423
696.00 10.57741
696.10 10.64532
696.20 10.73921
696.30 10.84647
696.40 10.96348
696.50 11.08759
696.60 11.21072
696.70 11.31707
696.80 11.38885
696.90 11.41182
697.00 11.38262
697.10 11.30985
697.20 11.21271
697.30 11.12128
697.40 11.06417
697.50 11.06111
697.60 11.12105
697.70 11.23408
697.80 11.37547
697.90 11.51983
698.00 11.64582
698.10 11.74322
698.20 11.81955
698.30 11.88916
698.40 11.95802
698.50 12.02732
698.60 12.09754
698.70 12.16047
698.80 12.20564
698.90 12.22836
699.00 12.22904
699.10 12.21006
699.20 12.16756
699.30 12.09941
699.40 12.01697
699.50 11.93748
699.60 11.87212
699.70 11.82786
699.80 11.81588
699.90 11.84552
700.00 11.91961
700.10 12.03428
700.20 12.1773
700.30 12.33092
700.40 12.47793
700.50 12.60798
700.60 12.72594
700.70 12.83996
700.80 12.94312
700.90 13.02311
701.00 13.0779
701.10 13.11272
701.20 13.13695
701.30 13.15716
701.40 13.17332
701.50 13.19534
701.60 13.24138
701.70 13.31992
701.80 13.42472
701.90 13.54318
702.00 13.65868
702.10 13.75591
702.20 13.83189
702.30 13.89531
702.40 13.95918
702.50 14.04066
702.60 14.15553
702.70 14.31483
702.80 14.51958
702.90 14.75247
703.00 14.9873
703.10 15.20839
703.20 15.41386
703.30 15.60373
703.40 15.77788
703.50 15.93769
703.60 16.0902
703.70 16.23889
703.80 16.37942
703.90 16.5082
704.00 16.62208
704.10 16.7119
704.20 16.77482
704.30 16.82192
704.40 16.86447
704.50 16.90786
704.60 16.9594
704.70 17.02033
704.80 17.08033
704.90 17.11921
705.00 17.08824
705.10 16.92259
705.20 16.56637
705.30 15.98551
705.40 15.18583
705.50 14.22202
705.60 13.17932
705.70 12.1513
705.80 11.23028
705.90 10.48479
706.00 9.938539
706.10 9.581931
706.20 9.374588
706.30 9.257911
706.40 9.189833
706.50 9.153018
706.60 9.146283
706.70 9.174262
706.80 9.240673
706.90 9.348353
707.00 9.49807
707.10 9.679257
707.20 9.866913
707.30 10.03346
707.40 10.15933
707.50 10.23859
707.60 10.28369
707.70 10.31309
707.80 10.34604
707.90 10.40076
708.00 10.49071
708.10 10.61971
708.20 10.77181
708.30 10.91176
708.40 10.99776
708.50 10.99578
708.60 10.89258
708.70 10.69532
708.80 10.42411
708.90 10.1096
709.00 9.788596
709.10 9.497906
709.20 9.262001
709.30 9.091138
709.40 8.979167
709.50 8.910343
709.60 8.869971
709.70 8.848263
709.80 8.838824
709.90 8.840654
710.00 8.855943
710.10 8.884823
710.20 8.928617
710.30 8.987709
710.40 9.064679
710.50 9.166592
710.60 9.296808
710.70 9.449598
710.80 9.61976
710.90 9.795657
711.00 9.954582
711.10 10.07746
711.20 10.15506
711.30 10.18481
711.40 10.17181
711.50 10.13221
711.60 10.08531
711.70 10.04914
711.80 10.03868
711.90 10.0594
712.00 10.10699
712.10 10.16317
712.20 10.1975
712.30 10.1875
712.40 10.12451
712.50 10.00615
712.60 9.836297
712.70 9.633181
712.80 9.421131
712.90 9.229396
713.00 9.085284
713.10 8.997214
713.20 8.957712
713.30 8.950529
713.40 8.958528
713.50 8.967384
713.60 8.966491
713.70 8.951398
713.80 8.927137
713.90 8.905544
714.00 8.898993
714.10 8.913881
714.20 8.951853
714.30 9.004592
714.40 9.065553
714.50 9.132732
714.60 9.197118
714.70 9.249203
714.80 9.281378
714.90 9.293622
715.00 9.296217
715.10 9.298276
715.20 9.30432
715.30 9.321465
715.40 9.356836
715.50 9.409419
715.60 9.47541
715.70 9.552533
715.80 9.625121
715.90 9.678096
716.00 9.709566
716.10 9.727268
716.20 9.74067
716.30 9.753605
716.40 9.767127
716.50 9.780142
716.60 9.790242
716.70 9.796242
716.80 9.797564
716.90 9.795664
717.00 9.800383
717.10 9.824517
717.20 9.883925
717.30 9.985587
717.40 10.11721
717.50 10.25777
717.60 10.39063
717.70 10.50431
717.80 10.59465
717.90 10.66874
718.00 10.73825
718.10 10.81329
718.20 10.90234
718.30 11.01139
718.40 11.1364
718.50 11.26795
718.60 11.39311
718.70 11.49939
718.80 11.58203
718.90 11.63301
719.00 11.65038
719.10 11.64522
719.20 11.62463
719.30 11.58993
719.40 11.54058
719.50 11.4782
719.60 11.40733
719.70 11.33225
719.80 11.25329
719.90 11.16743
720.00 11.07949
720.10 10.99957
720.20 10.93645
720.30 10.90183
720.40 10.89587
720.50 10.90892
720.60 10.93153
720.70 10.95581
720.80 10.98898
720.90 11.04222
721.00 11.11711
721.10 11.20814
721.20 11.30644
721.30 11.40418
721.40 11.49052
721.50 11.55359
721.60 11.58945
721.70 11.60507
721.80 11.62137
721.90 11.66396
722.00 11.7508
722.10 11.89033
722.20 12.07364
722.30 12.27817
722.40 12.48159
722.50 12.66508
722.60 12.81589
722.70 12.92855
722.80 13.00087
722.90 13.04128
723.00 13.0735
723.10 13.12221
723.20 13.1964
723.30 13.29432
723.40 13.42649
723.50 13.60635
723.60 13.82324
723.70 14.04016
723.80 14.22188
723.90 14.35601
724.00 14.44837
724.10 14.5095
724.20 14.5552
724.30 14.61845
724.40 14.72944
724.50 14.89483
724.60 15.11109
724.70 15.37428
724.80 15.65693
724.90 15.90982
725.00 16.09835
725.10 16.21548
725.20 16.26994
725.30 16.27374
725.40 16.23835
725.50 16.183
725.60 16.13869
725.70 16.12794
725.80 16.15962
725.90 16.24279
726.00 16.38036
726.10 16.5577
726.20 16.7543
726.30 16.95334
726.40 17.13454
726.50 17.27909
726.60 17.37434
726.70 17.41426
726.80 17.40782
726.90 17.38353
727.00 17.37982
727.10 17.41615
727.20 17.49417
727.30 17.60343
727.40 17.72013
727.50 17.82281
727.60 17.89733
727.70 17.93824
727.80 17.95653
727.90 17.97544
728.00 18.00641
728.10 18.05423
728.20 18.13279
728.30 18.24429
728.40 18.367
728.50 18.48057
728.60 18.5779
728.70 18.66561
728.80 18.76011
728.90 18.87347
729.00 19.01454
729.10 19.18943
729.20 19.39499
729.30 19.62355
729.40 19.87874
729.50 20.16316
729.60 20.45936
729.70 20.75192
729.80 21.03764
729.90 21.31816
730.00 21.59605
730.10 21.87649
730.20 22.16696
730.30 22.46661
730.40 22.76177
730.50 23.03618
730.60 23.28214
730.70 23.49519
730.80 23.6786
730.90 23.8511
731.00 24.04221
731.10 24.2714
731.20 24.5342
731.30 24.81703
731.40 25.12255
731.50 25.45026
731.60 25.78233
731.70 26.10372
731.80 26.40185
731.90 26.66502
732.00 26.88375
732.10 27.05529
732.20 27.17339
732.30 27.23395
732.40 27.24325
732.50 27.20048
732.60 27.11393
732.70 27.01285
732.80 26.91462
732.90 26.82788
733.00 26.77161
733.10 26.76763
733.20 26.84045
733.30 27.01072
733.40 27.28873
733.50 27.68004
733.60 28.18247
733.70 28.75888
733.80 29.34016
733.90 29.86421
734.00 30.28062
734.10 30.53395
734.20 30.57704
734.30 30.40033
734.40 30.03856
734.50 29.56388
734.60 29.06877
734.70 28.63882
734.80 28.33277
734.90 28.1637
735.00 28.10102
735.10 28.09496
735.20 28.09681
735.30 28.0795
735.40 28.0361
735.50 27.97915
735.60 27.9398
735.70 27.95537
735.80 28.05452
735.90 28.24658
736.00 28.52385
736.10 28.87021
736.20 29.26639
736.30 29.69261
736.40 30.13099
736.50 30.56907
736.60 30.99397
736.70 31.38883
736.80 31.74342
736.90 32.03836
737.00 32.23503
737.10 32.28683
737.20 32.164
737.30 31.87147
737.40 31.44795
737.50 30.95178
737.60 30.44944
737.70 30.00817
737.80 29.68267
737.90 29.50699
738.00 29.49024
738.10 29.60753
738.20 29.80687
738.30 30.04252
738.40 30.29224
738.50 30.55169
738.60 30.82141
738.70 31.09593
738.80 31.34707
738.90 31.52763
739.00 31.59208
739.10 31.50406
739.20 31.25224
739.30 30.86338
739.40 30.39394
739.50 29.92569
739.60 29.54743
739.70 29.32321
739.80 29.29213
739.90 29.45362
740.00 29.74862
740.10 30.07163
740.20 30.30737
740.30 30.37351
740.40 30.23854
740.50 29.93183
740.60 29.53732
740.70 29.15536
740.80 28.8751
740.90 28.75241
741.00 28.79794
741.10 28.98885
741.20 29.26254
741.30 29.5251
741.40 29.68583
741.50 29.68097
741.60 29.49527
741.70 29.16106
741.80 28.73983
741.90 28.30298
742.00 27.91954
742.10 27.65415
742.20 27.5451
742.30 27.59366
742.40 27.77437
742.50 28.03883
742.60 28.32432
742.70 28.58079
742.80 28.78551
742.90 28.93387
743.00 29.01901
743.10 29.01946
743.20 28.92138
743.30 28.73858
743.40 28.4983
743.50 28.22792
743.60 27.97214
743.70 27.77682
743.80 27.66293
743.90 27.62403
744.00 27.63073
744.10 27.63882
744.20 27.59435
744.30 27.45741
744.40 27.22871
744.50 26.95465
744.60 26.70017
744.70 26.52298
744.80 26.46491
744.90 26.54452
745.00 26.74064
745.10 27.00279
745.20 27.27033
745.30 27.49278
745.40 27.64211
745.50 27.70385
745.60 27.68131
745.70 27.60045
745.80 27.49971
745.90 27.42111
746.00 27.40229
746.10 27.4609
746.20 27.59383
746.30 27.78749
746.40 28.02298
746.50 28.27817
746.60 28.53047
746.70 28.75649
746.80 28.93738
746.90 29.06649
747.00 29.1427
747.10 29.15797
747.20 29.11303
747.30 29.02597
747.40 28.91186
747.50 28.78305
747.60 28.65309
747.70 28.53945
747.80 28.47059
747.90 28.4732
748.00 28.56269
748.10 28.73149
748.20 28.95162
748.30 29.19426
748.40 29.43587
748.50 29.66465
748.60 29.87581
748.70 30.0616
748.80 30.21445
748.90 30.32737
749.00 30.39724
749.10 30.41825
749.20 30.37976
749.30 30.28078
749.40 30.14676
749.50 30.0367
749.60 30.01052
749.70 30.0985
749.80 30.302
749.90 30.5901
750.00 30.89676
750.10 31.14658
750.20 31.28819
750.30 31.30904
750.40 31.23523
750.50 31.12427
750.60 31.04663
750.70 31.05708
750.80 31.17229
750.90 31.36329
751.00 31.57322
751.10 31.74896
751.20 31.85295
751.30 31.87139
751.40 31.82017
751.50 31.731
751.60 31.63827
751.70 31.57111
751.80 31.5497
751.90 31.59222
752.00 31.70218
752.10 31.86289
752.20 32.04168
752.30 32.19957
752.40 32.31026
752.50 32.35989
752.60 32.35479
752.70 32.32185
752.80 32.29312
752.90 32.29205
753.00 32.32738
753.10 32.40317
753.20 32.51666
753.30 32.64586
753.40 32.7763
753.50 32.92353
753.60 33.11402
753.70 33.37073
753.80 33.70558
753.90 34.11341
754.00 34.57063
754.10 35.02926
754.20 35.42861
754.30 35.72047
754.40 35.88088
754.50 35.9114
754.60 35.83683
754.70 35.69984
754.80 35.54694
754.90 35.41139
755.00 35.31979
755.10 35.29344
755.20 35.34199
755.30 35.45785
755.40 35.61304
755.50 35.7829
755.60 35.95487
755.70 36.11539
755.80 36.25763
755.90 36.38069
756.00 36.48026
756.10 36.5488
756.20 36.57285
756.30 36.53855
756.40 36.44163
756.50 36.29652
756.60 36.13159
756.70 35.98334
756.80 35.89221
756.90 35.89703
757.00 36.01152
757.10 36.20533
757.20 36.42495
757.30 36.62199
757.40 36.75985
757.50 36.81985
757.60 36.81212
757.70 36.77319
757.80 36.75819
757.90 36.8122
758.00 36.9504
758.10 37.15632
758.20 37.37404
758.30 37.49963
758.40 37.40362
758.50 36.97575
758.60 36.13729
758.70 34.85335
758.80 33.16692
758.90 31.20041
759.00 29.13303
759.10 27.17209
759.20 25.50271
759.30 24.2401
759.40 23.40561
759.50 22.97275
759.60 22.88779
759.70 23.02457
759.80 23.24012
759.90 23.47852
760.00 23.72791
760.10 23.95746
760.20 24.1404
760.30 24.26041
760.40 24.30024
760.50 24.25652
760.60 24.15442
760.70 24.0432
760.80 23.98775
760.90 24.02115
761.00 24.14393
761.10 24.38085
761.20 24.75311
761.30 25.21297
761.40 25.69924
761.50 26.18911
761.60 26.65711
761.70 27.06874
761.80 27.39515
761.90 27.60077
762.00 27.64148
762.10 27.4869
762.20 27.1422
762.30 26.63873
762.40 26.00569
762.50 25.25847
762.60 24.41054
762.70 23.49078
762.80 22.54316
762.90 21.62454
763.00 20.7923
763.10 20.08825
763.20 19.53274
763.30 19.12182
763.40 18.83475
763.50 18.64412
763.60 18.51355
763.70 18.40334
763.80 18.28529
763.90 18.15219
764.00 18.01112
764.10 17.87246
764.20 17.74226
764.30 17.61252
764.40 17.4793
764.50 17.34927
764.60 17.22047
764.70 17.07801
764.80 16.9029
764.90 16.67632
765.00 16.37385
765.10 15.97817
765.20 15.49268
765.30 14.94934
765.40 14.39955
765.50 13.87752
765.60 13.39154
765.70 12.94334
765.80 12.51744
765.90 12.0682
766.00 11.54772
766.10 10.93371
766.20 10.22706
766.30 9.455744
766.40 8.685242
766.50 7.997864
766.60 7.4738
766.70 7.173666
766.80 7.126885
766.90 7.332296
767.00 7.760468
767.10 8.348875
767.20 9.01816
767.30 9.700737
767.40 10.3446
767.50 10.91786
767.60 11.41049
767.70 11.82896
767.80 12.19204
767.90 12.52018
768.00 12.82526
768.10 13.11165
768.20 13.3783
768.30 13.61848
768.40 13.81689
768.50 13.95038
768.60 14.00082
768.70 13.96645
768.80 13.85675
768.90 13.68371
769.00 13.45526
769.10 13.1695
769.20 12.8175
769.30 12.38657
769.40 11.86467
769.50 11.24604
769.60 10.54025
769.70 9.792127
769.80 9.081238
769.90 8.503414
770.00 8.14471
770.10 8.060114
770.20 8.260692
770.30 8.714335
770.40 9.361592
770.50 10.12814
770.60 10.94492
770.70 11.75977
770.80 12.52348
770.90 13.21225
771.00 13.85132
771.10 14.47051
771.20 15.06439
771.30 15.60076
771.40 16.04055
771.50 16.36616
771.60 16.59493
771.70 16.75877
771.80 16.89331
771.90 17.02542
772.00 17.16673
772.10 17.33307
772.20 17.56241
772.30 17.87652
772.40 18.24839
772.50 18.63884
772.60 19.03179
772.70 19.42473
772.80 19.81477
772.90 20.19212
773.00 20.54399
773.10 20.8634
773.20 21.14963
773.30 21.41588
773.40 21.68048
773.50 21.94978
773.60 22.21597
773.70 22.46998
773.80 22.69762
773.90 22.87012
774.00 22.95226
774.10 22.92177
774.20 22.77523
774.30 22.52952
774.40 22.22805
774.50 21.92801
774.60 21.67798
774.70 21.49255
774.80 21.36402
774.90 21.29007
775.00 21.27491
775.10 21.30117
775.20 21.32588
775.30 21.31807
775.40 21.28101
775.50 21.24465
775.60 21.24152
775.70 21.27822
775.80 21.33164
775.90 21.3767
776.00 21.39986
776.10 21.41034
776.20 21.42217
776.30 21.42969
776.40 21.42297
776.50 21.41843
776.60 21.46611
776.70 21.61062
776.80 21.86033
776.90 22.19262
777.00 22.57446
777.10 22.97346
777.20 23.35577
777.30 23.6776
777.40 23.89995
777.50 24.01577
777.60 24.03389
777.70 23.97087
777.80 23.85526
777.90 23.70465
778.00 23.52305
778.10 23.30889
778.20 23.06316
778.30 22.78976
778.40 22.49955
778.50 22.21802
778.60 21.9794
778.70 21.82492
778.80 21.79631
778.90 21.90574
779.00 22.13159
779.10 22.43496
779.20 22.76028
779.30 23.05947
779.40 23.28763
779.50 23.38848
779.60 23.30573
779.70 23.01591
779.80 22.55512
779.90 22.01912
780.00 21.5423
780.10 21.25949
780.20 21.27649
780.30 21.65943
780.40 22.41289
780.50 23.4459
780.60 24.60476
780.70 25.72501
780.80 26.66606
780.90 27.35815
781.00 27.82018
781.10 28.12382
781.20 28.3591
781.30 28.59435
781.40 28.8601
781.50 29.15727
781.60 29.45355
781.70 29.67188
781.80 29.72872
781.90 29.60694
782.00 29.34552
782.10 28.99938
782.20 28.62579
782.30 28.27064
782.40 27.95251
782.50 27.65921
782.60 27.35855
782.70 27.02804
782.80 26.6591
782.90 26.25403
783.00 25.8323
783.10 25.45343
783.20 25.2152
783.30 25.17358
783.40 25.31252
783.50 25.58601
783.60 25.94569
783.70 26.33591
783.80 26.70175
783.90 27.02647
784.00 27.32162
784.10 27.60161
784.20 27.8861
784.30 28.18849
784.40 28.50657
784.50 28.81676
784.60 29.07432
784.70 29.25036
784.80 29.34377
784.90 29.34113
785.00 29.21723
785.10 28.99508
785.20 28.75518
785.30 28.57995
785.40 28.5306
785.50 28.63556
785.60 28.87876
785.70 29.20402
785.80 29.5355
785.90 29.80069
786.00 29.9399
786.10 29.91213
786.20 29.70559
786.30 29.35864
786.40 28.95867
786.50 28.59225
786.60 28.31214
786.70 28.13527
786.80 28.03302
786.90 27.95812
787.00 27.87553
787.10 27.77456
787.20 27.66708
787.30 27.58153
787.40 27.55724
787.50 27.63212
787.60 27.82931
787.70 28.15293
787.80 28.58348
787.90 29.07908
788.00 29.58804
788.10 30.05774
788.20 30.45669
788.30 30.77316
788.40 31.01704
788.50 31.22004
788.60 31.39643
788.70 31.54393
788.80 31.66519
788.90 31.76439
789.00 31.84778
789.10 31.91128
789.20 31.9346
789.30 31.88255
789.40 31.71058
789.50 31.38732
789.60 30.91404
789.70 30.33034
789.80 29.6941
789.90 29.0766
790.00 28.57517
790.10 28.2854
790.20 28.25192
790.30 28.44961
790.40 28.78708
790.50 29.14008
790.60 29.38251
790.70 29.426
790.80 29.25503
790.90 28.89574
791.00 28.41236
791.10 27.90742
791.20 27.49351
791.30 27.25535
791.40 27.22154
791.50 27.36032
791.60 27.58973
791.70 27.814
791.80 27.96342
791.90 28.01856
792.00 28.00633
792.10 27.96746
792.20 27.93385
792.30 27.94932
792.40 28.0488
792.50 28.23861
792.60 28.50102
792.70 28.80488
792.80 29.11607
792.90 29.40477
793.00 29.67969
793.10 29.97429
793.20 30.30565
793.30 30.65422
793.40 30.9747
793.50 31.20664
793.60 31.28548
793.70 31.17424
793.80 30.87586
793.90 30.4224
794.00 29.86753
794.10 29.27167
794.20 28.69318
794.30 28.16901
794.40 27.69069
794.50 27.22711
794.60 26.77017
794.70 26.35401
794.80 26.04129
794.90 25.91506
795.00 26.05096
795.10 26.47906
795.20 27.17437
795.30 28.05807
795.40 29.01202
795.50 29.90249
795.60 30.6066
795.70 31.05129
795.80 31.23475
795.90 31.21682
796.00 31.0771
796.10 30.88141
796.20 30.69471
796.30 30.5928
796.40 30.6439
796.50 30.87733
796.60 31.27652
796.70 31.79714
796.80 32.36997
796.90 32.9154
797.00 33.36243
797.10 33.65093
797.20 33.73147
797.30 33.57583
797.40 33.20873
797.50 32.70819
797.60 32.16261
797.70 31.645
797.80 31.2121
797.90 30.89822
798.00 30.70248
798.10 30.58514
798.20 30.48548
798.30 30.34153
798.40 30.11834
798.50 29.82554
798.60 29.52297
798.70 29.30554
798.80 29.24262
798.90 29.35179
799.00 29.61274
799.10 29.97082
799.20 30.35516
799.30 30.70623
799.40 30.98653
799.50 31.18575
799.60 31.32037
799.70 31.42649
799.80 31.54761
799.90 31.72093
800.00 31.95955
800.10 32.24483
800.20 32.55684
800.30 32.88841
800.40 33.23593
800.50 33.59815
800.60 33.96657
800.70 34.33192
800.80 34.70112
800.90 35.08976
801.00 35.5064
801.10 35.94596
801.20 36.39068
801.30 36.81431
801.40 37.19673
801.50 37.52968
801.60 37.80897
801.70 38.03005
801.80 38.20033
801.90 38.34015
802.00 38.47101
802.10 38.6141
802.20 38.78334
802.30 39.00655
802.40 39.33724
802.50 39.81428
802.60 40.43658
802.70 41.16248
802.80 41.91762
802.90 42.62296
803.00 43.21429
803.10 43.64935
803.20 43.90721
803.30 43.99079
803.40 43.93637
803.50 43.8058
803.60 43.67057
803.70 43.57911
803.80 43.54095
803.90 43.55656
804.00 43.62854
804.10 43.7612
804.20 43.95891
804.30 44.21425
804.40 44.504
804.50 44.81654
804.60 45.17427
804.70 45.60957
804.80 46.14421
804.90 46.7878
805.00 47.53476
805.10 48.35406
805.20 49.18581
805.30 49.96142
805.40 50.6262
805.50 51.15906
805.60 51.57346
805.70 51.90568
805.80 52.20841
805.90 52.51875
806.00 52.83488
806.10 53.13116
806.20 53.37773
806.30 53.55191
806.40 53.64244
806.50 53.66005
806.60 53.64577
806.70 53.65748
806.80 53.74796
806.90 53.94206
807.00 54.24006
807.10 54.62662
807.20 55.08156
807.30 55.58704
807.40 56.12496
807.50 56.68895
807.60 57.2826
807.70 57.90112
807.80 58.52626
807.90 59.13958
808.00 59.73239
808.10 60.30472
808.20 60.85172
808.30 61.36427
808.40 61.82352
808.50 62.20048
808.60 62.47984
808.70 62.67877
808.80 62.83931
808.90 62.99927
809.00 63.18018
809.10 63.39455
809.20 63.64804
809.30 63.9186
809.40 64.15759
809.50 64.31008
809.60 64.35019
809.70 64.29352
809.80 64.19425
809.90 64.13152
810.00 64.16286
810.10 64.30279
810.20 64.53015
810.30 64.82173
810.40 65.17735
810.50 65.59791
810.60 66.072
810.70 66.58693
810.80 67.13147
810.90 67.70222
811.00 68.29213
811.10 68.87461
811.20 69.40376
811.30 69.8301
811.40 70.14308
811.50 70.38693
811.60 70.63414
811.70 70.95164
811.80 71.36782
811.90 71.8746
812.00 72.44418
812.10 73.03905
812.20 73.63214
812.30 74.20294
812.40 74.73072
812.50 75.20863
812.60 75.65041
812.70 76.08751
812.80 76.53539
812.90 76.98327
813.00 77.41532
813.10 77.81886
813.20 78.19366
813.30 78.5624
813.40 78.96786
813.50 79.44466
813.60 79.98267
813.70 80.52142
813.80 80.97172
813.90 81.22905
814.00 81.21126
814.10 80.89469
814.20 80.31806
814.30 79.57135
814.40 78.77261
814.50 78.04142
814.60 77.46473
814.70 77.07983
814.80 76.88588
814.90 76.86321
815.00 76.98085
815.10 77.20623
815.20 77.51765
815.30 77.90805
815.40 78.37024
815.50 78.87636
815.60 79.38251
815.70 79.84369
815.80 80.23515
815.90 80.55276
816.00 80.82882
816.10 81.13303
816.20 81.52875
816.30 82.04673
816.40 82.68777
816.50 83.44628
816.60 84.3151
816.70 85.26207
816.80 86.21905
816.90 87.11021
817.00 87.87194
817.10 88.45821
817.20 88.83751
817.30 88.98123
817.40 88.84983
817.50 88.39276
817.60 87.54307
817.70 86.22035
817.80 84.34266
817.90 81.83652
818.00 78.70315
818.10 75.09595
818.20 71.35756
818.30 67.95336
818.40 65.34519
818.50 63.86971
818.60 63.65456
818.70 64.58198
818.80 66.27937
818.90 68.17042
819.00 69.60505
819.10 70.04147
819.20 69.20032
819.30 67.15943
819.40 64.3316
819.50 61.31508
819.60 58.70883
819.70 56.99482
819.80 56.47964
819.90 57.24901
820.00 59.14241
820.10 61.79044
820.20 64.72025
820.30 67.46775
820.40 69.69399
820.50 71.23515
820.60 72.10863
820.70 72.45907
820.80 72.47195
820.90 72.35431
821.00 72.30208
821.10 72.44563
821.20 72.8238
821.30 73.38712
821.40 74.03422
821.50 74.66552
821.60 75.2196
821.70 75.69466
821.80 76.13375
821.90 76.59722
822.00 77.1291
822.10 77.74616
822.20 78.44651
822.30 79.2107
822.40 80.00583
822.50 80.80484
822.60 81.59529
822.70 82.36105
822.80 83.07174
822.90 83.68123
823.00 84.15151
823.10 84.46172
823.20 84.61289
823.30 84.64052
823.40 84.612
823.50 84.60904
823.60 84.70877
823.70 84.96345
823.80 85.40041
823.90 86.00457
824.00 86.70548
824.10 87.40603
824.20 88.02528
824.30 88.53222
824.40 88.92336
824.50 89.21709
824.60 89.42053
824.70 89.49488
824.80 89.37982
824.90 89.01675
825.00 88.37051
825.10 87.46289
825.20 86.36479
825.30 85.17778
825.40 84.0402
825.50 83.11723
825.60 82.55648
825.70 82.43516
825.80 82.74729
825.90 83.39779
826.00 84.24941
826.10 85.17326
826.20 86.05423
826.30 86.80091
826.40 87.34935
826.50 87.64266
826.60 87.63971
826.70 87.33819
826.80 86.76436
826.90 85.98124
827.00 85.08692
827.10 84.20022
827.20 83.45418
827.30 82.97993
827.40 82.85901
827.50 83.08685
827.60 83.57252
827.70 84.15217
827.80 84.61787
827.90 84.78124
828.00 84.53029
828.10 83.85206
828.20 82.8382
828.30 81.6532
828.40 80.46029
828.50 79.35406
828.60 78.35193
828.70 77.40312
828.80 76.45646
828.90 75.51167
829.00 74.60515
829.10 73.80041
829.20 73.18408
829.30 72.83009
829.40 72.74106
829.50 72.83775
829.60 72.99392
829.70 73.06049
829.80 72.91026
829.90 72.4993
830.00 71.85971
830.10 71.08147
830.20 70.27592
830.30 69.53648
830.40 68.93699
830.50 68.53457
830.60 68.36706
830.70 68.43381
830.80 68.70932
830.90 69.15673
831.00 69.71538
831.10 70.31881
831.20 70.9262
831.30 71.51309
831.40 72.07319
831.50 72.63844
831.60 73.25465
831.70 73.95717
831.80 74.75972
831.90 75.65011
832.00 76.56749
832.10 77.42161
832.20 78.11597
832.30 78.55602
832.40 78.68392
832.50 78.49603
832.60 78.05204
832.70 77.48328
832.80 76.95663
832.90 76.60222
833.00 76.46693
833.10 76.50869
833.20 76.62979
833.30 76.70762
833.40 76.65051
833.50 76.436
833.60 76.12314
833.70 75.84798
833.80 75.75786
833.90 75.93876
834.00 76.3559
834.10 76.84967
834.20 77.23929
834.30 77.41786
834.40 77.36834
834.50 77.15756
834.60 76.8911
834.70 76.67536
834.80 76.58812
834.90 76.64487
835.00 76.79056
835.10 76.9289
835.20 76.9772
835.30 76.9018
835.40 76.73671
835.50 76.58466
835.60 76.55885
835.70 76.70485
835.80 77.00274
835.90 77.3959
836.00 77.81978
836.10 78.20559
836.20 78.49282
836.30 78.67624
836.40 78.81777
836.50 79.01785
836.60 79.35985
836.70 79.84967
836.80 80.41951
836.90 80.95102
837.00 81.2809
837.10 81.25664
837.20 80.79967
837.30 79.93573
837.40 78.79084
837.50 77.57653
837.60 76.55752
837.70 75.98182
837.80 75.965
837.90 76.4202
838.00 77.13245
838.10 77.87778
838.20 78.44737
838.30 78.64713
838.40 78.35386
838.50 77.55375
838.60 76.35054
838.70 74.93862
838.80 73.54388
838.90 72.37381
839.00 71.57251
839.10 71.18023
839.20 71.19245
839.30 71.61048
839.40 72.42467
839.50 73.57974
839.60 74.93483
839.70 76.33676
839.80 77.6997
839.90 78.98298
840.00 80.12979
840.10 81.05737
840.20 81.71445
840.30 82.10861
840.40 82.28496
840.50 82.31695
840.60 82.28975
840.70 82.26446
840.80 82.23706
840.90 82.20378
841.00 82.27813
841.10 82.59226
841.20 83.1577
841.30 83.88777
841.40 84.66801
841.50 85.36018
841.60 85.77852
841.70 85.75233
841.80 85.19895
841.90 84.15903
842.00 82.78634
842.10 81.31253
842.20 80.02024
842.30 79.13586
842.40 78.73515
842.50 78.77831
842.60 79.15455
842.70 79.6578
842.80 79.99213
842.90 79.90342
843.00 79.24981
843.10 77.92263
843.20 75.87728
843.30 73.20462
843.40 70.13066
843.50 67.01215
843.60 64.2211
843.70 62.01891
843.80 60.50476
843.90 59.59103
844.00 59.03956
844.10 58.56789
844.20 57.96217
844.30 57.09114
844.40 55.90943
844.50 54.52714
844.60 53.17373
844.70 52.07749
844.80 51.34757
844.90 50.90558
845.00 50.56971
845.10 50.1563
845.20 49.52916
845.30 48.64416
845.40 47.55916
845.50 46.41582
845.60 45.38615
845.70 44.61424
845.80 44.2034
845.90 44.19766
846.00 44.5513
846.10 45.13393
846.20 45.78281
846.30 46.35687
846.40 46.76071
846.50 46.95395
846.60 46.95571
846.70 46.82016
846.80 46.59508
846.90 46.3184
847.00 46.03271
847.10 45.77905
847.20 45.59663
847.30 45.51596
847.40 45.53731
847.50 45.64028
847.60 45.8188
847.70 46.07108
847.80 46.36351
847.90 46.64523
848.00 46.88569
848.10 47.09324
848.20 47.30988
848.30 47.58822
848.40 47.95883
848.50 48.42789
848.60 48.98864
848.70 49.63395
848.80 50.36502
848.90 51.14848
849.00 51.90523
849.10 52.56769
849.20 53.09597
849.30 53.4495
849.40 53.57517
849.50 53.44268
849.60 53.08519
849.70 52.60091
849.80 52.1297
849.90 51.8311
850.00 51.81079
850.10 52.0201
850.20 52.28876
850.30 52.46181
850.40 52.45822
850.50 52.23631
850.60 51.79648
850.70 51.20078
850.80 50.57047
850.90 50.05474
851.00 49.76565
851.10 49.71695
851.20 49.82515
851.30 49.92805
851.40 49.84826
851.50 49.50016
851.60 48.89337
851.70 48.0681
851.80 47.08248
851.90 46.04736
852.00 45.12423
852.10 44.49306
852.20 44.2888
852.30 44.5478
852.40 45.22522
852.50 46.2329
852.60 47.44611
852.70 48.71385
852.80 49.89803
852.90 50.91747
853.00 51.74995
853.10 52.42194
853.20 52.99951
853.30 53.54705
853.40 54.08608
853.50 54.59035
853.60 55.02909
853.70 55.40882
853.80 55.74926
853.90 56.05002
854.00 56.30131
854.10 56.5091
854.20 56.71917
854.30 56.99171
854.40 57.35929
854.50 57.82145
854.60 58.37929
854.70 59.03767
854.80 59.77833
854.90 60.55583
855.00 61.31486
855.10 61.9921
855.20 62.53235
855.30 62.92004
855.40 63.17092
855.50 63.30004
855.60 63.2839
855.70 63.08308
855.80 62.70415
855.90 62.21831
856.00 61.71724
856.10 61.29003
856.20 61.02839
856.30 61.01327
856.40 61.27653
856.50 61.76982
856.60 62.38372
856.70 62.98405
856.80 63.44585
856.90 63.68461
857.00 63.68712
857.10 63.50141
857.20 63.20614
857.30 62.89093
857.40 62.63628
857.50 62.49915
857.60 62.50522
857.70 62.63881
857.80 62.84541
857.90 63.06771
858.00 63.26635
858.10 63.42453
858.20 63.55106
858.30 63.68459
858.40 63.88813
858.50 64.21489
858.60 64.67147
858.70 65.20979
858.80 65.7321
858.90 66.12725
859.00 66.32696
859.10 66.32956
859.20 66.19985
859.30 66.04286
859.40 65.97684
859.50 66.0852
859.60 66.3755
859.70 66.80069
859.80 67.28868
859.90 67.75271
860.00 68.11629
860.10 68.34736
860.20 68.47382
860.30 68.55995
860.40 68.66449
860.50 68.8216
860.60 69.01218
860.70 69.16889
860.80 69.19605
860.90 69.0028
861.00 68.56359
861.10 67.91175
861.20 67.08741
861.30 66.13771
861.40 65.12435
861.50 64.12178
861.60 63.2201
861.70 62.50477
861.80 62.0371
861.90 61.81358
862.00 61.76697
862.10 61.79689
862.20 61.79569
862.30 61.67565
862.40 61.37358
862.50 60.84126
862.60 60.07077
862.70 59.13458
862.80 58.18071
862.90 57.3623
863.00 56.77161
863.10 56.44011
863.20 56.34194
863.30 56.4444
863.40 56.7337
863.50 57.17755
863.60 57.71505
863.70 58.28805
863.80 58.85837
863.90 59.41107
864.00 59.94104
864.10 60.42541
864.20 60.82771
864.30 61.12283
864.40 61.30242
864.50 61.38088
864.60 61.40673
864.70 61.42787
864.80 61.48235
864.90 61.63316
865.00 61.96365
865.10 62.52782
865.20 63.31904
865.30 64.25644
865.40 65.21302
865.50 66.07883
865.60 66.78935
865.70 67.29526
865.80 67.56533
865.90 67.61141
866.00 67.49406
866.10 67.3024
866.20 67.13175
866.30 67.06257
866.40 67.12619
866.50 67.29174
866.60 67.48151
866.70 67.63826
866.80 67.73417
866.90 67.75123
867.00 67.69231
867.10 67.60687
867.20 67.58374
867.30 67.72064
867.40 68.08074
867.50 68.66083
867.60 69.38592
867.70 70.12281
867.80 70.72433
867.90 71.07627
868.00 71.12962
868.10 70.90845
868.20 70.51343
868.30 70.05363
868.40 69.60001
868.50 69.18994
868.60 68.82113
868.70 68.43265
868.80 67.91244
868.90 67.16004
869.00 66.12116
869.10 64.791
869.20 63.22973
869.30 61.56363
869.40 59.96382
869.50 58.58715
869.60 57.52826
869.70 56.83715
869.80 56.52001
869.90 56.54053
870.00 56.83561
870.10 57.32832
870.20 57.94733
870.30 58.62806
870.40 59.31158
870.50 59.93505
870.60 60.42681
870.70 60.7085
870.80 60.70515
870.90 60.38188
871.00 59.76637
871.10 58.95098
871.20 58.07296
871.30 57.2757
871.40 56.67546
871.50 56.33243
871.60 56.2479
871.70 56.38619
871.80 56.69622
871.90 57.12035
872.00 57.59453
872.10 58.07867
872.20 58.5718
872.30 59.10946
872.40 59.76243
872.50 60.58933
872.60 61.59889
872.70 62.7377
872.80 63.89926
872.90 64.96232
873.00 65.81942
873.10 66.39052
873.20 66.63383
873.30 66.56717
873.40 66.27464
873.50 65.88067
873.60 65.51572
873.70 65.29177
873.80 65.27868
873.90 65.52166
874.00 66.05806
874.10 66.90084
874.20 68.01974
874.30 69.30379
874.40 70.55628
874.50 71.56214
874.60 72.16262
874.70 72.29435
874.80 72.01268
874.90 71.47491
875.00 70.91636
875.10 70.57416
875.20 70.59611
875.30 71.04097
875.40 71.89388
875.50 73.08762
875.60 74.55399
875.70 76.19823
875.80 77.87477
875.90 79.39199
876.00 80.52672
876.10 81.12179
876.20 81.14535
876.30 80.65724
876.40 79.77246
876.50 78.67779
876.60 77.65488
876.70 77.01606
876.80 76.99911
876.90 77.72457
877.00 79.1512
877.10 81.14822
877.20 83.58139
877.30 86.25566
877.40 88.90823
877.50 91.20644
877.60 92.76879
877.70 93.32908
877.80 92.82787
877.90 91.41017
878.00 89.38829
878.10 87.14653
878.20 85.08401
878.30 83.52777
878.40 82.65377
878.50 82.47325
878.60 82.86138
878.70 83.64552
878.80 84.6621
878.90 85.77121
879.00 86.84571
879.10 87.77333
879.20 88.53567
879.30 89.17387
879.40 89.71128
879.50 90.13805
879.60 90.38378
879.70 90.32708
879.80 89.83749
879.90 88.82289
880.00 87.28922
880.10 85.36261
880.20 83.24336
880.30 81.17933
880.40 79.4588
880.50 78.35324
880.60 78.01385
880.70 78.46805
880.80 79.65896
880.90 81.45586
881.00 83.70578
881.10 86.2825
881.20 89.08958
881.30 92.0253
881.40 94.94597
881.50 97.68163
881.60 100.0467
881.70 101.8513
881.80 102.9476
881.90 103.2496
882.00 102.8111
882.10 101.8409
882.20 100.5783
882.30 99.21903
882.40 97.93238
882.50 96.86098
882.60 96.13236
882.70 95.86454
882.80 96.07444
882.90 96.63794
883.00 97.41487
883.10 98.35004
883.20 99.43913
883.30 100.6448
883.40 101.8644
883.50 102.995
883.60 103.9907
883.70 104.8896
883.80 105.7297
883.90 106.4821
884.00 107.0269
884.10 107.1498
884.20 106.6589
884.30 105.4771
884.40 103.6508
884.50 101.3334
884.60 98.82556
884.70 96.58596
884.80 95.08571
884.90 94.66578
885.00 95.47114
885.10 97.39067
885.20 100.0556
885.30 102.8848
885.40 105.2096
885.50 106.4604
885.60 106.2767
885.70 104.533
885.80 101.3547
885.90 97.11305
886.00 92.38604
886.10 87.86884
886.20 84.20486
886.30 81.78089
886.40 80.64891
886.50 80.57439
886.60 81.12448
886.70 81.75934
886.80 81.94507
886.90 81.27347
887.00 79.57399
887.10 77.00762
887.20 74.01785
887.30 71.2063
887.40 69.15622
887.50 68.2539
887.60 68.61414
887.70 70.09844
887.80 72.39019
887.90 75.08792
888.00 77.80764
888.10 80.21812
888.20 82.03309
888.30 83.1358
888.40 83.63416
888.50 83.76029
888.60 83.75012
888.70 83.77234
888.80 83.909
888.90 84.15206
889.00 84.43611
889.10 84.63966
889.20 84.5937
889.30 84.11933
889.40 83.10486
889.50 81.64384
889.60 80.08565
889.70 78.87023
889.80 78.40155
889.90 78.96552
890.00 80.65133
890.10 83.31094
890.20 86.5792
890.30 89.97199
890.40 92.9659
890.50 95.11841
890.60 96.16808
890.70 96.07835
890.80 95.03048
890.90 93.37814
891.00 91.56356
891.10 90.01348
891.20 89.03864
891.30 88.82499
891.40 89.47207
891.50 90.97812
891.60 93.16991
891.70 95.73537
891.80 98.29179
891.90 100.4501
892.00 101.9058
892.10 102.4673
892.20 102.093
892.30 100.8888
892.40 99.09882
892.50 97.05814
892.60 95.12999
892.70 93.67207
892.80 92.95689
892.90 93.12415
893.00 94.18164
893.10 95.97044
893.20 98.16444
893.30 100.2913
893.40 101.8441
893.50 102.433
893.60 101.861
893.70 100.1928
893.80 97.71346
893.90 94.79841
894.00 91.83295
894.10 89.15861
894.20 87.04511
894.30 85.64562
894.40 84.99644
894.50 85.01596
894.60 85.53548
894.70 86.37895
894.80 87.37212
894.90 88.37776
895.00 89.31576
895.10 90.16582
895.20 91.0252
895.30 92.08031
895.40 93.49106
895.50 95.3055
895.60 97.42717
895.70 99.64293
895.80 101.6564
895.90 103.1648
896.00 103.9345
896.10 103.8574
896.20 102.981
896.30 101.4911
896.40 99.66868
896.50 97.79713
896.60 96.0857
896.70 94.7016
896.80 93.79299
896.90 93.45772
897.00 93.71612
897.10 94.5101
897.20 95.75046
897.30 97.32871
897.40 99.1097
897.50 100.933
897.60 102.632
897.70 104.0488
897.80 105.0558
897.90 105.6132
898.00 105.7961
898.10 105.796
898.20 105.9162
898.30 106.4916
898.40 107.7238
898.50 109.5548
898.60 111.6715
898.70 113.6186
898.80 114.9712
898.90 115.4941
899.00 115.1563
899.10 114.0813
899.20 112.5027
899.30 110.6922
899.40 108.9616
899.50 107.6393
899.60 106.9071
899.70 106.7101
899.80 106.9686
899.90 107.7476
900.00 106.1978
900.10 104.6479
900.20 103.0981
900.30 103.0043
900.40 103.0201
900.50 106.5677
900.60 112.2799
900.70 117.5359
900.80 121.7766
900.90 126.0172
901.00 123.8943
901.10 121.7714
901.20 118.3324
901.30 114.3021
901.40 111.3374
901.50 110.1872
901.60 109.291
901.70 112.3752
901.80 115.4593
901.90 116.2544
902.00 116.2864
902.10 115.3239
902.20 113.0958
902.30 110.3564
902.40 104.1954
902.50 98.0343
902.60 93.9139
902.70 90.24145
902.80 88.0619
902.90 87.37525
903.00 87.16442
903.10 88.98211
903.20 90.79979
903.30 94.56243
903.40 98.59028
903.50 103.3266
903.60 108.5973
903.70 113.9792
903.80 119.6777
903.90 125.3763
904.00 125.8464
904.10 126.0414
904.20 124.2224
904.30 121.2705
904.40 118.0349
904.50 114.1967
904.60 110.406
904.70 111.3156
904.80 112.2251
904.90 115.0826
905.00 118.7748
905.10 121.0171
905.20 120.9915
905.30 120.5637
905.40 115.5102
905.50 110.4567
905.60 107.4438
905.70 105.0404
905.80 103.8561
905.90 104.1028
906.00 104.3675
906.10 104.734
906.20 105.1006
906.30 103.0648
906.40 100.5714
906.50 99.89903
906.60 100.9076
906.70 101.8217
906.80 102.3806
906.90 102.9394
907.00 102.8876
907.10 102.768
907.20 102.0628
907.30 100.9506
907.40 100.675
907.50 102.5508
907.60 104.4267
907.70 107.3635
907.80 110.3332
907.90 113.5039
908.00 116.7781
908.10 119.0626
908.20 119.5091
908.30 119.9043
908.40 119.0672
908.50 118.2302
908.60 116.6129
908.70 114.7071
908.80 113.6775
908.90 113.8581
909.00 114.12
909.10 115.0396
909.20 115.9593
909.30 116.9125
909.40 117.8747
909.50 119.1146
909.60 120.6556
909.70 122.493
909.80 125.778
909.90 129.0631
910.00 129.2819
910.10 129.0016
910.20 128.7572
910.30 128.5423
910.40 128.1157
910.50 127.0186
910.60 125.9215
910.70 125.9165
910.80 125.9936
910.90 123.9438
911.00 120.5903
911.10 118.5403
911.20 119.3916
911.30 120.2428
911.40 123.6441
911.50 127.0454
911.60 129.7109
911.70 132.0459
911.80 133.5581
911.90 133.728
912.00 133.97
912.10 135.1695
912.20 136.369
912.30 138.66
912.40 141.2957
912.50 141.6516
912.60 139.2212
912.70 136.5823
912.80 132.6621
912.90 128.742
913.00 126.9683
913.10 125.6343
913.20 126.6498
913.30 129.834
913.40 132.9369
913.50 135.7336
913.60 138.5304
913.70 140.4474
913.80 142.2667
913.90 139.6797
914.00 134.0308
914.10 128.0904
914.20 121.4007
914.30 114.711
914.40 114.6386
914.50 114.7709
914.60 118.5548
914.70 124.22
914.80 128.0488
914.90 128.4674
915.00 128.8299
915.10 127.8464
915.20 126.8629
915.30 127.4786
915.40 128.6857
915.50 131.2082
915.60 135.5473
915.70 140.008
915.80 145.4528
915.90 150.8975
916.00 152.4831
916.10 153.104
916.20 151.6753
916.30 148.1133
916.40 144.672
916.50 141.7804
916.60 138.8887
916.70 139.5835
916.80 140.8143
916.90 142.9487
917.00 145.7931
917.10 148.2243
917.20 149.4163
917.30 150.6083
917.40 149.8239
917.50 148.9133
917.60 145.5515
917.70 140.7503
917.80 137.3089
917.90 136.7574
918.00 136.2163
918.10 136.7106
918.20 137.2049
918.30 138.6925
918.40 140.6057
918.50 141.6026
918.60 141.2249
918.70 140.9973
918.80 142.2882
918.90 143.579
919.00 149.6085
919.10 156.9745
919.20 163.2526
919.30 168.3037
919.40 172.194
919.50 169.9897
919.60 167.7854
919.70 161.6357
919.80 154.7898
919.90 152.0651
920.00 152.8512
920.10 154.1976
920.20 157.4202
920.30 160.6429
920.40 163.4169
920.50 166.152
920.60 165.145
920.70 161.7455
920.80 157.2311
920.90 150.1154
921.00 142.9996
921.10 138.8479
921.20 134.7262
921.30 133.0197
921.40 132.4496
921.50 133.24
921.60 136.2498
921.70 139.211
921.80 141.5242
921.90 143.8375
922.00 145.0932
922.10 146.0151
922.20 145.2977
922.30 142.5768
922.40 140.1168
922.50 139.2586
922.60 138.4004
922.70 138.8831
922.80 139.6405
922.90 139.5713
923.00 138.7391
923.10 137.422
923.20 134.2808
923.30 131.1395
923.40 128.9662
923.50 126.9003
923.60 126.4361
923.70 127.0849
923.80 127.4569
923.90 127.1515
924.00 126.8462
924.10 129.0037
924.20 131.2116
924.30 135.614
924.40 141.0973
924.50 146.1447
924.60 150.4173
924.70 154.2957
924.80 150.684
924.90 147.0723
925.00 141.7148
925.10 135.7439
925.20 130.7724
925.30 127.1255
925.40 124.1935
925.50 126.0458
925.60 127.8982
925.70 131.4652
925.80 135.4086
925.90 139.8292
926.00 144.7081
926.10 148.3252
926.20 146.8952
926.30 145.4652
926.40 143.3657
926.50 141.1834
926.60 139.2447
926.70 137.4823
926.80 137.0637
926.90 140.2786
927.00 143.4935
927.10 144.5779
927.20 145.5964
927.30 145.4673
927.40 144.7471
927.50 143.0116
927.60 139.3908
927.70 135.8183
927.80 133.405
927.90 130.9917
928.00 129.6124
928.10 128.6155
928.20 128.7855
928.30 130.5669
928.40 132.3682
928.50 134.3167
928.60 136.2653
928.70 136.6597
928.80 136.6895
928.90 135.5008
929.00 133.0935
929.10 131.1843
929.20 131.3985
929.30 131.6127
929.40 134.796
929.50 138.3842
929.60 140.5325
929.70 141.6383
929.80 141.8551
929.90 139.668
930.00 137.4809
930.10 136.0392
930.20 134.6286
930.30 133.1332
930.40 131.5921
930.50 130.2001
930.60 129.0976
930.70 128.9062
930.80 129.4908
930.90 130.0755
931.00 133.1253
931.10 136.7162
931.20 140.0501
931.30 141.3049
931.40 142.5597
931.50 143.4618
931.60 143.8125
931.70 144.1632
931.80 143.0997
931.90 141.3397
932.00 139.5797
932.10 139.3401
932.20 139.1805
932.30 139.2414
932.40 140.0001
932.50 140.7588
932.60 142.1813
932.70 144.2165
932.80 146.2518
932.90 146.8316
933.00 147.0476
933.10 147.1548
933.20 146.0099
933.30 144.8651
933.40 143.2006
933.50 140.6514
933.60 138.1022
933.70 137.0757
933.80 136.8692
933.90 136.6627
934.00 137.9303
934.10 139.309
934.20 140.6744
934.30 141.9929
934.40 143.3113
934.50 144.6853
934.60 146.1149
934.70 147.5445
934.80 148.049
934.90 148.2927
935.00 148.2609
935.10 144.5704
935.20 140.88
935.30 137.2022
935.40 133.5481
935.50 129.894
935.60 128.5877
935.70 128.6603
935.80 128.7329
935.90 133.1675
936.00 137.9814
936.10 142.6978
936.20 147.0244
936.30 151.3509
936.40 154.7993
936.50 157.3339
936.60 159.8685
936.70 158.0945
936.80 155.0335
936.90 151.9772
937.00 149.0098
937.10 146.0424
937.20 143.4567
937.30 141.6122
937.40 139.7676
937.50 139.275
937.60 139.6111
937.70 139.9472
937.80 139.4283
937.90 138.825
938.00 138.4413
938.10 138.9943
938.20 139.5474
938.30 139.8969
938.40 140.0259
938.50 140.155
938.60 140.9558
938.70 141.9688
938.80 142.9849
938.90 144.0787
939.00 145.1725
939.10 146.7953
939.20 149.492
939.30 152.1887
939.40 154.3491
939.50 156.1667
939.60 157.9843
939.70 156.8069
939.80 155.2967
939.90 153.3075
940.00 149.1365
940.10 144.9654
940.20 141.7429
940.30 139.5899
940.40 137.4369
940.50 139.0256
940.60 141.8615
940.70 144.7076
940.80 147.7985
940.90 150.8894
941.00 153.5963
941.10 155.4874
941.20 157.3784
941.30 157.1513
941.40 155.5698
941.50 153.9884
941.60 152.9638
941.70 152.0081
941.80 150.8617
941.90 148.8473
942.00 146.8329
942.10 145.852
942.20 146.0365
942.30 146.221
942.40 147.2755
942.50 148.62
942.60 149.9983
942.70 152.1866
942.80 154.3749
942.90 156.3488
943.00 157.8672
943.10 159.3855
943.20 160.3294
943.30 160.9061
943.40 161.4827
943.50 162.4842
943.60 163.5381
943.70 164.0849
943.80 162.3211
943.90 160.5573
944.00 158.3424
944.10 155.598
944.20 152.8536
944.30 150.6234
944.40 148.5646
944.50 146.564
944.60 145.9608
944.70 145.3576
944.80 145.4846
944.90 147.1632
945.00 148.8418
945.10 150.3314
945.20 151.7
945.30 153.0686
945.40 153.8634
945.50 154.5943
945.60 154.5972
945.70 151.2837
945.80 147.9703
945.90 145.6399
946.00 144.418
946.10 143.1962
946.20 143.8504
946.30 145.097
946.40 146.4702
946.50 150.8814
946.60 155.2927
946.70 158.8691
946.80 160.7506
946.90 162.6322
947.00 163.2225
947.10 162.9874
947.20 162.7522
947.30 162.7024
947.40 162.6731
947.50 162.8391
947.60 163.8371
947.70 164.8351
947.80 166.5036
947.90 168.8984
948.00 171.2932
948.10 172.5273
948.20 173.3949
948.30 174.2374
948.40 174.6032
948.50 174.9689
948.60 174.9295
948.70 174.1034
948.80 173.2774
948.90 174.1315
949.00 176.0155
949.10 177.8994
949.20 177.9188
949.30 177.7538
949.40 177.4303
949.50 176.4727
949.60 175.5151
949.70 174.8172
949.80 174.3893
949.90 173.9615
950.00 174.511
950.10 175.3523
950.20 176.1402
950.30 176.0896
950.40 176.039
950.50 175.7513
950.60 175.0232
950.70 174.2952
950.80 176.0108
950.90 179.1009
951.00 182.191
951.10 183.8185
951.20 185.3188
951.30 186.2811
951.40 185.2194
951.50 184.1578
951.60 181.871
951.70 178.3592
951.80 174.8474
951.90 172.4333
952.00 170.311
952.10 168.4782
952.20 169.9742
952.30 171.4702
952.40 173.906
952.50 178.0127
952.60 182.1194
952.70 185.6295
952.80 188.8185
952.90 192.0074
953.00 192.3848
953.10 192.5826
953.20 192.2194
953.30 189.9774
953.40 187.7354
953.50 186.1702
953.60 185.2297
953.70 184.2893
953.80 182.9274
953.90 181.4601
954.00 180.1119
954.10 179.9673
954.20 179.8228
954.30 179.6759
954.40 179.5253
954.50 179.3747
954.60 179.6105
954.70 180.0365
954.80 180.4626
954.90 179.7057
955.00 178.8995
955.10 177.9699
955.20 176.6704
955.30 175.3708
955.40 175.9948
955.50 178.2574
955.60 180.52
955.70 183.0603
955.80 185.6576
955.90 188.1683
956.00 189.9792
956.10 191.7901
956.20 192.6642
956.30 192.1332
956.40 191.6021
956.50 190.7523
956.60 189.7593
956.70 188.7662
956.80 188.2968
956.90 187.838
957.00 187.6258
957.10 188.0805
957.20 188.5352
957.30 188.787
957.40 188.8792
957.50 188.9715
957.60 187.2117
957.70 185.125
957.80 183.0584
957.90 181.1147
958.00 179.1711
958.10 178.018
958.20 177.9128
958.30 177.8077
958.40 178.8228
958.50 180.2736
958.60 181.7096
958.70 181.6919
958.80 181.6742
958.90 180.3564
959.00 176.005
959.10 171.6536
959.20 168.2547
959.30 165.5175
959.40 162.7804
959.50 163.0053
959.60 163.6341
959.70 163.9962
959.80 163.0562
959.90 162.1162
960.00 159.956
960.10 156.3634
960.20 152.7708
960.30 151.71
960.40 151.493
960.50 151.4951
960.60 156.7554
960.70 162.0157
960.80 166.835
960.90 170.7588
961.00 174.6826
961.10 176.0137
961.20 175.7558
961.30 175.498
961.40 173.0434
961.50 170.3716
961.60 168.2116
961.70 168.0992
961.80 167.9868
961.90 169.3943
962.00 172.3839
962.10 175.3734
962.20 178.5074
962.30 181.6821
962.40 184.5948
962.50 184.0274
962.60 183.46
962.70 182.8674
962.80 182.2301
962.90 181.5929
963.00 180.7376
963.10 179.7648
963.20 178.7921
963.30 177.5828
963.40 176.3584
963.50 174.2301
963.60 169.0759
963.70 163.9217
963.80 158.3209
963.90 152.308
964.00 146.2951
964.10 142.3982
964.20 138.9976
964.30 136.2295
964.40 139.1539
964.50 142.0783
964.60 146.06
964.70 151.6274
964.80 157.1948
964.90 160.5895
965.00 163.008
965.10 165.4265
965.20 165.1877
965.30 164.8946
965.40 164.3557
965.50 163.1521
965.60 161.9485
965.70 161.4203
965.80 161.4229
965.90 161.4255
966.00 163.4459
966.10 165.8224
966.20 168.4598
966.30 172.6996
966.40 176.9395
966.50 180.4628
966.60 183.0362
966.70 185.6097
966.80 185.6458
966.90 184.7436
967.00 183.8648
967.10 184.1388
967.20 184.4127
967.30 184.4142
967.40 183.8094
967.50 183.2045
967.60 181.9444
967.70 180.2474
967.80 178.5504
967.90 176.7714
968.00 174.9822
968.10 173.8015
968.20 175.2149
968.30 176.6282
968.40 177.4866
968.50 177.7437
968.60 178.0008
968.70 177.9077
968.80 177.71
968.90 177.5371
969.00 177.7547
969.10 177.9723
969.20 178.834
969.30 180.8921
969.40 182.9501
969.50 185.454
969.60 188.198
969.70 190.9419
969.80 192.7242
969.90 194.4451
970.00 195.6284
970.10 195.0121
970.20 194.3957
970.30 193.1304
970.40 191.266
970.50 189.4016
970.60 186.4467
970.70 183.2361
970.80 180.2733
970.90 179.3159
971.00 178.3585
971.10 179.1587
971.20 182.5956
971.30 186.0324
971.40 191.0268
971.50 196.721
971.60 202.4152
971.70 205.2732
971.80 208.1026
971.90 210.0863
972.00 209.895
972.10 209.7038
972.20 207.9221
972.30 204.9406
972.40 201.9591
972.50 199.1299
972.60 196.3254
972.70 193.6653
972.80 191.7629
972.90 189.8605
973.00 187.8817
973.10 185.8098
973.20 183.7378
973.30 183.6851
973.40 184.3419
973.50 185.0336
973.60 186.5609
973.70 188.0881
973.80 189.5251
973.90 190.7785
974.00 192.032
974.10 190.7057
974.20 187.7981
974.30 184.8906
974.40 182.8163
974.50 180.8145
974.60 178.9443
974.70 177.5696
974.80 176.195
974.90 176.3571
975.00 178.0561
975.10 179.7551
975.20 182.3156
975.30 185.0915
975.40 187.7571
975.50 189.3063
975.60 190.8555
975.70 192.5689
975.80 194.55
975.90 196.5311
976.00 196.6539
976.10 195.9022
976.20 195.1506
976.30 195.9396
976.40 196.7763
976.50 197.642
976.60 198.5907
976.70 199.5393
976.80 200.1756
976.90 200.5663
977.00 200.9571
977.10 198.0771
977.20 194.62
977.30 191.525
977.40 190.4823
977.50 189.4395
977.60 189.6753
977.70 191.5384
977.80 193.4014
977.90 195.1896
978.00 196.9502
978.10 198.5964
978.20 196.542
978.30 194.4876
978.40 192.1533
978.50 189.2241
978.60 186.295
978.70 184.1242
978.80 182.4183
978.90 180.7124
979.00 181.3081
979.10 182.1315
979.20 183.6027
979.30 187.511
979.40 191.4193
979.50 195.4292
979.60 199.5406
979.70 203.6519
979.80 206.7911
979.90 209.6719
980.00 212.3288
980.10 212.7223
980.20 213.1158
980.30 213.5557
980.40 214.0712
980.50 214.5868
980.60 213.3328
980.70 211.2461
980.80 209.1595
980.90 208.2922
981.00 207.4626
981.10 206.8071
981.20 206.6222
981.30 206.4374
981.40 206.5158
981.50 206.8011
981.60 207.0864
981.70 206.0206
981.80 204.7348
981.90 203.5082
982.00 202.6168
982.10 201.7253
982.20 200.6778
982.30 199.4396
982.40 198.2014
982.50 198.2358
982.60 198.7173
982.70 199.2758
982.80 201.6829
982.90 204.09
983.00 206.0958
983.10 207.2867
983.20 208.4776
983.30 207.8469
983.40 206.1463
983.50 204.4456
983.60 202.1872
983.70 199.8802
983.80 198.1232
983.90 198.3163
984.00 198.5095
984.10 199.4276
984.20 201.0151
984.30 202.6025
984.40 202.8733
984.50 202.8353
984.60 202.9137
984.70 203.9346
984.80 204.9556
984.90 205.3755
985.00 204.894
985.10 204.4126
985.20 203.397
985.30 202.1527
985.40 200.9083
985.50 200.0401
985.60 199.1757
985.70 199.184
985.80 201.3292
985.90 203.4744
986.00 205.5021
986.10 207.4482
986.20 209.3942
986.30 210.7595
986.40 212.0457
986.50 213.2219
986.60 213.8973
986.70 214.5728
986.80 213.3558
986.90 210.0048
987.00 206.6538
987.10 205.6765
987.20 205.4082
987.30 205.3967
987.40 208.7967
987.50 212.1967
987.60 215.5431
987.70 218.794
987.80 222.045
987.90 220.4333
988.00 216.3166
988.10 212.1999
988.20 209.6104
988.30 207.1013
988.40 205.7547
988.50 207.8953
988.60 210.0359
988.70 212.9269
988.80 216.4317
988.90 219.9366
989.00 220.498
989.10 220.4987
989.20 219.8895
989.30 215.5335
989.40 211.1774
989.50 204.0795
989.60 193.4921
989.70 182.9046
989.80 171.0217
989.90 158.6595
990.00 146.4357
990.10 138.6826
990.20 130.9296
990.30 124.0507
990.40 118.9463
990.50 113.8419
990.60 108.2569
990.70 102.3775
990.80 96.49808
990.90 92.32864
991.00 88.30789
991.10 85.0803
991.20 84.66485
991.30 84.24939
991.40 83.64693
991.50 82.8648
991.60 82.08267
991.70 81.73328
991.80 81.4854
991.90 81.46627
992.00 83.29804
992.10 85.1298
992.20 87.09881
992.30 89.26533
992.40 91.43184
992.50 91.71634
992.60 91.19427
992.70 90.67219
992.80 91.14895
992.90 91.62571
993.00 92.94722
993.10 96.23983
993.20 99.53244
993.30 102.5633
993.40 105.4197
993.50 108.276
993.60 110.7022
993.70 113.0752
993.80 115.7682
993.90 119.8256
994.00 123.883
994.10 127.5255
994.20 130.7362
994.30 133.9468
994.40 134.3056
994.50 133.9064
994.60 133.5833
994.70 134.136
994.80 134.6886
994.90 135.9548
995.00 138.3851
995.10 140.8154
995.20 144.2597
995.30 148.1812
995.40 152.1026
995.50 151.3431
995.60 150.4881
995.70 149.057
995.80 146.0683
995.90 143.0795
996.00 139.6561
996.10 135.9048
996.20 132.1536
996.30 135.6928
996.40 140.3214
996.50 145.354
996.60 152.3595
996.70 159.3649
996.80 162.7887
996.90 162.1739
997.00 161.559
997.10 153.382
997.20 142.817
997.30 132.4086
997.40 124.4555
997.50 116.5023
997.60 111.6875
997.70 112.452
997.80 113.2165
997.90 116.7911
998.00 121.8133
998.10 126.8354
998.20 129.5281
998.30 132.1238
998.40 133.7574
998.50 132.653
998.60 131.5486
998.70 130.5729
998.80 129.7024
998.90 128.8319
999.00 128.0856
999.10 127.3613
999.20 126.7538
999.30 126.8084
999.40 126.863
999.50 126.1205
999.60 124.4039
999.70 122.6873
999.80 123.0408
999.90 124.0843
1000.00 125.2612
1000.10 128.9708
1000.20 132.6804
1000.30 137.6884
1000.40 145.1077
1000.50 152.5271
1000.60 156.8564
1000.70 159.5218
1000.80 162.1873
1000.90 157.4347
1001.00 152.2916
1001.10 147.0981
1001.20 141.7447
1001.30 136.3913
1001.40 134.5327
1001.50 135.6511
1001.60 136.7694
1001.70 141.4082
1001.80 146.7175
1001.90 151.5271
1002.00 153.2675
1002.10 155.0078
1002.20 156.3349
1002.30 157.1361
1002.40 157.9372
1002.50 160.1219
1002.60 162.7927
1002.70 165.41
1002.80 166.7454
1002.90 168.0808
1003.00 168.4579
1003.10 166.9748
1003.20 165.4918
1003.30 162.5881
1003.40 158.8854
1003.50 155.1826
1003.60 151.7191
1003.70 148.271
1003.80 145.0961
1003.90 142.7866
1004.00 140.4772
1004.10 142.0357
1004.20 146.8891
1004.30 151.7424
1004.40 158.7365
1004.50 166.1384
1004.60 172.8393
1004.70 175.234
1004.80 177.6288
1004.90 176.0385
1005.00 169.3764
1005.10 162.7142
1005.20 152.8758
1005.30 141.8626
1005.40 130.9489
1005.50 123.2535
1005.60 115.5581
1005.70 110.6251
1005.80 111.3005
1005.90 111.9759
1006.00 115.4282
1006.10 120.5115
1006.20 125.5948
1006.30 128.304
1006.40 130.8344
1006.50 133.4883
1006.60 136.5556
1006.70 139.623
1006.80 144.0889
1006.90 149.795
1007.00 155.501
1007.10 158.7297
1007.20 161.451
1007.30 163.6653
1007.40 162.4875
1007.50 161.3097
1007.60 161.008
1007.70 161.8677
1007.80 162.7273
1007.90 165.3508
1008.00 168.6267
1008.10 171.8633
1008.20 174.1578
1008.30 176.4523
1008.40 178.9858
1008.50 181.9831
1008.60 184.9803
1008.70 186.0932
1008.80 186.1462
1008.90 186.1991
1009.00 181.3725
1009.10 176.2344
1009.20 170.963
1009.30 165.2693
1009.40 159.5755
1009.50 157.4305
1009.60 158.3084
1009.70 159.1864
1009.80 165.8496
1009.90 173.6148
1010.00 181.8152
1010.10 192.6898
1010.20 203.5643
1010.30 212.0312
1010.40 217.4339
1010.50 222.8366
1010.60 221.1036
1010.70 216.8636
1010.80 212.4568
1010.90 204.0474
1011.00 195.638
1011.10 187.7027
1011.20 180.6875
1011.30 173.6724
1011.40 167.9974
1011.50 163.0762
1011.60 158.155
1011.70 154.4442
1011.80 150.8106
1011.90 148.5145
1012.00 150.4539
1012.10 152.3932
1012.20 157.8847
1012.30 166.2825
1012.40 174.6803
1012.50 183.1721
1012.60 191.6805
1012.70 199.3859
1012.80 202.5415
1012.90 205.6971
1013.00 207.2677
1013.10 206.9012
1013.20 206.5347
1013.30 203.0772
1013.40 198.5892
1013.50 193.842
1013.60 184.1673
1013.70 174.4927
1013.80 165.5096
1013.90 157.8109
1014.00 150.1122
1014.10 148.8498
1014.20 151.0532
1014.30 153.2566
1014.40 159.5139
1014.50 165.9402
1014.60 171.0038
1014.70 172.1886
1014.80 173.3734
1014.90 174.3552
1015.00 175.1775
1015.10 175.9998
1015.20 179.2467
1015.30 182.8883
1015.40 186.1518
1015.50 187.4302
1015.60 188.7085
1015.70 186.6705
1015.80 180.7395
1015.90 174.8084
1016.00 170.0037
1016.10 165.5354
1016.20 161.4329
1016.30 162.1901
1016.40 162.9472
1016.50 165.006
1016.60 169.2811
1016.70 173.5561
1016.80 176.3986
1016.90 178.5356
1017.00 180.6726
1017.10 178.6623
1017.20 176.5238
1017.30 175.5178
1017.40 177.4241
1017.50 179.3304
1017.60 184.092
1017.70 190.9213
1017.80 197.7506
1017.90 199.0783
1018.00 199.6557
1018.10 198.5775
1018.20 189.9569
1018.30 181.3363
1018.40 172.8767
1018.50 164.5914
1018.60 156.3062
1018.70 154.1941
1018.80 153.7229
1018.90 153.7375
1019.00 158.6629
1019.10 163.5884
1019.20 168.464
1019.30 173.2617
1019.40 178.0594
1019.50 179.4648
1019.60 179.346
1019.70 179.2273
1019.80 177.1896
1019.90 175.1519
1020.00 174.0799
1020.10 175.2611
1020.20 176.4423
1020.30 178.125
1020.40 180.1422
1020.50 182.1593
1020.60 185.4682
1020.70 188.9207
1020.80 192.0012
1020.90 193.6822
1021.00 195.3633
1021.10 194.9944
1021.20 192.6559
1021.30 190.3174
1021.40 183.9191
1021.50 176.5685
1021.60 169.4101
1021.70 163.8074
1021.80 158.2047
1021.90 153.2938
1022.00 149.3383
1022.10 145.3828
1022.20 145.2602
1022.30 146.6283
1022.40 148.0698
1022.50 153.1093
1022.60 158.1489
1022.70 163.2764
1022.80 168.5909
1022.90 173.9054
1023.00 175.3263
1023.10 174.4604
1023.20 173.5944
1023.30 171.2626
1023.40 168.8204
1023.50 167.5012
1023.60 169.9414
1023.70 172.3817
1023.80 175.6434
1023.90 179.6049
1024.00 183.5663
1024.10 188.0481
1024.20 192.6289
1024.30 196.7584
1024.40 198.115
1024.50 199.4717
1024.60 199.5002
1024.70 197.9052
1024.80 196.3102
1024.90 192.4527
1025.00 187.841
1025.10 183.2097
1025.20 178.2064
1025.30 173.2031
1025.40 169.3916
1025.50 167.699
1025.60 166.0064
1025.70 164.9088
1025.80 164.1177
1025.90 163.3266
1026.00 159.6638
1026.10 155.8813
1026.20 151.1985
1026.30 144.0813
1026.40 136.9641
1026.50 134.3712
1026.60 135.1913
1026.70 136.0115
1026.80 144.6321
1026.90 154.4183
1027.00 163.8161
1027.10 171.445
1027.20 179.074
1027.30 182.7025
1027.40 181.9973
1027.50 181.2921
1027.60 177.1257
1027.70 172.0392
1027.80 167.0385
1027.90 162.9062
1028.00 158.7738
1028.10 154.9313
1028.20 151.5422
1028.30 148.1531
1028.40 146.1998
1028.50 144.8618
1028.60 143.5238
1028.70 148.4753
1028.80 153.4267
1028.90 159.0992
1029.00 166.4541
1029.10 173.809
1029.20 177.8033
1029.30 179.6491
1029.40 181.4948
1029.50 178.9864
1029.60 176.0472
1029.70 173.3952
1029.80 171.761
1029.90 170.1268
1030.00 168.8593
1030.10 167.9304
1030.20 167.0016
1030.30 167.2815
1030.40 167.8267
1030.50 168.8295
1030.60 172.8942
1030.70 176.9589
1030.80 180.538
1030.90 183.4734
1031.00 186.4089
1031.10 186.9289
1031.20 186.6003
1031.30 186.2811
1031.40 186.1892
1031.50 186.0973
1031.60 185.5089
1031.70 183.9983
1031.80 182.4878
1031.90 179.9582
1032.00 176.8801
1032.10 173.8019
1032.20 170.7622
1032.30 167.7242
1032.40 165.5555
1032.50 165.861
1032.60 166.1666
1032.70 167.7206
1032.80 170.2557
1032.90 172.7908
1033.00 181.4547
1033.10 191.0345
1033.20 200.1214
1033.30 206.8022
1033.40 213.4831
1033.50 214.8069
1033.60 210.3273
1033.70 205.8478
1033.80 195.6221
1033.90 183.7757
1034.00 172.6367
1034.10 168.6499
1034.20 164.663
1034.30 163.6263
1034.40 167.2039
1034.50 170.7816
1034.60 175.5635
1034.70 180.8615
1034.80 186.1596
1034.90 186.0196
1035.00 185.8796
1035.10 184.9019
1035.20 182.0596
1035.30 179.2173
1035.40 177.1727
1035.50 175.638
1035.60 174.1033
1035.70 175.8794
1035.80 177.9434
1035.90 180.6175
1036.00 185.4545
1036.10 190.2916
1036.20 195.4718
1036.30 200.9563
1036.40 206.4408
1036.50 210.3461
1036.60 213.928
1036.70 216.9203
1036.80 216.291
1036.90 215.6617
1037.00 216.4191
1037.10 218.9412
1037.20 221.4633
1037.30 226.2248
1037.40 231.7329
1037.50 236.933
1037.60 236.2817
1037.70 235.6303
1037.80 230.8322
1037.90 218.6621
1038.00 206.492
1038.10 194.6951
1038.20 183.0821
1038.30 171.4691
1038.40 170.8401
1038.50 170.5508
1038.60 172.1674
1038.70 178.6846
1038.80 185.2019
1038.90 189.1603
1039.00 191.2656
1039.10 193.371
1039.20 191.5559
1039.30 189.2562
1039.40 187.055
1039.50 185.274
1039.60 183.493
1039.70 183.3994
1039.80 184.9933
1039.90 186.5873
1040.00 189.1186
1040.10 191.8843
1040.20 194.7557
1040.30 198.4817
1040.40 202.2077
1040.50 205.5972
1040.60 208.5223
1040.70 211.4473
1040.80 212.9279
1040.90 213.8468
1041.00 214.6235
1041.10 210.8004
1041.20 206.9774
1041.30 202.7613
1041.40 197.7474
1041.50 192.7334
1041.60 191.4926
1041.70 192.3741
1041.80 193.2557
1041.90 200.5726
1042.00 208.3003
1042.10 214.6586
1042.20 216.9088
1042.30 219.159
1042.40 217.0864
1042.50 211.6171
1042.60 206.1478
1042.70 195.6661
1042.80 184.3685
1042.90 174.2687
1043.00 170.017
1043.10 165.7653
1043.20 166.8473
1043.30 173.7075
1043.40 180.5677
1043.50 192.2207
1043.60 205.2257
1043.70 217.4972
1043.80 222.3532
1043.90 227.2091
1044.00 229.6849
1044.10 228.4378
1044.20 227.1907
1044.30 226.2177
1044.40 225.3621
1044.50 224.5013
1044.60 223.1172
1044.70 221.7332
1044.80 220.4436
1044.90 219.3643
1045.00 218.2849
1045.10 221.5677
1045.20 227.5239
1045.30 233.4801
1045.40 243.2976
1045.50 253.4057
1045.60 262.046
1045.70 265.7728
1045.80 269.4995
1045.90 266.9576
1046.00 259.0756
1046.10 251.1936
1046.20 240.9574
1046.30 230.3056
1046.40 220.1375
1046.50 212.7096
1046.60 205.2817
1046.70 199.159
1046.80 194.5685
1046.90 189.9779
1047.00 185.6929
1047.10 181.4991
1047.20 177.55
1047.30 176.8521
1047.40 176.1542
1047.50 176.6577
1047.60 179.1213
1047.70 181.585
1047.80 183.9657
1047.90 186.3092
1048.00 188.6527
1048.10 189.9019
1048.20 191.1399
1048.30 193.2935
1048.40 197.583
1048.50 201.8725
1048.60 205.9427
1048.70 209.8727
1048.80 213.8027
1048.90 215.7275
1049.00 217.454
1049.10 218.9978
1049.20 219.8937
1049.30 220.7895
1049.40 221.5659
1049.50 222.2363
1049.60 222.9067
1049.70 220.246
1049.80 216.9508
1049.90 213.7115
1050.00 210.8156
1050.10 207.9197
1050.20 206.9156
1050.30 208.2239
1050.40 209.5322
1050.50 210.0321
1050.60 210.2766
1050.70 210.4328
1050.80 209.2049
1050.90 207.9771
1051.00 206.3531
1051.10 204.0546
1051.20 201.7562
1051.30 198.0906
1051.40 193.7816
1051.50 189.4727
1051.60 185.1404
1051.70 180.8079
1051.80 177.3386
1051.90 175.9823
1052.00 174.6261
1052.10 174.8688
1052.20 176.1774
1052.30 177.486
1052.40 180.2307
1052.50 183.1175
1052.60 187.1973
1052.70 195.5069
1052.80 203.8165
1052.90 210.3668
1053.00 215.2932
1053.10 220.2195
1053.20 220.4382
1053.30 219.6927
1053.40 218.7676
1053.50 216.7386
1053.60 214.7097
1053.70 213.2829
1053.80 212.5918
1053.90 211.9008
1054.00 211.0803
1054.10 210.2166
1054.20 209.4242
1054.30 209.7473
1054.40 210.0705
1054.50 209.8424
1054.60 208.6756
1054.70 207.5088
1054.80 204.0551
1054.90 199.5252
1055.00 194.9953
1055.10 194.1082
1055.20 193.2956
1055.30 193.8209
1055.40 197.6222
1055.50 201.4234
1055.60 202.3597
1055.70 201.386
1055.80 200.4123
1055.90 194.394
1056.00 187.8768
1056.10 181.8437
1056.20 177.527
1056.30 173.2103
1056.40 170.9567
1056.50 170.6075
1056.60 170.2582
1056.70 172.0243
1056.80 174.2235
1056.90 176.3592
1057.00 178.1042
1057.10 179.8492
1057.20 182.0261
1057.30 184.7309
1057.40 187.4357
1057.50 189.9955
1057.60 192.5095
1057.70 194.9913
1057.80 197.0442
1057.90 199.097
1058.00 200.8595
1058.10 202.1275
1058.20 203.3955
1058.30 204.1709
1058.40 204.7144
1058.50 205.258
1058.60 201.9598
1058.70 198.6227
1058.80 195.0437
1058.90 190.9001
1059.00 186.7564
1059.10 183.4128
1059.20 180.5807
1059.30 177.7486
1059.40 179.5743
1059.50 181.8608
1059.60 184.1887
1059.70 186.6636
1059.80 189.1385
1059.90 190.5831
1060.00 191.114
1060.10 191.6449
1060.20 190.231
1060.30 188.4466
1060.40 186.7022
1060.50 185.1847
1060.60 183.6671
1060.70 182.1985
1060.80 180.7875
1060.90 179.3765
1061.00 177.4547
1061.10 175.3804
1061.20 173.6901
1061.30 177.1015
1061.40 180.5129
1061.50 184.3927
1061.60 189.0368
1061.70 193.681
1061.80 195.488
1061.90 196.0204
1062.00 196.5528
1062.10 192.5025
1062.20 188.4521
1062.30 185.2602
1062.40 183.9791
1062.50 182.698
1062.60 185.8186
1062.70 191.637
1062.80 197.4554
1062.90 205.4371
1063.00 213.5816
1063.10 220.0461
1063.20 221.1906
1063.30 222.3351
1063.40 221.0236
1063.50 217.6198
1063.60 214.2161
1063.70 212.4671
1063.80 211.0101
1063.90 210.5406
1064.00 215.2549
1064.10 219.9692
1064.20 223.4062
1064.30 225.4028
1064.40 227.3993
1064.50 227.9578
1064.60 228.1106
1064.70 228.1386
1064.80 226.9054
1064.90 225.6722
1065.00 225.3327
1065.10 226.3335
1065.20 227.3344
1065.30 225.3454
1065.40 222.1352
1065.50 218.8725
1065.60 213.0393
1065.70 207.2061
1065.80 201.6658
1065.90 196.7202
1066.00 191.7746
1066.10 189.6598
1066.20 189.1373
1066.30 188.6147
1066.40 187.872
1066.50 187.1152
1066.60 185.9889
1066.70 183.7544
1066.80 181.5199
1066.90 178.7001
1067.00 175.4204
1067.10 172.1408
1067.20 172.3623
1067.30 173.1071
1067.40 174.693
1067.50 180.1109
1067.60 185.5287
1067.70 191.716
1067.80 198.7041
1067.90 205.6922
1068.00 209.5767
1068.10 212.6852
1068.20 215.7198
1068.30 218.156
1068.40 220.5921
1068.50 223.3411
1068.60 226.5222
1068.70 229.7033
1068.80 231.2512
1068.90 232.1951
1069.00 233.0223
1069.10 231.0476
1069.20 229.0729
1069.30 226.4694
1069.40 222.6982
1069.50 218.9271
1069.60 215.1761
1069.70 211.4357
1069.80 207.6952
1069.90 206.882
1070.00 206.1594
1070.10 205.5982
1070.20 205.4518
1070.30 205.3054
1070.40 205.0262
1070.50 204.6546
1070.60 204.2831
1070.70 205.5512
1070.80 207.0014
1070.90 208.6462
1071.00 211.0229
1071.10 213.3995
1071.20 214.7195
1071.30 215.0642
1071.40 215.4088
1071.50 216.8016
1071.60 218.4091
1071.70 220.2457
1071.80 223.4896
1071.90 226.7336
1072.00 228.8111
1072.10 229.463
1072.20 230.115
1072.30 227.7239
1072.40 224.3719
1072.50 221.0732
1072.60 218.483
1072.70 215.8928
1072.80 214.3731
1072.90 214.5997
1073.00 214.8264
1073.10 216.7301
1073.20 219.3873
1073.30 222.0445
1073.40 221.1229
1073.50 220.2012
1073.60 219.2496
1073.70 218.2313
1073.80 217.2131
1073.90 218.8085
1074.00 222.0059
1074.10 225.2033
1074.20 229.9941
1074.30 234.9049
1074.40 239.1075
1074.50 241.0672
1074.60 243.027
1074.70 244.4352
1074.80 245.3921
1074.90 246.349
1075.00 245.521
1075.10 244.4025
1075.20 242.4698
1075.30 236.5624
1075.40 230.655
1075.50 225.0503
1075.60 219.7735
1075.70 214.4967
1075.80 215.4332
1075.90 218.0214
1076.00 220.8311
1076.10 225.6349
1076.20 230.4387
1076.30 234.2343
1076.40 236.579
1076.50 238.9238
1076.60 239.0757
1076.70 238.3749
1076.80 237.7279
1076.90 238.817
1077.00 239.9061
1077.10 240.6211
1077.20 240.6099
1077.30 240.5988
1077.40 239.7622
1077.50 238.481
1077.60 237.1999
1077.70 234.3808
1077.80 231.4975
1077.90 229.6113
1078.00 230.4209
1078.10 231.2305
1078.20 232.768
1078.30 234.8325
1078.40 236.8969
1078.50 237.163
1078.60 237.2068
1078.70 236.6034
1078.80 233.4112
1078.90 230.219
1079.00 226.8025
1079.10 223.1704
1079.20 219.5383
1079.30 215.4163
1079.40 211.1867
1079.50 207.2913
1079.60 205.4483
1079.70 203.6053
1079.80 203.3291
1079.90 204.9678
1080.00 206.6066
1080.10 209.6248
1080.20 213.0786
1080.30 216.5682
1080.40 220.5328
1080.50 224.4973
1080.60 228.2069
1080.70 231.5003
1080.80 234.7937
1080.90 236.8687
1081.00 238.3963
1081.10 239.924
1081.20 240.0325
1081.30 240.141
1081.40 240.9822
1081.50 243.4541
1081.60 245.926
1081.70 248.6918
1081.80 251.6378
1081.90 254.5838
1082.00 254.2936
1082.10 253.7598
1082.20 252.4486
1082.30 248.6759
1082.40 244.9032
1082.50 240.8961
1082.60 236.6972
1082.70 232.4983
1082.80 230.6825
1082.90 229.2228
1083.00 228.4951
1083.10 231.1022
1083.20 233.7093
1083.30 238.1907
1083.40 244.6227
1083.50 251.0547
1083.60 255.2396
1083.70 258.8627
1083.80 262.1116
1083.90 262.3329
1084.00 262.5543
1084.10 261.4494
1084.20 258.513
1084.30 255.5766
1084.40 252.3654
1084.50 249.0524
1084.60 245.6777
1084.70 240.8205
1084.80 235.9632
1084.90 232.6097
1085.00 231.9295
1085.10 231.2493
1085.20 231.2853
1085.30 231.6739
1085.40 232.0625
1085.50 232.8179
1085.60 233.5808
1085.70 234.4777
1085.80 235.7025
1085.90 236.9273
1086.00 240.9039
1086.10 246.7152
1086.20 252.5264
1086.30 258.0901
1086.40 263.6293
1086.50 267.7759
1086.60 266.9849
1086.70 266.1939
1086.80 264.5241
1086.90 262.0748
1087.00 259.6256
1087.10 260.9313
1087.20 262.8996
1087.30 264.7129
1087.40 265.7126
1087.50 266.7122
1087.60 265.5032
1087.70 261.8034
1087.80 258.1037
1087.90 256.0073
1088.00 254.3632
1088.10 252.9449
1088.20 253.8096
1088.30 254.6744
1088.40 255.5036
1088.50 256.2796
1088.60 257.0557
1088.70 256.5495
1088.80 255.5196
1088.90 254.5003
1089.00 253.8219
1089.10 253.1436
1089.20 251.3985
1089.30 247.5826
1089.40 243.7667
1089.50 242.2762
1089.60 242.0377
1089.70 241.7993
1089.80 248.8437
1089.90 256.1916
1090.00 263.298
1090.10 269.7518
1090.20 276.2055
1090.30 279.6412
1090.40 280.9798
1090.50 282.3183
1090.60 278.9182
1090.70 274.9917
1090.80 271.0341
1090.90 266.9599
1091.00 262.8858
1091.10 258.5828
1091.20 254.0686
1091.30 249.5543
1091.40 250.2838
1091.50 252.0872
1091.60 254.5531
1091.70 261.0882
1091.80 267.6233
1091.90 272.9069
1092.00 276.7214
1092.10 280.536
1092.20 280.4837
1092.30 279.2765
1092.40 277.9183
1092.50 274.8239
1092.60 271.7295
1092.70 269.4283
1092.80 268.3676
1092.90 267.3069
1093.00 267.1881
1093.10 267.4729
1093.20 267.752
1093.30 267.7522
1093.40 267.7523
1093.50 267.0092
1093.60 264.7571
1093.70 262.5051
1093.80 261.2102
1093.90 260.4537
1094.00 259.6972
1094.10 263.156
1094.20 266.8366
1094.30 269.1168
1094.40 267.4109
1094.50 265.7051
1094.60 261.6888
1094.70 255.9996
1094.80 250.3103
1094.90 247.4343
1095.00 244.9059
1095.10 244.7569
1095.20 254.1251
1095.30 263.4933
1095.40 272.2713
1095.50 280.482
1095.60 288.6928
1095.70 291.5115
1095.80 293.2258
1095.90 294.1759
1096.00 290.4314
1096.10 286.687
1096.20 284.1774
1096.30 283.1771
1096.40 282.1769
1096.50 283.2192
1096.60 284.9065
1096.70 286.2397
1096.80 282.8682
1096.90 279.4968
1097.00 274.1292
1097.10 265.6395
1097.20 257.1497
1097.30 251.036
1097.40 245.9407
1097.50 240.9243
1097.60 243.7251
1097.70 246.5259
1097.80 250.3792
1097.90 256.4689
1098.00 262.5586
1098.10 266.4922
1098.20 269.2131
1098.30 271.9339
1098.40 270.9961
1098.50 269.8658
1098.60 268.2925
1098.70 265.4582
1098.80 262.624
1098.90 260.9066
1099.00 260.0318
1099.10 259.1569
1099.20 261.1843
1099.30 263.5704
1099.40 265.9235
1099.50 268.1446
1099.60 270.3657
1099.70 272.5911
1099.80 274.8206
1099.90 277.05
1100.00 277.2638
1100.10 277.035
1100.20 276.522
1100.30 274.2624
1100.40 272.0029
1100.50 269.404
1100.60 266.3904
1100.70 263.3768
1100.80 261.7012
1100.90 260.4483
1101.00 259.4363
1101.10 261.196
1101.20 262.9556
1101.30 265.0475
1101.40 267.6589
1101.50 270.2703
1101.60 272.3796
1101.70 274.2737
1101.80 276.1236
1101.90 273.5947
1102.00 271.0658
1102.10 267.9476
1102.20 263.6328
1102.30 259.3181
1102.40 256.1172
1102.50 253.5427
1102.60 250.9683
1102.70 254.6114
1102.80 258.5817
1102.90 262.7578
1103.00 267.5195
1103.10 272.2812
1103.20 272.754
1103.30 270.121
1103.40 267.4881
1103.50 259.3972
1103.60 250.6318
1103.70 243.1274
1103.80 240.6675
1103.90 238.2075
1104.00 238.5632
1104.10 241.5179
1104.20 244.4725
1104.30 247.0411
1104.40 249.5305
1104.50 251.9988
1104.60 254.3369
1104.70 256.6751
1104.80 259.5616
1104.90 263.1182
1105.00 266.6749
1105.10 265.5603
1105.20 263.0504
1105.30 260.091
1105.40 251.9627
1105.50 243.8344
1105.60 236.5707
1105.70 230.6593
1105.80 224.748
1105.90 223.912
1106.00 225.1492
1106.10 226.4226
1106.20 229.4698
1106.30 232.517
1106.40 235.6509
1106.50 238.9608
1106.60 242.2708
1106.70 242.8579
1106.80 241.9789
1106.90 241.0998
1107.00 237.3732
1107.10 233.528
1107.20 230.6689
1107.30 230.4759
1107.40 230.2828
1107.50 231.2751
1107.60 233.0911
1107.70 234.9071
1107.80 238.7517
1107.90 242.8217
1108.00 246.3333
1108.10 247.7439
1108.20 249.1544
1108.30 252.9791
1108.40 259.0322
1108.50 265.0852
1108.60 267.7542
1108.70 269.7785
1108.80 271.439
1108.90 271.0374
1109.00 270.6358
1109.10 269.2466
1109.20 266.7438
1109.30 264.2409
1109.40 264.6931
1109.50 265.9788
1109.60 267.4458
1109.70 270.7456
1109.80 274.0454
1109.90 275.8312
1110.00 275.3458
1110.10 274.8604
1110.20 270.5637
1110.30 264.7849
1110.40 259.0089
1110.50 253.3266
1110.60 247.6444
1110.70 243.6605
1110.80 242.9735
1110.90 242.2865
1111.00 241.9584
1111.10 241.815
1111.20 241.6717
1111.30 237.276
1111.40 232.7488
1111.50 228.576
1111.60 225.3144
1111.70 222.0529
1111.80 221.8475
1111.90 223.6797
1112.00 225.5118
1112.10 228.3112
1112.20 231.2062
1112.30 233.7147
1112.40 234.8529
1112.50 235.9911
1112.60 237.7363
1112.70 239.9984
1112.80 242.2606
1112.90 246.4147
1113.00 250.9027
1113.10 255.1621
1113.20 258.3048
1113.30 261.4475
1113.40 263.5989
1113.50 264.6762
1113.60 265.7536
1113.70 263.1908
1113.80 259.6603
1113.90 256.1939
1114.00 253.2458
1114.10 250.2977
1114.20 249.1964
1114.30 250.6456
1114.40 252.0948
1114.50 257.4305
1114.60 264.2036
1114.70 270.7227
1114.80 272.4141
1114.90 274.1056
1115.00 274.4136
1115.10 272.2622
1115.20 270.1108
1115.30 268.409
1115.40 266.9187
1115.50 265.4285
1115.60 265.7119
1115.70 266.0132
1115.80 266.2547
1115.90 266.3566
1116.00 266.4585
1116.10 264.6925
1116.20 261.7818
1116.30 258.8711
1116.40 257.1125
1116.50 255.4406
1116.60 253.7015
1116.70 251.7496
1116.80 249.7977
1116.90 247.6989
1117.00 245.4846
1117.10 243.2704
1117.20 238.7188
1117.30 233.8179
1117.40 229.4001
1117.50 227.1828
1117.60 224.9656
1117.70 224.7521
1117.80 226.1782
1117.90 227.6042
1118.00 229.9964
1118.10 234.7542
1118.20 239.5119
1118.30 244.2567
1118.40 248.5826
1118.50 252.9085
1118.60 257.2344
1118.70 258.8422
1118.80 259.6833
1118.90 260.5244
1119.00 259.4051
1119.10 256.4761
1119.20 253.5472
1119.30 251.217
1119.40 250.5059
1119.50 249.7948
1119.60 249.0844
1119.70 248.4498
1119.80 247.8152
1119.90 247.1806
1120.00 246.9009
1120.10 246.7332
1120.20 246.5656
1120.30 247.2901
1120.40 248.9067
1120.50 250.5233
1120.60 252.3644
1120.70 254.9165
1120.80 257.4685
1120.90 260.0206
1121.00 260.9954
1121.10 261.9543
1121.20 262.9132
1121.30 261.6156
1121.40 259.4833
1121.50 257.3511
1121.60 254.6534
1121.70 251.3432
1121.80 248.0331
1121.90 244.9433
1122.00 242.6351
1122.10 240.3268
1122.20 238.0186
1122.30 240.3695
1122.40 242.8645
1122.50 245.3595
1122.60 250.6761
1122.70 257.1453
1122.80 263.6144
1122.90 267.7978
1123.00 269.2979
1123.10 270.798
1123.20 271.0093
1123.30 266.0652
1123.40 261.1211
1123.50 256.177
1123.60 251.6004
1123.70 247.0432
1123.80 242.486
1123.90 243.6331
1124.00 247.3431
1124.10 251.0531
1124.20 256.2552
1124.30 263.3563
1124.40 270.4574
1124.50 276.6381
1124.60 278.626
1124.70 280.6138
1124.80 282.6016
1124.90 276.4223
1125.00 269.6282
1125.10 262.8341
1125.20 258.8599
1125.30 256.2126
1125.40 253.5653
1125.50 253.3983
1125.60 256.6565
1125.70 259.9147
1125.80 263.1864
1125.90 266.5239
1126.00 269.8614
1126.10 273.1989
1126.20 272.054
1126.30 270.4657
1126.40 268.8775
1126.50 268.4593
1126.60 268.6438
1126.70 268.8284
1126.80 269.4798
1126.90 270.8315
1127.00 272.1832
1127.10 273.1613
1127.20 272.0226
1127.30 270.8839
1127.40 269.7452
1127.50 268.3043
1127.60 266.8297
1127.70 265.3552
1127.80 264.1068
1127.90 262.9855
1128.00 261.8642
1128.10 261.0185
1128.20 260.6037
1128.30 260.1889
1128.40 259.8666
1128.50 260.1124
1128.60 260.3581
1128.70 260.6038
1128.80 261.1944
1128.90 261.8321
1129.00 262.4697
1129.10 262.839
1129.20 263.0508
1129.30 263.2625
1129.40 263.9921
1129.50 265.5663
1129.60 267.1406
1129.70 268.8221
1129.80 271.2898
1129.90 273.7575
1130.00 276.2252
1130.10 276.1538
1130.20 275.703
1130.30 275.2522
1130.40 271.6258
1130.50 266.053
1130.60 260.4802
1130.70 255.8324
1130.80 252.8291
1130.90 249.8257
1131.00 247.2937
1131.10 248.5753
1131.20 249.8569
1131.30 251.1385
1131.40 254.6903
1131.50 258.6116
1131.60 262.533
1131.70 265.727
1131.80 268.456
1131.90 271.185
1132.00 273.2641
1132.10 274.1359
1132.20 275.0078
1132.30 275.6881
1132.40 274.6437
1132.50 273.5994
1132.60 272.5551
1132.70 270.5127
1132.80 268.2941
1132.90 266.0756
1133.00 264.6512
1133.10 263.7561
1133.20 262.8611
1133.30 261.7585
1133.40 260.2529
1133.50 258.7473
1133.60 257.1848
1133.70 255.0471
1133.80 252.9095
1133.90 250.7718
1134.00 244.4535
1134.10 237.3389
1134.20 230.2242
1134.30 225.2525
1134.40 221.7698
1134.50 218.2871
1134.60 217.1007
1134.70 220.3718
1134.80 223.6429
1134.90 227.2017
1135.00 234.0687
1135.10 240.9357
1135.20 247.8026
1135.30 248.7955
1135.40 248.5853
1135.50 248.3751
1135.60 246.1116
1135.70 242.3613
1135.80 238.611
1135.90 236.1439
1136.00 236.282
1136.10 236.4201
1136.20 236.7929
1136.30 239.8654
1136.40 242.9379
1136.50 246.0104
1136.60 246.455
1136.70 246.3614
1136.80 246.2677
1136.90 244.0679
1137.00 240.3428
1137.10 236.6178
1137.20 233.392
1137.30 231.2273
1137.40 229.0626
1137.50 226.8742
1137.60 224.3713
1137.70 221.8683
1137.80 219.3654
1137.90 211.4849
1138.00 202.4241
1138.10 193.3632
1138.20 183.9797
1138.30 174.353
1138.40 164.7262
1138.50 158.7255
1138.60 160.4302
1138.70 162.1349
1138.80 164.5143
1138.90 175.8564
1139.00 187.1984
1139.10 198.5405
1139.20 206.3779
1139.30 213.4459
1139.40 220.5138
1139.50 222.9559
1139.60 221.9081
1139.70 220.8604
1139.80 218.6073
1139.90 213.7928
1140.00 208.9784
1140.10 203.855
1140.20 194.627
1140.30 185.3991
1140.40 176.1712
1140.50 167.3166
1140.60 158.5497
1140.70 149.7827
1140.80 146.126
1140.90 146.3244
1141.00 146.5227
1141.10 150.1192
1141.20 161.2791
1141.30 172.439
1141.40 183.6052
1141.50 194.8694
1141.60 206.1337
1141.70 217.398
1141.80 225.1948
1141.90 232.1783
1142.00 239.1617
1142.10 243.999
1142.20 247.1501
1142.30 250.3012
1142.40 253.1038
1142.50 255.1311
1142.60 257.1584
1142.70 259.0524
1142.80 258.8587
1142.90 258.6651
1143.00 258.4714
1143.10 257.5399
1143.20 256.4464
1143.30 255.353
1143.40 253.9814
1143.50 252.4
1143.60 250.8186
1143.70 249.4102
1143.80 248.3694
1143.90 247.3286
1144.00 246.3694
1144.10 246.4943
1144.20 246.6193
1144.30 246.7442
1144.40 247.1264
1144.50 247.5651
1144.60 248.0037
1144.70 248.7042
1144.80 249.6021
1144.90 250.5
1145.00 251.2806
1145.10 251.8121
1145.20 252.3436
1145.30 252.8398
1145.40 252.8665
1145.50 252.8931
1145.60 252.9198
1145.70 252.289
1145.80 251.5139
1145.90 250.7388
1146.00 251.0442
1146.10 252.1647
1146.20 253.2852
1146.30 255.214
1146.40 258.8602
1146.50 262.5063
1146.60 266.0372
1146.70 268.0366
1146.80 270.0359
1146.90 272.0353
1147.00 271.8767
1147.10 271.2445
1147.20 270.6123
1147.30 269.8431
1147.40 268.9706
1147.50 268.098
1147.60 267.9927
1147.70 269.4451
1147.80 270.8976
1147.90 272.3613
1148.00 273.9548
1148.10 275.5483
1148.20 277.1419
1148.30 276.5888
1148.40 275.5962
1148.50 274.6035
1148.60 274.5358
1148.70 275.1378
1148.80 275.7398
1148.90 276.7574
1149.00 278.6186
1149.10 280.4799
1149.20 282.236
1149.30 282.7833
1149.40 283.3307
1149.50 283.878
1149.60 282.9101
1149.70 281.6535
1149.80 280.3969
1149.90 279.8368
1150.00 279.7606
1150.10 279.6844
1150.20 279.7645
1150.30 280.1481
1150.40 280.5317
1150.50 280.8956
1150.60 281.0607
1150.70 281.2258
1150.80 281.391
1150.90 282.6213
1151.00 284.0545
1151.10 285.4877
1151.20 286.372
1151.30 286.8905
1151.40 287.409
1151.50 287.3452
1151.60 286.1998
1151.70 285.0544
1151.80 283.7933
1151.90 281.4913
1152.00 279.1892
1152.10 276.8872
1152.20 272.8465
1152.30 268.499
1152.40 264.1515
1152.50 260.8521
1152.60 258.2227
1152.70 255.5933
1152.80 254.0231
1152.90 254.3359
1153.00 254.6487
1153.10 255.114
1153.20 256.8133
1153.30 258.5126
1153.40 260.2119
1153.50 261.3016
1153.60 262.2922
1153.70 263.2827
1153.80 265.8676
1153.90 269.4298
1154.00 272.992
1154.10 276.4759
1154.20 279.8266
1154.30 283.1772
1154.40 285.959
1154.50 284.5687
1154.60 283.1785
1154.70 281.7882
1154.80 278.5567
1154.90 275.0501
1155.00 271.5435
1155.10 269.7646
1155.20 269.0003
1155.30 268.2361
1155.40 268.8745
1155.50 271.8014
1155.60 274.7284
1155.70 277.5018
1155.80 279.248
1155.90 280.9942
1156.00 282.7405
1156.10 283.3424
1156.20 283.8029
1156.30 284.2634
1156.40 284.5166
1156.50 284.6532
1156.60 284.7898
1156.70 284.5856
1156.80 283.8485
1156.90 283.1115
1157.00 282.0932
1157.10 279.4817
1157.20 276.8701
1157.30 274.2585
1157.40 272.3491
1157.50 270.5177
1157.60 268.6863
1157.70 268.3969
1157.80 268.9019
1157.90 269.4069
1158.00 270.3736
1158.10 272.0046
1158.20 273.6357
1158.30 275.0571
1158.40 275.3776
1158.50 275.6981
1158.60 276.0186
1158.70 274.6716
1158.80 273.1796
1158.90 271.6877
1159.00 268.8805
1159.10 265.4254
1159.20 261.9704
1159.30 258.6504
1159.40 255.5169
1159.50 252.3833
1159.60 249.4518
1159.70 247.4403
1159.80 245.4288
1159.90 243.4174
1160.00 244.3599
1160.10 245.5248
1160.20 246.6897
1160.30 249.4877
1160.40 253.0193
1160.50 256.5509
1160.60 259.187
1160.70 260.6834
1160.80 262.1798
1160.90 263.5347
1161.00 264.323
1161.10 265.1114
1161.20 265.8998
1161.30 268.4234
1161.40 271.0384
1161.50 273.6534
1161.60 276.2472
1161.70 278.8318
1161.80 281.4165
1161.90 281.8316
1162.00 279.6997
1162.10 277.5678
1162.20 275.3985
1162.30 273.0885
1162.40 270.7785
1162.50 268.4684
1162.60 269.7584
1162.70 271.1598
1162.80 272.5612
1162.90 275.7684
1163.00 279.6779
1163.10 283.5874
1163.20 285.9702
1163.30 286.6989
1163.40 287.4276
1163.50 287.0627
1163.60 283.0365
1163.70 279.0103
1163.80 274.984
1163.90 270.4949
1164.00 266.0011
1164.10 261.5073
1164.20 260.8852
1164.30 261.6234
1164.40 262.3616
1164.50 264.4351
1164.60 267.8439
1164.70 271.2527
1164.80 273.9241
1164.90 274.3832
1165.00 274.8423
1165.10 275.2531
1165.20 270.8782
1165.30 266.5032
1165.40 262.1282
1165.50 258.487
1165.60 255.0649
1165.70 251.6428
1165.80 251.038
1165.90 253.0336
1166.00 255.0292
1166.10 257.5744
1166.20 261.5326
1166.30 265.4909
1166.40 269.3781
1166.50 270.9701
1166.60 272.5621
1166.70 274.1541
1166.80 273.4889
1166.90 272.2238
1167.00 270.9586
1167.10 269.3942
1167.20 267.5748
1167.30 265.7555
1167.40 263.86
1167.50 261.7868
1167.60 259.7136
1167.70 257.6655
1167.80 256.0105
1167.90 254.3554
1168.00 252.7003
1168.10 250.2231
1168.20 247.553
1168.30 244.8829
1168.40 240.2402
1168.50 234.1095
1168.60 227.9787
1168.70 220.11
1168.80 208.5485
1168.90 196.9871
1169.00 185.3541
1169.10 172.8997
1169.20 160.4453
1169.30 147.9908
1169.40 144.4533
1169.50 142.6141
1169.60 140.775
1169.70 146.3166
1169.80 156.9873
1169.90 167.658
1170.00 179.5982
1170.10 193.8961
1170.20 208.194
1170.30 221.8761
1170.40 230.5764
1170.50 239.2767
1170.60 247.977
1170.70 252.1311
1170.80 255.5451
1170.90 258.9591
1171.00 260.6747
1171.10 261.3494
1171.20 262.0241
1171.30 262.5966
1171.40 263.0023
1171.50 263.408
1171.60 263.7196
1171.70 263.402
1171.80 263.0844
1171.90 262.7669
1172.00 262.118
1172.10 261.4282
1172.20 260.7384
1172.30 260.4788
1172.40 260.4507
1172.50 260.4227
1172.60 261.0446
1172.70 262.6415
1172.80 264.2385
1172.90 265.7922
1173.00 267.1194
1173.10 268.4465
1173.20 269.7736
1173.30 269.5027
1173.40 269.0929
1173.50 268.683
1173.60 267.6076
1173.70 266.219
1173.80 264.8304
1173.90 263.6462
1174.00 262.733
1174.10 261.8198
1174.20 261.3885
1174.30 263.0116
1174.40 264.6348
1174.50 266.2579
1174.60 267.1766
1174.70 268.0581
1174.80 268.9396
1174.90 267.9385
1175.00 266.1683
1175.10 264.3982
1175.20 261.5533
1175.30 257.4467
1175.40 253.3401
1175.50 249.6865
1175.60 247.6391
1175.70 245.5916
1175.80 243.5442
1175.90 242.6211
1176.00 241.7209
1176.10 240.8207
1176.20 238.9099
1176.30 236.644
1176.40 234.3781
1176.50 230.3772
1176.60 224.5705
1176.70 218.7639
1176.80 211.4038
1176.90 199.3834
1177.00 187.363
1177.10 175.3103
1177.20 160.0549
1177.30 144.7994
1177.40 129.544
1177.50 120.8032
1177.60 114.0083
1177.70 107.2134
1177.80 108.1003
1177.90 115.7995
1178.00 123.4987
1178.10 133.0798
1178.20 147.4999
1178.30 161.9201
1178.40 176.2302
1178.50 187.901
1178.60 199.5717
1178.70 211.2424
1178.80 218.9012
1178.90 225.5569
1179.00 232.2127
1179.10 236.771
1179.20 239.6812
1179.30 242.5914
1179.40 244.864
1179.50 245.7815
1179.60 246.6991
1179.70 247.6564
1179.80 249.0713
1179.90 250.4861
1180.00 251.901
1180.10 254.1876
1180.20 256.6528
1180.30 259.118
1180.40 260.9254
1180.50 262.2757
1180.60 263.626
1180.70 264.2702
1180.80 263.6029
1180.90 262.9357
1181.00 262.1317
1181.10 260.2217
1181.20 258.3116
1181.30 256.4015
1181.40 254.7493
1181.50 253.1356
1181.60 251.522
1181.70 251.2051
1181.80 251.6498
1181.90 252.0945
1182.00 252.9375
1182.10 254.4037
1182.20 255.8698
1182.30 257.1963
1182.40 257.7314
1182.50 258.2664
1182.60 258.8015
1182.70 258.75
1182.80 258.6405
1182.90 258.531
1183.00 258.7968
1183.10 259.2475
1183.20 259.6981
1183.30 259.3487
1183.40 257.8945
1183.50 256.4403
1183.60 254.6971
1183.70 251.6377
1183.80 248.5783
1183.90 245.5189
1184.00 245.971
1184.10 246.6472
1184.20 247.3235
1184.30 250.0748
1184.40 253.7156
1184.50 257.3563
1184.60 259.4992
1184.70 259.884
1184.80 260.2687
1184.90 259.9367
1185.00 257.0635
1185.10 254.1903
1185.20 251.317
1185.30 250.4637
1185.40 249.6516
1185.50 248.8396
1185.60 250.2057
1185.70 252.3372
1185.80 254.4687
1185.90 256.2199
1186.00 257.5909
1186.10 258.9618
1186.20 260.1043
1186.30 260.5965
1186.40 261.0888
1186.50 261.5537
1186.60 260.6797
1186.70 259.8058
1186.80 258.9319
1186.90 257.8267
1187.00 256.6564
1187.10 255.486
1187.20 254.8515
1187.30 254.6734
1187.40 254.4954
1187.50 254.8169
1187.60 256.3041
1187.70 257.7913
1187.80 259.1409
1187.90 258.3351
1188.00 257.5294
1188.10 256.7236
1188.20 252.1779
1188.30 246.8113
1188.40 241.4446
1188.50 236.6636
1188.60 232.3068
1188.70 227.9499
1188.80 225.7468
1188.90 227.7246
1189.00 229.7023
1189.10 231.9486
1189.20 236.6112
1189.30 241.2739
1189.40 245.9366
1189.50 248.8878
1189.60 251.5604
1189.70 254.233
1189.80 255.5258
1189.90 255.9729
1190.00 256.42
1190.10 256.8959
1190.20 257.4188
1190.30 257.9416
1190.40 258.1783
1190.50 256.7928
1190.60 255.4074
1190.70 254.022
1190.80 253.7372
1190.90 253.5613
1191.00 253.3854
1191.10 253.9527
1191.20 254.8859
1191.30 255.8192
1191.40 257.1327
1191.50 258.9504
1191.60 260.7681
1191.70 262.3238
1191.80 262.7625
1191.90 263.2013
1192.00 263.64
1192.10 263.6922
1192.20 263.724
1192.30 263.7558
1192.40 263.2946
1192.50 262.6321
1192.60 261.9695
1192.70 261.5029
1192.80 261.2573
1192.90 261.0117
1193.00 260.9913
1193.10 261.7245
1193.20 262.4577
1193.30 263.191
1193.40 262.2968
1193.50 261.4026
1193.60 260.5084
1193.70 257.2345
1193.80 253.2091
1193.90 249.1838
1194.00 245.579
1194.10 242.3623
1194.20 239.1456
1194.30 236.5322
1194.40 235.4699
1194.50 234.4077
1194.60 233.2996
1194.70 231.0907
1194.80 228.8818
1194.90 226.6728
1195.00 224.3304
1195.10 221.9546
1195.20 219.5788
1195.30 219.7425
1195.40 221.9015
1195.50 224.0606
1195.60 226.4412
1195.70 229.2716
1195.80 232.102
1195.90 234.5851
1196.00 233.5571
1196.10 232.529
1196.20 231.501
1196.30 228.715
1196.40 225.6187
1196.50 222.5224
1196.60 221.1304
1196.70 220.828
1196.80 220.5257
1196.90 219.7986
1197.00 218.3484
1197.10 216.8981
1197.20 214.9943
1197.30 210.3042
1197.40 205.614
1197.50 200.9238
1197.60 196.3539
1197.70 191.7973
1197.80 187.2407
1197.90 185.7302
1198.00 185.7889
1198.10 185.8475
1198.20 187.5962
1198.30 191.6785
1198.40 195.7609
1198.50 199.839
1198.60 203.8975
1198.70 207.956
1198.80 212.0145
1198.90 212.0234
1199.00 211.8191
1199.10 211.6148
1199.20 208.8096
1199.30 204.942
1199.40 201.0745
1199.50 198.0554
1199.60 195.9931
1199.70 193.9308
1199.80 192.6387
1199.90 193.9249
1200.00 195.2112
1200.10 196.4974
1200.20 196.9085
1200.30 197.3196
1200.40 197.7307
1200.50 198.9157
1200.60 200.3451
1200.70 201.7745
1200.80 203.4695
1200.90 205.4096
1201.00 207.3497
1201.10 208.9182
1201.20 209.5309
1201.30 210.1436
1201.40 210.6661
1201.50 209.4724
1201.60 208.2787
1201.70 207.085
1201.80 206.7591
1201.90 206.6366
1202.00 206.5142
1202.10 207.0768
1202.20 208.1562
1202.30 209.2356
1202.40 209.7825
1202.50 209.2956
1202.60 208.8087
1202.70 208.25
1202.80 207.0448
1202.90 205.8396
1203.00 204.6344
1203.10 204.1291
1203.20 203.7378
1203.30 203.3466
1203.40 205.5539
1203.50 209.2873
1203.60 213.0208
1203.70 217.1885
1203.80 222.0353
1203.90 226.8821
1204.00 231.415
1204.10 234.169
1204.20 236.923
1204.30 239.677
1204.40 237.9184
1204.50 235.7674
1204.60 233.6164
1204.70 231.6911
1204.80 229.872
1204.90 228.0529
1205.00 227.5883
1205.10 228.8477
1205.20 230.1072
1205.30 231.8433
1205.40 235.3727
1205.50 238.9021
1205.60 242.4316
1205.70 245.0146
1205.80 247.5684
1205.90 250.1221
1206.00 251.2895
1206.10 251.9442
1206.20 252.5989
1206.30 252.4507
1206.40 251.4996
1206.50 250.5485
1206.60 249.0311
1206.70 245.9019
1206.80 242.7728
1206.90 239.7425
1207.00 239.9061
1207.10 240.0697
1207.20 240.2333
1207.30 242.9818
1207.40 246.4175
1207.50 249.8531
1207.60 254.002
1207.70 258.7344
1207.80 263.4668
1207.90 266.8906
1208.00 267.5336
1208.10 268.1767
1208.20 268.6745
1208.30 267.5024
1208.40 266.3302
1208.50 265.1581
1208.60 261.0623
1208.70 256.4096
1208.80 251.7569
1208.90 245.9663
1209.00 239.4482
1209.10 232.93
1209.20 228.1562
1209.30 226.3523
1209.40 224.5485
1209.50 223.8909
1209.60 230.2748
1209.70 236.6587
1209.80 243.0426
1209.90 249.0862
1210.00 255.092
1210.10 261.0978
1210.20 260.332
1210.30 256.231
1210.40 252.13
1210.50 246.0961
1210.60 237.4998
1210.70 228.9036
1210.80 220.7846
1210.90 214.7004
1211.00 208.6162
1211.10 202.532
1211.20 202.3572
1211.30 202.4287
1211.40 202.5002
1211.50 204.6768
1211.60 207.672
1211.70 210.6673
1211.80 214.4595
1211.90 219.0813
1212.00 223.703
1212.10 228.6307
1212.20 234.4762
1212.30 240.3216
1212.40 246.1039
1212.50 248.7873
1212.60 251.4707
1212.70 254.1541
1212.80 252.24
1212.90 249.0293
1213.00 245.8185
1213.10 240.7185
1213.20 234.0728
1213.30 227.4271
1213.40 223.1762
1213.50 224.256
1213.60 225.3358
1213.70 226.9597
1213.80 234.8404
1213.90 242.7211
1214.00 250.6018
1214.10 256.6858
1214.20 262.4276
1214.30 268.1693
1214.40 269.7597
1214.50 268.6959
1214.60 267.6322
1214.70 266.4255
1214.80 264.9754
1214.90 263.5253
1215.00 262.3604
1215.10 262.9471
1215.20 263.5339
1215.30 264.1206
1215.40 263.7975
1215.50 263.3733
1215.60 262.9491
1215.70 261.1446
1215.80 258.6602
1215.90 256.1759
1216.00 254.3518
1216.10 253.3681
1216.20 252.3845
1216.30 251.7585
1216.40 252.5634
1216.50 253.3684
1216.60 254.1733
1216.70 256.1808
1216.80 258.2255
1216.90 260.2701
1217.00 261.9762
1217.10 263.5569
1217.20 265.1377
1217.30 265.8289
1217.40 265.6304
1217.50 265.4319
1217.60 265.037
1217.70 264.083
1217.80 263.1289
1217.90 262.2589
1218.00 264.1074
1218.10 265.9559
1218.20 267.8044
1218.30 270.5396
1218.40 273.4965
1218.50 276.4534
1218.60 277.4385
1218.70 276.8745
1218.80 276.3104
1218.90 274.8451
1219.00 271.55
1219.10 268.2549
1219.20 265.252
1219.30 265.2044
1219.40 265.1567
1219.50 265.109
1219.60 265.2197
1219.70 265.3561
1219.80 265.4925
1219.90 265.1313
1220.00 264.4779
1220.10 263.8244
1220.20 263.2478
1220.30 262.7913
1220.40 262.3348
1220.50 262.3203
1220.60 264.6263
1220.70 266.9323
1220.80 269.2383
1220.90 269.1843
1221.00 268.9251
1221.10 268.6659
1221.20 265.4534
1221.30 260.9141
1221.40 256.3748
1221.50 252.1076
1221.60 248.1597
1221.70 244.2117
1221.80 241.0328
1221.90 240.5799
1222.00 240.1271
1222.10 239.6743
1222.20 240.8352
1222.30 242.0123
1222.40 243.1895
1222.50 243.6105
1222.60 243.7928
1222.70 243.975
1222.80 245.6069
1222.90 248.5768
1223.00 251.5468
1223.10 255.486
1223.20 261.7983
1223.30 268.1106
1223.40 274.3165
1223.50 278.8559
1223.60 283.3952
1223.70 287.9346
1223.80 288.4798
1223.90 288.1483
1224.00 287.8167
1224.10 285.9107
1224.20 282.9104
1224.30 279.9102
1224.40 277.6068
1224.50 276.5421
1224.60 275.4775
1224.70 274.6958
1224.80 275.9895
1224.90 277.2833
1225.00 278.577
1225.10 281.0411
1225.20 283.65
1225.30 286.2588
1225.40 287.2867
1225.50 287.5003
1225.60 287.7139
1225.70 286.7896
1225.80 284.357
1225.90 281.9244
1226.00 279.6285
1226.10 277.9152
1226.20 276.202
1226.30 274.4888
1226.40 276.2908
1226.50 278.2394
1226.60 280.1879
1226.70 282.7003
1226.80 285.4212
1226.90 288.1421
1227.00 289.1938
1227.10 288.5081
1227.20 287.8224
1227.30 286.6334
1227.40 284.0121
1227.50 281.3909
1227.60 278.8744
1227.70 279.7457
1227.80 280.617
1227.90 281.4883
1228.00 283.9417
1228.10 286.7908
1228.20 289.6398
1228.30 290.9748
1228.40 291.1202
1228.50 291.2657
1228.60 290.3808
1228.70 287.4043
1228.80 284.4277
1228.90 281.4558
1229.00 278.5261
1229.10 275.5964
1229.20 272.6668
1229.30 270.2861
1229.40 267.9875
1229.50 265.6888
1229.60 263.2113
1229.70 260.6287
1229.80 258.046
1229.90 256.7863
1230.00 257.5109
1230.10 258.2355
1230.20 259.6421
1230.30 264.3786
1230.40 269.115
1230.50 273.8515
1230.60 277.6667
1230.70 281.423
1230.80 285.1794
1230.90 285.4565
1231.00 284.3125
1231.10 283.1685
1231.20 281.0873
1231.30 277.9493
1231.40 274.8112
1231.50 272.3557
1231.60 272.0614
1231.70 271.7671
1231.80 271.4735
1231.90 271.2443
1232.00 271.0151
1232.10 270.7859
1232.20 270.6081
1232.30 270.4447
1232.40 270.2813
1232.50 270.0889
1232.60 269.8725
1232.70 269.6562
1232.80 269.4331
1232.90 269.195
1233.00 268.9569
1233.10 268.5374
1233.20 266.0311
1233.30 263.5249
1233.40 261.0187
1233.50 259.9831
1233.60 259.207
1233.70 258.4309
1233.80 259.2431
1233.90 261.0288
1234.00 262.8145
1234.10 264.3763
1234.20 265.5878
1234.30 266.7992
1234.40 267.5597
1234.50 265.9524
1234.60 264.3451
1234.70 262.7377
1234.80 262.7498
1234.90 262.9028
1235.00 263.0557
1235.10 265.2113
1235.20 268.2667
1235.30 271.3221
1235.40 273.1775
1235.50 273.6241
1235.60 274.0706
1235.70 273.7275
1235.80 270.7406
1235.90 267.7538
1236.00 264.7669
1236.10 263.83
1236.20 262.8931
1236.30 261.9562
1236.40 263.7047
1236.50 266.2553
1236.60 268.8059
1236.70 271.7388
1236.80 274.9975
1236.90 278.2561
1237.00 280.0832
1237.10 278.7238
1237.20 277.3643
1237.30 275.8133
1237.40 271.7168
1237.50 267.6202
1237.60 263.5237
1237.70 260.8812
1237.80 258.5157
1237.90 256.1502
1238.00 257.0125
1238.10 259.9383
1238.20 262.8642
1238.30 265.574
1238.40 267.9314
1238.50 270.2887
1238.60 271.601
1238.70 266.9907
1238.80 262.3805
1238.90 257.7702
1239.00 249.619
1239.10 241.1599
1239.20 232.7008
1239.30 227.5475
1239.40 223.8795
1239.50 220.2115
1239.60 219.1962
1239.70 221.2949
1239.80 223.3935
1239.90 225.6169
1240.00 228.2577
1240.10 230.8986
1240.20 233.5394
1240.30 232.3079
1240.40 231.0763
1240.50 229.8447
1240.60 228.6533
1240.70 227.4738
1240.80 226.2943
1240.90 226.4873
1241.00 227.8973
1241.10 229.3074
1241.20 231.3519
1241.30 234.8767
1241.40 238.4016
1241.50 241.6598
1241.60 241.3753
1241.70 241.0908
1241.80 240.8063
1241.90 237.8035
1242.00 234.283
1242.10 230.7625
1242.20 227.3205
1242.30 223.9287
1242.40 220.5369
1242.50 217.9565
1242.60 216.6999
1242.70 215.4433
1242.80 213.5982
1242.90 208.4181
1243.00 203.2379
1243.10 198.0578
1243.20 189.6986
1243.30 181.0628
1243.40 172.4271
1243.50 166.5417
1243.60 161.892
1243.70 157.2422
1243.80 157.1742
1243.90 162.4847
1244.00 167.7953
1244.10 174.0138
1244.20 183.272
1244.30 192.5302
1244.40 201.7885
1244.50 208.9264
1244.60 216.0644
1244.70 223.2023
1244.80 228.6043
1244.90 233.4877
1245.00 238.3711
1245.10 242.6802
1245.20 246.4999
1245.30 250.3197
1245.40 253.5909
1245.50 255.641
1245.60 257.6911
1245.70 259.5501
1245.80 259.2108
1245.90 258.8715
1246.00 258.5322
1246.10 255.8544
1246.20 252.7639
1246.30 249.6735
1246.40 247.982
1246.50 247.1479
1246.60 246.3139
1246.70 246.848
1246.80 249.522
1246.90 252.196
1247.00 254.9742
1247.10 258.2992
1247.20 261.6242
1247.30 264.9493
1247.40 264.4163
1247.50 263.5929
1247.60 262.7695
1247.70 261.4146
1247.80 259.8317
1247.90 258.2489
1248.00 256.8025
1248.10 255.51
1248.20 254.2174
1248.30 253.0235
1248.40 252.1421
1248.50 251.2607
1248.60 250.3983
1248.70 250.4698
1248.80 250.5412
1248.90 250.6127
1249.00 251.468
1249.10 252.5318
1249.20 253.5956
1249.30 254.1217
1249.40 254.2254
1249.50 254.3292
1249.60 254.0742
1249.70 253.0911
1249.80 252.1079
1249.90 251.1743
1250.00 250.6866
1250.10 250.199
1250.20 249.7113
1250.30 250.2025
1250.40 250.8399
1250.50 251.4773
1250.60 251.0939
1250.70 250.1364
1250.80 249.179
1250.90 247.9139
1251.00 246.2061
1251.10 244.4983
1251.20 242.5759
1251.30 239.6756
1251.40 236.7753
1251.50 233.875
1251.60 230.6636
1251.70 227.4358
1251.80 224.208
1251.90 216.734
1252.00 207.6086
1252.10 198.4832
1252.20 188.0819
1252.30 176.3526
1252.40 164.6233
1252.50 155.1334
1252.60 151.6984
1252.70 148.2635
1252.80 145.4013
1252.90 156.2884
1253.00 167.1754
1253.10 178.0625
1253.20 191.3431
1253.30 205.1851
1253.40 219.0271
1253.50 228.8323
1253.60 235.7142
1253.70 242.5961
1253.80 248.2607
1253.90 251.6645
1254.00 255.0684
1254.10 258.3264
1254.20 260.5155
1254.30 262.7045
1254.40 264.8936
1254.50 264.7553
1254.60 264.3293
1254.70 263.9033
1254.80 262.6359
1254.90 260.9352
1255.00 259.2344
1255.10 258.9098
1255.20 260.4094
1255.30 261.909
1255.40 264.0287
1255.50 268.4812
1255.60 272.9336
1255.70 277.3861
1255.80 279.5963
1255.90 281.7607
1256.00 283.9251
1256.10 284.2527
1256.20 283.9681
1256.30 283.6834
1256.40 281.9542
1256.50 278.8914
1256.60 275.8286
1256.70 273.1659
1256.80 271.4827
1256.90 269.7995
1257.00 268.2122
1257.10 268.1287
1257.20 268.0452
1257.30 267.9616
1257.40 268.8142
1257.50 269.845
1257.60 270.8759
1257.70 271.7641
1257.80 272.5611
1257.90 273.3582
1258.00 274.6277
1258.10 276.668
1258.20 278.7083
1258.30 280.7914
1258.40 283.1169
1258.50 285.4423
1258.60 287.7678
1258.70 286.8418
1258.80 285.6331
1258.90 284.4243
1259.00 280.6044
1259.10 275.6654
1259.20 270.7265
1259.30 267.0267
1259.40 264.7244
1259.50 262.4221
1259.60 261.0673
1259.70 262.713
1259.80 264.3588
1259.90 266.0176
1260.00 268.9747
1260.10 271.9319
1260.20 274.889
1260.30 276.1712
1260.40 276.9809
1260.50 277.7906
1260.60 279.0865
1260.70 280.7644
1260.80 282.4423
1260.90 284.8311
1261.00 288.6631
1261.10 292.495
1261.20 296.2534
1261.30 299.3492
1261.40 302.4451
1261.50 305.5409
1261.60 304.109
1261.70 302.0005
1261.80 299.8921
1261.90 295.7719
1262.00 290.52
1262.10 285.2682
1262.20 281.5679
1262.30 280.0102
1262.40 278.4524
1262.50 277.5755
1262.60 279.601
1262.70 281.6266
1262.80 283.6522
1262.90 284.031
1263.00 284.3412
1263.10 284.6513
1263.20 283.9088
1263.30 282.7768
1263.40 281.6448
1263.50 280.7901
1263.60 280.2018
1263.70 279.6134
1263.80 278.8014
1263.90 277.414
1264.00 276.0265
1264.10 274.5896
1264.20 272.2118
1264.30 269.8339
1264.40 267.4561
1264.50 265.9987
1264.60 264.7433
1264.70 263.4878
1264.80 264.0775
1264.90 265.8973
1265.00 267.7171
1265.10 269.8267
1265.20 272.4297
1265.30 275.0328
1265.40 277.5511
1265.50 279.5479
1265.60 281.5446
1265.70 283.5414
1265.80 283.5309
1265.90 283.3458
1266.00 283.1607
1266.10 282.5207
1266.20 281.6764
1266.30 280.832
1266.40 280.6598
1266.50 281.2764
1266.60 281.8931
1266.70 282.4622
1266.80 282.8721
1266.90 283.2819
1267.00 283.7074
1267.10 285.6842
1267.20 287.6609
1267.30 289.6377
1267.40 291.0075
1267.50 292.2062
1267.60 293.4048
1267.70 294.4653
1267.80 295.4127
1267.90 296.3602
1268.00 296.183
1268.10 293.7224
1268.20 291.2618
1268.30 288.8818
1268.40 287.2265
1268.50 285.5712
1268.60 283.916
1268.70 284.1537
1268.80 284.6742
1268.90 285.1948
1269.00 286.8788
1269.10 289.2172
1269.20 291.5556
1269.30 292.8154
1269.40 292.5855
1269.50 292.3557
1269.60 291.7017
1269.70 289.2392
1269.80 286.7767
1269.90 284.3142
1270.00 282.0154
1270.10 279.7234
1270.20 277.4314
1270.30 276.2563
1270.40 275.4738
1270.50 274.6912
1270.60 274.7752
1270.70 275.6917
1270.80 276.6083
1270.90 278.044
1271.00 280.8146
1271.10 283.5851
1271.20 286.3584
1271.30 289.1742
1271.40 291.9899
1271.50 294.8057
1271.60 295.8297
1271.70 296.4867
1271.80 297.1436
1271.90 296.6135
1272.00 295.3245
1272.10 294.0355
1272.20 293.169
1272.30 292.9919
1272.40 292.8148
1272.50 292.6847
1272.60 292.8202
1272.70 292.9558
1272.80 293.0913
1272.90 293.2535
1273.00 293.4178
1273.10 293.582
1273.20 293.1991
1273.30 292.5817
1273.40 291.9642
1273.50 291.0706
1273.60 289.8654
1273.70 288.6602
1273.80 287.0035
1273.90 283.9919
1274.00 280.9804
1274.10 277.9842
1274.20 275.7409
1274.30 273.4975
1274.40 271.2542
1274.50 272.5106
1274.60 274.6972
1274.70 276.8839
1274.80 280.2962
1274.90 284.6329
1275.00 288.9697
1275.10 292.0772
1275.20 292.7981
1275.30 293.5191
1275.40 294.0294
1275.50 292.9949
1275.60 291.9604
1275.70 290.9259
1275.80 291.7394
1275.90 292.7813
1276.00 293.8232
1276.10 295.7122
1276.20 298.0376
1276.30 300.363
1276.40 300.8161
1276.50 298.8862
1276.60 296.9564
1276.70 295.1669
1276.80 293.9053
1276.90 292.6437
1277.00 291.3822
1277.10 292.5756
1277.20 293.8192
1277.30 295.0627
1277.40 297.3987
1277.50 300.0796
1277.60 302.7604
1277.70 303.0829
1277.80 301.3138
1277.90 299.5448
1278.00 297.4243
1278.10 294.5216
1278.20 291.6188
1278.30 288.6837
1278.40 285.3752
1278.50 282.0668
1278.60 278.7583
1278.70 278.928
1278.80 279.6639
1278.90 280.3999
1279.00 282.0591
1279.10 284.2606
1279.20 286.4621
1279.30 289.202
1279.40 292.7496
1279.50 296.2971
1279.60 299.2711
1279.70 299.6321
1279.80 299.9931
1279.90 300.3542
1280.00 300.0869
1280.10 299.7866
1280.20 299.4863
1280.30 297.8981
1280.40 295.8335
1280.50 293.7689
1280.60 291.6164
1280.70 289.3761
1280.80 287.1357
1280.90 284.9278
1281.00 282.8035
1281.10 280.6791
1281.20 278.6605
1281.30 278.6496
1281.40 278.6388
1281.50 278.6279
1281.60 279.0747
1281.70 279.6153
1281.80 280.1558
1281.90 281.142
1282.00 282.4253
1282.10 283.7087
1282.20 284.8499
1282.30 285.7592
1282.40 286.6685
1282.50 287.562
1282.60 288.3661
1282.70 289.1701
1282.80 289.9742
1282.90 289.8637
1283.00 289.6737
1283.10 289.4837
1283.20 289.5519
1283.30 289.7308
1283.40 289.9096
1283.50 289.8305
1283.60 289.4604
1283.70 289.0904
1283.80 288.853
1283.90 289.0137
1284.00 289.1744
1284.10 289.3344
1284.20 289.4646
1284.30 289.5948
1284.40 289.725
1284.50 289.8041
1284.60 289.8703
1284.70 289.9365
1284.80 290.4193
1284.90 291.2163
1285.00 292.0132
1285.10 292.7796
1285.20 293.4892
1285.30 294.1988
1285.40 294.4719
1285.50 291.5437
1285.60 288.6155
1285.70 285.6873
1285.80 281.7082
1285.90 277.6123
1286.00 273.5164
1286.10 270.9096
1286.20 269.0361
1286.30 267.1626
1286.40 266.9509
1286.50 268.7703
1286.60 270.5896
1286.70 272.5932
1286.80 275.2499
1286.90 277.9066
1287.00 280.5633
1287.10 285.0173
1287.20 289.4713
1287.30 293.9253
1287.40 295.048
1287.50 295.1757
1287.60 295.3033
1287.70 293.0143
1287.80 288.7479
1287.90 284.4815
1288.00 280.249
1288.10 276.0882
1288.20 271.9274
1288.30 268.2326
1288.40 268.7314
1288.50 269.2303
1288.60 269.7291
1288.70 271.7748
1288.80 274.0516
1288.90 276.3284
1289.00 279.2225
1289.10 282.4488
1289.20 285.6752
1289.30 288.4118
1289.40 290.472
1289.50 292.5321
1289.60 294.2325
1289.70 294.4938
1289.80 294.7551
1289.90 295.0164
1290.00 291.9226
1290.10 288.7602
1290.20 285.5979
1290.30 283.5343
1290.40 281.8369
1290.50 280.1396
1290.60 279.1132
1290.70 278.682
1290.80 278.2508
1290.90 278.2964
1291.00 279.4544
1291.10 280.6124
1291.20 281.714
1291.30 282.1679
1291.40 282.6217
1291.50 283.0755
1291.60 283.0203
1291.70 282.8754
1291.80 282.7304
1291.90 282.7201
1292.00 282.789
1292.10 282.8579
1292.20 283.6421
1292.30 285.4993
1292.40 287.3565
1292.50 289.0545
1292.60 290.0273
1292.70 291.0001
1292.80 291.973
1292.90 290.0624
1293.00 288.0318
1293.10 286.0011
1293.20 283.3374
1293.30 280.4396
1293.40 277.5417
1293.50 276.9211
1293.60 278.4882
1293.70 280.0554
1293.80 281.7791
1293.90 283.9052
1294.00 286.0313
1294.10 288.0656
1294.20 288.6615
1294.30 289.2575
1294.40 289.8534
1294.50 289.1211
1294.60 288.1168
1294.70 287.1125
1294.80 287.8972
1294.90 289.8258
1295.00 291.7544
1295.10 293.1811
1295.20 293.823
1295.30 294.4648
1295.40 294.5924
1295.50 292.02
1295.60 289.4475
1295.70 286.8751
1295.80 282.3353
1295.90 277.6699
1296.00 273.0045
1296.10 271.5427
1296.20 271.3894
1296.30 271.2362
1296.40 272.0925
1296.50 273.9996
1296.60 275.9068
1296.70 277.7642
1296.80 279.4871
1296.90 281.21
1297.00 282.8488
1297.10 282.4688
1297.20 282.0888
1297.30 281.7088
1297.40 282.1672
1297.50 282.8097
1297.60 283.4521
1297.70 283.9331
1297.80 284.3019
1297.90 284.6707
1298.00 284.9991
1298.10 285.2587
1298.20 285.5183
1298.30 285.7992
1298.40 286.2004
1298.50 286.6016
1298.60 287.0028
1298.70 290.0762
1298.80 293.382
1298.90 296.6877
1299.00 298.9579
1299.10 300.7843
1299.20 302.6107
1299.30 303.6393
1299.40 303.7684
1299.50 303.8974
1299.60 303.2296
1299.70 300.171
1299.80 297.1125
1299.90 294.0495
