# Version 2.1 - nm, norm@500 to 1, cut digits
# Wavelength(nm)  Flambda(ergs/cm^s/s/nm)
300.00 1.405202e-95
300.10 1.405202e-95
300.20 1.405202e-95
300.30 1.405202e-95
300.40 1.405202e-95
300.50 1.405202e-95
300.60 1.405202e-95
300.70 1.405202e-95
300.80 1.405202e-95
300.90 1.405202e-95
301.00 1.405202e-95
301.10 1.405202e-95
301.20 1.405202e-95
301.30 1.405202e-95
301.40 1.405202e-95
301.50 1.405202e-95
301.60 1.405202e-95
301.70 1.405202e-95
301.80 1.405202e-95
301.90 1.405202e-95
302.00 1.405202e-95
302.10 1.405202e-95
302.20 1.405202e-95
302.30 1.405202e-95
302.40 1.405202e-95
302.50 1.405202e-95
302.60 1.405202e-95
302.70 1.405202e-95
302.80 1.405202e-95
302.90 1.405202e-95
303.00 1.405202e-95
303.10 1.405202e-95
303.20 1.405202e-95
303.30 1.405202e-95
303.40 1.405202e-95
303.50 1.405202e-95
303.60 1.405202e-95
303.70 1.405202e-95
303.80 1.405202e-95
303.90 1.405202e-95
304.00 1.405202e-95
304.10 1.405202e-95
304.20 1.405202e-95
304.30 1.405202e-95
304.40 1.405202e-95
304.50 1.405202e-95
304.60 1.405202e-95
304.70 1.405202e-95
304.80 1.405202e-95
304.90 1.405202e-95
305.00 1.405202e-95
305.10 1.405202e-95
305.20 1.405202e-95
305.30 1.405202e-95
305.40 1.405202e-95
305.50 1.405202e-95
305.60 1.405202e-95
305.70 1.405202e-95
305.80 1.405202e-95
305.90 1.405202e-95
306.00 1.405202e-95
306.10 1.405202e-95
306.20 1.405202e-95
306.30 1.405202e-95
306.40 1.405202e-95
306.50 1.405202e-95
306.60 1.405202e-95
306.70 1.405202e-95
306.80 1.405202e-95
306.90 1.405202e-95
307.00 1.405202e-95
307.10 1.405202e-95
307.20 1.405202e-95
307.30 1.405202e-95
307.40 1.405202e-95
307.50 1.405202e-95
307.60 1.405202e-95
307.70 1.405202e-95
307.80 1.405202e-95
307.90 1.405202e-95
308.00 1.405202e-95
308.10 1.405202e-95
308.20 1.405202e-95
308.30 1.405202e-95
308.40 1.405202e-95
308.50 1.405202e-95
308.60 1.405202e-95
308.70 1.405202e-95
308.80 1.405202e-95
308.90 1.405202e-95
309.00 1.405202e-95
309.10 1.405202e-95
309.20 1.405202e-95
309.30 1.405202e-95
309.40 1.405202e-95
309.50 1.405202e-95
309.60 1.405202e-95
309.70 1.405202e-95
309.80 1.405202e-95
309.90 1.405202e-95
310.00 1.405202e-95
310.10 1.405202e-95
310.20 1.405202e-95
310.30 1.405202e-95
310.40 1.405202e-95
310.50 1.405202e-95
310.60 1.405202e-95
310.70 1.405202e-95
310.80 1.405202e-95
310.90 1.405202e-95
311.00 1.405202e-95
311.10 1.405202e-95
311.20 1.405202e-95
311.30 1.405202e-95
311.40 1.405202e-95
311.50 1.405202e-95
311.60 1.405202e-95
311.70 1.405202e-95
311.80 1.405202e-95
311.90 1.405202e-95
312.00 1.405202e-95
312.10 1.405202e-95
312.20 1.405202e-95
312.30 1.405202e-95
312.40 1.405202e-95
312.50 1.405202e-95
312.60 1.405202e-95
312.70 1.405202e-95
312.80 1.405202e-95
312.90 1.405202e-95
313.00 1.405202e-95
313.10 1.405202e-95
313.20 1.405202e-95
313.30 1.405202e-95
313.40 1.405202e-95
313.50 1.405202e-95
313.60 1.405202e-95
313.70 1.405202e-95
313.80 1.405202e-95
313.90 1.405202e-95
314.00 1.405202e-95
314.10 1.405202e-95
314.20 1.405202e-95
314.30 1.405202e-95
314.40 1.405202e-95
314.50 1.405202e-95
314.60 1.405202e-95
314.70 1.405202e-95
314.80 1.405202e-95
314.90 1.405202e-95
315.00 1.405202e-95
315.10 1.405202e-95
315.20 1.405202e-95
315.30 1.405202e-95
315.40 1.405202e-95
315.50 1.405202e-95
315.60 1.405202e-95
315.70 1.405202e-95
315.80 1.405202e-95
315.90 1.405202e-95
316.00 1.405202e-95
316.10 1.405202e-95
316.20 1.405202e-95
316.30 1.405202e-95
316.40 1.405202e-95
316.50 1.405202e-95
316.60 1.405202e-95
316.70 1.405202e-95
316.80 1.405202e-95
316.90 1.405202e-95
317.00 1.405202e-95
317.10 1.405202e-95
317.20 1.405202e-95
317.30 1.405202e-95
317.40 1.405202e-95
317.50 1.405202e-95
317.60 1.405202e-95
317.70 1.405202e-95
317.80 1.405202e-95
317.90 1.405202e-95
318.00 1.405202e-95
318.10 1.405202e-95
318.20 1.405202e-95
318.30 1.405202e-95
318.40 1.405202e-95
318.50 1.405202e-95
318.60 1.405202e-95
318.70 1.405202e-95
318.80 1.405202e-95
318.90 1.405202e-95
319.00 1.405202e-95
319.10 1.405202e-95
319.20 1.405202e-95
319.30 1.405202e-95
319.40 1.405202e-95
319.50 1.405202e-95
319.60 1.405202e-95
319.70 1.405202e-95
319.80 1.405202e-95
319.90 1.405202e-95
320.00 1.405202e-95
320.10 1.405202e-95
320.20 1.405202e-95
320.30 1.405202e-95
320.40 1.405202e-95
320.50 1.405202e-95
320.60 1.405202e-95
320.70 1.405202e-95
320.80 1.405202e-95
320.90 1.405202e-95
321.00 1.405202e-95
321.10 1.405202e-95
321.20 1.405202e-95
321.30 1.405202e-95
321.40 1.405202e-95
321.50 1.405202e-95
321.60 1.405202e-95
321.70 1.405202e-95
321.80 1.405202e-95
321.90 1.405202e-95
322.00 1.405202e-95
322.10 1.405202e-95
322.20 1.405202e-95
322.30 1.405202e-95
322.40 1.405202e-95
322.50 1.405202e-95
322.60 1.405202e-95
322.70 1.405202e-95
322.80 1.405202e-95
322.90 1.405202e-95
323.00 1.405202e-95
323.10 1.405202e-95
323.20 1.405202e-95
323.30 1.405202e-95
323.40 1.405202e-95
323.50 1.405202e-95
323.60 1.405202e-95
323.70 1.405202e-95
323.80 1.405202e-95
323.90 1.405202e-95
324.00 1.405202e-95
324.10 1.405202e-95
324.20 1.405202e-95
324.30 1.405202e-95
324.40 1.405202e-95
324.50 1.405202e-95
324.60 1.405202e-95
324.70 1.405202e-95
324.80 1.405202e-95
324.90 1.405202e-95
325.00 1.405202e-95
325.10 1.405202e-95
325.20 1.405202e-95
325.30 1.405202e-95
325.40 1.405202e-95
325.50 1.405202e-95
325.60 1.405202e-95
325.70 1.405202e-95
325.80 1.405202e-95
325.90 1.405202e-95
326.00 1.405202e-95
326.10 1.405202e-95
326.20 1.405202e-95
326.30 1.405202e-95
326.40 1.405202e-95
326.50 1.405202e-95
326.60 1.405202e-95
326.70 1.405202e-95
326.80 1.405202e-95
326.90 1.405202e-95
327.00 1.405202e-95
327.10 1.405202e-95
327.20 1.405202e-95
327.30 1.405202e-95
327.40 1.405202e-95
327.50 1.405202e-95
327.60 1.405202e-95
327.70 1.405202e-95
327.80 1.405202e-95
327.90 1.405202e-95
328.00 1.405202e-95
328.10 1.405202e-95
328.20 1.405202e-95
328.30 1.405202e-95
328.40 1.405202e-95
328.50 1.405202e-95
328.60 1.405202e-95
328.70 1.405202e-95
328.80 1.405202e-95
328.90 1.405202e-95
329.00 1.405202e-95
329.10 1.405202e-95
329.20 1.405202e-95
329.30 1.405202e-95
329.40 1.405202e-95
329.50 1.405202e-95
329.60 1.405202e-95
329.70 1.405202e-95
329.80 1.405202e-95
329.90 1.405202e-95
330.00 1.405202e-95
330.10 1.405202e-95
330.20 1.405202e-95
330.30 1.405202e-95
330.40 1.405202e-95
330.50 1.405202e-95
330.60 1.405202e-95
330.70 1.405202e-95
330.80 1.405202e-95
330.90 1.405202e-95
331.00 1.405202e-95
331.10 1.405202e-95
331.20 1.405202e-95
331.30 1.405202e-95
331.40 1.405202e-95
331.50 1.405202e-95
331.60 1.405202e-95
331.70 1.405202e-95
331.80 1.405202e-95
331.90 1.405202e-95
332.00 1.405202e-95
332.10 1.405202e-95
332.20 1.405202e-95
332.30 1.405202e-95
332.40 1.405202e-95
332.50 1.405202e-95
332.60 1.405202e-95
332.70 1.405202e-95
332.80 1.405202e-95
332.90 1.405202e-95
333.00 1.405202e-95
333.10 1.405202e-95
333.20 1.405202e-95
333.30 1.405202e-95
333.40 1.405202e-95
333.50 1.405202e-95
333.60 1.405202e-95
333.70 1.405202e-95
333.80 1.405202e-95
333.90 1.405202e-95
334.00 1.405202e-95
334.10 1.405202e-95
334.20 1.405202e-95
334.30 1.405202e-95
334.40 1.405202e-95
334.50 1.405202e-95
334.60 1.405202e-95
334.70 1.405202e-95
334.80 1.405202e-95
334.90 1.405202e-95
335.00 1.405202e-95
335.10 1.405202e-95
335.20 1.405202e-95
335.30 1.405202e-95
335.40 1.405202e-95
335.50 1.405202e-95
335.60 1.405202e-95
335.70 1.405202e-95
335.80 1.405202e-95
335.90 1.405202e-95
336.00 1.405202e-95
336.10 1.405202e-95
336.20 1.405202e-95
336.30 1.405202e-95
336.40 1.405202e-95
336.50 1.405202e-95
336.60 1.405202e-95
336.70 1.405202e-95
336.80 1.405202e-95
336.90 1.405202e-95
337.00 1.405202e-95
337.10 1.405202e-95
337.20 1.405202e-95
337.30 1.405202e-95
337.40 1.405202e-95
337.50 1.405202e-95
337.60 1.405202e-95
337.70 1.405202e-95
337.80 1.405202e-95
337.90 1.405202e-95
338.00 1.405202e-95
338.10 1.405202e-95
338.20 1.405202e-95
338.30 1.405202e-95
338.40 1.405202e-95
338.50 1.405202e-95
338.60 1.405202e-95
338.70 1.405202e-95
338.80 1.405202e-95
338.90 1.405202e-95
339.00 1.405202e-95
339.10 1.405202e-95
339.20 1.405202e-95
339.30 1.405202e-95
339.40 1.405202e-95
339.50 1.405202e-95
339.60 1.405202e-95
339.70 1.405202e-95
339.80 1.405202e-95
339.90 1.405202e-95
340.00 1.405202e-95
340.10 1.405202e-95
340.20 1.405202e-95
340.30 1.405202e-95
340.40 1.405202e-95
340.50 1.405202e-95
340.60 1.405202e-95
340.70 1.405202e-95
340.80 1.405202e-95
340.90 1.405202e-95
341.00 1.405202e-95
341.10 1.405202e-95
341.20 1.405202e-95
341.30 1.405202e-95
341.40 1.405202e-95
341.50 1.405202e-95
341.60 1.405202e-95
341.70 1.405202e-95
341.80 1.405202e-95
341.90 1.405202e-95
342.00 1.405202e-95
342.10 1.405202e-95
342.20 1.405202e-95
342.30 1.405202e-95
342.40 1.405202e-95
342.50 1.405202e-95
342.60 1.405202e-95
342.70 1.405202e-95
342.80 1.405202e-95
342.90 1.405202e-95
343.00 1.405202e-95
343.10 1.405202e-95
343.20 1.405202e-95
343.30 1.405202e-95
343.40 1.405202e-95
343.50 1.405202e-95
343.60 1.405202e-95
343.70 1.405202e-95
343.80 1.405202e-95
343.90 1.405202e-95
344.00 1.405202e-95
344.10 1.405202e-95
344.20 1.405202e-95
344.30 1.405202e-95
344.40 1.405202e-95
344.50 1.405202e-95
344.60 1.405202e-95
344.70 1.405202e-95
344.80 1.405202e-95
344.90 1.405202e-95
345.00 1.405202e-95
345.10 1.405202e-95
345.20 1.405202e-95
345.30 1.405202e-95
345.40 1.405202e-95
345.50 1.405202e-95
345.60 1.405202e-95
345.70 1.405202e-95
345.80 1.405202e-95
345.90 1.405202e-95
346.00 1.405202e-95
346.10 1.405202e-95
346.20 1.405202e-95
346.30 1.405202e-95
346.40 1.405202e-95
346.50 1.405202e-95
346.60 1.405202e-95
346.70 1.405202e-95
346.80 1.405202e-95
346.90 1.405202e-95
347.00 1.405202e-95
347.10 1.405202e-95
347.20 1.405202e-95
347.30 1.405202e-95
347.40 1.405202e-95
347.50 1.405202e-95
347.60 1.405202e-95
347.70 1.405202e-95
347.80 1.405202e-95
347.90 1.405202e-95
348.00 1.405202e-95
348.10 1.405202e-95
348.20 1.405202e-95
348.30 1.405202e-95
348.40 1.405202e-95
348.50 1.405202e-95
348.60 1.405202e-95
348.70 1.405202e-95
348.80 1.405202e-95
348.90 1.405202e-95
349.00 1.405202e-95
349.10 1.405202e-95
349.20 1.405202e-95
349.30 1.405202e-95
349.40 1.405202e-95
349.50 1.405202e-95
349.60 1.405202e-95
349.70 1.405202e-95
349.80 1.405202e-95
349.90 1.405202e-95
350.00 1.405202e-95
350.10 1.405202e-95
350.20 1.405202e-95
350.30 1.405202e-95
350.40 1.405202e-95
350.50 1.405202e-95
350.60 1.405202e-95
350.70 1.405202e-95
350.80 1.405202e-95
350.90 1.405202e-95
351.00 1.405202e-95
351.10 1.405202e-95
351.20 1.405202e-95
351.30 1.405202e-95
351.40 1.405202e-95
351.50 1.405202e-95
351.60 1.405202e-95
351.70 1.405202e-95
351.80 1.405202e-95
351.90 1.405202e-95
352.00 1.405202e-95
352.10 1.405202e-95
352.20 1.405202e-95
352.30 1.405202e-95
352.40 1.405202e-95
352.50 1.405202e-95
352.60 1.405202e-95
352.70 1.405202e-95
352.80 1.405202e-95
352.90 1.405202e-95
353.00 1.405202e-95
353.10 1.405202e-95
353.20 1.405202e-95
353.30 1.405202e-95
353.40 1.405202e-95
353.50 1.405202e-95
353.60 1.405202e-95
353.70 1.405202e-95
353.80 1.405202e-95
353.90 1.405202e-95
354.00 1.405202e-95
354.10 1.405202e-95
354.20 1.405202e-95
354.30 1.405202e-95
354.40 1.405202e-95
354.50 1.405202e-95
354.60 1.405202e-95
354.70 1.405202e-95
354.80 1.405202e-95
354.90 1.405202e-95
355.00 1.405202e-95
355.10 1.405202e-95
355.20 1.405202e-95
355.30 1.405202e-95
355.40 1.405202e-95
355.50 1.405202e-95
355.60 1.405202e-95
355.70 1.405202e-95
355.80 1.405202e-95
355.90 1.405202e-95
356.00 1.405202e-95
356.10 1.405202e-95
356.20 1.405202e-95
356.30 1.405202e-95
356.40 1.405202e-95
356.50 1.405202e-95
356.60 1.405202e-95
356.70 1.405202e-95
356.80 1.405202e-95
356.90 1.405202e-95
357.00 1.405202e-95
357.10 1.405202e-95
357.20 1.405202e-95
357.30 1.405202e-95
357.40 1.405202e-95
357.50 1.405202e-95
357.60 1.405202e-95
357.70 1.405202e-95
357.80 1.405202e-95
357.90 1.405202e-95
358.00 1.405202e-95
358.10 1.405202e-95
358.20 1.405202e-95
358.30 1.405202e-95
358.40 1.405202e-95
358.50 1.405202e-95
358.60 1.405202e-95
358.70 1.405202e-95
358.80 1.405202e-95
358.90 1.405202e-95
359.00 1.405202e-95
359.10 1.405202e-95
359.20 1.405202e-95
359.30 1.405202e-95
359.40 1.405202e-95
359.50 1.405202e-95
359.60 1.405202e-95
359.70 1.405202e-95
359.80 1.405202e-95
359.90 1.405202e-95
360.00 1.405202e-95
360.10 1.405202e-95
360.20 1.405202e-95
360.30 1.405202e-95
360.40 1.405202e-95
360.50 1.405202e-95
360.60 1.405202e-95
360.70 1.405202e-95
360.80 1.405202e-95
360.90 1.405202e-95
361.00 1.405202e-95
361.10 1.405202e-95
361.20 1.405202e-95
361.30 1.405202e-95
361.40 1.405202e-95
361.50 1.405202e-95
361.60 1.405202e-95
361.70 1.405202e-95
361.80 1.405202e-95
361.90 1.405202e-95
362.00 1.405202e-95
362.10 1.405202e-95
362.20 1.405202e-95
362.30 1.405202e-95
362.40 1.405202e-95
362.50 1.405202e-95
362.60 1.405202e-95
362.70 1.405202e-95
362.80 1.405202e-95
362.90 1.405202e-95
363.00 1.405202e-95
363.10 1.405202e-95
363.20 1.405202e-95
363.30 1.405202e-95
363.40 1.405202e-95
363.50 1.405202e-95
363.60 1.405202e-95
363.70 1.405202e-95
363.80 1.405202e-95
363.90 1.405202e-95
364.00 1.405202e-95
364.10 1.405202e-95
364.20 1.405202e-95
364.30 1.405202e-95
364.40 1.405202e-95
364.50 1.405202e-95
364.60 1.405202e-95
364.70 1.405202e-95
364.80 1.405202e-95
364.90 1.405202e-95
365.00 1.405202e-95
365.10 1.405202e-95
365.20 1.405202e-95
365.30 1.405202e-95
365.40 1.405202e-95
365.50 1.405202e-95
365.60 1.405202e-95
365.70 1.405202e-95
365.80 1.405202e-95
365.90 1.405202e-95
366.00 1.405202e-95
366.10 1.405202e-95
366.20 1.405202e-95
366.30 1.405202e-95
366.40 1.405202e-95
366.50 1.405202e-95
366.60 1.405202e-95
366.70 1.405202e-95
366.80 1.405202e-95
366.90 1.405202e-95
367.00 1.405202e-95
367.10 1.405202e-95
367.20 1.405202e-95
367.30 1.405202e-95
367.40 1.405202e-95
367.50 1.405202e-95
367.60 1.405202e-95
367.70 1.405202e-95
367.80 1.405202e-95
367.90 1.405202e-95
368.00 1.405202e-95
368.10 1.405202e-95
368.20 1.405202e-95
368.30 1.405202e-95
368.40 1.405202e-95
368.50 1.405202e-95
368.60 1.405202e-95
368.70 1.405202e-95
368.80 1.405202e-95
368.90 1.405202e-95
369.00 1.405202e-95
369.10 1.405202e-95
369.20 1.405202e-95
369.30 1.405202e-95
369.40 1.405202e-95
369.50 1.405202e-95
369.60 1.405202e-95
369.70 1.405202e-95
369.80 1.405202e-95
369.90 1.405202e-95
370.00 1.405202e-95
370.10 1.405202e-95
370.20 1.405202e-95
370.30 1.405202e-95
370.40 1.405202e-95
370.50 1.405202e-95
370.60 1.405202e-95
370.70 1.405202e-95
370.80 1.405202e-95
370.90 1.405202e-95
371.00 1.405202e-95
371.10 1.405202e-95
371.20 1.405202e-95
371.30 1.405202e-95
371.40 1.405202e-95
371.50 1.405202e-95
371.60 1.405202e-95
371.70 1.405202e-95
371.80 1.405202e-95
371.90 1.405202e-95
372.00 1.405202e-95
372.10 1.405202e-95
372.20 1.405202e-95
372.30 1.405202e-95
372.40 1.405202e-95
372.50 1.405202e-95
372.60 1.405202e-95
372.70 1.405202e-95
372.80 1.405202e-95
372.90 1.405202e-95
373.00 1.405202e-95
373.10 1.405202e-95
373.20 1.405202e-95
373.30 1.405202e-95
373.40 1.405202e-95
373.50 1.405202e-95
373.60 1.405202e-95
373.70 1.405202e-95
373.80 1.405202e-95
373.90 1.405202e-95
374.00 1.405202e-95
374.10 1.405202e-95
374.20 1.405202e-95
374.30 1.405202e-95
374.40 1.405202e-95
374.50 1.405202e-95
374.60 1.405202e-95
374.70 1.405202e-95
374.80 1.405202e-95
374.90 1.405202e-95
375.00 1.405202e-95
375.10 1.405202e-95
375.20 1.405202e-95
375.30 1.405202e-95
375.40 1.405202e-95
375.50 1.405202e-95
375.60 1.405202e-95
375.70 1.405202e-95
375.80 1.405202e-95
375.90 1.405202e-95
376.00 1.405202e-95
376.10 1.405202e-95
376.20 1.405202e-95
376.30 1.405202e-95
376.40 1.405202e-95
376.50 1.405202e-95
376.60 1.405202e-95
376.70 1.405202e-95
376.80 1.405202e-95
376.90 1.405202e-95
377.00 1.405202e-95
377.10 1.405202e-95
377.20 1.405202e-95
377.30 1.405202e-95
377.40 1.405202e-95
377.50 1.405202e-95
377.60 1.405202e-95
377.70 1.405202e-95
377.80 1.405202e-95
377.90 1.405202e-95
378.00 1.405202e-95
378.10 1.405202e-95
378.20 1.405202e-95
378.30 1.405202e-95
378.40 1.405202e-95
378.50 1.405202e-95
378.60 1.405202e-95
378.70 1.405202e-95
378.80 1.405202e-95
378.90 1.405202e-95
379.00 1.405202e-95
379.10 1.405202e-95
379.20 1.405202e-95
379.30 1.405202e-95
379.40 1.405202e-95
379.50 1.405202e-95
379.60 1.405202e-95
379.70 1.405202e-95
379.80 1.405202e-95
379.90 1.405202e-95
380.00 1.405202e-95
380.10 1.405202e-95
380.20 1.405202e-95
380.30 1.405202e-95
380.40 1.405202e-95
380.50 1.405202e-95
380.60 1.405202e-95
380.70 1.405202e-95
380.80 1.405202e-95
380.90 1.405202e-95
381.00 1.405202e-95
381.10 1.405202e-95
381.20 1.405202e-95
381.30 1.405202e-95
381.40 1.405202e-95
381.50 1.405202e-95
381.60 1.405202e-95
381.70 1.405202e-95
381.80 1.405202e-95
381.90 1.405202e-95
382.00 1.405202e-95
382.10 1.405202e-95
382.20 1.405202e-95
382.30 1.405202e-95
382.40 1.405202e-95
382.50 1.405202e-95
382.60 1.405202e-95
382.70 1.405202e-95
382.80 1.405202e-95
382.90 1.405202e-95
383.00 1.405202e-95
383.10 1.405202e-95
383.20 1.405202e-95
383.30 1.405202e-95
383.40 1.405202e-95
383.50 1.405202e-95
383.60 1.405202e-95
383.70 1.405202e-95
383.80 1.405202e-95
383.90 1.405202e-95
384.00 1.405202e-95
384.10 1.405202e-95
384.20 1.405202e-95
384.30 1.405202e-95
384.40 1.405202e-95
384.50 1.405202e-95
384.60 1.405202e-95
384.70 1.405202e-95
384.80 1.405202e-95
384.90 1.405202e-95
385.00 1.405202e-95
385.10 1.405202e-95
385.20 1.405202e-95
385.30 1.405202e-95
385.40 1.405202e-95
385.50 1.405202e-95
385.60 1.405202e-95
385.70 1.405202e-95
385.80 1.405202e-95
385.90 1.405202e-95
386.00 1.405202e-95
386.10 1.405202e-95
386.20 1.405202e-95
386.30 1.405202e-95
386.40 1.405202e-95
386.50 1.405202e-95
386.60 1.405202e-95
386.70 1.405202e-95
386.80 1.405202e-95
386.90 1.405202e-95
387.00 1.405202e-95
387.10 1.405202e-95
387.20 1.405202e-95
387.30 1.405202e-95
387.40 1.405202e-95
387.50 1.405202e-95
387.60 1.405202e-95
387.70 1.405202e-95
387.80 1.405202e-95
387.90 1.405202e-95
388.00 1.405202e-95
388.10 1.405202e-95
388.20 1.405202e-95
388.30 1.405202e-95
388.40 1.405202e-95
388.50 1.405202e-95
388.60 1.405202e-95
388.70 1.405202e-95
388.80 1.405202e-95
388.90 1.405202e-95
389.00 1.405202e-95
389.10 1.405202e-95
389.20 1.405202e-95
389.30 1.405202e-95
389.40 1.405202e-95
389.50 1.405202e-95
389.60 1.405202e-95
389.70 1.405202e-95
389.80 1.405202e-95
389.90 1.405202e-95
390.00 1.405202e-95
390.10 1.405202e-95
390.20 1.405202e-95
390.30 1.405202e-95
390.40 1.405202e-95
390.50 1.405202e-95
390.60 1.405202e-95
390.70 1.405202e-95
390.80 1.405202e-95
390.90 1.405202e-95
391.00 1.405202e-95
391.10 1.405202e-95
391.20 1.405202e-95
391.30 1.405202e-95
391.40 1.405202e-95
391.50 1.405202e-95
391.60 1.405202e-95
391.70 1.405202e-95
391.80 1.405202e-95
391.90 1.405202e-95
392.00 1.405202e-95
392.10 1.405202e-95
392.20 1.405202e-95
392.30 1.405202e-95
392.40 1.405202e-95
392.50 1.405202e-95
392.60 1.405202e-95
392.70 1.405202e-95
392.80 1.405202e-95
392.90 1.405202e-95
393.00 1.405202e-95
393.10 1.405202e-95
393.20 1.405202e-95
393.30 1.405202e-95
393.40 1.405202e-95
393.50 1.405202e-95
393.60 1.405202e-95
393.70 1.405202e-95
393.80 1.405202e-95
393.90 1.405202e-95
394.00 1.405202e-95
394.10 1.405202e-95
394.20 1.405202e-95
394.30 1.405202e-95
394.40 1.405202e-95
394.50 1.405202e-95
394.60 1.405202e-95
394.70 1.405202e-95
394.80 1.405202e-95
394.90 1.405202e-95
395.00 0.006764798
395.10 0.01307551
395.20 0.01895838
395.30 0.02447782
395.40 0.02996993
395.50 0.03588133
395.60 0.0425271
395.70 0.0499887
395.80 0.05804786
395.90 0.0663757
396.00 0.07460866
396.10 0.08228339
396.20 0.08901701
396.30 0.09460989
396.40 0.09907688
396.50 0.1026756
396.60 0.1057581
396.70 0.108768
396.80 0.1121496
396.90 0.116149
397.00 0.1207901
397.10 0.1259703
397.20 0.1315759
397.30 0.1373842
397.40 0.1431316
397.50 0.1486916
397.60 0.154098
397.70 0.1595061
397.80 0.1650221
397.90 0.1706916
398.00 0.1766546
398.10 0.1830125
398.20 0.1896553
398.30 0.1963824
398.40 0.2030552
398.50 0.2096233
398.60 0.2161038
398.70 0.2225993
398.80 0.2293123
398.90 0.2364553
399.00 0.2440338
399.10 0.2518369
399.20 0.2595707
399.30 0.2669211
399.40 0.2736295
399.50 0.2796614
399.60 0.2852141
399.70 0.2905915
399.80 0.2961639
399.90 0.3022903
400.00 0.3091428
400.10 0.316671
400.20 0.3246371
400.30 0.3327339
400.40 0.3407438
400.50 0.3485031
400.60 0.3558852
400.70 0.3627644
400.80 0.3689314
400.90 0.3740975
401.00 0.3781065
401.10 0.3810341
401.20 0.3830894
401.30 0.3845599
401.40 0.3858132
401.50 0.3871607
401.60 0.3887554
401.70 0.3906977
401.80 0.393123
401.90 0.3961443
402.00 0.3997505
402.10 0.4037946
402.20 0.40809
402.30 0.4124567
402.40 0.4166179
402.50 0.4202296
402.60 0.4229673
402.70 0.424643
402.80 0.4254172
402.90 0.4258384
403.00 0.4266164
403.10 0.4281819
403.20 0.4305147
403.30 0.4333797
403.40 0.4365253
403.50 0.4398618
403.60 0.4433992
403.70 0.447102
403.80 0.4510138
403.90 0.4553474
404.00 0.4604445
404.10 0.466648
404.20 0.4741024
404.30 0.482586
404.40 0.4915194
404.50 0.5002791
404.60 0.5084162
404.70 0.5156174
404.80 0.5217313
404.90 0.5267157
405.00 0.5239212
405.10 0.5208788
405.20 0.5179255
405.30 0.515305
405.40 0.5128892
405.50 0.5102809
405.60 0.5070669
405.70 0.5030937
405.80 0.4986881
405.90 0.4944012
406.00 0.490753
406.10 0.4882839
406.20 0.4874883
406.30 0.4887051
406.40 0.4918559
406.50 0.4964322
406.60 0.5017811
406.70 0.5070967
406.80 0.5116746
406.90 0.515148
407.00 0.5173965
407.10 0.5185283
407.20 0.5188119
407.30 0.5187314
407.40 0.5188576
407.50 0.5196186
407.60 0.5210692
407.70 0.5227051
407.80 0.5239361
407.90 0.524355
408.00 0.5236798
408.10 0.5220527
408.20 0.5199792
408.30 0.5180807
408.40 0.5168998
408.50 0.5166437
408.60 0.5171823
408.70 0.5180512
408.80 0.5185909
408.90 0.5181252
409.00 0.5162705
409.10 0.5132038
409.20 0.5094516
409.30 0.5057194
409.40 0.5027302
409.50 0.5008518
409.60 0.5000744
409.70 0.5001751
409.80 0.5007878
409.90 0.501513
410.00 0.5020781
410.10 0.5023954
410.20 0.5025064
410.30 0.5025341
410.40 0.5026523
410.50 0.5030375
410.60 0.5038757
410.70 0.5053861
410.80 0.5077677
410.90 0.5111189
411.00 0.5152227
411.10 0.5195419
411.20 0.523603
411.30 0.5272246
411.40 0.5304196
411.50 0.5333936
411.60 0.5365719
411.70 0.5403646
411.80 0.5448257
411.90 0.5496698
412.00 0.5544864
412.10 0.5588526
412.20 0.5623964
412.30 0.5649955
412.40 0.5670738
412.50 0.5694536
412.60 0.5729731
412.70 0.5783294
412.80 0.5858389
412.90 0.5952194
413.00 0.6056504
413.10 0.6161949
413.20 0.6261442
413.30 0.6350069
413.40 0.6424598
413.50 0.6481863
413.60 0.6519895
413.70 0.6539461
413.80 0.6542538
413.90 0.6532028
414.00 0.6510992
414.10 0.6480315
414.20 0.6439836
414.30 0.6391567
414.40 0.6340465
414.50 0.6292111
414.60 0.6250579
414.70 0.621852
414.80 0.6197535
414.90 0.6188995
415.00 0.6193464
415.10 0.6210218
415.20 0.6238339
415.30 0.6276511
415.40 0.6322581
415.50 0.6375108
415.60 0.6433507
415.70 0.6496085
415.80 0.6559042
415.90 0.661681
416.00 0.6665023
416.10 0.6701187
416.20 0.6722043
416.30 0.6725233
416.40 0.6712082
416.50 0.6686239
416.60 0.6652687
416.70 0.6617844
416.80 0.6587454
416.90 0.6566484
417.00 0.6560647
417.10 0.657378
417.20 0.6605745
417.30 0.6653398
417.40 0.6710972
417.50 0.6770803
417.60 0.6826847
417.70 0.6877529
417.80 0.6923971
417.90 0.696779
418.00 0.7008989
418.10 0.7044691
418.20 0.707267
418.30 0.7092621
418.40 0.7104959
418.50 0.7111652
418.60 0.7115824
418.70 0.7120922
418.80 0.713011
418.90 0.7147403
419.00 0.7176427
419.10 0.7215659
419.20 0.7259531
419.30 0.7301022
419.40 0.7334058
419.50 0.7355998
419.60 0.7366374
419.70 0.736473
419.80 0.7350391
419.90 0.7323726
420.00 0.7286609
420.10 0.7242622
420.20 0.7195453
420.30 0.7145998
420.40 0.7094151
420.50 0.7042142
420.60 0.6992601
420.70 0.6947841
420.80 0.6910451
420.90 0.6883023
421.00 0.6868776
421.10 0.687066
421.20 0.6888487
421.30 0.6918341
421.40 0.6954369
421.50 0.6989089
421.60 0.7014977
421.70 0.7026764
421.80 0.7022516
421.90 0.7002859
422.00 0.6970396
422.10 0.6929725
422.20 0.6886085
422.30 0.6843142
422.40 0.6801148
422.50 0.6758588
422.60 0.671447
422.70 0.6667198
422.80 0.6614474
422.90 0.6554997
423.00 0.6490063
423.10 0.6423685
423.20 0.6360326
423.30 0.6303239
423.40 0.6254955
423.50 0.6217506
423.60 0.6191717
423.70 0.6177622
423.80 0.6174624
423.90 0.6179666
424.00 0.6187412
424.10 0.6193439
424.20 0.6195399
424.30 0.6192447
424.40 0.6184318
424.50 0.6170823
424.60 0.6152121
424.70 0.6128976
424.80 0.6102176
424.90 0.6072524
425.00 0.6040435
425.10 0.6004758
425.20 0.596291
425.30 0.5912529
425.40 0.5853113
425.50 0.5786215
425.60 0.5714802
425.70 0.5641698
425.80 0.5568282
425.90 0.549594
426.00 0.5426811
426.10 0.5363278
426.20 0.5308986
426.30 0.5266694
426.40 0.5237443
426.50 0.5221832
426.60 0.5218902
426.70 0.5226381
426.80 0.5241462
426.90 0.5259195
427.00 0.5272082
427.10 0.5273298
427.20 0.5259509
427.30 0.5230557
427.40 0.5188049
427.50 0.5135267
427.60 0.5075683
427.70 0.5012557
427.80 0.4949693
427.90 0.4890728
428.00 0.4840132
428.10 0.4802185
428.20 0.477809
428.30 0.4765422
428.40 0.4759753
428.50 0.475671
428.60 0.4753723
428.70 0.4750634
428.80 0.4747978
428.90 0.474488
429.00 0.4740499
429.10 0.4736085
429.20 0.4733559
429.30 0.4734641
429.40 0.4739292
429.50 0.4745348
429.60 0.4750942
429.70 0.4757325
429.80 0.476875
429.90 0.4789303
430.00 0.4821365
430.10 0.486353
430.20 0.4912963
430.30 0.4968519
430.40 0.5028619
430.50 0.5089037
430.60 0.5144024
430.70 0.5188423
430.80 0.5219478
430.90 0.5237229
431.00 0.5242575
431.10 0.5236909
431.20 0.5222949
431.30 0.5204028
431.40 0.5182651
431.50 0.5161472
431.60 0.5142723
431.70 0.5127792
431.80 0.5116881
431.90 0.5110119
432.00 0.5109012
432.10 0.5114331
432.20 0.512515
432.30 0.513957
432.40 0.5156312
432.50 0.5174671
432.60 0.5193274
432.70 0.5210172
432.80 0.5222883
432.90 0.5229315
433.00 0.5229154
433.10 0.5223364
433.20 0.5214906
433.30 0.5208053
433.40 0.52062
433.50 0.5212219
433.60 0.5228403
433.70 0.5255423
433.80 0.5291856
433.90 0.5334003
434.00 0.5376884
434.10 0.5416525
434.20 0.5451263
434.30 0.5481759
434.40 0.5510989
434.50 0.5543182
434.60 0.5582841
434.70 0.5633886
434.80 0.5697729
434.90 0.5771621
435.00 0.5849904
435.10 0.5926079
435.20 0.59937
435.30 0.6048099
435.40 0.6087845
435.50 0.61143
435.60 0.6131237
435.70 0.6144159
435.80 0.6158321
435.90 0.6177279
436.00 0.6201844
436.10 0.623076
436.20 0.6261127
436.30 0.6289569
436.40 0.6313118
436.50 0.6329118
436.60 0.6336123
436.70 0.633379
436.80 0.6322473
436.90 0.6303937
437.00 0.6280941
437.10 0.6256697
437.20 0.6235101
437.30 0.6219296
437.40 0.6212033
437.50 0.6214853
437.60 0.6228704
437.70 0.625373
437.80 0.628745
437.90 0.6326319
438.00 0.6366181
438.10 0.6403272
438.20 0.6435585
438.30 0.6462994
438.40 0.6487244
438.50 0.6510893
438.60 0.6534427
438.70 0.6556495
438.80 0.6574916
438.90 0.6586851
439.00 0.658853
439.10 0.6576802
439.20 0.6551876
439.30 0.6516842
439.40 0.6477899
439.50 0.6442685
439.60 0.6417123
439.70 0.6403412
439.80 0.639893
439.90 0.6397664
440.00 0.6393245
440.10 0.638186
440.20 0.6362117
440.30 0.6334162
440.40 0.6298719
440.50 0.6257378
440.60 0.621306
440.70 0.6167945
440.80 0.6122331
440.90 0.6076152
441.00 0.6030797
441.10 0.5989046
441.20 0.5954159
441.30 0.5928002
441.40 0.5910278
441.50 0.5899542
441.60 0.5893999
441.70 0.5891317
441.80 0.5891041
441.90 0.5894403
442.00 0.590203
442.10 0.5914605
442.20 0.593327
442.30 0.5958659
442.40 0.5989599
442.50 0.6022705
442.60 0.6053732
442.70 0.607987
442.80 0.6100814
442.90 0.6116886
443.00 0.6127015
443.10 0.613043
443.20 0.6127241
443.30 0.6118555
443.40 0.6105878
443.50 0.6090297
443.60 0.6072181
443.70 0.6050372
443.80 0.6023046
443.90 0.5990186
444.00 0.5954274
444.10 0.5918461
444.20 0.5885365
444.30 0.5856053
444.40 0.5829832
444.50 0.5804648
444.60 0.5777437
444.70 0.5744502
444.80 0.5704025
444.90 0.5657802
445.00 0.5610269
445.10 0.5567689
445.20 0.5537065
445.30 0.5524607
445.40 0.5533075
445.50 0.5560908
445.60 0.5602578
445.70 0.5650286
445.80 0.5697805
445.90 0.5741177
446.00 0.5777325
446.10 0.5804196
446.20 0.5821086
446.30 0.5828412
446.40 0.5827968
446.50 0.5822881
446.60 0.5816919
446.70 0.5812894
446.80 0.5812659
446.90 0.5816686
447.00 0.5823965
447.10 0.5833025
447.20 0.5840341
447.30 0.5841816
447.40 0.5835516
447.50 0.5822169
447.60 0.580431
447.70 0.5785121
447.80 0.5767015
447.90 0.5751035
448.00 0.5737371
448.10 0.5724751
448.20 0.5710257
448.30 0.5690826
448.40 0.566445
448.50 0.5630417
448.60 0.5591068
448.70 0.5550651
448.80 0.5513953
448.90 0.5486181
449.00 0.5471787
449.10 0.5474309
449.20 0.549577
449.30 0.553486
449.40 0.5585299
449.50 0.5637893
449.60 0.5683874
449.70 0.5716772
449.80 0.5734494
449.90 0.5739697
450.00 0.5737541
450.10 0.5734413
450.20 0.573617
450.30 0.5746721
450.40 0.576856
450.50 0.5801584
450.60 0.5843518
450.70 0.5892485
450.80 0.5948031
450.90 0.6009752
451.00 0.60765
451.10 0.6146067
451.20 0.6214721
451.30 0.6278399
451.40 0.6334101
451.50 0.6380518
451.60 0.6417981
451.70 0.6448397
451.80 0.6473665
451.90 0.6495308
452.00 0.6514913
452.10 0.653393
452.20 0.6553457
452.30 0.6574204
452.40 0.6595898
452.50 0.6617388
452.60 0.6637385
452.70 0.6654373
452.80 0.6666992
452.90 0.6674532
453.00 0.667831
453.10 0.66812
453.20 0.6686013
453.30 0.6694372
453.40 0.6706374
453.50 0.6720751
453.60 0.673531
453.70 0.6748784
453.80 0.6761704
453.90 0.6775861
454.00 0.6793915
454.10 0.6818597
454.20 0.6851627
454.30 0.689351
454.40 0.6942389
454.50 0.6993934
454.60 0.7043066
454.70 0.7085669
454.80 0.7119057
454.90 0.7142628
455.00 0.7158212
455.10 0.7168042
455.20 0.7173942
455.30 0.7177047
455.40 0.7176986
455.50 0.7172463
455.60 0.7163206
455.70 0.7150935
455.80 0.7139144
455.90 0.7132358
456.00 0.7135488
456.10 0.7152368
456.20 0.7184747
456.30 0.723149
456.40 0.7287808
456.50 0.7347358
456.60 0.7404574
456.70 0.7455754
456.80 0.7498923
456.90 0.7535013
457.00 0.7568321
457.10 0.7602916
457.20 0.7641044
457.30 0.7683644
457.40 0.7729921
457.50 0.7777523
457.60 0.7822929
457.70 0.7862876
457.80 0.7896381
457.90 0.7924302
458.00 0.794795
458.10 0.796981
458.20 0.799423
458.30 0.8024831
458.40 0.8061911
458.50 0.8103069
458.60 0.8144348
458.70 0.8181726
458.80 0.8211508
458.90 0.8230513
459.00 0.823814
459.10 0.8235884
459.20 0.8225586
459.30 0.8209641
459.40 0.8191603
459.50 0.8175182
459.60 0.8163274
459.70 0.8157903
459.80 0.815928
459.90 0.8166367
460.00 0.8178532
460.10 0.8194653
460.20 0.8214347
460.30 0.8239212
460.40 0.826975
460.50 0.8304682
460.60 0.8342068
460.70 0.8378706
460.80 0.8410363
460.90 0.8433612
461.00 0.8445936
461.10 0.8445669
461.20 0.8432815
461.30 0.8409488
461.40 0.8378626
461.50 0.834251
461.60 0.8302934
461.70 0.8261078
461.80 0.8218824
461.90 0.8179145
462.00 0.8144776
462.10 0.8118144
462.20 0.8100827
462.30 0.8091918
462.40 0.8088452
462.50 0.8086985
462.60 0.8085041
462.70 0.8081597
462.80 0.8077149
462.90 0.8074132
463.00 0.8075314
463.10 0.8082171
463.20 0.8094712
463.30 0.8111735
463.40 0.8131941
463.50 0.8154247
463.60 0.8177829
463.70 0.8202355
463.80 0.8227446
463.90 0.8252124
464.00 0.8274003
464.10 0.8289957
464.20 0.8297358
464.30 0.8294671
464.40 0.8282375
464.50 0.8264447
464.60 0.8247749
464.70 0.823916
464.80 0.8243032
464.90 0.8260043
465.00 0.8287242
465.10 0.8320507
465.20 0.8356512
465.30 0.8391802
465.40 0.8424195
465.50 0.8452987
465.60 0.8476937
465.70 0.8494707
465.80 0.8505715
465.90 0.8509698
466.00 0.8505723
466.10 0.8493042
466.20 0.8472843
466.30 0.8448533
466.40 0.842571
466.50 0.8409876
466.60 0.8404663
466.70 0.8413198
466.80 0.8436925
466.90 0.8473701
467.00 0.8518798
467.10 0.8567204
467.20 0.8614799
467.30 0.8657894
467.40 0.8693878
467.50 0.8722153
467.60 0.8743543
467.70 0.8759387
467.80 0.8770645
467.90 0.877723
468.00 0.8777968
468.10 0.8770179
468.20 0.8751302
468.30 0.8722131
468.40 0.8687118
468.50 0.8651441
468.60 0.8618951
468.70 0.8592962
468.80 0.8577093
468.90 0.8574302
469.00 0.8585493
469.10 0.860938
469.20 0.864311
469.30 0.8683853
469.40 0.8729669
469.50 0.877984
469.60 0.8834002
469.70 0.8890296
469.80 0.8945926
469.90 0.8998927
470.00 0.9048098
470.10 0.9091917
470.20 0.9127696
470.30 0.9152288
470.40 0.9164404
470.50 0.916595
470.60 0.916077
470.70 0.9152434
470.80 0.9142762
470.90 0.9131166
471.00 0.9116273
471.10 0.9098082
471.20 0.9077808
471.30 0.9056819
471.40 0.9037559
471.50 0.9023216
471.60 0.9015882
471.70 0.9016168
471.80 0.9022922
471.90 0.903252
472.00 0.9039878
472.10 0.9040882
472.20 0.903448
472.30 0.9023427
472.40 0.901254
472.50 0.900581
472.60 0.9005007
472.70 0.9009673
472.80 0.901677
472.90 0.9022097
473.00 0.9022552
473.10 0.9017191
473.20 0.9007178
473.30 0.8996048
473.40 0.8988814
473.50 0.8989273
473.60 0.8998214
473.70 0.9013668
473.80 0.903205
473.90 0.904936
474.00 0.9063293
474.10 0.9073521
474.20 0.9080532
474.30 0.9085709
474.40 0.9091925
474.50 0.910121
474.60 0.9112786
474.70 0.9124005
474.80 0.9131781
474.90 0.9133932
475.00 0.9129376
475.10 0.9116882
475.20 0.9094686
475.30 0.9062666
475.40 0.9022246
475.50 0.8975263
475.60 0.8924582
475.70 0.8873281
475.80 0.8822583
475.90 0.8772704
476.00 0.8725639
476.10 0.8684244
476.20 0.8650186
476.30 0.8623076
476.40 0.8600297
476.50 0.8578168
476.60 0.8552649
476.70 0.8519198
476.80 0.847457
476.90 0.841872
477.00 0.8353731
477.10 0.8282455
477.20 0.8208937
477.30 0.8138498
477.40 0.8075209
477.50 0.802011
477.60 0.7971538
477.70 0.7926753
477.80 0.7884721
477.90 0.7848008
478.00 0.7821847
478.10 0.7811192
478.20 0.7818051
478.30 0.7840428
478.40 0.7873845
478.50 0.7913873
478.60 0.7956793
478.70 0.7997583
478.80 0.8029886
478.90 0.8049087
479.00 0.8053734
479.10 0.8044221
479.20 0.8021519
479.30 0.7986231
479.40 0.7938468
479.50 0.7879484
479.60 0.7812672
479.70 0.7743413
479.80 0.7678038
479.90 0.7620484
480.00 0.7570208
480.10 0.7524474
480.20 0.748047
480.30 0.7435097
480.40 0.7386099
480.50 0.7333543
480.60 0.7280841
480.70 0.7236105
480.80 0.7210823
480.90 0.7216082
481.00 0.7258115
481.10 0.7336234
481.20 0.7443575
481.30 0.7569302
481.40 0.7700501
481.50 0.7824585
481.60 0.7931778
481.70 0.8016494
481.80 0.8077889
481.90 0.8120166
482.00 0.8150692
482.10 0.8175007
482.20 0.8195034
482.30 0.8210632
482.40 0.8222156
482.50 0.8231786
482.60 0.8243004
482.70 0.8259445
482.80 0.8284204
482.90 0.8318965
483.00 0.8363234
483.10 0.8414624
483.20 0.8469206
483.30 0.8521388
483.40 0.8564692
483.50 0.8595079
483.60 0.8612904
483.70 0.8621645
483.80 0.8626316
483.90 0.8632108
484.00 0.8642161
484.10 0.865786
484.20 0.8680345
484.30 0.8709792
484.40 0.8744721
484.50 0.8782797
484.60 0.8821962
484.70 0.8861683
484.80 0.8902803
484.90 0.894564
485.00 0.8990316
485.10 0.90381
485.20 0.9090451
485.30 0.9147616
485.40 0.9209493
485.50 0.9276879
485.60 0.9350561
485.70 0.9430296
485.80 0.951498
485.90 0.9602644
486.00 0.9690097
486.10 0.9773369
486.20 0.9849019
486.30 0.9915926
486.40 0.9975118
486.50 1.002818
486.60 1.007754
486.70 1.012634
486.80 1.017734
486.90 1.023136
487.00 1.028736
487.10 1.034471
487.20 1.040416
487.30 1.046747
487.40 1.053706
487.50 1.061635
487.60 1.070887
487.70 1.081622
487.80 1.093592
487.90 1.106135
488.00 1.118372
488.10 1.129525
488.20 1.13905
488.30 1.146649
488.40 1.152326
488.50 1.156325
488.60 1.15912
488.70 1.16141
488.80 1.164007
488.90 1.167564
489.00 1.172405
489.10 1.178617
489.20 1.186163
489.30 1.19495
489.40 1.204778
489.50 1.215173
489.60 1.225387
489.70 1.234686
489.80 1.242509
489.90 1.248607
490.00 1.253056
490.10 1.256117
490.20 1.258154
490.30 1.259579
490.40 1.260718
490.50 1.261609
490.60 1.261929
490.70 1.261035
490.80 1.258144
490.90 1.252665
491.00 1.24454
491.10 1.234182
491.20 1.222346
491.30 1.210043
491.40 1.198336
491.50 1.188188
491.60 1.180361
491.70 1.175184
491.80 1.172455
491.90 1.171651
492.00 1.172067
492.10 1.172971
492.20 1.173753
492.30 1.173993
492.40 1.173402
492.50 1.171935
492.60 1.169765
492.70 1.167103
492.80 1.164208
492.90 1.161373
493.00 1.158811
493.10 1.156678
493.20 1.155143
493.30 1.154252
493.40 1.153926
493.50 1.15399
493.60 1.154212
493.70 1.154418
493.80 1.154535
493.90 1.154584
494.00 1.154758
494.10 1.155367
494.20 1.156645
494.30 1.158589
494.40 1.160954
494.50 1.163331
494.60 1.165251
494.70 1.166251
494.80 1.165913
494.90 1.164023
495.00 1.160582
495.10 1.15569
495.20 1.14961
495.30 1.142761
495.40 1.135602
495.50 1.128501
495.60 1.121753
495.70 1.115679
495.80 1.110628
495.90 1.106893
496.00 1.104576
496.10 1.103642
496.20 1.103948
496.30 1.105147
496.40 1.106797
496.50 1.108584
496.60 1.110208
496.70 1.111299
496.80 1.111528
496.90 1.110825
497.00 1.109397
497.10 1.1075
497.20 1.105212
497.30 1.102296
497.40 1.098365
497.50 1.093098
497.60 1.086399
497.70 1.07852
497.80 1.070014
497.90 1.061513
498.00 1.053639
498.10 1.0469
498.20 1.041576
498.30 1.037654
498.40 1.034862
498.50 1.032841
498.60 1.031197
498.70 1.029635
498.80 1.028025
498.90 1.026308
499.00 1.024447
499.10 1.022402
499.20 1.020068
499.30 1.017273
499.40 1.013963
499.50 1.010368
499.60 1.00692
499.70 1.004037
499.80 1.001944
499.90 1.000636
500.00 1
500.10 0.9999886
500.20 1.000631
500.30 1.001975
500.40 1.004103
500.50 1.007175
500.60 1.011421
500.70 1.016984
500.80 1.023756
500.90 1.031401
501.00 1.039517
501.10 1.047818
501.20 1.056184
501.30 1.06457
501.40 1.07306
501.50 1.081721
501.60 1.090471
501.70 1.099245
501.80 1.107969
501.90 1.116432
502.00 1.124338
502.10 1.131593
502.20 1.138347
502.30 1.144749
502.40 1.150821
502.50 1.156466
502.60 1.161564
502.70 1.166112
502.80 1.170196
502.90 1.173912
503.00 1.177347
503.10 1.180421
503.20 1.182912
503.30 1.184767
503.40 1.186154
503.50 1.187283
503.60 1.188373
503.70 1.189657
503.80 1.191313
503.90 1.193372
504.00 1.195651
504.10 1.197774
504.20 1.199246
504.30 1.199739
504.40 1.19926
504.50 1.198187
504.60 1.197148
504.70 1.196782
504.80 1.197678
504.90 1.200232
505.00 1.204518
505.10 1.210388
505.20 1.217501
505.30 1.225404
505.40 1.233633
505.50 1.241768
505.60 1.249495
505.70 1.256579
505.80 1.262751
505.90 1.267684
506.00 1.271145
506.10 1.273054
506.20 1.273471
506.30 1.272759
506.40 1.271546
506.50 1.270503
506.60 1.270255
506.70 1.271286
506.80 1.273829
506.90 1.27777
507.00 1.282687
507.10 1.288003
507.20 1.293222
507.30 1.298189
507.40 1.303034
507.50 1.307912
507.60 1.312852
507.70 1.317676
507.80 1.321991
507.90 1.325396
508.00 1.32767
508.10 1.328823
508.20 1.329039
508.30 1.328673
508.40 1.328104
508.50 1.327649
508.60 1.327587
508.70 1.328057
508.80 1.32905
508.90 1.330551
509.00 1.332524
509.10 1.334937
509.20 1.337863
509.30 1.341337
509.40 1.345219
509.50 1.349235
509.60 1.353106
509.70 1.356622
509.80 1.35977
509.90 1.362675
510.00 1.36541
510.10 1.36793
510.20 1.370128
510.30 1.371912
510.40 1.37326
510.50 1.374213
510.60 1.374776
510.70 1.375019
510.80 1.375195
510.90 1.375592
511.00 1.376351
511.10 1.377403
511.20 1.378407
511.30 1.378889
511.40 1.3784
511.50 1.376596
511.60 1.373285
511.70 1.36841
511.80 1.362066
511.90 1.354454
512.00 1.345972
512.10 1.337111
512.20 1.328247
512.30 1.319721
512.40 1.311915
512.50 1.30514
512.60 1.299508
512.70 1.294877
512.80 1.290892
512.90 1.287095
513.00 1.283038
513.10 1.278471
513.20 1.273434
513.30 1.268187
513.40 1.263025
513.50 1.258283
513.60 1.254283
513.70 1.251175
513.80 1.248869
513.90 1.247149
514.00 1.245805
514.10 1.244654
514.20 1.24361
514.30 1.242717
514.40 1.242038
514.50 1.241522
514.60 1.240985
514.70 1.240237
514.80 1.239141
514.90 1.237657
515.00 1.235904
515.10 1.234048
515.20 1.232215
515.30 1.230443
515.40 1.228664
515.50 1.226723
515.60 1.224331
515.70 1.221203
515.80 1.217353
515.90 1.213197
516.00 1.209388
516.10 1.206603
516.20 1.205403
516.30 1.206028
516.40 1.208262
516.50 1.211545
516.60 1.21518
516.70 1.21845
516.80 1.220715
516.90 1.221622
517.00 1.221298
517.10 1.220187
517.20 1.218792
517.30 1.217533
517.40 1.216748
517.50 1.216759
517.60 1.217829
517.70 1.220115
517.80 1.223685
517.90 1.228418
518.00 1.233955
518.10 1.239907
518.20 1.246076
518.30 1.252386
518.40 1.258764
518.50 1.265112
518.60 1.271232
518.70 1.276857
518.80 1.281693
518.90 1.285412
519.00 1.287789
519.10 1.288677
519.20 1.287966
519.30 1.285762
519.40 1.282412
519.50 1.278337
519.60 1.273992
519.70 1.269885
519.80 1.266481
519.90 1.264223
520.00 1.263542
520.10 1.264693
520.20 1.267627
520.30 1.272031
520.40 1.277337
520.50 1.282831
520.60 1.287918
520.70 1.292156
520.80 1.295319
520.90 1.297487
521.00 1.298903
521.10 1.299912
521.20 1.301009
521.30 1.302668
521.40 1.30518
521.50 1.308695
521.60 1.313217
521.70 1.318645
521.80 1.32492
521.90 1.332059
522.00 1.340026
522.10 1.34872
522.20 1.357956
522.30 1.367445
522.40 1.376862
522.50 1.385831
522.60 1.393961
522.70 1.40103
522.80 1.407115
522.90 1.41262
523.00 1.418177
523.10 1.424385
523.20 1.431555
523.30 1.439677
523.40 1.448526
523.50 1.457708
523.60 1.466745
523.70 1.4752
523.80 1.482833
523.90 1.489673
524.00 1.495935
524.10 1.501921
524.20 1.507854
524.30 1.51377
524.40 1.519621
524.50 1.525347
524.60 1.530908
524.70 1.536298
524.80 1.541515
524.90 1.546591
525.00 1.551621
525.10 1.556826
525.20 1.562492
525.30 1.568904
525.40 1.576245
525.50 1.584485
525.60 1.593425
525.70 1.602681
525.80 1.611608
525.90 1.619493
526.00 1.625695
526.10 1.629803
526.20 1.631739
526.30 1.631779
526.40 1.630507
526.50 1.628558
526.60 1.626423
526.70 1.624429
526.80 1.622775
526.90 1.621497
527.00 1.620428
527.10 1.619325
527.20 1.618015
527.30 1.616358
527.40 1.614298
527.50 1.611896
527.60 1.609232
527.70 1.60636
527.80 1.603339
527.90 1.600302
528.00 1.59742
528.10 1.594772
528.20 1.592311
528.30 1.589968
528.40 1.587682
528.50 1.585394
528.60 1.583189
528.70 1.581317
528.80 1.580032
528.90 1.579532
529.00 1.579906
529.10 1.58116
529.20 1.583227
529.30 1.585973
529.40 1.58927
529.50 1.59305
529.60 1.597232
529.70 1.601669
529.80 1.606239
529.90 1.610838
530.00 1.615288
530.10 1.619427
530.20 1.623185
530.30 1.62647
530.40 1.629257
530.50 1.631629
530.60 1.633692
530.70 1.635532
530.80 1.637151
530.90 1.638514
531.00 1.639661
531.10 1.640667
531.20 1.641531
531.30 1.642247
531.40 1.642909
531.50 1.643696
531.60 1.644805
531.70 1.646382
531.80 1.648429
531.90 1.650796
532.00 1.653199
532.10 1.655305
532.20 1.656932
532.30 1.658011
532.40 1.65856
532.50 1.658884
532.60 1.659587
532.70 1.66133
532.80 1.664519
532.90 1.669071
533.00 1.674483
533.10 1.68013
533.20 1.685425
533.30 1.68988
533.40 1.69323
533.50 1.695482
533.60 1.696902
533.70 1.698011
533.80 1.699306
533.90 1.701061
534.00 1.703359
534.10 1.706154
534.20 1.70942
534.30 1.713183
534.40 1.717468
534.50 1.722274
534.60 1.727596
534.70 1.733463
534.80 1.739911
534.90 1.746934
535.00 1.754347
535.10 1.761756
535.20 1.768837
535.30 1.775473
535.40 1.781681
535.50 1.787616
535.60 1.793548
535.70 1.799819
535.80 1.806749
535.90 1.814472
536.00 1.822952
536.10 1.832008
536.20 1.841342
536.30 1.85058
536.40 1.859451
536.50 1.868012
536.60 1.876549
536.70 1.885381
536.80 1.894835
536.90 1.905175
537.00 1.916382
537.10 1.92815
537.20 1.940048
537.30 1.951683
537.40 1.962687
537.50 1.972673
537.60 1.981412
537.70 1.989002
537.80 1.995768
537.90 2.002077
538.00 2.008257
538.10 2.014541
538.20 2.020942
538.30 2.027285
538.40 2.033428
538.50 2.039298
538.60 2.044788
538.70 2.049775
538.80 2.054255
538.90 2.058401
539.00 2.062526
539.10 2.066956
539.20 2.071868
539.30 2.077245
539.40 2.082928
539.50 2.088682
539.60 2.094332
539.70 2.099744
539.80 2.104614
539.90 2.108549
540.00 2.111315
540.10 2.11289
540.20 2.113415
540.30 2.113275
540.40 2.112891
540.50 2.112509
540.60 2.112249
540.70 2.112242
540.80 2.112609
540.90 2.113286
541.00 2.114024
541.10 2.114582
541.20 2.11497
541.30 2.115433
541.40 2.116228
541.50 2.117433
541.60 2.118916
541.70 2.12032
541.80 2.121209
541.90 2.121335
542.00 2.12072
542.10 2.119521
542.20 2.117942
542.30 2.116349
542.40 2.115148
542.50 2.114512
542.60 2.11428
542.70 2.11398
542.80 2.112973
542.90 2.110774
543.00 2.107213
543.10 2.102419
543.20 2.096772
543.30 2.090774
543.40 2.084929
543.50 2.079606
543.60 2.074956
543.70 2.070906
543.80 2.067265
543.90 2.063771
544.00 2.060085
544.10 2.055925
544.20 2.051123
544.30 2.045527
544.40 2.038928
544.50 2.031146
544.60 2.022101
544.70 2.011847
544.80 2.000592
544.90 1.988698
545.00 1.976655
545.10 1.964947
545.20 1.953806
545.30 1.943132
545.40 1.932596
545.50 1.921793
545.60 1.91044
545.70 1.898477
545.80 1.886104
545.90 1.873709
546.00 1.861762
546.10 1.850564
546.20 1.840138
546.30 1.830272
546.40 1.820462
546.50 1.810058
546.60 1.798577
546.70 1.785899
546.80 1.772204
546.90 1.757796
547.00 1.742975
547.10 1.727987
547.20 1.71298
547.30 1.698002
547.40 1.682992
547.50 1.667917
547.60 1.652882
547.70 1.638105
547.80 1.623878
547.90 1.61039
548.00 1.597644
548.10 1.585472
548.20 1.573695
548.30 1.562227
548.40 1.551027
548.50 1.540115
548.60 1.529496
548.70 1.51904
548.80 1.508572
548.90 1.497937
549.00 1.486923
549.10 1.475278
549.20 1.462918
549.30 1.45005
549.40 1.43699
549.50 1.423977
549.60 1.411049
549.70 1.398074
549.80 1.384991
549.90 1.371874
550.00 1.370094
550.10 1.362278
550.20 1.354409
550.30 1.345431
550.40 1.334293
550.50 1.320376
550.60 1.303747
550.70 1.285012
550.80 1.265296
550.90 1.245822
551.00 1.227509
551.10 1.210753
551.20 1.195428
551.30 1.181425
551.40 1.168967
551.50 1.158515
551.60 1.150372
551.70 1.144257
551.80 1.139466
551.90 1.135097
552.00 1.130129
552.10 1.123667
552.20 1.115213
552.30 1.104877
552.40 1.093289
552.50 1.081293
552.60 1.069513
552.70 1.058005
552.80 1.046412
552.90 1.034341
553.00 1.021677
553.10 1.009038
553.20 0.9973155
553.30 0.9872212
553.40 0.9793743
553.50 0.9738451
553.60 0.9699645
553.70 0.9664177
553.80 0.9617002
553.90 0.954928
554.00 0.9462704
554.10 0.936894
554.20 0.9284094
554.30 0.9223495
554.40 0.9199783
554.50 0.9219198
554.60 0.9282913
554.70 0.9387304
554.80 0.9521142
554.90 0.9672787
555.00 0.9835188
555.10 1.000431
555.20 1.019392
555.30 1.045132
555.40 1.08417
555.50 1.14236
555.60 1.223421
555.70 1.327739
555.80 1.451377
555.90 1.586443
556.00 1.722529
556.10 1.84895
556.20 1.957237
556.30 2.042501
556.40 2.104326
556.50 2.147223
556.60 2.178355
556.70 2.203935
556.80 2.228149
556.90 2.25347
557.00 2.280523
557.10 2.308469
557.20 2.336365
557.30 2.3635
557.40 2.389404
557.50 2.414222
557.60 2.438594
557.70 2.463655
557.80 2.490493
557.90 2.519642
558.00 2.551092
558.10 2.584314
558.20 2.618774
558.30 2.653983
558.40 2.689389
558.50 2.724476
558.60 2.758167
558.70 2.789095
558.80 2.81632
558.90 2.839205
559.00 2.857316
559.10 2.8707
559.20 2.878645
559.30 2.87775
559.40 2.862954
559.50 2.829674
559.60 2.774994
559.70 2.698904
559.80 2.605132
559.90 2.500584
560.00 2.394492
560.10 2.296759
560.20 2.215504
560.30 2.155468
560.40 2.117171
560.50 2.096577
560.60 2.087264
560.70 2.083871
560.80 2.082744
560.90 2.081422
561.00 2.078848
561.10 2.075122
561.20 2.070594
561.30 2.065812
561.40 2.061295
561.50 2.057165
561.60 2.053318
561.70 2.049502
561.80 2.045646
561.90 2.041859
562.00 2.038332
562.10 2.035428
562.20 2.033286
562.30 2.031738
562.40 2.030261
562.50 2.027948
562.60 2.024123
562.70 2.018333
562.80 2.010409
562.90 2.000866
563.00 1.990841
563.10 1.98164
563.20 1.974058
563.30 1.968236
563.40 1.963741
563.50 1.959621
563.60 1.954982
563.70 1.94934
563.80 1.942377
563.90 1.934047
564.00 1.924744
564.10 1.915301
564.20 1.906756
564.30 1.900062
564.40 1.89619
564.50 1.896015
564.60 1.899972
564.70 1.907907
564.80 1.919125
564.90 1.932431
565.00 1.946181
565.10 1.958574
565.20 1.968621
565.30 1.976255
565.40 1.981789
565.50 1.985874
565.60 1.989401
565.70 1.993148
565.80 1.997354
565.90 2.001812
566.00 2.006152
566.10 2.009948
566.20 2.013016
566.30 2.01546
566.40 2.017559
566.50 2.019722
566.60 2.022309
566.70 2.02582
566.80 2.030805
566.90 2.037506
567.00 2.045839
567.10 2.055586
567.20 2.066514
567.30 2.078375
567.40 2.091031
567.50 2.104364
567.60 2.117982
567.70 2.131456
567.80 2.145015
567.90 2.159682
568.00 2.176591
568.10 2.196308
568.20 2.218741
568.30 2.243167
568.40 2.268058
568.50 2.291359
568.60 2.311148
568.70 2.326044
568.80 2.335515
568.90 2.340032
569.00 2.341088
569.10 2.340753
569.20 2.340477
569.30 2.340836
569.40 2.342147
569.50 2.344505
569.60 2.347856
569.70 2.352219
569.80 2.357817
569.90 2.364854
570.00 2.373208
570.10 2.382335
570.20 2.391181
570.30 2.398719
570.40 2.404321
570.50 2.407889
570.60 2.410069
570.70 2.4117
570.80 2.413337
570.90 2.415212
571.00 2.417084
571.10 2.418174
571.20 2.417314
571.30 2.413205
571.40 2.404772
571.50 2.391633
571.60 2.374324
571.70 2.353963
571.80 2.331877
571.90 2.3093
572.00 2.287214
572.10 2.266582
572.20 2.248252
572.30 2.232711
572.40 2.220093
572.50 2.21045
572.60 2.203821
572.70 2.200366
572.80 2.200423
572.90 2.204178
573.00 2.211311
573.10 2.221097
573.20 2.232842
573.30 2.245913
573.40 2.259533
573.50 2.27271
573.60 2.284215
573.70 2.29278
573.80 2.297391
573.90 2.29757
574.00 2.293552
574.10 2.286196
574.20 2.276925
574.30 2.267338
574.40 2.259068
574.50 2.253425
574.60 2.250708
574.70 2.250191
574.80 2.250617
574.90 2.250661
575.00 2.249408
575.10 2.24683
575.20 2.243897
575.30 2.242291
575.40 2.243903
575.50 2.250238
575.60 2.26191
575.70 2.278559
575.80 2.298847
575.90 2.320611
576.00 2.341344
576.10 2.358691
576.20 2.370866
576.30 2.376889
576.40 2.376853
576.50 2.371702
576.60 2.362763
576.70 2.351238
576.80 2.338016
576.90 2.324063
577.00 2.310344
577.10 2.297701
577.20 2.286636
577.30 2.277241
577.40 2.269646
577.50 2.264016
577.60 2.260515
577.70 2.259531
577.80 2.261502
577.90 2.266765
578.00 2.275566
578.10 2.287956
578.20 2.303581
578.30 2.321378
578.40 2.339585
578.50 2.3562
578.60 2.369894
578.70 2.380551
578.80 2.388949
578.90 2.396638
579.00 2.405494
579.10 2.416656
579.20 2.430133
579.30 2.445014
579.40 2.459777
579.50 2.472853
579.60 2.482835
579.70 2.488744
579.80 2.490487
579.90 2.488815
580.00 2.484778
580.10 2.479306
580.20 2.473247
580.30 2.467573
580.40 2.463335
580.50 2.461777
580.60 2.464236
580.70 2.471539
580.80 2.48353
580.90 2.498861
581.00 2.515581
581.10 2.531625
581.20 2.545213
581.30 2.555468
581.40 2.562566
581.50 2.567642
581.60 2.572226
581.70 2.5773
581.80 2.582933
581.90 2.588385
582.00 2.592396
582.10 2.593779
582.20 2.591811
582.30 2.586501
582.40 2.578817
582.50 2.570353
582.60 2.562428
582.70 2.555348
582.80 2.548472
582.90 2.540464
583.00 2.529855
583.10 2.515961
583.20 2.499254
583.30 2.480888
583.40 2.461973
583.50 2.443261
583.60 2.425486
583.70 2.409464
583.80 2.395542
583.90 2.383662
584.00 2.373914
584.10 2.366578
584.20 2.361976
584.30 2.360108
584.40 2.360201
584.50 2.360358
584.60 2.357945
584.70 2.350796
584.80 2.337993
584.90 2.319945
585.00 2.297978
585.10 2.273759
585.20 2.248899
585.30 2.224484
585.40 2.200541
585.50 2.176197
585.60 2.15024
585.70 2.121771
585.80 2.090693
585.90 2.057727
586.00 2.02394
586.10 1.990173
586.20 1.956836
586.30 1.924047
586.40 1.891484
586.50 1.85861
586.60 1.82526
586.70 1.791685
586.80 1.758583
586.90 1.72677
587.00 1.696673
587.10 1.668215
587.20 1.640905
587.30 1.614482
587.40 1.589421
587.50 1.566533
587.60 1.546478
587.70 1.529458
587.80 1.51531
587.90 1.503353
588.00 1.49216
588.10 1.480307
588.20 1.466757
588.30 1.45121
588.40 1.434312
588.50 1.417195
588.60 1.401051
588.70 1.386782
588.80 1.374812
588.90 1.365334
589.00 1.358565
589.10 1.354521
589.20 1.352852
589.30 1.353
589.40 1.35436
589.50 1.35622
589.60 1.357814
589.70 1.358397
589.80 1.357326
589.90 1.35436
590.00 1.350068
590.10 1.345598
590.20 1.342061
590.30 1.340012
590.40 1.339275
590.50 1.339381
590.60 1.339884
590.70 1.340899
590.80 1.34324
590.90 1.34808
591.00 1.356721
591.10 1.37021
591.20 1.3889
591.30 1.412126
591.40 1.437783
591.50 1.46281
591.60 1.48445
591.70 1.500976
591.80 1.512075
591.90 1.518947
592.00 1.523836
592.10 1.528809
592.20 1.535273
592.30 1.543947
592.40 1.554674
592.50 1.566878
592.60 1.579891
592.70 1.59289
592.80 1.605398
592.90 1.61725
593.00 1.628137
593.10 1.638031
593.20 1.647189
593.30 1.655849
593.40 1.664538
593.50 1.674297
593.60 1.686321
593.70 1.70143
593.80 1.719988
593.90 1.741643
594.00 1.765358
594.10 1.790076
594.20 1.815064
594.30 1.84007
594.40 1.865387
594.50 1.891269
594.60 1.9174
594.70 1.942847
594.80 1.9664
594.90 1.986961
595.00 2.003623
595.10 2.015925
595.20 2.024024
595.30 2.028589
595.40 2.030944
595.50 2.032928
595.60 2.036138
595.70 2.041526
595.80 2.049168
595.90 2.058283
596.00 2.067951
596.10 2.0775
596.20 2.08613
596.30 2.092923
596.40 2.097445
596.50 2.099798
596.60 2.100601
596.70 2.101057
596.80 2.102154
596.90 2.104193
597.00 2.106984
597.10 2.109956
597.20 2.112592
597.30 2.114628
597.40 2.115867
597.50 2.116281
597.60 2.116201
597.70 2.116229
597.80 2.116846
597.90 2.118415
598.00 2.120902
598.10 2.123558
598.20 2.1254
598.30 2.125865
598.40 2.124919
598.50 2.122937
598.60 2.120747
598.70 2.11966
598.80 2.120941
598.90 2.125285
599.00 2.132888
599.10 2.143339
599.20 2.155519
599.30 2.167948
599.40 2.179286
599.50 2.188681
599.60 2.195831
599.70 2.200795
599.80 2.203985
599.90 2.20615
600.00 2.299675
600.10 2.288756
600.20 2.259872
600.30 2.226072
600.40 2.197531
600.50 2.174413
600.60 2.158922
600.70 2.162239
600.80 2.193588
600.90 2.250421
601.00 2.324876
601.10 2.403921
601.20 2.468804
601.30 2.507816
601.40 2.51336
601.50 2.481204
601.60 2.415088
601.70 2.326689
601.80 2.235031
601.90 2.15988
602.00 2.117368
602.10 2.114207
602.20 2.144332
602.30 2.192
602.40 2.241741
602.50 2.287848
602.60 2.334216
602.70 2.380252
602.80 2.424409
602.90 2.468755
603.00 2.508021
603.10 2.527964
603.20 2.518574
603.30 2.487657
603.40 2.452552
603.50 2.427854
603.60 2.424167
603.70 2.450129
603.80 2.508099
603.90 2.588187
604.00 2.671822
604.10 2.738868
604.20 2.775063
604.30 2.774018
604.40 2.74294
604.50 2.698989
604.60 2.665449
604.70 2.65379
604.80 2.649534
604.90 2.63355
605.00 2.603477
605.10 2.56288
605.20 2.508896
605.30 2.45401
605.40 2.421344
605.50 2.422684
605.60 2.449119
605.70 2.486674
605.80 2.527151
605.90 2.559449
606.00 2.568599
606.10 2.547923
606.20 2.510178
606.30 2.474694
606.40 2.454815
606.50 2.46369
606.60 2.513399
606.70 2.598258
606.80 2.699792
606.90 2.801549
607.00 2.895171
607.10 2.972087
607.20 3.019582
607.30 3.034441
607.40 3.023516
607.50 2.995842
607.60 2.959644
607.70 2.925762
607.80 2.899807
607.90 2.87606
608.00 2.847968
608.10 2.816534
608.20 2.785256
608.30 2.754271
608.40 2.723074
608.50 2.690518
608.60 2.660712
608.70 2.642205
608.80 2.636433
608.90 2.639596
609.00 2.649306
609.10 2.666387
609.20 2.691299
609.30 2.722058
609.40 2.753938
609.50 2.776519
609.60 2.783524
609.70 2.78104
609.80 2.774968
609.90 2.772314
610.00 2.779732
610.10 2.792692
610.20 2.804762
610.30 2.816566
610.40 2.831637
610.50 2.848619
610.60 2.863604
610.70 2.875479
610.80 2.887746
610.90 2.903265
611.00 2.918027
611.10 2.92555
611.20 2.923004
611.30 2.91209
611.40 2.893017
611.50 2.867814
611.60 2.843598
611.70 2.823292
611.80 2.802551
611.90 2.778814
612.00 2.755177
612.10 2.733077
612.20 2.706849
612.30 2.671387
612.40 2.628599
612.50 2.579017
612.60 2.524141
612.70 2.467733
612.80 2.415253
612.90 2.373248
613.00 2.347588
613.10 2.343365
613.20 2.361501
613.30 2.399361
613.40 2.446414
613.50 2.488267
613.60 2.51458
613.70 2.513204
613.80 2.474805
613.90 2.403475
614.00 2.318098
614.10 2.240882
614.20 2.187809
614.30 2.169503
614.40 2.187198
614.50 2.232365
614.60 2.289982
614.70 2.336363
614.80 2.355188
614.90 2.343797
615.00 2.310866
615.10 2.281718
615.20 2.280207
615.30 2.310123
615.40 2.357428
615.50 2.405789
615.60 2.444754
615.70 2.464463
615.80 2.459072
615.90 2.430498
616.00 2.389802
616.10 2.354444
616.20 2.335757
616.30 2.338047
616.40 2.355273
616.50 2.367856
616.60 2.352338
616.70 2.301332
616.80 2.226573
616.90 2.146886
617.00 2.081595
617.10 2.05211
617.20 2.068449
617.30 2.12388
617.40 2.199949
617.50 2.268683
617.60 2.306677
617.70 2.298268
617.80 2.239582
617.90 2.142019
618.00 2.029193
618.10 1.925484
618.20 1.845495
618.30 1.7967
618.40 1.781655
618.50 1.791491
618.60 1.81325
618.70 1.836376
618.80 1.852645
618.90 1.861373
619.00 1.863637
619.10 1.858521
619.20 1.84303
619.30 1.81715
619.40 1.784289
619.50 1.750408
619.60 1.726045
619.70 1.719879
619.80 1.732922
619.90 1.762832
620.00 1.804823
620.10 1.851666
620.20 1.896917
620.30 1.929232
620.40 1.934149
620.50 1.904675
620.60 1.847467
620.70 1.778812
620.80 1.716928
620.90 1.67843
621.00 1.672228
621.10 1.692973
621.20 1.729153
621.30 1.770456
621.40 1.804424
621.50 1.817866
621.60 1.802923
621.70 1.764848
621.80 1.721256
621.90 1.693774
622.00 1.69676
622.10 1.727408
622.20 1.779787
622.30 1.851277
622.40 1.931595
622.50 2.007495
622.60 2.066396
622.70 2.095137
622.80 2.090541
622.90 2.062923
623.00 2.028803
623.10 1.997454
623.20 1.97194
623.30 1.95484
623.40 1.946795
623.50 1.949885
623.60 1.958157
623.70 1.95803
623.80 1.940456
623.90 1.907068
624.00 1.864661
624.10 1.819168
624.20 1.778441
624.30 1.750463
624.40 1.733443
624.50 1.727518
624.60 1.737746
624.70 1.762907
624.80 1.79817
624.90 1.838959
625.00 1.889399
625.10 1.954402
625.20 2.028983
625.30 2.098749
625.40 2.149042
625.50 2.172872
625.60 2.168782
625.70 2.139558
625.80 2.095831
625.90 2.047758
626.00 2.003618
626.10 1.976208
626.20 1.977458
626.30 2.014005
626.40 2.079349
626.50 2.155432
626.60 2.230656
626.70 2.298515
626.80 2.349804
626.90 2.378215
627.00 2.380046
627.10 2.354349
627.20 2.305091
627.30 2.244824
627.40 2.190076
627.50 2.154472
627.60 2.148557
627.70 2.177331
627.80 2.237861
627.90 2.320212
628.00 2.410023
628.10 2.499765
628.20 2.589916
628.30 2.669467
628.40 2.724123
628.50 2.748893
628.60 2.739829
628.70 2.69959
628.80 2.643245
628.90 2.585268
629.00 2.533788
629.10 2.497435
629.20 2.483921
629.30 2.505012
629.40 2.580582
629.50 2.72119
629.60 2.915149
629.70 3.147007
629.80 3.400681
629.90 3.647396
630.00 3.856325
630.10 3.997182
630.20 4.039584
630.30 3.977041
630.40 3.835563
630.50 3.653322
630.60 3.472836
630.70 3.327383
630.80 3.225534
630.90 3.158898
631.00 3.118847
631.10 3.101716
631.20 3.101865
631.30 3.112257
631.40 3.129049
631.50 3.1581
631.60 3.211015
631.70 3.286522
631.80 3.367391
631.90 3.436463
632.00 3.484837
632.10 3.512963
632.20 3.526182
632.30 3.533325
632.40 3.551769
632.50 3.589355
632.60 3.638222
632.70 3.690779
632.80 3.74263
632.90 3.785024
633.00 3.807032
633.10 3.806366
633.20 3.790919
633.30 3.770712
633.40 3.749436
633.50 3.730062
633.60 3.719488
633.70 3.719102
633.80 3.720914
633.90 3.721257
634.00 3.725476
634.10 3.738437
634.20 3.762666
634.30 3.796811
634.40 3.836889
634.50 3.879028
634.60 3.918398
634.70 3.952126
634.80 3.979567
634.90 4.00039
635.00 4.013858
635.10 4.018997
635.20 4.015675
635.30 4.005497
635.40 3.99165
635.50 3.975381
635.60 3.952657
635.70 3.922606
635.80 3.888929
635.90 3.847225
636.00 3.793545
636.10 3.730444
636.20 3.671653
636.30 3.633177
636.40 3.622914
636.50 3.652112
636.60 3.72404
636.70 3.828937
636.80 3.950608
636.90 4.073449
637.00 4.187362
637.10 4.279238
637.20 4.335955
637.30 4.361706
637.40 4.367989
637.50 4.362749
637.60 4.345679
637.70 4.310299
637.80 4.259124
637.90 4.196963
638.00 4.130624
638.10 4.071031
638.20 4.02862
638.30 4.006051
638.40 3.999439
638.50 4.005086
638.60 4.018989
638.70 4.03762
638.80 4.058313
638.90 4.078463
639.00 4.096214
639.10 4.114105
639.20 4.132377
639.30 4.151226
639.40 4.172452
639.50 4.196
639.60 4.221634
639.70 4.24713
639.80 4.270944
639.90 4.297445
640.00 4.330184
640.10 4.363759
640.20 4.387925
640.30 4.391548
640.40 4.369848
640.50 4.326778
640.60 4.269287
640.70 4.203652
640.80 4.138724
640.90 4.082676
641.00 4.039446
641.10 4.015717
641.20 4.010783
641.30 4.016034
641.40 4.029986
641.50 4.054223
641.60 4.084997
641.70 4.118886
641.80 4.150677
641.90 4.169973
642.00 4.167712
642.10 4.141201
642.20 4.098477
642.30 4.053678
642.40 4.016335
642.50 3.988837
642.60 3.976158
642.70 3.977462
642.80 3.983492
642.90 3.983856
643.00 3.970528
643.10 3.94153
643.20 3.902749
643.30 3.86503
643.40 3.842218
643.50 3.844181
643.60 3.865956
643.70 3.897115
643.80 3.930281
643.90 3.958461
644.00 3.975838
644.10 3.985635
644.20 3.995761
644.30 4.011899
644.40 4.038333
644.50 4.073202
644.60 4.11153
644.70 4.150812
644.80 4.185097
644.90 4.207897
645.00 4.218368
645.10 4.21807
645.20 4.211815
645.30 4.204328
645.40 4.198313
645.50 4.195635
645.60 4.192656
645.70 4.185786
645.80 4.176591
645.90 4.173204
646.00 4.181308
646.10 4.198961
646.20 4.222392
646.30 4.24581
646.40 4.262619
646.50 4.270361
646.60 4.269386
646.70 4.261027
646.80 4.247802
646.90 4.235269
647.00 4.230574
647.10 4.239285
647.20 4.266161
647.30 4.308104
647.40 4.359805
647.50 4.416944
647.60 4.475132
647.70 4.532636
647.80 4.587146
647.90 4.634521
648.00 4.669366
648.10 4.689631
648.20 4.695313
648.30 4.684051
648.40 4.655772
648.50 4.616834
648.60 4.574968
648.70 4.536676
648.80 4.505152
648.90 4.483385
649.00 4.47734
649.10 4.491615
649.20 4.527329
649.30 4.580296
649.40 4.646162
649.50 4.724399
649.60 4.812473
649.70 4.902806
649.80 4.984826
649.90 5.046815
650.00 5.082401
650.10 5.091962
650.20 5.082915
650.30 5.070654
650.40 5.068601
650.50 5.082826
650.60 5.1189
650.70 5.178477
650.80 5.254547
650.90 5.33778
651.00 5.422387
651.10 5.50758
651.20 5.595173
651.30 5.685146
651.40 5.774657
651.50 5.865914
651.60 5.962743
651.70 6.061761
651.80 6.155679
651.90 6.23915
652.00 6.306732
652.10 6.356911
652.20 6.399715
652.30 6.449245
652.40 6.517048
652.50 6.613259
652.60 6.74516
652.70 6.916054
652.80 7.117233
652.90 7.321012
653.00 7.493849
653.10 7.611536
653.20 7.665145
653.30 7.665489
653.40 7.635818
653.50 7.59995
653.60 7.577311
653.70 7.581224
653.80 7.61785
653.90 7.681651
654.00 7.754264
654.10 7.812815
654.20 7.848939
654.30 7.868686
654.40 7.875608
654.50 7.866902
654.60 7.839401
654.70 7.790562
654.80 7.722341
654.90 7.638257
655.00 7.53678
655.10 7.433784
655.20 7.35716
655.30 7.325691
655.40 7.354461
655.50 7.447413
655.60 7.59625
655.70 7.803464
655.80 8.085191
655.90 8.447846
656.00 8.87891
656.10 9.334244
656.20 9.738075
656.30 10.02516
656.40 10.15297
656.50 10.08541
656.60 9.81583
656.70 9.383939
656.80 8.856975
656.90 8.316674
657.00 7.840096
657.10 7.476066
657.20 7.23402
657.30 7.093043
657.40 7.008508
657.50 6.934517
657.60 6.847063
657.70 6.732103
657.80 6.59036
657.90 6.439894
658.00 6.300198
658.10 6.185517
658.20 6.10824
658.30 6.079738
658.40 6.104955
658.50 6.174494
658.60 6.267695
658.70 6.362136
658.80 6.442183
658.90 6.50146
659.00 6.538354
659.10 6.555894
659.20 6.563407
659.30 6.570586
659.40 6.585759
659.50 6.617596
659.60 6.668516
659.70 6.73636
659.80 6.813162
659.90 6.885697
660.00 6.946467
660.10 6.997132
660.20 7.037178
660.30 7.061854
660.40 7.073726
660.50 7.078438
660.60 7.076259
660.70 7.06927
660.80 7.062536
660.90 7.057624
661.00 7.057558
661.10 7.06518
661.20 7.077251
661.30 7.08436
661.40 7.074664
661.50 7.039002
661.60 6.98241
661.70 6.920408
661.80 6.862181
661.90 6.81312
662.00 6.777471
662.10 6.750939
662.20 6.725912
662.30 6.699608
662.40 6.667008
662.50 6.623193
662.60 6.574699
662.70 6.53985
662.80 6.5369
662.90 6.570414
663.00 6.629896
663.10 6.698864
663.20 6.762754
663.30 6.811795
663.40 6.841966
663.50 6.851276
663.60 6.835954
663.70 6.794944
663.80 6.737284
663.90 6.678233
664.00 6.6311
664.10 6.602556
664.20 6.595947
664.30 6.615029
664.40 6.657203
664.50 6.712631
664.60 6.765017
664.70 6.790565
664.80 6.766635
664.90 6.691172
665.00 6.584348
665.10 6.472996
665.20 6.382346
665.30 6.328736
665.40 6.316699
665.50 6.341237
665.60 6.38522
665.70 6.426083
665.80 6.447556
665.90 6.442549
666.00 6.41162
666.10 6.367052
666.20 6.328864
666.30 6.31048
666.40 6.316106
666.50 6.344159
666.60 6.388491
666.70 6.44208
666.80 6.495683
666.90 6.540399
667.00 6.573623
667.10 6.600015
667.20 6.630645
667.30 6.673167
667.40 6.73104
667.50 6.802092
667.60 6.87412
667.70 6.927977
667.80 6.948258
667.90 6.930897
668.00 6.88034
668.10 6.805364
668.20 6.715641
668.30 6.623364
668.40 6.541061
668.50 6.475989
668.60 6.430352
668.70 6.40586
668.80 6.401114
668.90 6.407539
669.00 6.41404
669.10 6.414516
669.20 6.408763
669.30 6.399923
669.40 6.390776
669.50 6.381005
669.60 6.370235
669.70 6.362564
669.80 6.367644
669.90 6.395981
670.00 6.447851
670.10 6.511994
670.20 6.580436
670.30 6.648876
670.40 6.711337
670.50 6.767923
670.60 6.819516
670.70 6.862568
670.80 6.900314
670.90 6.94567
671.00 7.011264
671.10 7.092059
671.20 7.164986
671.30 7.20499
671.40 7.196827
671.50 7.137097
671.60 7.024984
671.70 6.870709
671.80 6.702243
671.90 6.545063
672.00 6.420261
672.10 6.347682
672.20 6.331265
672.30 6.355599
672.40 6.398932
672.50 6.445807
672.60 6.491846
672.70 6.535323
672.80 6.572428
672.90 6.601769
673.00 6.624727
673.10 6.644446
673.20 6.665176
673.30 6.692971
673.40 6.727789
673.50 6.762924
673.60 6.794006
673.70 6.820876
673.80 6.84578
673.90 6.875857
674.00 6.919445
674.10 6.980426
674.20 7.053292
674.30 7.12335
674.40 7.180511
674.50 7.220144
674.60 7.237896
674.70 7.235076
674.80 7.219553
674.90 7.199762
675.00 7.17822
675.10 7.158086
675.20 7.145843
675.30 7.141141
675.40 7.138716
675.50 7.135037
675.60 7.134761
675.70 7.148852
675.80 7.181335
675.90 7.227582
676.00 7.281936
676.10 7.341189
676.20 7.401879
676.30 7.457178
676.40 7.507241
676.50 7.555551
676.60 7.602399
676.70 7.647911
676.80 7.68967
676.90 7.721636
677.00 7.739978
677.10 7.748479
677.20 7.757865
677.30 7.775741
677.40 7.799843
677.50 7.822165
677.60 7.833793
677.70 7.829312
677.80 7.803608
677.90 7.750715
678.00 7.665229
678.10 7.547509
678.20 7.406771
678.30 7.260772
678.40 7.126449
678.50 7.013071
678.60 6.918766
678.70 6.842418
678.80 6.793705
678.90 6.77745
679.00 6.795073
679.10 6.846293
679.20 6.924611
679.30 7.021464
679.40 7.130179
679.50 7.243004
679.60 7.346052
679.70 7.42264
679.80 7.462845
679.90 7.46614
680.00 7.447377
680.10 7.424919
680.20 7.405481
680.30 7.394682
680.40 7.396238
680.50 7.408473
680.60 7.428579
680.70 7.452946
680.80 7.473311
680.90 7.479484
681.00 7.468436
681.10 7.446767
681.20 7.423404
681.30 7.403553
681.40 7.387039
681.50 7.370891
681.60 7.353943
681.70 7.333987
681.80 7.312511
681.90 7.29903
682.00 7.303215
682.10 7.335277
682.20 7.409326
682.30 7.535561
682.40 7.709332
682.50 7.903959
682.60 8.081143
682.70 8.20913
682.80 8.266565
682.90 8.24787
683.00 8.162729
683.10 8.032597
683.20 7.88246
683.30 7.737143
683.40 7.622762
683.50 7.55433
683.60 7.529756
683.70 7.534022
683.80 7.550587
683.90 7.574328
684.00 7.606923
684.10 7.64294
684.20 7.67405
684.30 7.694814
684.40 7.70268
684.50 7.695305
684.60 7.666522
684.70 7.610526
684.80 7.524155
684.90 7.41372
685.00 7.30029
685.10 7.211282
685.20 7.164569
685.30 7.158639
685.40 7.181343
685.50 7.223944
685.60 7.276792
685.70 7.331582
685.80 7.39071
685.90 7.462551
686.00 7.550716
686.10 7.650717
686.20 7.755436
686.30 7.853178
686.40 7.924409
686.50 7.953482
686.60 7.935787
686.70 7.880036
686.80 7.807495
686.90 7.737091
687.00 7.683298
687.10 7.652454
687.20 7.63761
687.30 7.624442
687.40 7.607503
687.50 7.586828
687.60 7.55915
687.70 7.527853
687.80 7.503414
687.90 7.492878
688.00 7.501643
688.10 7.534202
688.20 7.580885
688.30 7.630156
688.40 7.677246
688.50 7.713197
688.60 7.730385
688.70 7.734584
688.80 7.734901
688.90 7.736534
689.00 7.741944
689.10 7.747314
689.20 7.748181
689.30 7.742243
689.40 7.727365
689.50 7.704588
689.60 7.68112
689.70 7.660472
689.80 7.641697
689.90 7.627848
690.00 7.618841
690.10 7.607865
690.20 7.590805
690.30 7.571219
690.40 7.562138
690.50 7.580547
690.60 7.633286
690.70 7.7247
690.80 7.85678
690.90 8.010818
691.00 8.163101
691.10 8.303616
691.20 8.42018
691.30 8.495309
691.40 8.518285
691.50 8.479271
691.60 8.375577
691.70 8.228169
691.80 8.074076
691.90 7.949137
692.00 7.886414
692.10 7.909283
692.20 8.022425
692.30 8.219889
692.40 8.476299
692.50 8.740435
692.60 8.965225
692.70 9.126897
692.80 9.219806
692.90 9.258031
693.00 9.268585
693.10 9.276701
693.20 9.298321
693.30 9.338411
693.40 9.392844
693.50 9.449126
693.60 9.492304
693.70 9.511803
693.80 9.512566
693.90 9.518702
694.00 9.55576
694.10 9.640732
694.20 9.787901
694.30 10.00566
694.40 10.28914
694.50 10.6168
694.60 10.95346
694.70 11.26487
694.80 11.52291
694.90 11.70314
695.00 11.78956
695.10 11.77791
695.20 11.67518
695.30 11.49975
695.40 11.27946
695.50 11.05086
695.60 10.84828
695.70 10.69645
695.80 10.60867
695.90 10.58402
696.00 10.61549
696.10 10.69001
696.20 10.78818
696.30 10.89644
696.40 11.00992
696.50 11.12611
696.60 11.23835
696.70 11.33298
696.80 11.39431
696.90 11.40949
697.00 11.3766
697.10 11.30479
697.20 11.21293
697.30 11.13147
697.40 11.08795
697.50 11.09877
697.60 11.17039
697.70 11.29213
697.80 11.43883
697.90 11.58388
698.00 11.70491
698.10 11.79196
698.20 11.85346
698.30 11.90502
698.40 11.95503
698.50 12.00845
698.60 12.06864
698.70 12.12739
698.80 12.17271
698.90 12.19888
699.00 12.2045
699.10 12.18951
699.20 12.1488
699.30 12.0798
699.40 11.99398
699.50 11.909
699.60 11.83668
699.70 11.78539
699.80 11.76629
699.90 11.7877
700.00 11.85224
700.10 11.95683
700.20 12.09208
700.30 12.24371
700.40 12.39605
700.50 12.53822
700.60 12.67269
700.70 12.80499
700.80 12.92636
700.90 13.02272
701.00 13.09054
701.10 13.13416
701.20 13.16234
701.30 13.18204
701.40 13.1953
701.50 13.21393
701.60 13.25577
701.70 13.32841
701.80 13.42648
701.90 13.539
702.00 13.65114
702.10 13.74862
702.20 13.8277
702.30 13.89619
702.40 13.96694
702.50 14.05667
702.60 14.18021
702.70 14.3469
702.80 14.55674
702.90 14.79234
703.00 15.027
703.10 15.24481
703.20 15.44444
703.30 15.62772
703.40 15.79622
703.50 15.95249
703.60 16.10471
703.70 16.25685
703.80 16.40395
703.90 16.54073
704.00 16.66308
704.10 16.76154
704.20 16.83117
704.30 16.88105
704.40 16.92247
704.50 16.96129
704.60 17.00493
704.70 17.05583
704.80 17.10684
704.90 17.14089
705.00 17.11193
705.10 16.95804
705.20 16.62532
705.30 16.08044
705.40 15.32801
705.50 14.41927
705.60 13.43476
705.70 12.46195
705.80 11.58714
705.90 10.87611
706.00 10.35249
706.10 10.00717
706.20 9.80216
706.30 9.683655
706.40 9.614462
706.50 9.580044
706.60 9.580211
706.70 9.6197
706.80 9.699922
706.90 9.818939
707.00 9.972759
707.10 10.15
707.20 10.32802
707.30 10.48249
707.40 10.5988
707.50 10.67479
707.60 10.72288
707.70 10.7596
707.80 10.80129
707.90 10.86264
708.00 10.95306
708.10 11.07299
708.20 11.20655
708.30 11.32211
708.40 11.38319
708.50 11.36003
708.60 11.24319
708.70 11.04256
708.80 10.77784
708.90 10.47813
709.00 10.17781
709.10 9.910834
709.20 9.699144
709.30 9.550672
709.40 9.457945
709.50 9.40428
709.60 9.374476
709.70 9.359281
709.80 9.353165
709.90 9.356507
710.00 9.372811
710.10 9.402696
710.20 9.447663
710.30 9.508486
710.40 9.58864
710.50 9.694884
710.60 9.829687
710.70 9.986552
710.80 10.15829
710.90 10.33119
711.00 10.4819
711.10 10.59234
711.20 10.65542
711.30 10.6709
711.40 10.64583
711.50 10.59836
711.60 10.55016
711.70 10.52012
711.80 10.52144
711.90 10.55705
712.00 10.6196
712.10 10.68809
712.20 10.7308
712.30 10.7247
712.40 10.66207
712.50 10.54201
712.60 10.3694
712.70 10.16397
712.80 9.952129
712.90 9.763912
713.00 9.6253
713.10 9.543289
713.20 9.509884
713.30 9.508107
713.40 9.519533
713.50 9.529216
713.60 9.527555
713.70 9.511836
713.80 9.486924
713.90 9.463608
714.00 9.454494
714.10 9.466325
714.20 9.500186
714.30 9.547865
714.40 9.603422
714.50 9.665955
714.60 9.728417
714.70 9.782706
714.80 9.821487
714.90 9.843605
715.00 9.856735
715.10 9.867904
715.20 9.882379
715.30 9.908484
715.40 9.952402
715.50 10.01152
715.60 10.08018
715.70 10.15388
715.80 10.21671
715.90 10.25474
716.00 10.26727
716.10 10.26448
716.20 10.26021
716.30 10.26273
716.40 10.276
716.50 10.29963
716.60 10.32821
716.70 10.35505
716.80 10.37501
716.90 10.38718
717.00 10.40017
717.10 10.4268
717.20 10.48313
717.30 10.57718
717.40 10.69952
717.50 10.83126
717.60 10.95617
717.70 11.06331
717.80 11.14943
717.90 11.22202
718.00 11.29284
718.10 11.37206
718.20 11.46733
718.30 11.58238
718.40 11.71178
718.50 11.84534
718.60 11.96994
718.70 12.07389
718.80 12.15354
718.90 12.20395
719.00 12.2259
719.10 12.23068
719.20 12.22413
719.30 12.20454
719.40 12.16799
719.50 12.11423
719.60 12.04755
719.70 11.97285
719.80 11.89118
719.90 11.80077
720.00 11.70842
720.10 11.62633
720.20 11.56424
720.30 11.53254
720.40 11.53016
720.50 11.54612
720.60 11.56992
720.70 11.59472
720.80 11.62749
720.90 11.67814
721.00 11.74816
721.10 11.83309
721.20 11.92543
721.30 12.01892
721.40 12.10397
721.50 12.16797
721.60 12.206
721.70 12.22394
721.80 12.24051
721.90 12.27963
722.00 12.35897
722.10 12.48761
722.20 12.66022
722.30 12.85773
722.40 13.05846
722.50 13.24317
722.60 13.39787
722.70 13.51569
722.80 13.59287
722.90 13.63722
723.00 13.67189
723.10 13.72133
723.20 13.797
723.30 13.89896
723.40 14.03603
723.50 14.21963
723.60 14.43665
723.70 14.649
723.80 14.8234
723.90 14.9497
724.00 15.03432
724.10 15.08747
724.20 15.12593
724.30 15.18182
724.40 15.28357
724.50 15.43702
724.60 15.63699
724.70 15.8792
724.80 16.13948
724.90 16.37276
725.00 16.54858
725.10 16.66423
725.20 16.72906
725.30 16.75283
725.40 16.74533
725.50 16.72171
725.60 16.70575
725.70 16.71393
725.80 16.75251
725.90 16.83113
726.00 16.95497
726.10 17.11373
726.20 17.29195
726.30 17.47702
726.40 17.65182
726.50 17.79683
726.60 17.89637
726.70 17.94176
726.80 17.93883
726.90 17.91401
727.00 17.90799
727.10 17.94473
727.20 18.02686
727.30 18.14313
727.40 18.26838
727.50 18.37768
727.60 18.45235
727.70 18.48395
727.80 18.4838
727.90 18.4787
728.00 18.48785
728.10 18.52399
728.20 18.60601
728.30 18.73637
728.40 18.88585
728.50 19.02549
728.60 19.14259
728.70 19.23793
728.80 19.32448
728.90 19.4159
729.00 19.52784
729.10 19.67483
729.20 19.85911
729.30 20.07568
729.40 20.32741
729.50 20.61198
729.60 20.90496
729.70 21.18555
729.80 21.44922
729.90 21.69867
730.00 21.93859
730.10 22.17815
730.20 22.43034
730.30 22.70003
730.40 22.97764
730.50 23.24756
730.60 23.49899
730.70 23.72251
730.80 23.91541
730.90 24.09327
731.00 24.28628
731.10 24.51495
731.20 24.77427
731.30 25.05051
731.40 25.3472
731.50 25.66501
731.60 25.98733
731.70 26.29855
731.80 26.58537
731.90 26.83606
732.00 27.04334
732.10 27.20797
732.20 27.32665
732.30 27.39485
732.40 27.41523
732.50 27.38381
732.60 27.3048
732.70 27.20121
732.80 27.08784
732.90 26.97461
733.00 26.88391
733.10 26.84433
733.20 26.88528
733.30 27.03048
733.40 27.29305
733.50 27.67915
733.60 28.18375
733.70 28.76672
733.80 29.35802
733.90 29.89409
734.00 30.32355
734.10 30.58984
734.20 30.64381
734.30 30.47536
734.40 30.11963
734.50 29.64806
734.60 29.1526
734.70 28.71959
734.80 28.40815
734.90 28.23223
735.00 28.16416
735.10 28.15626
735.20 28.1584
735.30 28.13949
735.40 28.09165
735.50 28.02966
735.60 27.98578
735.70 27.99602
735.80 28.08679
735.90 28.26738
736.00 28.53206
736.10 28.86683
736.20 29.25467
736.30 29.67738
736.40 30.11575
736.50 30.55252
736.60 30.97032
736.70 31.35131
736.80 31.68481
736.90 31.95298
737.00 32.12161
737.10 32.14956
737.20 32.01205
737.30 31.71717
737.40 31.30432
737.50 30.83072
737.60 30.35869
737.70 29.94772
737.80 29.64517
737.90 29.48103
738.00 29.46291
738.10 29.56671
738.20 29.74257
738.30 29.94699
738.40 30.16142
738.50 30.38768
738.60 30.63339
738.70 30.89783
738.80 31.15397
738.90 31.35139
739.00 31.43771
739.10 31.37081
739.20 31.13598
739.30 30.7572
739.40 30.29021
739.50 29.81828
739.60 29.43207
739.70 29.1957
739.80 29.14646
739.90 29.28337
740.00 29.55082
740.10 29.84986
740.20 30.07046
740.30 30.13405
740.40 30.01247
740.50 29.73467
740.60 29.37948
740.70 29.04048
740.80 28.79956
740.90 28.70559
741.00 28.76553
741.10 28.95838
741.20 29.22716
741.30 29.48335
741.40 29.63773
741.50 29.62582
741.60 29.43409
741.70 29.09762
741.80 28.67863
741.90 28.24772
742.00 27.87234
742.10 27.61463
742.20 27.50951
742.30 27.55531
742.40 27.72608
742.50 27.97453
742.60 28.24051
742.70 28.47806
742.80 28.66875
742.90 28.81043
743.00 28.89665
743.10 28.90546
743.20 28.8223
743.30 28.6588
743.40 28.43878
743.50 28.18687
743.60 27.94598
743.70 27.76191
743.80 27.65484
743.90 27.61818
744.00 27.6238
744.10 27.62775
744.20 27.57701
744.30 27.43295
744.40 27.19745
744.50 26.91827
744.60 26.66003
744.70 26.47943
744.80 26.41882
744.90 26.49713
745.00 26.69275
745.10 26.95365
745.20 27.21808
745.30 27.435
745.40 27.57598
745.50 27.62762
745.60 27.59475
745.70 27.50487
745.80 27.39704
745.90 27.31315
746.00 27.29212
746.10 27.35352
746.20 27.49434
746.30 27.6982
746.40 27.94108
746.50 28.19689
746.60 28.44174
746.70 28.65274
746.80 28.81274
746.90 28.91752
747.00 28.96907
747.10 28.96366
747.20 28.90571
747.30 28.81416
747.40 28.70276
747.50 28.58121
747.60 28.45986
747.70 28.35458
747.80 28.29401
747.90 28.30465
748.00 28.40111
748.10 28.57576
748.20 28.80122
748.30 29.04943
748.40 29.29639
748.50 29.52852
748.60 29.73893
748.70 29.91852
748.80 30.05907
748.90 30.15439
749.00 30.20282
749.10 30.19927
749.20 30.13503
749.30 30.01289
749.40 29.86073
749.50 29.73646
749.60 29.69785
749.70 29.77394
749.80 29.96558
749.90 30.24252
750.00 30.54109
750.10 30.78779
750.20 30.93135
750.30 30.9572
750.40 30.88906
750.50 30.78384
750.60 30.71047
750.70 30.7213
750.80 30.83251
750.90 31.01748
751.00 31.22151
751.10 31.39221
751.20 31.49441
751.30 31.51524
751.40 31.46771
751.50 31.38039
751.60 31.28592
751.70 31.21407
751.80 31.18685
751.90 31.22239
752.00 31.32302
752.10 31.47102
752.20 31.63452
752.30 31.77691
752.40 31.87433
752.50 31.91519
752.60 31.90642
752.70 31.87445
752.80 31.85168
752.90 31.86107
753.00 31.90873
753.10 31.99498
753.20 32.11368
753.30 32.2422
753.40 32.36739
753.50 32.50526
753.60 32.68272
753.70 32.92291
753.80 33.23942
753.90 33.62989
754.00 34.07183
754.10 34.51833
754.20 34.90853
754.30 35.19254
754.40 35.34555
754.50 35.36749
754.60 35.28073
754.70 35.12649
754.80 34.95135
754.90 34.79097
755.00 34.67511
755.10 34.62815
755.20 34.6603
755.30 34.76288
755.40 34.90755
755.50 35.0685
755.60 35.2321
755.70 35.38559
755.80 35.52366
755.90 35.64659
756.00 35.75052
756.10 35.82632
756.20 35.85812
756.30 35.83016
756.40 35.7365
756.50 35.59036
756.60 35.42137
756.70 35.26716
756.80 35.16745
756.90 35.16053
757.00 35.26198
757.10 35.4441
757.20 35.65432
757.30 35.84339
757.40 35.97297
757.50 36.02349
757.60 36.00692
757.70 35.96277
757.80 35.94645
757.90 36.00192
758.00 36.14284
758.10 36.35058
758.20 36.56865
758.30 36.6957
758.40 36.60664
758.50 36.19673
758.60 35.39409
758.70 34.17062
758.80 32.57224
758.90 30.71862
759.00 28.7788
759.10 26.94476
759.20 25.38755
759.30 24.20962
759.40 23.42291
759.50 22.99942
759.60 22.89194
759.70 22.98551
759.80 23.14952
759.90 23.33751
760.00 23.54226
760.10 23.73413
760.20 23.88957
760.30 23.99759
760.40 24.04547
760.50 24.02946
760.60 23.9666
760.70 23.89671
760.80 23.87752
760.90 23.93668
761.00 24.07068
761.10 24.3022
761.20 24.65189
761.30 25.07338
761.40 25.5098
761.50 25.94543
761.60 26.36097
761.70 26.72502
761.80 27.00921
761.90 27.17858
762.00 27.19455
762.10 27.03182
762.20 26.69395
762.30 26.20671
762.40 25.59442
762.50 24.86968
762.60 24.0454
762.70 23.15113
762.80 22.2321
762.90 21.34558
763.00 20.54734
763.10 19.87659
763.20 19.35048
763.30 18.96311
763.40 18.69147
763.50 18.50598
763.60 18.37159
763.70 18.25098
763.80 18.11581
763.90 17.95743
764.00 17.78282
764.10 17.606
764.20 17.43857
764.30 17.27699
764.40 17.11762
764.50 16.96398
764.60 16.81252
764.70 16.64799
764.80 16.44995
764.90 16.1977
765.00 15.86709
765.10 15.44321
765.20 14.93311
765.30 14.37251
765.40 13.81439
765.50 13.29111
765.60 12.80794
765.70 12.36466
765.80 11.94592
765.90 11.50707
766.00 11.00143
766.10 10.40758
766.20 9.726858
766.30 8.987744
766.40 8.254603
766.50 7.606848
766.60 7.119881
766.70 6.848502
766.80 6.817778
766.90 7.026439
767.00 7.447749
767.10 8.021923
767.20 8.672935
767.30 9.337362
767.40 9.966449
767.50 10.52987
767.60 11.01742
767.70 11.43375
767.80 11.79563
767.90 12.12208
768.00 12.42619
768.10 12.71405
768.20 12.98454
768.30 13.22895
768.40 13.42876
768.50 13.56022
768.60 13.60675
768.70 13.56938
768.80 13.45968
768.90 13.28866
769.00 13.06257
769.10 12.77959
769.20 12.43058
769.30 12.00338
769.40 11.4873
769.50 10.87779
769.60 10.18545
769.70 9.454588
769.80 8.76314
769.90 8.203004
770.00 7.855131
770.10 7.769671
770.20 7.956235
770.30 8.386567
770.40 9.007674
770.50 9.750559
770.60 10.54997
770.70 11.35478
770.80 12.11455
770.90 12.80294
771.00 13.43878
771.10 14.04726
771.20 14.62425
771.30 15.14249
771.40 15.57016
771.50 15.89586
771.60 16.13895
771.70 16.32873
771.80 16.49566
771.90 16.66133
772.00 16.83306
772.10 17.02397
772.20 17.2695
772.30 17.59183
772.40 17.97092
772.50 18.37392
772.60 18.78567
772.70 19.20122
772.80 19.61392
772.90 20.00927
773.00 20.37033
773.10 20.69002
773.20 20.97036
773.30 21.22853
773.40 21.48674
773.50 21.75329
773.60 22.02163
773.70 22.28293
773.80 22.52199
773.90 22.70896
774.00 22.80829
774.10 22.79765
774.20 22.67254
774.30 22.44934
774.40 22.17135
774.50 21.89578
774.60 21.672
774.70 21.51597
774.80 21.41946
774.90 21.37786
775.00 21.39073
775.10 21.43528
775.20 21.46824
775.30 21.46255
775.40 21.42437
775.50 21.38428
775.60 21.37396
775.70 21.40069
775.80 21.44534
775.90 21.48529
776.00 21.50744
776.10 21.51913
776.20 21.53238
776.30 21.5416
776.40 21.53926
776.50 21.54424
776.60 21.60539
776.70 21.76516
776.80 22.03196
776.90 22.38353
777.00 22.78671
777.10 23.20806
777.20 23.60926
777.30 23.94164
777.40 24.16239
777.50 24.26235
777.60 24.25372
777.70 24.1596
777.80 24.01486
777.90 23.84457
778.00 23.65773
778.10 23.45225
778.20 23.22495
778.30 22.97574
778.40 22.71202
778.50 22.45454
778.60 22.23402
778.70 22.09101
778.80 22.06838
778.90 22.18328
779.00 22.41889
779.10 22.7363
779.20 23.07721
779.30 23.38671
779.40 23.61132
779.50 23.68815
779.60 23.55735
779.70 23.19613
779.80 22.64617
779.90 22.01399
780.00 21.4477
780.10 21.09509
780.20 21.07063
780.30 21.44319
780.40 22.21407
780.50 23.28541
780.60 24.49489
780.70 25.66784
780.80 26.65381
780.90 27.37584
781.00 27.85027
781.10 28.15048
781.20 28.37107
781.30 28.58664
781.40 28.83225
781.50 29.11266
781.60 29.40042
781.70 29.62223
781.80 29.69471
781.90 29.59816
782.00 29.36597
782.10 29.04609
782.20 28.6908
782.30 28.34223
782.40 28.01859
782.50 27.71215
782.60 27.39795
782.70 27.05993
782.80 26.69596
782.90 26.31225
783.00 25.9283
783.10 25.59725
783.20 25.4062
783.30 25.40329
783.40 25.56905
783.50 25.85909
783.60 26.22862
783.70 26.62659
783.80 27.00043
783.90 27.33159
784.00 27.62885
784.10 27.9051
784.20 28.18023
784.30 28.46955
784.40 28.77182
784.50 29.0642
784.60 29.30487
784.70 29.4681
784.80 29.55481
784.90 29.5516
785.00 29.43281
785.10 29.21825
785.20 28.9822
785.30 28.80433
785.40 28.74463
785.50 28.83151
785.60 29.0518
785.70 29.35456
785.80 29.67081
785.90 29.9348
786.00 30.09192
786.10 30.10091
786.20 29.94427
786.30 29.65129
786.40 29.29747
786.50 28.95994
786.60 28.68959
786.70 28.50413
786.80 28.38045
786.90 28.28159
787.00 28.17948
787.10 28.06571
787.20 27.95238
787.30 27.8654
787.40 27.83855
787.50 27.90586
787.60 28.0904
787.70 28.39742
787.80 28.80857
787.90 29.28456
788.00 29.77524
788.10 30.22933
788.20 30.61615
788.30 30.92213
788.40 31.15713
788.50 31.35398
788.60 31.52718
788.70 31.67571
788.80 31.80493
788.90 31.9197
789.00 32.02216
789.10 32.10342
789.20 32.14106
789.30 32.0995
789.40 31.93556
789.50 31.62025
789.60 31.15712
789.70 30.58711
789.80 29.96817
789.90 29.37055
790.00 28.89024
790.10 28.62034
790.20 28.60104
790.30 28.80348
790.40 29.13648
790.50 29.47927
790.60 29.71301
790.70 29.75759
790.80 29.60132
790.90 29.27205
791.00 28.83318
791.10 28.38355
791.20 28.02961
791.30 27.84635
791.40 27.8519
791.50 28.00704
791.60 28.23029
791.70 28.43404
791.80 28.55973
791.90 28.59784
792.00 28.5772
792.10 28.53285
792.20 28.49095
792.30 28.49011
792.40 28.56178
792.50 28.71215
792.60 28.92706
792.70 29.18288
792.80 29.455
792.90 29.72412
793.00 30.00437
793.10 30.3255
793.20 30.69414
793.30 31.07845
793.40 31.42385
793.50 31.6671
793.60 31.74584
793.70 31.62574
793.80 31.31196
793.90 30.83996
794.00 30.26582
794.10 29.65114
794.20 29.05425
794.30 28.50733
794.40 27.99419
794.50 27.4787
794.60 26.95417
794.70 26.46105
794.80 26.07348
794.90 25.88791
795.00 25.99112
795.10 26.42084
795.20 27.15363
795.30 28.10491
795.40 29.14561
795.50 30.12828
795.60 30.91562
795.70 31.4255
795.80 31.65434
795.90 31.66407
796.00 31.53849
796.10 31.34957
796.20 31.16777
796.30 31.06989
796.40 31.12089
796.50 31.34641
796.60 31.72935
796.70 32.228
796.80 32.77739
796.90 33.30212
797.00 33.73569
797.10 34.02121
797.20 34.11055
797.30 33.97697
797.40 33.64562
797.50 33.19094
797.60 32.69251
797.70 32.21581
797.80 31.81446
797.90 31.52027
798.00 31.33041
798.10 31.20545
798.20 31.08845
798.30 30.92479
798.40 30.68586
798.50 30.38395
798.60 30.07845
798.70 29.86011
798.80 29.79462
798.90 29.90009
799.00 30.15767
799.10 30.51147
799.20 30.88861
799.30 31.22942
799.40 31.49868
799.50 31.68908
799.60 31.81861
799.70 31.9221
799.80 32.03963
799.90 32.20606
800.00 32.43586
800.10 32.7138
800.20 33.0207
800.30 33.34498
800.40 33.67996
800.50 34.02625
800.60 34.37779
800.70 34.72768
800.80 35.08382
800.90 35.46119
801.00 35.86764
801.10 36.29822
801.20 36.73772
801.30 37.16284
801.40 37.552
801.50 37.89285
801.60 38.17634
801.70 38.39606
801.80 38.56079
801.90 38.69235
802.00 38.81822
802.10 38.9648
802.20 39.14755
802.30 39.3929
802.40 39.74612
802.50 40.23681
802.60 40.858
802.70 41.56525
802.80 42.28529
802.90 42.94416
803.00 43.48537
803.10 43.87424
803.20 44.09527
803.30 44.15423
803.40 44.08367
803.50 43.93992
803.60 43.79066
803.70 43.68237
803.80 43.62732
803.90 43.62881
804.00 43.69228
804.10 43.82429
804.20 44.02896
804.30 44.29663
804.40 44.60108
804.50 44.92688
804.60 45.29295
804.70 45.73052
804.80 46.26274
804.90 46.90182
805.00 47.64488
805.10 48.46096
805.20 49.29
805.30 50.0664
805.40 50.73672
805.50 51.27798
805.60 51.7007
805.70 52.03707
805.80 52.33663
805.90 52.63713
806.00 52.93924
806.10 53.22032
806.20 53.45297
806.30 53.61588
806.40 53.69737
806.50 53.70731
806.60 53.6862
806.70 53.68969
806.80 53.76657
806.90 53.93957
807.00 54.21149
807.10 54.57441
807.20 55.01473
807.30 55.51709
807.40 56.06299
807.50 56.64184
807.60 57.25056
807.70 57.87846
807.80 58.50448
807.90 59.11176
808.00 59.69517
808.10 60.25704
808.20 60.79462
808.30 61.29978
808.40 61.75217
808.50 62.11861
808.60 62.37991
808.70 62.55221
808.80 62.67894
808.90 62.80203
809.00 62.94846
809.10 63.13417
809.20 63.36632
809.30 63.62315
809.40 63.853
809.50 63.99859
809.60 64.03193
809.70 63.96632
809.80 63.85559
809.90 63.77923
810.00 63.79607
810.10 63.9217
810.20 64.13577
810.30 64.41657
810.40 64.76545
810.50 65.18413
810.60 65.65957
810.70 66.17556
810.80 66.71872
810.90 67.28404
811.00 67.86274
811.10 68.42614
811.20 68.92644
811.30 69.31638
811.40 69.59101
811.50 69.80137
811.60 70.02555
811.70 70.33142
811.80 70.7459
811.90 71.26027
812.00 71.84502
812.10 72.45782
812.20 73.06625
812.30 73.64531
812.40 74.17414
812.50 74.65165
812.60 75.09764
812.70 75.54531
812.80 76.00706
812.90 76.46659
813.00 76.90474
813.10 77.30777
813.20 77.67444
813.30 78.02728
813.40 78.41109
813.50 78.86403
813.60 79.3793
813.70 79.89942
813.80 80.336
813.90 80.58115
814.00 80.54879
814.10 80.21572
814.20 79.62529
814.30 78.8705
814.40 78.06792
814.50 77.33304
814.60 76.75194
814.70 76.36435
814.80 76.17103
814.90 76.15325
815.00 76.28126
815.10 76.52229
815.20 76.85198
815.30 77.26151
815.40 77.74231
815.50 78.26188
815.60 78.77026
815.70 79.22064
815.80 79.59357
815.90 79.8951
816.00 80.16431
816.10 80.47047
816.20 80.87404
816.30 81.40243
816.40 82.05199
816.50 82.81237
816.60 83.67226
816.70 84.59864
816.80 85.52655
816.90 86.38542
817.00 87.11962
817.10 87.69042
817.20 88.06775
817.30 88.22026
817.40 88.105
817.50 87.6688
817.60 86.84447
817.70 85.5524
817.80 83.7112
817.90 81.24628
818.00 78.1581
818.10 74.59867
818.20 70.90439
818.30 67.5334
818.40 64.94271
818.50 63.46704
818.60 63.23443
818.70 64.12985
818.80 65.78643
818.90 67.63701
819.00 69.04226
819.10 69.46859
819.20 68.63935
819.30 66.63244
819.40 63.85627
819.50 60.90002
819.60 58.35598
819.70 56.70041
819.80 56.23172
819.90 57.02875
820.00 58.93233
820.10 61.58112
820.20 64.51147
820.30 67.26653
820.40 69.50873
820.50 71.0722
820.60 71.97232
820.70 72.35089
820.80 72.39056
820.90 72.2955
821.00 72.25711
821.10 72.40226
821.20 72.77095
821.30 73.318
821.40 73.94592
821.50 74.55807
821.60 75.09558
821.70 75.55793
821.80 75.98844
821.90 76.44745
822.00 76.97733
822.10 77.59032
822.20 78.27799
822.30 79.01659
822.40 79.77631
822.50 80.53563
822.60 81.2858
822.70 82.01525
822.80 82.69792
822.90 83.29138
823.00 83.75912
823.10 84.07721
823.20 84.24074
823.30 84.27878
823.40 84.25351
823.50 84.24448
823.60 84.33115
823.70 84.57173
823.80 84.99678
823.90 85.59427
824.00 86.29794
824.10 87.01326
824.20 87.65858
824.30 88.19493
824.40 88.60982
824.50 88.91716
824.60 89.12562
824.70 89.20117
824.80 89.08798
824.90 88.73057
825.00 88.09489
825.10 87.20019
825.20 86.11336
825.30 84.93218
825.40 83.79234
825.50 82.8586
825.60 82.28169
825.70 82.14636
825.80 82.45143
825.90 83.10393
826.00 83.96502
826.10 84.90034
826.20 85.79054
826.30 86.54207
826.40 87.08851
826.50 87.37184
826.60 87.35502
826.70 87.04291
826.80 86.46837
826.90 85.69596
827.00 84.82017
827.10 83.95411
827.20 83.22616
827.30 82.76435
827.40 82.65011
827.50 82.88252
827.60 83.37471
827.70 83.96825
827.80 84.46335
827.90 84.67645
828.00 84.49263
828.10 83.89152
828.20 82.95471
828.30 81.83538
828.40 80.6903
828.50 79.61454
828.60 78.63115
828.70 77.69522
828.80 76.75668
828.90 75.81397
829.00 74.90255
829.10 74.08469
829.20 73.44547
829.30 73.06052
829.40 72.93796
829.50 73.00522
829.60 73.14331
829.70 73.21034
829.80 73.07924
829.90 72.69859
830.00 72.09238
830.10 71.34627
830.20 70.57256
830.30 69.86546
830.40 69.29692
830.50 68.9208
830.60 68.77232
830.70 68.84946
830.80 69.12514
830.90 69.56119
831.00 70.09619
831.10 70.66523
831.20 71.23176
831.30 71.77863
831.40 72.30755
831.50 72.85456
831.60 73.46539
831.70 74.17217
831.80 74.98434
831.90 75.88602
832.00 76.81384
832.10 77.67577
832.20 78.37479
832.30 78.81692
832.40 78.94487
832.50 78.75485
832.60 78.30762
832.70 77.73618
832.80 77.20721
832.90 76.85126
833.00 76.71659
833.10 76.76394
833.20 76.90063
833.30 77.00673
833.40 76.98667
833.50 76.80911
833.60 76.52518
833.70 76.26412
833.80 76.16969
833.90 76.33315
834.00 76.73266
834.10 77.22613
834.20 77.64487
834.30 77.87956
834.40 77.90295
834.50 77.76753
834.60 77.56184
834.70 77.37821
834.80 77.28965
834.90 77.31835
835.00 77.41872
835.10 77.50574
835.20 77.50927
835.30 77.40138
835.40 77.21412
835.50 77.04165
835.60 76.9887
835.70 77.10172
835.80 77.36488
835.90 77.72574
836.00 78.12364
836.10 78.49257
836.20 78.77243
836.30 78.95394
836.40 79.09595
836.50 79.29629
836.60 79.63465
836.70 80.11761
836.80 80.68129
836.90 81.21194
837.00 81.54971
837.10 81.54171
837.20 81.10841
837.30 80.27497
837.40 79.16536
837.50 77.98646
837.60 77.00015
837.70 76.45366
837.80 76.461
837.90 76.9361
838.00 77.66568
838.10 78.42606
838.20 79.00755
838.30 79.21287
838.40 78.91834
838.50 78.11321
838.60 76.90412
838.70 75.48852
838.80 74.09616
838.90 72.9384
839.00 72.1552
839.10 71.77752
839.20 71.79618
839.30 72.21108
839.40 73.01506
839.50 74.15509
839.60 75.49379
839.70 76.8866
839.80 78.25118
839.90 79.54287
840.00 80.6966
840.10 81.62024
840.20 82.2563
840.30 82.61031
840.40 82.73582
840.50 82.72109
840.60 82.65936
840.70 82.61498
840.80 82.58515
840.90 82.56312
841.00 82.655
841.10 82.98398
841.20 83.55911
841.30 84.29256
841.40 85.06669
841.50 85.74449
841.60 86.14688
841.70 86.11081
841.80 85.55641
841.90 84.52434
842.00 83.17019
842.10 81.72661
842.20 80.47179
842.30 79.6261
842.40 79.26171
842.50 79.33682
842.60 79.74054
842.70 80.27355
842.80 80.65097
842.90 80.62298
843.00 80.04217
843.10 78.79091
843.20 76.81604
843.30 74.20183
843.40 71.17042
843.50 68.07384
843.60 65.2841
843.70 63.07164
843.80 61.547
843.90 60.63101
844.00 60.09096
844.10 59.64623
844.20 59.08121
844.30 58.26094
844.40 57.13729
844.50 55.81868
844.60 54.53084
844.70 53.49408
844.80 52.81155
844.90 52.4075
845.00 52.10418
845.10 51.71744
845.20 51.10944
845.30 50.23467
845.40 49.15081
845.50 48.00192
845.60 46.9623
845.70 46.17919
845.80 45.75892
845.90 45.74357
846.00 46.08414
846.10 46.64935
846.20 47.27674
846.30 47.82606
846.40 48.20669
846.50 48.38452
846.60 48.37957
846.70 48.2461
846.80 48.03063
846.90 47.76665
847.00 47.49354
847.10 47.25026
847.20 47.07173
847.30 46.98586
847.40 46.99536
847.50 47.08358
847.60 47.24511
847.70 47.47545
847.80 47.73672
847.90 47.97579
848.00 48.16694
848.10 48.32382
848.20 48.48971
848.30 48.7198
848.40 49.04969
848.50 49.48954
848.60 50.03603
848.70 50.68473
848.80 51.43625
848.90 52.25375
849.00 53.05382
849.10 53.7626
849.20 54.33308
849.30 54.72143
849.40 54.87261
849.50 54.75416
849.60 54.39999
849.70 53.90821
849.80 53.41757
849.90 53.09232
850.00 53.0478
850.10 53.24641
850.20 53.52486
850.30 53.72865
850.40 53.77109
850.50 53.60265
850.60 53.215
850.70 52.66095
850.80 52.05575
850.90 51.54663
851.00 51.24829
851.10 51.1821
851.20 51.27517
851.30 51.37081
851.40 51.2904
851.50 50.94221
851.60 50.32564
851.70 49.47018
851.80 48.42786
851.90 47.30976
852.00 46.28489
852.10 45.54808
852.20 45.25149
852.30 45.44707
852.40 46.09956
852.50 47.12315
852.60 48.3893
852.70 49.73835
852.80 51.01727
852.90 52.12564
853.00 53.02714
853.10 53.74372
853.20 54.34298
853.30 54.89453
853.40 55.42568
853.50 55.9123
853.60 56.32649
853.70 56.68087
853.80 57.00254
853.90 57.29694
854.00 57.55556
854.10 57.7823
854.20 58.02004
854.30 58.32622
854.40 58.73136
854.50 59.23321
854.60 59.82768
854.70 60.51048
854.80 61.25825
854.90 62.02684
855.00 62.76316
855.10 63.40683
855.20 63.90557
855.30 64.2468
855.40 64.45212
855.50 64.54332
855.60 64.50173
855.70 64.28963
855.80 63.91165
855.90 63.43337
856.00 62.94052
856.10 62.51819
856.20 62.25429
856.30 62.22733
856.40 62.4713
856.50 62.94281
856.60 63.53866
856.70 64.12989
856.80 64.59251
856.90 64.84041
857.00 64.8583
857.10 64.69239
857.20 64.41815
857.30 64.12039
857.40 63.87736
857.50 63.74766
857.60 63.76187
857.70 63.90984
857.80 64.13639
857.90 64.37919
858.00 64.5962
858.10 64.76873
858.20 64.90374
858.30 65.03859
858.40 65.23497
858.50 65.54431
858.60 65.97389
858.70 66.47999
858.80 66.97118
858.90 67.34365
859.00 67.53175
859.10 67.5306
859.20 67.40278
859.30 67.25146
859.40 67.18931
859.50 67.29557
859.60 67.57881
859.70 67.99508
859.80 68.47495
859.90 68.93591
860.00 69.30479
860.10 69.54978
860.20 69.6941
860.30 69.79148
860.40 69.89098
860.50 70.01956
860.60 70.15558
860.70 70.23431
860.80 70.16378
860.90 69.85774
861.00 69.2953
861.10 68.51258
861.20 67.55362
861.30 66.47155
861.40 65.33618
861.50 64.22798
861.60 63.23841
861.70 62.45155
861.80 61.92401
861.90 61.64997
862.00 61.56034
862.10 61.55333
862.20 61.52573
862.30 61.39404
862.40 61.09485
862.50 60.57991
862.60 59.83999
862.70 58.94118
862.80 58.01981
862.90 57.21777
863.00 56.62387
863.10 56.27659
863.20 56.16501
863.30 56.26686
863.40 56.57059
863.50 57.04256
863.60 57.61731
863.70 58.22849
863.80 58.82817
863.90 59.3938
864.00 59.91903
864.10 60.38501
864.20 60.76038
864.30 61.02731
864.40 61.18636
864.50 61.2548
864.60 61.27641
864.70 61.29768
864.80 61.36135
864.90 61.53378
865.00 61.89549
865.10 62.49454
865.20 63.31944
865.30 64.2876
865.40 65.27413
865.50 66.17003
865.60 66.90921
865.70 67.44512
865.80 67.7505
865.90 67.83748
866.00 67.76038
866.10 67.59836
866.20 67.43923
866.30 67.35929
866.40 67.39001
866.50 67.50423
866.60 67.62746
866.70 67.7054
866.80 67.71436
866.90 67.64242
867.00 67.50222
867.10 67.35106
867.20 67.28264
867.30 67.39795
867.40 67.76453
867.50 68.38101
867.60 69.16636
867.70 69.97353
867.80 70.63862
867.90 71.0362
868.00 71.11551
868.10 70.90235
868.20 70.4995
868.30 70.0245
868.40 69.56004
868.50 69.14992
868.60 68.79127
868.70 68.41971
868.80 67.91869
868.90 67.17962
869.00 66.13644
869.10 64.77693
869.20 63.15959
869.30 61.41362
869.40 59.71832
869.50 58.24402
869.60 57.10042
869.70 56.34777
869.80 55.99716
869.90 56.01227
870.00 56.32401
870.10 56.84559
870.20 57.49441
870.30 58.19598
870.40 58.88539
870.50 59.49681
870.60 59.96082
870.70 60.2074
870.80 60.17225
870.90 59.82684
871.00 59.19771
871.10 58.37334
871.20 57.48824
871.30 56.6843
871.40 56.07763
871.50 55.72985
871.60 55.64254
871.70 55.77823
871.80 56.08498
871.90 56.50685
872.00 56.98309
872.10 57.47594
872.20 57.98467
872.30 58.54416
872.40 59.22561
872.50 60.08759
872.60 61.13576
872.70 62.31036
872.80 63.49745
872.90 64.56908
873.00 65.414
873.10 65.95191
873.20 66.14356
873.30 66.01356
873.40 65.65629
873.50 65.20701
873.60 64.80578
873.70 64.56956
873.80 64.5668
873.90 64.83681
874.00 65.40776
874.10 66.28233
874.20 67.4212
874.30 68.70852
874.40 69.94888
874.50 70.9341
874.60 71.51459
874.70 71.63429
874.80 71.35287
874.90 70.82812
875.00 70.28948
875.10 69.96613
875.20 70.00029
875.30 70.44433
875.40 71.28002
875.50 72.44408
875.60 73.87385
875.70 75.4825
875.80 77.13887
875.90 78.65925
876.00 79.81766
876.10 80.44838
876.20 80.50636
876.30 80.03995
876.40 79.15478
876.50 78.03258
876.60 76.95978
876.70 76.26181
876.80 76.18967
876.90 76.8728
877.00 78.28008
877.10 80.28741
877.20 82.75365
877.30 85.47367
877.40 88.17155
877.50 90.50258
877.60 92.08275
877.70 92.64171
877.80 92.11675
877.90 90.65579
878.00 88.57681
878.10 86.27267
878.20 84.15525
878.30 82.56514
878.40 81.68531
878.50 81.52389
878.60 81.94512
878.70 82.76321
878.80 83.80903
878.90 84.94074
879.00 86.02755
879.10 86.96124
879.20 87.73342
879.30 88.3933
879.40 88.96807
879.50 89.44675
879.60 89.74903
879.70 89.73859
879.80 89.27398
879.90 88.25702
880.00 86.69173
880.10 84.70911
880.20 82.5216
880.30 80.39014
880.40 78.61133
880.50 77.45906
880.60 77.08741
880.70 77.52852
880.80 78.72599
880.90 80.54649
881.00 82.83775
881.10 85.47407
881.20 88.35437
881.30 91.36987
881.40 94.36903
881.50 97.17137
881.60 99.58032
881.70 101.4021
881.80 102.4943
881.90 102.7779
882.00 102.3069
882.10 101.2841
882.20 99.94578
882.30 98.49897
882.40 97.12664
882.50 95.98011
882.60 95.19057
882.70 94.86836
882.80 95.02437
882.90 95.53981
883.00 96.28275
883.10 97.20031
883.20 98.28468
883.30 99.49888
883.40 100.7462
883.50 101.9267
883.60 102.9963
883.70 103.9852
883.80 104.9176
883.90 105.7506
884.00 106.3527
884.10 106.5085
884.20 106.0276
884.30 104.8296
884.40 102.9563
884.50 100.5594
884.60 97.94605
884.70 95.58917
884.80 93.97995
884.90 93.48383
885.00 94.26014
885.10 96.19441
885.20 98.90481
885.30 101.7967
885.40 104.191
885.50 105.512
885.60 105.3973
885.70 103.7265
885.80 100.6359
885.90 96.50723
886.00 91.91947
886.10 87.55502
886.20 84.03876
886.30 81.74072
886.40 80.70404
886.50 80.69564
886.60 81.28958
886.70 81.95242
886.80 82.15088
886.90 81.47851
887.00 79.77179
887.10 77.19394
887.20 74.18578
887.30 71.35048
887.40 69.28099
887.50 68.37445
887.60 68.75242
887.70 70.27549
887.80 72.61306
887.90 75.34107
888.00 78.05286
888.10 80.40459
888.20 82.11492
888.30 83.08509
888.40 83.44948
888.50 83.47001
888.60 83.40251
888.70 83.42218
888.80 83.60713
888.90 83.93535
889.00 84.31521
889.10 84.59558
889.20 84.58822
889.30 84.11092
889.40 83.06183
889.50 81.54888
889.60 79.93732
889.70 78.67906
889.80 78.17813
889.90 78.71569
890.00 80.38286
890.10 83.03528
890.20 86.30436
890.30 89.69931
890.40 92.69319
890.50 94.84025
890.60 95.87564
890.70 95.76075
890.80 94.67889
890.90 92.99138
891.00 91.14757
891.10 89.57799
891.20 88.5961
891.30 88.38717
891.40 89.04648
891.50 90.56772
891.60 92.77663
891.70 95.36471
891.80 97.94923
891.90 100.1346
892.00 101.6072
892.10 102.1669
892.20 101.7669
892.30 100.5141
892.40 98.6579
892.50 96.54314
892.60 94.54725
892.70 93.04372
892.80 92.32007
892.90 92.52437
893.00 93.6615
893.10 95.55633
893.20 97.86294
893.30 100.0977
893.40 101.7457
893.50 102.4104
893.60 101.8867
893.70 100.2281
893.80 97.7113
893.90 94.71017
894.00 91.61396
894.10 88.77884
894.20 86.49472
894.30 84.93409
894.40 84.15145
894.50 84.08409
894.60 84.57955
894.70 85.4642
894.80 86.55158
894.90 87.68128
895.00 88.74621
895.10 89.70288
895.20 90.63261
895.30 91.72413
895.40 93.15815
895.50 95.00253
895.60 97.1653
895.70 99.42967
895.80 101.4937
895.90 103.0398
896.00 103.82
896.10 103.7203
896.20 102.791
896.30 101.2321
896.40 99.34509
896.50 97.43621
896.60 95.7343
896.70 94.40935
896.80 93.59126
896.90 93.35258
897.00 93.69753
897.10 94.55743
897.20 95.83322
897.30 97.41775
897.40 99.18246
897.50 100.9762
897.60 102.6401
897.70 104.0193
897.80 104.9882
897.90 105.5112
898.00 105.6703
898.10 105.6638
898.20 105.7959
898.30 106.3953
898.40 107.655
898.50 109.5137
898.60 111.6567
898.70 113.6192
898.80 114.9643
898.90 115.4499
899.00 115.048
899.10 113.8954
899.20 112.243
899.30 110.376
899.40 108.6074
899.50 107.2546
899.60 106.4852
899.70 106.2378
899.80 106.4291
899.90 107.1228
900.00 105.5455
900.10 104.141
900.20 103.087
900.30 103.3533
900.40 104.1796
900.50 108.1856
900.60 113.1527
900.70 117.3058
900.80 120.6288
900.90 124.0778
901.00 121.7955
901.10 119.4873
901.20 115.9943
901.30 112.7679
901.40 110.7397
901.50 110.1732
901.60 109.6338
901.70 112.6849
901.80 115.7761
901.90 116.8064
902.00 116.6309
902.10 115.4539
902.20 113.0728
902.30 110.1718
902.40 104.2151
902.50 98.35185
902.60 94.32576
902.70 90.43767
902.80 87.86415
902.90 87.18156
903.00 87.3074
903.10 89.31879
903.20 91.49051
903.30 95.41324
903.40 100.1201
903.50 105.4874
903.60 110.7418
903.70 115.7764
903.80 121.0238
903.90 126.1309
904.00 126.5177
904.10 126.228
904.20 124.1251
904.30 121.1727
904.40 118.0313
904.50 114.4557
904.60 111.0854
904.70 111.9382
904.80 112.7057
904.90 115.2268
905.00 118.2108
905.10 119.8079
905.20 119.4225
905.30 118.7416
905.40 113.9673
905.50 109.5658
905.60 107.0013
905.70 105.2163
905.80 104.5695
905.90 104.8844
906.00 104.9258
906.10 105.0011
906.20 104.871
906.30 102.5781
906.40 100.4236
906.50 99.96302
906.60 101.0891
906.70 102.179
906.80 102.9541
906.90 103.7415
907.00 103.9792
907.10 103.3305
907.20 102.1378
907.30 101.3176
907.40 101.6145
907.50 103.8559
907.60 106.1116
907.70 109.3219
907.80 112.5449
907.90 115.9488
908.00 118.7941
908.10 120.5072
908.20 120.5981
908.30 120.6875
908.40 119.6634
908.50 118.6055
908.60 116.8452
908.70 114.8046
908.80 113.5478
908.90 113.6528
909.00 114.1144
909.10 115.1685
909.20 116.2242
909.30 117.3102
909.40 118.3867
909.50 119.7107
909.60 121.0585
909.70 122.4711
909.80 125.2249
909.90 128.0986
910.00 128.2119
910.10 127.9468
910.20 127.7194
910.30 127.5078
910.40 127.0991
910.50 126.0265
910.60 124.8196
910.70 124.5959
910.80 125.1571
910.90 123.8034
911.00 121.2329
911.10 119.8165
911.20 120.842
911.30 121.59
911.40 124.5903
911.50 127.0153
911.60 128.7778
911.70 131.236
911.80 133.2674
911.90 133.8704
912.00 134.2697
912.10 135.5653
912.20 137.0913
912.30 139.5999
912.40 142.0613
912.50 142.3918
912.60 140.2684
912.70 138.0098
912.80 134.4819
912.90 130.4905
913.00 128.4316
913.10 127.1365
913.20 128.0021
913.30 130.9658
913.40 133.9617
913.50 136.6156
913.60 139.0901
913.70 140.7726
913.80 141.9495
913.90 139.1421
914.00 133.7275
914.10 128.1311
914.20 121.8472
914.30 115.5382
914.40 115.2067
914.50 115.7037
914.60 119.4884
914.70 124.703
914.80 128.1619
914.90 128.6556
915.00 129.2496
915.10 128.6068
915.20 127.7372
915.30 128.3073
915.40 129.8371
915.50 132.6646
915.60 137.2384
915.70 142.0418
915.80 147.5909
915.90 152.4561
916.00 153.847
916.10 153.5815
916.20 151.3424
916.30 147.2884
916.40 143.4292
916.50 140.4016
916.60 138.4399
916.70 139.7071
916.80 141.6337
916.90 144.3871
917.00 147.2239
917.10 149.3482
917.20 150.2327
917.30 150.8414
917.40 149.6706
917.50 148.3242
917.60 144.7711
917.70 140.4225
917.80 137.5231
917.90 137.2312
918.00 136.9582
918.10 137.6144
918.20 138.2307
918.30 139.7413
918.40 141.3279
918.50 141.9924
918.60 141.6629
918.70 141.766
918.80 143.2684
918.90 144.9683
919.00 150.9345
919.10 158.0517
919.20 164.1787
919.30 168.6727
919.40 171.6337
919.50 169.087
919.60 166.4616
919.70 160.2842
919.80 154.2913
919.90 152.099
920.00 153.2384
920.10 155.0014
920.20 158.3319
920.30 161.3494
920.40 163.9632
920.50 165.9614
920.60 164.5727
920.70 161.052
920.80 156.5389
920.90 149.6108
921.00 142.5474
921.10 138.1775
921.20 134.4352
921.30 132.8672
921.40 132.7136
921.50 133.9294
921.60 137.1404
921.70 140.3031
921.80 142.8656
921.90 145.29
922.00 146.7624
922.10 147.5518
922.20 146.7697
922.30 144.2037
922.40 141.8929
922.50 140.9907
922.60 139.936
922.70 140.0884
922.80 140.4916
922.90 140.1511
923.00 138.9205
923.10 137.0938
923.20 133.8374
923.30 131.2188
923.40 129.4715
923.50 127.977
923.60 127.9326
923.70 128.8353
923.80 129.458
923.90 129.4812
924.00 129.5257
924.10 131.7935
924.20 134.3975
924.30 138.9772
924.40 143.9643
924.50 148.3279
924.60 151.6911
924.70 154.2449
924.80 150.0891
924.90 146.2735
925.00 140.8863
925.10 135.2962
925.20 130.7043
925.30 127.6169
925.40 125.5248
925.50 127.7412
925.60 129.9636
925.70 133.7298
925.80 137.6781
925.90 142.0282
926.00 146.1454
926.10 148.5767
926.20 146.6532
926.30 145.3288
926.40 143.4017
926.50 142.0256
926.60 140.9158
926.70 139.8329
926.80 139.8792
926.90 142.8473
927.00 145.0377
927.10 145.3101
927.20 145.7107
927.30 145.0782
927.40 144.1171
927.50 142.3336
927.60 138.805
927.70 135.242
927.80 132.7209
927.90 130.1784
928.00 128.5668
928.10 127.6573
928.20 127.9112
928.30 129.8448
928.40 132.0761
928.50 134.3669
928.60 136.2441
928.70 136.7221
928.80 136.27
928.90 134.6062
929.00 132.1673
929.10 130.4622
929.20 130.7573
929.30 131.3666
929.40 134.6489
929.50 137.9188
929.60 139.8552
929.70 140.8362
929.80 141.0057
929.90 139.1207
930.00 137.5038
930.10 136.5579
930.20 135.0669
930.30 133.4879
930.40 131.8258
930.50 130.2781
930.60 128.9923
930.70 128.529
930.80 128.7775
930.90 129.2314
931.00 131.9046
931.10 135.3495
931.20 138.658
931.30 140.3246
931.40 142.2838
931.50 143.808
931.60 144.0734
931.70 144.3528
931.80 143.3591
931.90 142.1336
932.00 140.9425
932.10 141.0468
932.20 140.9289
932.30 141.0094
932.40 141.3421
932.50 141.2673
932.60 141.7902
932.70 143.302
932.80 144.9518
932.90 145.3083
933.00 145.7433
933.10 146.0803
933.20 145.1524
933.30 143.945
933.40 142.2699
933.50 139.8323
933.60 137.4166
933.70 136.3718
933.80 136.271
933.90 136.1956
934.00 137.5001
934.10 139.1623
934.20 140.8125
934.30 142.2448
934.40 143.4625
934.50 144.7301
934.60 146.0898
934.70 147.4643
934.80 148.0056
934.90 148.2976
935.00 148.3416
935.10 145.0028
935.20 141.4566
935.30 137.9219
935.40 134.2217
935.50 130.3863
935.60 128.6646
935.70 128.6991
935.80 128.8106
935.90 132.9515
936.00 138.0146
936.10 142.9898
936.20 147.4653
936.30 151.7434
936.40 155.2311
936.50 157.4286
936.60 159.435
936.70 157.5625
936.80 154.3169
936.90 151.0755
937.00 148.0308
937.10 145.286
937.20 142.885
937.30 141.3086
937.40 139.8558
937.50 139.6202
937.60 140.0284
937.70 140.417
937.80 139.9956
937.90 139.2278
938.00 138.6579
938.10 139.0581
938.20 139.641
938.30 140.0407
938.40 140.236
938.50 140.4286
938.60 141.226
938.70 141.9148
938.80 142.6004
938.90 143.483
939.00 144.7272
939.10 146.4477
939.20 149.1283
939.30 151.8032
939.40 153.9953
939.50 155.7675
939.60 157.5169
939.70 156.4948
939.80 154.5649
939.90 152.2039
940.00 148.0399
940.10 144.1282
940.20 141.0705
940.30 139.381
940.40 137.8822
940.50 139.7519
940.60 142.9105
940.70 146.0851
940.80 149.2644
940.90 151.7964
941.00 153.9828
941.10 155.5091
941.20 157.1014
941.30 156.7867
941.40 155.3597
941.50 153.9577
941.60 153.0549
941.70 152.1957
941.80 151.1649
941.90 149.1971
942.00 146.9759
942.10 145.685
942.20 145.8069
942.30 146.1079
942.40 147.1921
942.50 148.3851
942.60 149.6005
942.70 151.6859
942.80 154.243
942.90 156.6071
943.00 158.5209
943.10 160.3976
943.20 161.7572
943.30 162.7734
943.40 163.7865
943.50 165.0866
943.60 165.47
943.70 165.3968
943.80 163.3617
943.90 161.5279
944.00 159.2881
944.10 156.6152
944.20 153.9648
944.30 151.7773
944.40 149.8208
944.50 147.9217
944.60 147.2461
944.70 146.4551
944.80 146.3215
944.90 147.7971
945.00 149.4764
945.10 150.9855
945.20 152.5978
945.30 154.2631
945.40 155.3835
945.50 156.123
945.60 156.207
945.70 153.2017
945.80 150.0198
945.90 147.7231
946.00 146.2669
946.10 144.726
946.20 144.8741
946.30 145.8654
946.40 146.9905
946.50 150.9477
946.60 155.2488
946.70 158.7984
946.80 160.8124
946.90 162.8171
947.00 163.6593
947.10 163.5714
947.20 163.4337
947.30 163.4703
947.40 163.6104
947.50 163.9263
947.60 164.9008
947.70 165.7215
947.80 167.1457
947.90 169.1542
948.00 171.1252
948.10 172.0512
948.20 172.8194
948.30 173.576
948.40 174.0339
948.50 174.9544
948.60 175.5102
948.70 175.3496
948.80 175.1809
948.90 176.525
949.00 178.3899
949.10 180.1532
949.20 180.1836
949.30 179.4234
949.40 178.5205
949.50 177.2158
949.60 176.199
949.70 175.4158
949.80 175.0109
949.90 174.6787
950.00 175.2262
950.10 176.1463
950.20 177.0252
950.30 177.0713
950.40 176.8565
950.50 176.4283
950.60 175.8745
950.70 175.581
950.80 177.4875
950.90 180.2511
951.00 182.9197
951.10 184.2908
951.20 185.7422
951.30 186.7093
951.40 185.6355
951.50 184.1892
951.60 181.6401
951.70 178.064
951.80 174.5271
951.90 171.9784
952.00 169.9601
952.10 168.2164
952.20 169.7105
952.30 172.0112
952.40 175.158
952.50 179.7576
952.60 184.3098
952.70 188.325
952.80 190.9747
952.90 193.372
953.00 193.2079
953.10 192.6105
953.20 191.508
953.30 188.9023
953.40 186.6038
953.50 184.9146
953.60 184.3007
953.70 183.9394
953.80 183.1987
953.90 181.7978
954.00 180.4805
954.10 180.2644
954.20 180.1035
954.30 179.9404
954.40 179.9617
954.50 180.1495
954.60 180.685
954.70 181.7438
954.80 182.8798
954.90 182.8833
955.00 182.2962
955.10 181.5981
955.20 180.3733
955.30 178.8579
955.40 179.0742
955.50 180.7806
955.60 182.494
955.70 184.4575
955.80 186.6257
955.90 188.7207
956.00 190.2165
956.10 191.7999
956.20 192.54
956.30 192.1313
956.40 191.8176
956.50 191.217
956.60 190.4326
956.70 189.6378
956.80 189.3097
956.90 188.9579
957.00 188.8281
957.10 189.2757
957.20 189.69
957.30 189.9216
957.40 189.9912
957.50 190.0529
957.60 188.4472
957.70 186.3437
957.80 184.2562
957.90 182.3004
958.00 180.3987
958.10 179.2087
958.20 178.9895
958.30 178.7908
958.40 179.6007
958.50 180.5679
958.60 181.4803
958.70 181.0975
958.80 180.7978
958.90 179.3275
959.00 175.0533
959.10 170.6823
959.20 167.1688
959.30 164.5998
959.40 162.1664
959.50 162.3998
959.60 163.0066
959.70 163.3732
959.80 162.6142
959.90 161.964
960.00 160.2152
960.10 157.2252
960.20 154.2686
960.30 153.5914
960.40 153.5705
960.50 153.7326
960.60 158.5949
960.70 163.2793
960.80 167.5667
960.90 170.8713
961.00 173.96
961.10 174.7146
961.20 174.2415
961.30 173.8397
961.40 171.4763
961.50 169.436
961.60 167.8566
961.70 168.1618
961.80 168.5545
961.90 170.3156
962.00 173.3007
962.10 176.1577
962.20 179.1447
962.30 181.8134
962.40 184.2068
962.50 183.461
962.60 182.6891
962.70 181.8945
962.80 181.1542
962.90 180.5164
963.00 179.6822
963.10 178.9915
963.20 178.3754
963.30 177.5146
963.40 176.1446
963.50 173.9608
963.60 168.9519
963.70 163.7557
963.80 158.1574
963.90 152.3309
964.00 146.5847
964.10 142.7435
964.20 139.9734
964.30 137.8197
964.40 140.7263
964.50 143.4039
964.60 147.0332
964.70 152.2217
964.80 157.5366
964.90 160.8953
965.00 163.1042
965.10 165.2453
965.20 164.9946
965.30 164.7013
965.40 164.1866
965.50 163.119
965.60 162.1257
965.70 161.7405
965.80 162.2145
965.90 162.8764
966.00 165.355
966.10 167.5865
966.20 170.0292
966.30 173.9094
966.40 177.7737
966.50 180.9928
966.60 183.3378
966.70 185.6665
966.80 185.711
966.90 185.0664
967.00 184.4748
967.10 184.8316
967.20 184.5324
967.30 183.988
967.40 182.9952
967.50 182.1371
967.60 180.689
967.70 179.2325
967.80 177.9331
967.90 176.5598
968.00 175.2703
968.10 174.5285
968.20 176.0578
968.30 177.4295
968.40 178.3015
968.50 178.4189
968.60 178.382
968.70 178.0297
968.80 177.7672
968.90 177.5546
969.00 177.7298
969.10 178.0956
969.20 179.0413
969.30 181.1339
969.40 183.3117
969.50 185.8909
969.60 188.5407
969.70 191.1392
969.80 192.8668
969.90 194.4133
970.00 195.4758
970.10 194.8559
970.20 194.1096
970.30 192.7791
970.40 190.8384
970.50 188.8543
970.60 185.8884
970.70 183.0459
970.80 180.4616
970.90 179.7878
971.00 179.5344
971.10 180.8635
971.20 184.539
971.30 188.1862
971.40 193.2357
971.50 198.4237
971.60 203.4811
971.70 205.954
971.80 208.0437
971.90 209.372
972.00 208.8799
972.10 208.6221
972.20 206.9324
972.30 204.3174
972.40 201.7821
972.50 199.3839
972.60 196.6814
972.70 194.0917
972.80 192.1545
972.90 190.1287
973.00 188.0342
973.10 186.0188
973.20 184.1424
973.30 184.0839
973.40 184.6975
973.50 185.3493
973.60 186.7447
973.70 188.0768
973.80 189.3275
973.90 190.4566
974.00 191.6458
974.10 190.5124
974.20 187.8581
974.30 185.1639
974.40 183.2199
974.50 181.3598
974.60 179.6182
974.70 178.3495
974.80 177.1466
974.90 177.3273
975.00 179.0382
975.10 180.8511
975.20 183.4395
975.30 186.0631
975.40 188.5656
975.50 190.0654
975.60 191.5762
975.70 193.2346
975.80 195.0892
975.90 196.8911
976.00 197.02
976.10 196.4583
976.20 195.9272
976.30 196.7777
976.40 197.5684
976.50 198.3852
976.60 199.2588
976.70 200.0974
976.80 200.6549
976.90 200.8835
977.00 201.0514
977.10 198.2748
977.20 195.1745
977.30 192.415
977.40 191.5557
977.50 190.8827
977.60 191.3608
977.70 193.1375
977.80 194.7606
977.90 196.3163
978.00 197.6641
978.10 198.8659
978.20 196.7341
978.30 194.5833
978.40 192.1804
978.50 189.361
978.60 186.7201
978.70 184.7619
978.80 183.3081
978.90 181.8928
979.00 182.5496
979.10 183.8609
979.20 185.7645
979.30 189.7945
979.40 193.65
979.50 197.597
979.60 201.4274
979.70 205.1008
979.80 207.8989
979.90 210.3858
980.00 212.6583
980.10 212.8917
980.20 213.1178
980.30 213.3856
980.40 213.7545
980.50 214.1636
980.60 212.9796
980.70 210.984
980.80 208.9678
980.90 208.0527
981.00 207.2509
981.10 206.6059
981.20 206.3189
981.30 205.8985
981.40 205.7151
981.50 206.0538
981.60 206.5897
981.70 205.9091
981.80 204.9127
981.90 203.9592
982.00 203.2858
982.10 202.5356
982.20 201.6449
982.30 200.573
982.40 199.4918
982.50 199.5563
982.60 200.1024
982.70 200.7376
982.80 202.9982
982.90 204.9092
983.00 206.4588
983.10 207.2738
983.20 208.0872
983.30 207.2606
983.40 205.6318
983.50 204.0755
983.60 202.0169
983.70 200.0765
983.80 198.6345
983.90 198.9819
984.00 199.4155
984.10 200.5018
984.20 202.0969
984.30 203.6213
984.40 203.9603
984.50 203.6206
984.60 203.3259
984.70 203.8439
984.80 204.1743
984.90 203.9636
985.00 203.2326
985.10 202.8438
985.20 201.9741
985.30 201.1887
985.40 200.5002
985.50 200.1428
985.60 199.6467
985.70 199.9363
985.80 202.037
985.90 203.9191
986.00 205.6954
986.10 207.5229
986.20 209.4207
986.30 210.7957
986.40 212.0122
986.50 213.1232
986.60 213.7192
986.70 214.1004
986.80 212.7779
986.90 209.7575
987.00 206.9432
987.10 206.2659
987.20 206.549
987.30 207.134
987.40 210.717
987.50 213.7063
987.60 216.6473
987.70 219.2697
987.80 221.5572
987.90 219.467
988.00 215.541
988.10 211.7865
988.20 209.4068
988.30 207.8038
988.40 207.2474
988.50 209.7036
988.60 211.8632
988.70 214.6983
988.80 217.8015
988.90 220.7068
989.00 220.9622
989.10 220.3072
989.20 219.053
989.30 214.3172
989.40 209.0873
989.50 201.3891
989.60 190.5405
989.70 179.6825
989.80 167.658
989.90 155.7002
990.00 144.0072
990.10 136.3582
990.20 128.9603
990.30 122.3492
990.40 117.2608
990.50 112.0446
990.60 106.3958
990.70 100.7533
990.80 95.25061
990.90 91.28739
991.00 87.85464
991.10 85.1525
991.20 84.88361
991.30 84.33444
991.40 83.61691
991.50 82.79807
991.60 82.02867
991.70 81.64886
991.80 81.47845
991.90 81.53482
992.00 83.25774
992.10 84.98195
992.20 86.82971
992.30 88.74186
992.40 90.50965
992.50 90.58308
992.60 90.38655
992.70 90.35029
992.80 91.21742
992.90 92.18404
993.00 93.91119
993.10 97.29001
993.20 100.4194
993.30 103.3131
993.40 105.971
993.50 108.5826
993.60 110.807
993.70 113.3207
993.80 116.148
993.90 120.2257
994.00 124.3818
994.10 128.1643
994.20 131.3946
994.30 134.474
994.40 134.986
994.50 134.6899
994.60 134.4348
994.70 134.979
994.80 135.6107
994.90 136.8848
995.00 139.2977
995.10 141.8414
995.20 145.2979
995.30 148.8791
995.40 152.3358
995.50 151.574
995.60 150.2943
995.70 148.4959
995.80 145.3519
995.90 142.3402
996.00 138.9371
996.10 135.7966
996.20 133.0278
996.30 136.8226
996.40 141.6165
996.50 146.7762
996.60 153.4829
996.70 159.2132
996.80 161.7191
996.90 160.3424
997.00 158.7092
997.10 150.2678
997.20 140.2259
997.30 130.4713
997.40 123.0083
997.50 116.3672
997.60 112.5515
997.70 113.7058
997.80 114.7734
997.90 118.3709
998.00 123.074
998.10 127.6839
998.20 130.1967
998.30 132.1548
998.40 133.2372
998.50 131.9136
998.60 130.7417
998.70 129.6855
998.80 128.7913
998.90 127.9459
999.00 127.2122
999.10 126.6535
999.20 126.2231
999.30 126.3295
999.40 126.146
999.50 125.245
999.60 123.7923
999.70 122.7065
999.80 123.4844
999.90 125.1224
1000.00 126.9518
1000.10 131.0543
1000.20 135.0617
1000.30 140.2381
1000.40 147.2461
1000.50 153.6509
1000.60 157.2738
1000.70 159.2307
1000.80 161.1011
1000.90 156.2932
1001.00 151.2679
1001.10 146.2027
1001.20 141.1693
1001.30 136.636
1001.40 135.249
1001.50 136.6144
1001.60 138.0367
1001.70 142.6283
1001.80 147.5876
1001.90 152.0586
1002.00 153.7494
1002.10 155.3438
1002.20 156.5662
1002.30 157.4052
1002.40 158.3545
1002.50 160.5494
1002.60 163.118
1002.70 165.6173
1002.80 166.9376
1002.90 167.7866
1003.00 167.7729
1003.10 166.1073
1003.20 164.484
1003.30 161.5817
1003.40 157.9847
1003.50 154.4012
1003.60 151.033
1003.70 148.0891
1003.80 145.4129
1003.90 143.5701
1004.00 141.8903
1004.10 143.6928
1004.20 148.6424
1004.30 153.7461
1004.40 160.777
1004.50 167.5009
1004.60 173.4652
1004.70 175.4447
1004.80 176.7601
1004.90 174.4878
1005.00 167.4838
1005.10 160.2689
1005.20 150.1945
1005.30 139.6801
1005.40 129.4723
1005.50 122.1811
1005.60 115.3481
1005.70 111.002
1005.80 111.7685
1005.90 112.6578
1006.00 116.0473
1006.10 120.8513
1006.20 125.625
1006.30 128.2613
1006.40 131.1729
1006.50 134.2234
1006.60 137.6323
1006.70 140.9974
1006.80 145.6215
1006.90 151.1012
1007.00 156.3586
1007.10 159.3857
1007.20 161.7493
1007.30 163.6171
1007.40 162.4913
1007.50 161.7357
1007.60 161.7689
1007.70 163.0232
1007.80 164.5011
1007.90 167.5668
1008.00 170.8763
1008.10 174.0297
1008.20 176.3161
1008.30 178.1503
1008.40 180.1996
1008.50 182.5986
1008.60 184.866
1008.70 185.4369
1008.80 185.0745
1008.90 184.7238
1009.00 179.9802
1009.10 175.1865
1009.20 170.2902
1009.30 165.1304
1009.40 160.3613
1009.50 158.7871
1009.60 160.3144
1009.70 162.1786
1009.80 169.2513
1009.90 177.0039
1010.00 185.0844
1010.10 195.5066
1010.20 205.4887
1010.30 213.3032
1010.40 217.9888
1010.50 222.1836
1010.60 219.9543
1010.70 215.433
1010.80 210.7487
1010.90 202.4578
1011.00 194.0692
1011.10 186.1074
1011.20 179.068
1011.30 172.2111
1011.40 166.5607
1011.50 161.8014
1011.60 157.1615
1011.70 153.6113
1011.80 150.8611
1011.90 149.3617
1012.00 151.7953
1012.10 154.6088
1012.20 160.6203
1012.30 168.9792
1012.40 177.1088
1012.50 185.323
1012.60 193.0795
1012.70 200.023
1012.80 202.8456
1012.90 205.5166
1013.00 206.7607
1013.10 205.9916
1013.20 204.8798
1013.30 200.9852
1013.40 195.9121
1013.50 190.5173
1013.60 180.7181
1013.70 171.6778
1013.80 163.2601
1013.90 156.3994
1014.00 150.3164
1014.10 150.0279
1014.20 152.5788
1014.30 154.9718
1014.40 161.0145
1014.50 166.5421
1014.60 170.8003
1014.70 171.69
1014.80 172.9708
1014.90 174.0689
1015.00 175.2398
1015.10 176.5951
1015.20 180.1333
1015.30 183.3218
1015.40 186.0455
1015.50 186.8963
1015.60 187.262
1015.70 184.642
1015.80 178.7298
1015.90 173.0775
1016.00 168.4393
1016.10 164.7063
1016.20 161.5034
1016.30 162.6678
1016.40 163.684
1016.50 165.872
1016.60 169.9502
1016.70 173.8335
1016.80 176.427
1016.90 178.2812
1017.00 180.0792
1017.10 178.1435
1017.20 176.9691
1017.30 176.8604
1017.40 179.279
1017.50 181.4279
1017.60 186.1474
1017.70 192.1566
1017.80 197.7163
1017.90 198.323
1018.00 197.9159
1018.10 195.9631
1018.20 187.3215
1018.30 179.2133
1018.40 171.25
1018.50 163.7437
1018.60 156.5898
1018.70 154.9934
1018.80 154.9523
1018.90 155.373
1019.00 160.1965
1019.10 164.7757
1019.20 169.31
1019.30 173.6787
1019.40 177.8849
1019.50 179.037
1019.60 178.9228
1019.70 178.8608
1019.80 177.0712
1019.90 175.4643
1020.00 174.7324
1020.10 176.0517
1020.20 177.4327
1020.30 179.2652
1020.40 181.4166
1020.50 183.5813
1020.60 186.9091
1020.70 189.8259
1020.80 192.3342
1020.90 193.5263
1021.00 194.4621
1021.10 193.5523
1021.20 190.8218
1021.30 188.0397
1021.40 181.6026
1021.50 174.463
1021.60 167.5402
1021.70 162.0356
1021.80 156.7337
1021.90 152.0547
1022.00 148.4965
1022.10 145.3462
1022.20 145.6467
1022.30 147.4151
1022.40 149.3062
1022.50 154.4366
1022.60 159.3369
1022.70 164.3141
1022.80 169.307
1022.90 173.926
1023.00 175.0397
1023.10 174.0848
1023.20 173.1235
1023.30 170.8425
1023.40 168.9868
1023.50 168.2004
1023.60 170.8483
1023.70 173.6947
1023.80 177.2806
1023.90 181.4354
1024.00 185.529
1024.10 190.091
1024.20 194.1483
1024.30 197.6599
1024.40 198.6549
1024.50 199.4859
1024.60 199.121
1024.70 197.194
1024.80 195.1223
1024.90 191.0137
1025.00 186.473
1025.10 182.0156
1025.20 177.2288
1025.30 172.7158
1025.40 169.2757
1025.50 167.7724
1025.60 166.3311
1025.70 165.4254
1025.80 164.3704
1025.90 163.0547
1026.00 159.1537
1026.10 155.128
1026.20 150.2903
1026.30 143.5282
1026.40 137.6604
1026.50 135.8657
1026.60 137.3723
1026.70 139.0815
1026.80 147.8134
1026.90 157.1116
1027.00 165.9683
1027.10 173.1153
1027.20 179.5427
1027.30 182.3686
1027.40 181.3821
1027.50 180.5093
1027.60 176.5203
1027.70 171.5919
1027.80 166.7017
1027.90 162.5863
1028.00 158.3388
1028.10 154.3523
1028.20 150.9455
1028.30 147.8571
1028.40 146.0614
1028.50 145.3574
1028.60 144.9429
1028.70 150.1907
1028.80 155.3041
1028.90 161.0611
1029.00 168.1365
1029.10 174.6531
1029.20 178.1442
1029.30 179.6524
1029.40 181.1223
1029.50 178.6721
1029.60 175.9112
1029.70 173.4203
1029.80 171.853
1029.90 170.3216
1030.00 169.1203
1030.10 168.3255
1030.20 167.6452
1030.30 168.0532
1030.40 168.8593
1030.50 170.1222
1030.60 174.1172
1030.70 177.8291
1030.80 181.1039
1030.90 183.754
1031.00 186.3334
1031.10 186.7382
1031.20 186.31
1031.30 185.8593
1031.40 185.6133
1031.50 185.3477
1031.60 184.6348
1031.70 183.1017
1031.80 181.5915
1031.90 179.164
1032.00 176.2219
1032.10 173.2661
1032.20 170.345
1032.30 167.5845
1032.40 165.6244
1032.50 166.0428
1032.60 167.0292
1032.70 169.1396
1032.80 172.3344
1032.90 175.7226
1033.00 184.6285
1033.10 193.667
1033.20 202.1099
1033.30 208.2433
1033.40 213.3251
1033.50 213.5842
1033.60 208.6289
1033.70 203.6881
1033.80 193.5742
1033.90 182.6016
1034.00 172.4879
1034.10 168.8319
1034.20 165.7798
1034.30 165.3837
1034.40 169.0547
1034.50 172.5566
1034.60 177.1428
1034.70 181.831
1034.80 186.3153
1034.90 185.9037
1035.00 185.4193
1035.10 184.1767
1035.20 181.3591
1035.30 178.8521
1035.40 177.0633
1035.50 175.99
1035.60 175.1182
1035.70 177.227
1035.80 179.6068
1035.90 182.5377
1036.00 187.3799
1036.10 192.0326
1036.20 196.9941
1036.30 202.1494
1036.40 207.2143
1036.50 210.8574
1036.60 214.1883
1036.70 216.9821
1036.80 216.5524
1036.90 216.5484
1037.00 217.7929
1037.10 220.5334
1037.20 223.1227
1037.30 227.7281
1037.40 232.333
1037.50 236.3585
1037.60 235.116
1037.70 233.1158
1037.80 227.3747
1037.90 215.255
1038.00 203.7383
1038.10 192.5576
1038.20 182.1739
1038.30 172.2113
1038.40 172.1375
1038.50 172.2635
1038.60 174.0947
1038.70 180.2098
1038.80 185.8425
1038.90 189.1714
1039.00 190.8527
1039.10 192.5529
1039.20 190.7234
1039.30 188.8134
1039.40 187.0701
1039.50 185.7256
1039.60 184.5192
1039.70 184.8319
1039.80 186.6044
1039.90 188.298
1040.00 190.8355
1040.10 193.5851
1040.20 196.4302
1040.30 200.0455
1040.40 203.6792
1040.50 207.01
1040.60 209.897
1040.70 212.7364
1040.80 214.2754
1040.90 214.8144
1041.00 214.9593
1041.10 210.9631
1041.20 206.9
1041.30 202.4803
1041.40 197.5529
1041.50 193.2254
1041.60 192.2949
1041.70 193.5907
1041.80 195.1246
1041.90 202.4522
1042.00 209.3565
1042.10 214.9094
1042.20 216.6295
1042.30 217.737
1042.40 214.9526
1042.50 209.1448
1042.60 203.3742
1042.70 193.091
1042.80 183.1056
1042.90 174.4728
1043.00 171.1599
1043.10 168.3396
1043.20 170.3212
1043.30 177.4779
1043.40 184.5944
1043.50 196.0259
1043.60 208.0934
1043.70 219.2632
1043.80 223.7557
1043.90 228.131
1044.00 230.3634
1044.10 229.2023
1044.20 227.9524
1044.30 226.9492
1044.40 226.0618
1044.50 225.1757
1044.60 223.8185
1044.70 222.698
1044.80 221.6805
1044.90 221.0092
1045.00 220.8354
1045.10 224.5887
1045.20 230.6928
1045.30 236.7491
1045.40 246.2816
1045.50 255.1303
1045.60 262.4906
1045.70 265.334
1045.80 267.648
1045.90 264.3183
1046.00 256.3451
1046.10 248.5642
1046.20 238.6639
1046.30 228.4949
1046.40 218.7946
1046.50 211.5539
1046.60 204.2146
1046.70 198.0503
1046.80 193.4324
1046.90 189.0871
1047.00 185.0169
1047.10 181.4214
1047.20 178.2312
1047.30 177.9679
1047.40 177.5257
1047.50 178.1633
1047.60 180.4922
1047.70 182.6501
1047.80 184.7334
1047.90 186.9691
1048.00 189.3289
1048.10 190.7034
1048.20 192.4574
1048.30 195.0742
1048.40 199.5684
1048.50 203.8914
1048.60 208.0169
1048.70 211.8295
1048.80 215.47
1048.90 217.3052
1049.00 218.8647
1049.10 220.2397
1049.20 220.9749
1049.30 221.3323
1049.40 221.5822
1049.50 221.6939
1049.60 221.7513
1049.70 218.8097
1049.80 215.8489
1049.90 213.1225
1050.00 210.7264
1050.10 208.732
1050.20 208.4409
1050.30 210.0329
1050.40 211.2721
1050.50 211.7834
1050.60 211.7162
1050.70 211.3978
1050.80 209.8333
1050.90 208.1318
1051.00 206.0693
1051.10 203.4041
1051.20 200.7504
1051.30 196.8659
1051.40 192.6078
1051.50 188.4925
1051.60 184.3562
1051.70 180.4425
1051.80 177.3334
1051.90 176.1949
1052.00 175.3292
1052.10 175.903
1052.20 177.5373
1052.30 179.2685
1052.40 182.2927
1052.50 185.5539
1052.60 189.9149
1052.70 198.0267
1052.80 205.7184
1052.90 211.8262
1053.00 216.3609
1053.10 220.7483
1053.20 220.8974
1053.30 220.1944
1053.40 219.3356
1053.50 217.4792
1053.60 215.5275
1053.70 214.1179
1053.80 213.4074
1053.90 212.7649
1054.00 212.0058
1054.10 211.1489
1054.20 210.3258
1054.30 210.507
1054.40 210.3358
1054.50 209.6536
1054.60 208.1315
1054.70 206.6237
1054.80 203.0569
1054.90 198.9694
1055.00 195.2064
1055.10 194.723
1055.20 194.3667
1055.30 195.2231
1055.40 198.8617
1055.50 201.7876
1055.60 202.1342
1055.70 200.6166
1055.80 198.9544
1055.90 192.7507
1056.00 186.572
1056.10 180.9476
1056.20 176.9148
1056.30 173.2567
1056.40 171.456
1056.50 171.4029
1056.60 171.3957
1056.70 173.2928
1056.80 175.4183
1056.90 177.4267
1057.00 179.0817
1057.10 180.6954
1057.20 182.698
1057.30 185.2509
1057.40 187.9496
1057.50 190.5178
1057.60 192.9979
1057.70 195.4237
1057.80 197.4635
1057.90 199.4086
1058.00 201.0884
1058.10 202.2479
1058.20 203.1936
1058.30 203.6959
1058.40 204.0406
1058.50 204.4239
1058.60 201.3486
1058.70 198.1921
1058.80 194.8115
1058.90 190.9681
1059.00 187.3181
1059.10 184.3883
1059.20 181.8988
1059.30 179.3891
1059.40 181.0728
1059.50 183.1992
1059.60 185.3699
1059.70 187.6504
1059.80 189.7481
1059.90 190.9183
1060.00 191.2317
1060.10 191.4979
1060.20 190.0133
1060.30 188.1819
1060.40 186.3816
1060.50 184.7873
1060.60 183.2506
1060.70 181.7581
1060.80 180.4066
1060.90 179.2281
1061.00 177.5898
1061.10 175.9683
1061.20 174.7755
1061.30 178.1757
1061.40 181.3436
1061.50 184.9236
1061.60 189.1725
1061.70 193.3697
1061.80 195.0128
1061.90 195.5183
1062.00 196.0314
1062.10 192.4186
1062.20 189.104
1062.30 186.603
1062.40 185.8381
1062.50 185.1407
1062.60 188.4062
1062.70 194.0213
1062.80 199.5573
1062.90 207.0409
1063.00 214.2818
1063.10 219.9189
1063.20 220.7879
1063.30 221.8297
1063.40 220.6604
1063.50 217.7533
1063.60 215.0476
1063.70 213.8317
1063.80 212.8399
1063.90 212.7226
1064.00 217.2571
1064.10 221.4254
1064.20 224.4437
1064.30 226.138
1064.40 227.7818
1064.50 228.1309
1064.60 228.2229
1064.70 228.2583
1064.80 227.1582
1064.90 225.9485
1065.00 225.5387
1065.10 226.1963
1065.20 226.477
1065.30 224.066
1065.40 220.5742
1065.50 217.0488
1065.60 211.2091
1065.70 205.9363
1065.80 200.9974
1065.90 196.5463
1066.00 191.9049
1066.10 189.812
1066.20 189.0552
1066.30 188.2048
1066.40 187.1561
1066.50 186.3085
1066.60 185.1784
1066.70 183.1072
1066.80 181.4508
1066.90 179.2675
1067.00 176.5834
1067.10 173.7844
1067.20 174.1375
1067.30 175.2789
1067.40 177.2891
1067.50 182.7449
1067.60 188.121
1067.70 194.1897
1067.80 200.9292
1067.90 207.5792
1068.00 211.4351
1068.10 214.5274
1068.20 217.5213
1068.30 219.9763
1068.40 222.3561
1068.50 225.0159
1068.60 228.01
1068.70 230.8634
1068.80 232.2464
1068.90 232.9571
1069.00 233.4732
1069.10 231.4668
1069.20 229.4327
1069.30 226.8294
1069.40 223.0868
1069.50 219.0135
1069.60 214.9583
1069.70 211.1729
1069.80 207.6278
1069.90 206.7181
1070.00 206.174
1070.10 205.8333
1070.20 205.8719
1070.30 205.9453
1070.40 205.8991
1070.50 205.5826
1070.60 205.0372
1070.70 205.9679
1070.80 207.3411
1070.90 208.9774
1071.00 211.286
1071.10 213.8038
1071.20 215.3704
1071.30 216.0356
1071.40 216.6611
1071.50 218.2303
1071.60 219.9055
1071.70 221.746
1071.80 224.8535
1071.90 227.7269
1072.00 229.5478
1072.10 230.0449
1072.20 230.4481
1072.30 228.1116
1072.40 224.9773
1072.50 221.9341
1072.60 219.5287
1072.70 217.4235
1072.80 216.3082
1072.90 216.6994
1073.00 216.8707
1073.10 218.5519
1073.20 220.939
1073.30 223.3497
1073.40 222.5384
1073.50 221.7274
1073.60 220.8894
1073.70 220.0271
1073.80 219.3521
1073.90 221.0302
1074.00 224.0697
1074.10 227.0179
1074.20 231.4008
1074.30 236.0565
1074.40 240.1211
1074.50 242.1571
1074.60 244.0838
1074.70 245.514
1074.80 246.3477
1074.90 246.8837
1075.00 245.8128
1075.10 244.1893
1075.20 241.708
1075.30 235.6539
1075.40 230.1494
1075.50 224.9173
1075.60 220.2352
1075.70 216.0943
1075.80 217.5472
1075.90 220.2794
1076.00 223.0891
1076.10 227.694
1076.20 231.7615
1076.30 234.8871
1076.40 236.7769
1076.50 238.8776
1076.60 239.0043
1076.70 238.5248
1076.80 238.2207
1076.90 239.4797
1077.00 240.6257
1077.10 241.418
1077.20 241.4824
1077.30 241.2087
1077.40 240.1919
1077.50 238.8951
1077.60 237.7237
1077.70 235.1675
1077.80 232.7371
1077.90 231.2502
1078.00 232.1818
1078.10 233.0446
1078.20 234.5627
1078.30 236.3873
1078.40 237.9797
1078.50 237.9531
1078.60 237.6421
1078.70 236.7171
1078.80 233.4579
1078.90 230.1113
1079.00 226.5628
1079.10 222.8223
1079.20 219.0856
1079.30 214.9079
1079.40 210.9902
1079.50 207.557
1079.60 205.9717
1079.70 204.7622
1079.80 204.9748
1079.90 206.8605
1080.00 208.6152
1080.10 211.6117
1080.20 214.877
1080.30 218.0887
1080.40 221.728
1080.50 225.5876
1080.60 229.2421
1080.70 232.4776
1080.80 235.5462
1080.90 237.5179
1081.00 239.005
1081.10 240.4996
1081.20 240.7165
1081.30 240.9983
1081.40 241.9528
1081.50 244.4115
1081.60 247.0914
1081.70 250.036
1081.80 252.8353
1081.90 255.2587
1082.00 254.7686
1082.10 253.8861
1082.20 252.249
1082.30 248.4
1082.40 244.6048
1082.50 240.5985
1082.60 236.6847
1082.70 233.2033
1082.80 231.8673
1082.90 230.968
1083.00 230.7798
1083.10 233.5939
1083.20 236.394
1083.30 240.8815
1083.40 247.006
1083.50 252.8652
1083.60 256.7013
1083.70 259.8201
1083.80 262.4725
1083.90 262.3992
1084.00 262.421
1084.10 261.256
1084.20 258.3542
1084.30 255.1738
1084.40 251.746
1084.50 248.4607
1084.60 245.3113
1084.70 240.8272
1084.80 236.4119
1084.90 233.3616
1085.00 232.7689
1085.10 232.4244
1085.20 232.7246
1085.30 233.1509
1085.40 233.3697
1085.50 233.9188
1085.60 234.9248
1085.70 236.171
1085.80 237.7195
1085.90 239.3309
1086.00 243.4198
1086.10 249.0497
1086.20 254.5205
1086.30 259.7684
1086.40 264.5824
1086.50 267.9826
1086.60 266.9552
1086.70 266.3525
1086.80 264.9585
1086.90 262.8675
1087.00 260.7853
1087.10 262.0835
1087.20 263.8434
1087.30 265.3942
1087.40 266.2125
1087.50 266.7381
1087.60 265.2661
1087.70 261.6051
1087.80 258.0813
1087.90 256.001
1088.00 254.4598
1088.10 253.2135
1088.20 254.0227
1088.30 254.8206
1088.40 255.5853
1088.50 256.3124
1088.60 257.0782
1088.70 256.6897
1088.80 255.6721
1088.90 254.5183
1089.00 253.6715
1089.10 252.9218
1089.20 251.2315
1089.30 247.7458
1089.40 244.6829
1089.50 243.7136
1089.60 243.9015
1089.70 244.1262
1089.80 250.9075
1089.90 258.0449
1090.00 264.9911
1090.10 271.3129
1090.20 277.1451
1090.30 280.2603
1090.40 281.2754
1090.50 281.9589
1090.60 278.3763
1090.70 274.0344
1090.80 269.5424
1090.90 264.9547
1091.00 261.2776
1091.10 257.3945
1091.20 253.5456
1091.30 250.1732
1091.40 251.5217
1091.50 253.8188
1091.60 256.7016
1091.70 263.2478
1091.80 269.1547
1091.90 273.894
1092.00 277.2333
1092.10 280.3405
1092.20 279.9664
1092.30 278.507
1092.40 276.8761
1092.50 273.6822
1092.60 270.6546
1092.70 268.3658
1092.80 267.2592
1092.90 266.4499
1093.00 266.4886
1093.10 266.9387
1093.20 267.4315
1093.30 267.6733
1093.40 267.6814
1093.50 266.9657
1093.60 264.8971
1093.70 262.8699
1093.80 261.7045
1093.90 261.0422
1094.00 260.4045
1094.10 263.5618
1094.20 266.7077
1094.30 268.5186
1094.40 266.7325
1094.50 264.7865
1094.60 260.7604
1094.70 255.5836
1094.80 251.0388
1094.90 249.0267
1095.00 247.6683
1095.10 248.6198
1095.20 258.1396
1095.30 267.0718
1095.40 275.4606
1095.50 283.085
1095.60 290.1172
1095.70 292.2951
1095.80 293.4948
1095.90 294.0167
1096.00 290.3122
1096.10 287.1045
1096.20 285.0517
1096.30 284.309
1096.40 283.4032
1096.50 284.3363
1096.60 285.4047
1096.70 285.7747
1096.80 281.9092
1096.90 278.0435
1097.00 272.3806
1097.10 264.0222
1097.20 256.2695
1097.30 250.656
1097.40 246.2991
1097.50 242.3965
1097.60 245.5315
1097.70 248.5469
1097.80 252.4779
1097.90 258.3748
1098.00 263.8441
1098.10 267.3724
1098.20 269.6046
1098.30 271.5431
1098.40 270.1878
1098.50 268.8417
1098.60 267.1676
1098.70 264.3738
1098.80 262.0799
1098.90 260.7916
1099.00 260.3865
1099.10 260.2239
1099.20 262.674
1099.30 265.1892
1099.40 267.5358
1099.50 269.7635
1099.60 271.8896
1099.70 274.0163
1099.80 276.0583
1099.90 277.8728
1100.00 277.8725
1100.10 277.4745
1100.20 276.8211
1100.30 274.5953
1100.40 272.3062
1100.50 269.7046
1100.60 266.7684
1100.70 263.9785
1100.80 262.3931
1100.90 261.2451
1101.00 260.3666
1101.10 261.9834
1101.20 263.6015
1101.30 265.519
1101.40 267.8891
1101.50 270.173
1101.60 272.0049
1101.70 273.5687
1101.80 275.0052
1101.90 272.4996
1102.00 269.8079
1102.10 266.5301
1102.20 262.2371
1102.30 258.6567
1102.40 256.079
1102.50 254.1405
1102.60 252.3196
1102.70 256.0963
1102.80 259.841
1102.90 263.6376
1103.00 267.9464
1103.10 271.5217
1103.20 271.2358
1103.30 268.2573
1103.40 265.4892
1103.50 257.8072
1103.60 249.8185
1103.70 243.1341
1103.80 240.9911
1103.90 239.1449
1104.00 239.8491
1104.10 242.8706
1104.20 245.8275
1104.30 248.4368
1104.40 250.8825
1104.50 253.2424
1104.60 255.4851
1104.70 257.4638
1104.80 259.9035
1104.90 262.9006
1105.00 265.7137
1105.10 264.3213
1105.20 261.4988
1105.30 258.1046
1105.40 250.0568
1105.50 242.5512
1105.60 235.9429
1105.70 230.6138
1105.80 225.6637
1105.90 225.2829
1106.00 226.7221
1106.10 228.1372
1106.20 231.1492
1106.30 233.9076
1106.40 236.6639
1106.50 239.5503
1106.60 242.0581
1106.70 242.1145
1106.80 241.037
1106.90 240.2631
1107.00 236.9255
1107.10 233.6604
1107.20 231.3598
1107.30 231.4588
1107.40 231.4881
1107.50 232.5845
1107.60 234.2601
1107.70 235.591
1107.80 238.7481
1107.90 242.5257
1108.00 246.0457
1108.10 247.6741
1108.20 249.5286
1108.30 253.5709
1108.40 259.5197
1108.50 265.1845
1108.60 267.8026
1108.70 269.6127
1108.80 270.9234
1108.90 270.3777
1109.00 269.8959
1109.10 268.5337
1109.20 266.278
1109.30 264.4876
1109.40 265.3575
1109.50 266.9004
1109.60 268.529
1109.70 271.8076
1109.80 274.4749
1109.90 275.6449
1110.00 274.6917
1110.10 273.213
1110.20 268.303
1110.30 262.3782
1110.40 256.8629
1110.50 251.4319
1110.60 246.3772
1110.70 242.977
1110.80 242.5212
1110.90 241.7514
1111.00 241.3047
1111.10 240.9118
1111.20 240.3353
1111.30 235.9305
1111.40 231.7678
1111.50 228.0861
1111.60 225.2248
1111.70 222.5382
1111.80 222.603
1111.90 224.3707
1112.00 225.8456
1112.10 228.1912
1112.20 230.9546
1112.30 233.5648
1112.40 234.9414
1112.50 236.5312
1112.60 238.6811
1112.70 241.2743
1112.80 243.8009
1112.90 248.0308
1113.00 252.1952
1113.10 255.8661
1113.20 258.5318
1113.30 260.9378
1113.40 262.4157
1113.50 262.8832
1113.60 263.1646
1113.70 260.1688
1113.80 256.7907
1113.90 253.9591
1114.00 251.594
1114.10 249.7833
1114.20 249.7653
1114.30 252.0138
1114.40 254.0642
1114.50 259.6136
1114.60 265.957
1114.70 271.4352
1114.80 272.5671
1114.90 273.5199
1115.00 273.1676
1115.10 270.6127
1115.20 268.2402
1115.30 266.2724
1115.40 264.7919
1115.50 263.8167
1115.60 264.4383
1115.70 264.9954
1115.80 265.4624
1115.90 265.8037
1116.00 265.8447
1116.10 264.2041
1116.20 261.5128
1116.30 258.7767
1116.40 257.0779
1116.50 255.4737
1116.60 253.819
1116.70 251.9727
1116.80 249.8567
1116.90 247.5912
1117.00 245.1384
1117.10 242.4356
1117.20 237.6285
1117.30 232.7506
1117.40 228.4992
1117.50 226.2289
1117.60 224.5146
1117.70 224.6875
1117.80 226.3942
1117.90 228.3473
1118.00 231.1703
1118.10 236.0863
1118.20 240.9656
1118.30 245.8332
1118.40 250.0138
1118.50 254.1216
1118.60 258.1624
1118.70 259.2642
1118.80 259.6427
1118.90 259.9775
1119.00 258.5473
1119.10 255.5524
1119.20 252.8724
1119.30 250.7316
1119.40 250.0483
1119.50 249.4109
1119.60 248.7782
1119.70 248.2137
1119.80 247.7667
1119.90 247.3802
1120.00 247.3133
1120.10 247.3424
1120.20 247.3644
1120.30 248.1896
1120.40 249.8438
1120.50 251.6574
1120.60 253.673
1120.70 256.3287
1120.80 258.5829
1120.90 260.7876
1121.00 261.5722
1121.10 262.2852
1121.20 262.9645
1121.30 261.6123
1121.40 259.4902
1121.50 257.338
1121.60 254.6767
1121.70 251.4629
1121.80 248.2409
1121.90 245.2174
1122.00 242.8974
1122.10 240.7036
1122.20 238.5302
1122.30 240.5514
1122.40 243.0081
1122.50 245.6602
1122.60 250.8527
1122.70 257.0565
1122.80 263.2118
1122.90 267.3092
1123.00 268.9288
1123.10 269.9898
1123.20 269.8906
1123.30 265.1501
1123.40 260.5631
1123.50 256.0055
1123.60 251.7787
1123.70 247.8986
1123.80 244.2571
1123.90 245.7512
1124.00 249.554
1124.10 253.3598
1124.20 258.5089
1124.30 265.3199
1124.40 271.4955
1124.50 276.8426
1124.60 278.4148
1124.70 279.6265
1124.80 280.759
1124.90 274.5388
1125.00 267.8775
1125.10 261.3047
1125.20 257.2705
1125.30 254.6672
1125.40 252.5898
1125.50 252.7453
1125.60 255.9951
1125.70 259.4483
1125.80 262.9137
1125.90 266.4383
1126.00 269.5638
1126.10 272.5894
1126.20 271.5796
1126.30 270.2069
1126.40 268.8651
1126.50 268.5766
1126.60 268.9239
1126.70 269.4993
1126.80 270.4951
1126.90 272.109
1127.00 273.3244
1127.10 274.2035
1127.20 273.1769
1127.30 271.6077
1127.40 269.8855
1127.50 267.8912
1127.60 266.1283
1127.70 264.6069
1127.80 263.289
1127.90 262.1809
1128.00 261.3304
1128.10 260.7279
1128.20 260.514
1128.30 260.3522
1128.40 260.2737
1128.50 260.7066
1128.60 260.9474
1128.70 261.1276
1128.80 261.6182
1128.90 262.2367
1129.00 262.9375
1129.10 263.3968
1129.20 263.6765
1129.30 263.8435
1129.40 264.4765
1129.50 265.8701
1129.60 267.2229
1129.70 268.6723
1129.80 270.8294
1129.90 272.9156
1130.00 274.9769
1130.10 274.7522
1130.20 274.0899
1130.30 273.3277
1130.40 269.7065
1130.50 264.3969
1130.60 259.2899
1130.70 255.0157
1130.80 252.222
1130.90 249.7327
1131.00 247.6739
1131.10 249.0485
1131.20 250.6208
1131.30 252.2663
1131.40 255.9556
1131.50 259.7847
1131.60 263.4049
1131.70 266.3704
1131.80 268.8923
1131.90 271.3263
1132.00 273.1752
1132.10 273.9372
1132.20 274.5008
1132.30 274.8858
1132.40 273.7182
1132.50 272.7755
1132.60 271.9246
1132.70 270.1752
1132.80 268.1143
1132.90 265.8737
1133.00 264.3481
1133.10 263.2593
1133.20 262.0205
1133.30 260.5949
1133.40 258.8064
1133.50 257.054
1133.60 255.2518
1133.70 252.9318
1133.80 250.6922
1133.90 248.487
1134.00 242.5181
1134.10 235.8327
1134.20 229.1478
1134.30 224.392
1134.40 221.0743
1134.50 218.1462
1134.60 217.2854
1134.70 220.4376
1134.80 223.9674
1134.90 227.7802
1135.00 234.5713
1135.10 241.1427
1135.20 247.6153
1135.30 248.7996
1135.40 248.6715
1135.50 248.2518
1135.60 245.9835
1135.70 242.4135
1135.80 239.0003
1135.90 236.7424
1136.00 236.8299
1136.10 237.0534
1136.20 237.497
1136.30 240.371
1136.40 243.1029
1136.50 245.7681
1136.60 246.0674
1136.70 245.8152
1136.80 245.4744
1136.90 243.2373
1137.00 239.6283
1137.10 236.0247
1137.20 232.8706
1137.30 230.6717
1137.40 228.2258
1137.50 225.74
1137.60 222.9709
1137.70 219.7161
1137.80 216.222
1137.90 207.8865
1138.00 198.7801
1138.10 190.0765
1138.20 181.0826
1138.30 172.0881
1138.40 164.1608
1138.50 159.4979
1138.60 161.7722
1138.70 164.5701
1138.80 168.021
1138.90 179.5409
1139.00 190.5087
1139.10 201.2046
1139.20 208.7452
1139.30 215.2124
1139.40 221.1539
1139.50 222.9306
1139.60 221.4953
1139.70 219.6916
1139.80 216.8027
1139.90 211.6079
1140.00 206.1451
1140.10 200.3777
1140.20 190.9151
1140.30 181.779
1140.40 172.811
1140.50 164.1793
1140.60 156.159
1140.70 148.905
1140.80 146.2518
1140.90 147.2073
1141.00 148.8875
1141.10 153.6269
1141.20 165.1756
1141.30 176.4503
1141.40 187.7035
1141.50 199.0451
1141.60 209.7443
1141.70 220.1127
1141.80 227.3593
1141.90 233.821
1142.00 240.2067
1142.10 244.6603
1142.20 247.5812
1142.30 250.4257
1142.40 252.9567
1142.50 254.7895
1142.60 256.8058
1142.70 258.7201
1142.80 258.755
1142.90 258.6297
1143.00 258.4181
1143.10 257.5422
1143.20 256.4551
1143.30 255.2699
1143.40 253.8343
1143.50 252.223
1143.60 250.6866
1143.70 249.306
1143.80 248.2563
1143.90 247.1889
1144.00 246.193
1144.10 246.1732
1144.20 246.198
1144.30 246.2469
1144.40 246.5274
1144.50 246.8638
1144.60 247.2077
1144.70 247.7873
1144.80 248.5835
1144.90 249.5995
1145.00 250.5099
1145.10 251.1961
1145.20 251.7097
1145.30 252.1723
1145.40 252.2123
1145.50 252.2937
1145.60 252.3974
1145.70 251.9093
1145.80 251.3575
1145.90 250.9053
1146.00 251.4258
1146.10 252.688
1146.20 253.9951
1146.30 256.0298
1146.40 259.6107
1146.50 263.13
1146.60 266.5387
1146.70 268.5686
1146.80 270.4095
1146.90 272.1488
1147.00 271.9454
1147.10 271.2688
1147.20 270.522
1147.30 269.6518
1147.40 268.7229
1147.50 267.9877
1147.60 267.9433
1147.70 269.3013
1147.80 270.9011
1147.90 272.5349
1148.00 274.2857
1148.10 275.8587
1148.20 277.3403
1148.30 276.8894
1148.40 275.9647
1148.50 274.9279
1148.60 274.7237
1148.70 275.1695
1148.80 275.8619
1148.90 276.9283
1149.00 278.7543
1149.10 280.4809
1149.20 282.1031
1149.30 282.6369
1149.40 282.9641
1149.50 283.1848
1149.60 282.0412
1149.70 280.7336
1149.80 279.5637
1149.90 279.0207
1150.00 278.9563
1150.10 279.1166
1150.20 279.4176
1150.30 279.9919
1150.40 280.6035
1150.50 281.2011
1150.60 281.6197
1150.70 281.8077
1150.80 281.8767
1150.90 282.9047
1151.00 284.1368
1151.10 285.3985
1151.20 286.166
1151.30 286.5797
1151.40 286.8735
1151.50 286.6429
1151.60 285.4387
1151.70 284.2569
1151.80 282.9728
1151.90 280.7516
1152.00 278.3409
1152.10 275.8369
1152.20 271.7676
1152.30 267.482
1152.40 263.279
1152.50 260.0196
1152.60 257.4287
1152.70 255.1564
1152.80 253.8377
1152.90 254.2142
1153.00 254.8247
1153.10 255.59
1153.20 257.4663
1153.30 259.129
1153.40 260.6913
1153.50 261.7048
1153.60 262.6402
1153.70 263.5903
1153.80 265.9758
1153.90 269.2507
1154.00 272.5692
1154.10 275.8172
1154.20 278.9452
1154.30 282.0277
1154.40 284.5945
1154.50 283.4053
1154.60 282.1839
1154.70 280.948
1154.80 278.0545
1154.90 274.9426
1155.00 271.8682
1155.10 270.3493
1155.20 269.7277
1155.30 269.0372
1155.40 269.6095
1155.50 272.2421
1155.60 274.8003
1155.70 277.2155
1155.80 278.7059
1155.90 280.3535
1156.00 282.0685
1156.10 282.7533
1156.20 283.2916
1156.30 283.8064
1156.40 284.1345
1156.50 284.3243
1156.60 284.3809
1156.70 284.1307
1156.80 283.4008
1156.90 282.5804
1157.00 281.5031
1157.10 278.9913
1157.20 276.4178
1157.30 273.8189
1157.40 271.8523
1157.50 270.0249
1157.60 268.2787
1157.70 267.9206
1157.80 268.3556
1157.90 269.0835
1158.00 270.2271
1158.10 271.9688
1158.20 273.6799
1158.30 275.2013
1158.40 275.7315
1158.50 275.8509
1158.60 275.8104
1158.70 274.2688
1158.80 272.5578
1158.90 270.803
1159.00 267.8641
1159.10 264.3502
1159.20 260.8642
1159.30 257.4997
1159.40 254.3031
1159.50 251.4472
1159.60 248.7801
1159.70 246.9413
1159.80 245.1685
1159.90 243.4201
1160.00 244.3312
1160.10 245.5334
1160.20 246.8304
1160.30 249.5975
1160.40 252.9897
1160.50 256.2698
1160.60 258.7436
1160.70 260.1914
1160.80 261.803
1160.90 263.2871
1161.00 264.2612
1161.10 265.2821
1161.20 266.3186
1161.30 268.9174
1161.40 271.441
1161.50 273.8071
1161.60 276.154
1161.70 278.4319
1161.80 280.5365
1161.90 280.6877
1162.00 278.5481
1162.10 276.6175
1162.20 274.6531
1162.30 272.5621
1162.40 270.7073
1162.50 268.9231
1162.60 270.3801
1162.70 271.9572
1162.80 273.5527
1162.90 276.774
1163.00 280.5161
1163.10 283.9568
1163.20 286.023
1163.30 286.5889
1163.40 286.7961
1163.50 286.0187
1163.60 281.945
1163.70 277.9537
1163.80 273.9855
1163.90 269.6006
1164.00 265.5159
1164.10 261.6905
1164.20 261.3508
1164.30 262.2862
1164.40 263.3448
1164.50 265.6057
1164.60 269.039
1164.70 271.9089
1164.80 274.115
1164.90 274.3293
1165.00 274.3206
1165.10 274.2125
1165.20 269.7958
1165.30 265.5435
1165.40 261.4203
1165.50 257.9576
1165.60 254.8594
1165.70 252.133
1165.80 251.943
1165.90 254.089
1166.00 256.1669
1166.10 258.7395
1166.20 262.5844
1166.30 266.1114
1166.40 269.5047
1166.50 270.8316
1166.60 272.0654
1166.70 273.2318
1166.80 272.3661
1166.90 270.9818
1167.00 269.6413
1167.10 268.0314
1167.20 266.2014
1167.30 264.4662
1167.40 262.6625
1167.50 260.6987
1167.60 258.6449
1167.70 256.5964
1167.80 254.9018
1167.90 253.1227
1168.00 251.2871
1168.10 248.7114
1168.20 245.7682
1168.30 242.4648
1168.40 237.3854
1168.50 230.9098
1168.60 223.9767
1168.70 215.4791
1168.80 203.6568
1168.90 192.2517
1169.00 180.8503
1169.10 168.7093
1169.20 157.4568
1169.30 146.7489
1169.40 144.0688
1169.50 143.2439
1169.60 142.9743
1169.70 149.3496
1169.80 160.3208
1169.90 171.1469
1170.00 183.1159
1170.10 197.2075
1170.20 210.8308
1170.30 223.842
1170.40 232.368
1170.50 240.6421
1170.60 248.7745
1170.70 252.814
1170.80 256.0687
1170.90 259.1456
1171.00 260.6934
1171.10 261.2953
1171.20 261.847
1171.30 262.3066
1171.40 262.6161
1171.50 262.9917
1171.60 263.2893
1171.70 263.0203
1171.80 262.7301
1171.90 262.4294
1172.00 261.8304
1172.10 261.2211
1172.20 260.6483
1172.30 260.4628
1172.40 260.5085
1172.50 260.6575
1172.60 261.3916
1172.70 263.0035
1172.80 264.5478
1172.90 266.0488
1173.00 267.3458
1173.10 268.4973
1173.20 269.5835
1173.30 269.231
1173.40 268.6909
1173.50 268.0744
1173.60 266.8587
1173.70 265.4043
1173.80 264.1129
1173.90 263.0054
1174.00 262.1419
1174.10 261.5115
1174.20 261.3246
1174.30 262.9873
1174.40 264.6266
1174.50 266.2567
1174.60 267.2525
1174.70 268.0196
1174.80 268.5751
1174.90 267.4357
1175.00 265.5579
1175.10 263.5262
1175.20 260.5268
1175.30 256.3916
1175.40 252.5118
1175.50 249.0424
1175.60 247.0189
1175.70 245.0334
1175.80 243.0605
1175.90 242.0998
1176.00 241.0601
1176.10 239.9206
1176.20 237.8712
1176.30 235.3485
1176.40 232.3887
1176.50 227.867
1176.60 221.7081
1176.70 214.9878
1176.80 206.869
1176.90 194.5545
1177.00 182.3559
1177.10 170.1608
1177.20 155.0823
1177.30 140.7215
1177.40 126.9972
1177.50 119.1379
1177.60 113.3574
1177.70 108.3771
1177.80 110.3128
1177.90 118.3984
1178.00 126.8057
1178.10 136.9072
1178.20 151.3653
1178.30 165.4089
1178.40 179.2562
1178.50 190.7272
1178.60 201.975
1178.70 213.0475
1178.80 220.508
1178.90 226.9387
1179.00 233.0997
1179.10 237.3724
1179.20 240.1492
1179.30 242.785
1179.40 244.8468
1179.50 245.6886
1179.60 246.5909
1179.70 247.5407
1179.80 248.9023
1179.90 250.3753
1180.00 251.9225
1180.10 254.2545
1180.20 256.7269
1180.30 259.1612
1180.40 261.0034
1180.50 262.402
1180.60 263.5406
1180.70 264.0434
1180.80 263.3656
1180.90 262.5976
1181.00 261.6931
1181.10 259.7926
1181.20 257.9274
1181.30 256.0828
1181.40 254.4703
1181.50 252.961
1181.60 251.5586
1181.70 251.3236
1181.80 251.7934
1181.90 252.3716
1182.00 253.3084
1182.10 254.8062
1182.20 256.2122
1182.30 257.4822
1182.40 258.0397
1182.50 258.5557
1182.60 259.0504
1182.70 259.0171
1182.80 258.9252
1182.90 258.8245
1183.00 259.0617
1183.10 259.4175
1183.20 259.5554
1183.30 258.9731
1183.40 257.3961
1183.50 255.8441
1183.60 254.0335
1183.70 251.0379
1183.80 248.3685
1183.90 245.8388
1184.00 246.4705
1184.10 247.3511
1184.20 248.2872
1184.30 251.0915
1184.40 254.5755
1184.50 257.6312
1184.60 259.3384
1184.70 259.4628
1184.80 259.4776
1184.90 258.8437
1185.00 255.922
1185.10 253.3486
1185.20 250.9039
1185.30 250.2777
1185.40 249.7827
1185.50 249.3857
1185.60 250.9496
1185.70 253.1606
1185.80 255.2457
1185.90 256.9884
1186.00 258.3862
1186.10 259.5225
1186.20 260.4531
1186.30 260.7983
1186.40 261.0687
1186.50 261.2922
1186.60 260.3104
1186.70 259.3727
1186.80 258.4743
1186.90 257.3678
1187.00 256.2651
1187.10 255.3156
1187.20 254.8485
1187.30 254.7937
1187.40 254.765
1187.50 255.1859
1187.60 256.6564
1187.70 257.779
1187.80 258.6961
1187.90 257.6729
1188.00 256.4941
1188.10 255.198
1188.20 250.535
1188.30 245.2811
1188.40 240.3282
1188.50 235.9026
1188.60 231.9016
1188.70 228.333
1188.80 226.7034
1188.90 228.8378
1189.00 230.9817
1189.10 233.369
1189.20 237.9318
1189.30 242.3452
1189.40 246.6631
1189.50 249.4402
1189.60 251.9801
1189.70 254.5433
1189.80 255.8643
1189.90 256.3923
1190.00 256.7089
1190.10 257.0514
1190.20 257.4363
1190.30 257.7935
1190.40 257.8896
1190.50 256.5254
1190.60 255.2186
1190.70 253.9427
1190.80 253.6577
1190.90 253.5657
1191.00 253.6105
1191.10 254.3244
1191.20 255.3585
1191.30 256.3475
1191.40 257.6789
1191.50 259.4642
1191.60 261.1492
1191.70 262.5908
1191.80 263.0268
1191.90 263.3537
1192.00 263.6316
1192.10 263.5615
1192.20 263.5409
1192.30 263.6031
1192.40 263.2215
1192.50 262.6656
1192.60 262.1355
1192.70 261.7818
1192.80 261.6271
1192.90 261.4724
1193.00 261.5204
1193.10 262.2469
1193.20 262.6857
1193.30 263.0181
1193.40 261.8854
1193.50 260.727
1193.60 259.5419
1193.70 256.2145
1193.80 252.2438
1193.90 248.3679
1194.00 244.8706
1194.10 241.7256
1194.20 238.722
1194.30 236.2615
1194.40 235.1976
1194.50 233.9614
1194.60 232.6353
1194.70 230.3183
1194.80 228.1579
1194.90 226.131
1195.00 223.984
1195.10 221.9202
1195.20 220.1209
1195.30 220.608
1195.40 222.8819
1195.50 225.008
1195.60 227.3334
1195.70 230.0639
1195.80 232.4247
1195.90 234.3917
1196.00 233.1976
1196.10 232.0288
1196.20 230.8783
1196.30 228.145
1196.40 225.21
1196.50 222.4255
1196.60 221.1754
1196.70 220.8814
1196.80 220.3872
1196.90 219.5106
1197.00 217.983
1197.10 216.2117
1197.20 213.9956
1197.30 209.271
1197.40 204.6554
1197.50 200.1039
1197.60 195.6607
1197.70 191.4241
1197.80 187.4921
1197.90 186.3024
1198.00 186.5832
1198.10 187.1918
1198.20 189.3219
1198.30 193.553
1198.40 197.5423
1198.50 201.5038
1198.60 205.4477
1198.70 208.9987
1198.80 212.3647
1198.90 212.0848
1199.00 211.4925
1199.10 210.7466
1199.20 207.6591
1199.30 203.72
1199.40 200.2003
1199.50 197.4445
1199.60 195.5501
1199.70 193.8206
1199.80 192.7914
1199.90 194.0834
1200.00 195.3593
1200.10 196.6288
1200.20 197.1106
1200.30 197.5989
1200.40 198.094
1200.50 199.2859
1200.60 200.7262
1200.70 202.2516
1200.80 204.0162
1200.90 205.9998
1201.00 207.8282
1201.10 209.3221
1201.20 209.9555
1201.30 210.3984
1201.40 210.703
1201.50 209.4627
1201.60 208.2616
1201.70 207.0938
1201.80 206.7072
1201.90 206.5492
1202.00 206.497
1202.10 207.0616
1202.20 208.0933
1202.30 209.1546
1202.40 209.7365
1202.50 209.3877
1202.60 208.8104
1202.70 208.1181
1202.80 206.8439
1202.90 205.6911
1203.00 204.6227
1203.10 204.1845
1203.20 204.0001
1203.30 204.0963
1203.40 206.5321
1203.50 210.3574
1203.60 214.3092
1203.70 218.6519
1203.80 223.6061
1203.90 228.1585
1204.00 232.3684
1204.10 234.9768
1204.20 237.3049
1204.30 239.4753
1204.40 237.5831
1204.50 235.4023
1204.60 233.3183
1204.70 231.4375
1204.80 229.7165
1204.90 228.3325
1205.00 228.1679
1205.10 229.5554
1205.20 231.0557
1205.30 232.9937
1205.40 236.5462
1205.50 239.9982
1205.60 243.4052
1205.70 245.9601
1205.80 248.3917
1205.90 250.7051
1206.00 251.7703
1206.10 252.3076
1206.20 252.6097
1206.30 252.1891
1206.40 251.0456
1206.50 249.874
1206.60 248.1921
1206.70 245.0591
1206.80 242.2754
1206.90 239.7033
1207.00 240.0067
1207.10 240.4657
1207.20 241.0743
1207.30 244.01
1207.40 247.5309
1207.50 250.9616
1207.60 255.0343
1207.70 259.6239
1207.80 263.9384
1207.90 267.0748
1208.00 267.7077
1208.10 268.1422
1208.20 268.3962
1208.30 267.1469
1208.40 265.6614
1208.50 263.9904
1208.60 259.6872
1208.70 254.9194
1208.80 250.2296
1208.90 244.5154
1209.00 238.2152
1209.10 232.6124
1209.20 228.58
1209.30 227.2214
1209.40 226.2799
1209.50 226.4441
1209.60 232.9476
1209.70 239.0418
1209.80 244.8852
1209.90 250.4221
1210.00 255.5979
1210.10 260.2399
1210.20 258.7855
1210.30 254.3142
1210.40 249.7552
1210.50 243.456
1210.60 234.8499
1210.70 226.8241
1210.80 219.2853
1210.90 213.5784
1211.00 208.2301
1211.10 203.0585
1211.20 203.2071
1211.30 203.5978
1211.40 204.0157
1211.50 206.3288
1211.60 209.3796
1211.70 212.4332
1211.80 216.2042
1211.90 220.7221
1212.00 225.3692
1212.10 230.2972
1212.20 236.0515
1212.30 241.5033
1212.40 246.7863
1212.50 249.2795
1212.60 251.4592
1212.70 253.3128
1212.80 251.0274
1212.90 247.611
1213.00 244.2983
1213.10 239.2848
1213.20 232.8981
1213.30 227.418
1213.40 224.0939
1213.50 225.569
1213.60 227.2865
1213.70 229.5582
1213.80 237.4629
1213.90 245.0702
1214.00 252.4343
1214.10 258.1808
1214.20 263.4771
1214.30 268.4712
1214.40 269.728
1214.50 268.6078
1214.60 267.6323
1214.70 266.5282
1214.80 265.2049
1214.90 263.9756
1215.00 263.0196
1215.10 263.6406
1215.20 264.0888
1215.30 264.4265
1215.40 263.945
1215.50 263.3158
1215.60 262.5941
1215.70 260.6296
1215.80 258.0904
1215.90 255.7796
1216.00 254.0632
1216.10 253.1035
1216.20 252.3661
1216.30 251.9755
1216.40 252.8731
1216.50 253.84
1216.60 254.8411
1216.70 256.9248
1216.80 258.9657
1216.90 260.9096
1217.00 262.5486
1217.10 264.0351
1217.20 265.3629
1217.30 265.8897
1217.40 265.6156
1217.50 265.4988
1217.60 265.21
1217.70 264.4177
1217.80 263.7611
1217.90 263.2303
1218.00 265.1469
1218.10 267.0604
1218.20 268.9707
1218.30 271.6793
1218.40 274.4605
1218.50 276.8803
1218.60 277.525
1218.70 276.7775
1218.80 276.1107
1218.90 274.6325
1219.00 271.507
1219.10 268.4426
1219.20 265.6575
1219.30 265.533
1219.40 265.4484
1219.50 265.3951
1219.60 265.4844
1219.70 265.5747
1219.80 265.6178
1219.90 265.213
1220.00 264.5577
1220.10 264.0299
1220.20 263.5712
1220.30 263.2207
1220.40 262.8364
1220.50 262.8445
1220.60 264.9418
1220.70 266.8435
1220.80 268.6254
1220.90 268.2827
1221.00 267.7504
1221.10 267.2106
1221.20 264.012
1221.30 259.6466
1221.40 255.4381
1221.50 251.4745
1221.60 247.7984
1221.70 244.277
1221.80 241.4612
1221.90 241.0998
1222.00 240.6916
1222.10 240.2623
1222.20 241.2858
1222.30 242.3721
1222.40 243.5173
1222.50 243.9816
1222.60 244.3348
1222.70 245.0558
1222.80 247.0819
1222.90 250.3127
1223.00 253.6628
1223.10 257.888
1223.20 264.2496
1223.30 270.2961
1223.40 276.1419
1223.50 280.4873
1223.60 284.5809
1223.70 288.4421
1223.80 288.7074
1223.90 288.1774
1224.00 287.632
1224.10 285.669
1224.20 282.733
1224.30 280.0242
1224.40 277.9428
1224.50 276.9766
1224.60 276.1829
1224.70 275.6818
1224.80 277.0492
1224.90 278.3765
1225.00 279.6749
1225.10 282.027
1225.20 284.3623
1225.30 286.4247
1225.40 287.0638
1225.50 286.9683
1225.60 286.8617
1225.70 285.7307
1225.80 283.2418
1225.90 281.1459
1226.00 279.2266
1226.10 277.8319
1226.20 276.6301
1226.30 275.5321
1226.40 277.5989
1226.50 279.6503
1226.60 281.4984
1226.70 283.8541
1226.80 286.32
1226.90 288.4327
1227.00 289.0427
1227.10 288.0886
1227.20 287.3349
1227.30 286.1387
1227.40 283.6529
1227.50 281.4421
1227.60 279.4326
1227.70 280.473
1227.80 281.486
1227.90 282.4692
1228.00 284.8768
1228.10 287.5773
1228.20 290.0883
1228.30 291.2361
1228.40 291.3082
1228.50 291.1425
1228.60 290.0493
1228.70 287.0729
1228.80 284.1397
1228.90 281.2221
1229.00 278.3425
1229.10 275.3841
1229.20 272.3611
1229.30 269.8325
1229.40 267.4609
1229.50 265.2663
1229.60 262.9105
1229.70 260.4945
1229.80 258.4253
1229.90 257.547
1230.00 258.4552
1230.10 259.6182
1230.20 261.4402
1230.30 266.26
1230.40 270.8585
1230.50 275.3212
1230.60 278.9545
1230.70 282.3628
1230.80 285.502
1230.90 285.5088
1231.00 284.243
1231.10 283.0121
1231.20 280.9375
1231.30 277.9115
1231.40 275.0181
1231.50 272.7508
1231.60 272.4292
1231.70 272.1261
1231.80 271.8319
1231.90 271.5958
1232.00 271.3448
1232.10 271.0765
1232.20 270.8545
1232.30 270.6552
1232.40 270.4884
1232.50 270.2954
1232.60 270.0809
1232.70 269.6884
1232.80 269.2897
1232.90 268.8776
1233.00 268.4995
1233.10 267.969
1233.20 265.5598
1233.30 263.3197
1233.40 261.2295
1233.50 260.4634
1233.60 259.9564
1233.70 259.5091
1233.80 260.4918
1233.90 262.3202
1234.00 263.7404
1234.10 264.959
1234.20 265.8623
1234.30 266.7639
1234.40 267.2592
1234.50 265.6227
1234.60 264.205
1234.70 262.9332
1234.80 263.1194
1234.90 263.4845
1235.00 263.9386
1235.10 266.1956
1235.20 269.1983
1235.30 271.8052
1235.40 273.3317
1235.50 273.5898
1235.60 273.7306
1235.70 273.1488
1235.80 270.1869
1235.90 267.3985
1236.00 264.6917
1236.10 263.8305
1236.20 263.183
1236.30 262.8073
1236.40 264.8493
1236.50 267.5635
1236.60 270.0898
1236.70 272.9602
1236.80 276.124
1236.90 278.7694
1237.00 280.1153
1237.10 278.5925
1237.20 276.9435
1237.30 275.08
1237.40 270.9248
1237.50 267.0546
1237.60 263.4474
1237.70 261.1492
1237.80 259.1882
1237.90 257.4421
1238.00 258.6019
1238.10 261.5915
1238.20 264.1406
1238.30 266.4953
1238.40 268.5326
1238.50 269.9925
1238.60 270.3847
1238.70 265.4451
1238.80 260.5315
1238.90 255.6362
1239.00 247.5529
1239.10 239.4348
1239.20 231.7477
1239.30 227.0368
1239.40 223.7214
1239.50 220.7968
1239.60 220.2603
1239.70 222.5273
1239.80 224.6531
1239.90 226.8754
1240.00 229.4736
1240.10 231.7305
1240.20 233.8195
1240.30 232.4221
1240.40 231.0871
1240.50 229.8316
1240.60 228.6121
1240.70 227.5101
1240.80 226.8089
1240.90 227.3433
1241.00 228.9735
1241.10 230.5419
1241.20 232.6796
1241.30 236.15
1241.40 239.141
1241.50 241.7234
1241.60 241.1164
1241.70 240.4603
1241.80 239.757
1241.90 236.6065
1242.00 233.0875
1242.10 229.8198
1242.20 226.6228
1242.30 223.4628
1242.40 220.1472
1242.50 217.5621
1242.60 216.1687
1242.70 214.238
1242.80 211.6595
1242.90 206.0786
1243.00 200.5339
1243.10 195.0145
1243.20 186.633
1243.30 178.3773
1243.40 170.7879
1243.50 165.6746
1243.60 161.7805
1243.70 158.6015
1243.80 159.5474
1243.90 165.3355
1244.00 171.0368
1244.10 177.5458
1244.20 186.7914
1244.30 195.7826
1244.40 204.6485
1244.50 211.6055
1244.60 218.5334
1244.70 225.4242
1244.80 230.752
1244.90 235.577
1245.00 240.2661
1245.10 244.4382
1245.20 248.1698
1245.30 251.6297
1245.40 254.5902
1245.50 256.4514
1245.60 258.1044
1245.70 259.516
1245.80 258.9484
1245.90 258.432
1246.00 257.9626
1246.10 255.3879
1246.20 252.5487
1246.30 249.9713
1246.40 248.6534
1246.50 248.1179
1246.60 247.7457
1246.70 248.6052
1246.80 251.3913
1246.90 253.9891
1247.00 256.642
1247.10 259.7873
1247.20 262.7475
1247.30 265.5844
1247.40 264.9479
1247.50 264.0329
1247.60 263.0885
1247.70 261.6655
1247.80 260.041
1247.90 258.4381
1248.00 256.958
1248.10 255.6164
1248.20 254.4313
1248.30 253.3506
1248.40 252.5513
1248.50 251.8415
1248.60 251.191
1248.70 251.3812
1248.80 251.538
1248.90 251.654
1249.00 252.4758
1249.10 253.4517
1249.20 254.3088
1249.30 254.6819
1249.40 254.6746
1249.50 254.6408
1249.60 254.2839
1249.70 253.2713
1249.80 252.4299
1249.90 251.6871
1250.00 251.3459
1250.10 250.9347
1250.20 250.4613
1250.30 250.8692
1250.40 251.3703
1250.50 251.7815
1250.60 251.2739
1250.70 250.2393
1250.80 249.0709
1250.90 247.6256
1251.00 245.7817
1251.10 243.9495
1251.20 241.9262
1251.30 239.0225
1251.40 235.8845
1251.50 232.5966
1251.60 229.0286
1251.70 225.2271
1251.80 221.0687
1251.90 213.0874
1252.00 203.6566
1252.10 194.4359
1252.20 184.0665
1252.30 172.5016
1252.40 162.2407
1252.50 154.1095
1252.60 151.4293
1252.70 149.5183
1252.80 148.4686
1252.90 159.7971
1253.00 171.0044
1253.10 182.0694
1253.20 195.2892
1253.30 208.8393
1253.40 221.8025
1253.50 231.1315
1253.60 237.8286
1253.70 244.3017
1253.80 249.6789
1253.90 253.0207
1254.00 256.1699
1254.10 259.1335
1254.20 261.1346
1254.30 263.0978
1254.40 265.03
1254.50 264.8669
1254.60 264.4395
1254.70 264.0008
1254.80 262.8048
1254.90 261.2546
1255.00 260.0695
1255.10 260.1234
1255.20 261.8196
1255.30 263.5083
1255.40 265.7541
1255.50 270.1
1255.60 274.3757
1255.70 278.6101
1255.80 280.8257
1255.90 282.8048
1256.00 284.4907
1256.10 284.523
1256.20 284.0094
1256.30 283.522
1256.40 281.734
1256.50 278.7454
1256.60 275.9808
1256.70 273.5906
1256.80 272.0822
1256.90 270.6508
1257.00 269.3373
1257.10 269.3776
1257.20 269.3615
1257.30 269.2866
1257.40 270.0544
1257.50 271.0283
1257.60 272.1318
1257.70 273.1069
1257.80 274.0043
1257.90 275.0403
1258.00 276.5016
1258.10 278.6569
1258.20 280.5629
1258.30 282.4451
1258.40 284.5455
1258.50 286.3666
1258.60 287.9771
1258.70 286.6603
1258.80 285.088
1258.90 283.514
1259.00 279.5892
1259.10 274.6974
1259.20 270.1334
1259.30 266.6849
1259.40 264.4946
1259.50 262.6734
1259.60 261.7508
1259.70 263.5295
1259.80 265.2788
1259.90 267.0246
1260.00 269.9393
1260.10 272.8323
1260.20 275.6967
1260.30 277.0531
1260.40 277.9971
1260.50 278.9928
1260.60 280.4262
1260.70 282.2036
1260.80 284.1153
1260.90 286.6712
1261.00 290.5264
1261.10 294.0305
1261.20 297.345
1261.30 300.063
1261.40 302.6067
1261.50 304.9897
1261.60 303.2963
1261.70 301.0164
1261.80 298.7916
1261.90 294.7556
1262.00 289.7288
1262.10 285.1405
1262.20 281.9489
1262.30 280.6862
1262.40 279.468
1262.50 278.8719
1262.60 280.8888
1262.70 282.7858
1262.80 284.6027
1262.90 284.937
1263.00 285.163
1263.10 285.3131
1263.20 284.5154
1263.30 283.3589
1263.40 282.155
1263.50 281.2007
1263.60 280.4862
1263.70 279.7322
1263.80 278.7734
1263.90 277.2966
1264.00 275.8068
1264.10 274.2667
1264.20 271.8794
1264.30 269.6402
1264.40 267.5678
1264.50 266.3241
1264.60 265.3292
1264.70 264.5466
1264.80 265.4251
1264.90 267.4099
1265.00 269.2873
1265.10 271.4257
1265.20 274.0084
1265.30 276.423
1265.40 278.7138
1265.50 280.5352
1265.60 282.3109
1265.70 284.0494
1265.80 283.9807
1265.90 283.7901
1266.00 283.6711
1266.10 283.1425
1266.20 282.4231
1266.30 281.642
1266.40 281.4658
1266.50 282
1266.60 282.696
1266.70 283.3735
1266.80 283.9075
1266.90 284.4763
1267.00 285.0788
1267.10 287.0779
1267.20 289.069
1267.30 291.0493
1267.40 292.4832
1267.50 293.7466
1267.60 294.9405
1267.70 296.0099
1267.80 296.9776
1267.90 297.7778
1268.00 297.5585
1268.10 295.2835
1268.20 292.9151
1268.30 290.5847
1268.40 288.9069
1268.50 287.2281
1268.60 285.5485
1268.70 285.5731
1268.80 285.9053
1268.90 286.3739
1269.00 287.8899
1269.10 289.9939
1269.20 292.0751
1269.30 293.1853
1269.40 292.9544
1269.50 292.6026
1269.60 291.8424
1269.70 289.4541
1269.80 287.0658
1269.90 284.6776
1270.00 282.4367
1270.10 280.2231
1270.20 278.0455
1270.30 276.8734
1270.40 276.1147
1270.50 275.7242
1270.60 276.1138
1270.70 277.253
1270.80 278.4674
1270.90 280.1557
1271.00 283.0457
1271.10 285.8496
1271.20 288.6171
1271.30 291.4228
1271.40 294.0323
1271.50 296.4115
1271.60 297.1774
1271.70 297.6276
1271.80 298.1239
1271.90 297.5515
1272.00 296.2966
1272.10 295.1204
1272.20 294.3245
1272.30 294.1494
1272.40 293.9291
1272.50 293.7382
1272.60 293.7866
1272.70 293.757
1272.80 293.6634
1272.90 293.5939
1273.00 293.5718
1273.10 293.6424
1273.20 293.2204
1273.30 292.5823
1273.40 291.9001
1273.50 290.9693
1273.60 289.758
1273.70 288.3863
1273.80 286.5861
1273.90 283.5662
1274.00 280.7249
1274.10 277.9935
1274.20 275.9399
1274.30 274.1146
1274.40 272.6043
1274.50 274.2449
1274.60 276.6872
1274.70 278.9869
1274.80 282.39
1274.90 286.6254
1275.00 290.3841
1275.10 293.0214
1275.20 293.5101
1275.30 294.124
1275.40 294.592
1275.50 293.6693
1275.60 292.9511
1275.70 292.4217
1275.80 293.5561
1275.90 294.8024
1276.00 295.8191
1276.10 297.5984
1276.20 299.7482
1276.30 301.5458
1276.40 301.6579
1276.50 299.6246
1276.60 297.6887
1276.70 295.8978
1276.80 294.5822
1276.90 293.5418
1277.00 292.6774
1277.10 294.0232
1277.20 295.347
1277.30 296.5611
1277.40 298.7587
1277.50 301.2309
1277.60 303.5141
1277.70 303.674
1277.80 301.951
1277.90 299.8958
1278.00 297.4991
1278.10 294.3982
1278.20 291.5615
1278.30 288.8034
1278.40 285.7092
1278.50 282.7224
1278.60 279.8519
1278.70 280.1127
1278.80 280.9649
1278.90 282.0621
1279.00 283.9905
1279.10 286.4018
1279.20 288.6405
1279.30 291.3639
1279.40 294.8144
1279.50 298.076
1279.60 300.7741
1279.70 301.1198
1279.80 301.3044
1279.90 301.3677
1280.00 300.8653
1280.10 300.3351
1280.20 299.8087
1280.30 298.1228
1280.40 296.0235
1280.50 294.0373
1280.60 291.9719
1280.70 289.8275
1280.80 287.8109
1280.90 285.8378
1281.00 283.9399
1281.10 282.0837
1281.20 280.3432
1281.30 280.4104
1281.40 280.4801
1281.50 280.5531
1281.60 281.0381
1281.70 281.5976
1281.80 282.122
1281.90 283.0476
1282.00 284.2407
1282.10 285.5553
1282.20 286.7432
1282.30 287.7224
1282.40 288.6464
1282.50 289.5397
1282.60 290.3524
1282.70 291.0615
1282.80 291.6821
1282.90 291.4794
1283.00 291.2135
1283.10 290.9654
1283.20 290.9498
1283.30 291.0347
1283.40 291.1292
1283.50 290.9915
1283.60 290.5918
1283.70 290.1881
1283.80 289.9033
1283.90 289.9768
1284.00 290.0237
1284.10 290.0552
1284.20 290.0597
1284.30 290.1666
1284.40 290.4208
1284.50 290.629
1284.60 290.835
1284.70 291.0813
1284.80 291.7027
1284.90 292.6069
1285.00 293.2905
1285.10 293.9373
1285.20 294.533
1285.30 294.8528
1285.40 294.6827
1285.50 291.6305
1285.60 288.5768
1285.70 285.5216
1285.80 281.5204
1285.90 277.5095
1286.00 273.7325
1286.10 271.2961
1286.20 269.5435
1286.30 268.1596
1286.40 268.2718
1286.50 270.2125
1286.60 272.338
1286.70 274.6672
1286.80 277.5844
1286.90 280.3558
1287.00 283.0341
1287.10 287.3305
1287.20 291.4299
1287.30 295.2078
1287.40 295.9865
1287.50 295.8189
1287.60 295.3857
1287.70 292.7767
1287.80 288.3876
1287.90 284.2613
1288.00 280.1851
1288.10 276.1737
1288.20 272.4188
1288.30 269.1883
1288.40 269.7333
1288.50 270.4113
1288.60 271.2335
1288.70 273.4482
1288.80 275.8372
1288.90 278.1297
1289.00 280.9779
1289.10 284.1214
1289.20 287.1403
1289.30 289.7183
1289.40 291.6873
1289.50 293.3973
1289.60 294.7228
1289.70 294.7526
1289.80 294.8079
1289.90 294.8817
1290.00 291.9348
1290.10 289.0031
1290.20 286.208
1290.30 284.4019
1290.40 282.9247
1290.50 281.4413
1290.60 280.5621
1290.70 280.2187
1290.80 279.8522
1290.90 279.9126
1291.00 280.9746
1291.10 281.9469
1291.20 282.8264
1291.30 283.1227
1291.40 283.4975
1291.50 283.9647
1291.60 283.9736
1291.70 283.9345
1291.80 284.0053
1291.90 284.1974
1292.00 284.4601
1292.10 284.6606
1292.20 285.505
1292.30 287.3154
1292.40 288.8444
1292.50 290.1507
1292.60 290.8042
1292.70 291.3665
1292.80 291.8573
1292.90 289.7522
1293.00 287.6938
1293.10 285.9496
1293.20 283.6355
1293.30 281.1221
1293.40 278.7018
1293.50 278.3316
1293.60 279.9311
1293.70 281.5244
1293.80 283.2578
1293.90 285.3536
1294.00 287.3048
1294.10 289.0991
1294.20 289.5984
1294.30 290.1564
1294.40 290.7891
1294.50 290.226
1294.60 289.4313
1294.70 288.6866
1294.80 289.5526
1294.90 291.4483
1295.00 293.0014
1295.10 294.0992
1295.20 294.4904
1295.30 294.6693
1295.40 294.3182
1295.50 291.5363
1295.60 288.8787
1295.70 286.327
1295.80 282.0041
1295.90 277.7009
1296.00 273.6933
1296.10 272.5699
1296.20 272.6184
1296.30 272.6056
1296.40 273.5018
1296.50 275.344
1296.60 277.1272
1296.70 278.856
1296.80 280.4637
1296.90 282.0623
1297.00 283.5802
1297.10 283.2805
1297.20 282.9937
1297.30 282.7247
1297.40 283.2104
1297.50 283.8419
1297.60 284.3881
1297.70 284.789
1297.80 285.0888
1297.90 285.5308
1298.00 285.9409
1298.10 286.289
1298.20 286.7907
1298.30 287.3654
1298.40 288.0485
1298.50 288.6718
1298.60 289.2398
1298.70 292.2136
1298.80 295.2971
1298.90 298.137
1299.00 300.0446
1299.10 301.5402
1299.20 302.8714
1299.30 303.4844
1299.40 303.2875
1299.50 303.1269
1299.60 302.2553
1299.70 299.2313
1299.80 296.299
1299.90 293.4188
