# Version 2.1 - nm, norm@500 to 1, cut digits
# Wavelength(nm)  Flambda(ergs/cm^s/s/nm)
300.00 1.405653e-95
300.10 1.405653e-95
300.20 1.405653e-95
300.30 1.405653e-95
300.40 1.405653e-95
300.50 1.405653e-95
300.60 1.405653e-95
300.70 1.405653e-95
300.80 1.405653e-95
300.90 1.405653e-95
301.00 1.405653e-95
301.10 1.405653e-95
301.20 1.405653e-95
301.30 1.405653e-95
301.40 1.405653e-95
301.50 1.405653e-95
301.60 1.405653e-95
301.70 1.405653e-95
301.80 1.405653e-95
301.90 1.405653e-95
302.00 1.405653e-95
302.10 1.405653e-95
302.20 1.405653e-95
302.30 1.405653e-95
302.40 1.405653e-95
302.50 1.405653e-95
302.60 1.405653e-95
302.70 1.405653e-95
302.80 1.405653e-95
302.90 1.405653e-95
303.00 1.405653e-95
303.10 1.405653e-95
303.20 1.405653e-95
303.30 1.405653e-95
303.40 1.405653e-95
303.50 1.405653e-95
303.60 1.405653e-95
303.70 1.405653e-95
303.80 1.405653e-95
303.90 1.405653e-95
304.00 1.405653e-95
304.10 1.405653e-95
304.20 1.405653e-95
304.30 1.405653e-95
304.40 1.405653e-95
304.50 1.405653e-95
304.60 1.405653e-95
304.70 1.405653e-95
304.80 1.405653e-95
304.90 1.405653e-95
305.00 1.405653e-95
305.10 1.405653e-95
305.20 1.405653e-95
305.30 1.405653e-95
305.40 1.405653e-95
305.50 1.405653e-95
305.60 1.405653e-95
305.70 1.405653e-95
305.80 1.405653e-95
305.90 1.405653e-95
306.00 1.405653e-95
306.10 1.405653e-95
306.20 1.405653e-95
306.30 1.405653e-95
306.40 1.405653e-95
306.50 1.405653e-95
306.60 1.405653e-95
306.70 1.405653e-95
306.80 1.405653e-95
306.90 1.405653e-95
307.00 1.405653e-95
307.10 1.405653e-95
307.20 1.405653e-95
307.30 1.405653e-95
307.40 1.405653e-95
307.50 1.405653e-95
307.60 1.405653e-95
307.70 1.405653e-95
307.80 1.405653e-95
307.90 1.405653e-95
308.00 1.405653e-95
308.10 1.405653e-95
308.20 1.405653e-95
308.30 1.405653e-95
308.40 1.405653e-95
308.50 1.405653e-95
308.60 1.405653e-95
308.70 1.405653e-95
308.80 1.405653e-95
308.90 1.405653e-95
309.00 1.405653e-95
309.10 1.405653e-95
309.20 1.405653e-95
309.30 1.405653e-95
309.40 1.405653e-95
309.50 1.405653e-95
309.60 1.405653e-95
309.70 1.405653e-95
309.80 1.405653e-95
309.90 1.405653e-95
310.00 1.405653e-95
310.10 1.405653e-95
310.20 1.405653e-95
310.30 1.405653e-95
310.40 1.405653e-95
310.50 1.405653e-95
310.60 1.405653e-95
310.70 1.405653e-95
310.80 1.405653e-95
310.90 1.405653e-95
311.00 1.405653e-95
311.10 1.405653e-95
311.20 1.405653e-95
311.30 1.405653e-95
311.40 1.405653e-95
311.50 1.405653e-95
311.60 1.405653e-95
311.70 1.405653e-95
311.80 1.405653e-95
311.90 1.405653e-95
312.00 1.405653e-95
312.10 1.405653e-95
312.20 1.405653e-95
312.30 1.405653e-95
312.40 1.405653e-95
312.50 1.405653e-95
312.60 1.405653e-95
312.70 1.405653e-95
312.80 1.405653e-95
312.90 1.405653e-95
313.00 1.405653e-95
313.10 1.405653e-95
313.20 1.405653e-95
313.30 1.405653e-95
313.40 1.405653e-95
313.50 1.405653e-95
313.60 1.405653e-95
313.70 1.405653e-95
313.80 1.405653e-95
313.90 1.405653e-95
314.00 1.405653e-95
314.10 1.405653e-95
314.20 1.405653e-95
314.30 1.405653e-95
314.40 1.405653e-95
314.50 1.405653e-95
314.60 1.405653e-95
314.70 1.405653e-95
314.80 1.405653e-95
314.90 1.405653e-95
315.00 1.405653e-95
315.10 1.405653e-95
315.20 1.405653e-95
315.30 1.405653e-95
315.40 1.405653e-95
315.50 1.405653e-95
315.60 1.405653e-95
315.70 1.405653e-95
315.80 1.405653e-95
315.90 1.405653e-95
316.00 1.405653e-95
316.10 1.405653e-95
316.20 1.405653e-95
316.30 1.405653e-95
316.40 1.405653e-95
316.50 1.405653e-95
316.60 1.405653e-95
316.70 1.405653e-95
316.80 1.405653e-95
316.90 1.405653e-95
317.00 1.405653e-95
317.10 1.405653e-95
317.20 1.405653e-95
317.30 1.405653e-95
317.40 1.405653e-95
317.50 1.405653e-95
317.60 1.405653e-95
317.70 1.405653e-95
317.80 1.405653e-95
317.90 1.405653e-95
318.00 1.405653e-95
318.10 1.405653e-95
318.20 1.405653e-95
318.30 1.405653e-95
318.40 1.405653e-95
318.50 1.405653e-95
318.60 1.405653e-95
318.70 1.405653e-95
318.80 1.405653e-95
318.90 1.405653e-95
319.00 1.405653e-95
319.10 1.405653e-95
319.20 1.405653e-95
319.30 1.405653e-95
319.40 1.405653e-95
319.50 1.405653e-95
319.60 1.405653e-95
319.70 1.405653e-95
319.80 1.405653e-95
319.90 1.405653e-95
320.00 1.405653e-95
320.10 1.405653e-95
320.20 1.405653e-95
320.30 1.405653e-95
320.40 1.405653e-95
320.50 1.405653e-95
320.60 1.405653e-95
320.70 1.405653e-95
320.80 1.405653e-95
320.90 1.405653e-95
321.00 1.405653e-95
321.10 1.405653e-95
321.20 1.405653e-95
321.30 1.405653e-95
321.40 1.405653e-95
321.50 1.405653e-95
321.60 1.405653e-95
321.70 1.405653e-95
321.80 1.405653e-95
321.90 1.405653e-95
322.00 1.405653e-95
322.10 1.405653e-95
322.20 1.405653e-95
322.30 1.405653e-95
322.40 1.405653e-95
322.50 1.405653e-95
322.60 1.405653e-95
322.70 1.405653e-95
322.80 1.405653e-95
322.90 1.405653e-95
323.00 1.405653e-95
323.10 1.405653e-95
323.20 1.405653e-95
323.30 1.405653e-95
323.40 1.405653e-95
323.50 1.405653e-95
323.60 1.405653e-95
323.70 1.405653e-95
323.80 1.405653e-95
323.90 1.405653e-95
324.00 1.405653e-95
324.10 1.405653e-95
324.20 1.405653e-95
324.30 1.405653e-95
324.40 1.405653e-95
324.50 1.405653e-95
324.60 1.405653e-95
324.70 1.405653e-95
324.80 1.405653e-95
324.90 1.405653e-95
325.00 1.405653e-95
325.10 1.405653e-95
325.20 1.405653e-95
325.30 1.405653e-95
325.40 1.405653e-95
325.50 1.405653e-95
325.60 1.405653e-95
325.70 1.405653e-95
325.80 1.405653e-95
325.90 1.405653e-95
326.00 1.405653e-95
326.10 1.405653e-95
326.20 1.405653e-95
326.30 1.405653e-95
326.40 1.405653e-95
326.50 1.405653e-95
326.60 1.405653e-95
326.70 1.405653e-95
326.80 1.405653e-95
326.90 1.405653e-95
327.00 1.405653e-95
327.10 1.405653e-95
327.20 1.405653e-95
327.30 1.405653e-95
327.40 1.405653e-95
327.50 1.405653e-95
327.60 1.405653e-95
327.70 1.405653e-95
327.80 1.405653e-95
327.90 1.405653e-95
328.00 1.405653e-95
328.10 1.405653e-95
328.20 1.405653e-95
328.30 1.405653e-95
328.40 1.405653e-95
328.50 1.405653e-95
328.60 1.405653e-95
328.70 1.405653e-95
328.80 1.405653e-95
328.90 1.405653e-95
329.00 1.405653e-95
329.10 1.405653e-95
329.20 1.405653e-95
329.30 1.405653e-95
329.40 1.405653e-95
329.50 1.405653e-95
329.60 1.405653e-95
329.70 1.405653e-95
329.80 1.405653e-95
329.90 1.405653e-95
330.00 1.405653e-95
330.10 1.405653e-95
330.20 1.405653e-95
330.30 1.405653e-95
330.40 1.405653e-95
330.50 1.405653e-95
330.60 1.405653e-95
330.70 1.405653e-95
330.80 1.405653e-95
330.90 1.405653e-95
331.00 1.405653e-95
331.10 1.405653e-95
331.20 1.405653e-95
331.30 1.405653e-95
331.40 1.405653e-95
331.50 1.405653e-95
331.60 1.405653e-95
331.70 1.405653e-95
331.80 1.405653e-95
331.90 1.405653e-95
332.00 1.405653e-95
332.10 1.405653e-95
332.20 1.405653e-95
332.30 1.405653e-95
332.40 1.405653e-95
332.50 1.405653e-95
332.60 1.405653e-95
332.70 1.405653e-95
332.80 1.405653e-95
332.90 1.405653e-95
333.00 1.405653e-95
333.10 1.405653e-95
333.20 1.405653e-95
333.30 1.405653e-95
333.40 1.405653e-95
333.50 1.405653e-95
333.60 1.405653e-95
333.70 1.405653e-95
333.80 1.405653e-95
333.90 1.405653e-95
334.00 1.405653e-95
334.10 1.405653e-95
334.20 1.405653e-95
334.30 1.405653e-95
334.40 1.405653e-95
334.50 1.405653e-95
334.60 1.405653e-95
334.70 1.405653e-95
334.80 1.405653e-95
334.90 1.405653e-95
335.00 1.405653e-95
335.10 1.405653e-95
335.20 1.405653e-95
335.30 1.405653e-95
335.40 1.405653e-95
335.50 1.405653e-95
335.60 1.405653e-95
335.70 1.405653e-95
335.80 1.405653e-95
335.90 1.405653e-95
336.00 1.405653e-95
336.10 1.405653e-95
336.20 1.405653e-95
336.30 1.405653e-95
336.40 1.405653e-95
336.50 1.405653e-95
336.60 1.405653e-95
336.70 1.405653e-95
336.80 1.405653e-95
336.90 1.405653e-95
337.00 1.405653e-95
337.10 1.405653e-95
337.20 1.405653e-95
337.30 1.405653e-95
337.40 1.405653e-95
337.50 1.405653e-95
337.60 1.405653e-95
337.70 1.405653e-95
337.80 1.405653e-95
337.90 1.405653e-95
338.00 1.405653e-95
338.10 1.405653e-95
338.20 1.405653e-95
338.30 1.405653e-95
338.40 1.405653e-95
338.50 1.405653e-95
338.60 1.405653e-95
338.70 1.405653e-95
338.80 1.405653e-95
338.90 1.405653e-95
339.00 1.405653e-95
339.10 1.405653e-95
339.20 1.405653e-95
339.30 1.405653e-95
339.40 1.405653e-95
339.50 1.405653e-95
339.60 1.405653e-95
339.70 1.405653e-95
339.80 1.405653e-95
339.90 1.405653e-95
340.00 1.405653e-95
340.10 1.405653e-95
340.20 1.405653e-95
340.30 1.405653e-95
340.40 1.405653e-95
340.50 1.405653e-95
340.60 1.405653e-95
340.70 1.405653e-95
340.80 1.405653e-95
340.90 1.405653e-95
341.00 1.405653e-95
341.10 1.405653e-95
341.20 1.405653e-95
341.30 1.405653e-95
341.40 1.405653e-95
341.50 1.405653e-95
341.60 1.405653e-95
341.70 1.405653e-95
341.80 1.405653e-95
341.90 1.405653e-95
342.00 1.405653e-95
342.10 1.405653e-95
342.20 1.405653e-95
342.30 1.405653e-95
342.40 1.405653e-95
342.50 1.405653e-95
342.60 1.405653e-95
342.70 1.405653e-95
342.80 1.405653e-95
342.90 1.405653e-95
343.00 1.405653e-95
343.10 1.405653e-95
343.20 1.405653e-95
343.30 1.405653e-95
343.40 1.405653e-95
343.50 1.405653e-95
343.60 1.405653e-95
343.70 1.405653e-95
343.80 1.405653e-95
343.90 1.405653e-95
344.00 1.405653e-95
344.10 1.405653e-95
344.20 1.405653e-95
344.30 1.405653e-95
344.40 1.405653e-95
344.50 1.405653e-95
344.60 1.405653e-95
344.70 1.405653e-95
344.80 1.405653e-95
344.90 1.405653e-95
345.00 1.405653e-95
345.10 1.405653e-95
345.20 1.405653e-95
345.30 1.405653e-95
345.40 1.405653e-95
345.50 1.405653e-95
345.60 1.405653e-95
345.70 1.405653e-95
345.80 1.405653e-95
345.90 1.405653e-95
346.00 1.405653e-95
346.10 1.405653e-95
346.20 1.405653e-95
346.30 1.405653e-95
346.40 1.405653e-95
346.50 1.405653e-95
346.60 1.405653e-95
346.70 1.405653e-95
346.80 1.405653e-95
346.90 1.405653e-95
347.00 1.405653e-95
347.10 1.405653e-95
347.20 1.405653e-95
347.30 1.405653e-95
347.40 1.405653e-95
347.50 1.405653e-95
347.60 1.405653e-95
347.70 1.405653e-95
347.80 1.405653e-95
347.90 1.405653e-95
348.00 1.405653e-95
348.10 1.405653e-95
348.20 1.405653e-95
348.30 1.405653e-95
348.40 1.405653e-95
348.50 1.405653e-95
348.60 1.405653e-95
348.70 1.405653e-95
348.80 1.405653e-95
348.90 1.405653e-95
349.00 1.405653e-95
349.10 1.405653e-95
349.20 1.405653e-95
349.30 1.405653e-95
349.40 1.405653e-95
349.50 1.405653e-95
349.60 1.405653e-95
349.70 1.405653e-95
349.80 1.405653e-95
349.90 1.405653e-95
350.00 1.405653e-95
350.10 1.405653e-95
350.20 1.405653e-95
350.30 1.405653e-95
350.40 1.405653e-95
350.50 1.405653e-95
350.60 1.405653e-95
350.70 1.405653e-95
350.80 1.405653e-95
350.90 1.405653e-95
351.00 1.405653e-95
351.10 1.405653e-95
351.20 1.405653e-95
351.30 1.405653e-95
351.40 1.405653e-95
351.50 1.405653e-95
351.60 1.405653e-95
351.70 1.405653e-95
351.80 1.405653e-95
351.90 1.405653e-95
352.00 1.405653e-95
352.10 1.405653e-95
352.20 1.405653e-95
352.30 1.405653e-95
352.40 1.405653e-95
352.50 1.405653e-95
352.60 1.405653e-95
352.70 1.405653e-95
352.80 1.405653e-95
352.90 1.405653e-95
353.00 1.405653e-95
353.10 1.405653e-95
353.20 1.405653e-95
353.30 1.405653e-95
353.40 1.405653e-95
353.50 1.405653e-95
353.60 1.405653e-95
353.70 1.405653e-95
353.80 1.405653e-95
353.90 1.405653e-95
354.00 1.405653e-95
354.10 1.405653e-95
354.20 1.405653e-95
354.30 1.405653e-95
354.40 1.405653e-95
354.50 1.405653e-95
354.60 1.405653e-95
354.70 1.405653e-95
354.80 1.405653e-95
354.90 1.405653e-95
355.00 1.405653e-95
355.10 1.405653e-95
355.20 1.405653e-95
355.30 1.405653e-95
355.40 1.405653e-95
355.50 1.405653e-95
355.60 1.405653e-95
355.70 1.405653e-95
355.80 1.405653e-95
355.90 1.405653e-95
356.00 1.405653e-95
356.10 1.405653e-95
356.20 1.405653e-95
356.30 1.405653e-95
356.40 1.405653e-95
356.50 1.405653e-95
356.60 1.405653e-95
356.70 1.405653e-95
356.80 1.405653e-95
356.90 1.405653e-95
357.00 1.405653e-95
357.10 1.405653e-95
357.20 1.405653e-95
357.30 1.405653e-95
357.40 1.405653e-95
357.50 1.405653e-95
357.60 1.405653e-95
357.70 1.405653e-95
357.80 1.405653e-95
357.90 1.405653e-95
358.00 1.405653e-95
358.10 1.405653e-95
358.20 1.405653e-95
358.30 1.405653e-95
358.40 1.405653e-95
358.50 1.405653e-95
358.60 1.405653e-95
358.70 1.405653e-95
358.80 1.405653e-95
358.90 1.405653e-95
359.00 1.405653e-95
359.10 1.405653e-95
359.20 1.405653e-95
359.30 1.405653e-95
359.40 1.405653e-95
359.50 1.405653e-95
359.60 1.405653e-95
359.70 1.405653e-95
359.80 1.405653e-95
359.90 1.405653e-95
360.00 1.405653e-95
360.10 1.405653e-95
360.20 1.405653e-95
360.30 1.405653e-95
360.40 1.405653e-95
360.50 1.405653e-95
360.60 1.405653e-95
360.70 1.405653e-95
360.80 1.405653e-95
360.90 1.405653e-95
361.00 1.405653e-95
361.10 1.405653e-95
361.20 1.405653e-95
361.30 1.405653e-95
361.40 1.405653e-95
361.50 1.405653e-95
361.60 1.405653e-95
361.70 1.405653e-95
361.80 1.405653e-95
361.90 1.405653e-95
362.00 1.405653e-95
362.10 1.405653e-95
362.20 1.405653e-95
362.30 1.405653e-95
362.40 1.405653e-95
362.50 1.405653e-95
362.60 1.405653e-95
362.70 1.405653e-95
362.80 1.405653e-95
362.90 1.405653e-95
363.00 1.405653e-95
363.10 1.405653e-95
363.20 1.405653e-95
363.30 1.405653e-95
363.40 1.405653e-95
363.50 1.405653e-95
363.60 1.405653e-95
363.70 1.405653e-95
363.80 1.405653e-95
363.90 1.405653e-95
364.00 1.405653e-95
364.10 1.405653e-95
364.20 1.405653e-95
364.30 1.405653e-95
364.40 1.405653e-95
364.50 1.405653e-95
364.60 1.405653e-95
364.70 1.405653e-95
364.80 1.405653e-95
364.90 1.405653e-95
365.00 1.405653e-95
365.10 1.405653e-95
365.20 1.405653e-95
365.30 1.405653e-95
365.40 1.405653e-95
365.50 1.405653e-95
365.60 1.405653e-95
365.70 1.405653e-95
365.80 1.405653e-95
365.90 1.405653e-95
366.00 1.405653e-95
366.10 1.405653e-95
366.20 1.405653e-95
366.30 1.405653e-95
366.40 1.405653e-95
366.50 1.405653e-95
366.60 1.405653e-95
366.70 1.405653e-95
366.80 1.405653e-95
366.90 1.405653e-95
367.00 1.405653e-95
367.10 1.405653e-95
367.20 1.405653e-95
367.30 1.405653e-95
367.40 1.405653e-95
367.50 1.405653e-95
367.60 1.405653e-95
367.70 1.405653e-95
367.80 1.405653e-95
367.90 1.405653e-95
368.00 1.405653e-95
368.10 1.405653e-95
368.20 1.405653e-95
368.30 1.405653e-95
368.40 1.405653e-95
368.50 1.405653e-95
368.60 1.405653e-95
368.70 1.405653e-95
368.80 1.405653e-95
368.90 1.405653e-95
369.00 1.405653e-95
369.10 1.405653e-95
369.20 1.405653e-95
369.30 1.405653e-95
369.40 1.405653e-95
369.50 1.405653e-95
369.60 1.405653e-95
369.70 1.405653e-95
369.80 1.405653e-95
369.90 1.405653e-95
370.00 1.405653e-95
370.10 1.405653e-95
370.20 1.405653e-95
370.30 1.405653e-95
370.40 1.405653e-95
370.50 1.405653e-95
370.60 1.405653e-95
370.70 1.405653e-95
370.80 1.405653e-95
370.90 1.405653e-95
371.00 1.405653e-95
371.10 1.405653e-95
371.20 1.405653e-95
371.30 1.405653e-95
371.40 1.405653e-95
371.50 1.405653e-95
371.60 1.405653e-95
371.70 1.405653e-95
371.80 1.405653e-95
371.90 1.405653e-95
372.00 1.405653e-95
372.10 1.405653e-95
372.20 1.405653e-95
372.30 1.405653e-95
372.40 1.405653e-95
372.50 1.405653e-95
372.60 1.405653e-95
372.70 1.405653e-95
372.80 1.405653e-95
372.90 1.405653e-95
373.00 1.405653e-95
373.10 1.405653e-95
373.20 1.405653e-95
373.30 1.405653e-95
373.40 1.405653e-95
373.50 1.405653e-95
373.60 1.405653e-95
373.70 1.405653e-95
373.80 1.405653e-95
373.90 1.405653e-95
374.00 1.405653e-95
374.10 1.405653e-95
374.20 1.405653e-95
374.30 1.405653e-95
374.40 1.405653e-95
374.50 1.405653e-95
374.60 1.405653e-95
374.70 1.405653e-95
374.80 1.405653e-95
374.90 1.405653e-95
375.00 1.405653e-95
375.10 1.405653e-95
375.20 1.405653e-95
375.30 1.405653e-95
375.40 1.405653e-95
375.50 1.405653e-95
375.60 1.405653e-95
375.70 1.405653e-95
375.80 1.405653e-95
375.90 1.405653e-95
376.00 1.405653e-95
376.10 1.405653e-95
376.20 1.405653e-95
376.30 1.405653e-95
376.40 1.405653e-95
376.50 1.405653e-95
376.60 1.405653e-95
376.70 1.405653e-95
376.80 1.405653e-95
376.90 1.405653e-95
377.00 1.405653e-95
377.10 1.405653e-95
377.20 1.405653e-95
377.30 1.405653e-95
377.40 1.405653e-95
377.50 1.405653e-95
377.60 1.405653e-95
377.70 1.405653e-95
377.80 1.405653e-95
377.90 1.405653e-95
378.00 1.405653e-95
378.10 1.405653e-95
378.20 1.405653e-95
378.30 1.405653e-95
378.40 1.405653e-95
378.50 1.405653e-95
378.60 1.405653e-95
378.70 1.405653e-95
378.80 1.405653e-95
378.90 1.405653e-95
379.00 1.405653e-95
379.10 1.405653e-95
379.20 1.405653e-95
379.30 1.405653e-95
379.40 1.405653e-95
379.50 1.405653e-95
379.60 1.405653e-95
379.70 1.405653e-95
379.80 1.405653e-95
379.90 1.405653e-95
380.00 1.405653e-95
380.10 1.405653e-95
380.20 1.405653e-95
380.30 1.405653e-95
380.40 1.405653e-95
380.50 1.405653e-95
380.60 1.405653e-95
380.70 1.405653e-95
380.80 1.405653e-95
380.90 1.405653e-95
381.00 1.405653e-95
381.10 1.405653e-95
381.20 1.405653e-95
381.30 1.405653e-95
381.40 1.405653e-95
381.50 1.405653e-95
381.60 1.405653e-95
381.70 1.405653e-95
381.80 1.405653e-95
381.90 1.405653e-95
382.00 1.405653e-95
382.10 1.405653e-95
382.20 1.405653e-95
382.30 1.405653e-95
382.40 1.405653e-95
382.50 1.405653e-95
382.60 1.405653e-95
382.70 1.405653e-95
382.80 1.405653e-95
382.90 1.405653e-95
383.00 1.405653e-95
383.10 1.405653e-95
383.20 1.405653e-95
383.30 1.405653e-95
383.40 1.405653e-95
383.50 1.405653e-95
383.60 1.405653e-95
383.70 1.405653e-95
383.80 1.405653e-95
383.90 1.405653e-95
384.00 1.405653e-95
384.10 1.405653e-95
384.20 1.405653e-95
384.30 1.405653e-95
384.40 1.405653e-95
384.50 1.405653e-95
384.60 1.405653e-95
384.70 1.405653e-95
384.80 1.405653e-95
384.90 1.405653e-95
385.00 1.405653e-95
385.10 1.405653e-95
385.20 1.405653e-95
385.30 1.405653e-95
385.40 1.405653e-95
385.50 1.405653e-95
385.60 1.405653e-95
385.70 1.405653e-95
385.80 1.405653e-95
385.90 1.405653e-95
386.00 1.405653e-95
386.10 1.405653e-95
386.20 1.405653e-95
386.30 1.405653e-95
386.40 1.405653e-95
386.50 1.405653e-95
386.60 1.405653e-95
386.70 1.405653e-95
386.80 1.405653e-95
386.90 1.405653e-95
387.00 1.405653e-95
387.10 1.405653e-95
387.20 1.405653e-95
387.30 1.405653e-95
387.40 1.405653e-95
387.50 1.405653e-95
387.60 1.405653e-95
387.70 1.405653e-95
387.80 1.405653e-95
387.90 1.405653e-95
388.00 1.405653e-95
388.10 1.405653e-95
388.20 1.405653e-95
388.30 1.405653e-95
388.40 1.405653e-95
388.50 1.405653e-95
388.60 1.405653e-95
388.70 1.405653e-95
388.80 1.405653e-95
388.90 1.405653e-95
389.00 1.405653e-95
389.10 1.405653e-95
389.20 1.405653e-95
389.30 1.405653e-95
389.40 1.405653e-95
389.50 1.405653e-95
389.60 1.405653e-95
389.70 1.405653e-95
389.80 1.405653e-95
389.90 1.405653e-95
390.00 1.405653e-95
390.10 1.405653e-95
390.20 1.405653e-95
390.30 1.405653e-95
390.40 1.405653e-95
390.50 1.405653e-95
390.60 1.405653e-95
390.70 1.405653e-95
390.80 1.405653e-95
390.90 1.405653e-95
391.00 1.405653e-95
391.10 1.405653e-95
391.20 1.405653e-95
391.30 1.405653e-95
391.40 1.405653e-95
391.50 1.405653e-95
391.60 1.405653e-95
391.70 1.405653e-95
391.80 1.405653e-95
391.90 1.405653e-95
392.00 1.405653e-95
392.10 1.405653e-95
392.20 1.405653e-95
392.30 1.405653e-95
392.40 1.405653e-95
392.50 1.405653e-95
392.60 1.405653e-95
392.70 1.405653e-95
392.80 1.405653e-95
392.90 1.405653e-95
393.00 1.405653e-95
393.10 1.405653e-95
393.20 1.405653e-95
393.30 1.405653e-95
393.40 1.405653e-95
393.50 1.405653e-95
393.60 1.405653e-95
393.70 1.405653e-95
393.80 1.405653e-95
393.90 1.405653e-95
394.00 1.405653e-95
394.10 1.405653e-95
394.20 1.405653e-95
394.30 1.405653e-95
394.40 1.405653e-95
394.50 1.405653e-95
394.60 1.405653e-95
394.70 1.405653e-95
394.80 1.405653e-95
394.90 1.405653e-95
395.00 0.006459134
395.10 0.0124503
395.20 0.01806223
395.30 0.02341847
395.40 0.02888314
395.50 0.0349135
395.60 0.04180377
395.70 0.04959373
395.80 0.05803008
395.90 0.06677152
396.00 0.07547627
396.10 0.08370331
396.20 0.09105858
396.30 0.09729065
396.40 0.1023383
396.50 0.1063712
396.60 0.109664
396.70 0.1126058
396.80 0.1156107
396.90 0.1189422
397.00 0.1227184
397.10 0.1269994
397.20 0.1318346
397.30 0.1370919
397.40 0.1425203
397.50 0.1479644
397.60 0.1533962
397.70 0.1588867
397.80 0.1644729
397.90 0.1701542
398.00 0.1760236
398.10 0.182155
398.20 0.1884794
398.30 0.194892
398.40 0.2013367
398.50 0.2078055
398.60 0.2143258
398.70 0.2209561
398.80 0.2277976
398.90 0.2349589
399.00 0.2423898
399.10 0.2498838
399.20 0.2571983
399.30 0.2640959
399.40 0.2703963
399.50 0.2761222
399.60 0.2814827
399.70 0.2867261
399.80 0.2921247
399.90 0.2979232
400.00 0.3042129
400.10 0.3109655
400.20 0.3180512
400.30 0.3252906
400.40 0.3325724
400.50 0.3398069
400.60 0.3468907
400.70 0.3536815
400.80 0.3599386
400.90 0.3653197
401.00 0.3695907
401.10 0.3727491
401.20 0.3749519
401.30 0.3764646
401.40 0.3776087
401.50 0.3786266
401.60 0.3796523
401.70 0.3808359
401.80 0.3823928
401.90 0.3845149
402.00 0.3872697
402.10 0.3905948
402.20 0.3943876
402.30 0.3985242
402.40 0.4027438
402.50 0.4066798
402.60 0.4099484
402.70 0.4122773
402.80 0.4137654
402.90 0.4149259
403.00 0.4164026
403.10 0.41854
403.20 0.4212627
403.30 0.424336
403.40 0.4275474
403.50 0.4308374
403.60 0.434218
403.70 0.4376588
403.80 0.4412199
403.90 0.4451351
404.00 0.4497767
404.10 0.4555199
404.20 0.4625342
404.30 0.4706302
404.40 0.4792803
404.50 0.4879
404.60 0.4960368
404.70 0.5033402
404.80 0.5096149
404.90 0.5147839
405.00 0.5124623
405.10 0.5098559
405.20 0.5072335
405.30 0.5047927
405.40 0.5023824
405.50 0.4995961
405.60 0.496054
405.70 0.4916444
405.80 0.4867055
405.90 0.4817755
406.00 0.4773413
406.10 0.4739197
406.20 0.4720048
406.30 0.4719892
406.40 0.4739153
406.50 0.47741
406.60 0.4819326
406.70 0.4867831
406.80 0.4913226
406.90 0.4951516
407.00 0.4980126
407.10 0.4997937
407.20 0.5005355
407.30 0.5005835
407.40 0.5004813
407.50 0.5006849
407.60 0.5013277
407.70 0.5020342
407.80 0.5023291
407.90 0.5018795
408.00 0.5004358
408.10 0.4981113
408.20 0.4953378
408.30 0.4926583
408.40 0.4905844
408.50 0.4893672
408.60 0.4889479
408.70 0.4889375
408.80 0.4887514
408.90 0.4877581
409.00 0.4855534
409.10 0.4822093
409.20 0.4781145
409.30 0.4738771
409.40 0.4701859
409.50 0.4674201
409.60 0.4656268
409.70 0.4647205
409.80 0.4645007
409.90 0.4646906
410.00 0.4650551
410.10 0.4654401
410.20 0.4657661
410.30 0.4660282
410.40 0.4662892
410.50 0.4666617
410.60 0.4673139
410.70 0.4684628
410.80 0.4703071
410.90 0.4729549
411.00 0.4762305
411.10 0.4796591
411.20 0.4828292
411.30 0.4856276
411.40 0.4881977
411.50 0.4908958
411.60 0.4941995
411.70 0.4984739
411.80 0.5037075
411.90 0.5095441
412.00 0.5155044
412.10 0.5211033
412.20 0.5258951
412.30 0.5296871
412.40 0.5328187
412.50 0.5360151
412.60 0.5400435
412.70 0.5455546
412.80 0.552813
412.90 0.5615098
413.00 0.5709029
413.10 0.5802299
413.20 0.5889667
413.30 0.59676
413.40 0.6033553
413.50 0.6084674
413.60 0.6119279
413.70 0.6138338
413.80 0.6143909
413.90 0.6138573
414.00 0.6124465
414.10 0.6101422
414.20 0.6068433
414.30 0.60265
414.40 0.5979358
414.50 0.5931587
414.60 0.5886724
414.70 0.5847521
414.80 0.5816223
414.90 0.5795228
415.00 0.5786469
415.10 0.5790358
415.20 0.580661
415.30 0.583426
415.40 0.5871252
415.50 0.5915757
415.60 0.5966442
415.70 0.6021128
415.80 0.6076072
415.90 0.612635
416.00 0.6168485
416.10 0.6200643
416.20 0.6220161
416.30 0.6224735
416.40 0.6214653
416.50 0.6192106
416.60 0.6160591
416.70 0.6125042
416.80 0.6090495
416.90 0.6062516
417.00 0.604823
417.10 0.6053332
417.20 0.6079544
417.30 0.6124693
417.40 0.6182982
417.50 0.6246252
417.60 0.6307369
417.70 0.6363135
417.80 0.6413433
417.90 0.6459581
418.00 0.6502401
418.10 0.6540621
418.20 0.6573351
418.30 0.6600757
418.40 0.6622948
418.50 0.6640899
418.60 0.6656527
418.70 0.6672463
418.80 0.669156
418.90 0.6717692
419.00 0.675457
419.10 0.6801394
419.20 0.6853299
419.30 0.6903216
419.40 0.6944462
419.50 0.6973843
419.60 0.6990682
419.70 0.6994611
419.80 0.698544
419.90 0.696423
420.00 0.6933423
420.10 0.6896629
420.20 0.6857193
420.30 0.6815797
420.40 0.6772027
420.50 0.6727367
420.60 0.6683988
420.70 0.6644608
420.80 0.661266
420.90 0.6591697
421.00 0.6585734
421.10 0.6597689
421.20 0.6626479
421.30 0.6667015
421.40 0.6712432
421.50 0.6754874
421.60 0.6786943
421.70 0.6803629
421.80 0.6803193
421.90 0.6786677
422.00 0.6757078
422.10 0.6718692
422.20 0.6676112
422.30 0.6632416
422.40 0.6587596
422.50 0.6540602
422.60 0.6491508
422.70 0.6440099
422.80 0.6385232
422.90 0.6326124
423.00 0.6263983
423.10 0.6202253
423.20 0.6144675
423.30 0.6093584
423.40 0.6050503
423.50 0.6016807
423.60 0.5993
423.70 0.5978821
423.80 0.5973448
423.90 0.5974025
424.00 0.5975972
424.10 0.5975768
424.20 0.5971857
424.30 0.5964242
424.40 0.5953496
424.50 0.5940032
424.60 0.5924536
424.70 0.5908034
424.80 0.5891084
424.90 0.5873789
425.00 0.5855565
425.10 0.5834414
425.20 0.5807027
425.30 0.5770382
425.40 0.5723728
425.50 0.5668866
425.60 0.5609332
425.70 0.5548563
425.80 0.5488157
425.90 0.542889
426.00 0.5371702
426.10 0.5317918
426.20 0.5270476
426.30 0.5232071
426.40 0.520451
426.50 0.5189587
426.60 0.5187748
426.70 0.5198031
426.80 0.5218178
426.90 0.5242828
427.00 0.5263455
427.10 0.5271829
427.20 0.5263307
427.30 0.5237158
427.40 0.5195179
427.50 0.5141284
427.60 0.5080182
427.70 0.5016671
427.80 0.4955529
427.90 0.4900458
428.00 0.4855025
428.10 0.4821907
428.20 0.4800751
428.30 0.4788388
428.40 0.4780292
428.50 0.4772182
428.60 0.4761679
428.70 0.4748985
428.80 0.4735329
428.90 0.4721099
429.00 0.4706661
429.10 0.4693743
429.20 0.468439
429.30 0.4680325
429.40 0.4681555
429.50 0.4685863
429.60 0.4690778
429.70 0.4696107
429.80 0.4704327
429.90 0.4718533
430.00 0.4741357
430.10 0.4772647
430.20 0.4810941
430.30 0.4855669
430.40 0.4905166
430.50 0.4955148
430.60 0.4999693
430.70 0.5033073
430.80 0.5051807
430.90 0.5055474
431.00 0.5045243
431.10 0.5023907
431.20 0.4996169
431.30 0.4966849
431.40 0.4938767
431.50 0.4913738
431.60 0.4892584
431.70 0.4875217
431.80 0.4860671
431.90 0.484812
432.00 0.4838316
432.10 0.483217
432.20 0.4829808
432.30 0.483068
432.40 0.4834875
432.50 0.484261
432.60 0.4852886
432.70 0.48638
432.80 0.4872835
432.90 0.4877737
433.00 0.4877697
433.10 0.4872958
433.20 0.4865677
433.30 0.4859633
433.40 0.4858263
433.50 0.4864543
433.60 0.488078
433.70 0.490773
433.80 0.494384
433.90 0.4985044
434.00 0.5025966
434.10 0.5062328
434.20 0.5092384
434.30 0.5116971
434.40 0.513935
434.50 0.5164122
434.60 0.5195926
434.70 0.523849
434.80 0.5292955
434.90 0.5356347
435.00 0.5422958
435.10 0.5486546
435.20 0.5541451
435.30 0.5584151
435.40 0.5614211
435.50 0.5633661
435.60 0.5646163
435.70 0.5656186
435.80 0.5667823
435.90 0.568375
436.00 0.5704335
436.10 0.5728256
436.20 0.5752764
436.30 0.5774652
436.40 0.5791095
436.50 0.5799689
436.60 0.5799254
436.70 0.5789698
436.80 0.5771705
436.90 0.574721
437.00 0.5719131
437.10 0.5690933
437.20 0.5666347
437.30 0.5647841
437.40 0.5637027
437.50 0.5634354
437.60 0.5639971
437.70 0.5653896
437.80 0.5674393
437.90 0.5699166
438.00 0.5725678
438.10 0.5751686
438.20 0.5776088
438.30 0.5798871
438.40 0.5821285
438.50 0.5845191
438.60 0.5870522
438.70 0.5895601
438.80 0.591804
438.90 0.5934495
439.00 0.594067
439.10 0.5933241
439.20 0.5912486
439.30 0.5881758
439.40 0.584709
439.50 0.5815656
439.60 0.5793392
439.70 0.5783085
439.80 0.5782906
439.90 0.5787378
440.00 0.5790109
440.10 0.5786655
440.20 0.5774754
440.30 0.575424
440.40 0.572633
440.50 0.5693306
440.60 0.5658584
440.70 0.5624641
440.80 0.5592088
440.90 0.5560885
441.00 0.5531629
441.10 0.5505625
441.20 0.5484619
441.30 0.5469652
441.40 0.5460496
441.50 0.5456373
441.60 0.5456618
441.70 0.5459937
441.80 0.5466261
441.90 0.5476722
442.00 0.5491714
442.10 0.5511555
442.20 0.5536907
442.30 0.5568136
442.40 0.5603949
442.50 0.564104
442.60 0.5675387
442.70 0.5704289
442.80 0.5727529
442.90 0.5745683
443.00 0.5758163
443.10 0.5764757
443.20 0.5765909
443.30 0.5762646
443.40 0.5756115
443.50 0.5747
443.60 0.5735194
443.70 0.571913
443.80 0.569715
443.90 0.566976
444.00 0.5639825
444.10 0.5610538
444.20 0.5584076
444.30 0.5560874
444.40 0.5539734
444.50 0.5518173
444.60 0.549306
444.70 0.5461338
444.80 0.542206
444.90 0.5377783
445.00 0.533357
445.10 0.5295954
445.20 0.5271496
445.30 0.5265297
445.40 0.5278898
445.50 0.5309772
445.60 0.5352211
445.70 0.5399084
445.80 0.5445045
445.90 0.5487178
446.00 0.5523526
446.10 0.5552756
446.20 0.5574383
446.30 0.5588782
446.40 0.5597502
446.50 0.5603052
446.60 0.5608176
446.70 0.5614583
446.80 0.5623395
446.90 0.5634948
447.00 0.5648169
447.10 0.5661401
447.20 0.5671422
447.30 0.5675112
447.40 0.567189
447.50 0.5663695
447.60 0.5653904
447.70 0.5645721
447.80 0.5640829
447.90 0.5639221
448.00 0.5639822
448.10 0.5640175
448.20 0.5636429
448.30 0.5625023
448.40 0.5604206
448.50 0.5574101
448.60 0.5537871
448.70 0.5500296
448.80 0.5466396
448.90 0.5441492
449.00 0.5430038
449.10 0.5435397
449.20 0.5459219
449.30 0.5499791
449.40 0.555097
449.50 0.5604264
449.60 0.5651559
449.70 0.5686577
449.80 0.5707006
449.90 0.5715064
450.00 0.5715492
450.10 0.5714499
450.20 0.5717981
450.30 0.5729933
450.40 0.5752927
450.50 0.5787127
450.60 0.5830539
450.70 0.5881213
450.80 0.5938336
450.90 0.6001216
451.00 0.6068751
451.10 0.6139119
451.20 0.6208978
451.30 0.6274327
451.40 0.6331915
451.50 0.6379953
451.60 0.6418284
451.70 0.6448602
451.80 0.6472938
451.90 0.6493122
452.00 0.6511153
452.10 0.652891
452.20 0.654772
452.30 0.6568272
452.40 0.6590427
452.50 0.6613243
452.60 0.6635508
452.70 0.6655677
452.80 0.6672194
452.90 0.6684008
453.00 0.6691822
453.10 0.6697642
453.20 0.6703524
453.30 0.671078
453.40 0.6719795
453.50 0.6730333
453.60 0.6741869
453.70 0.6754653
453.80 0.6769774
453.90 0.6788818
454.00 0.6813918
454.10 0.6847166
454.20 0.6889766
454.30 0.694171
454.40 0.7000594
454.50 0.7061778
454.60 0.7120187
454.70 0.7171699
454.80 0.7213514
454.90 0.7244538
455.00 0.7265619
455.10 0.7278116
455.20 0.7283441
455.30 0.7283013
455.40 0.72775
455.50 0.7266992
455.60 0.7252208
455.70 0.7235261
455.80 0.7219685
455.90 0.7209643
456.00 0.7209222
456.10 0.7221421
456.20 0.7247589
456.30 0.7286731
456.40 0.7334646
456.50 0.7385777
456.60 0.7435555
456.70 0.7481102
456.80 0.7520635
456.90 0.7554695
457.00 0.7587229
457.10 0.7622525
457.20 0.7663304
457.30 0.7710693
457.40 0.7763821
457.50 0.7820031
457.60 0.7875091
457.70 0.792482
457.80 0.7967288
457.90 0.8002523
458.00 0.8031347
458.10 0.8056153
458.20 0.8081616
458.30 0.8112018
458.40 0.8148432
458.50 0.8189059
458.60 0.8230362
458.70 0.8268557
458.80 0.8299857
458.90 0.832081
459.00 0.8330464
459.10 0.8329953
459.20 0.8320997
459.30 0.8306219
459.40 0.8289591
459.50 0.8275113
459.60 0.8265771
459.70 0.8263642
459.80 0.8269
459.90 0.8280684
460.00 0.8297647
460.10 0.8318302
460.20 0.8341918
460.30 0.8369813
460.40 0.8402175
460.50 0.843738
460.60 0.847335
460.70 0.8507056
460.80 0.8534542
460.90 0.8552639
461.00 0.8559171
461.10 0.8552983
461.20 0.8534822
461.30 0.8507577
461.40 0.8474827
461.50 0.8439329
461.60 0.8402877
461.70 0.8366046
461.80 0.8329883
461.90 0.8296648
462.00 0.8268542
462.10 0.8247658
462.20 0.8235502
462.30 0.8231354
462.40 0.8232359
462.50 0.8235027
462.60 0.8236572
462.70 0.823528
462.80 0.8230791
462.90 0.8224903
463.00 0.8220466
463.10 0.8219819
463.20 0.8224356
463.30 0.8234463
463.40 0.825018
463.50 0.8270835
463.60 0.8294955
463.70 0.8320971
463.80 0.8347242
463.90 0.837173
464.00 0.8391318
464.10 0.8402835
464.20 0.84042
464.30 0.8394621
464.40 0.8375296
464.50 0.8350817
464.60 0.832839
464.70 0.8314801
464.80 0.831419
464.90 0.8327482
465.00 0.835236
465.10 0.838516
465.20 0.8422731
465.30 0.8461397
465.40 0.8498284
465.50 0.8531946
465.60 0.8560867
465.70 0.8583848
465.80 0.8600576
465.90 0.8611129
466.00 0.8615016
466.10 0.86118
466.20 0.8602429
466.30 0.8589506
466.40 0.8577483
466.50 0.8570859
466.60 0.8572665
466.70 0.8585813
466.80 0.8611853
466.90 0.8649053
467.00 0.8693222
467.10 0.8739483
467.20 0.878352
467.30 0.8821538
467.40 0.8850953
467.50 0.8871376
467.60 0.8884005
467.70 0.8890601
467.80 0.8892616
467.90 0.88905
468.00 0.8883645
468.10 0.8870018
468.20 0.8847612
468.30 0.8817056
468.40 0.8781843
468.50 0.8746349
468.60 0.8713997
468.70 0.8687591
468.80 0.8670225
468.90 0.8664499
469.00 0.8671409
469.10 0.8690253
469.20 0.8718862
469.30 0.8754823
469.40 0.8796152
469.50 0.8841818
469.60 0.8891366
469.70 0.8943239
469.80 0.8995109
469.90 0.9045338
470.00 0.9092823
470.10 0.9136006
470.20 0.9171953
470.30 0.9197046
470.40 0.9209513
470.50 0.9210775
470.60 0.920428
470.70 0.9193617
470.80 0.9181082
470.90 0.9166727
471.00 0.9149528
471.10 0.9129386
471.20 0.9107109
471.30 0.9083561
471.40 0.9060649
471.50 0.904108
471.60 0.9026849
471.70 0.9018987
471.80 0.901689
471.90 0.9017363
472.00 0.9015725
472.10 0.9008007
472.20 0.8992888
472.30 0.8972685
472.40 0.8951983
472.50 0.8934933
472.60 0.8923911
472.70 0.8919553
472.80 0.8920272
472.90 0.8923043
473.00 0.8925021
473.10 0.8924461
473.20 0.8921071
473.30 0.8916549
473.40 0.8913765
473.50 0.8914681
473.60 0.8919171
473.70 0.892541
473.80 0.8930963
473.90 0.8933649
474.00 0.8933149
474.10 0.8930783
474.20 0.8928059
474.30 0.8926809
474.40 0.8929964
474.50 0.8939283
474.60 0.8953162
474.70 0.8967919
474.80 0.8979693
474.90 0.898561
475.00 0.8984269
475.10 0.8974687
475.20 0.8955487
475.30 0.8926839
475.40 0.8890256
475.50 0.8847306
475.60 0.8800352
475.70 0.8752036
475.80 0.8703348
475.90 0.8654424
476.00 0.8607151
476.10 0.8564288
476.20 0.8527655
476.30 0.8497432
476.40 0.8471778
476.50 0.8447588
476.60 0.8421082
476.70 0.8387806
476.80 0.8344581
476.90 0.8291226
477.00 0.8229319
477.10 0.8161134
477.20 0.8090225
477.30 0.8021441
477.40 0.7958726
477.50 0.7903391
477.60 0.7854356
477.70 0.7809654
477.80 0.7768771
477.90 0.773443
478.00 0.7711838
478.10 0.7705716
478.20 0.7717609
478.30 0.7745097
478.40 0.778338
478.50 0.7827505
478.60 0.7873111
478.70 0.7914931
478.80 0.7947053
478.90 0.7965665
479.00 0.7969921
479.10 0.7960623
479.20 0.7939055
479.30 0.7905767
479.40 0.7860364
479.50 0.7803245
479.60 0.7736693
479.70 0.7665083
479.80 0.7594206
479.90 0.7528098
480.00 0.7466982
480.10 0.7409216
480.20 0.7353054
480.30 0.7296509
480.40 0.7238472
480.50 0.7179729
480.60 0.7123823
480.70 0.707846
480.80 0.705432
480.90 0.7061608
481.00 0.7105923
481.10 0.7186202
481.20 0.7295299
481.30 0.7422245
481.40 0.7554347
481.50 0.7679426
481.60 0.7787977
481.70 0.787451
481.80 0.7938157
481.90 0.7983087
482.00 0.8016549
482.10 0.8044128
482.20 0.8068127
482.30 0.8088755
482.40 0.8106389
482.50 0.8122806
482.60 0.8140765
482.70 0.816298
482.80 0.8191594
482.90 0.8227737
483.00 0.8271067
483.10 0.8319782
483.20 0.8370663
483.30 0.8419058
483.40 0.8459683
483.50 0.8489484
483.60 0.8509225
483.70 0.852227
483.80 0.8533007
483.90 0.8545692
484.00 0.8562638
484.10 0.8584465
484.20 0.8611497
484.30 0.8643193
484.40 0.8677473
484.50 0.8711751
484.60 0.8744461
484.70 0.8775856
484.80 0.8807484
484.90 0.8840684
485.00 0.8876492
485.10 0.8916558
485.20 0.8962665
485.30 0.9015381
485.40 0.9074611
485.50 0.9140797
485.60 0.9214205
485.70 0.9294019
485.80 0.9378601
485.90 0.9465551
486.00 0.9551402
486.10 0.9632213
486.20 0.9704674
486.30 0.9767488
486.40 0.9821554
486.50 0.986875
486.60 0.9911943
486.70 0.9954533
486.80 0.9999552
486.90 1.004817
487.00 1.009966
487.10 1.015353
487.20 1.021047
487.30 1.027192
487.40 1.03396
487.50 1.041593
487.60 1.05037
487.70 1.060417
487.80 1.071503
487.90 1.083009
488.00 1.094086
488.10 1.104006
488.20 1.112298
488.30 1.118751
488.40 1.12346
488.50 1.126733
488.60 1.129053
488.70 1.13109
488.80 1.133585
488.90 1.137107
489.00 1.14189
489.10 1.147924
489.20 1.155088
489.30 1.163255
489.40 1.172289
489.50 1.181841
489.60 1.191311
489.70 1.200096
489.80 1.207714
489.90 1.21393
490.00 1.218768
490.10 1.222414
490.20 1.225164
490.30 1.227353
490.40 1.229228
490.50 1.230778
490.60 1.231676
490.70 1.231303
490.80 1.228882
490.90 1.223797
491.00 1.215928
491.10 1.205607
491.20 1.193523
491.30 1.180658
491.40 1.168092
491.50 1.156834
491.60 1.147714
491.70 1.141173
491.80 1.137163
491.90 1.1353
492.00 1.134962
492.10 1.135431
492.20 1.136051
492.30 1.136303
492.40 1.135779
492.50 1.134326
492.60 1.132043
492.70 1.129144
492.80 1.12594
492.90 1.12278
493.00 1.119927
493.10 1.117575
493.20 1.115904
493.30 1.114942
493.40 1.114586
493.50 1.114643
493.60 1.114868
493.70 1.115083
493.80 1.11524
493.90 1.115401
494.00 1.115781
494.10 1.11669
494.20 1.118351
494.30 1.120757
494.40 1.123671
494.50 1.126672
494.60 1.129256
494.70 1.130932
494.80 1.131265
494.90 1.130001
495.00 1.1271
495.10 1.122666
495.20 1.116984
495.30 1.110483
495.40 1.10362
495.50 1.096779
495.60 1.090261
495.70 1.084393
495.80 1.079531
495.90 1.075981
496.00 1.073866
496.10 1.073161
496.20 1.073753
496.30 1.075366
496.40 1.077616
496.50 1.080192
496.60 1.08278
496.70 1.084988
496.80 1.086457
496.90 1.087062
497.00 1.086945
497.10 1.086297
497.20 1.085133
497.30 1.083197
497.40 1.080158
497.50 1.075782
497.60 1.070038
497.70 1.06321
497.80 1.055866
497.90 1.048632
498.00 1.042085
498.10 1.036651
498.20 1.032518
498.30 1.029578
498.40 1.027493
498.50 1.025898
498.60 1.024466
498.70 1.022998
498.80 1.021447
498.90 1.019818
499.00 1.018133
499.10 1.016395
499.20 1.014537
499.30 1.012421
499.40 1.009977
499.50 1.007357
499.60 1.004887
499.70 1.002863
499.80 1.001413
499.90 1.000489
500.00 1
500.10 0.999942
500.20 1.000397
500.30 1.001485
500.40 1.003355
500.50 1.006213
500.60 1.010289
500.70 1.015694
500.80 1.0223
500.90 1.029786
501.00 1.037793
501.10 1.046104
501.20 1.054668
501.30 1.063464
501.40 1.072517
501.50 1.081814
501.60 1.0912
501.70 1.100518
501.80 1.109599
501.90 1.118162
502.00 1.125902
502.10 1.132763
502.20 1.138963
502.30 1.144752
502.40 1.150271
502.50 1.15553
502.60 1.160469
502.70 1.165079
502.80 1.169372
502.90 1.173344
503.00 1.176983
503.10 1.180138
503.20 1.182567
503.30 1.184234
503.40 1.185337
503.50 1.186131
503.60 1.1869
503.70 1.187939
503.80 1.18946
503.90 1.191484
504.00 1.193785
504.10 1.195916
504.20 1.197332
504.30 1.197664
504.40 1.196884
504.50 1.195369
504.60 1.193787
504.70 1.192844
504.80 1.193192
504.90 1.195265
505.00 1.199133
505.10 1.204582
505.20 1.211162
505.30 1.218318
505.40 1.225526
505.50 1.232368
505.60 1.23859
505.70 1.244057
505.80 1.248639
505.90 1.252149
506.00 1.254474
506.10 1.255597
506.20 1.255586
506.30 1.254726
506.40 1.253513
506.50 1.252482
506.60 1.252135
506.70 1.252864
506.80 1.254853
506.90 1.258019
507.00 1.26205
507.10 1.266517
507.20 1.27105
507.30 1.275542
507.40 1.280078
507.50 1.284722
507.60 1.289422
507.70 1.293952
507.80 1.297924
507.90 1.300984
508.00 1.302979
508.10 1.303977
508.20 1.304215
508.30 1.304077
508.40 1.303914
508.50 1.303943
508.60 1.304327
508.70 1.305128
508.80 1.306321
508.90 1.307919
509.00 1.309946
509.10 1.312443
509.20 1.315507
509.30 1.319142
509.40 1.323153
509.50 1.327229
509.60 1.331074
509.70 1.33448
509.80 1.337462
509.90 1.340198
510.00 1.342816
510.10 1.345313
510.20 1.347588
510.30 1.349517
510.40 1.351006
510.50 1.352011
510.60 1.352524
510.70 1.35266
510.80 1.352713
510.90 1.353029
511.00 1.353802
511.10 1.354976
511.20 1.356189
511.30 1.356942
511.40 1.356775
511.50 1.355334
511.60 1.352433
511.70 1.348049
511.80 1.342327
511.90 1.335516
512.00 1.327995
512.10 1.320168
512.20 1.312313
512.30 1.304673
512.40 1.297539
512.50 1.291157
512.60 1.285631
512.70 1.280876
512.80 1.276644
512.90 1.272608
513.00 1.268438
513.10 1.263967
513.20 1.259255
513.30 1.254518
513.40 1.249991
513.50 1.245963
513.60 1.24271
513.70 1.240324
513.80 1.238661
513.90 1.237477
514.00 1.236567
514.10 1.235779
514.20 1.235076
514.30 1.234551
514.40 1.234311
514.50 1.234329
514.60 1.234417
514.70 1.234349
514.80 1.233926
514.90 1.23305
515.00 1.231801
515.10 1.230336
515.20 1.228817
515.30 1.227335
515.40 1.225889
515.50 1.224374
515.60 1.222509
515.70 1.219986
515.80 1.216768
515.90 1.21317
516.00 1.209757
516.10 1.207158
516.20 1.205917
516.30 1.206316
516.40 1.208243
516.50 1.21126
516.60 1.214764
516.70 1.218102
516.80 1.22067
516.90 1.2221
517.00 1.222438
517.10 1.222012
517.20 1.221219
517.30 1.220434
517.40 1.220004
517.50 1.220276
517.60 1.221541
517.70 1.223957
517.80 1.227545
517.90 1.232156
518.00 1.237452
518.10 1.243097
518.20 1.248915
518.30 1.254834
518.40 1.260824
518.50 1.266868
518.60 1.272859
518.70 1.278583
518.80 1.283748
518.90 1.287984
519.00 1.290968
519.10 1.292465
519.20 1.29232
519.30 1.290632
519.40 1.28776
519.50 1.284151
519.60 1.280301
519.70 1.276747
519.80 1.273943
519.90 1.272284
520.00 1.272123
520.10 1.273637
520.20 1.276723
520.30 1.28108
520.40 1.286237
520.50 1.291616
520.60 1.296701
520.70 1.30106
520.80 1.304431
520.90 1.306808
521.00 1.308355
521.10 1.309382
521.20 1.310394
521.30 1.311884
521.40 1.314166
521.50 1.317426
521.60 1.321715
521.70 1.32695
521.80 1.333044
521.90 1.33995
522.00 1.347597
522.10 1.355904
522.20 1.364736
522.30 1.373866
522.40 1.383026
522.50 1.391874
522.60 1.400027
522.70 1.407242
522.80 1.413569
522.90 1.419383
523.00 1.425278
523.10 1.431822
523.20 1.439311
523.30 1.447731
523.40 1.456854
523.50 1.466266
523.60 1.475451
523.70 1.483936
523.80 1.49145
523.90 1.497992
524.00 1.503773
524.10 1.509127
524.20 1.514347
524.30 1.519571
524.40 1.524851
524.50 1.530186
524.60 1.535552
524.70 1.540928
524.80 1.54627
524.90 1.55153
525.00 1.556711
525.10 1.561958
525.20 1.567523
525.30 1.573712
525.40 1.58077
525.50 1.588757
525.60 1.59758
525.70 1.606922
525.80 1.616161
525.90 1.624569
526.00 1.631448
526.10 1.636286
526.20 1.638874
526.30 1.639353
526.40 1.63819
526.50 1.635966
526.60 1.63319
526.70 1.630276
526.80 1.627555
526.90 1.62519
527.00 1.623111
527.10 1.621147
527.20 1.619179
527.30 1.61709
527.40 1.614813
527.50 1.61237
527.60 1.6098
527.70 1.607127
527.80 1.604385
527.90 1.601636
528.00 1.598935
528.10 1.596238
528.20 1.593423
528.30 1.590427
528.40 1.587267
528.50 1.584001
528.60 1.580822
528.70 1.578056
528.80 1.575996
528.90 1.57485
529.00 1.574697
529.10 1.575504
529.20 1.577146
529.30 1.579442
529.40 1.58226
529.50 1.585544
529.60 1.589222
529.70 1.59316
529.80 1.597236
529.90 1.601323
530.00 1.60522
530.10 1.608768
530.20 1.611928
530.30 1.614648
530.40 1.616911
530.50 1.618809
530.60 1.620473
530.70 1.622032
530.80 1.623532
530.90 1.624969
531.00 1.626355
531.10 1.627674
531.20 1.628805
531.30 1.629659
531.40 1.630307
531.50 1.630927
531.60 1.631741
531.70 1.632942
531.80 1.634588
531.90 1.636579
532.00 1.638657
532.10 1.640469
532.20 1.641758
532.30 1.642374
532.40 1.642319
532.50 1.641933
532.60 1.641889
532.70 1.642916
532.80 1.645458
532.90 1.649455
533.00 1.654421
533.10 1.659733
533.20 1.664817
533.30 1.669212
533.40 1.672672
533.50 1.675219
533.60 1.67712
533.70 1.678851
533.80 1.680845
533.90 1.683321
534.00 1.686327
534.10 1.689783
534.20 1.693621
534.30 1.697825
534.40 1.702397
534.50 1.707359
534.60 1.712769
534.70 1.718713
534.80 1.725283
534.90 1.732534
535.00 1.740357
535.10 1.748412
535.20 1.756357
535.30 1.763972
535.40 1.771118
535.50 1.777795
535.60 1.784162
535.70 1.790534
535.80 1.797276
535.90 1.804615
536.00 1.812618
536.10 1.821212
536.20 1.830207
536.30 1.839305
536.40 1.848244
536.50 1.857032
536.60 1.86589
536.70 1.875062
536.80 1.884797
536.90 1.895299
537.00 1.906527
537.10 1.918172
537.20 1.92982
537.30 1.941103
537.40 1.951692
537.50 1.961264
537.60 1.969621
537.70 1.976855
537.80 1.98331
537.90 1.989397
538.00 1.995509
538.10 2.001958
538.20 2.008827
538.30 2.015956
538.40 2.02314
538.50 2.030177
538.60 2.036801
538.70 2.042747
538.80 2.047904
538.90 2.052385
539.00 2.056495
539.10 2.060626
539.20 2.065078
539.30 2.069972
539.40 2.075267
539.50 2.080804
539.60 2.08643
539.70 2.09199
539.80 2.097152
539.90 2.101494
540.00 2.104746
540.10 2.106839
540.20 2.107868
540.30 2.108178
540.40 2.108188
540.50 2.108149
540.60 2.108169
540.70 2.108347
540.80 2.108778
540.90 2.109405
541.00 2.110032
541.10 2.110503
541.20 2.110899
541.30 2.111486
541.40 2.112495
541.50 2.113962
541.60 2.11571
541.70 2.117347
541.80 2.11842
541.90 2.118696
542.00 2.118253
542.10 2.117333
542.20 2.116239
542.30 2.115359
542.40 2.115013
542.50 2.115251
542.60 2.115807
542.70 2.116152
542.80 2.115645
542.90 2.113821
543.00 2.110514
543.10 2.105846
543.20 2.100175
543.30 2.093957
543.40 2.08763
543.50 2.081513
543.60 2.075753
543.70 2.070361
543.80 2.065308
543.90 2.060489
544.00 2.055681
544.10 2.050679
544.20 2.045342
544.30 2.039483
544.40 2.032827
544.50 2.025095
544.60 2.016087
544.70 2.00576
544.80 1.994276
544.90 1.981985
545.00 1.969385
545.10 1.956992
545.20 1.94511
545.30 1.933735
545.40 1.922616
545.50 1.911369
545.60 1.899684
545.70 1.88745
545.80 1.874803
545.90 1.862072
546.00 1.849706
546.10 1.838035
546.20 1.827137
546.30 1.816866
546.40 1.80679
546.50 1.796311
546.60 1.784922
546.70 1.772423
546.80 1.758912
546.90 1.744641
547.00 1.729904
547.10 1.71494
547.20 1.699898
547.30 1.684853
547.40 1.669788
547.50 1.654711
547.60 1.639759
547.70 1.625157
547.80 1.611155
547.90 1.597885
548.00 1.585301
548.10 1.573208
548.20 1.561427
548.30 1.549891
548.40 1.538583
548.50 1.527547
548.60 1.516819
548.70 1.506293
548.80 1.495818
548.90 1.485263
549.00 1.474434
549.10 1.463079
549.20 1.451102
549.30 1.438673
549.40 1.426063
549.50 1.413487
549.60 1.400974
549.70 1.3884
549.80 1.375711
549.90 1.362987
550.00 1.342144
550.10 1.333194
550.20 1.324093
550.30 1.313933
550.40 1.301872
550.50 1.287495
550.60 1.270985
550.70 1.252899
550.80 1.234145
550.90 1.215727
551.00 1.198414
551.10 1.182508
551.20 1.167886
551.30 1.154525
551.40 1.142728
551.50 1.133007
551.60 1.125696
551.70 1.120495
551.80 1.116672
551.90 1.113304
552.00 1.109348
552.10 1.103896
552.20 1.096454
552.30 1.087157
552.40 1.076728
552.50 1.066184
552.60 1.056278
552.70 1.047056
552.80 1.038033
552.90 1.028636
553.00 1.018566
553.10 1.008232
553.20 0.998364
553.30 0.9895601
553.40 0.9823796
553.50 0.97697
553.60 0.9729138
553.70 0.9692858
553.80 0.9649308
553.90 0.9591426
554.00 0.9520816
554.10 0.9447718
554.20 0.9386217
554.30 0.9349203
554.40 0.934694
554.50 0.93836
554.60 0.9458816
554.70 0.9568867
554.80 0.9704209
554.90 0.9855193
555.00 1.00158
555.10 1.01822
555.20 1.03703
555.30 1.06312
555.40 1.103331
555.50 1.163609
555.60 1.247426
555.70 1.354672
555.80 1.480772
555.90 1.617257
556.00 1.753395
556.10 1.878447
556.20 1.984161
556.30 2.066183
556.40 2.124836
556.50 2.165321
556.60 2.195079
556.70 2.220176
556.80 2.244501
556.90 2.270228
557.00 2.297827
557.10 2.326434
557.20 2.355088
557.30 2.383049
557.40 2.409794
557.50 2.435368
557.60 2.460271
557.70 2.485399
557.80 2.511591
557.90 2.539241
558.00 2.56839
558.10 2.598791
558.20 2.630253
558.30 2.662577
558.40 2.695391
558.50 2.728221
558.60 2.760008
558.70 2.789387
558.80 2.815364
558.90 2.83726
559.00 2.854659
559.10 2.867655
559.20 2.875318
559.30 2.873829
559.40 2.857753
559.50 2.822302
559.60 2.764687
559.70 2.685329
559.80 2.588597
559.90 2.482068
560.00 2.375446
560.10 2.278771
560.20 2.199914
560.30 2.142962
560.40 2.107573
560.50 2.08896
560.60 2.08046
560.70 2.076941
560.80 2.075135
560.90 2.072977
561.00 2.069687
561.10 2.065482
561.20 2.060708
561.30 2.055869
561.40 2.051488
561.50 2.047708
561.60 2.044469
561.70 2.041636
561.80 2.039246
561.90 2.037383
562.00 2.036042
562.10 2.035266
562.20 2.034956
562.30 2.034856
562.40 2.034483
562.50 2.033101
562.60 2.030232
562.70 2.02557
562.80 2.018962
562.90 2.010824
563.00 2.002107
563.10 1.993919
563.20 1.986901
563.30 1.981112
563.40 1.976213
563.50 1.971551
563.60 1.966581
563.70 1.961065
563.80 1.954768
563.90 1.947577
564.00 1.939706
564.10 1.931756
564.20 1.924582
564.30 1.919049
564.40 1.91608
564.50 1.916481
564.60 1.920599
564.70 1.928279
564.80 1.938926
564.90 1.951483
565.00 1.964441
565.10 1.976132
565.20 1.985724
565.30 1.993331
565.40 1.999426
565.50 2.004734
565.60 2.010054
565.70 2.015892
565.80 2.022151
565.90 2.028355
566.00 2.033985
566.10 2.038575
566.20 2.04188
566.30 2.043917
566.40 2.044946
566.50 2.045457
566.60 2.045953
566.70 2.047098
566.80 2.049626
566.90 2.053964
567.00 2.060201
567.10 2.068228
567.20 2.07782
567.30 2.088644
567.40 2.100368
567.50 2.112632
567.60 2.124902
567.70 2.136769
567.80 2.148575
567.90 2.161439
568.00 2.176542
568.10 2.194428
568.20 2.21493
568.30 2.237246
568.40 2.259803
568.50 2.280629
568.60 2.298002
568.70 2.310736
568.80 2.318439
568.90 2.321658
569.00 2.321857
569.10 2.320985
569.20 2.320289
569.30 2.320083
569.40 2.320462
569.50 2.32141
569.60 2.322912
569.70 2.325195
569.80 2.328821
569.90 2.33429
570.00 2.341636
570.10 2.350384
570.20 2.359483
570.30 2.367793
570.40 2.374487
570.50 2.379238
570.60 2.382479
570.70 2.38492
570.80 2.387077
570.90 2.389186
571.00 2.391058
571.10 2.392009
571.20 2.390998
571.30 2.386896
571.40 2.378788
571.50 2.36632
571.60 2.349925
571.70 2.330583
571.80 2.309498
571.90 2.287767
572.00 2.266264
572.10 2.245951
572.20 2.227771
572.30 2.212371
572.40 2.200066
572.50 2.190971
572.60 2.185086
572.70 2.182459
572.80 2.183231
572.90 2.18736
573.00 2.194335
573.10 2.203279
573.20 2.213435
573.30 2.224301
573.40 2.235346
573.50 2.245848
573.60 2.254848
573.70 2.261245
573.80 2.264065
573.90 2.262805
574.00 2.257679
574.10 2.249537
574.20 2.239848
574.30 2.230323
574.40 2.222686
574.50 2.21828
574.60 2.217398
574.70 2.219199
574.80 2.222237
574.90 2.224984
575.00 2.226313
575.10 2.226028
575.20 2.224995
575.30 2.224798
575.40 2.227242
575.50 2.233803
575.60 2.245146
575.70 2.261014
575.80 2.280227
575.90 2.300869
576.00 2.320701
576.10 2.337561
576.20 2.349784
576.30 2.356393
576.40 2.357364
576.50 2.353427
576.60 2.345657
576.70 2.335088
576.80 2.322591
576.90 2.309207
577.00 2.296029
577.10 2.284059
577.20 2.273938
577.30 2.265775
577.40 2.259565
577.50 2.25528
577.60 2.252833
577.70 2.252308
577.80 2.253885
577.90 2.257819
578.00 2.264423
578.10 2.273884
578.20 2.286049
578.30 2.300133
578.40 2.314709
578.50 2.328039
578.60 2.338869
578.70 2.347051
578.80 2.353247
578.90 2.358767
579.00 2.365261
579.10 2.373807
579.20 2.38448
579.30 2.396482
579.40 2.408492
579.50 2.419109
579.60 2.426942
579.70 2.430873
579.80 2.430581
579.90 2.426582
580.00 2.419816
580.10 2.411251
580.20 2.401916
580.30 2.393062
580.40 2.385967
580.50 2.381985
580.60 2.382482
580.70 2.388234
580.80 2.398941
580.90 2.413141
581.00 2.42885
581.10 2.444014
581.20 2.456886
581.30 2.466617
581.40 2.473391
581.50 2.478264
581.60 2.482651
581.70 2.487548
581.80 2.493184
581.90 2.498995
582.00 2.503803
582.10 2.506404
582.20 2.505996
582.30 2.502454
582.40 2.496542
582.50 2.489654
582.60 2.482975
582.70 2.476786
582.80 2.470564
582.90 2.463243
583.00 2.453587
583.10 2.440934
583.20 2.425611
583.30 2.408576
583.40 2.390804
583.50 2.373099
583.60 2.35639
583.70 2.34168
583.80 2.329449
583.90 2.319679
584.00 2.312391
584.10 2.307688
584.20 2.305538
584.30 2.305524
584.40 2.30664
584.50 2.307009
584.60 2.304149
584.70 2.296085
584.80 2.282111
584.90 2.26275
585.00 2.239359
585.10 2.213684
585.20 2.187474
585.30 2.161937
585.40 2.137203
585.50 2.112521
585.60 2.086788
585.70 2.059109
585.80 2.029213
585.90 1.997528
586.00 1.964868
586.10 1.931925
586.20 1.899014
586.30 1.866257
586.40 1.833398
586.50 1.800027
586.60 1.76623
586.70 1.732565
586.80 1.699929
586.90 1.669187
587.00 1.640755
587.10 1.614476
587.20 1.589744
587.30 1.566112
587.40 1.543704
587.50 1.522931
587.60 1.504183
587.70 1.487536
587.80 1.472845
587.90 1.459586
588.00 1.446592
588.10 1.43273
588.20 1.417287
588.30 1.400254
588.40 1.382455
588.50 1.365119
588.60 1.3494
588.70 1.336036
588.80 1.325308
588.90 1.317273
589.00 1.311942
589.10 1.309034
589.20 1.307931
589.30 1.307926
589.40 1.308383
589.50 1.308712
589.60 1.308468
589.70 1.307336
589.80 1.305061
589.90 1.301638
590.00 1.297673
590.10 1.294177
590.20 1.291972
590.30 1.291217
590.40 1.291397
590.50 1.291871
590.60 1.292075
590.70 1.291996
590.80 1.29241
590.90 1.294576
591.00 1.299936
591.10 1.309729
591.20 1.324516
591.30 1.343869
591.40 1.365979
591.50 1.388044
591.60 1.407448
591.70 1.422552
591.80 1.433056
591.90 1.440058
592.00 1.445641
592.10 1.451744
592.20 1.459662
592.30 1.469971
592.40 1.482353
592.50 1.49606
592.60 1.510359
592.70 1.524503
592.80 1.538072
592.90 1.550945
593.00 1.562897
593.10 1.573982
593.20 1.584492
593.30 1.594621
593.40 1.604823
593.50 1.615949
593.60 1.628898
593.70 1.644255
593.80 1.662294
593.90 1.682769
594.00 1.704905
594.10 1.727936
594.20 1.751396
594.30 1.775249
594.40 1.799886
594.50 1.825476
594.60 1.851556
594.70 1.877104
594.80 1.900845
594.90 1.921677
595.00 1.93878
595.10 1.951775
595.20 1.960875
595.30 1.966799
595.40 1.970861
595.50 1.974824
595.60 1.980188
595.70 1.987801
595.80 1.997664
595.90 2.008974
596.00 2.02071
596.10 2.03199
596.20 2.041876
596.30 2.049461
596.40 2.054389
596.50 2.056868
596.60 2.05762
596.70 2.057882
596.80 2.058707
596.90 2.060499
597.00 2.063195
597.10 2.066376
597.20 2.069622
597.30 2.072684
597.40 2.075343
597.50 2.077574
597.60 2.079664
597.70 2.082059
597.80 2.085095
597.90 2.089019
598.00 2.093761
598.10 2.098643
598.20 2.102786
598.30 2.105708
598.40 2.107412
598.50 2.108246
598.60 2.108962
598.70 2.110724
598.80 2.114582
598.90 2.120989
599.00 2.129889
599.10 2.140718
599.20 2.152352
599.30 2.163433
599.40 2.172837
599.50 2.179987
599.60 2.184888
599.70 2.187887
599.80 2.189582
599.90 2.190808
600.00 2.318368
600.10 2.316768
600.20 2.297226
600.30 2.271037
600.40 2.246882
600.50 2.222916
600.60 2.201557
600.70 2.195013
600.80 2.212142
600.90 2.250855
601.00 2.304149
601.10 2.359639
601.20 2.401384
601.30 2.42109
601.40 2.413568
601.50 2.376543
601.60 2.315697
601.70 2.242388
601.80 2.172701
601.90 2.122151
602.00 2.101114
602.10 2.11195
602.20 2.148254
602.30 2.194514
602.40 2.237034
602.50 2.272801
602.60 2.306127
602.70 2.338582
602.80 2.372611
602.90 2.413162
603.00 2.456026
603.10 2.487202
603.20 2.495489
603.30 2.484088
603.40 2.464257
603.50 2.448587
603.60 2.448511
603.70 2.47374
603.80 2.527934
603.90 2.602287
604.00 2.680118
604.10 2.743182
604.20 2.777472
604.30 2.775953
604.40 2.743834
604.50 2.694583
604.60 2.648145
604.70 2.617556
604.80 2.595844
604.90 2.569846
605.00 2.538051
605.10 2.503223
605.20 2.461637
605.30 2.424081
605.40 2.40959
605.50 2.423441
605.60 2.451256
605.70 2.478058
605.80 2.499728
605.90 2.512344
606.00 2.509315
606.10 2.489376
606.20 2.463674
606.30 2.445042
606.40 2.441998
606.50 2.46566
606.60 2.525976
606.70 2.61567
606.80 2.716564
606.90 2.814628
607.00 2.904633
607.10 2.979262
607.20 3.024856
607.30 3.036205
607.40 3.01928
607.50 2.984397
607.60 2.942276
607.70 2.906617
607.80 2.883862
607.90 2.867336
608.00 2.849228
608.10 2.828008
608.20 2.805098
608.30 2.780345
608.40 2.75347
608.50 2.723032
608.60 2.692199
608.70 2.669586
608.80 2.655732
608.90 2.64538
609.00 2.637589
609.10 2.636265
609.20 2.644738
609.30 2.662709
609.40 2.68645
609.50 2.706906
609.60 2.717353
609.70 2.721495
609.80 2.722725
609.90 2.725691
610.00 2.735336
610.10 2.745409
610.20 2.749859
610.30 2.751801
610.40 2.756118
610.50 2.762205
610.60 2.768243
610.70 2.776717
610.80 2.792763
610.90 2.817965
611.00 2.845987
611.10 2.867345
611.20 2.876769
611.30 2.874995
611.40 2.863046
611.50 2.845261
611.60 2.829449
611.70 2.817237
611.80 2.803809
611.90 2.787634
612.00 2.771388
612.10 2.753933
612.20 2.728612
612.30 2.69181
612.40 2.646565
612.50 2.593264
612.60 2.533524
612.70 2.471363
612.80 2.412195
612.90 2.363197
613.00 2.332906
613.10 2.328988
613.20 2.352499
613.30 2.398164
613.40 2.453038
613.50 2.502087
613.60 2.534711
613.70 2.5393
613.80 2.50771
613.90 2.44469
614.00 2.367507
614.10 2.296213
614.20 2.245408
614.30 2.22364
614.40 2.231438
614.50 2.262261
614.60 2.304192
614.70 2.337962
614.80 2.351628
614.90 2.343864
615.00 2.320647
615.10 2.302188
615.20 2.307357
615.30 2.33707
615.40 2.377593
615.50 2.413984
615.60 2.437117
615.70 2.440717
615.80 2.422671
615.90 2.386838
616.00 2.345375
616.10 2.315068
616.20 2.305088
616.30 2.317842
616.40 2.347228
616.50 2.373515
616.60 2.372686
616.70 2.336365
616.80 2.272602
616.90 2.196364
617.00 2.126114
617.10 2.084592
617.20 2.08426
617.30 2.121592
617.40 2.182317
617.50 2.242727
617.60 2.281379
617.70 2.281672
617.80 2.236591
617.90 2.153934
618.00 2.05407
618.10 1.958198
618.20 1.880049
618.30 1.830066
618.40 1.813577
618.50 1.822108
618.60 1.841892
618.70 1.862874
618.80 1.878101
618.90 1.886502
619.00 1.888925
619.10 1.884362
619.20 1.869627
619.30 1.844328
619.40 1.811872
619.50 1.778846
619.60 1.755833
619.70 1.750235
619.80 1.762054
619.90 1.789438
620.00 1.828728
620.10 1.872628
620.20 1.913984
620.30 1.942497
620.40 1.944971
620.50 1.91529
620.60 1.860251
620.70 1.796198
620.80 1.740345
620.90 1.707395
621.00 1.706019
621.10 1.731447
621.20 1.772253
621.30 1.817585
621.40 1.854878
621.50 1.871095
621.60 1.858277
621.70 1.81986
621.80 1.772057
621.90 1.737952
622.00 1.733665
622.10 1.756792
622.20 1.802166
622.30 1.868526
622.40 1.945894
622.50 2.020172
622.60 2.077418
622.70 2.104447
622.80 2.099491
622.90 2.074118
623.00 2.04378
623.10 2.017184
623.20 1.997107
623.30 1.984708
623.40 1.980436
623.50 1.987012
623.60 1.999009
623.70 2.002793
623.80 1.989401
623.90 1.95996
624.00 1.92143
624.10 1.879997
624.20 1.842085
624.30 1.814032
624.40 1.794751
624.50 1.785971
624.60 1.793463
624.70 1.816184
624.80 1.849102
624.90 1.887655
625.00 1.934711
625.10 1.994048
625.20 2.060227
625.30 2.119105
625.40 2.157338
625.50 2.169955
625.60 2.157422
625.70 2.124261
625.80 2.082462
625.90 2.042735
626.00 2.012734
626.10 2.002263
626.20 2.018129
626.30 2.062134
626.40 2.126486
626.50 2.194452
626.60 2.255958
626.70 2.307333
626.80 2.343368
626.90 2.360728
627.00 2.357767
627.10 2.334306
627.20 2.29331
627.30 2.245241
627.40 2.203727
627.50 2.179061
627.60 2.181074
627.70 2.21635
627.80 2.282881
627.90 2.370579
628.00 2.464936
628.10 2.557904
628.20 2.648447
628.30 2.724632
628.40 2.772771
628.50 2.789461
628.60 2.773223
628.70 2.728319
628.80 2.670027
628.90 2.613896
629.00 2.567932
629.10 2.5383
629.20 2.529694
629.30 2.550349
629.40 2.617347
629.50 2.74283
629.60 2.917469
629.70 3.126122
629.80 3.354111
629.90 3.57572
630.00 3.76367
630.10 3.890923
630.20 3.929481
630.30 3.873037
630.40 3.745365
630.50 3.580611
630.60 3.416554
630.70 3.283729
630.80 3.191303
630.90 3.131272
631.00 3.096593
631.10 3.086665
631.20 3.096589
631.30 3.118686
631.40 3.147267
631.50 3.186091
631.60 3.245524
631.70 3.323009
631.80 3.400587
631.90 3.461972
632.00 3.500653
632.10 3.519543
632.20 3.52541
632.30 3.526788
632.40 3.539875
632.50 3.573647
632.60 3.622807
632.70 3.680362
632.80 3.741259
632.90 3.795904
633.00 3.832519
633.10 3.848107
633.20 3.849145
633.30 3.843969
633.40 3.835064
633.50 3.824181
633.60 3.81641
633.70 3.813335
633.80 3.809016
633.90 3.800403
634.00 3.793711
634.10 3.795386
634.20 3.808534
634.30 3.83229
634.40 3.863367
634.50 3.898588
634.60 3.934082
634.70 3.967721
634.80 3.997628
634.90 4.020707
635.00 4.035146
635.10 4.039498
635.20 4.033411
635.30 4.020266
635.40 4.005009
635.50 3.990374
635.60 3.973809
635.70 3.954665
635.80 3.935247
635.90 3.90944
636.00 3.871032
636.10 3.819833
636.20 3.76814
636.30 3.732351
636.40 3.720593
636.50 3.743675
636.60 3.805093
636.70 3.895496
636.80 4.000116
636.90 4.10572
637.00 4.204956
637.10 4.287127
637.20 4.340564
637.30 4.369216
637.40 4.383209
637.50 4.388026
637.60 4.38067
637.70 4.352545
637.80 4.304354
637.90 4.240517
638.00 4.168984
638.10 4.102815
638.20 4.053383
638.30 4.023737
638.40 4.01029
638.50 4.009557
638.60 4.01812
638.70 4.032506
638.80 4.049772
638.90 4.067284
639.00 4.08265
639.10 4.098882
639.20 4.118202
639.30 4.141503
639.40 4.169457
639.50 4.200158
639.60 4.232749
639.70 4.265422
639.80 4.297226
639.90 4.331886
640.00 4.371437
640.10 4.410122
640.20 4.438211
640.30 4.445032
640.40 4.426165
640.50 4.385033
640.60 4.327467
640.70 4.258779
640.80 4.18721
640.90 4.122008
641.00 4.069297
641.10 4.03771
641.20 4.028364
641.30 4.034343
641.40 4.054423
641.50 4.088558
641.60 4.131089
641.70 4.177406
641.80 4.221609
641.90 4.252422
642.00 4.259491
642.10 4.239484
642.20 4.200499
642.30 4.155808
642.40 4.113455
642.50 4.07598
642.60 4.049571
642.70 4.035734
642.80 4.028814
642.90 4.021844
643.00 4.007806
643.10 3.982914
643.20 3.950354
643.30 3.918652
643.40 3.900252
643.50 3.904826
643.60 3.927627
643.70 3.958479
643.80 3.990391
643.90 4.016389
644.00 4.031398
644.10 4.039108
644.20 4.046725
644.30 4.0598
644.40 4.083518
644.50 4.117598
644.60 4.158666
644.70 4.204558
644.80 4.248032
644.90 4.280314
645.00 4.298548
645.10 4.302858
645.20 4.298149
645.30 4.291025
645.40 4.285341
645.50 4.282189
645.60 4.277104
645.70 4.266539
645.80 4.253035
645.90 4.245637
646.00 4.250128
646.10 4.264832
646.20 4.286181
646.30 4.308654
646.40 4.326683
646.50 4.338575
646.60 4.343152
646.70 4.337998
646.80 4.322833
646.90 4.303344
647.00 4.288259
647.10 4.284379
647.20 4.297459
647.30 4.326458
647.40 4.368169
647.50 4.419584
647.60 4.476679
647.70 4.536572
647.80 4.594578
647.90 4.644993
648.00 4.682472
648.10 4.705456
648.20 4.714208
648.30 4.706798
648.40 4.684292
648.50 4.653773
648.60 4.622449
648.70 4.595505
648.80 4.575032
648.90 4.562766
649.00 4.563388
649.10 4.581252
649.20 4.617938
649.30 4.669465
649.40 4.731657
649.50 4.805147
649.60 4.889089
649.70 4.977092
649.80 5.058946
649.90 5.122865
650.00 5.161941
650.10 5.174621
650.20 5.166126
650.30 5.150883
650.40 5.143026
650.50 5.150839
650.60 5.182109
650.70 5.239601
650.80 5.316448
650.90 5.402176
651.00 5.489356
651.10 5.576142
651.20 5.662881
651.30 5.748729
651.40 5.830976
651.50 5.912184
651.60 5.997536
651.70 6.085859
651.80 6.171596
651.90 6.250001
652.00 6.316065
652.10 6.368945
652.20 6.417376
652.30 6.472989
652.40 6.545703
652.50 6.643944
652.60 6.774514
652.70 6.941101
652.80 7.135835
652.90 7.334344
653.00 7.506961
653.10 7.630715
653.20 7.695896
653.30 7.712555
653.40 7.702219
653.50 7.685618
653.60 7.680161
653.70 7.698201
653.80 7.744749
653.90 7.813516
654.00 7.88696
654.10 7.944087
654.20 7.977613
654.30 7.993357
654.40 7.994559
654.50 7.979308
654.60 7.946427
654.70 7.894391
654.80 7.82556
654.90 7.74345
655.00 7.645985
655.10 7.547948
655.20 7.474964
655.30 7.444442
655.40 7.470952
655.50 7.557455
655.60 7.695393
655.70 7.887479
655.80 8.150125
655.90 8.492128
656.00 8.904121
656.10 9.343753
656.20 9.73555
656.30 10.01537
656.40 10.14245
656.50 10.08184
656.60 9.827976
656.70 9.418847
656.80 8.916662
656.90 8.398612
657.00 7.939355
657.10 7.586016
657.20 7.346199
657.30 7.19879
657.40 7.102958
657.50 7.018478
657.60 6.926265
657.70 6.814905
657.80 6.685543
657.90 6.553747
658.00 6.432813
658.10 6.331691
658.20 6.259636
658.30 6.226265
658.40 6.236118
658.50 6.282594
658.60 6.352141
658.70 6.429614
658.80 6.501782
658.90 6.560944
659.00 6.604725
659.10 6.635222
659.20 6.658998
659.30 6.683192
659.40 6.71534
659.50 6.763507
659.60 6.828997
659.70 6.907382
659.80 6.989198
659.90 7.060978
660.00 7.114391
660.10 7.15018
660.20 7.169142
660.30 7.170754
660.40 7.161386
660.50 7.148755
660.60 7.135689
660.70 7.126742
660.80 7.126925
660.90 7.135271
661.00 7.151377
661.10 7.175996
661.20 7.205373
661.30 7.229429
661.40 7.235645
661.50 7.214268
661.60 7.170072
661.70 7.118948
661.80 7.070445
661.90 7.030082
662.00 7.000448
662.10 6.974989
662.20 6.945421
662.30 6.909404
662.40 6.863467
662.50 6.804579
662.60 6.740305
662.70 6.690332
662.80 6.674965
662.90 6.701271
663.00 6.760963
663.10 6.837967
663.20 6.916096
663.30 6.982769
663.40 7.031472
663.50 7.058512
663.60 7.058391
663.70 7.028387
663.80 6.976608
663.90 6.91886
664.00 6.870279
664.10 6.840173
664.20 6.834547
664.30 6.858238
664.40 6.908379
664.50 6.973315
664.60 7.034267
664.70 7.066343
664.80 7.046322
664.90 6.970437
665.00 6.85749
665.10 6.735051
665.20 6.630711
665.30 6.56336
665.40 6.539982
665.50 6.557656
665.60 6.600711
665.70 6.647063
665.80 6.678602
665.90 6.685697
666.00 6.667528
666.10 6.635126
666.20 6.607211
666.30 6.59673
666.40 6.608508
666.50 6.642079
666.60 6.691572
666.70 6.749694
666.80 6.806736
666.90 6.852442
667.00 6.88206
667.10 6.899301
667.20 6.916928
667.30 6.946005
667.40 6.993049
667.50 7.057445
667.60 7.128417
667.70 7.187987
667.80 7.219872
667.90 7.216858
668.00 7.179658
668.10 7.113991
668.20 7.027974
668.30 6.93439
668.40 6.848058
668.50 6.777804
668.60 6.725544
668.70 6.692851
668.80 6.679287
668.90 6.678459
669.00 6.681224
669.10 6.682624
669.20 6.682578
669.30 6.68271
669.40 6.684028
669.50 6.684279
669.60 6.680581
669.70 6.674902
669.80 6.676273
669.90 6.697073
670.00 6.741412
670.10 6.801147
670.20 6.869612
670.30 6.942489
670.40 7.013069
670.50 7.07931
670.60 7.138913
670.70 7.186517
670.80 7.224523
670.90 7.265818
671.00 7.323768
671.10 7.394882
671.20 7.458869
671.30 7.493532
671.40 7.484696
671.50 7.428991
671.60 7.325622
671.70 7.183785
671.80 7.028809
671.90 6.883405
672.00 6.767038
672.10 6.698471
672.20 6.681675
672.30 6.702362
672.40 6.74036
672.50 6.78155
672.60 6.820753
672.70 6.854684
672.80 6.880072
672.90 6.897462
673.00 6.909974
673.10 6.922055
673.20 6.938833
673.30 6.966663
673.40 7.005005
673.50 7.046069
673.60 7.084067
673.70 7.117683
673.80 7.148795
673.90 7.184069
674.00 7.231574
674.10 7.295584
674.20 7.371749
674.30 7.446112
674.40 7.508008
674.50 7.552324
674.60 7.575129
674.70 7.577984
674.80 7.568495
674.90 7.554144
675.00 7.535795
675.10 7.515076
675.20 7.498002
675.30 7.485445
675.40 7.474042
675.50 7.461592
675.60 7.45339
675.70 7.461807
675.80 7.492663
675.90 7.541245
676.00 7.599486
676.10 7.661303
676.20 7.722312
676.30 7.777577
676.40 7.828787
676.50 7.879078
676.60 7.927577
676.70 7.973056
676.80 8.012258
676.90 8.03881
677.00 8.048656
677.10 8.045743
677.20 8.04215
677.30 8.048639
677.40 8.067068
677.50 8.092644
677.60 8.1173
677.70 8.13289
677.80 8.129156
677.90 8.095254
678.00 8.022721
678.10 7.910283
678.20 7.767104
678.30 7.612393
678.40 7.465848
678.50 7.340022
678.60 7.235835
678.70 7.154549
678.80 7.106912
678.90 7.096609
679.00 7.121752
679.10 7.178856
679.20 7.260499
679.30 7.357585
679.40 7.460851
679.50 7.560552
679.60 7.644243
679.70 7.700241
679.80 7.724067
679.90 7.718401
680.00 7.699564
680.10 7.685166
680.20 7.679042
680.30 7.683325
680.40 7.697654
680.50 7.716385
680.60 7.734072
680.70 7.746931
680.80 7.750837
680.90 7.741571
681.00 7.720218
681.10 7.694804
681.20 7.673958
681.30 7.661232
681.40 7.653832
681.50 7.646941
681.60 7.638648
681.70 7.626336
681.80 7.61156
681.90 7.603496
682.00 7.610954
682.10 7.642973
682.20 7.711144
682.30 7.823225
682.40 7.974156
682.50 8.140019
682.60 8.28769
682.70 8.391033
682.80 8.433502
682.90 8.411464
683.00 8.332968
683.10 8.215657
683.20 8.079915
683.30 7.946515
683.40 7.838693
683.50 7.769218
683.60 7.736565
683.70 7.729556
683.80 7.735705
683.90 7.751348
684.00 7.777376
684.10 7.808589
684.20 7.836556
684.30 7.854067
684.40 7.857986
684.50 7.846859
684.60 7.816123
684.70 7.761335
684.80 7.679744
684.90 7.578926
685.00 7.479428
685.10 7.40442
685.20 7.367671
685.30 7.367168
685.40 7.393362
685.50 7.438271
685.60 7.491378
685.70 7.544464
685.80 7.59911
685.90 7.663793
686.00 7.74362
686.10 7.83579
686.20 7.934771
686.30 8.029367
686.40 8.100852
686.50 8.134971
686.60 8.126616
686.70 8.080487
686.80 8.011989
686.90 7.935376
687.00 7.864128
687.10 7.808018
687.20 7.766492
687.30 7.731562
687.40 7.702335
687.50 7.6805
687.60 7.661446
687.70 7.644281
687.80 7.633766
687.90 7.632977
688.00 7.644641
688.10 7.671323
688.20 7.704674
688.30 7.737729
688.40 7.76946
688.50 7.792338
688.60 7.7992
688.70 7.795083
688.80 7.788043
688.90 7.783584
689.00 7.786382
689.10 7.795383
689.20 7.805776
689.30 7.812024
689.40 7.809455
689.50 7.797767
689.60 7.781583
689.70 7.761786
689.80 7.736979
689.90 7.711644
690.00 7.689094
690.10 7.667405
690.20 7.646409
690.30 7.631184
690.40 7.63269
690.50 7.66414
690.60 7.730415
690.70 7.833811
690.80 7.973786
690.90 8.13118
691.00 8.283004
691.10 8.419893
691.20 8.530861
691.30 8.599465
691.40 8.614198
691.50 8.564258
691.60 8.448428
691.70 8.28991
691.80 8.126799
691.90 7.995135
692.00 7.928132
692.10 7.949506
692.20 8.063401
692.30 8.261368
692.40 8.515947
692.50 8.775698
692.60 8.994447
692.70 9.150301
692.80 9.239539
692.90 9.276924
693.00 9.28834
693.10 9.297871
693.20 9.322307
693.30 9.368173
693.40 9.430839
693.50 9.495258
693.60 9.5441
693.70 9.56612
693.80 9.566261
693.90 9.569591
694.00 9.603103
694.10 9.684186
694.20 9.827656
694.30 10.04259
694.40 10.32336
694.50 10.64797
694.60 10.98158
694.70 11.28952
694.80 11.543
694.90 11.71784
695.00 11.79918
695.10 11.78387
695.20 11.67947
695.30 11.50364
695.40 11.28362
695.50 11.05641
695.60 10.85683
695.70 10.70996
695.80 10.62961
695.90 10.61383
696.00 10.65359
696.10 10.73473
696.20 10.83717
696.30 10.94644
696.40 11.05639
696.50 11.16466
696.60 11.266
696.70 11.3489
696.80 11.39977
696.90 11.40715
697.00 11.37057
697.10 11.29973
697.20 11.21316
697.30 11.14167
697.40 11.11175
697.50 11.13645
697.60 11.21975
697.70 11.35023
697.80 11.50223
697.90 11.64797
698.00 11.76404
698.10 11.84073
698.20 11.88739
698.30 11.92089
698.40 11.95204
698.50 11.98956
698.60 12.03972
698.70 12.09429
698.80 12.13976
698.90 12.16938
699.00 12.17994
699.10 12.16894
699.20 12.13004
699.30 12.06018
699.40 11.97098
699.50 11.88051
699.60 11.80121
699.70 11.74288
699.80 11.71667
699.90 11.72984
700.00 11.78482
700.10 11.87933
700.20 12.00681
700.30 12.15644
700.40 12.31412
700.50 12.46842
700.60 12.61941
700.70 12.77
700.80 12.90959
700.90 13.02232
701.00 13.10318
701.10 13.15562
701.20 13.18774
701.30 13.20693
701.40 13.2173
701.50 13.23254
701.60 13.27017
701.70 13.3369
701.80 13.42824
701.90 13.53482
702.00 13.6436
702.10 13.74131
702.20 13.82351
702.30 13.89707
702.40 13.9747
702.50 14.07268
702.60 14.20492
702.70 14.379
702.80 14.59393
702.90 14.83223
703.00 15.06672
703.10 15.28125
703.20 15.47505
703.30 15.65173
703.40 15.81459
703.50 15.9673
703.60 16.11923
703.70 16.27482
703.80 16.42849
703.90 16.57327
704.00 16.70411
704.10 16.81121
704.20 16.88755
704.30 16.94022
704.40 16.98051
704.50 17.01476
704.60 17.0505
704.70 17.09135
704.80 17.13337
704.90 17.16259
705.00 17.13564
705.10 16.99351
705.20 16.68431
705.30 16.17542
705.40 15.47028
705.50 14.61666
705.60 13.69037
705.70 12.7728
705.80 11.94422
705.90 11.26767
706.00 10.7667
706.10 10.43267
706.20 10.23001
706.30 10.10967
706.40 10.03936
706.50 10.00735
706.60 10.01442
706.70 10.06543
706.80 10.15947
706.90 10.28983
707.00 10.44775
707.10 10.62104
707.20 10.78941
707.30 10.93181
707.40 11.03855
707.50 11.11127
707.60 11.16236
707.70 11.20641
707.80 11.25683
707.90 11.32482
708.00 11.4157
708.10 11.52656
708.20 11.64157
708.30 11.73272
708.40 11.76887
708.50 11.72452
708.60 11.59404
708.70 11.39001
708.80 11.1318
708.90 10.8469
709.00 10.56728
709.10 10.32403
709.20 10.13657
709.30 10.0105
709.40 9.937031
709.50 9.898533
709.60 9.879305
709.70 9.870627
709.80 9.867835
709.90 9.872692
710.00 9.890011
710.10 9.920902
710.20 9.967042
710.30 10.0296
710.40 10.11294
710.50 10.22352
710.60 10.36291
710.70 10.52385
710.80 10.69716
710.90 10.86707
711.00 11.00955
711.10 11.10755
711.20 11.1561
711.30 11.1573
711.40 11.12015
711.50 11.0648
711.60 11.01532
711.70 10.99141
711.80 11.00452
711.90 11.05503
712.00 11.13255
712.10 11.21335
712.20 11.26444
712.30 11.26224
712.40 11.19998
712.50 11.07821
712.60 10.90285
712.70 10.6951
712.80 10.48347
712.90 10.29877
713.00 10.16566
713.10 10.08971
713.20 10.06241
713.30 10.06604
713.40 10.0809
713.50 10.09141
713.60 10.08898
713.70 10.07263
713.80 10.04707
713.90 10.02203
714.00 10.01035
714.10 10.01912
714.20 10.04887
714.30 10.09149
714.40 10.14164
714.50 10.19952
714.60 10.26006
714.70 10.31655
714.80 10.36194
714.90 10.39394
715.00 10.41761
715.10 10.4379
715.20 10.46081
715.30 10.49588
715.40 10.54835
715.50 10.614
715.60 10.68535
715.70 10.7556
715.80 10.80867
715.90 10.83176
716.00 10.82532
716.10 10.80204
716.20 10.78008
716.30 10.77218
716.40 10.78521
716.50 10.81946
716.60 10.86653
716.70 10.91421
716.80 10.95282
716.90 10.97907
717.00 11.00033
717.10 11.02947
717.20 11.08272
717.30 11.16915
717.40 11.2822
717.50 11.40512
717.60 11.52208
717.70 11.62268
717.80 11.70457
717.90 11.77566
718.00 11.84778
718.10 11.93118
718.20 12.03268
718.30 12.15374
718.40 12.28753
718.50 12.4231
718.60 12.54714
718.70 12.64875
718.80 12.72542
718.90 12.77525
719.00 12.8018
719.10 12.81652
719.20 12.824
719.30 12.81955
719.40 12.79581
719.50 12.75067
719.60 12.68819
719.70 12.61385
719.80 12.52948
719.90 12.43451
720.00 12.33774
720.10 12.2535
720.20 12.19244
720.30 12.16366
720.40 12.16486
720.50 12.18372
720.60 12.20873
720.70 12.23404
720.80 12.26641
720.90 12.31446
721.00 12.37962
721.10 12.45844
721.20 12.54481
721.30 12.63407
721.40 12.7178
721.50 12.78275
721.60 12.82294
721.70 12.84321
721.80 12.86004
721.90 12.89571
722.00 12.96752
722.10 13.08526
722.20 13.24718
722.30 13.43766
722.40 13.63571
722.50 13.82162
722.60 13.98022
722.70 14.10321
722.80 14.18525
722.90 14.23355
723.00 14.27067
723.10 14.32085
723.20 14.398
723.30 14.50398
723.40 14.64596
723.50 14.83331
723.60 15.05044
723.70 15.25823
723.80 15.4253
723.90 15.54378
724.00 15.62064
724.10 15.66582
724.20 15.69702
724.30 15.74556
724.40 15.83806
724.50 15.97955
724.60 16.16323
724.70 16.38443
724.80 16.62235
724.90 16.836
725.00 16.99911
725.10 17.11326
725.20 17.18847
725.30 17.23222
725.40 17.25263
725.50 17.26077
725.60 17.27317
725.70 17.3003
725.80 17.34579
725.90 17.41986
726.00 17.52996
726.10 17.67012
726.20 17.82995
726.30 18.00105
726.40 18.16943
726.50 18.31489
726.60 18.41872
726.70 18.46959
726.80 18.47019
726.90 18.44482
727.00 18.43649
727.10 18.47366
727.20 18.55989
727.30 18.68318
727.40 18.81699
727.50 18.93291
727.60 19.00774
727.70 19.03
727.80 19.0114
727.90 18.98229
728.00 18.9696
728.10 18.99406
728.20 19.07954
728.30 19.22878
728.40 19.40502
728.50 19.57075
728.60 19.70765
728.70 19.81063
728.80 19.88922
728.90 19.95868
729.00 20.04147
729.10 20.16055
729.20 20.32354
729.30 20.5281
729.40 20.77637
729.50 21.06109
729.60 21.35085
729.70 21.61946
729.80 21.86107
729.90 22.07942
730.00 22.28135
730.10 22.48
730.20 22.69389
730.30 22.9336
730.40 23.19364
730.50 23.45908
730.60 23.71598
730.70 23.94998
730.80 24.15237
730.90 24.3356
731.00 24.5305
731.10 24.75866
731.20 25.01449
731.30 25.28413
731.40 25.572
731.50 25.8799
731.60 26.19246
731.70 26.49351
731.80 26.769
731.90 27.0072
732.00 27.20303
732.10 27.36075
732.20 27.48001
732.30 27.55585
732.40 27.58733
732.50 27.56726
732.60 27.49578
732.70 27.38969
732.80 27.26117
732.90 27.12143
733.00 26.99629
733.10 26.92108
733.20 26.93014
733.30 27.05026
733.40 27.29736
733.50 27.67827
733.60 28.18502
733.70 28.77457
733.80 29.37589
733.90 29.92399
734.00 30.3665
734.10 30.64577
734.20 30.71062
734.30 30.55044
734.40 30.20076
734.50 29.7323
734.60 29.23649
734.70 28.80041
734.80 28.48358
734.90 28.30081
735.00 28.22734
735.10 28.2176
735.20 28.22003
735.30 28.19952
735.40 28.14724
735.50 28.08019
735.60 28.0318
735.70 28.0367
735.80 28.11908
735.90 28.2882
736.00 28.54028
736.10 28.86346
736.20 29.24295
736.30 29.66214
736.40 30.10051
736.50 30.53596
736.60 30.94666
736.70 31.31376
736.80 31.62616
736.90 31.86754
737.00 32.00813
737.10 32.0122
737.20 31.86001
737.30 31.56277
737.40 31.16059
737.50 30.70958
737.60 30.26787
737.70 29.88723
737.80 29.60765
737.90 29.45505
738.00 29.43557
738.10 29.52585
738.20 29.67823
738.30 29.8514
738.40 30.03053
738.50 30.22356
738.60 30.44525
738.70 30.69959
738.80 30.96074
738.90 31.17504
739.00 31.28325
739.10 31.23748
739.20 31.01964
739.30 30.65095
739.40 30.18642
739.50 29.7108
739.60 29.31663
739.70 29.06811
739.80 29.0007
739.90 29.11301
740.00 29.3529
740.10 29.62795
740.20 29.8334
740.30 29.89445
740.40 29.78625
740.50 29.53738
740.60 29.22153
740.70 28.92553
740.80 28.72397
740.90 28.65874
741.00 28.7331
741.10 28.92788
741.20 29.19176
741.30 29.44157
741.40 29.5896
741.50 29.57063
741.60 29.37287
741.70 29.03414
741.80 28.6174
741.90 28.19243
742.00 27.82511
742.10 27.57509
742.20 27.4739
742.30 27.51694
742.40 27.67776
742.50 27.91018
742.60 28.15663
742.70 28.37526
742.80 28.55192
742.90 28.68691
743.00 28.77421
743.10 28.79138
743.20 28.72315
743.30 28.57896
743.40 28.37923
743.50 28.14579
743.60 27.9198
743.70 27.74699
743.80 27.64674
743.90 27.61233
744.00 27.61687
744.10 27.61668
744.20 27.55967
744.30 27.40848
744.40 27.16616
744.50 26.88187
744.60 26.61986
744.70 26.43585
744.80 26.3727
744.90 26.4497
745.00 26.64483
745.10 26.90448
745.20 27.1658
745.30 27.37718
745.40 27.50981
745.50 27.55133
745.60 27.50814
745.70 27.40924
745.80 27.2943
745.90 27.20512
746.00 27.18187
746.10 27.24606
746.20 27.39478
746.30 27.60885
746.40 27.85914
746.50 28.11555
746.60 28.35294
746.70 28.54892
746.80 28.68801
746.90 28.76845
747.00 28.79534
747.10 28.76923
747.20 28.69826
747.30 28.60221
747.40 28.49353
747.50 28.37925
747.60 28.26651
747.70 28.16959
747.80 28.11732
747.90 28.13598
748.00 28.23942
748.10 28.41992
748.20 28.65072
748.30 28.9045
748.40 29.15682
748.50 29.3923
748.60 29.60196
748.70 29.77534
748.80 29.9036
748.90 29.9813
749.00 30.00827
749.10 29.98015
749.20 29.89014
749.30 29.74483
749.40 29.57452
749.50 29.43602
749.60 29.38499
749.70 29.44918
749.80 29.62895
749.90 29.89472
750.00 30.18519
750.10 30.42877
750.20 30.57428
750.30 30.60514
750.40 30.54267
750.50 30.44319
750.60 30.3741
750.70 30.3853
750.80 30.49251
750.90 30.67145
751.00 30.86958
751.10 31.03523
751.20 31.13563
751.30 31.15886
751.40 31.11503
751.50 31.02955
751.60 30.93334
751.70 30.8568
751.80 30.82376
751.90 30.85233
752.00 30.94362
752.10 31.0789
752.20 31.22711
752.30 31.35398
752.40 31.43813
752.50 31.47021
752.60 31.45776
752.70 31.42676
752.80 31.40994
752.90 31.42982
753.00 31.48981
753.10 31.58653
753.20 31.71044
753.30 31.83829
753.40 31.95821
753.50 32.08671
753.60 32.25115
753.70 32.4748
753.80 32.77296
753.90 33.14606
754.00 33.5727
754.10 34.00707
754.20 34.38811
754.30 34.66427
754.40 34.80987
754.50 34.82323
754.60 34.72427
754.70 34.55277
754.80 34.35538
754.90 34.17015
755.00 34.03002
755.10 33.96243
755.20 33.97816
755.30 34.06746
755.40 34.2016
755.50 34.35363
755.60 34.50886
755.70 34.65533
755.80 34.78922
755.90 34.91201
756.00 35.02032
756.10 35.10338
756.20 35.14293
756.30 35.12133
756.40 35.03092
756.50 34.88375
756.60 34.71069
756.70 34.55052
756.80 34.44224
756.90 34.42357
757.00 34.51195
757.10 34.68239
757.20 34.8832
757.30 35.0643
757.40 35.18559
757.50 35.22662
757.60 35.20121
757.70 35.15183
757.80 35.13418
757.90 35.19112
758.00 35.33476
758.10 35.54433
758.20 35.76274
758.30 35.89126
758.40 35.80916
758.50 35.41721
758.60 34.65042
758.70 33.48746
758.80 31.97718
758.90 30.23651
759.00 28.42433
759.10 26.71728
759.20 25.27231
759.30 24.17911
759.40 23.44023
759.50 23.02611
759.60 22.8961
759.70 22.94642
759.80 23.05886
759.90 23.19641
760.00 23.35649
760.10 23.51066
760.20 23.63856
760.30 23.7346
760.40 23.79053
760.50 23.80225
760.60 23.77866
760.70 23.75014
760.80 23.76722
760.90 23.85216
761.00 23.99739
761.10 24.22351
761.20 24.55061
761.30 24.93371
761.40 25.32025
761.50 25.70159
761.60 26.06465
761.70 26.38108
761.80 26.62302
761.90 26.75611
762.00 26.74732
762.10 26.57645
762.20 26.24542
762.30 25.77441
762.40 25.18289
762.50 24.48065
762.60 23.68003
762.70 22.81126
762.80 21.92085
762.90 21.06644
763.00 20.30221
763.10 19.66479
763.20 19.1681
763.30 18.8043
763.40 18.5481
763.50 18.36775
763.60 18.22955
763.70 18.09852
763.80 17.94623
763.90 17.76253
764.00 17.55438
764.10 17.33938
764.20 17.13467
764.30 16.94123
764.40 16.7557
764.50 16.57845
764.60 16.40431
764.70 16.21771
764.80 15.99671
764.90 15.71878
765.00 15.36001
765.10 14.9079
765.20 14.37319
765.30 13.7953
765.40 13.22885
765.50 12.70432
765.60 12.22396
765.70 11.78561
765.80 11.37403
765.90 10.94558
766.00 10.45479
766.10 9.881116
766.20 9.226334
766.30 8.519443
766.40 7.823688
766.50 7.215581
766.60 6.765736
766.70 6.52313
766.80 6.508473
766.90 6.720385
767.00 7.134828
767.10 7.694761
767.20 8.327488
767.30 8.973753
767.40 9.588059
767.50 10.14162
767.60 10.6241
767.70 11.03829
767.80 11.39896
767.90 11.72373
768.00 12.02687
768.10 12.31619
768.20 12.59053
768.30 12.83918
768.40 13.04037
768.50 13.16981
768.60 13.21243
768.70 13.17206
768.80 13.06237
768.90 12.89336
769.00 12.66962
769.10 12.38944
769.20 12.0434
769.30 11.61995
769.40 11.10969
769.50 10.5093
769.60 9.830424
769.70 9.116833
769.80 8.444837
769.90 7.9024
770.00 7.565366
770.10 7.479041
770.20 7.651583
770.30 8.058589
770.40 8.653528
770.50 9.372737
770.60 10.15475
770.70 10.94952
770.80 11.70535
770.90 12.39336
771.00 13.02597
771.10 13.62373
771.20 14.18381
771.30 14.68393
771.40 15.09947
771.50 15.42526
771.60 15.68268
771.70 15.89842
771.80 16.09775
771.90 16.297
772.00 16.49917
772.10 16.71467
772.20 16.97641
772.30 17.30695
772.40 17.69327
772.50 18.10883
772.60 18.5394
772.70 18.97756
772.80 19.41295
772.90 19.82631
773.00 20.19656
773.10 20.51653
773.20 20.79097
773.30 21.04107
773.40 21.29287
773.50 21.55667
773.60 21.82716
773.70 22.09576
773.80 22.34624
773.90 22.54769
774.00 22.66424
774.10 22.67345
774.20 22.56978
774.30 22.36911
774.40 22.11462
774.50 21.86352
774.60 21.66601
774.70 21.53941
774.80 21.47495
774.90 21.46571
775.00 21.50662
775.10 21.56947
775.20 21.61069
775.30 21.60713
775.40 21.56782
775.50 21.524
775.60 21.50648
775.70 21.52324
775.80 21.55912
775.90 21.59396
776.00 21.61509
776.10 21.62799
776.20 21.64266
776.30 21.65357
776.40 21.65564
776.50 21.67012
776.60 21.74476
776.70 21.9198
776.80 22.20369
776.90 22.57456
777.00 22.9991
777.10 23.4428
777.20 23.86291
777.30 24.20586
777.40 24.425
777.50 24.5091
777.60 24.4737
777.70 24.34845
777.80 24.17457
777.90 23.98458
778.00 23.7925
778.10 23.59569
778.20 23.38685
778.30 23.16184
778.40 22.92463
778.50 22.69121
778.60 22.4888
778.70 22.35727
778.80 22.34062
778.90 22.46099
779.00 22.70638
779.10 23.03783
779.20 23.39434
779.30 23.71417
779.40 23.93523
779.50 23.98801
779.60 23.80913
779.70 23.37646
779.80 22.73728
779.90 22.00887
780.00 21.35304
780.10 20.93058
780.20 20.86465
780.30 21.2268
780.40 22.01513
780.50 23.12481
780.60 24.38494
780.70 25.61064
780.80 26.64154
780.90 27.39355
781.00 27.88037
781.10 28.17715
781.20 28.38304
781.30 28.57892
781.40 28.80439
781.50 29.06802
781.60 29.34726
781.70 29.57255
781.80 29.66069
781.90 29.58936
782.00 29.38642
782.10 29.09283
782.20 28.75585
782.30 28.41388
782.40 28.08472
782.50 27.76513
782.60 27.43737
782.70 27.09185
782.80 26.73284
782.90 26.37052
783.00 26.02436
783.10 25.74117
783.20 25.59732
783.30 25.63315
783.40 25.82574
783.50 26.13234
783.60 26.51174
783.70 26.91746
783.80 27.2993
783.90 27.63691
784.00 27.93628
784.10 28.20879
784.20 28.47456
784.30 28.75078
784.40 29.03725
784.50 29.3118
784.60 29.53557
784.70 29.68598
784.80 29.766
784.90 29.7622
785.00 29.64853
785.10 29.44157
785.20 29.20937
785.30 29.02886
785.40 28.9588
785.50 29.02759
785.60 29.22494
785.70 29.5052
785.80 29.80621
785.90 30.06901
786.00 30.24404
786.10 30.28981
786.20 30.18309
786.30 29.94412
786.40 29.63647
786.50 29.32787
786.60 29.06728
786.70 28.87323
786.80 28.72811
786.90 28.60526
787.00 28.48362
787.10 28.35706
787.20 28.23787
787.30 28.14945
787.40 28.12004
787.50 28.17978
787.60 28.35166
787.70 28.64207
787.80 29.0338
787.90 29.49018
788.00 29.96256
788.10 30.40103
788.20 30.77571
788.30 31.07119
788.40 31.2973
788.50 31.48802
788.60 31.65801
788.70 31.80758
788.80 31.94477
788.90 32.0751
789.00 32.19666
789.10 32.29569
789.20 32.34766
789.30 32.31659
789.40 32.16068
789.50 31.85333
789.60 31.40035
789.70 30.84405
789.80 30.2424
789.90 29.66469
790.00 29.20552
790.10 28.95549
790.20 28.95038
790.30 29.15758
790.40 29.48609
790.50 29.81867
790.60 30.04371
790.70 30.0894
790.80 29.94784
790.90 29.64859
791.00 29.25426
791.10 28.85998
791.20 28.56605
791.30 28.43774
791.40 28.48267
791.50 28.65417
791.60 28.87125
791.70 29.05447
791.80 29.15643
791.90 29.17749
792.00 29.14844
792.10 29.0986
792.20 29.04841
792.30 29.03125
792.40 29.0751
792.50 29.186
792.60 29.35337
792.70 29.56112
792.80 29.79416
792.90 30.04367
793.00 30.32925
793.10 30.67694
793.20 31.08288
793.30 31.50294
793.40 31.87329
793.50 32.12786
793.60 32.2065
793.70 32.07754
793.80 31.74834
793.90 31.2578
794.00 30.66436
794.10 30.03086
794.20 29.41555
794.30 28.84587
794.40 28.29788
794.50 27.73045
794.60 27.13829
794.70 26.56815
794.80 26.10568
794.90 25.86074
795.00 25.93124
795.10 26.36258
795.20 27.13287
795.30 28.15179
795.40 29.27929
795.50 30.35421
795.60 31.22484
795.70 31.79995
795.80 32.07419
795.90 32.1116
796.00 32.00018
796.10 31.81803
796.20 31.64113
796.30 31.54729
796.40 31.59819
796.50 31.81579
796.60 32.18247
796.70 32.65913
796.80 33.18507
796.90 33.6891
797.00 34.10919
797.10 34.39173
797.20 34.48987
797.30 34.37837
797.40 34.08278
797.50 33.674
797.60 33.22275
797.70 32.78699
797.80 32.4172
797.90 32.14272
798.00 31.95874
798.10 31.82615
798.20 31.69181
798.30 31.50842
798.40 31.25374
798.50 30.94272
798.60 30.63428
798.70 30.41504
798.80 30.34698
798.90 30.44873
799.00 30.70296
799.10 31.05247
799.20 31.42241
799.30 31.75295
799.40 32.01116
799.50 32.19272
799.60 32.31716
799.70 32.41803
799.80 32.53197
799.90 32.6915
800.00 32.91247
800.10 33.18307
800.20 33.48485
800.30 33.80184
800.40 34.12429
800.50 34.45461
800.60 34.78927
800.70 35.12368
800.80 35.46677
800.90 35.83286
801.00 36.22911
801.10 36.6507
801.20 37.08498
801.30 37.5116
801.40 37.90749
801.50 38.25625
801.60 38.54395
801.70 38.7623
801.80 38.92148
801.90 39.04478
802.00 39.16565
802.10 39.31573
802.20 39.51198
802.30 39.77949
802.40 40.15527
802.50 40.6596
802.60 41.27969
802.70 41.96828
802.80 42.6532
802.90 43.26557
803.00 43.75663
803.10 44.09928
803.20 44.28346
803.30 44.31777
803.40 44.23108
803.50 44.07412
803.60 43.91083
803.70 43.7857
803.80 43.71374
803.90 43.7011
804.00 43.75607
804.10 43.88741
804.20 44.09906
804.30 44.37906
804.40 44.69821
804.50 45.03729
804.60 45.41169
804.70 45.85156
804.80 46.38134
804.90 47.01591
805.00 47.75508
805.10 48.56792
805.20 49.39425
805.30 50.17144
805.40 50.84732
805.50 51.39698
805.60 51.82802
805.70 52.16855
805.80 52.46494
805.90 52.75559
806.00 53.04367
806.10 53.30954
806.20 53.52825
806.30 53.67989
806.40 53.75234
806.50 53.75459
806.60 53.72667
806.70 53.72191
806.80 53.78518
806.90 53.93708
807.00 54.18291
807.10 54.52218
807.20 54.94787
807.30 55.4471
807.40 56.00099
807.50 56.59469
807.60 57.2185
807.70 57.85578
807.80 58.48268
807.90 59.08391
808.00 59.65793
808.10 60.20933
808.20 60.73748
808.30 61.23526
808.40 61.68078
808.50 62.03668
808.60 62.27991
808.70 62.42557
808.80 62.51848
808.90 62.60467
809.00 62.71659
809.10 62.87361
809.20 63.08442
809.30 63.3275
809.40 63.54822
809.50 63.68689
809.60 63.71346
809.70 63.63892
809.80 63.51672
809.90 63.42672
810.00 63.42904
810.10 63.54037
810.20 63.74115
810.30 64.01115
810.40 64.35329
810.50 64.77008
810.60 65.24687
810.70 65.76394
810.80 66.3057
810.90 66.86559
811.00 67.43307
811.10 67.97739
811.20 68.44881
811.30 68.80233
811.40 69.03858
811.50 69.21544
811.60 69.41657
811.70 69.71081
811.80 70.12357
811.90 70.64555
812.00 71.24547
812.10 71.87622
812.20 72.49999
812.30 73.08732
812.40 73.6172
812.50 74.09432
812.60 74.54452
812.70 75.00276
812.80 75.47838
812.90 75.94957
813.00 76.39383
813.10 76.79635
813.20 77.15489
813.30 77.49183
813.40 77.85396
813.50 78.28303
813.60 78.77554
813.70 79.27702
813.80 79.69986
813.90 79.93284
814.00 79.88589
814.10 79.53632
814.20 78.93208
814.30 78.1692
814.40 77.36277
814.50 76.62421
814.60 76.03868
814.70 75.6484
814.80 75.45573
814.90 75.44283
815.00 75.58122
815.10 75.8379
815.20 76.18587
815.30 76.61456
815.40 77.11397
815.50 77.64701
815.60 78.15762
815.70 78.5972
815.80 78.95157
815.90 79.23702
816.00 79.49937
816.10 79.80747
816.20 80.21891
816.30 80.75772
816.40 81.4158
816.50 82.17805
816.60 83.02902
816.70 83.93479
816.80 84.83362
816.90 85.66017
817.00 86.36681
817.10 86.92214
817.20 87.29749
817.30 87.4588
817.40 87.3597
817.50 86.94438
817.60 86.14542
817.70 84.88403
817.80 83.07934
817.90 80.65566
818.00 77.6127
818.10 74.10107
818.20 70.45093
818.30 67.11318
818.40 64.53996
818.50 63.06412
818.60 62.81403
818.70 63.67744
818.80 65.29317
818.90 67.10326
819.00 68.47911
819.10 68.89535
819.20 68.07802
819.30 66.10511
819.40 63.38065
819.50 60.48471
819.60 58.0029
819.70 56.40581
819.80 55.98364
819.90 56.80834
820.00 58.72211
820.10 61.37166
820.20 64.30256
820.30 67.06518
820.40 69.32335
820.50 70.90915
820.60 71.83592
820.70 72.24264
820.80 72.30912
820.90 72.23666
821.00 72.21212
821.10 72.35886
821.20 72.71806
821.30 73.24884
821.40 73.85756
821.50 74.45054
821.60 74.97149
821.70 75.42111
821.80 75.84305
821.90 76.29757
822.00 76.82546
822.10 77.43437
822.20 78.10936
822.30 78.82235
822.40 79.54665
822.50 80.26623
822.60 80.97612
822.70 81.66924
822.80 82.32386
822.90 82.90129
823.00 83.36648
823.10 83.69244
823.20 83.86835
823.30 83.9168
823.40 83.89479
823.50 83.87968
823.60 83.95328
823.70 84.17976
823.80 84.59289
823.90 85.1837
824.00 85.89013
824.10 86.62024
824.20 87.29164
824.30 87.85742
824.40 88.29608
824.50 88.61704
824.60 88.83051
824.70 88.90727
824.80 88.79596
824.90 88.4442
825.00 87.81908
825.10 86.93733
825.20 85.86177
825.30 84.68641
825.40 83.54433
825.50 82.5998
825.60 82.00672
825.70 81.85738
825.80 82.15538
825.90 82.80989
826.00 83.68045
826.10 84.62725
826.20 85.52667
826.30 86.28306
826.40 86.8275
826.50 87.10084
826.60 87.07015
826.70 86.74745
826.80 86.17219
826.90 85.41049
827.00 84.55325
827.10 83.70783
827.20 82.99798
827.30 82.54863
827.40 82.44108
827.50 82.67807
827.60 83.17678
827.70 83.78422
827.80 84.30874
827.90 84.57159
828.00 84.45494
828.10 83.93101
828.20 83.07128
828.30 82.01767
828.40 80.92044
828.50 79.87518
828.60 78.91056
828.70 77.98751
828.80 77.05708
828.90 76.11646
829.00 75.20014
829.10 74.36915
829.20 73.70703
829.30 73.29109
829.40 73.13499
829.50 73.1728
829.60 73.29279
829.70 73.36029
829.80 73.24833
829.90 72.89802
830.00 72.3252
830.10 71.61124
830.20 70.86939
830.30 70.19465
830.40 69.65707
830.50 69.30729
830.60 69.17784
830.70 69.26538
830.80 69.54122
830.90 69.9659
831.00 70.47725
831.10 71.01186
831.20 71.53753
831.30 72.04434
831.40 72.54206
831.50 73.07081
831.60 73.67627
831.70 74.38732
831.80 75.2091
831.90 76.12209
832.00 77.06035
832.10 77.93009
832.20 78.63377
832.30 79.07799
832.40 79.20599
832.50 79.01383
832.60 78.56337
832.70 77.98924
832.80 77.45795
832.90 77.10045
833.00 76.96641
833.10 77.01935
833.20 77.17164
833.30 77.30604
833.40 77.32306
833.50 77.18247
833.60 76.92749
833.70 76.68053
833.80 76.58179
833.90 76.72779
834.00 77.10967
834.10 77.60284
834.20 78.05072
834.30 78.34157
834.40 78.4379
834.50 78.3779
834.60 78.23302
834.70 78.08151
834.80 77.99163
834.90 77.99226
835.00 78.04728
835.10 78.08296
835.20 78.04169
835.30 77.90127
835.40 77.69184
835.50 77.49894
835.60 77.41882
835.70 77.49884
835.80 77.72726
835.90 78.05579
836.00 78.42769
836.10 78.77975
836.20 79.05222
836.30 79.23181
836.40 79.37431
836.50 79.57492
836.60 79.90963
836.70 80.38572
836.80 80.94323
836.90 81.47303
837.00 81.81869
837.10 81.82697
837.20 81.41734
837.30 80.61442
837.40 79.54012
837.50 78.39665
837.60 77.44306
837.70 76.9258
837.80 76.95731
837.90 77.45234
838.00 78.19925
838.10 78.9747
838.20 79.56809
838.30 79.77898
838.40 79.48319
838.50 78.67302
838.60 77.45805
838.70 76.03878
838.80 74.6488
838.90 73.50335
839.00 72.73826
839.10 72.37519
839.20 72.4003
839.30 72.81208
839.40 73.60583
839.50 74.73081
839.60 76.0531
839.70 77.4368
839.80 78.80302
839.90 80.10312
840.00 81.26377
840.10 82.18347
840.20 82.7985
840.30 83.11234
840.40 83.18698
840.50 83.12549
840.60 83.0292
840.70 82.96573
840.80 82.93346
840.90 82.92268
841.00 83.03211
841.10 83.37595
841.20 83.96077
841.30 84.69762
841.40 85.46562
841.50 86.12904
841.60 86.51549
841.70 86.46952
841.80 85.91409
841.90 84.88988
842.00 83.55429
842.10 82.14095
842.20 80.92364
842.30 80.11667
842.40 79.7886
842.50 79.89568
842.60 80.3269
842.70 80.8897
842.80 81.31023
842.90 81.34299
843.00 80.83505
843.10 79.65975
843.20 77.75539
843.30 75.19968
843.40 72.21084
843.50 69.1362
843.60 66.34779
843.70 64.12505
843.80 62.58992
843.90 61.67166
844.00 61.14304
844.10 60.72527
844.20 60.20097
844.30 59.43149
844.40 58.36594
844.50 57.11104
844.60 55.88882
844.70 54.91159
844.80 54.27647
844.90 53.91039
845.00 53.63963
845.10 53.27958
845.20 52.69073
845.30 51.8262
845.40 50.74348
845.50 49.58903
845.60 48.53946
845.70 47.74516
845.80 47.31544
845.90 47.29047
846.00 47.61796
846.10 48.16574
846.20 48.77164
846.30 49.2962
846.40 49.65361
846.50 49.81601
846.60 49.80434
846.70 49.67295
846.80 49.46711
846.90 49.21582
847.00 48.95531
847.10 48.72242
847.20 48.54777
847.30 48.4567
847.40 48.45435
847.50 48.5278
847.60 48.67234
847.70 48.88073
847.80 49.11081
847.90 49.3072
848.00 49.44902
848.10 49.55519
848.20 49.67029
848.30 49.8521
848.40 50.14126
848.50 50.55187
848.60 51.08409
848.70 51.73618
848.80 52.50816
848.90 53.35973
849.00 54.20315
849.10 54.95828
849.20 55.57098
849.30 55.99418
849.40 56.17089
849.50 56.06648
849.60 55.71565
849.70 55.21636
849.80 54.70627
849.90 54.35434
850.00 54.28561
850.10 54.47351
850.20 54.76175
850.30 54.99631
850.40 55.08481
850.50 54.96988
850.60 54.63443
850.70 54.12206
850.80 53.54197
850.90 53.03948
851.00 52.73189
851.10 52.64819
851.20 52.72612
851.30 52.8145
851.40 52.73347
851.50 52.38519
851.60 51.75883
851.70 50.87315
851.80 49.7741
851.90 48.57297
852.00 47.44629
852.10 46.60377
852.20 46.21479
852.30 46.34691
852.40 46.97448
852.50 48.01398
852.60 49.33309
852.70 50.76351
852.80 52.13722
852.90 53.33458
853.00 54.30514
853.10 55.06635
853.20 55.68731
853.30 56.24287
853.40 56.76614
853.50 57.23511
853.60 57.62472
853.70 57.95375
853.80 58.25662
853.90 58.54466
854.00 58.81062
854.10 59.05632
854.20 59.32175
854.30 59.66159
854.40 60.10431
854.50 60.64588
854.60 61.27699
854.70 61.98424
854.80 62.73911
854.90 63.4988
855.00 64.2124
855.10 64.82246
855.20 65.27967
855.30 65.57441
855.40 65.73414
855.50 65.78741
855.60 65.72034
855.70 65.49697
855.80 65.11993
855.90 64.64921
856.00 64.16459
856.10 63.74714
856.20 63.48097
856.30 63.44216
856.40 63.66683
856.50 64.11657
856.60 64.69435
856.70 65.27647
856.80 65.7399
856.90 65.99696
857.00 66.03023
857.10 65.88414
857.20 65.63094
857.30 65.35064
857.40 65.11924
857.50 64.99698
857.60 65.01933
857.70 65.18169
857.80 65.42819
857.90 65.6915
858.00 65.9269
858.10 66.1138
858.20 66.25728
858.30 66.39346
858.40 66.58266
858.50 66.87459
858.60 67.27714
858.70 67.751
858.80 68.21106
858.90 68.56083
859.00 68.73731
859.10 68.73241
859.20 68.60648
859.30 68.46084
859.40 68.40256
859.50 68.50671
859.60 68.7829
859.70 69.19023
859.80 69.66198
859.90 70.11987
860.00 70.49405
860.10 70.75297
860.20 70.91516
860.30 71.0238
860.40 71.11826
860.50 71.21828
860.60 71.29971
860.70 71.30041
860.80 71.13212
860.90 70.71322
861.00 70.02749
861.10 69.11379
861.20 68.02013
861.30 66.8056
861.40 65.54815
861.50 64.33425
861.60 63.25673
861.70 62.3983
861.80 61.81084
861.90 61.48626
862.00 61.35359
862.10 61.30962
862.20 61.2556
862.30 61.11224
862.40 60.81594
862.50 60.31839
862.60 59.60906
862.70 58.74767
862.80 57.85881
862.90 57.07315
863.00 56.47603
863.10 56.11297
863.20 55.98796
863.30 56.08921
863.40 56.40738
863.50 56.90748
863.60 57.51951
863.70 58.16889
863.80 58.79795
863.90 59.37651
864.00 59.89701
864.10 60.34458
864.20 60.69301
864.30 60.93173
864.40 61.07023
864.50 61.12864
864.60 61.14601
864.70 61.1674
864.80 61.24027
864.90 61.43435
865.00 61.82727
865.10 62.46123
865.20 63.31985
865.30 64.31878
865.40 65.33527
865.50 66.26129
865.60 67.02914
865.70 67.59507
865.80 67.93578
865.90 68.06369
866.00 68.02688
866.10 67.89452
866.20 67.74692
866.30 67.6562
866.40 67.654
866.50 67.71685
866.60 67.7735
866.70 67.77257
866.80 67.69454
866.90 67.53354
867.00 67.312
867.10 67.09508
867.20 66.98136
867.30 67.07505
867.40 67.44811
867.50 68.10101
867.60 68.94667
867.70 69.82415
867.80 70.55284
867.90 70.99611
868.00 71.1014
868.10 70.89623
868.20 70.48557
868.30 69.99536
868.40 69.52004
868.50 69.10987
868.60 68.76139
868.70 68.40676
868.80 67.92495
868.90 67.19922
869.00 66.15173
869.10 64.76285
869.20 63.08941
869.30 61.26351
869.40 59.47265
869.50 57.90067
869.60 56.6723
869.70 55.85808
869.80 55.47397
869.90 55.48368
870.00 55.81208
870.10 56.36256
870.20 57.04119
870.30 57.76362
870.40 58.45892
870.50 59.05829
870.60 59.49454
870.70 59.70599
870.80 59.63901
870.90 59.27145
871.00 58.62868
871.10 57.79532
871.20 56.90314
871.30 56.09252
871.40 55.47942
871.50 55.12687
871.60 55.03679
871.70 55.16988
871.80 55.47335
871.90 55.89296
872.00 56.37126
872.10 56.87283
872.20 57.39717
872.30 57.97849
872.40 58.68844
872.50 59.58554
872.60 60.67232
872.70 61.88274
872.80 63.09537
872.90 64.17559
873.00 65.00832
873.10 65.51302
873.20 65.65297
873.30 65.45959
873.40 65.03753
873.50 64.53292
873.60 64.09538
873.70 63.84689
873.80 63.85446
873.90 64.15152
874.00 64.75705
874.10 65.66341
874.20 66.82227
874.30 68.11286
874.40 69.34109
874.50 70.30566
874.60 70.86615
874.70 70.97379
874.80 70.69264
874.90 70.18092
875.00 69.6622
875.10 69.35771
875.20 69.40409
875.30 69.84731
875.40 70.66576
875.50 71.80013
875.60 73.19328
875.70 74.7663
875.80 76.4025
875.90 77.92604
876.00 79.10815
876.10 79.77454
876.20 79.86695
876.30 79.42226
876.40 78.5367
876.50 77.38695
876.60 76.26424
876.70 75.50707
876.80 75.37971
876.90 76.02048
877.00 77.4084
877.10 79.42603
877.20 81.92537
877.30 84.69118
877.40 87.43439
877.50 89.79827
877.60 91.39626
877.70 91.95391
877.80 91.40518
877.90 89.90092
878.00 87.7648
878.10 85.39825
878.20 83.2259
878.30 81.60189
878.40 80.71622
878.50 80.57392
878.60 81.02826
878.70 81.88034
878.80 82.95541
878.90 84.10974
879.00 85.20886
879.10 86.14862
879.20 86.93065
879.30 87.61222
879.40 88.22438
879.50 88.75501
879.60 89.11388
879.70 89.14973
879.80 88.71012
879.90 87.69079
880.00 86.09386
880.10 84.05519
880.20 81.79938
880.30 79.60044
880.40 77.76331
880.50 76.56431
880.60 76.16037
880.70 76.58839
880.80 77.79242
880.90 79.63653
881.00 81.96916
881.10 84.66513
881.20 87.61869
881.30 90.71401
881.40 93.79173
881.50 96.66077
881.60 99.11362
881.70 100.9527
881.80 102.0407
881.90 102.3059
882.00 101.8024
882.10 100.7269
882.20 99.31282
882.30 97.77844
882.40 96.32037
882.50 95.09868
882.60 94.24818
882.70 93.87154
882.80 93.97362
882.90 94.44098
883.00 95.14989
883.10 96.04983
883.20 97.12948
883.30 98.35218
883.40 99.62727
883.50 100.8577
883.60 102.0012
883.70 103.0802
883.80 104.105
883.90 105.0186
884.00 105.6781
884.10 105.8667
884.20 105.3959
884.30 104.1818
884.40 102.2613
884.50 99.78493
884.60 97.06597
884.70 94.59174
884.80 92.87348
884.90 92.30112
885.00 93.04836
885.10 94.99737
885.20 97.7533
885.30 100.7079
885.40 103.1717
885.50 104.5629
885.60 104.5173
885.70 102.9194
885.80 99.91662
885.90 95.90101
886.00 91.4526
886.10 87.24099
886.20 83.87254
886.30 81.70053
886.40 80.75921
886.50 80.81697
886.60 81.45479
886.70 82.14562
886.80 82.35682
886.90 81.68368
887.00 79.96972
887.10 77.38038
887.20 74.35383
887.30 71.49476
887.40 69.40584
887.50 68.49507
887.60 68.8908
887.70 70.45265
887.80 72.83607
887.90 75.59439
888.00 78.29823
888.10 80.59118
888.20 82.1968
888.30 83.03435
888.40 83.26468
888.50 83.17954
888.60 83.05467
888.70 83.07179
888.80 83.30506
888.90 83.71849
889.00 84.19424
889.10 84.55147
889.20 84.58273
889.30 84.10251
889.40 83.01878
889.50 81.45387
889.60 79.7889
889.70 78.48777
889.80 77.95457
889.90 78.4657
890.00 80.11422
890.10 82.75943
890.20 86.02934
890.30 89.42644
890.40 92.42031
890.50 94.5619
890.60 95.58301
890.70 95.44296
890.80 94.32707
890.90 92.60437
891.00 90.73131
891.10 89.14222
891.20 88.15328
891.30 87.94907
891.40 88.62062
891.50 90.15706
891.60 92.3831
891.70 94.99382
891.80 97.60645
891.90 99.81888
892.00 101.3085
892.10 101.8664
892.20 101.4406
892.30 100.1391
892.40 98.21669
892.50 96.02782
892.60 93.96413
892.70 92.41496
892.80 91.68284
892.90 91.92421
893.00 93.14103
893.10 95.14195
893.20 97.56125
893.30 99.90389
893.40 101.6473
893.50 102.3878
893.60 101.9124
893.70 100.2634
893.80 97.70913
893.90 94.62187
894.00 91.39483
894.10 88.39882
894.20 85.94398
894.30 84.22211
894.40 83.30593
894.50 83.15163
894.60 83.623
894.70 84.54885
894.80 85.73051
894.90 86.98435
895.00 88.17629
895.10 89.23965
895.20 90.23977
895.30 91.36773
895.40 92.82502
895.50 94.69937
895.60 96.90327
895.70 99.21628
895.80 101.331
895.90 102.9147
896.00 103.7055
896.10 103.5831
896.20 102.6009
896.30 100.973
896.40 99.02129
896.50 97.07506
896.60 95.38268
896.70 94.11692
896.80 93.38941
896.90 93.24736
897.00 93.67892
897.10 94.60479
897.20 95.91604
897.30 97.50685
897.40 99.25527
897.50 101.0193
897.60 102.6483
897.70 103.9897
897.80 104.9206
897.90 105.4091
898.00 105.5444
898.10 105.5315
898.20 105.6755
898.30 106.2989
898.40 107.5861
898.50 109.4726
898.60 111.6418
898.70 113.6198
898.80 114.9574
898.90 115.4056
899.00 114.9396
899.10 113.7093
899.20 111.9831
899.30 110.0596
899.40 108.253
899.50 106.8695
899.60 106.063
899.70 105.7652
899.80 105.8893
899.90 106.4976
900.00 104.8929
900.10 103.6337
900.20 103.0759
900.30 103.7026
900.40 105.3399
900.50 109.8045
900.60 114.0261
900.70 117.0756
900.80 119.4803
900.90 122.1371
901.00 119.6953
901.10 117.2017
901.20 113.6546
901.30 111.2328
901.40 110.1416
901.50 110.1592
901.60 109.9767
901.70 112.9948
901.80 116.093
901.90 117.3588
902.00 116.9757
902.10 115.584
902.20 113.0498
902.30 109.9871
902.40 104.2349
902.50 98.6696
902.60 94.73788
902.70 90.63402
902.80 87.66628
902.90 86.98776
903.00 87.45047
903.10 89.65568
903.20 92.18166
903.30 96.2646
903.40 101.6509
903.50 107.6497
903.60 112.8877
903.70 117.5748
903.80 122.3707
903.90 126.886
904.00 127.1894
904.10 126.4147
904.20 124.0277
904.30 121.0749
904.40 118.0277
904.50 114.7148
904.60 111.7652
904.70 112.5613
904.80 113.1865
904.90 115.3711
905.00 117.6463
905.10 118.598
905.20 117.8525
905.30 116.9184
905.40 112.4234
905.50 108.6742
905.60 106.5585
905.70 105.3923
905.80 105.2833
905.90 105.6665
906.00 105.4845
906.10 105.2683
906.20 104.6413
906.30 102.0912
906.40 100.2758
906.50 100.0271
906.60 101.2706
906.70 102.5365
906.80 103.5279
906.90 104.5441
907.00 105.0714
907.10 103.8934
907.20 102.2129
907.30 101.6849
907.40 102.5546
907.50 105.1618
907.60 107.7977
907.70 111.2815
907.80 114.758
907.90 118.3953
908.00 120.8113
908.10 121.9528
908.20 121.6877
908.30 121.4712
908.40 120.2599
908.50 118.9811
908.60 117.0777
908.70 114.9022
908.80 113.418
908.90 113.4473
909.00 114.1087
909.10 115.2974
909.20 116.4893
909.30 117.7081
909.40 118.899
909.50 120.3071
909.60 121.4618
909.70 122.4493
909.80 124.6714
909.90 127.1335
910.00 127.1412
910.10 126.8913
910.20 126.6809
910.30 126.4727
910.40 126.0819
910.50 125.0337
910.60 123.717
910.70 123.2745
910.80 124.32
910.90 123.6628
911.00 121.8758
911.10 121.0935
911.20 122.2934
911.30 122.9379
911.40 125.5372
911.50 126.9851
911.60 127.844
911.70 130.4257
911.80 132.9764
911.90 134.0128
912.00 134.5695
912.10 135.9615
912.20 137.814
912.30 140.5403
912.40 142.8274
912.50 143.1324
912.60 141.3163
912.70 139.4382
912.80 136.3028
912.90 132.2401
913.00 129.8958
913.10 128.6397
913.20 129.3553
913.30 132.0983
913.40 134.9871
913.50 137.498
913.60 139.6501
913.70 141.098
913.80 141.6321
913.90 138.6041
914.00 133.424
914.10 128.1718
914.20 122.2939
914.30 116.366
914.40 115.7751
914.50 116.6372
914.60 120.4225
914.70 125.1863
914.80 128.2751
914.90 128.8438
915.00 129.6696
915.10 129.3676
915.20 128.612
915.30 129.1366
915.40 130.9892
915.50 134.122
915.60 138.9306
915.70 144.0768
915.80 149.7305
915.90 154.0157
916.00 155.2117
916.10 154.0592
916.20 151.0094
916.30 146.4629
916.40 142.1857
916.50 139.0219
916.60 137.9908
916.70 139.8307
916.80 142.4536
916.90 145.8265
917.00 148.6557
917.10 150.4727
917.20 151.0496
917.30 151.0745
917.40 149.5172
917.50 147.7347
917.60 143.9901
917.70 140.0945
917.80 137.7374
917.90 137.7053
918.00 137.7006
918.10 138.5188
918.20 139.2572
918.30 140.7907
918.40 142.0504
918.50 142.3825
918.60 142.1011
918.70 142.5352
918.80 144.2492
918.90 146.3586
919.00 152.2613
919.10 159.1296
919.20 165.1055
919.30 169.0419
919.40 171.0731
919.50 168.1836
919.60 165.1369
919.70 158.9318
919.80 153.7926
919.90 152.1328
920.00 153.626
920.10 155.8058
920.20 159.2441
920.30 162.0565
920.40 164.5097
920.50 165.7706
920.60 164
920.70 160.358
920.80 155.8461
920.90 149.106
921.00 142.0949
921.10 137.5066
921.20 134.144
921.30 132.7147
921.40 132.9778
921.50 134.6193
921.60 138.0314
921.70 141.396
921.80 144.2078
921.90 146.7435
922.00 148.4327
922.10 149.0894
922.20 148.2427
922.30 145.8315
922.40 143.6701
922.50 142.724
922.60 141.4725
922.70 141.2945
922.80 141.3432
922.90 140.7311
923.00 139.102
923.10 136.7653
923.20 133.3938
923.30 131.2981
923.40 129.9772
923.50 129.0543
923.60 129.43
923.70 130.5868
923.80 131.4603
923.90 131.8124
924.00 132.207
924.10 134.585
924.20 137.5855
924.30 142.3427
924.40 146.8332
924.50 150.5126
924.60 152.9656
924.70 154.194
924.80 149.4938
924.90 145.4742
925.00 140.0572
925.10 134.8482
925.20 130.6363
925.30 128.1087
925.40 126.857
925.50 129.4376
925.60 132.0304
925.70 135.9958
925.80 139.949
925.90 144.2287
926.00 147.5837
926.10 148.8283
926.20 146.4111
926.30 145.1924
926.40 143.4377
926.50 142.8683
926.60 142.5879
926.70 142.1851
926.80 142.6965
926.90 145.4175
927.00 146.5829
927.10 146.0429
927.20 145.8251
927.30 144.6887
927.40 143.4867
927.50 141.6552
927.60 138.2188
927.70 134.6652
927.80 132.0363
927.90 129.3645
928.00 127.5205
928.10 126.6984
928.20 127.0364
928.30 129.1222
928.40 131.7838
928.50 134.4172
928.60 136.2229
928.70 136.7845
928.80 135.8502
928.90 133.7111
929.00 131.2404
929.10 129.7395
929.20 130.1157
929.30 131.1203
929.40 134.5016
929.50 137.4531
929.60 139.1774
929.70 140.0336
929.80 140.1559
929.90 138.573
930.00 137.5266
930.10 137.0769
930.20 135.5055
930.30 133.8429
930.40 132.0596
930.50 130.3561
930.60 128.887
930.70 128.1516
930.80 128.0638
930.90 128.3867
931.00 130.683
931.10 133.9819
931.20 137.2649
931.30 139.3436
931.40 142.0078
931.50 144.1543
931.60 144.3344
931.70 144.5425
931.80 143.6186
931.90 142.9281
932.00 142.3063
932.10 142.7545
932.20 142.6783
932.30 142.7785
932.40 142.6849
932.50 141.7762
932.60 141.3988
932.70 142.3868
932.80 143.651
932.90 143.784
933.00 144.4381
933.10 145.005
933.20 144.2943
933.30 143.0244
933.40 141.3385
933.50 139.0127
933.60 136.7306
933.70 135.6675
933.80 135.6724
933.90 135.7282
934.00 137.0697
934.10 139.0155
934.20 140.9507
934.30 142.497
934.40 143.6137
934.50 144.7749
934.60 146.0646
934.70 147.384
934.80 147.9622
934.90 148.3025
935.00 148.4223
935.10 145.4354
935.20 142.0337
935.30 138.6421
935.40 134.8958
935.50 130.879
935.60 128.7416
935.70 128.738
935.80 128.8883
935.90 132.7354
936.00 138.0477
936.10 143.282
936.20 147.9064
936.30 152.1363
936.40 155.6632
936.50 157.5232
936.60 159.0012
936.70 157.0302
936.80 153.5998
936.90 150.1732
937.00 147.0511
937.10 144.5292
937.20 142.313
937.30 141.0048
937.40 139.9441
937.50 139.9657
937.60 140.4459
937.70 140.8872
937.80 140.5633
937.90 139.631
938.00 138.8746
938.10 139.1219
938.20 139.7347
938.30 140.1845
938.40 140.4461
938.50 140.7024
938.60 141.4963
938.70 141.8608
938.80 142.2157
938.90 142.8869
939.00 144.2817
939.10 146.0999
939.20 148.7644
939.30 151.4174
939.40 153.6412
939.50 155.368
939.60 157.0492
939.70 156.1825
939.80 153.8327
939.90 151.0995
940.00 146.9425
940.10 143.2905
940.20 140.3977
940.30 139.172
940.40 138.3277
940.50 140.4787
940.60 143.9601
940.70 147.4635
940.80 150.7312
940.90 152.704
941.00 154.3695
941.10 155.5308
941.20 156.8242
941.30 156.422
941.40 155.1494
941.50 153.9269
941.60 153.1461
941.70 152.3834
941.80 151.4682
941.90 149.5472
942.00 147.1189
942.10 145.5179
942.20 145.5771
942.30 145.9947
942.40 147.1087
942.50 148.15
942.60 149.2024
942.70 151.1849
942.80 154.1111
942.90 156.8656
943.00 159.1751
943.10 161.4104
943.20 163.1859
943.30 164.642
943.40 166.0917
943.50 167.6907
943.60 167.4032
943.70 166.7096
943.80 164.403
943.90 162.4993
944.00 160.2344
944.10 157.633
944.20 155.0767
944.30 152.932
944.40 151.0779
944.50 149.2802
944.60 148.5321
944.70 147.5533
944.80 147.1591
944.90 148.4313
945.00 150.1113
945.10 151.64
945.20 153.4961
945.30 155.4583
945.40 156.9047
945.50 157.6527
945.60 157.8178
945.70 155.1208
945.80 152.0708
945.90 149.8077
946.00 148.117
946.10 146.2568
946.20 145.8984
946.30 146.6343
946.40 147.5112
946.50 151.0141
946.60 155.205
946.70 158.7277
946.80 160.8742
946.90 163.0021
947.00 164.0964
947.10 164.1557
947.20 164.1157
947.30 164.2388
947.40 164.5483
947.50 165.0141
947.60 165.9652
947.70 166.6083
947.80 167.7882
947.90 169.4101
948.00 170.957
948.10 171.5748
948.20 172.2435
948.30 172.9141
948.40 173.4642
948.50 174.94
948.60 176.0913
948.70 176.5965
948.80 177.0857
948.90 178.92
949.00 180.7658
949.10 182.4085
949.20 182.4499
949.30 181.0941
949.40 179.6114
949.50 177.9593
949.60 176.8832
949.70 176.0149
949.80 175.6329
949.90 175.3963
950.00 175.942
950.10 176.9407
950.20 177.9107
950.30 178.0536
950.40 177.6746
950.50 177.1058
950.60 176.7264
950.70 176.8676
950.80 178.9651
950.90 181.4021
951.00 183.6489
951.10 184.7634
951.20 186.1659
951.30 187.1378
951.40 186.0518
951.50 184.2207
951.60 181.4089
951.70 177.7686
951.80 174.2065
951.90 171.5233
952.00 169.6089
952.10 167.9544
952.20 169.4467
952.30 172.5525
952.40 176.4107
952.50 181.5037
952.60 186.5017
952.70 191.0222
952.80 193.1324
952.90 194.7375
953.00 194.0315
953.10 192.6385
953.20 190.7962
953.30 187.8266
953.40 185.4715
953.50 183.6582
953.60 183.371
953.70 183.5893
953.80 183.4701
953.90 182.1357
954.00 180.8495
954.10 180.5617
954.20 180.3843
954.30 180.2051
954.40 180.3984
954.50 180.9247
954.60 181.7603
954.70 183.4522
954.80 185.2986
954.90 186.0629
955.00 185.6952
955.10 185.2287
955.20 184.0785
955.30 182.3471
955.40 182.1556
955.50 183.3055
955.60 184.4694
955.70 185.8556
955.80 187.5944
955.90 189.2734
956.00 190.4539
956.10 191.8097
956.20 192.4157
956.30 192.1294
956.40 192.0333
956.50 191.6821
956.60 191.1064
956.70 190.5098
956.80 190.3233
956.90 190.0785
957.00 190.0312
957.10 190.4716
957.20 190.8455
957.30 191.057
957.40 191.1039
957.50 191.1351
957.60 189.6836
957.70 187.5632
957.80 185.4548
957.90 183.4869
958.00 181.6271
958.10 180.4002
958.20 180.0668
958.30 179.7745
958.40 180.3791
958.50 180.8623
958.60 181.2509
958.70 180.5027
958.80 179.9208
958.90 178.2981
959.00 174.101
959.10 169.7103
959.20 166.0821
959.30 163.6814
959.40 161.5521
959.50 161.794
959.60 162.3787
959.70 162.7499
959.80 162.172
959.90 161.8117
960.00 160.4746
960.10 158.0875
960.20 155.7674
960.30 155.4741
960.40 155.6493
960.50 155.9716
960.60 160.4355
960.70 164.5438
960.80 168.299
960.90 170.984
961.00 173.2371
961.10 173.4147
961.20 172.7262
961.30 172.1803
961.40 169.9081
961.50 168.4999
961.60 167.5014
961.70 168.2244
961.80 169.1226
961.90 171.2375
962.00 174.2181
962.10 176.9424
962.20 179.7824
962.30 181.9448
962.40 183.8186
962.50 182.8942
962.60 181.9177
962.70 180.921
962.80 180.0776
962.90 179.4391
963.00 178.6261
963.10 178.2178
963.20 177.9584
963.30 177.4463
963.40 175.9306
963.50 173.6913
963.60 168.8279
963.70 163.5895
963.80 157.9938
963.90 152.3538
964.00 146.8745
964.10 143.089
964.20 140.9498
964.30 139.4109
964.40 142.2998
964.50 144.7302
964.60 148.007
964.70 152.8164
964.80 157.8786
964.90 161.2014
965.00 163.2005
965.10 165.064
965.20 164.8015
965.30 164.5078
965.40 164.0174
965.50 163.0859
965.60 162.303
965.70 162.0608
965.80 163.0066
965.90 164.3283
966.00 167.2654
966.10 169.3518
966.20 171.5997
966.30 175.1199
966.40 178.6084
966.50 181.5232
966.60 183.6396
966.70 185.7235
966.80 185.7762
966.90 185.3894
967.00 185.0852
967.10 185.5248
967.20 184.6522
967.30 183.5614
967.40 182.1804
967.50 181.0689
967.60 179.4329
967.70 178.2169
967.80 177.3153
967.90 176.348
968.00 175.5585
968.10 175.256
968.20 176.9013
968.30 178.2313
968.40 179.117
968.50 179.0947
968.60 178.7634
968.70 178.1517
968.80 177.8244
968.90 177.572
969.00 177.7048
969.10 178.219
969.20 179.2488
969.30 181.3759
969.40 183.6736
969.50 186.3281
969.60 188.8836
969.70 191.3367
969.80 193.0095
969.90 194.3815
970.00 195.3231
970.10 194.6995
970.20 193.8233
970.30 192.4276
970.40 190.4106
970.50 188.3066
970.60 185.3297
970.70 182.8557
970.80 180.6501
970.90 180.2601
971.00 180.7112
971.10 182.5693
971.20 186.4837
971.30 190.3414
971.40 195.446
971.50 200.1275
971.60 204.5476
971.70 206.6352
971.80 207.9848
971.90 208.6573
972.00 207.8641
972.10 207.5397
972.20 205.942
972.30 203.6937
972.40 201.605
972.50 199.6382
972.60 197.0377
972.70 194.5183
972.80 192.5464
972.90 190.3971
973.00 188.1867
973.10 186.228
973.20 184.5472
973.30 184.483
973.40 185.0533
973.50 185.6652
973.60 186.9287
973.70 188.0654
973.80 189.1297
973.90 190.1344
974.00 191.2593
974.10 190.319
974.20 187.918
974.30 185.4374
974.40 183.6238
974.50 181.9054
974.60 180.2925
974.70 179.1299
974.80 178.0989
974.90 178.2981
975.00 180.021
975.10 181.9478
975.20 184.5642
975.30 187.0353
975.40 189.3747
975.50 190.825
975.60 192.2972
975.70 193.9008
975.80 195.6288
975.90 197.2514
976.00 197.3863
976.10 197.0148
976.20 196.7043
976.30 197.6163
976.40 198.361
976.50 199.1289
976.60 199.9273
976.70 200.6559
976.80 201.1344
976.90 201.2008
977.00 201.1459
977.10 198.4726
977.20 195.7294
977.30 193.3056
977.40 192.6298
977.50 192.3269
977.60 193.0474
977.70 194.7377
977.80 196.1206
977.90 197.4437
978.00 198.3785
978.10 199.1357
978.20 196.9263
978.30 194.679
978.40 192.2076
978.50 189.498
978.60 187.1455
978.70 185.4001
978.80 184.1984
978.90 183.074
979.00 183.792
979.10 185.5914
979.20 187.9278
979.30 192.0794
979.40 195.8822
979.50 199.7662
979.60 203.3154
979.70 206.5505
979.80 209.0075
979.90 211.1002
980.00 212.988
980.10 213.0612
980.20 213.1197
980.30 213.2154
980.40 213.4375
980.50 213.7401
980.60 212.6262
980.70 210.7218
980.80 208.776
980.90 207.813
981.00 207.0391
981.10 206.4045
981.20 206.0153
981.30 205.3592
981.40 204.9139
981.50 205.306
981.60 206.0926
981.70 205.7976
981.80 205.0906
981.90 204.4105
982.00 203.9553
982.10 203.3464
982.20 202.6126
982.30 201.707
982.40 200.783
982.50 200.8777
982.60 201.4884
982.70 202.2003
982.80 204.3144
982.90 205.7288
983.00 206.8221
983.10 207.2609
983.20 207.6965
983.30 206.6739
983.40 205.1171
983.50 203.7051
983.60 201.8465
983.70 200.2729
983.80 199.1462
983.90 199.6478
984.00 200.322
984.10 201.5766
984.20 203.1794
984.30 204.6407
984.40 205.048
984.50 204.4065
984.60 203.7384
984.70 203.7532
984.80 203.3925
984.90 202.5507
985.00 201.5702
985.10 201.274
985.20 200.5502
985.30 200.2242
985.40 200.0918
985.50 200.2456
985.60 200.118
985.70 200.689
985.80 202.7453
985.90 204.364
986.00 205.8887
986.10 207.5977
986.20 209.4472
986.30 210.8318
986.40 211.9787
986.50 213.0245
986.60 213.541
986.70 213.6278
986.80 212.1997
986.90 209.51
987.00 207.2328
987.10 206.8557
987.20 207.6906
987.30 208.8725
987.40 212.6385
987.50 215.2168
987.60 217.7522
987.70 219.7456
987.80 221.0691
987.90 218.5001
988.00 214.765
988.10 211.3727
988.20 209.203
988.30 208.5068
988.40 208.7412
988.50 211.513
988.60 213.6916
988.70 216.4709
988.80 219.1721
988.90 221.4775
989.00 221.4267
989.10 220.1156
989.20 218.216
989.30 213.1001
989.40 206.9959
989.50 198.697
989.60 187.5871
989.70 176.4582
989.80 164.2922
989.90 152.7389
990.00 141.5772
990.10 134.0323
990.20 126.9897
990.30 120.6467
990.40 115.5742
990.50 110.2462
990.60 104.5335
990.70 99.12808
990.80 94.00234
990.90 90.24547
991.00 87.4011
991.10 85.22474
991.20 85.10251
991.30 84.41954
991.40 83.58688
991.50 82.73129
991.60 81.97463
991.70 81.56439
991.80 81.4715
991.90 81.60341
992.00 83.21743
992.10 84.834
992.20 86.56044
992.30 88.21807
992.40 89.58687
992.50 89.4491
992.60 89.57831
992.70 90.02818
992.80 91.28594
992.90 92.74274
993.00 94.87577
993.10 98.34087
993.20 101.3069
993.30 104.0633
993.40 106.5226
993.50 108.8894
993.60 110.9118
993.70 113.5664
993.80 116.528
993.90 120.626
994.00 124.8809
994.10 128.8035
994.20 132.0535
994.30 135.0016
994.40 135.6668
994.50 135.4739
994.60 135.2869
994.70 135.8225
994.80 136.5334
994.90 137.8154
995.00 140.211
995.10 142.868
995.20 146.3367
995.30 149.5775
995.40 152.5692
995.50 151.805
995.60 150.1004
995.70 147.9345
995.80 144.6352
995.90 141.6004
996.00 138.2177
996.10 135.6883
996.20 133.9027
996.30 137.9532
996.40 142.9124
996.50 148.1992
996.60 154.607
996.70 159.0614
996.80 160.6488
996.90 158.5098
997.00 155.8574
997.10 147.1515
997.20 137.6332
997.30 128.5326
997.40 121.5601
997.50 116.232
997.60 113.4161
997.70 114.9603
997.80 116.3313
997.90 119.9518
998.00 124.3355
998.10 128.533
998.20 130.8657
998.30 132.1858
998.40 132.7167
998.50 131.1738
998.60 129.9342
998.70 128.7976
998.80 127.8797
998.90 127.0593
999.00 126.3383
999.10 125.9452
999.20 125.6921
999.30 125.8503
999.40 125.4286
999.50 124.3689
999.60 123.1803
999.70 122.7257
999.80 123.9283
999.90 126.1612
1000.00 128.6436
1000.10 133.1392
1000.20 137.4447
1000.30 142.7895
1000.40 149.3859
1000.50 154.7755
1000.60 157.6914
1000.70 158.9394
1000.80 160.0143
1000.90 155.1509
1001.00 150.2434
1001.10 145.3067
1001.20 140.5935
1001.30 136.8808
1001.40 135.9657
1001.50 137.5784
1001.60 139.3047
1001.70 143.8491
1001.80 148.4582
1001.90 152.5905
1002.00 154.2317
1002.10 155.68
1002.20 156.7975
1002.30 157.6745
1002.40 158.772
1002.50 160.9771
1002.60 163.4436
1002.70 165.8247
1002.80 167.13
1002.90 167.4923
1003.00 167.0875
1003.10 165.2392
1003.20 163.4755
1003.30 160.5745
1003.40 157.0835
1003.50 153.6192
1003.60 150.3465
1003.70 147.9072
1003.80 145.7299
1003.90 144.3541
1004.00 143.3043
1004.10 145.3509
1004.20 150.3968
1004.30 155.751
1004.40 162.8188
1004.50 168.8642
1004.60 174.0916
1004.70 175.6555
1004.80 175.8909
1004.90 172.9362
1005.00 165.59
1005.10 157.822
1005.20 147.5114
1005.30 137.4961
1005.40 127.9948
1005.50 121.1079
1005.60 115.1379
1005.70 111.3792
1005.80 112.2367
1005.90 113.3402
1006.00 116.6668
1006.10 121.1913
1006.20 125.6553
1006.30 128.2187
1006.40 131.5116
1006.50 134.959
1006.60 138.7097
1006.70 142.3726
1006.80 147.155
1006.90 152.4082
1007.00 157.2168
1007.10 160.0422
1007.20 162.0478
1007.30 163.5689
1007.40 162.495
1007.50 162.162
1007.60 162.5303
1007.70 164.1795
1007.80 166.2759
1007.90 169.7842
1008.00 173.1273
1008.10 176.1975
1008.20 178.4757
1008.30 179.8493
1008.40 181.4141
1008.50 183.2146
1008.60 184.7516
1008.70 184.7802
1008.80 184.0022
1008.90 183.2476
1009.00 178.5869
1009.10 174.138
1009.20 169.617
1009.30 164.9914
1009.40 161.1476
1009.50 160.1446
1009.60 162.3216
1009.70 165.1728
1009.80 172.6552
1009.90 180.3951
1010.00 188.3556
1010.10 198.3252
1010.20 207.4143
1010.30 214.5761
1010.40 218.5441
1010.50 221.5303
1010.60 218.8043
1010.70 214.0016
1010.80 209.0395
1010.90 200.8673
1011.00 192.4994
1011.10 184.5111
1011.20 177.4474
1011.30 170.7489
1011.40 165.1231
1011.50 160.5258
1011.60 156.1674
1011.70 152.778
1011.80 150.9117
1011.90 150.2093
1012.00 153.1375
1012.10 156.8258
1012.20 163.3577
1012.30 171.6777
1012.40 179.5389
1012.50 187.4754
1012.60 194.4793
1012.70 200.6604
1012.80 203.1498
1012.90 205.336
1013.00 206.2533
1013.10 205.0813
1013.20 203.2238
1013.30 198.8919
1013.40 193.2332
1013.50 187.1905
1013.60 177.2666
1013.70 168.8611
1013.80 161.0092
1013.90 154.987
1014.00 150.5207
1014.10 151.2068
1014.20 154.1054
1014.30 156.6881
1014.40 162.5161
1014.50 167.1444
1014.60 170.5966
1014.70 171.191
1014.80 172.568
1014.90 173.7824
1015.00 175.3022
1015.10 177.1908
1015.20 181.0204
1015.30 183.7556
1015.40 185.9391
1015.50 186.3622
1015.60 185.8145
1015.70 182.6121
1015.80 176.7188
1015.90 171.3455
1016.00 166.8739
1016.10 163.8767
1016.20 161.574
1016.30 163.1459
1016.40 164.4213
1016.50 166.7385
1016.60 170.6198
1016.70 174.111
1016.80 176.4555
1016.90 178.0266
1017.00 179.4854
1017.10 177.6244
1017.20 177.4147
1017.30 178.2039
1017.40 181.135
1017.50 183.5267
1017.60 188.2042
1017.70 193.3926
1017.80 197.682
1017.90 197.5672
1018.00 196.1749
1018.10 193.347
1018.20 184.6845
1018.30 177.0889
1018.40 169.6222
1018.50 162.8955
1018.60 156.8736
1018.70 155.7933
1018.80 156.1824
1018.90 157.0095
1019.00 161.7311
1019.10 165.9637
1019.20 170.1565
1019.30 174.0959
1019.40 177.7103
1019.50 178.6089
1019.60 178.4994
1019.70 178.4942
1019.80 176.9528
1019.90 175.7769
1020.00 175.3852
1020.10 176.8429
1020.20 178.4238
1020.30 180.4062
1020.40 182.6918
1020.50 185.0043
1020.60 188.3508
1020.70 190.7317
1020.80 192.6674
1020.90 193.3704
1021.00 193.5604
1021.10 192.1093
1021.20 188.9865
1021.30 185.7605
1021.40 179.2846
1021.50 172.3562
1021.60 165.6691
1021.70 160.2626
1021.80 155.2618
1021.90 150.8148
1022.00 147.6542
1022.10 145.3096
1022.20 146.0333
1022.30 148.2024
1022.40 150.5434
1022.50 155.7647
1022.60 160.5257
1022.70 165.3525
1022.80 170.0235
1022.90 173.9467
1023.00 174.7529
1023.10 173.7091
1023.20 172.6523
1023.30 170.4221
1023.40 169.1533
1023.50 168.9
1023.60 171.7557
1023.70 175.0085
1023.80 178.9189
1023.90 183.2671
1024.00 187.4929
1024.10 192.1352
1024.20 195.6686
1024.30 198.562
1024.40 199.1952
1024.50 199.5
1024.60 198.7416
1024.70 196.4824
1024.80 193.9337
1024.90 189.5739
1025.00 185.1042
1025.10 180.8208
1025.20 176.2506
1025.30 172.2282
1025.40 169.1598
1025.50 167.8459
1025.60 166.6559
1025.70 165.9423
1025.80 164.6232
1025.90 162.7827
1026.00 158.6434
1026.10 154.3741
1026.20 149.3816
1026.30 142.9747
1026.40 138.3571
1026.50 137.3612
1026.60 139.5546
1026.70 142.1535
1026.80 150.9967
1026.90 159.8067
1027.00 168.1219
1027.10 174.7866
1027.20 180.0117
1027.30 182.0345
1027.40 180.7666
1027.50 179.726
1027.60 175.9146
1027.70 171.1444
1027.80 166.3647
1027.90 162.2662
1028.00 157.9036
1028.10 153.773
1028.20 150.3484
1028.30 147.561
1028.40 145.923
1028.50 145.8533
1028.60 146.3628
1028.70 151.9071
1028.80 157.1827
1028.90 163.0243
1029.00 169.82
1029.10 175.4978
1029.20 178.4854
1029.30 179.6556
1029.40 180.7495
1029.50 178.3576
1029.60 175.7751
1029.70 173.4454
1029.80 171.9452
1029.90 170.5165
1030.00 169.3814
1030.10 168.7207
1030.20 168.2893
1030.30 168.8255
1030.40 169.8926
1030.50 171.4159
1030.60 175.341
1030.70 178.7
1030.80 181.6703
1030.90 184.0348
1031.00 186.2579
1031.10 186.5474
1031.20 186.0195
1031.30 185.4373
1031.40 185.0369
1031.50 184.5975
1031.60 183.7602
1031.70 182.2045
1031.80 180.6947
1031.90 178.3692
1032.00 175.5634
1032.10 172.73
1032.20 169.9274
1032.30 167.4447
1032.40 165.6934
1032.50 166.2247
1032.60 167.8923
1032.70 170.5594
1032.80 174.4144
1032.90 178.6563
1033.00 187.8044
1033.10 196.3012
1033.20 204.0997
1033.30 209.6852
1033.40 213.1671
1033.50 212.3607
1033.60 206.9294
1033.70 201.5271
1033.80 191.525
1033.90 181.4267
1034.00 172.339
1034.10 169.014
1034.20 166.8973
1034.30 167.1422
1034.40 170.9066
1034.50 174.3329
1034.60 178.7232
1034.70 182.8012
1034.80 186.4711
1034.90 185.7878
1035.00 184.9586
1035.10 183.4511
1035.20 180.6581
1035.30 178.4867
1035.40 176.9538
1035.50 176.3422
1035.60 176.1337
1035.70 178.5755
1035.80 181.2712
1035.90 184.4592
1036.00 189.3065
1036.10 193.7746
1036.20 198.5174
1036.30 203.3433
1036.40 207.9883
1036.50 211.3691
1036.60 214.4487
1036.70 217.0438
1036.80 216.8139
1036.90 217.4357
1037.00 219.1676
1037.10 222.1267
1037.20 224.7832
1037.30 229.2323
1037.40 232.9335
1037.50 235.7836
1037.60 233.9496
1037.70 230.5997
1037.80 223.915
1037.90 211.8458
1038.00 200.9828
1038.10 190.4186
1038.20 181.2651
1038.30 172.954
1038.40 173.4357
1038.50 173.9772
1038.60 176.0233
1038.70 181.736
1038.80 186.4835
1038.90 189.1826
1039.00 190.4395
1039.10 191.7342
1039.20 189.8905
1039.30 188.3703
1039.40 187.0851
1039.50 186.1775
1039.60 185.546
1039.70 186.2654
1039.80 188.2165
1039.90 190.0098
1040.00 192.5535
1040.10 195.287
1040.20 198.1059
1040.30 201.6104
1040.40 205.1517
1040.50 208.4237
1040.60 211.2726
1040.70 214.0263
1040.80 215.6237
1040.90 215.7827
1041.00 215.2953
1041.10 211.1259
1041.20 206.8226
1041.30 202.199
1041.40 197.3584
1041.50 193.7178
1041.60 193.0977
1041.70 194.808
1041.80 196.9947
1041.90 204.333
1042.00 210.4134
1042.10 215.1605
1042.20 216.35
1042.30 216.314
1042.40 212.8175
1042.50 206.6709
1042.60 200.5988
1042.70 190.5143
1042.80 181.8418
1042.90 174.6771
1043.00 172.3035
1043.10 170.9155
1043.20 173.7972
1043.30 181.2508
1043.40 188.6237
1043.50 199.8335
1043.60 210.9629
1043.70 221.0304
1043.80 225.1592
1043.90 229.0535
1044.00 231.0423
1044.10 229.9673
1044.20 228.7146
1044.30 227.6812
1044.40 226.7619
1044.50 225.8504
1044.60 224.5202
1044.70 223.6635
1044.80 222.9181
1044.90 222.6552
1045.00 223.3875
1045.10 227.6117
1045.20 233.8637
1045.30 240.0202
1045.40 249.2676
1045.50 256.856
1045.60 262.9356
1045.70 264.8949
1045.80 265.7952
1045.90 261.6774
1046.00 253.6128
1046.10 245.9332
1046.20 236.3689
1046.30 226.683
1046.40 217.4508
1046.50 210.3975
1046.60 203.1467
1046.70 196.9407
1046.80 192.2955
1046.90 188.1957
1047.00 184.3404
1047.10 181.3438
1047.20 178.9128
1047.30 179.0844
1047.40 178.8981
1047.50 179.6698
1047.60 181.864
1047.70 183.716
1047.80 185.5015
1047.90 187.6295
1048.00 190.0055
1048.10 191.5055
1048.20 193.7758
1048.30 196.856
1048.40 201.5551
1048.50 205.9115
1048.60 210.0923
1048.70 213.7876
1048.80 217.1383
1048.90 218.8839
1049.00 220.2762
1049.10 221.4823
1049.20 222.0568
1049.30 221.8755
1049.40 221.5985
1049.50 221.1512
1049.60 220.5951
1049.70 217.3725
1049.80 214.7464
1049.90 212.5332
1050.00 210.6371
1050.10 209.5449
1050.20 209.9671
1050.30 211.8431
1050.40 213.0131
1050.50 213.5358
1050.60 213.1567
1050.70 212.3634
1050.80 210.4621
1050.90 208.2865
1051.00 205.7853
1051.10 202.7532
1051.20 199.744
1051.30 195.6405
1051.40 191.4332
1051.50 187.5117
1051.60 183.5715
1051.70 180.0768
1051.80 177.3281
1051.90 176.4075
1052.00 176.0327
1052.10 176.9379
1052.20 178.8981
1052.30 181.0522
1052.40 184.356
1052.50 187.992
1052.60 192.6343
1052.70 200.5481
1052.80 207.6215
1052.90 213.2866
1053.00 217.4293
1053.10 221.2773
1053.20 221.3568
1053.30 220.6964
1053.40 219.904
1053.50 218.2202
1053.60 216.3459
1053.70 214.9535
1053.80 214.2235
1053.90 213.6295
1054.00 212.9319
1054.10 212.0818
1054.20 211.228
1054.30 211.2671
1054.40 210.6012
1054.50 209.4647
1054.60 207.5872
1054.70 205.738
1054.80 202.0582
1054.90 198.4133
1055.00 195.4176
1055.10 195.3381
1055.20 195.4384
1055.30 196.6262
1055.40 200.102
1055.50 202.152
1055.60 201.9085
1055.70 199.8467
1055.80 197.4956
1055.90 191.1063
1056.00 185.2663
1056.10 180.0509
1056.20 176.3022
1056.30 173.3031
1056.40 171.9556
1056.50 172.1989
1056.60 172.5339
1056.70 174.5622
1056.80 176.6139
1056.90 178.495
1057.00 180.0599
1057.10 181.5422
1057.20 183.3702
1057.30 185.7712
1057.40 188.4638
1057.50 191.0403
1057.60 193.4865
1057.70 195.8565
1057.80 197.8831
1057.90 199.7204
1058.00 201.3174
1058.10 202.3683
1058.20 202.9916
1058.30 203.2206
1058.40 203.3663
1058.50 203.5894
1058.60 200.737
1058.70 197.7613
1058.80 194.5793
1058.90 191.0361
1059.00 187.8801
1059.10 185.3644
1059.20 183.2178
1059.30 181.0306
1059.40 182.5722
1059.50 184.5384
1059.60 186.5518
1059.70 188.6378
1059.80 190.3581
1059.90 191.2537
1060.00 191.3495
1060.10 191.3509
1060.20 189.7954
1060.30 187.917
1060.40 186.0608
1060.50 184.3897
1060.60 182.8339
1060.70 181.3174
1060.80 180.0253
1060.90 179.0796
1061.00 177.725
1061.10 176.5566
1061.20 175.8617
1061.30 179.2507
1061.40 182.1749
1061.50 185.4548
1061.60 189.3082
1061.70 193.0583
1061.80 194.5373
1061.90 195.0159
1062.00 195.5095
1062.10 192.3346
1062.20 189.7563
1062.30 187.9466
1062.40 187.6982
1062.50 187.5851
1062.60 190.9955
1062.70 196.4072
1062.80 201.6606
1062.90 208.6458
1063.00 214.9825
1063.10 219.7917
1063.20 220.3849
1063.30 221.324
1063.40 220.2969
1063.50 217.8869
1063.60 215.8797
1063.70 215.1972
1063.80 214.6708
1063.90 214.906
1064.00 219.2605
1064.10 222.8825
1064.20 225.4819
1064.30 226.8738
1064.40 228.1646
1064.50 228.3042
1064.60 228.3353
1064.70 228.3781
1064.80 227.4112
1064.90 226.2249
1065.00 225.7449
1065.10 226.0589
1065.20 225.6191
1065.30 222.7858
1065.40 219.0123
1065.50 215.2239
1065.60 209.3777
1065.70 204.6658
1065.80 200.3285
1065.90 196.3722
1066.00 192.0353
1066.10 189.9644
1066.20 188.9732
1066.30 187.7946
1066.40 186.4398
1066.50 185.5013
1066.60 184.3674
1066.70 182.4595
1066.80 181.3816
1066.90 179.8352
1067.00 177.7471
1067.10 175.4291
1067.20 175.9138
1067.30 177.4521
1067.40 179.8868
1067.50 185.3807
1067.60 190.7149
1067.70 196.665
1067.80 203.1556
1067.90 209.4674
1068.00 213.2947
1068.10 216.3709
1068.20 219.3239
1068.30 221.7978
1068.40 224.1211
1068.50 226.6918
1068.60 229.4988
1068.70 232.0242
1068.80 233.2423
1068.90 233.7195
1069.00 233.9244
1069.10 231.8863
1069.20 229.7927
1069.30 227.1895
1069.40 223.4757
1069.50 219.1
1069.60 214.7404
1069.70 210.91
1069.80 207.5603
1069.90 206.5541
1070.00 206.1886
1070.10 206.0687
1070.20 206.2923
1070.30 206.5856
1070.40 206.7727
1070.50 206.5112
1070.60 205.7918
1070.70 206.3849
1070.80 207.681
1070.90 209.3088
1071.00 211.5492
1071.10 214.2084
1071.20 216.0218
1071.30 217.0077
1071.40 217.9143
1071.50 219.6599
1071.60 221.4029
1071.70 223.2473
1071.80 226.2183
1071.90 228.7208
1072.00 230.2849
1072.10 230.6271
1072.20 230.7814
1072.30 228.4996
1072.40 225.5832
1072.50 222.7955
1072.60 220.575
1072.70 218.9552
1072.80 218.2445
1072.90 218.8005
1073.00 218.9164
1073.10 220.3748
1073.20 222.4917
1073.30 224.6557
1073.40 223.9549
1073.50 223.2545
1073.60 222.5303
1073.70 221.8241
1073.80 221.4926
1073.90 223.2534
1074.00 226.1348
1074.10 228.8338
1074.20 232.8083
1074.30 237.2088
1074.40 241.1354
1074.50 243.2476
1074.60 245.1414
1074.70 246.5936
1074.80 247.3039
1074.90 247.4188
1075.00 246.1048
1075.10 243.9759
1075.20 240.9458
1075.30 234.7449
1075.40 229.6434
1075.50 224.7842
1075.60 220.6971
1075.70 217.6929
1075.80 219.6626
1075.90 222.5389
1076.00 225.3485
1076.10 229.7543
1076.20 233.0852
1076.30 235.5404
1076.40 236.9749
1076.50 238.8315
1076.60 238.9327
1076.70 238.6748
1076.80 238.7139
1076.90 240.1428
1077.00 241.3458
1077.10 242.2155
1077.20 242.3554
1077.30 241.819
1077.40 240.6218
1077.50 239.3095
1077.60 238.2477
1077.70 235.9547
1077.80 233.9774
1077.90 232.8901
1078.00 233.9437
1078.10 234.8599
1078.20 236.3586
1078.30 237.943
1078.40 239.0632
1078.50 238.7437
1078.60 238.0776
1078.70 236.8309
1078.80 233.5046
1078.90 230.0036
1079.00 226.323
1079.10 222.4739
1079.20 218.6327
1079.30 214.3992
1079.40 210.7935
1079.50 207.823
1079.60 206.4954
1079.70 205.9198
1079.80 206.6216
1079.90 208.7545
1080.00 210.6251
1080.10 213.6
1080.20 216.6766
1080.30 219.6101
1080.40 222.9239
1080.50 226.6786
1080.60 230.2781
1080.70 233.4556
1080.80 236.2993
1080.90 238.1676
1081.00 239.6141
1081.10 241.0756
1081.20 241.401
1081.30 241.856
1081.40 242.924
1081.50 245.3695
1081.60 248.2577
1081.70 251.3812
1081.80 254.0336
1081.90 255.9341
1082.00 255.2439
1082.10 254.0125
1082.20 252.0493
1082.30 248.1238
1082.40 244.3061
1082.50 240.3008
1082.60 236.6721
1082.70 233.9087
1082.80 233.0529
1082.90 232.7143
1083.00 233.0659
1083.10 236.0871
1083.20 239.0804
1083.30 243.5741
1083.40 249.3908
1083.50 254.6768
1083.60 258.1639
1083.70 260.7782
1083.80 262.8337
1083.90 262.4655
1084.00 262.2877
1084.10 261.0625
1084.20 258.1952
1084.30 254.7707
1084.40 251.1261
1084.50 247.8685
1084.60 244.9446
1084.70 240.834
1084.80 236.8609
1084.90 234.1139
1085.00 233.6087
1085.10 233.6002
1085.20 234.1649
1085.30 234.6288
1085.40 234.6778
1085.50 235.0204
1085.60 236.2696
1085.70 237.8654
1085.80 239.7378
1085.90 241.7361
1086.00 245.9373
1086.10 251.3858
1086.20 256.5158
1086.30 261.4477
1086.40 265.5362
1086.50 268.1894
1086.60 266.9255
1086.70 266.5111
1086.80 265.3932
1086.90 263.6608
1087.00 261.9457
1087.10 263.2365
1087.20 264.7878
1087.30 266.076
1087.40 266.7128
1087.50 266.7639
1087.60 265.0288
1087.70 261.4066
1087.80 258.0588
1087.90 255.9946
1088.00 254.5563
1088.10 253.4823
1088.20 254.2358
1088.30 254.9668
1088.40 255.667
1088.50 256.3451
1088.60 257.1008
1088.70 256.8301
1088.80 255.8246
1088.90 254.5364
1089.00 253.5211
1089.10 252.6999
1089.20 251.0644
1089.30 247.909
1089.40 245.5997
1089.50 245.1519
1089.60 245.7665
1089.70 246.4545
1089.80 252.9726
1089.90 259.8994
1090.00 266.6853
1090.10 272.875
1090.20 278.0854
1090.30 280.8798
1090.40 281.5712
1090.50 281.5993
1090.60 277.834
1090.70 273.0766
1090.80 268.0498
1090.90 262.9481
1091.00 259.6684
1091.10 256.2055
1091.20 253.0222
1091.30 250.7925
1091.40 252.7603
1091.50 255.5515
1091.60 258.8514
1091.70 265.4089
1091.80 270.687
1091.90 274.8818
1092.00 277.7456
1092.10 280.1448
1092.20 279.4487
1092.30 277.7371
1092.40 275.8334
1092.50 272.5398
1092.60 269.579
1092.70 267.3027
1092.80 266.1501
1092.90 265.5924
1093.00 265.7887
1093.10 266.4041
1093.20 267.1109
1093.30 267.5943
1093.40 267.6105
1093.50 266.9221
1093.60 265.0371
1093.70 263.2349
1093.80 262.1991
1093.90 261.6312
1094.00 261.1123
1094.10 263.9678
1094.20 266.5787
1094.30 267.92
1094.40 266.0537
1094.50 263.8673
1094.60 259.8313
1094.70 255.1673
1094.80 251.7677
1094.90 250.6202
1095.00 250.4325
1095.10 252.4852
1095.20 262.1567
1095.30 270.6526
1095.40 278.652
1095.50 285.6896
1095.60 291.5426
1095.70 293.0793
1095.80 293.764
1095.90 293.8575
1096.00 290.193
1096.10 287.5223
1096.20 285.9266
1096.30 285.4416
1096.40 284.6304
1096.50 285.4542
1096.60 285.9032
1096.70 285.3094
1096.80 280.9495
1096.90 276.5891
1097.00 270.6308
1097.10 262.4039
1097.20 255.3888
1097.30 250.2758
1097.40 246.6578
1097.50 243.8696
1097.60 247.3391
1097.70 250.5691
1097.80 254.5779
1097.90 260.282
1098.00 265.1305
1098.10 268.2531
1098.20 269.9964
1098.30 271.1521
1098.40 269.379
1098.50 267.8169
1098.60 266.042
1098.70 263.2887
1098.80 261.5355
1098.90 260.6764
1099.00 260.7416
1099.10 261.2915
1099.20 264.1647
1099.30 266.809
1099.40 269.1491
1099.50 271.3835
1099.60 273.4144
1099.70 275.4425
1099.80 277.2968
1099.90 278.696
1100.00 278.4816
1100.10 277.9143
1100.20 277.1204
1100.30 274.9284
1100.40 272.6097
1100.50 270.0054
1100.60 267.1467
1100.70 264.5805
1100.80 263.0855
1100.90 262.0425
1101.00 261.2975
1101.10 262.7712
1101.20 264.2478
1101.30 265.9909
1101.40 268.1195
1101.50 270.0757
1101.60 271.63
1101.70 272.8632
1101.80 273.8861
1101.90 271.4038
1102.00 268.5492
1102.10 265.1117
1102.20 260.8404
1102.30 257.9948
1102.40 256.0407
1102.50 254.7386
1102.60 253.6718
1102.70 257.5822
1102.80 261.1011
1102.90 264.5179
1103.00 268.3736
1103.10 270.7617
1103.20 269.7166
1103.30 266.3924
1103.40 263.4889
1103.50 256.2162
1103.60 249.0046
1103.70 243.1408
1103.80 241.315
1103.90 240.0829
1104.00 241.1359
1104.10 244.2242
1104.20 247.1834
1104.30 249.8334
1104.40 252.2354
1104.50 254.4867
1104.60 256.6339
1104.70 258.253
1104.80 260.2457
1104.90 262.6829
1105.00 264.7519
1105.10 263.0815
1105.20 259.9462
1105.30 256.1169
1105.40 248.1498
1105.50 241.2671
1105.60 235.3147
1105.70 230.5683
1105.80 226.5799
1105.90 226.6546
1106.00 228.2959
1106.10 229.8529
1106.20 232.8298
1106.30 235.2991
1106.40 237.6776
1106.50 240.1401
1106.60 241.8452
1106.70 241.3707
1106.80 240.0946
1106.90 239.4258
1107.00 236.4775
1107.10 233.7928
1107.20 232.0512
1107.30 232.4424
1107.40 232.6941
1107.50 233.8947
1107.60 235.43
1107.70 236.2753
1107.80 238.7446
1107.90 242.2295
1108.00 245.7578
1108.10 247.6043
1108.20 249.903
1108.30 254.1631
1108.40 260.0075
1108.50 265.2838
1108.60 267.851
1108.70 269.4467
1108.80 270.4075
1108.90 269.7176
1109.00 269.1555
1109.10 267.8203
1109.20 265.8119
1109.30 264.7344
1109.40 266.0224
1109.50 267.8226
1109.60 269.6128
1109.70 272.8703
1109.80 274.9047
1109.90 275.4585
1110.00 274.0371
1110.10 271.5645
1110.20 266.0408
1110.30 259.97
1110.40 254.7155
1110.50 249.536
1110.60 245.1092
1110.70 242.293
1110.80 242.0686
1110.90 241.216
1111.00 240.6506
1111.10 240.0081
1111.20 238.9981
1111.30 234.5841
1111.40 230.7861
1111.50 227.5958
1111.60 225.1351
1111.70 223.0238
1111.80 223.359
1111.90 225.0622
1112.00 226.1796
1112.10 228.0712
1112.20 230.7029
1112.30 233.4149
1112.40 235.0299
1112.50 237.0717
1112.60 239.6266
1112.70 242.551
1112.80 245.3421
1112.90 249.6479
1113.00 253.4885
1113.10 256.5707
1113.20 258.759
1113.30 260.4277
1113.40 261.2318
1113.50 261.0889
1113.60 260.5739
1113.70 257.1449
1113.80 253.9193
1113.90 251.7228
1114.00 249.9412
1114.10 249.2686
1114.20 250.3345
1114.30 253.3829
1114.40 256.0349
1114.50 261.7981
1114.60 267.7115
1114.70 272.1481
1114.80 272.7201
1114.90 272.9339
1115.00 271.9208
1115.10 268.9622
1115.20 266.3684
1115.30 264.1345
1115.40 262.6637
1115.50 262.2039
1115.60 263.164
1115.70 263.977
1115.80 264.6696
1115.90 265.2505
1116.00 265.2305
1116.10 263.7153
1116.20 261.2435
1116.30 258.6823
1116.40 257.0434
1116.50 255.5068
1116.60 253.9366
1116.70 252.196
1116.80 249.9158
1116.90 247.4834
1117.00 244.792
1117.10 241.6002
1117.20 236.5374
1117.30 231.6826
1117.40 227.5977
1117.50 225.2743
1117.60 224.0634
1117.70 224.6228
1117.80 226.6103
1117.90 229.0909
1118.00 232.3449
1118.10 237.4192
1118.20 242.4202
1118.30 247.4107
1118.40 251.4459
1118.50 255.3355
1118.60 259.091
1118.70 259.6865
1118.80 259.6021
1118.90 259.4302
1119.00 257.6889
1119.10 254.6281
1119.20 252.1973
1119.30 250.2459
1119.40 249.5905
1119.50 249.0269
1119.60 248.4719
1119.70 247.9775
1119.80 247.7182
1119.90 247.58
1120.00 247.7259
1120.10 247.952
1120.20 248.1638
1120.30 249.0897
1120.40 250.7816
1120.50 252.7922
1120.60 254.9824
1120.70 257.7418
1120.80 259.698
1120.90 261.555
1121.00 262.1493
1121.10 262.6162
1121.20 263.0158
1121.30 261.609
1121.40 259.4971
1121.50 257.3248
1121.60 254.7
1121.70 251.5826
1121.80 248.4489
1121.90 245.4916
1122.00 243.1599
1122.10 241.0805
1122.20 239.0421
1122.30 240.7334
1122.40 243.1518
1122.50 245.9612
1122.60 251.0293
1122.70 256.9677
1122.80 262.8088
1122.90 266.8202
1123.00 268.5594
1123.10 269.1812
1123.20 268.7712
1123.30 264.2343
1123.40 260.0048
1123.50 255.8338
1123.60 251.957
1123.70 248.7546
1123.80 246.0294
1123.90 247.8705
1124.00 251.7663
1124.10 255.668
1124.20 260.7641
1124.30 267.2848
1124.40 272.5344
1124.50 277.0471
1124.60 278.2035
1124.70 278.6385
1124.80 278.9152
1124.90 272.654
1125.00 266.1257
1125.10 259.7743
1125.20 255.6802
1125.30 253.1209
1125.40 251.6136
1125.50 252.0918
1125.60 255.3333
1125.70 258.9817
1125.80 262.6409
1125.90 266.3527
1126.00 269.2659
1126.10 271.9795
1126.20 271.1049
1126.30 269.9478
1126.40 268.8526
1126.50 268.6939
1126.60 269.2042
1126.70 270.1707
1126.80 271.511
1126.90 273.3873
1127.00 274.4664
1127.10 275.2464
1127.20 274.3319
1127.30 272.332
1127.40 270.0259
1127.50 267.4779
1127.60 265.4265
1127.70 263.8581
1127.80 262.4707
1127.90 261.3758
1128.00 260.7962
1128.10 260.4372
1128.20 260.4242
1128.30 260.5156
1128.40 260.6811
1128.50 261.3013
1128.60 261.5371
1128.70 261.6516
1128.80 262.0422
1128.90 262.6417
1129.00 263.4057
1129.10 263.9549
1129.20 264.3027
1129.30 264.4247
1129.40 264.9613
1129.50 266.1741
1129.60 267.3053
1129.70 268.5224
1129.80 270.3688
1129.90 272.0732
1130.00 273.7277
1130.10 273.3497
1130.20 272.4758
1130.30 271.4019
1130.40 267.7859
1130.50 262.7397
1130.60 258.0989
1130.70 254.1985
1130.80 251.6146
1130.90 249.6396
1131.00 248.0544
1131.10 249.522
1131.20 251.3853
1131.30 253.3948
1131.40 257.2217
1131.50 260.9586
1131.60 264.2775
1131.70 267.0142
1131.80 269.3289
1131.90 271.4677
1132.00 273.0862
1132.10 273.7383
1132.20 273.9935
1132.30 274.083
1132.40 272.792
1132.50 271.951
1132.60 271.2938
1132.70 269.8376
1132.80 267.9343
1132.90 265.6718
1133.00 264.0449
1133.10 262.7621
1133.20 261.1794
1133.30 259.4305
1133.40 257.359
1133.50 255.3596
1133.60 253.3175
1133.70 250.8151
1133.80 248.4735
1133.90 246.2008
1134.00 240.5814
1134.10 234.3255
1134.20 228.0706
1134.30 223.531
1134.40 220.3784
1134.50 218.0052
1134.60 217.4702
1134.70 220.5035
1134.80 224.292
1134.90 228.359
1135.00 235.0743
1135.10 241.3499
1135.20 247.4279
1135.30 248.8037
1135.40 248.7578
1135.50 248.1284
1135.60 245.8553
1135.70 242.4657
1135.80 239.3899
1135.90 237.3412
1136.00 237.3781
1136.10 237.6871
1136.20 238.2014
1136.30 240.8768
1136.40 243.2681
1136.50 245.5256
1136.60 245.6795
1136.70 245.2687
1136.80 244.6805
1136.90 242.4062
1137.00 238.9133
1137.10 235.4312
1137.20 232.3488
1137.30 230.1158
1137.40 227.3885
1137.50 224.605
1137.60 221.5697
1137.70 217.5625
1137.80 213.0765
1137.90 204.2858
1138.00 195.1338
1138.10 186.7877
1138.20 178.1835
1138.30 169.8218
1138.40 163.5949
1138.50 160.2708
1138.60 163.115
1138.70 167.0069
1138.80 171.5299
1138.90 183.2278
1139.00 193.8211
1139.10 203.8704
1139.20 211.1141
1139.30 216.9802
1139.40 221.7943
1139.50 222.9053
1139.60 221.0823
1139.70 218.5221
1139.80 214.997
1139.90 209.4215
1140.00 203.31
1140.10 196.8983
1140.20 187.2008
1140.30 178.1565
1140.40 169.4488
1140.50 161.0399
1140.60 153.7667
1140.70 148.0268
1140.80 146.3777
1140.90 148.0908
1141.00 151.2537
1141.10 157.1368
1141.20 169.0746
1141.30 180.4642
1141.40 191.8045
1141.50 203.2234
1141.60 213.3572
1141.70 222.8291
1141.80 229.5252
1141.90 235.4647
1142.00 241.2523
1142.10 245.3219
1142.20 248.0125
1142.30 250.5504
1142.40 252.8095
1142.50 254.4477
1142.60 256.4529
1142.70 258.3877
1142.80 258.6513
1142.90 258.5943
1143.00 258.3647
1143.10 257.5445
1143.20 256.4637
1143.30 255.1867
1143.40 253.6871
1143.50 252.0459
1143.60 250.5546
1143.70 249.2018
1143.80 248.1432
1143.90 247.0492
1144.00 246.0165
1144.10 245.8518
1144.20 245.7764
1144.30 245.7493
1144.40 245.928
1144.50 246.162
1144.60 246.4112
1144.70 246.8698
1144.80 247.5642
1144.90 248.6984
1145.00 249.7388
1145.10 250.5797
1145.20 251.0754
1145.30 251.5044
1145.40 251.5576
1145.50 251.6938
1145.60 251.8747
1145.70 251.5293
1145.80 251.201
1145.90 251.0718
1146.00 251.8076
1146.10 253.2117
1146.20 254.7054
1146.30 256.8461
1146.40 260.3617
1146.50 263.7541
1146.60 267.0405
1146.70 269.1009
1146.80 270.7834
1146.90 272.2625
1147.00 272.0142
1147.10 271.2931
1147.20 270.4316
1147.30 269.4604
1147.40 268.475
1147.50 267.8774
1147.60 267.8939
1147.70 269.1574
1147.80 270.9046
1147.90 272.7087
1148.00 274.6167
1148.10 276.1694
1148.20 277.5389
1148.30 277.1902
1148.40 276.3335
1148.50 275.2525
1148.60 274.9118
1148.70 275.2013
1148.80 275.984
1148.90 277.0994
1149.00 278.8902
1149.10 280.482
1149.20 281.9701
1149.30 282.4905
1149.40 282.5973
1149.50 282.4911
1149.60 281.1718
1149.70 279.813
1149.80 278.7298
1149.90 278.2041
1150.00 278.1515
1150.10 278.5484
1150.20 279.0705
1150.30 279.8355
1150.40 280.6753
1150.50 281.5068
1150.60 282.1791
1150.70 282.3898
1150.80 282.3627
1150.90 283.1883
1151.00 284.2191
1151.10 285.3092
1151.20 285.9599
1151.30 286.2686
1151.40 286.3375
1151.50 285.9402
1151.60 284.6771
1151.70 283.4588
1151.80 282.1518
1151.90 280.0115
1152.00 277.4921
1152.10 274.786
1152.20 270.6881
1152.30 266.4643
1152.40 262.406
1152.50 259.1866
1152.60 256.6342
1152.70 254.7192
1152.80 253.6521
1152.90 254.0925
1153.00 255.0007
1153.10 256.0663
1153.20 258.1196
1153.30 259.7458
1153.40 261.171
1153.50 262.1083
1153.60 262.9884
1153.70 263.8981
1153.80 266.0841
1153.90 269.0716
1154.00 272.1461
1154.10 275.1581
1154.20 278.0633
1154.30 280.8774
1154.40 283.2291
1154.50 282.2411
1154.60 281.1887
1154.70 280.1072
1154.80 277.5519
1154.90 274.8351
1155.00 272.1932
1155.10 270.9344
1155.20 270.4555
1155.30 269.8388
1155.40 270.3449
1155.50 272.683
1155.60 274.8722
1155.70 276.929
1155.80 278.1634
1155.90 279.7124
1156.00 281.3962
1156.10 282.1639
1156.20 282.78
1156.30 283.349
1156.40 283.7521
1156.50 283.9952
1156.60 283.9717
1156.70 283.6755
1156.80 282.9527
1156.90 282.0489
1157.00 280.9126
1157.10 278.5007
1157.20 275.9652
1157.30 273.3791
1157.40 271.3552
1157.50 269.5319
1157.60 267.8707
1157.70 267.444
1157.80 267.8089
1157.90 268.7599
1158.00 270.0806
1158.10 271.933
1158.20 273.7241
1158.30 275.3455
1158.40 276.0857
1158.50 276.0038
1158.60 275.6022
1158.70 273.8658
1158.80 271.9356
1158.90 269.9177
1159.00 266.847
1159.10 263.2743
1159.20 259.7572
1159.30 256.3483
1159.40 253.0885
1159.50 250.5104
1159.60 248.1079
1159.70 246.442
1159.80 244.908
1159.90 243.4229
1160.00 244.3025
1160.10 245.5421
1160.20 246.9711
1160.30 249.7075
1160.40 252.9602
1160.50 255.9885
1160.60 258.3
1160.70 259.6991
1160.80 261.4259
1160.90 263.0393
1161.00 264.1993
1161.10 265.4529
1161.20 266.7377
1161.30 269.4117
1161.40 271.8438
1161.50 273.9608
1161.60 276.0608
1161.70 278.0317
1161.80 279.6559
1161.90 279.5432
1162.00 277.3958
1162.10 275.6665
1162.20 273.9073
1162.30 272.0353
1162.40 270.6361
1162.50 269.3781
1162.60 271.0021
1162.70 272.755
1162.80 274.5449
1162.90 277.7803
1163.00 281.3549
1163.10 284.3264
1163.20 286.0758
1163.30 286.4789
1163.40 286.1642
1163.50 284.974
1163.60 280.8528
1163.70 276.8964
1163.80 272.9863
1163.90 268.7057
1164.00 265.0304
1164.10 261.8739
1164.20 261.8168
1164.30 262.9494
1164.40 264.3287
1164.50 266.777
1164.60 270.2349
1164.70 272.5656
1164.80 274.306
1164.90 274.2754
1165.00 273.7985
1165.10 273.1712
1165.20 268.7128
1165.30 264.5832
1165.40 260.7119
1165.50 257.428
1165.60 254.6537
1165.70 252.6235
1165.80 252.8485
1165.90 255.145
1166.00 257.3053
1166.10 259.9054
1166.20 263.6368
1166.30 266.7323
1166.40 269.6314
1166.50 270.693
1166.60 271.5684
1166.70 272.309
1166.80 271.2426
1166.90 269.7391
1167.00 268.3232
1167.10 266.6678
1167.20 264.8271
1167.30 263.1761
1167.40 261.4642
1167.50 259.61
1167.60 257.5754
1167.70 255.5266
1167.80 253.7924
1167.90 251.8891
1168.00 249.8731
1168.10 247.1988
1168.20 243.9822
1168.30 240.045
1168.40 234.5287
1168.50 227.7081
1168.60 219.9722
1168.70 210.8451
1168.80 198.7619
1168.90 187.5134
1169.00 176.3435
1169.10 164.5161
1169.20 154.4664
1169.30 145.5062
1169.40 143.6841
1169.50 143.8741
1169.60 145.1751
1169.70 152.3845
1169.80 163.6564
1169.90 174.638
1170.00 186.6358
1170.10 200.521
1170.20 213.4694
1170.30 225.8091
1170.40 234.1608
1170.50 242.0084
1170.60 249.5726
1170.70 253.4974
1170.80 256.5927
1170.90 259.3322
1171.00 260.7121
1171.10 261.2411
1171.20 261.6697
1171.30 262.0164
1171.40 262.2297
1171.50 262.5752
1171.60 262.8586
1171.70 262.6383
1171.80 262.3755
1171.90 262.0916
1172.00 261.5426
1172.10 261.0138
1172.20 260.5582
1172.30 260.4469
1172.40 260.5663
1172.50 260.8924
1172.60 261.7388
1172.70 263.3657
1172.80 264.8572
1172.90 266.3055
1173.00 267.5724
1173.10 268.5483
1173.20 269.3933
1173.30 268.9592
1173.40 268.2887
1173.50 267.4654
1173.60 266.1093
1173.70 264.5892
1173.80 263.3949
1173.90 262.3642
1174.00 261.5505
1174.10 261.203
1174.20 261.2607
1174.30 262.963
1174.40 264.6183
1174.50 266.2554
1174.60 267.3284
1174.70 267.981
1174.80 268.2104
1174.90 266.9326
1175.00 264.9471
1175.10 262.6536
1175.20 259.4997
1175.30 255.3358
1175.40 251.6829
1175.50 248.3978
1175.60 246.3984
1175.70 244.4748
1175.80 242.5765
1175.90 241.5783
1176.00 240.3988
1176.10 239.0198
1176.20 236.8318
1176.30 234.0522
1176.40 230.3981
1176.50 225.3552
1176.60 218.8438
1176.70 211.2093
1176.80 202.3312
1176.90 189.7226
1177.00 177.3455
1177.10 165.008
1177.20 150.1066
1177.30 136.641
1177.40 124.4488
1177.50 117.4715
1177.60 112.706
1177.70 109.5416
1177.80 112.5267
1177.90 120.9989
1178.00 130.1148
1178.10 140.7371
1178.20 155.2332
1178.30 168.8999
1178.40 182.284
1178.50 193.5552
1178.60 204.3799
1178.70 214.8537
1178.80 222.1159
1178.90 228.3213
1179.00 233.9873
1179.10 237.9743
1179.20 240.6175
1179.30 242.9787
1179.40 244.8295
1179.50 245.5956
1179.60 246.4828
1179.70 247.4249
1179.80 248.7333
1179.90 250.2644
1180.00 251.944
1180.10 254.3215
1180.20 256.801
1180.30 259.2045
1180.40 261.0816
1180.50 262.5284
1180.60 263.4551
1180.70 263.8166
1180.80 263.1282
1180.90 262.2594
1181.00 261.2541
1181.10 259.3634
1181.20 257.543
1181.30 255.7639
1181.40 254.1912
1181.50 252.7862
1181.60 251.5952
1181.70 251.4422
1181.80 251.9371
1181.90 252.6489
1182.00 253.6796
1182.10 255.209
1182.20 256.5547
1182.30 257.7682
1182.40 258.3481
1182.50 258.8452
1182.60 259.2995
1182.70 259.2844
1182.80 259.21
1182.90 259.1182
1183.00 259.3267
1183.10 259.5876
1183.20 259.4126
1183.30 258.5972
1183.40 256.8974
1183.50 255.2475
1183.60 253.3695
1183.70 250.4378
1183.80 248.1585
1183.90 246.1589
1184.00 246.9703
1184.10 248.0555
1184.20 249.2515
1184.30 252.1087
1184.40 255.4361
1184.50 257.9063
1184.60 259.1775
1184.70 259.0413
1184.80 258.6859
1184.90 257.75
1185.00 254.7798
1185.10 252.5063
1185.20 250.4905
1185.30 250.0916
1185.40 249.9139
1185.50 249.9321
1185.60 251.694
1185.70 253.9845
1185.80 256.0232
1185.90 257.7575
1186.00 259.1821
1186.10 260.0835
1186.20 260.8021
1186.30 261.0001
1186.40 261.0486
1186.50 261.0306
1186.60 259.9408
1186.70 258.9394
1186.80 258.0165
1186.90 256.9086
1187.00 255.8736
1187.10 255.1451
1187.20 254.8455
1187.30 254.9141
1187.40 255.0347
1187.50 255.5552
1187.60 257.0089
1187.70 257.7667
1187.80 258.2511
1187.90 257.0102
1188.00 255.4582
1188.10 253.6715
1188.20 248.891
1188.30 243.7499
1188.40 239.211
1188.50 235.141
1188.60 231.4961
1188.70 228.7163
1188.80 227.6606
1188.90 229.9517
1189.00 232.2619
1189.10 234.7904
1189.20 239.2533
1189.30 243.4172
1189.40 247.3901
1189.50 249.993
1189.60 252.4001
1189.70 254.8538
1189.80 256.203
1189.90 256.8119
1190.00 256.998
1190.10 257.2071
1190.20 257.4537
1190.30 257.6452
1190.40 257.6007
1190.50 256.2578
1190.60 255.0296
1190.70 253.8633
1190.80 253.5781
1190.90 253.5701
1191.00 253.8358
1191.10 254.6963
1191.20 255.8314
1191.30 256.8762
1191.40 258.2255
1191.50 259.9784
1191.60 261.5306
1191.70 262.858
1191.80 263.2912
1191.90 263.5063
1192.00 263.6232
1192.10 263.4308
1192.20 263.3577
1192.30 263.4504
1192.40 263.1484
1192.50 262.6991
1192.60 262.3016
1192.70 262.0609
1192.80 261.9972
1192.90 261.9334
1193.00 262.0498
1193.10 262.7696
1193.20 262.9138
1193.30 262.8452
1193.40 261.4737
1193.50 260.051
1193.60 258.5749
1193.70 255.1938
1193.80 251.2778
1193.90 247.5514
1194.00 244.1617
1194.10 241.0885
1194.20 238.2982
1194.30 235.9907
1194.40 234.925
1194.50 233.5148
1194.60 231.9707
1194.70 229.5454
1194.80 227.4336
1194.90 225.5889
1195.00 223.6373
1195.10 221.8858
1195.20 220.6634
1195.30 221.474
1195.40 223.863
1195.50 225.9559
1195.60 228.2263
1195.70 230.8567
1195.80 232.7476
1195.90 234.1981
1196.00 232.838
1196.10 231.5283
1196.20 230.2552
1196.30 227.5748
1196.40 224.8011
1196.50 222.3286
1196.60 221.2203
1196.70 220.9348
1196.80 220.2486
1196.90 219.2225
1197.00 217.6175
1197.10 215.5249
1197.20 212.9963
1197.30 208.2372
1197.40 203.6963
1197.50 199.2835
1197.60 194.967
1197.70 191.0507
1197.80 187.7436
1197.90 186.8749
1198.00 187.3781
1198.10 188.537
1198.20 191.0487
1198.30 195.4286
1198.40 199.3248
1198.50 203.1697
1198.60 206.9989
1198.70 210.042
1198.80 212.715
1198.90 212.1463
1199.00 211.1656
1199.10 209.8778
1199.20 206.5078
1199.30 202.4972
1199.40 199.3256
1199.50 196.8332
1199.60 195.1067
1199.70 193.7103
1199.80 192.9441
1199.90 194.242
1200.00 195.5075
1200.10 196.7604
1200.20 197.3128
1200.30 197.8783
1200.40 198.4576
1200.50 199.6564
1200.60 201.1076
1200.70 202.7291
1200.80 204.5632
1200.90 206.5904
1201.00 208.307
1201.10 209.7262
1201.20 210.3803
1201.30 210.6532
1201.40 210.74
1201.50 209.4531
1201.60 208.2445
1201.70 207.1026
1201.80 206.6554
1201.90 206.4618
1202.00 206.4798
1202.10 207.0463
1202.20 208.0302
1202.30 209.0735
1202.40 209.6905
1202.50 209.48
1202.60 208.812
1202.70 207.9862
1202.80 206.6429
1202.90 205.5425
1203.00 204.6111
1203.10 204.24
1203.20 204.2625
1203.30 204.8466
1203.40 207.5109
1203.50 211.4282
1203.60 215.5985
1203.70 220.1163
1203.80 225.1778
1203.90 229.4358
1204.00 233.3224
1204.10 235.7851
1204.20 237.687
1204.30 239.2735
1204.40 237.2477
1204.50 235.037
1204.60 233.02
1204.70 231.1838
1204.80 229.5609
1204.90 228.6122
1205.00 228.7479
1205.10 230.2636
1205.20 232.0049
1205.30 234.1448
1205.40 237.7203
1205.50 241.095
1205.60 244.3794
1205.70 246.9061
1205.80 249.2157
1205.90 251.2884
1206.00 252.2513
1206.10 252.6712
1206.20 252.6206
1206.30 251.9273
1206.40 250.5913
1206.50 249.1992
1206.60 247.3525
1206.70 244.2157
1206.80 241.7776
1206.90 239.6641
1207.00 240.1074
1207.10 240.8621
1207.20 241.9158
1207.30 245.0389
1207.40 248.6451
1207.50 252.0708
1207.60 256.0673
1207.70 260.514
1207.80 264.4104
1207.90 267.2592
1208.00 267.8819
1208.10 268.1076
1208.20 268.1178
1208.30 266.7912
1208.40 264.9921
1208.50 262.8219
1208.60 258.3112
1208.70 253.4282
1208.80 248.7013
1208.90 243.0636
1209.00 236.9814
1209.10 232.2946
1209.20 229.0041
1209.30 228.0911
1209.40 228.0125
1209.50 228.9989
1209.60 235.6221
1209.70 241.4264
1209.80 246.7289
1209.90 251.7589
1210.00 256.1041
1210.10 259.3814
1210.20 257.238
1210.30 252.3961
1210.40 247.3788
1210.50 240.8141
1210.60 232.1983
1210.70 224.7432
1210.80 217.785
1210.90 212.4556
1211.00 207.8437
1211.10 203.5853
1211.20 204.0575
1211.30 204.7677
1211.40 205.5322
1211.50 207.9819
1211.60 211.0883
1211.70 214.2002
1211.80 217.9501
1211.90 222.364
1212.00 227.0366
1212.10 231.9649
1212.20 237.6279
1212.30 242.6858
1212.40 247.4692
1212.50 249.772
1212.60 251.4478
1212.70 252.4711
1212.80 249.8141
1212.90 246.1919
1213.00 242.7772
1213.10 237.8501
1213.20 231.7226
1213.30 227.4088
1213.40 225.0122
1213.50 226.8828
1213.60 229.2384
1213.70 232.1584
1213.80 240.0871
1213.90 247.4209
1214.00 254.268
1214.10 259.6768
1214.20 264.5272
1214.30 268.7734
1214.40 269.6962
1214.50 268.5196
1214.60 267.6325
1214.70 266.631
1214.80 265.4347
1214.90 264.4262
1215.00 263.6792
1215.10 264.3345
1215.20 264.644
1215.30 264.7325
1215.40 264.0926
1215.50 263.2583
1215.60 262.2388
1215.70 260.1143
1215.80 257.5201
1215.90 255.383
1216.00 253.7744
1216.10 252.8386
1216.20 252.3477
1216.30 252.1926
1216.40 253.1829
1216.50 254.3119
1216.60 255.5093
1216.70 257.6693
1216.80 259.7064
1216.90 261.5495
1217.00 263.1214
1217.10 264.5136
1217.20 265.5882
1217.30 265.9506
1217.40 265.6009
1217.50 265.5657
1217.60 265.383
1217.70 264.7527
1217.80 264.3937
1217.90 264.2023
1218.00 266.1871
1218.10 268.1656
1218.20 270.1377
1218.30 272.8197
1218.40 275.4251
1218.50 277.3075
1218.60 277.6116
1218.70 276.6805
1218.80 275.9108
1218.90 274.4198
1219.00 271.4639
1219.10 268.6304
1219.20 266.0633
1219.30 265.8619
1219.40 265.7403
1219.50 265.6814
1219.60 265.7493
1219.70 265.7934
1219.80 265.7433
1219.90 265.2948
1220.00 264.6376
1220.10 264.2355
1220.20 263.8948
1220.30 263.6503
1220.40 263.3383
1220.50 263.3691
1220.60 265.2574
1220.70 266.7547
1220.80 268.0122
1220.90 267.3806
1221.00 266.575
1221.10 265.7544
1221.20 262.5697
1221.30 258.3782
1221.40 254.5007
1221.50 250.841
1221.60 247.437
1221.70 244.3422
1221.80 241.8899
1221.90 241.62
1222.00 241.2564
1222.10 240.8507
1222.20 241.7367
1222.30 242.7321
1222.40 243.8452
1222.50 244.353
1222.60 244.8772
1222.70 246.1374
1222.80 248.5579
1222.90 252.0497
1223.00 255.7802
1223.10 260.2915
1223.20 266.7024
1223.30 272.4831
1223.40 277.9685
1223.50 282.1198
1223.60 285.7674
1223.70 288.9499
1223.80 288.9351
1223.90 288.2065
1224.00 287.4471
1224.10 285.4273
1224.20 282.5555
1224.30 280.1383
1224.40 278.279
1224.50 277.4113
1224.60 276.8887
1224.70 276.6684
1224.80 278.1095
1224.90 279.4705
1225.00 280.7735
1225.10 283.0134
1225.20 285.0751
1225.30 286.5907
1225.40 286.8408
1225.50 286.4359
1225.60 286.009
1225.70 284.6712
1225.80 282.126
1225.90 280.367
1226.00 278.8245
1226.10 277.7486
1226.20 277.0585
1226.30 276.5761
1226.40 278.9079
1226.50 281.0622
1226.60 282.8097
1226.70 285.0086
1226.80 287.2193
1226.90 288.7236
1227.00 288.8916
1227.10 287.6689
1227.20 286.8471
1227.30 285.6436
1227.40 283.2935
1227.50 281.4934
1227.60 279.9912
1227.70 281.2009
1227.80 282.3556
1227.90 283.4507
1228.00 285.8125
1228.10 288.3644
1228.20 290.537
1228.30 291.4976
1228.40 291.4963
1228.50 291.0193
1228.60 289.7176
1228.70 286.7414
1228.80 283.8515
1228.90 280.9882
1229.00 278.1588
1229.10 275.1716
1229.20 272.0553
1229.30 269.3785
1229.40 266.934
1229.50 264.8434
1229.60 262.6096
1229.70 260.3603
1229.80 258.8048
1229.90 258.3082
1230.00 259.4001
1230.10 261.0018
1230.20 263.2395
1230.30 268.1427
1230.40 272.603
1230.50 276.7919
1230.60 280.2432
1230.70 283.3032
1230.80 285.8248
1230.90 285.5613
1231.00 284.1734
1231.10 282.8557
1231.20 280.7876
1231.30 277.8736
1231.40 275.2251
1231.50 273.1461
1231.60 272.7971
1231.70 272.4853
1231.80 272.1906
1231.90 271.9475
1232.00 271.6748
1232.10 271.3674
1232.20 271.1011
1232.30 270.8658
1232.40 270.6956
1232.50 270.5021
1232.60 270.2895
1232.70 269.7205
1232.80 269.1462
1232.90 268.5599
1233.00 268.0419
1233.10 267.4002
1233.20 265.0881
1233.30 263.1143
1233.40 261.4405
1233.50 260.944
1233.60 260.7063
1233.70 260.5881
1233.80 261.7413
1233.90 263.6123
1234.00 264.6669
1234.10 265.5422
1234.20 266.1371
1234.30 266.7286
1234.40 266.9584
1234.50 265.2928
1234.60 264.0649
1234.70 263.1288
1234.80 263.4891
1234.90 264.0666
1235.00 264.822
1235.10 267.1806
1235.20 270.1305
1235.30 272.2886
1235.40 273.4859
1235.50 273.5556
1235.60 273.3904
1235.70 272.5698
1235.80 269.6328
1235.90 267.043
1236.00 264.6165
1236.10 263.831
1236.20 263.473
1236.30 263.659
1236.40 265.9947
1236.50 268.8726
1236.60 271.3745
1236.70 274.1825
1236.80 277.2512
1236.90 279.2829
1237.00 280.1475
1237.10 278.4612
1237.20 276.5225
1237.30 274.3463
1237.40 270.1324
1237.50 266.4885
1237.60 263.371
1237.70 261.4174
1237.80 259.8611
1237.90 258.7349
1238.00 260.1925
1238.10 263.2458
1238.20 265.4179
1238.30 267.4171
1238.40 269.1342
1238.50 269.6961
1238.60 269.1677
1238.70 263.8984
1238.80 258.6814
1238.90 253.5007
1239.00 245.4854
1239.10 237.7086
1239.20 230.794
1239.30 226.5257
1239.40 223.5632
1239.50 221.3824
1239.60 221.3251
1239.70 223.7606
1239.80 225.9134
1239.90 228.1347
1240.00 230.6902
1240.10 232.563
1240.20 234.0997
1240.30 232.5364
1240.40 231.098
1240.50 229.8184
1240.60 228.571
1240.70 227.5463
1240.80 227.3238
1240.90 228.1999
1241.00 230.0503
1241.10 231.7772
1241.20 234.0081
1241.30 237.4241
1241.40 239.8809
1241.50 241.7871
1241.60 240.8574
1241.70 239.8294
1241.80 238.707
1241.90 235.4086
1242.00 231.8913
1242.10 228.8765
1242.20 225.9247
1242.30 222.9966
1242.40 219.7573
1242.50 217.1674
1242.60 215.6372
1242.70 213.032
1242.80 209.7196
1242.90 203.7376
1243.00 197.8282
1243.10 191.9693
1243.20 183.5654
1243.30 175.6901
1243.40 169.1477
1243.50 164.8069
1243.60 161.669
1243.70 159.9617
1243.80 161.9221
1243.90 168.1882
1244.00 174.2804
1244.10 181.0801
1244.20 190.3131
1244.30 199.0371
1244.40 207.5104
1244.50 214.2863
1244.60 221.004
1244.70 227.6474
1244.80 232.9012
1244.90 237.6677
1245.00 242.1624
1245.10 246.1974
1245.20 249.8406
1245.30 252.9405
1245.40 255.5902
1245.50 257.2623
1245.60 258.518
1245.70 259.4818
1245.80 258.6859
1245.90 257.9921
1246.00 257.3927
1246.10 254.9212
1246.20 252.3333
1246.30 250.2694
1246.40 249.3253
1246.50 249.0885
1246.60 249.1785
1246.70 250.3637
1246.80 253.2619
1246.90 255.7833
1247.00 258.3109
1247.10 261.2763
1247.20 263.8715
1247.30 266.2199
1247.40 265.4799
1247.50 264.4731
1247.60 263.4077
1247.70 261.9167
1247.80 260.2504
1247.90 258.6274
1248.00 257.1135
1248.10 255.7229
1248.20 254.6454
1248.30 253.678
1248.40 252.9608
1248.50 252.4227
1248.60 251.9842
1248.70 252.2931
1248.80 252.5354
1248.90 252.696
1249.00 253.4842
1249.10 254.3721
1249.20 255.0224
1249.30 255.2424
1249.40 255.1242
1249.50 254.9527
1249.60 254.4936
1249.70 253.4516
1249.80 252.752
1249.90 252.2003
1250.00 252.0056
1250.10 251.6708
1250.20 251.2118
1250.30 251.5363
1250.40 251.901
1250.50 252.086
1250.60 251.454
1250.70 250.3421
1250.80 248.9627
1250.90 247.3371
1251.00 245.3571
1251.10 243.4003
1251.20 241.2761
1251.30 238.369
1251.40 234.9931
1251.50 231.3173
1251.60 227.3925
1251.70 223.017
1251.80 217.9274
1251.90 209.4385
1252.00 199.702
1252.10 190.386
1252.20 180.0486
1252.30 168.6481
1252.40 159.8567
1252.50 153.0849
1252.60 151.1601
1252.70 150.774
1252.80 151.5378
1252.90 163.3081
1253.00 174.8358
1253.10 186.0788
1253.20 199.2379
1253.30 212.4958
1253.40 224.5797
1253.50 233.4321
1253.60 239.9444
1253.70 246.0084
1253.80 251.098
1253.90 254.3777
1254.00 257.2721
1254.10 259.941
1254.20 261.7542
1254.30 263.4914
1254.40 265.1665
1254.50 264.9785
1254.60 264.5497
1254.70 264.0985
1254.80 262.9737
1254.90 261.5742
1255.00 260.9052
1255.10 261.3378
1255.20 263.2307
1255.30 265.1087
1255.40 267.4806
1255.50 271.72
1255.60 275.8187
1255.70 279.8349
1255.80 282.056
1255.90 283.8496
1256.00 285.0567
1256.10 284.7935
1256.20 284.0509
1256.30 283.3605
1256.40 281.5137
1256.50 278.5994
1256.60 276.133
1256.70 274.0155
1256.80 272.6821
1256.90 271.5028
1257.00 270.4632
1257.10 270.6273
1257.20 270.6786
1257.30 270.6123
1257.40 271.2954
1257.50 272.2123
1257.60 273.3886
1257.70 274.4507
1257.80 275.4484
1257.90 276.7234
1258.00 278.3767
1258.10 280.647
1258.20 282.4186
1258.30 284.0998
1258.40 285.975
1258.50 287.2915
1258.60 288.1865
1258.70 286.4786
1258.80 284.5426
1258.90 282.6031
1259.00 278.5734
1259.10 273.7288
1259.20 269.5399
1259.30 266.3429
1259.40 264.2647
1259.50 262.9248
1259.60 262.4347
1259.70 264.3466
1259.80 266.1994
1259.90 268.0323
1260.00 270.9045
1260.10 273.7334
1260.20 276.5049
1260.30 277.9356
1260.40 279.0139
1260.50 280.1958
1260.60 281.7668
1260.70 283.6436
1260.80 285.7894
1260.90 288.5125
1261.00 292.391
1261.10 295.567
1261.20 298.4373
1261.30 300.7772
1261.40 302.7685
1261.50 304.4381
1261.60 302.4831
1261.70 300.0316
1261.80 297.6904
1261.90 293.7387
1262.00 288.9371
1262.10 285.0126
1262.20 282.3301
1262.30 281.3627
1262.40 280.4843
1262.50 280.1691
1262.60 282.1775
1262.70 283.9457
1262.80 285.5537
1262.90 285.8435
1263.00 285.9853
1263.10 285.9753
1263.20 285.1225
1263.30 283.9413
1263.40 282.6654
1263.50 281.6115
1263.60 280.7708
1263.70 279.8511
1263.80 278.7454
1263.90 277.1792
1264.00 275.587
1264.10 273.9435
1264.20 271.5468
1264.30 269.4463
1264.40 267.6796
1264.50 266.6497
1264.60 265.9156
1264.70 265.606
1264.80 266.7735
1264.90 268.9234
1265.00 270.8586
1265.10 273.0258
1265.20 275.5881
1265.30 277.8141
1265.40 279.8773
1265.50 281.5231
1265.60 283.0777
1265.70 284.5577
1265.80 284.4308
1265.90 284.2346
1266.00 284.1818
1266.10 283.7647
1266.20 283.1703
1266.30 282.4524
1266.40 282.2724
1266.50 282.724
1266.60 283.4995
1266.70 284.2853
1266.80 284.9436
1266.90 285.6715
1267.00 286.4511
1267.10 288.4724
1267.20 290.478
1267.30 292.4619
1267.40 293.9598
1267.50 295.2881
1267.60 296.4771
1267.70 297.5555
1267.80 298.5434
1267.90 299.1963
1268.00 298.9349
1268.10 296.8456
1268.20 294.5695
1268.30 292.2888
1268.40 290.5884
1268.50 288.8861
1268.60 287.1821
1268.70 286.9934
1268.80 287.1372
1268.90 287.5538
1269.00 288.9016
1269.10 290.771
1269.20 292.5949
1269.30 293.5554
1269.40 293.3234
1269.50 292.8496
1269.60 291.9832
1269.70 289.6691
1269.80 287.3551
1269.90 285.0412
1270.00 282.8583
1270.10 280.7232
1270.20 278.66
1270.30 277.4909
1270.40 276.756
1270.50 276.7578
1270.60 277.4533
1270.70 278.8152
1270.80 280.3276
1270.90 282.2687
1271.00 285.2784
1271.10 288.1155
1271.20 290.8772
1271.30 293.6729
1271.40 296.076
1271.50 298.0182
1271.60 298.5261
1271.70 298.7693
1271.80 299.1048
1271.90 298.49
1272.00 297.2693
1272.10 296.2059
1272.20 295.4808
1272.30 295.3076
1272.40 295.044
1272.50 294.7925
1272.60 294.7536
1272.70 294.5587
1272.80 294.2359
1272.90 293.9345
1273.00 293.726
1273.10 293.7028
1273.20 293.2416
1273.30 292.5829
1273.40 291.836
1273.50 290.868
1273.60 289.6506
1273.70 288.1122
1273.80 286.1685
1273.90 283.1403
1274.00 280.4693
1274.10 278.0029
1274.20 276.1392
1274.30 274.732
1274.40 273.9554
1274.50 275.9803
1274.60 278.6785
1274.70 281.0913
1274.80 284.4851
1274.90 288.6191
1275.00 291.7994
1275.10 293.9662
1275.20 294.2226
1275.30 294.7292
1275.40 295.155
1275.50 294.3441
1275.60 293.9425
1275.70 293.9186
1275.80 295.374
1275.90 296.8248
1276.00 297.8163
1276.10 299.4859
1276.20 301.4599
1276.30 302.7295
1276.40 302.5002
1276.50 300.3634
1276.60 298.4216
1276.70 296.6292
1276.80 295.2595
1276.90 294.4405
1277.00 293.9735
1277.10 295.4718
1277.20 296.8758
1277.30 298.0605
1277.40 300.1197
1277.50 302.383
1277.60 304.2683
1277.70 304.2656
1277.80 302.5886
1277.90 300.247
1278.00 297.574
1278.10 294.2749
1278.20 291.5041
1278.30 288.9231
1278.40 286.0434
1278.50 283.3784
1278.60 280.9461
1278.70 281.2981
1278.80 282.2667
1278.90 283.7254
1279.00 285.9232
1279.10 288.5444
1279.20 290.8203
1279.30 293.5272
1279.40 296.8805
1279.50 299.8561
1279.60 302.2781
1279.70 302.6084
1279.80 302.6166
1279.90 302.3818
1280.00 301.6441
1280.10 300.884
1280.20 300.1314
1280.30 298.3477
1280.40 296.2136
1280.50 294.3058
1280.60 292.3277
1280.70 290.2791
1280.80 288.4865
1280.90 286.7484
1281.00 285.077
1281.10 283.4892
1281.20 282.0271
1281.30 282.1722
1281.40 282.3226
1281.50 282.4795
1281.60 283.0028
1281.70 283.5812
1281.80 284.0894
1281.90 284.9544
1282.00 286.0572
1282.10 287.4032
1282.20 288.6378
1282.30 289.6868
1282.40 290.6255
1282.50 291.5186
1282.60 292.3401
1282.70 292.954
1282.80 293.3911
1282.90 293.0962
1283.00 292.7543
1283.10 292.4481
1283.20 292.3486
1283.30 292.3395
1283.40 292.3496
1283.50 292.1532
1283.60 291.7239
1283.70 291.2866
1283.80 290.9543
1283.90 290.9405
1284.00 290.8737
1284.10 290.7764
1284.20 290.6552
1284.30 290.7388
1284.40 291.1171
1284.50 291.4544
1284.60 291.8004
1284.70 292.2269
1284.80 292.9869
1284.90 293.9984
1285.00 294.5685
1285.10 295.0957
1285.20 295.5774
1285.30 295.5071
1285.40 294.8935
1285.50 291.7173
1285.60 288.538
1285.70 285.3558
1285.80 281.3324
1285.90 277.4066
1286.00 273.9488
1286.10 271.6829
1286.20 270.0513
1286.30 269.1572
1286.40 269.5935
1286.50 271.6557
1286.60 274.0875
1286.70 276.7425
1286.80 279.9203
1286.90 282.8066
1287.00 285.5065
1287.10 289.6452
1287.20 293.3897
1287.30 296.491
1287.40 296.9256
1287.50 296.4625
1287.60 295.468
1287.70 292.539
1287.80 288.0271
1287.90 284.0409
1288.00 280.1213
1288.10 276.2592
1288.20 272.9105
1288.30 270.1446
1288.40 270.7358
1288.50 271.5932
1288.60 272.7388
1288.70 275.1228
1288.80 277.624
1288.90 279.9322
1289.00 282.7345
1289.10 285.7951
1289.20 288.6064
1289.30 291.0256
1289.40 292.9033
1289.50 294.2631
1289.60 295.2134
1289.70 295.0116
1289.80 294.8608
1289.90 294.7469
1290.00 291.9471
1290.10 289.2462
1290.20 286.8184
1290.30 285.2701
1290.40 284.0131
1290.50 282.7439
1290.60 282.0119
1290.70 281.7564
1290.80 281.4546
1290.90 281.5299
1291.00 282.4958
1291.10 283.2824
1291.20 283.9395
1291.30 284.0781
1291.40 284.3739
1291.50 284.8544
1291.60 284.9275
1291.70 284.9943
1291.80 285.281
1291.90 285.6756
1292.00 286.1323
1292.10 286.4644
1292.20 287.3691
1292.30 289.1327
1292.40 290.3333
1292.50 291.2477
1292.60 291.5816
1292.70 291.7332
1292.80 291.7416
1292.90 289.4418
1293.00 287.3555
1293.10 285.898
1293.20 283.9337
1293.30 281.805
1293.40 279.8625
1293.50 279.743
1293.60 281.3748
1293.70 282.9944
1293.80 284.7376
1293.90 286.8029
1294.00 288.5792
1294.10 290.1332
1294.20 290.5358
1294.30 291.0559
1294.40 291.7254
1294.50 291.3316
1294.60 290.7467
1294.70 290.2618
1294.80 291.209
1294.90 293.0719
1295.00 294.2493
1295.10 295.0179
1295.20 295.1583
1295.30 294.8739
1295.40 294.0438
1295.50 291.0523
1295.60 288.3095
1295.70 285.7786
1295.80 281.6727
1295.90 277.732
1296.00 274.3826
1296.10 273.5977
1296.20 273.8481
1296.30 273.9759
1296.40 274.9119
1296.50 276.6891
1296.60 278.3483
1296.70 279.9484
1296.80 281.4409
1296.90 282.9152
1297.00 284.3121
1297.10 284.0928
1297.20 283.8993
1297.30 283.7412
1297.40 284.2544
1297.50 284.8748
1297.60 285.3247
1297.70 285.6454
1297.80 285.8762
1297.90 286.3915
1298.00 286.8833
1298.10 287.32
1298.20 288.0639
1298.30 288.9327
1298.40 289.8978
1298.50 290.7433
1298.60 291.4782
1298.70 294.3524
1298.80 297.2134
1298.90 299.5872
1299.00 301.1319
1299.10 302.2967
1299.20 303.1323
1299.30 303.3294
1299.40 302.8064
1299.50 302.3559
1299.60 301.2803
1299.70 298.291
1299.80 295.4849
1299.90 292.7876
