# Version 2.1 - nm, norm@500 to 1, cut digits
# Wavelength(nm)  Flambda(ergs/cm^s/s/nm)
300.00 1.406104e-95
300.10 1.406104e-95
300.20 1.406104e-95
300.30 1.406104e-95
300.40 1.406104e-95
300.50 1.406104e-95
300.60 1.406104e-95
300.70 1.406104e-95
300.80 1.406104e-95
300.90 1.406104e-95
301.00 1.406104e-95
301.10 1.406104e-95
301.20 1.406104e-95
301.30 1.406104e-95
301.40 1.406104e-95
301.50 1.406104e-95
301.60 1.406104e-95
301.70 1.406104e-95
301.80 1.406104e-95
301.90 1.406104e-95
302.00 1.406104e-95
302.10 1.406104e-95
302.20 1.406104e-95
302.30 1.406104e-95
302.40 1.406104e-95
302.50 1.406104e-95
302.60 1.406104e-95
302.70 1.406104e-95
302.80 1.406104e-95
302.90 1.406104e-95
303.00 1.406104e-95
303.10 1.406104e-95
303.20 1.406104e-95
303.30 1.406104e-95
303.40 1.406104e-95
303.50 1.406104e-95
303.60 1.406104e-95
303.70 1.406104e-95
303.80 1.406104e-95
303.90 1.406104e-95
304.00 1.406104e-95
304.10 1.406104e-95
304.20 1.406104e-95
304.30 1.406104e-95
304.40 1.406104e-95
304.50 1.406104e-95
304.60 1.406104e-95
304.70 1.406104e-95
304.80 1.406104e-95
304.90 1.406104e-95
305.00 1.406104e-95
305.10 1.406104e-95
305.20 1.406104e-95
305.30 1.406104e-95
305.40 1.406104e-95
305.50 1.406104e-95
305.60 1.406104e-95
305.70 1.406104e-95
305.80 1.406104e-95
305.90 1.406104e-95
306.00 1.406104e-95
306.10 1.406104e-95
306.20 1.406104e-95
306.30 1.406104e-95
306.40 1.406104e-95
306.50 1.406104e-95
306.60 1.406104e-95
306.70 1.406104e-95
306.80 1.406104e-95
306.90 1.406104e-95
307.00 1.406104e-95
307.10 1.406104e-95
307.20 1.406104e-95
307.30 1.406104e-95
307.40 1.406104e-95
307.50 1.406104e-95
307.60 1.406104e-95
307.70 1.406104e-95
307.80 1.406104e-95
307.90 1.406104e-95
308.00 1.406104e-95
308.10 1.406104e-95
308.20 1.406104e-95
308.30 1.406104e-95
308.40 1.406104e-95
308.50 1.406104e-95
308.60 1.406104e-95
308.70 1.406104e-95
308.80 1.406104e-95
308.90 1.406104e-95
309.00 1.406104e-95
309.10 1.406104e-95
309.20 1.406104e-95
309.30 1.406104e-95
309.40 1.406104e-95
309.50 1.406104e-95
309.60 1.406104e-95
309.70 1.406104e-95
309.80 1.406104e-95
309.90 1.406104e-95
310.00 1.406104e-95
310.10 1.406104e-95
310.20 1.406104e-95
310.30 1.406104e-95
310.40 1.406104e-95
310.50 1.406104e-95
310.60 1.406104e-95
310.70 1.406104e-95
310.80 1.406104e-95
310.90 1.406104e-95
311.00 1.406104e-95
311.10 1.406104e-95
311.20 1.406104e-95
311.30 1.406104e-95
311.40 1.406104e-95
311.50 1.406104e-95
311.60 1.406104e-95
311.70 1.406104e-95
311.80 1.406104e-95
311.90 1.406104e-95
312.00 1.406104e-95
312.10 1.406104e-95
312.20 1.406104e-95
312.30 1.406104e-95
312.40 1.406104e-95
312.50 1.406104e-95
312.60 1.406104e-95
312.70 1.406104e-95
312.80 1.406104e-95
312.90 1.406104e-95
313.00 1.406104e-95
313.10 1.406104e-95
313.20 1.406104e-95
313.30 1.406104e-95
313.40 1.406104e-95
313.50 1.406104e-95
313.60 1.406104e-95
313.70 1.406104e-95
313.80 1.406104e-95
313.90 1.406104e-95
314.00 1.406104e-95
314.10 1.406104e-95
314.20 1.406104e-95
314.30 1.406104e-95
314.40 1.406104e-95
314.50 1.406104e-95
314.60 1.406104e-95
314.70 1.406104e-95
314.80 1.406104e-95
314.90 1.406104e-95
315.00 1.406104e-95
315.10 1.406104e-95
315.20 1.406104e-95
315.30 1.406104e-95
315.40 1.406104e-95
315.50 1.406104e-95
315.60 1.406104e-95
315.70 1.406104e-95
315.80 1.406104e-95
315.90 1.406104e-95
316.00 1.406104e-95
316.10 1.406104e-95
316.20 1.406104e-95
316.30 1.406104e-95
316.40 1.406104e-95
316.50 1.406104e-95
316.60 1.406104e-95
316.70 1.406104e-95
316.80 1.406104e-95
316.90 1.406104e-95
317.00 1.406104e-95
317.10 1.406104e-95
317.20 1.406104e-95
317.30 1.406104e-95
317.40 1.406104e-95
317.50 1.406104e-95
317.60 1.406104e-95
317.70 1.406104e-95
317.80 1.406104e-95
317.90 1.406104e-95
318.00 1.406104e-95
318.10 1.406104e-95
318.20 1.406104e-95
318.30 1.406104e-95
318.40 1.406104e-95
318.50 1.406104e-95
318.60 1.406104e-95
318.70 1.406104e-95
318.80 1.406104e-95
318.90 1.406104e-95
319.00 1.406104e-95
319.10 1.406104e-95
319.20 1.406104e-95
319.30 1.406104e-95
319.40 1.406104e-95
319.50 1.406104e-95
319.60 1.406104e-95
319.70 1.406104e-95
319.80 1.406104e-95
319.90 1.406104e-95
320.00 1.406104e-95
320.10 1.406104e-95
320.20 1.406104e-95
320.30 1.406104e-95
320.40 1.406104e-95
320.50 1.406104e-95
320.60 1.406104e-95
320.70 1.406104e-95
320.80 1.406104e-95
320.90 1.406104e-95
321.00 1.406104e-95
321.10 1.406104e-95
321.20 1.406104e-95
321.30 1.406104e-95
321.40 1.406104e-95
321.50 1.406104e-95
321.60 1.406104e-95
321.70 1.406104e-95
321.80 1.406104e-95
321.90 1.406104e-95
322.00 1.406104e-95
322.10 1.406104e-95
322.20 1.406104e-95
322.30 1.406104e-95
322.40 1.406104e-95
322.50 1.406104e-95
322.60 1.406104e-95
322.70 1.406104e-95
322.80 1.406104e-95
322.90 1.406104e-95
323.00 1.406104e-95
323.10 1.406104e-95
323.20 1.406104e-95
323.30 1.406104e-95
323.40 1.406104e-95
323.50 1.406104e-95
323.60 1.406104e-95
323.70 1.406104e-95
323.80 1.406104e-95
323.90 1.406104e-95
324.00 1.406104e-95
324.10 1.406104e-95
324.20 1.406104e-95
324.30 1.406104e-95
324.40 1.406104e-95
324.50 1.406104e-95
324.60 1.406104e-95
324.70 1.406104e-95
324.80 1.406104e-95
324.90 1.406104e-95
325.00 1.406104e-95
325.10 1.406104e-95
325.20 1.406104e-95
325.30 1.406104e-95
325.40 1.406104e-95
325.50 1.406104e-95
325.60 1.406104e-95
325.70 1.406104e-95
325.80 1.406104e-95
325.90 1.406104e-95
326.00 1.406104e-95
326.10 1.406104e-95
326.20 1.406104e-95
326.30 1.406104e-95
326.40 1.406104e-95
326.50 1.406104e-95
326.60 1.406104e-95
326.70 1.406104e-95
326.80 1.406104e-95
326.90 1.406104e-95
327.00 1.406104e-95
327.10 1.406104e-95
327.20 1.406104e-95
327.30 1.406104e-95
327.40 1.406104e-95
327.50 1.406104e-95
327.60 1.406104e-95
327.70 1.406104e-95
327.80 1.406104e-95
327.90 1.406104e-95
328.00 1.406104e-95
328.10 1.406104e-95
328.20 1.406104e-95
328.30 1.406104e-95
328.40 1.406104e-95
328.50 1.406104e-95
328.60 1.406104e-95
328.70 1.406104e-95
328.80 1.406104e-95
328.90 1.406104e-95
329.00 1.406104e-95
329.10 1.406104e-95
329.20 1.406104e-95
329.30 1.406104e-95
329.40 1.406104e-95
329.50 1.406104e-95
329.60 1.406104e-95
329.70 1.406104e-95
329.80 1.406104e-95
329.90 1.406104e-95
330.00 1.406104e-95
330.10 1.406104e-95
330.20 1.406104e-95
330.30 1.406104e-95
330.40 1.406104e-95
330.50 1.406104e-95
330.60 1.406104e-95
330.70 1.406104e-95
330.80 1.406104e-95
330.90 1.406104e-95
331.00 1.406104e-95
331.10 1.406104e-95
331.20 1.406104e-95
331.30 1.406104e-95
331.40 1.406104e-95
331.50 1.406104e-95
331.60 1.406104e-95
331.70 1.406104e-95
331.80 1.406104e-95
331.90 1.406104e-95
332.00 1.406104e-95
332.10 1.406104e-95
332.20 1.406104e-95
332.30 1.406104e-95
332.40 1.406104e-95
332.50 1.406104e-95
332.60 1.406104e-95
332.70 1.406104e-95
332.80 1.406104e-95
332.90 1.406104e-95
333.00 1.406104e-95
333.10 1.406104e-95
333.20 1.406104e-95
333.30 1.406104e-95
333.40 1.406104e-95
333.50 1.406104e-95
333.60 1.406104e-95
333.70 1.406104e-95
333.80 1.406104e-95
333.90 1.406104e-95
334.00 1.406104e-95
334.10 1.406104e-95
334.20 1.406104e-95
334.30 1.406104e-95
334.40 1.406104e-95
334.50 1.406104e-95
334.60 1.406104e-95
334.70 1.406104e-95
334.80 1.406104e-95
334.90 1.406104e-95
335.00 1.406104e-95
335.10 1.406104e-95
335.20 1.406104e-95
335.30 1.406104e-95
335.40 1.406104e-95
335.50 1.406104e-95
335.60 1.406104e-95
335.70 1.406104e-95
335.80 1.406104e-95
335.90 1.406104e-95
336.00 1.406104e-95
336.10 1.406104e-95
336.20 1.406104e-95
336.30 1.406104e-95
336.40 1.406104e-95
336.50 1.406104e-95
336.60 1.406104e-95
336.70 1.406104e-95
336.80 1.406104e-95
336.90 1.406104e-95
337.00 1.406104e-95
337.10 1.406104e-95
337.20 1.406104e-95
337.30 1.406104e-95
337.40 1.406104e-95
337.50 1.406104e-95
337.60 1.406104e-95
337.70 1.406104e-95
337.80 1.406104e-95
337.90 1.406104e-95
338.00 1.406104e-95
338.10 1.406104e-95
338.20 1.406104e-95
338.30 1.406104e-95
338.40 1.406104e-95
338.50 1.406104e-95
338.60 1.406104e-95
338.70 1.406104e-95
338.80 1.406104e-95
338.90 1.406104e-95
339.00 1.406104e-95
339.10 1.406104e-95
339.20 1.406104e-95
339.30 1.406104e-95
339.40 1.406104e-95
339.50 1.406104e-95
339.60 1.406104e-95
339.70 1.406104e-95
339.80 1.406104e-95
339.90 1.406104e-95
340.00 1.406104e-95
340.10 1.406104e-95
340.20 1.406104e-95
340.30 1.406104e-95
340.40 1.406104e-95
340.50 1.406104e-95
340.60 1.406104e-95
340.70 1.406104e-95
340.80 1.406104e-95
340.90 1.406104e-95
341.00 1.406104e-95
341.10 1.406104e-95
341.20 1.406104e-95
341.30 1.406104e-95
341.40 1.406104e-95
341.50 1.406104e-95
341.60 1.406104e-95
341.70 1.406104e-95
341.80 1.406104e-95
341.90 1.406104e-95
342.00 1.406104e-95
342.10 1.406104e-95
342.20 1.406104e-95
342.30 1.406104e-95
342.40 1.406104e-95
342.50 1.406104e-95
342.60 1.406104e-95
342.70 1.406104e-95
342.80 1.406104e-95
342.90 1.406104e-95
343.00 1.406104e-95
343.10 1.406104e-95
343.20 1.406104e-95
343.30 1.406104e-95
343.40 1.406104e-95
343.50 1.406104e-95
343.60 1.406104e-95
343.70 1.406104e-95
343.80 1.406104e-95
343.90 1.406104e-95
344.00 1.406104e-95
344.10 1.406104e-95
344.20 1.406104e-95
344.30 1.406104e-95
344.40 1.406104e-95
344.50 1.406104e-95
344.60 1.406104e-95
344.70 1.406104e-95
344.80 1.406104e-95
344.90 1.406104e-95
345.00 1.406104e-95
345.10 1.406104e-95
345.20 1.406104e-95
345.30 1.406104e-95
345.40 1.406104e-95
345.50 1.406104e-95
345.60 1.406104e-95
345.70 1.406104e-95
345.80 1.406104e-95
345.90 1.406104e-95
346.00 1.406104e-95
346.10 1.406104e-95
346.20 1.406104e-95
346.30 1.406104e-95
346.40 1.406104e-95
346.50 1.406104e-95
346.60 1.406104e-95
346.70 1.406104e-95
346.80 1.406104e-95
346.90 1.406104e-95
347.00 1.406104e-95
347.10 1.406104e-95
347.20 1.406104e-95
347.30 1.406104e-95
347.40 1.406104e-95
347.50 1.406104e-95
347.60 1.406104e-95
347.70 1.406104e-95
347.80 1.406104e-95
347.90 1.406104e-95
348.00 1.406104e-95
348.10 1.406104e-95
348.20 1.406104e-95
348.30 1.406104e-95
348.40 1.406104e-95
348.50 1.406104e-95
348.60 1.406104e-95
348.70 1.406104e-95
348.80 1.406104e-95
348.90 1.406104e-95
349.00 1.406104e-95
349.10 1.406104e-95
349.20 1.406104e-95
349.30 1.406104e-95
349.40 1.406104e-95
349.50 1.406104e-95
349.60 1.406104e-95
349.70 1.406104e-95
349.80 1.406104e-95
349.90 1.406104e-95
350.00 1.406104e-95
350.10 1.406104e-95
350.20 1.406104e-95
350.30 1.406104e-95
350.40 1.406104e-95
350.50 1.406104e-95
350.60 1.406104e-95
350.70 1.406104e-95
350.80 1.406104e-95
350.90 1.406104e-95
351.00 1.406104e-95
351.10 1.406104e-95
351.20 1.406104e-95
351.30 1.406104e-95
351.40 1.406104e-95
351.50 1.406104e-95
351.60 1.406104e-95
351.70 1.406104e-95
351.80 1.406104e-95
351.90 1.406104e-95
352.00 1.406104e-95
352.10 1.406104e-95
352.20 1.406104e-95
352.30 1.406104e-95
352.40 1.406104e-95
352.50 1.406104e-95
352.60 1.406104e-95
352.70 1.406104e-95
352.80 1.406104e-95
352.90 1.406104e-95
353.00 1.406104e-95
353.10 1.406104e-95
353.20 1.406104e-95
353.30 1.406104e-95
353.40 1.406104e-95
353.50 1.406104e-95
353.60 1.406104e-95
353.70 1.406104e-95
353.80 1.406104e-95
353.90 1.406104e-95
354.00 1.406104e-95
354.10 1.406104e-95
354.20 1.406104e-95
354.30 1.406104e-95
354.40 1.406104e-95
354.50 1.406104e-95
354.60 1.406104e-95
354.70 1.406104e-95
354.80 1.406104e-95
354.90 1.406104e-95
355.00 1.406104e-95
355.10 1.406104e-95
355.20 1.406104e-95
355.30 1.406104e-95
355.40 1.406104e-95
355.50 1.406104e-95
355.60 1.406104e-95
355.70 1.406104e-95
355.80 1.406104e-95
355.90 1.406104e-95
356.00 1.406104e-95
356.10 1.406104e-95
356.20 1.406104e-95
356.30 1.406104e-95
356.40 1.406104e-95
356.50 1.406104e-95
356.60 1.406104e-95
356.70 1.406104e-95
356.80 1.406104e-95
356.90 1.406104e-95
357.00 1.406104e-95
357.10 1.406104e-95
357.20 1.406104e-95
357.30 1.406104e-95
357.40 1.406104e-95
357.50 1.406104e-95
357.60 1.406104e-95
357.70 1.406104e-95
357.80 1.406104e-95
357.90 1.406104e-95
358.00 1.406104e-95
358.10 1.406104e-95
358.20 1.406104e-95
358.30 1.406104e-95
358.40 1.406104e-95
358.50 1.406104e-95
358.60 1.406104e-95
358.70 1.406104e-95
358.80 1.406104e-95
358.90 1.406104e-95
359.00 1.406104e-95
359.10 1.406104e-95
359.20 1.406104e-95
359.30 1.406104e-95
359.40 1.406104e-95
359.50 1.406104e-95
359.60 1.406104e-95
359.70 1.406104e-95
359.80 1.406104e-95
359.90 1.406104e-95
360.00 1.406104e-95
360.10 1.406104e-95
360.20 1.406104e-95
360.30 1.406104e-95
360.40 1.406104e-95
360.50 1.406104e-95
360.60 1.406104e-95
360.70 1.406104e-95
360.80 1.406104e-95
360.90 1.406104e-95
361.00 1.406104e-95
361.10 1.406104e-95
361.20 1.406104e-95
361.30 1.406104e-95
361.40 1.406104e-95
361.50 1.406104e-95
361.60 1.406104e-95
361.70 1.406104e-95
361.80 1.406104e-95
361.90 1.406104e-95
362.00 1.406104e-95
362.10 1.406104e-95
362.20 1.406104e-95
362.30 1.406104e-95
362.40 1.406104e-95
362.50 1.406104e-95
362.60 1.406104e-95
362.70 1.406104e-95
362.80 1.406104e-95
362.90 1.406104e-95
363.00 1.406104e-95
363.10 1.406104e-95
363.20 1.406104e-95
363.30 1.406104e-95
363.40 1.406104e-95
363.50 1.406104e-95
363.60 1.406104e-95
363.70 1.406104e-95
363.80 1.406104e-95
363.90 1.406104e-95
364.00 1.406104e-95
364.10 1.406104e-95
364.20 1.406104e-95
364.30 1.406104e-95
364.40 1.406104e-95
364.50 1.406104e-95
364.60 1.406104e-95
364.70 1.406104e-95
364.80 1.406104e-95
364.90 1.406104e-95
365.00 1.406104e-95
365.10 1.406104e-95
365.20 1.406104e-95
365.30 1.406104e-95
365.40 1.406104e-95
365.50 1.406104e-95
365.60 1.406104e-95
365.70 1.406104e-95
365.80 1.406104e-95
365.90 1.406104e-95
366.00 1.406104e-95
366.10 1.406104e-95
366.20 1.406104e-95
366.30 1.406104e-95
366.40 1.406104e-95
366.50 1.406104e-95
366.60 1.406104e-95
366.70 1.406104e-95
366.80 1.406104e-95
366.90 1.406104e-95
367.00 1.406104e-95
367.10 1.406104e-95
367.20 1.406104e-95
367.30 1.406104e-95
367.40 1.406104e-95
367.50 1.406104e-95
367.60 1.406104e-95
367.70 1.406104e-95
367.80 1.406104e-95
367.90 1.406104e-95
368.00 1.406104e-95
368.10 1.406104e-95
368.20 1.406104e-95
368.30 1.406104e-95
368.40 1.406104e-95
368.50 1.406104e-95
368.60 1.406104e-95
368.70 1.406104e-95
368.80 1.406104e-95
368.90 1.406104e-95
369.00 1.406104e-95
369.10 1.406104e-95
369.20 1.406104e-95
369.30 1.406104e-95
369.40 1.406104e-95
369.50 1.406104e-95
369.60 1.406104e-95
369.70 1.406104e-95
369.80 1.406104e-95
369.90 1.406104e-95
370.00 1.406104e-95
370.10 1.406104e-95
370.20 1.406104e-95
370.30 1.406104e-95
370.40 1.406104e-95
370.50 1.406104e-95
370.60 1.406104e-95
370.70 1.406104e-95
370.80 1.406104e-95
370.90 1.406104e-95
371.00 1.406104e-95
371.10 1.406104e-95
371.20 1.406104e-95
371.30 1.406104e-95
371.40 1.406104e-95
371.50 1.406104e-95
371.60 1.406104e-95
371.70 1.406104e-95
371.80 1.406104e-95
371.90 1.406104e-95
372.00 1.406104e-95
372.10 1.406104e-95
372.20 1.406104e-95
372.30 1.406104e-95
372.40 1.406104e-95
372.50 1.406104e-95
372.60 1.406104e-95
372.70 1.406104e-95
372.80 1.406104e-95
372.90 1.406104e-95
373.00 1.406104e-95
373.10 1.406104e-95
373.20 1.406104e-95
373.30 1.406104e-95
373.40 1.406104e-95
373.50 1.406104e-95
373.60 1.406104e-95
373.70 1.406104e-95
373.80 1.406104e-95
373.90 1.406104e-95
374.00 1.406104e-95
374.10 1.406104e-95
374.20 1.406104e-95
374.30 1.406104e-95
374.40 1.406104e-95
374.50 1.406104e-95
374.60 1.406104e-95
374.70 1.406104e-95
374.80 1.406104e-95
374.90 1.406104e-95
375.00 1.406104e-95
375.10 1.406104e-95
375.20 1.406104e-95
375.30 1.406104e-95
375.40 1.406104e-95
375.50 1.406104e-95
375.60 1.406104e-95
375.70 1.406104e-95
375.80 1.406104e-95
375.90 1.406104e-95
376.00 1.406104e-95
376.10 1.406104e-95
376.20 1.406104e-95
376.30 1.406104e-95
376.40 1.406104e-95
376.50 1.406104e-95
376.60 1.406104e-95
376.70 1.406104e-95
376.80 1.406104e-95
376.90 1.406104e-95
377.00 1.406104e-95
377.10 1.406104e-95
377.20 1.406104e-95
377.30 1.406104e-95
377.40 1.406104e-95
377.50 1.406104e-95
377.60 1.406104e-95
377.70 1.406104e-95
377.80 1.406104e-95
377.90 1.406104e-95
378.00 1.406104e-95
378.10 1.406104e-95
378.20 1.406104e-95
378.30 1.406104e-95
378.40 1.406104e-95
378.50 1.406104e-95
378.60 1.406104e-95
378.70 1.406104e-95
378.80 1.406104e-95
378.90 1.406104e-95
379.00 1.406104e-95
379.10 1.406104e-95
379.20 1.406104e-95
379.30 1.406104e-95
379.40 1.406104e-95
379.50 1.406104e-95
379.60 1.406104e-95
379.70 1.406104e-95
379.80 1.406104e-95
379.90 1.406104e-95
380.00 1.406104e-95
380.10 1.406104e-95
380.20 1.406104e-95
380.30 1.406104e-95
380.40 1.406104e-95
380.50 1.406104e-95
380.60 1.406104e-95
380.70 1.406104e-95
380.80 1.406104e-95
380.90 1.406104e-95
381.00 1.406104e-95
381.10 1.406104e-95
381.20 1.406104e-95
381.30 1.406104e-95
381.40 1.406104e-95
381.50 1.406104e-95
381.60 1.406104e-95
381.70 1.406104e-95
381.80 1.406104e-95
381.90 1.406104e-95
382.00 1.406104e-95
382.10 1.406104e-95
382.20 1.406104e-95
382.30 1.406104e-95
382.40 1.406104e-95
382.50 1.406104e-95
382.60 1.406104e-95
382.70 1.406104e-95
382.80 1.406104e-95
382.90 1.406104e-95
383.00 1.406104e-95
383.10 1.406104e-95
383.20 1.406104e-95
383.30 1.406104e-95
383.40 1.406104e-95
383.50 1.406104e-95
383.60 1.406104e-95
383.70 1.406104e-95
383.80 1.406104e-95
383.90 1.406104e-95
384.00 1.406104e-95
384.10 1.406104e-95
384.20 1.406104e-95
384.30 1.406104e-95
384.40 1.406104e-95
384.50 1.406104e-95
384.60 1.406104e-95
384.70 1.406104e-95
384.80 1.406104e-95
384.90 1.406104e-95
385.00 1.406104e-95
385.10 1.406104e-95
385.20 1.406104e-95
385.30 1.406104e-95
385.40 1.406104e-95
385.50 1.406104e-95
385.60 1.406104e-95
385.70 1.406104e-95
385.80 1.406104e-95
385.90 1.406104e-95
386.00 1.406104e-95
386.10 1.406104e-95
386.20 1.406104e-95
386.30 1.406104e-95
386.40 1.406104e-95
386.50 1.406104e-95
386.60 1.406104e-95
386.70 1.406104e-95
386.80 1.406104e-95
386.90 1.406104e-95
387.00 1.406104e-95
387.10 1.406104e-95
387.20 1.406104e-95
387.30 1.406104e-95
387.40 1.406104e-95
387.50 1.406104e-95
387.60 1.406104e-95
387.70 1.406104e-95
387.80 1.406104e-95
387.90 1.406104e-95
388.00 1.406104e-95
388.10 1.406104e-95
388.20 1.406104e-95
388.30 1.406104e-95
388.40 1.406104e-95
388.50 1.406104e-95
388.60 1.406104e-95
388.70 1.406104e-95
388.80 1.406104e-95
388.90 1.406104e-95
389.00 1.406104e-95
389.10 1.406104e-95
389.20 1.406104e-95
389.30 1.406104e-95
389.40 1.406104e-95
389.50 1.406104e-95
389.60 1.406104e-95
389.70 1.406104e-95
389.80 1.406104e-95
389.90 1.406104e-95
390.00 1.406104e-95
390.10 1.406104e-95
390.20 1.406104e-95
390.30 1.406104e-95
390.40 1.406104e-95
390.50 1.406104e-95
390.60 1.406104e-95
390.70 1.406104e-95
390.80 1.406104e-95
390.90 1.406104e-95
391.00 1.406104e-95
391.10 1.406104e-95
391.20 1.406104e-95
391.30 1.406104e-95
391.40 1.406104e-95
391.50 1.406104e-95
391.60 1.406104e-95
391.70 1.406104e-95
391.80 1.406104e-95
391.90 1.406104e-95
392.00 1.406104e-95
392.10 1.406104e-95
392.20 1.406104e-95
392.30 1.406104e-95
392.40 1.406104e-95
392.50 1.406104e-95
392.60 1.406104e-95
392.70 1.406104e-95
392.80 1.406104e-95
392.90 1.406104e-95
393.00 1.406104e-95
393.10 1.406104e-95
393.20 1.406104e-95
393.30 1.406104e-95
393.40 1.406104e-95
393.50 1.406104e-95
393.60 1.406104e-95
393.70 1.406104e-95
393.80 1.406104e-95
393.90 1.406104e-95
394.00 1.406104e-95
394.10 1.406104e-95
394.20 1.406104e-95
394.30 1.406104e-95
394.40 1.406104e-95
394.50 1.406104e-95
394.60 1.406104e-95
394.70 1.406104e-95
394.80 1.406104e-95
394.90 1.406104e-95
395.00 0.006153274
395.10 0.01182468
395.20 0.01716551
395.30 0.02235845
395.40 0.02779565
395.50 0.03394506
395.60 0.04107998
395.70 0.0491985
395.80 0.05801228
395.90 0.0671676
396.00 0.07634444
396.10 0.08512414
396.20 0.09310145
396.30 0.09997313
396.40 0.1056018
396.50 0.1100692
396.60 0.1135723
396.70 0.116446
396.80 0.1190741
396.90 0.1217372
397.00 0.1246479
397.10 0.1280291
397.20 0.1320934
397.30 0.1367995
397.40 0.1419085
397.50 0.1472367
397.60 0.152694
397.70 0.1582669
397.80 0.1639233
397.90 0.1696165
398.00 0.1753922
398.10 0.1812969
398.20 0.1873027
398.30 0.1934007
398.40 0.1996171
398.50 0.2059865
398.60 0.2125467
398.70 0.2193118
398.80 0.226282
398.90 0.2334614
399.00 0.2407448
399.10 0.2479295
399.20 0.2548243
399.30 0.2612689
399.40 0.2671609
399.50 0.2725808
399.60 0.2777489
399.70 0.2828582
399.80 0.2880829
399.90 0.2935532
400.00 0.2992799
400.10 0.3052563
400.20 0.311461
400.30 0.3178426
400.40 0.3243957
400.50 0.3311051
400.60 0.3378905
400.70 0.3445929
400.80 0.3509402
400.90 0.3565363
401.00 0.3610695
401.10 0.3644589
401.20 0.3668091
401.30 0.3683641
401.40 0.369399
401.50 0.370087
401.60 0.3705435
401.70 0.3709678
401.80 0.3716558
401.90 0.372878
402.00 0.3747809
402.10 0.3773864
402.20 0.3806765
402.30 0.3845828
402.40 0.3888608
402.50 0.3931213
402.60 0.3969211
402.70 0.3999037
402.80 0.4021062
402.90 0.4040064
403.00 0.4061823
403.10 0.4088919
403.20 0.4120048
403.30 0.4152865
403.40 0.4185638
403.50 0.4218072
403.60 0.425031
403.70 0.4282095
403.80 0.4314197
403.90 0.4349163
404.00 0.4391021
404.10 0.4443847
404.20 0.4509586
404.30 0.4586667
404.40 0.4670333
404.50 0.4755129
404.60 0.4836495
404.70 0.491055
404.80 0.4974908
404.90 0.5028445
405.00 0.5009962
405.10 0.4988258
405.20 0.4965347
405.30 0.4942736
405.40 0.4918688
405.50 0.4889045
405.60 0.485034
405.70 0.4801878
405.80 0.4747153
405.90 0.4691416
406.00 0.4639211
406.10 0.4595463
406.20 0.4565113
406.30 0.4552626
406.40 0.4559632
406.50 0.4583755
406.60 0.4620713
406.70 0.4664564
406.80 0.4709576
406.90 0.4751423
407.00 0.4786162
407.10 0.4810471
407.20 0.4822474
407.30 0.4824239
407.40 0.4820931
407.50 0.481739
407.60 0.4815735
407.70 0.4813501
407.80 0.4807083
407.90 0.4793896
408.00 0.4771768
408.10 0.4741545
408.20 0.4706805
408.30 0.4672195
408.40 0.464252
408.50 0.4620732
408.60 0.4606953
408.70 0.4598051
408.80 0.4588928
408.90 0.4573714
409.00 0.4548165
409.10 0.4511948
409.20 0.4467572
409.30 0.4420143
409.40 0.4376207
409.50 0.433967
409.60 0.4311571
409.70 0.429243
409.80 0.4281904
409.90 0.4278446
410.00 0.4280083
410.10 0.4284611
410.20 0.4290022
410.30 0.4294988
410.40 0.4299027
410.50 0.4302626
410.60 0.4307285
410.70 0.4315157
410.80 0.4328224
410.90 0.4347664
411.00 0.4372132
411.10 0.4397507
411.20 0.4420292
411.30 0.4440038
411.40 0.4459487
411.50 0.4483707
411.60 0.4518
411.70 0.4565563
411.80 0.4625628
411.90 0.4693927
412.00 0.4764974
412.10 0.4833297
412.20 0.4893703
412.30 0.4943561
412.40 0.4985416
412.50 0.502555
412.60 0.5070928
412.70 0.5127588
412.80 0.519766
412.90 0.5277785
413.00 0.5361331
413.10 0.5442417
413.20 0.5517653
413.30 0.5584886
413.40 0.5642256
413.50 0.568723
413.60 0.5718405
413.70 0.5736958
413.80 0.5745023
413.90 0.5744866
414.00 0.573769
414.10 0.5722285
414.20 0.5696791
414.30 0.5661198
414.40 0.561802
414.50 0.5570832
414.60 0.5522635
414.70 0.5476283
414.80 0.5434667
414.90 0.5401208
415.00 0.5379213
415.10 0.5370228
415.20 0.5374603
415.30 0.5391725
415.40 0.5419633
415.50 0.545611
415.60 0.5499076
415.70 0.5545867
415.80 0.5592793
415.90 0.5635576
416.00 0.5671628
416.10 0.5699777
416.20 0.5717958
416.30 0.5723915
416.40 0.5716905
416.50 0.5697656
416.60 0.5668179
416.70 0.5631924
416.80 0.5593217
416.90 0.5558225
417.00 0.5535483
417.10 0.553255
417.20 0.5553004
417.30 0.5595648
417.40 0.5654653
417.50 0.5721363
417.60 0.5787557
417.70 0.5848411
417.80 0.5902568
417.90 0.5951045
418.00 0.5995487
418.10 0.6036228
418.20 0.6073712
418.30 0.6108578
418.40 0.6140627
418.50 0.6169842
418.60 0.6196935
418.70 0.6223715
418.80 0.6252728
418.90 0.6287704
419.00 0.6332443
419.10 0.6386863
419.20 0.6446806
419.30 0.6505154
419.40 0.6554616
419.50 0.6591444
419.60 0.6614748
419.70 0.6624255
419.80 0.6620255
419.90 0.6604502
420.00 0.658001
420.10 0.6550412
420.20 0.6518716
420.30 0.6485384
420.40 0.6449696
420.50 0.6412391
420.60 0.6375177
420.70 0.6341181
420.80 0.6314678
420.90 0.6300183
421.00 0.630251
421.10 0.6324543
421.20 0.6364303
421.30 0.6415528
421.40 0.647034
421.50 0.6520508
421.60 0.6558762
421.70 0.6580351
421.80 0.6583728
421.90 0.6570357
422.00 0.6543623
422.10 0.6507523
422.20 0.6466003
422.30 0.6421554
422.40 0.6373907
422.50 0.6322476
422.60 0.6268403
422.70 0.6212855
422.80 0.6155843
422.90 0.6097103
423.00 0.6037757
423.10 0.5980678
423.20 0.5928885
423.30 0.5883795
423.40 0.5845919
423.50 0.5815978
423.60 0.5794155
423.70 0.5779892
423.80 0.5772143
423.90 0.5768252
424.00 0.5764396
424.10 0.5757958
424.20 0.5748172
424.30 0.573589
424.40 0.5722526
424.50 0.5709093
424.60 0.5696805
424.70 0.5686951
424.80 0.5679856
424.90 0.5674926
425.00 0.5670576
425.10 0.566396
425.20 0.5651044
425.30 0.5628144
425.40 0.5594261
425.50 0.5551441
425.60 0.5503793
425.70 0.5455368
425.80 0.540798
425.90 0.5361797
426.00 0.5316558
426.10 0.527253
426.20 0.5231941
426.30 0.5197426
426.40 0.5171556
426.50 0.5157322
426.60 0.5156573
426.70 0.5169664
426.80 0.5194879
426.90 0.5226449
427.00 0.5254822
427.10 0.5270359
427.20 0.5267108
427.30 0.5243763
427.40 0.5202314
427.50 0.5147305
427.60 0.5084683
427.70 0.5020786
427.80 0.4961369
427.90 0.4910194
428.00 0.4869928
428.10 0.4841641
428.20 0.4823428
428.30 0.4811369
428.40 0.4800845
428.50 0.4787664
428.60 0.4769641
428.70 0.4747335
428.80 0.4722671
428.90 0.4697304
429.00 0.46728
429.10 0.4651375
429.20 0.4635189
429.30 0.4625974
429.40 0.4623782
429.50 0.4626339
429.60 0.4630576
429.70 0.4634851
429.80 0.4639863
429.90 0.4647716
430.00 0.4661298
430.10 0.4681706
430.20 0.4708855
430.30 0.4742745
430.40 0.4781633
430.50 0.4821172
430.60 0.4855269
430.70 0.4877624
430.80 0.4884028
430.90 0.4873601
431.00 0.4847783
431.10 0.4810768
431.20 0.4769243
431.30 0.4729517
431.40 0.4694726
431.50 0.4665846
431.60 0.4642285
431.70 0.4622479
431.80 0.4604297
431.90 0.4585953
432.00 0.4567446
432.10 0.4549828
432.20 0.4534277
432.30 0.4521591
432.40 0.4513233
432.50 0.4510336
432.60 0.4512279
432.70 0.4517207
432.80 0.4522562
432.90 0.4525934
433.00 0.4526014
433.10 0.4522326
433.20 0.4516224
433.30 0.451099
433.40 0.4510102
433.50 0.4516643
433.60 0.4532933
433.70 0.4559813
433.80 0.4595601
433.90 0.463586
434.00 0.4674823
434.10 0.4707903
434.20 0.4733274
434.30 0.4751949
434.40 0.4767473
434.50 0.4784818
434.60 0.4808761
434.70 0.484284
434.80 0.488792
434.90 0.4940805
435.00 0.4995738
435.10 0.504673
435.20 0.5088911
435.30 0.5119906
435.40 0.5140273
435.50 0.5152713
435.60 0.5160777
435.70 0.51679
435.80 0.5177009
435.90 0.5189903
436.00 0.5206506
436.10 0.522543
436.20 0.5244074
436.30 0.5259403
436.40 0.5268737
436.50 0.5269919
436.60 0.5262041
436.70 0.5245256
436.80 0.5220583
436.90 0.5190126
437.00 0.515696
437.10 0.5124805
437.20 0.5097228
437.30 0.507602
437.40 0.5061651
437.50 0.5053483
437.60 0.5050859
437.70 0.5053677
437.80 0.5060941
437.90 0.507161
438.00 0.5084765
438.10 0.5099681
438.20 0.5116168
438.30 0.5134321
438.40 0.5154899
438.50 0.517906
438.60 0.5206191
438.70 0.5234283
438.80 0.5260742
438.90 0.5281721
439.00 0.5292394
439.10 0.5289267
439.20 0.5272686
439.30 0.5246266
439.40 0.5215876
439.50 0.5188225
439.60 0.5169261
439.70 0.516236
439.80 0.5166486
439.90 0.5176699
440.00 0.5186586
440.10 0.5191068
440.20 0.5187013
440.30 0.5173946
440.40 0.5153573
440.50 0.5128872
440.60 0.5103753
440.70 0.5080988
440.80 0.5061505
440.90 0.5045287
441.00 0.5032141
441.10 0.5021894
441.20 0.5014777
441.30 0.5011007
441.40 0.5010426
441.50 0.5012919
441.60 0.5018955
441.70 0.5028279
441.80 0.5041208
441.90 0.5058772
442.00 0.5081133
442.10 0.5108246
442.20 0.5140289
442.30 0.5177363
442.40 0.5218051
442.50 0.5259131
442.60 0.5296798
442.70 0.5328467
442.80 0.5354004
442.90 0.5374242
443.00 0.5389075
443.10 0.5398848
443.20 0.5404344
443.30 0.5406508
443.40 0.5406128
443.50 0.5403482
443.60 0.539799
443.70 0.5387676
443.80 0.5371044
443.90 0.5349129
444.00 0.5325173
444.10 0.5302416
444.20 0.5282594
444.30 0.5265506
444.40 0.524945
444.50 0.5231514
444.60 0.5208501
444.70 0.5177992
444.80 0.5139914
444.90 0.5097584
445.00 0.5056694
445.10 0.5024044
445.20 0.5005757
445.30 0.5005821
445.40 0.5024557
445.50 0.5058474
445.60 0.5101684
445.70 0.514772
445.80 0.5192122
445.90 0.5233014
446.00 0.5269563
446.10 0.5301155
446.20 0.5327522
446.30 0.5348999
446.40 0.5366887
446.50 0.5383082
446.60 0.5399299
446.70 0.5416146
446.80 0.5434009
446.90 0.5453092
447.00 0.5472261
447.10 0.5489668
447.20 0.5502395
447.30 0.5508301
447.40 0.5508159
447.50 0.550512
447.60 0.5503402
447.70 0.5506231
447.80 0.5514563
447.90 0.5527336
448.00 0.5542209
448.10 0.5555545
448.20 0.5562553
448.30 0.5559177
448.40 0.5543923
448.50 0.5517748
448.60 0.5484639
448.70 0.5449909
448.80 0.5418808
448.90 0.5396774
449.00 0.5388263
449.10 0.5396461
449.20 0.5422645
449.30 0.54647
449.40 0.5516619
449.50 0.5570613
449.60 0.5619223
449.70 0.5656362
449.80 0.5679501
449.90 0.5690416
450.00 0.5693429
450.10 0.5694572
450.20 0.569978
450.30 0.5713134
450.40 0.5737284
450.50 0.5772661
450.60 0.5817551
450.70 0.5869935
450.80 0.5928634
450.90 0.5992674
451.00 0.6060998
451.10 0.6132166
451.20 0.6203232
451.30 0.6270253
451.40 0.6329727
451.50 0.6379389
451.60 0.6418586
451.70 0.6448807
451.80 0.6472211
451.90 0.6490934
452.00 0.650739
452.10 0.6523887
452.20 0.654198
452.30 0.6562335
452.40 0.6584952
452.50 0.6609095
452.60 0.6633629
452.70 0.6656981
452.80 0.6677399
452.90 0.6693491
453.00 0.6705342
453.10 0.6714095
453.20 0.6721046
453.30 0.6727198
453.40 0.6733225
453.50 0.673992
453.60 0.6748432
453.70 0.6760527
453.80 0.6777849
453.90 0.6801783
454.00 0.6833935
454.10 0.6875754
454.20 0.692793
454.30 0.6989941
454.40 0.7058836
454.50 0.7129666
454.60 0.7197357
454.70 0.7257784
454.80 0.7308032
454.90 0.7346514
455.00 0.7373094
455.10 0.738826
455.20 0.739301
455.30 0.7389047
455.40 0.7378078
455.50 0.7361581
455.60 0.7341268
455.70 0.7319641
455.80 0.7300277
455.90 0.7286978
456.00 0.7283003
456.10 0.7290518
456.20 0.7310472
456.30 0.7342009
456.40 0.7381513
456.50 0.7424222
456.60 0.7466555
456.70 0.7506466
456.80 0.7542361
456.90 0.7574389
457.00 0.760615
457.10 0.7642146
457.20 0.7685577
457.30 0.773776
457.40 0.7797743
457.50 0.7862566
457.60 0.7927287
457.70 0.7986805
457.80 0.8038239
457.90 0.8080795
458.00 0.8114797
458.10 0.8142552
458.20 0.8169058
458.30 0.8199261
458.40 0.8235008
458.50 0.8275105
458.60 0.8316432
458.70 0.8355443
458.80 0.8388264
458.90 0.8411166
459.00 0.8422848
459.10 0.8424082
459.20 0.8416469
459.30 0.8402859
459.40 0.8387642
459.50 0.8375109
459.60 0.8368333
459.70 0.836945
459.80 0.8378791
459.90 0.8395074
460.00 0.8416839
460.10 0.8442031
460.20 0.8469572
460.30 0.8500498
460.40 0.8534684
460.50 0.8570163
460.60 0.8604716
460.70 0.8635488
460.80 0.86588
460.90 0.8671741
461.00 0.8672479
461.10 0.8660366
461.20 0.8636894
461.30 0.8605729
461.40 0.8571089
461.50 0.8536211
461.60 0.8502884
461.70 0.8471081
461.80 0.8441013
461.90 0.8414225
462.00 0.8392388
462.10 0.8377256
462.20 0.8370265
462.30 0.8370879
462.40 0.8376358
462.50 0.8383164
462.60 0.8388201
462.70 0.8389061
462.80 0.8384531
462.90 0.8375771
463.00 0.836571
463.10 0.8357556
463.20 0.8354084
463.30 0.8357269
463.40 0.8368494
463.50 0.8387499
463.60 0.8412157
463.70 0.8439663
463.80 0.8467115
463.90 0.8491413
464.00 0.8508708
464.10 0.8515786
464.20 0.8511112
464.30 0.8494634
464.40 0.8468277
464.50 0.8437243
464.60 0.8409083
464.70 0.839049
464.80 0.8385394
464.90 0.8394966
465.00 0.8417519
465.10 0.8449855
465.20 0.8488993
465.30 0.8531036
465.40 0.857242
465.50 0.8610956
465.60 0.8644851
465.70 0.8673046
465.80 0.8695497
465.90 0.8712625
466.00 0.872438
466.10 0.8730634
466.20 0.8732099
466.30 0.873057
466.40 0.8729355
466.50 0.8731946
466.60 0.8740774
466.70 0.8758539
466.80 0.8786894
466.90 0.8824518
467.00 0.8867758
467.10 0.8911873
467.20 0.8952349
467.30 0.8985288
467.40 0.9008129
467.50 0.9020696
467.60 0.9024557
467.70 0.9021899
467.80 0.9014666
467.90 0.9003842
468.00 0.898939
468.10 0.896992
468.20 0.8943984
468.30 0.8912042
468.40 0.8876629
468.50 0.8841318
468.60 0.8809103
468.70 0.8782281
468.80 0.8763418
468.90 0.8754754
469.00 0.8757382
469.10 0.8771178
469.20 0.8794663
469.30 0.882584
469.40 0.8862676
469.50 0.8903835
469.60 0.8948766
469.70 0.8996215
469.80 0.9044323
469.90 0.9091778
470.00 0.9137577
470.10 0.9180123
470.20 0.9216238
470.30 0.9241832
470.40 0.9254651
470.50 0.9255629
470.60 0.9247819
470.70 0.9234826
470.80 0.9219427
470.90 0.9202311
471.00 0.9182804
471.10 0.916071
471.20 0.9136429
471.30 0.9110321
471.40 0.9083753
471.50 0.9058956
471.60 0.9037824
471.70 0.9021809
471.80 0.9010854
471.90 0.9002196
472.00 0.8991556
472.10 0.897511
472.20 0.895127
472.30 0.8921911
472.40 0.8891387
472.50 0.8864011
472.60 0.8842764
472.70 0.8829376
472.80 0.8823711
472.90 0.8823925
473.00 0.8827427
473.10 0.8831671
473.20 0.8834908
473.30 0.8836998
473.40 0.8838667
473.50 0.8840041
473.60 0.8840077
473.70 0.8837096
473.80 0.8829812
473.90 0.8817862
474.00 0.8802921
474.10 0.8787953
474.20 0.8775488
474.30 0.8767807
474.40 0.8767898
474.50 0.8777253
474.60 0.8793436
474.70 0.8811732
474.80 0.8827507
474.90 0.8837194
475.00 0.883907
475.10 0.8832401
475.20 0.8816199
475.30 0.8790925
475.40 0.8758181
475.50 0.8719267
475.60 0.8676043
475.70 0.8630713
475.80 0.8584037
475.90 0.8536069
476.00 0.8488588
476.10 0.8444256
476.20 0.8405045
476.30 0.8371708
476.40 0.8343176
476.50 0.8316925
476.60 0.8289431
476.70 0.8256329
476.80 0.8214508
476.90 0.8163651
477.00 0.8104826
477.10 0.8039736
477.20 0.7971438
477.30 0.7904309
477.40 0.7842168
477.50 0.7786597
477.60 0.77371
477.70 0.7692481
477.80 0.7652747
477.90 0.7620778
478.00 0.7601759
478.10 0.7600173
478.20 0.7617102
478.30 0.7649706
478.40 0.7692856
478.50 0.7741083
478.60 0.7789374
478.70 0.7832226
478.80 0.7864167
478.90 0.7882188
479.00 0.7886053
479.10 0.7876971
479.20 0.7856539
479.30 0.7825251
479.40 0.778221
479.50 0.7726958
479.60 0.7660664
479.70 0.7586702
479.80 0.7510319
479.90 0.7435653
480.00 0.736369
480.10 0.7293883
480.20 0.7225557
480.30 0.7157832
480.40 0.7090751
480.50 0.7025817
480.60 0.6966703
480.70 0.6920714
480.80 0.6897717
480.90 0.6907033
481.00 0.6953633
481.10 0.7036074
481.20 0.7146929
481.30 0.7275094
481.40 0.7408099
481.50 0.7534172
481.60 0.7644083
481.70 0.7732435
481.80 0.7798334
481.90 0.7845921
482.00 0.7882318
482.10 0.7913166
482.20 0.7941138
482.30 0.79668
482.40 0.7990548
482.50 0.8013757
482.60 0.8038461
482.70 0.8066453
482.80 0.8098925
482.90 0.8136451
483.00 0.8178841
483.10 0.8224878
483.20 0.8272056
483.30 0.8316663
483.40 0.8354607
483.50 0.8383822
483.60 0.8405479
483.70 0.842283
483.80 0.8439639
483.90 0.845922
484.00 0.8483064
484.10 0.8511023
484.20 0.8542605
484.30 0.8576552
484.40 0.8610181
484.50 0.864066
484.60 0.8666911
484.70 0.8689974
484.80 0.8712103
484.90 0.8735661
485.00 0.8762594
485.10 0.8794938
485.20 0.8834797
485.30 0.8883061
485.40 0.8939643
485.50 0.9004627
485.60 0.9077762
485.70 0.9157655
485.80 0.9242135
485.90 0.9328371
486.00 0.9412618
486.10 0.9490966
486.20 0.9560236
486.30 0.9618955
486.40 0.9667891
486.50 0.9709222
486.60 0.9746235
486.70 0.9782617
486.80 0.9821648
486.90 0.9864858
487.00 0.9911837
487.10 0.9962226
487.20 1.001665
487.30 1.007624
487.40 1.014201
487.50 1.021538
487.60 1.02984
487.70 1.039198
487.80 1.049401
487.90 1.059867
488.00 1.069783
488.10 1.07847
488.20 1.085529
488.30 1.090834
488.40 1.094576
488.50 1.097121
488.60 1.098966
488.70 1.10075
488.80 1.103143
488.90 1.10663
489.00 1.111354
489.10 1.117211
489.20 1.123994
489.30 1.131541
489.40 1.139778
489.50 1.148489
489.60 1.157214
489.70 1.165484
489.80 1.172897
489.90 1.179231
490.00 1.184458
490.10 1.188689
490.20 1.192153
490.30 1.195107
490.40 1.197718
490.50 1.199927
490.60 1.201405
490.70 1.201552
490.80 1.199602
490.90 1.19491
491.00 1.187298
491.10 1.177014
491.20 1.164681
491.30 1.151254
491.40 1.137828
491.50 1.125459
491.60 1.115046
491.70 1.107139
491.80 1.101848
491.90 1.098926
492.00 1.097832
492.10 1.097866
492.20 1.098324
492.30 1.098588
492.40 1.098132
492.50 1.096692
492.60 1.094298
492.70 1.091162
492.80 1.087648
492.90 1.084163
493.00 1.081018
493.10 1.078448
493.20 1.07664
493.30 1.075607
493.40 1.075221
493.50 1.075271
493.60 1.075498
493.70 1.075723
493.80 1.07592
493.90 1.076192
494.00 1.076778
494.10 1.077988
494.20 1.080032
494.30 1.0829
494.40 1.086364
494.50 1.08999
494.60 1.093238
494.70 1.09559
494.80 1.096595
494.90 1.095957
495.00 1.093597
495.10 1.089621
495.20 1.084337
495.30 1.078183
495.40 1.071619
495.50 1.065036
495.60 1.05875
495.70 1.053088
495.80 1.048413
495.90 1.045048
496.00 1.043137
496.10 1.042661
496.20 1.043539
496.30 1.045566
496.40 1.048416
496.50 1.051783
496.60 1.055334
496.70 1.058659
496.80 1.06137
496.90 1.063284
497.00 1.064478
497.10 1.065081
497.20 1.065041
497.30 1.064086
497.40 1.061939
497.50 1.058455
497.60 1.053666
497.70 1.04789
497.80 1.041709
497.90 1.035743
498.00 1.030523
498.10 1.026396
498.20 1.023453
498.30 1.021496
498.40 1.020118
498.50 1.01895
498.60 1.01773
498.70 1.016357
498.80 1.014865
498.90 1.013323
499.00 1.011814
499.10 1.010384
499.20 1.009002
499.30 1.007567
499.40 1.005989
499.50 1.004344
499.60 1.002852
499.70 1.001688
499.80 1.000882
499.90 1.000342
500.00 1
500.10 0.9998953
500.20 1.000163
500.30 1.000996
500.40 1.002607
500.50 1.00525
500.60 1.009157
500.70 1.014402
500.80 1.020843
500.90 1.028171
501.00 1.036068
501.10 1.044389
501.20 1.053152
501.30 1.062356
501.40 1.071974
501.50 1.081908
501.60 1.09193
501.70 1.101792
501.80 1.11123
501.90 1.119893
502.00 1.127468
502.10 1.133934
502.20 1.139578
502.30 1.144754
502.40 1.149721
502.50 1.154595
502.60 1.159373
502.70 1.164044
502.80 1.168547
502.90 1.172776
503.00 1.176619
503.10 1.179854
503.20 1.182221
503.30 1.1837
503.40 1.184519
503.50 1.184978
503.60 1.185426
503.70 1.18622
503.80 1.187607
503.90 1.189596
504.00 1.191918
504.10 1.194058
504.20 1.195417
504.30 1.195589
504.40 1.194508
504.50 1.19255
504.60 1.190423
504.70 1.188904
504.80 1.188703
504.90 1.190295
505.00 1.193745
505.10 1.198772
505.20 1.204819
505.30 1.211227
505.40 1.217413
505.50 1.222963
505.60 1.227678
505.70 1.231528
505.80 1.234517
505.90 1.236604
506.00 1.237792
506.10 1.238129
506.20 1.237689
506.30 1.236681
506.40 1.235469
506.50 1.234449
506.60 1.234002
506.70 1.23443
506.80 1.235865
506.90 1.238255
507.00 1.2414
507.10 1.245018
507.20 1.248864
507.30 1.25288
507.40 1.257107
507.50 1.261518
507.60 1.265976
507.70 1.270212
507.80 1.273842
507.90 1.276556
508.00 1.278272
508.10 1.279114
508.20 1.279375
508.30 1.279466
508.40 1.279707
508.50 1.280223
508.60 1.281053
508.70 1.282184
508.80 1.283578
508.90 1.285272
509.00 1.287353
509.10 1.289934
509.20 1.293137
509.30 1.296933
509.40 1.301073
509.50 1.305208
509.60 1.309027
509.70 1.312324
509.80 1.31514
509.90 1.317706
510.00 1.320207
510.10 1.32268
510.20 1.325032
510.30 1.327107
510.40 1.328737
510.50 1.329794
510.60 1.330257
510.70 1.330286
510.80 1.330218
510.90 1.330453
511.00 1.331238
511.10 1.332534
511.20 1.333956
511.30 1.334981
511.40 1.335137
511.50 1.334058
511.60 1.331567
511.70 1.327676
511.80 1.322576
511.90 1.316567
512.00 1.310007
512.10 1.303213
512.20 1.296368
512.30 1.289616
512.40 1.283154
512.50 1.277165
512.60 1.271745
512.70 1.266866
512.80 1.262388
512.90 1.258112
513.00 1.25383
513.10 1.249454
513.20 1.245067
513.30 1.24084
513.40 1.236949
513.50 1.233635
513.60 1.231129
513.70 1.229466
513.80 1.228446
513.90 1.227799
514.00 1.227324
514.10 1.226899
514.20 1.226537
514.30 1.22638
514.40 1.22658
514.50 1.227131
514.60 1.227846
514.70 1.228457
514.80 1.228708
514.90 1.228441
515.00 1.227694
515.10 1.226622
515.20 1.225417
515.30 1.224225
515.40 1.223112
515.50 1.222024
515.60 1.220685
515.70 1.218769
515.80 1.216182
515.90 1.213144
516.00 1.210127
516.10 1.207713
516.20 1.206432
516.30 1.206604
516.40 1.208225
516.50 1.210974
516.60 1.214347
516.70 1.217754
516.80 1.220625
516.90 1.222578
517.00 1.223578
517.10 1.223837
517.20 1.223647
517.30 1.223336
517.40 1.223261
517.50 1.223795
517.60 1.225257
517.70 1.227801
517.80 1.231407
517.90 1.235896
518.00 1.240951
518.10 1.246289
518.20 1.251756
518.30 1.257284
518.40 1.262886
518.50 1.268625
518.60 1.274487
518.70 1.28031
518.80 1.285805
518.90 1.290556
519.00 1.294149
519.10 1.296256
519.20 1.296677
519.30 1.295506
519.40 1.293111
519.50 1.289968
519.60 1.286615
519.70 1.283614
519.80 1.28141
519.90 1.28035
520.00 1.280709
520.10 1.282586
520.20 1.285825
520.30 1.290134
520.40 1.295143
520.50 1.300406
520.60 1.305489
520.70 1.30997
520.80 1.313548
520.90 1.316135
521.00 1.317813
521.10 1.318858
521.20 1.319785
521.30 1.321107
521.40 1.323157
521.50 1.326164
521.60 1.330219
521.70 1.335259
521.80 1.341173
521.90 1.347846
522.00 1.355174
522.10 1.363093
522.20 1.37152
522.30 1.380291
522.40 1.389193
522.50 1.397922
522.60 1.406097
522.70 1.413457
522.80 1.420028
522.90 1.42615
523.00 1.432384
523.10 1.439264
523.20 1.447072
523.30 1.45579
523.40 1.465188
523.50 1.47483
523.60 1.484163
523.70 1.492678
523.80 1.500072
523.90 1.506317
524.00 1.511616
524.10 1.516337
524.20 1.520845
524.30 1.525377
524.40 1.530085
524.50 1.535028
524.60 1.540198
524.70 1.54556
524.80 1.551028
524.90 1.556472
525.00 1.561805
525.10 1.567094
525.20 1.572556
525.30 1.578523
525.40 1.585298
525.50 1.593032
525.60 1.601737
525.70 1.611166
525.80 1.620718
525.90 1.629649
526.00 1.637205
526.10 1.642773
526.20 1.646013
526.30 1.646932
526.40 1.645878
526.50 1.643378
526.60 1.639961
526.70 1.636126
526.80 1.632338
526.90 1.628886
527.00 1.625796
527.10 1.62297
527.20 1.620344
527.30 1.617823
527.40 1.615328
527.50 1.612844
527.60 1.610367
527.70 1.607895
527.80 1.605431
527.90 1.60297
528.00 1.600451
528.10 1.597705
528.20 1.594536
528.30 1.590885
528.40 1.586851
528.50 1.582607
528.60 1.578454
528.70 1.574793
528.80 1.571958
528.90 1.570165
529.00 1.569484
529.10 1.569845
529.20 1.57106
529.30 1.572906
529.40 1.575245
529.50 1.578033
529.60 1.581208
529.70 1.584646
529.80 1.588227
529.90 1.591801
530.00 1.595145
530.10 1.598101
530.20 1.600664
530.30 1.602819
530.40 1.604558
530.50 1.60598
530.60 1.607246
530.70 1.608523
530.80 1.609904
530.90 1.611415
531.00 1.613041
531.10 1.614673
531.20 1.616071
531.30 1.617064
531.40 1.617696
531.50 1.618151
531.60 1.618669
531.70 1.619494
531.80 1.620739
531.90 1.622354
532.00 1.624105
532.10 1.625623
532.20 1.626573
532.30 1.626727
532.40 1.626067
532.50 1.624971
532.60 1.624179
532.70 1.62449
532.80 1.626385
532.90 1.629827
533.00 1.634345
533.10 1.639323
533.20 1.644197
533.30 1.648531
533.40 1.6521
533.50 1.654943
533.60 1.657325
533.70 1.659679
533.80 1.662371
533.90 1.665569
534.00 1.669283
534.10 1.6734
534.20 1.677812
534.30 1.682458
534.40 1.687316
534.50 1.692435
534.60 1.697933
534.70 1.703955
534.80 1.710645
534.90 1.718125
535.00 1.726357
535.10 1.735059
535.20 1.74387
535.30 1.752463
535.40 1.760547
535.50 1.767967
535.60 1.774771
535.70 1.781243
535.80 1.787797
535.90 1.794752
536.00 1.802278
536.10 1.810409
536.20 1.819066
536.30 1.828024
536.40 1.837031
536.50 1.846046
536.60 1.855224
536.70 1.864736
536.80 1.874751
536.90 1.885416
537.00 1.896665
537.10 1.908188
537.20 1.919586
537.30 1.930515
537.40 1.940691
537.50 1.949848
537.60 1.957821
537.70 1.964701
537.80 1.970843
537.90 1.976708
538.00 1.982753
538.10 1.989367
538.20 1.996704
538.30 2.004619
538.40 2.012845
538.50 2.02105
538.60 2.028809
538.70 2.035714
538.80 2.04155
538.90 2.046365
539.00 2.050459
539.10 2.054292
539.20 2.058284
539.30 2.062695
539.40 2.067601
539.50 2.07292
539.60 2.078522
539.70 2.084232
539.80 2.089685
539.90 2.094434
540.00 2.098172
540.10 2.100785
540.20 2.102318
540.30 2.103079
540.40 2.103482
540.50 2.103787
540.60 2.104085
540.70 2.104449
540.80 2.104944
540.90 2.105522
541.00 2.106037
541.10 2.106421
541.20 2.106826
541.30 2.107537
541.40 2.10876
541.50 2.110489
541.60 2.112502
541.70 2.114372
541.80 2.115629
541.90 2.116056
542.00 2.115784
542.10 2.115144
542.20 2.114535
542.30 2.114368
542.40 2.114879
542.50 2.11599
542.60 2.117335
542.70 2.118325
542.80 2.118318
542.90 2.116869
543.00 2.113817
543.10 2.109275
543.20 2.103581
543.30 2.097143
543.40 2.090333
543.50 2.083421
543.60 2.07655
543.70 2.069816
543.80 2.06335
543.90 2.057205
544.00 2.051274
544.10 2.04543
544.20 2.039558
544.30 2.033436
544.40 2.026721
544.50 2.01904
544.60 2.010069
544.70 1.999669
544.80 1.987956
544.90 1.975268
545.00 1.96211
545.10 1.949033
545.20 1.936409
545.30 1.924333
545.40 1.91263
545.50 1.900939
545.60 1.888921
545.70 1.876416
545.80 1.863494
545.90 1.850428
546.00 1.837643
546.10 1.825498
546.20 1.814128
546.30 1.803451
546.40 1.79311
546.50 1.782554
546.60 1.771257
546.70 1.758939
546.80 1.745612
546.90 1.731478
547.00 1.716823
547.10 1.701885
547.20 1.686808
547.30 1.671696
547.40 1.656576
547.50 1.641496
547.60 1.626628
547.70 1.6122
547.80 1.598424
547.90 1.585373
548.00 1.572951
548.10 1.560936
548.20 1.54915
548.30 1.537547
548.40 1.526131
548.50 1.514971
548.60 1.504135
548.70 1.493538
548.80 1.483055
548.90 1.472581
549.00 1.461936
549.10 1.450872
549.20 1.439279
549.30 1.427289
549.40 1.41513
549.50 1.402991
549.60 1.390893
549.70 1.37872
549.80 1.366424
549.90 1.354094
550.00 1.314177
550.10 1.30409
550.20 1.293758
550.30 1.282414
550.40 1.26943
550.50 1.254592
550.60 1.238203
550.70 1.220766
550.80 1.202975
550.90 1.185612
551.00 1.169299
551.10 1.154244
551.20 1.140327
551.30 1.127608
551.40 1.116472
551.50 1.107483
551.60 1.101004
551.70 1.096717
551.80 1.093863
551.90 1.091497
552.00 1.088554
552.10 1.084111
552.20 1.077683
552.30 1.069426
552.40 1.060156
552.50 1.051066
552.60 1.043035
552.70 1.0361
552.80 1.029648
552.90 1.022927
553.00 1.015452
553.10 1.007426
553.20 0.9994131
553.30 0.9919006
553.40 0.9853869
553.50 0.9800969
553.60 0.975865
553.70 0.9721557
553.80 0.9681634
553.90 0.9633599
554.00 0.9578966
554.10 0.9526548
554.20 0.9488405
554.30 0.9474993
554.40 0.9494191
554.50 0.9548107
554.60 0.9634831
554.70 0.9750547
554.80 0.9887393
554.90 1.003772
555.00 1.019653
555.10 1.036022
555.20 1.054679
555.30 1.081121
555.40 1.122504
555.50 1.184872
555.60 1.271446
555.70 1.381622
555.80 1.510186
555.90 1.648092
556.00 1.784281
556.10 1.907964
556.20 2.011103
556.30 2.08988
556.40 2.145359
556.50 2.183431
556.60 2.211814
556.70 2.236428
556.80 2.260864
556.90 2.286996
557.00 2.315143
557.10 2.34441
557.20 2.373822
557.30 2.402611
557.40 2.430197
557.50 2.456528
557.60 2.481961
557.70 2.507158
557.80 2.532704
557.90 2.558852
558.00 2.585701
558.10 2.613278
558.20 2.641739
558.30 2.671177
558.40 2.701397
558.50 2.731968
558.60 2.76185
558.70 2.789678
558.80 2.814408
558.90 2.835314
559.00 2.852001
559.10 2.864608
559.20 2.871988
559.30 2.869905
559.40 2.852548
559.50 2.814925
559.60 2.754373
559.70 2.671745
559.80 2.572052
559.90 2.46354
560.00 2.356387
560.10 2.260772
560.20 2.184313
560.30 2.130448
560.40 2.09797
560.50 2.081338
560.60 2.073651
560.70 2.070006
560.80 2.06752
560.90 2.064525
561.00 2.060519
561.10 2.055837
561.20 2.050816
561.30 2.04592
561.40 2.041674
561.50 2.038245
561.60 2.035615
561.70 2.033765
561.80 2.032841
561.90 2.032904
562.00 2.03375
562.10 2.035104
562.20 2.036627
562.30 2.037975
562.40 2.038709
562.50 2.038256
562.60 2.036346
562.70 2.032812
562.80 2.027522
562.90 2.020788
563.00 2.013381
563.10 2.006206
563.20 1.999753
563.30 1.993997
563.40 1.988693
563.50 1.983488
563.60 1.978188
563.70 1.972798
563.80 1.967166
563.90 1.961116
564.00 1.954679
564.10 1.948222
564.20 1.942419
564.30 1.938048
564.40 1.935984
564.50 1.93696
564.60 1.941238
564.70 1.948663
564.80 1.95874
564.90 1.970547
565.00 1.982712
565.10 1.9937
565.20 2.002837
565.30 2.010417
565.40 2.017074
565.50 2.023606
565.60 2.03072
565.70 2.03865
565.80 2.046964
565.90 2.054915
566.00 2.061836
566.10 2.06722
566.20 2.070762
566.30 2.072392
566.40 2.072351
566.50 2.071209
566.60 2.069613
566.70 2.06839
566.80 2.06846
566.90 2.070433
567.00 2.074572
567.10 2.080878
567.20 2.089134
567.30 2.098919
567.40 2.109711
567.50 2.120906
567.60 2.131826
567.70 2.142086
567.80 2.152137
567.90 2.163198
568.00 2.176494
568.10 2.192548
568.20 2.211117
568.30 2.231321
568.40 2.251543
568.50 2.269891
568.60 2.284849
568.70 2.295419
568.80 2.301351
568.90 2.303273
569.00 2.302613
569.10 2.301205
569.20 2.300087
569.30 2.299317
569.40 2.298763
569.50 2.298302
569.60 2.297952
569.70 2.298154
569.80 2.299806
569.90 2.303705
570.00 2.310044
570.10 2.318413
570.20 2.327765
570.30 2.336847
570.40 2.344635
570.50 2.35057
570.60 2.35487
570.70 2.358123
570.80 2.3608
570.90 2.363142
571.00 2.365015
571.10 2.365827
571.20 2.364664
571.30 2.36057
571.40 2.352788
571.50 2.340991
571.60 2.32551
571.70 2.307187
571.80 2.287104
571.90 2.266221
572.00 2.2453
572.10 2.225307
572.20 2.207276
572.30 2.192019
572.40 2.180026
572.50 2.171481
572.60 2.166338
572.70 2.164541
572.80 2.166028
572.90 2.170532
573.00 2.177349
573.10 2.185451
573.20 2.194016
573.30 2.202674
573.40 2.211143
573.50 2.21897
573.60 2.225461
573.70 2.22969
573.80 2.230717
573.90 2.228018
574.00 2.221782
574.10 2.212856
574.20 2.202747
574.30 2.193284
574.40 2.186281
574.50 2.183112
574.60 2.184066
574.70 2.188187
574.80 2.193838
574.90 2.199291
575.00 2.203204
575.10 2.205213
575.20 2.20608
575.30 2.207294
575.40 2.210572
575.50 2.217358
575.60 2.22837
575.70 2.243459
575.80 2.261596
575.90 2.281115
576.00 2.300045
576.10 2.316418
576.20 2.328688
576.30 2.335884
576.40 2.337862
576.50 2.33514
576.60 2.328539
576.70 2.318927
576.80 2.307157
576.90 2.294342
577.00 2.281705
577.10 2.270408
577.20 2.261233
577.30 2.254302
577.40 2.249478
577.50 2.246538
577.60 2.245147
577.70 2.24508
577.80 2.246263
577.90 2.248866
578.00 2.253273
578.10 2.259804
578.20 2.268506
578.30 2.278874
578.40 2.289816
578.50 2.29986
578.60 2.307825
578.70 2.31353
578.80 2.317522
578.90 2.320871
579.00 2.325001
579.10 2.330931
579.20 2.338796
579.30 2.347919
579.40 2.357173
579.50 2.365331
579.60 2.371013
579.70 2.372965
579.80 2.370636
579.90 2.364309
580.00 2.354812
580.10 2.343153
580.20 2.33054
580.30 2.318503
580.40 2.308549
580.50 2.302142
580.60 2.300677
580.70 2.304876
580.80 2.314298
580.90 2.327366
581.00 2.342062
581.10 2.356346
581.20 2.368502
581.30 2.377709
581.40 2.38416
581.50 2.388829
581.60 2.393018
581.70 2.397738
581.80 2.403377
581.90 2.409548
582.00 2.415154
582.10 2.418973
582.20 2.420127
582.30 2.418352
582.40 2.414214
582.50 2.408902
582.60 2.403471
582.70 2.398173
582.80 2.392607
582.90 2.385972
583.00 2.377269
583.10 2.365859
583.20 2.351921
583.30 2.336218
583.40 2.319589
583.50 2.302893
583.60 2.28725
583.70 2.273853
583.80 2.263314
583.90 2.255655
584.00 2.250829
584.10 2.248761
584.20 2.249063
584.30 2.250905
584.40 2.253045
584.50 2.253626
584.60 2.250319
584.70 2.24134
584.80 2.226194
584.90 2.205518
585.00 2.180701
585.10 2.15357
585.20 2.12601
585.30 2.099349
585.40 2.073824
585.50 2.048804
585.60 2.023294
585.70 1.996407
585.80 1.967694
585.90 1.937289
586.00 1.905758
586.10 1.873638
586.20 1.841156
586.30 1.80843
586.40 1.775275
586.50 1.741407
586.60 1.707163
586.70 1.673407
586.80 1.641237
586.90 1.611567
587.00 1.584802
587.10 1.560702
587.20 1.53855
587.30 1.517711
587.40 1.497957
587.50 1.479301
587.60 1.461861
587.70 1.445587
587.80 1.430352
587.90 1.415791
588.00 1.400994
588.10 1.385123
588.20 1.367786
588.30 1.349266
588.40 1.330565
588.50 1.31301
588.60 1.297715
588.70 1.285258
588.80 1.275771
588.90 1.269182
589.00 1.265289
589.10 1.263519
589.20 1.262981
589.30 1.262824
589.40 1.262378
589.50 1.261173
589.60 1.259091
589.70 1.256242
589.80 1.252763
589.90 1.248882
590.00 1.245245
590.10 1.242723
590.20 1.241851
590.30 1.24239
590.40 1.243488
590.50 1.24433
590.60 1.244235
590.70 1.243061
590.80 1.241548
590.90 1.241037
591.00 1.243114
591.10 1.249209
591.20 1.260091
591.30 1.275567
591.40 1.294129
591.50 1.31323
591.60 1.330397
591.70 1.344078
591.80 1.353987
591.90 1.361119
592.00 1.367397
592.10 1.37463
592.20 1.384003
592.30 1.395947
592.40 1.409986
592.50 1.425196
592.60 1.440782
592.70 1.456072
592.80 1.470702
592.90 1.484598
593.00 1.497615
593.10 1.509893
593.20 1.521754
593.30 1.533354
593.40 1.545069
593.50 1.557565
593.60 1.571438
593.70 1.587044
593.80 1.604563
593.90 1.623856
594.00 1.644413
594.10 1.665757
594.20 1.687688
594.30 1.710387
594.40 1.734343
594.50 1.75964
594.60 1.785669
594.70 1.811319
594.80 1.835248
594.90 1.856352
595.00 1.873896
595.10 1.887584
595.20 1.897686
595.30 1.904969
595.40 1.910739
595.50 1.916683
595.60 1.924203
595.70 1.93404
595.80 1.946126
595.90 1.959633
596.00 1.973438
596.10 1.986452
596.20 1.997593
596.30 2.005972
596.40 2.011304
596.50 2.013911
596.60 2.014611
596.70 2.01468
596.80 2.015232
596.90 2.016776
597.00 2.019378
597.10 2.022768
597.20 2.026624
597.30 2.030713
597.40 2.034792
597.50 2.038842
597.60 2.043103
597.70 2.047867
597.80 2.053323
597.90 2.059604
598.00 2.066603
598.10 2.073713
598.20 2.080157
598.30 2.085538
598.40 2.089894
598.50 2.093547
598.60 2.09717
598.70 2.101782
598.80 2.108219
598.90 2.116689
599.00 2.126888
599.10 2.138094
599.20 2.149182
599.30 2.158915
599.40 2.166384
599.50 2.171288
599.60 2.173939
599.70 2.17497
599.80 2.17517
599.90 2.175456
600.00 2.337073
600.10 2.344798
600.20 2.334604
600.30 2.31603
600.40 2.296264
600.50 2.271451
600.60 2.24422
600.70 2.227808
600.80 2.230707
600.90 2.25129
601.00 2.283409
601.10 2.315328
601.20 2.333921
601.30 2.334309
601.40 2.313712
601.50 2.271814
601.60 2.216242
601.70 2.158033
601.80 2.110332
601.90 2.084398
602.00 2.084849
602.10 2.109691
602.20 2.152179
602.30 2.19703
602.40 2.232324
602.50 2.257744
602.60 2.27802
602.70 2.296884
602.80 2.320779
602.90 2.357532
603.00 2.403997
603.10 2.446414
603.20 2.472388
603.30 2.480518
603.40 2.47597
603.50 2.469334
603.60 2.47287
603.70 2.497366
603.80 2.547781
603.90 2.616395
604.00 2.68842
604.10 2.747499
604.20 2.779883
604.30 2.777889
604.40 2.744728
604.50 2.690174
604.60 2.63083
604.70 2.5813
604.80 2.542119
604.90 2.506101
605.00 2.472583
605.10 2.443527
605.20 2.414348
605.30 2.394134
605.40 2.397829
605.50 2.424198
605.60 2.453395
605.70 2.469437
605.80 2.472288
605.90 2.465209
606.00 2.449993
606.10 2.430792
606.20 2.417139
606.30 2.41537
606.40 2.429172
606.50 2.467631
606.60 2.538562
606.70 2.633093
606.80 2.733347
606.90 2.827715
607.00 2.914101
607.10 2.986442
607.20 3.030134
607.30 3.03797
607.40 3.015042
607.50 2.972944
607.60 2.924897
607.70 2.88746
607.80 2.867907
607.90 2.858607
608.00 2.850489
608.10 2.839489
608.20 2.824953
608.30 2.806435
608.40 2.783886
608.50 2.755566
608.60 2.723707
608.70 2.696985
608.80 2.675044
608.90 2.651167
609.00 2.625863
609.10 2.606123
609.20 2.598147
609.30 2.603321
609.40 2.618919
609.50 2.637248
609.60 2.65114
609.70 2.661912
609.80 2.670449
609.90 2.679038
610.00 2.690912
610.10 2.698096
610.20 2.69492
610.30 2.686994
610.40 2.68055
610.50 2.675736
610.60 2.672821
610.70 2.677892
610.80 2.69772
610.90 2.732611
611.00 2.7739
611.10 2.809102
611.20 2.830504
611.30 2.837877
611.40 2.833056
611.50 2.822694
611.60 2.815291
611.70 2.811178
611.80 2.805068
611.90 2.79646
612.00 2.787609
612.10 2.774803
612.20 2.750388
612.30 2.712246
612.40 2.664542
612.50 2.607519
612.60 2.542914
612.70 2.474996
612.80 2.409135
612.90 2.35314
613.00 2.318214
613.10 2.314603
613.20 2.343492
613.30 2.396966
613.40 2.459665
613.50 2.515916
613.60 2.554854
613.70 2.565413
613.80 2.540636
613.90 2.485931
614.00 2.416949
614.10 2.351579
614.20 2.303044
614.30 2.277813
614.40 2.275706
614.50 2.292177
614.60 2.318411
614.70 2.339561
614.80 2.348065
614.90 2.343931
615.00 2.330433
615.10 2.322671
615.20 2.334525
615.30 2.364035
615.40 2.39777
615.50 2.422184
615.60 2.429476
615.70 2.416955
615.80 2.386246
615.90 2.34315
616.00 2.30092
616.10 2.275666
616.20 2.274399
616.30 2.297624
616.40 2.339178
616.50 2.379177
616.60 2.393048
616.70 2.37142
616.80 2.318661
616.90 2.245874
617.00 2.170661
617.10 2.117095
617.20 2.100082
617.30 2.119302
617.40 2.164673
617.50 2.216753
617.60 2.256065
617.70 2.265066
617.80 2.233598
617.90 2.165857
618.00 2.078962
618.10 1.990933
618.20 1.914625
618.30 1.863453
618.40 1.845519
618.50 1.852745
618.60 1.870553
618.70 1.88939
618.80 1.903574
618.90 1.911648
619.00 1.914229
619.10 1.910219
619.20 1.896242
619.30 1.871523
619.40 1.839472
619.50 1.807302
619.60 1.78564
619.70 1.780611
619.80 1.791206
619.90 1.816061
620.00 1.852649
620.10 1.893603
620.20 1.931062
620.30 1.95577
620.40 1.9558
620.50 1.925912
620.60 1.873044
620.70 1.813594
620.80 1.763777
620.90 1.736378
621.00 1.739833
621.10 1.769945
621.20 1.815381
621.30 1.864744
621.40 1.905364
621.50 1.924358
621.60 1.913666
621.70 1.874908
621.80 1.82289
621.90 1.782158
622.00 1.770594
622.10 1.786194
622.20 1.824559
622.30 1.885785
622.40 1.960202
622.50 2.032857
622.60 2.088446
622.70 2.113764
622.80 2.108446
622.90 2.085319
623.00 2.058766
623.10 2.036927
623.20 2.02229
623.30 2.014596
623.40 2.014098
623.50 2.024163
623.60 2.039886
623.70 2.047585
623.80 2.038378
623.90 2.012887
624.00 1.978235
624.10 1.940865
624.20 1.90577
624.30 1.877642
624.40 1.8561
624.50 1.844462
624.60 1.849216
624.70 1.869495
624.80 1.900068
624.90 1.936382
625.00 1.980053
625.10 2.033719
625.20 2.09149
625.30 2.139475
625.40 2.16564
625.50 2.167035
625.60 2.146054
625.70 2.108954
625.80 2.069085
625.90 2.037708
626.00 2.021857
626.10 2.028336
626.20 2.058826
626.30 2.110294
626.40 2.173652
626.50 2.233497
626.60 2.281277
626.70 2.316157
626.80 2.336927
626.90 2.34323
627.00 2.335473
627.10 2.314251
627.20 2.281522
627.30 2.245659
627.40 2.217386
627.50 2.203665
627.60 2.213612
627.70 2.255394
627.80 2.32793
627.90 2.420979
628.00 2.519884
628.10 2.616081
628.20 2.707015
628.30 2.779833
628.40 2.821451
628.50 2.830054
628.60 2.80664
628.70 2.757067
628.80 2.696827
628.90 2.642542
629.00 2.602099
629.10 2.579192
629.20 2.575497
629.30 2.595716
629.40 2.654136
629.50 2.764485
629.60 2.91979
629.70 3.105223
629.80 3.307511
629.90 3.503999
630.00 3.670955
630.10 3.784596
630.20 3.819308
630.30 3.768966
630.40 3.65511
630.50 3.507853
630.60 3.360236
630.70 3.240047
630.80 3.15705
630.90 3.103629
631.00 3.074324
631.10 3.071604
631.20 3.091309
631.30 3.125119
631.40 3.165497
631.50 3.214099
631.60 3.280055
631.70 3.35952
631.80 3.433805
631.90 3.487497
632.00 3.516479
632.10 3.526128
632.20 3.524638
632.30 3.520247
632.40 3.527974
632.50 3.557929
632.60 3.607382
632.70 3.669937
632.80 3.739888
632.90 3.806791
633.00 3.858023
633.10 3.889875
633.20 3.907408
633.30 3.917273
633.40 3.920747
633.50 3.918362
633.60 3.913395
633.70 3.907628
633.80 3.897175
633.90 3.8796
634.00 3.86199
634.10 3.852372
634.20 3.854432
634.30 3.867792
634.40 3.889861
634.50 3.918161
634.60 3.949776
634.70 3.983325
634.80 4.015701
634.90 4.041038
635.00 4.056448
635.10 4.060013
635.20 4.051159
635.30 4.035045
635.40 4.018377
635.50 4.005376
635.60 3.994976
635.70 3.986745
635.80 3.981594
635.90 3.971695
636.00 3.948568
636.10 3.909279
636.20 3.864688
636.30 3.831589
636.40 3.818335
636.50 3.835297
636.60 3.886197
636.70 3.962097
636.80 4.049657
636.90 4.138011
637.00 4.222561
637.10 4.29502
637.20 4.345175
637.30 4.376732
637.40 4.398438
637.50 4.413319
637.60 4.415683
637.70 4.394819
637.80 4.349613
637.90 4.284099
638.00 4.207367
638.10 4.134618
638.20 4.078162
638.30 4.041434
638.40 4.021149
638.50 4.014031
638.60 4.017251
638.70 4.027388
638.80 4.041226
638.90 4.056097
639.00 4.069077
639.10 4.08365
639.20 4.104018
639.30 4.131773
639.40 4.16646
639.50 4.204318
639.60 4.243871
639.70 4.283726
639.80 4.323525
639.90 4.36635
640.00 4.412717
640.10 4.456514
640.20 4.488528
640.30 4.498549
640.40 4.482519
640.50 4.443325
640.60 4.385685
640.70 4.313942
640.80 4.235727
640.90 4.161366
641.00 4.099167
641.10 4.059717
641.20 4.045956
641.30 4.052663
641.40 4.078875
641.50 4.122915
641.60 4.17721
641.70 4.235964
641.80 4.292585
641.90 4.334924
642.00 4.351329
642.10 4.33783
642.20 4.302587
642.30 4.258003
642.40 4.210638
642.50 4.163179
642.60 4.123032
642.70 4.094044
642.80 4.074165
642.90 4.059856
643.00 4.045108
643.10 4.024325
643.20 3.997989
643.30 3.97231
643.40 3.958323
643.50 3.96551
643.60 3.989337
643.70 4.019882
643.80 4.05054
643.90 4.074354
644.00 4.086993
644.10 4.092616
644.20 4.097722
644.30 4.107732
644.40 4.128731
644.50 4.162022
644.60 4.205832
644.70 4.258338
644.80 4.311008
644.90 4.352778
645.00 4.378779
645.10 4.387701
645.20 4.384539
645.30 4.377777
645.40 4.372425
645.50 4.368799
645.60 4.361607
645.70 4.347343
645.80 4.329527
645.90 4.318116
646.00 4.318993
646.10 4.330746
646.20 4.350011
646.30 4.371539
646.40 4.390788
646.50 4.406833
646.60 4.416965
646.70 4.415018
646.80 4.397912
646.90 4.371462
647.00 4.345982
647.10 4.329502
647.20 4.328777
647.30 4.344824
647.40 4.376539
647.50 4.422227
647.60 4.478227
647.70 4.54051
647.80 4.602014
647.90 4.655472
648.00 4.695586
648.10 4.721292
648.20 4.733115
648.30 4.729561
648.40 4.712829
648.50 4.690735
648.60 4.669961
648.70 4.654371
648.80 4.644957
648.90 4.642198
649.00 4.649491
649.10 4.670946
649.20 4.708606
649.30 4.758692
649.40 4.817205
649.50 4.885946
649.60 4.965756
649.70 5.051426
649.80 5.133112
649.90 5.198964
650.00 5.241532
650.10 5.257333
650.20 5.249392
650.30 5.231163
650.40 5.217499
650.50 5.218895
650.60 5.245359
650.70 5.300765
650.80 5.378388
650.90 5.466612
651.00 5.556368
651.10 5.644748
651.20 5.730633
651.30 5.812354
651.40 5.887331
651.50 5.958483
651.60 6.032351
651.70 6.109972
651.80 6.187523
651.90 6.260858
652.00 6.325405
652.10 6.380987
652.20 6.435049
652.30 6.496748
652.40 6.574377
652.50 6.674648
652.60 6.803887
652.70 6.966164
652.80 7.154449
652.90 7.347685
653.00 7.520082
653.10 7.649906
653.20 7.726667
653.30 7.759651
653.40 7.768662
653.50 7.771342
653.60 7.783077
653.70 7.815253
653.80 7.871731
653.90 7.945466
654.00 8.019741
654.10 8.075444
654.20 8.10637
654.30 8.118109
654.40 8.113586
654.50 8.091785
654.60 8.053521
654.70 7.998287
654.80 7.928846
654.90 7.84871
655.00 7.755259
655.10 7.662184
655.20 7.592843
655.30 7.563269
655.40 7.587518
655.50 7.667567
655.60 7.794601
655.70 7.971547
655.80 8.215102
655.90 8.536439
656.00 8.929348
656.10 9.353269
656.20 9.733024
656.30 10.00558
656.40 10.13192
656.50 10.07826
656.60 9.840129
656.70 9.453778
656.80 8.976387
656.90 8.480603
657.00 8.038677
657.10 7.696036
657.20 7.458449
657.30 7.304604
657.40 7.197469
657.50 7.102493
657.60 7.005519
657.70 6.897759
657.80 6.780788
657.90 6.667674
658.00 6.565513
658.10 6.477958
658.20 6.411128
658.30 6.372885
658.40 6.367365
658.50 6.390763
658.60 6.436641
658.70 6.497135
658.80 6.561419
658.90 6.620466
659.00 6.671138
659.10 6.714601
659.20 6.754651
659.30 6.79587
659.40 6.845005
659.50 6.909511
659.60 6.989581
659.70 7.078514
659.80 7.165346
659.90 7.236372
660.00 7.282423
660.10 7.303325
660.20 7.301192
660.30 7.279724
660.40 7.249101
660.50 7.219116
660.60 7.195157
660.70 7.184251
660.80 7.191356
660.90 7.212968
661.00 7.245256
661.10 7.286883
661.20 7.333577
661.30 7.374591
661.40 7.39673
661.50 7.389647
661.60 7.357855
661.70 7.317615
661.80 7.278844
661.90 7.247183
662.00 7.223569
662.10 7.199183
662.20 7.16507
662.30 7.119335
662.40 7.060051
662.50 6.986082
662.60 6.906016
662.70 6.840911
662.80 6.81312
662.90 6.832211
663.00 6.892115
663.10 6.97716
663.20 7.069537
663.30 7.153852
663.40 7.221099
663.50 7.265881
663.60 7.280971
663.70 7.261981
663.80 7.216086
663.90 7.159642
664.00 7.109612
664.10 7.077943
664.20 7.0733
664.30 7.101603
664.40 7.159717
664.50 7.234166
664.60 7.303689
664.70 7.342299
664.80 7.326188
664.90 7.249882
665.00 7.130808
665.10 6.997274
665.20 6.879236
665.30 6.798135
665.40 6.763408
665.50 6.774215
665.60 6.816341
665.70 6.868184
665.80 6.909797
665.90 6.929002
666.00 6.9236
666.10 6.903373
666.20 6.885736
666.30 6.883163
666.40 6.901097
666.50 6.94019
666.60 6.994847
666.70 7.057506
666.80 7.117989
666.90 7.164686
667.00 7.190696
667.10 7.198778
667.20 7.203395
667.30 7.219019
667.40 7.255226
667.50 7.312962
667.60 7.382878
667.70 7.448165
667.80 7.491661
667.90 7.503002
668.00 7.479169
668.10 7.422817
668.20 7.340507
668.30 7.245615
668.40 7.155254
668.50 7.079812
668.60 7.020927
668.70 6.980026
668.80 6.957639
668.90 6.949553
669.00 6.948579
669.10 6.950905
669.20 6.95657
669.30 6.965679
669.40 6.977469
669.50 6.987748
669.60 6.991126
669.70 6.98744
669.80 6.9851
669.90 6.998358
670.00 7.035162
670.10 7.090486
670.20 7.158975
670.30 7.23629
670.40 7.314995
670.50 7.390898
670.60 7.458516
670.70 7.510673
670.80 7.54894
670.90 7.586172
671.00 7.636472
671.10 7.6979
671.20 7.752941
671.30 7.78226
671.40 7.77275
671.50 7.721072
671.60 7.626453
671.70 7.497061
671.80 7.355585
671.90 7.221965
672.00 7.114038
672.10 7.049486
672.20 7.03231
672.30 7.049347
672.40 7.082008
672.50 7.117509
672.60 7.149871
672.70 7.17425
672.80 7.187915
672.90 7.193344
673.00 7.195403
673.10 7.199841
673.20 7.212665
673.30 7.240532
673.40 7.282398
673.50 7.329395
673.60 7.374314
673.70 7.414681
673.80 7.452006
673.90 7.492478
674.00 7.543903
674.10 7.610944
674.20 7.69041
674.30 7.769081
674.40 7.835716
674.50 7.884716
674.60 7.912578
674.70 7.921112
674.80 7.917661
674.90 7.908754
675.00 7.8936
675.10 7.872294
675.20 7.850387
675.30 7.82997
675.40 7.809583
675.50 7.788358
675.60 7.772224
675.70 7.774963
675.80 7.804192
675.90 7.85511
676.00 7.917241
676.10 7.981622
676.20 8.042949
676.30 8.098182
676.40 8.15054
676.50 8.202812
676.60 8.252964
676.70 8.298411
676.80 8.335054
676.90 8.356188
677.00 8.357533
677.10 8.343198
677.20 8.326617
677.30 8.321712
677.40 8.334466
677.50 8.363296
677.60 8.400988
677.70 8.436662
677.80 8.454913
677.90 8.440015
678.00 8.380441
678.10 8.273291
678.20 8.127669
678.30 7.964241
678.40 7.805465
678.50 7.667184
678.60 7.553108
678.70 7.46688
678.80 7.420319
678.90 7.415973
679.00 7.44864
679.10 7.511632
679.20 7.596603
679.30 7.693922
679.40 7.791736
679.50 7.878303
679.60 7.942626
679.70 7.978021
679.80 7.985458
679.90 7.970824
680.00 7.951913
680.10 7.945579
680.20 7.952778
680.30 7.972154
680.40 7.999263
680.50 8.024494
680.60 8.039761
680.70 8.041104
680.80 8.028542
680.90 8.003827
681.00 7.972161
681.10 7.943
681.20 7.924673
681.30 7.919076
681.40 7.920796
681.50 7.923169
681.60 7.923536
681.70 7.918872
681.80 7.910802
681.90 7.908157
682.00 7.91889
682.10 7.950867
682.20 8.013157
682.30 8.111075
682.40 8.239151
682.50 8.376232
682.60 8.49437
682.70 8.573053
682.80 8.600546
682.90 8.575162
683.00 8.503318
683.10 8.398835
683.20 8.277498
683.30 8.156022
683.40 8.054763
683.50 7.984244
683.60 7.943508
683.70 7.925215
683.80 7.920942
683.90 7.928482
684.00 7.947939
684.10 7.974346
684.20 7.999166
684.30 8.013423
684.40 8.013392
684.50 7.99851
684.60 7.965819
684.70 7.912241
684.80 7.835433
684.90 7.744238
685.00 7.658682
685.10 7.597681
685.20 7.570903
685.30 7.575831
685.40 7.605517
685.50 7.652736
685.60 7.706103
685.70 7.757483
685.80 7.807643
685.90 7.865163
686.00 7.936648
686.10 8.020983
686.20 8.11422
686.30 8.20567
686.40 8.277408
686.50 8.316576
686.60 8.317569
686.70 8.281067
686.80 8.216615
686.90 8.133788
687.00 8.045075
687.10 7.963682
687.20 7.895458
687.30 7.838751
687.40 7.797228
687.50 7.774232
687.60 7.763807
687.70 7.760784
687.80 7.764202
687.90 7.773166
688.00 7.787731
688.10 7.808533
688.20 7.828544
688.30 7.845371
688.40 7.861733
688.50 7.87153
688.60 7.86806
688.70 7.855621
688.80 7.841219
688.90 7.830664
689.00 7.830848
689.10 7.843483
689.20 7.863408
689.30 7.881849
689.40 7.891597
689.50 7.891005
689.60 7.882112
689.70 7.863165
689.80 7.832323
689.90 7.795493
690.00 7.759393
690.10 7.726984
690.20 7.70205
690.30 7.691188
690.40 7.703287
690.50 7.747787
690.60 7.827605
690.70 7.942991
690.80 8.090867
690.90 8.251619
691.00 8.402984
691.10 8.536245
691.20 8.641613
691.30 8.703687
691.40 8.710172
691.50 8.6493
691.60 8.521327
691.70 8.351691
691.80 8.179557
691.90 8.041164
692.00 7.969878
692.10 7.989754
692.20 8.104402
692.30 8.302873
692.40 8.555621
692.50 8.810984
692.60 9.023688
692.70 9.17372
692.80 9.259286
692.90 9.29583
693.00 9.308107
693.10 9.319055
693.20 9.346309
693.30 9.397954
693.40 9.468858
693.50 9.541418
693.60 9.595929
693.70 9.620472
693.80 9.61999
693.90 9.620513
694.00 9.650476
694.10 9.727667
694.20 9.867437
694.30 10.07954
694.40 10.35761
694.50 10.67916
694.60 11.00972
694.70 11.31419
694.80 11.56311
694.90 11.73255
695.00 11.80881
695.10 11.78982
695.20 11.68377
695.30 11.50753
695.40 11.28778
695.50 11.06196
695.60 10.86539
695.70 10.72347
695.80 10.65056
695.90 10.64366
696.00 10.69171
696.10 10.77948
696.20 10.8862
696.30 10.99647
696.40 11.10289
696.50 11.20324
696.60 11.29367
696.70 11.36483
696.80 11.40523
696.90 11.40481
697.00 11.36454
697.10 11.29467
697.20 11.21339
697.30 11.15188
697.40 11.13557
697.50 11.17416
697.60 11.26914
697.70 11.40835
697.80 11.56568
697.90 11.7121
698.00 11.8232
698.10 11.88953
698.20 11.92135
698.30 11.93677
698.40 11.94905
698.50 11.97065
698.60 12.01078
698.70 12.06116
698.80 12.10679
698.90 12.13986
699.00 12.15537
699.10 12.14836
699.20 12.11126
699.30 12.04055
699.40 11.94796
699.50 11.85201
699.60 11.76572
699.70 11.70035
699.80 11.66702
699.90 11.67195
700.00 11.71736
700.10 11.80178
700.20 11.92147
700.30 12.06912
700.40 12.23214
700.50 12.39857
700.60 12.5661
700.70 12.73499
700.80 12.8928
700.90 13.02192
701.00 13.11583
701.10 13.17708
701.20 13.21316
701.30 13.23183
701.40 13.23932
701.50 13.25115
701.60 13.28458
701.70 13.3454
701.80 13.43
701.90 13.53064
702.00 13.63605
702.10 13.734
702.20 13.81931
702.30 13.89795
702.40 13.98246
702.50 14.0887
702.60 14.22963
702.70 14.41111
702.80 14.63114
702.90 14.87216
703.00 15.10647
703.10 15.31772
703.20 15.50567
703.30 15.67576
703.40 15.83296
703.50 15.98212
703.60 16.13376
703.70 16.2928
703.80 16.45305
703.90 16.60584
704.00 16.74516
704.10 16.86091
704.20 16.94397
704.30 16.99943
704.40 17.03858
704.50 17.06826
704.60 17.0961
704.70 17.1269
704.80 17.15992
704.90 17.18429
705.00 17.15937
705.10 17.029
705.20 16.74334
705.30 16.27046
705.40 15.61265
705.50 14.81417
705.60 13.94615
705.70 13.08385
705.80 12.30153
705.90 11.65949
706.00 11.18119
706.10 10.85846
706.20 10.65813
706.30 10.53597
706.40 10.46454
706.50 10.43492
706.60 10.4489
706.70 10.51144
706.80 10.6193
706.90 10.76102
707.00 10.92305
707.10 11.09238
707.20 11.25111
707.30 11.38143
707.40 11.47859
707.50 11.54802
707.60 11.60213
707.70 11.6535
707.80 11.71266
707.90 11.7873
708.00 11.87864
708.10 11.98043
708.20 12.07687
708.30 12.1436
708.40 12.15479
708.50 12.08925
708.60 11.94511
708.70 11.73769
708.80 11.48598
708.90 11.21591
709.00 10.95699
709.10 10.73748
709.20 10.57427
709.30 10.47063
709.40 10.41642
709.50 10.3931
709.60 10.38446
709.70 10.3823
709.80 10.38284
709.90 10.38921
710.00 10.40754
710.10 10.43944
710.20 10.48675
710.30 10.55104
710.40 10.63757
710.50 10.75249
710.60 10.89647
710.70 11.06149
710.80 11.23639
710.90 11.40329
711.00 11.53754
711.10 11.62309
711.20 11.6571
711.30 11.64402
711.40 11.59478
711.50 11.53155
711.60 11.48077
711.70 11.463
711.80 11.4879
711.90 11.55332
712.00 11.64583
712.10 11.73895
712.20 11.79843
712.30 11.80013
712.40 11.73823
712.50 11.61475
712.60 11.43664
712.70 11.22657
712.80 11.01515
712.90 10.83398
713.00 10.70637
713.10 10.63649
713.20 10.61529
713.30 10.62434
713.40 10.64262
713.50 10.65396
713.60 10.65076
713.70 10.63379
713.80 10.60758
713.90 10.58081
714.00 10.56657
714.10 10.57228
714.20 10.59791
714.30 10.63546
714.40 10.6802
714.50 10.73343
714.60 10.79204
714.70 10.85074
714.80 10.90275
714.90 10.94463
715.00 10.97885
715.10 11.00826
715.20 11.03961
715.30 11.08365
715.40 11.14468
715.50 11.21687
715.60 11.2909
715.70 11.35772
715.80 11.40102
715.90 11.40914
716.00 11.38374
716.10 11.33995
716.20 11.30028
716.30 11.28195
716.40 11.29474
716.50 11.33962
716.60 11.40519
716.70 11.47374
716.80 11.53101
716.90 11.57134
717.00 11.60089
717.10 11.63252
717.20 11.68269
717.30 11.76149
717.40 11.86525
717.50 11.97935
717.60 12.08835
717.70 12.1824
717.80 12.26006
717.90 12.32965
718.00 12.40307
718.10 12.49066
718.20 12.59839
718.30 12.72547
718.40 12.86365
718.50 13.00124
718.60 13.12471
718.70 13.22398
718.80 13.29767
718.90 13.34693
719.00 13.37806
719.10 13.40274
719.20 13.42427
719.30 13.43495
719.40 13.42402
719.50 13.38752
719.60 13.32923
719.70 13.25527
719.80 13.16819
719.90 13.06866
720.00 12.96747
720.10 12.88108
720.20 12.82105
720.30 12.79518
720.40 12.79997
720.50 12.82173
720.60 12.84794
720.70 12.87376
720.80 12.90573
720.90 12.95119
721.00 13.01148
721.10 13.0842
721.20 13.1646
721.30 13.2496
721.40 13.33203
721.50 13.39792
721.60 13.44029
721.70 13.46288
721.80 13.47997
721.90 13.51218
722.00 13.57646
722.10 13.6833
722.20 13.83451
722.30 14.01796
722.40 14.21333
722.50 14.40045
722.60 14.56294
722.70 14.69111
722.80 14.77801
722.90 14.83027
723.00 14.86983
723.10 14.92075
723.20 14.99937
723.30 15.10939
723.40 15.25628
723.50 15.44738
723.60 15.66464
723.70 15.86786
723.80 16.02759
723.90 16.13824
724.00 16.20734
724.10 16.24453
724.20 16.26849
724.30 16.30965
724.40 16.39291
724.50 16.52243
724.60 16.68981
724.70 16.89
724.80 17.10553
724.90 17.29953
725.00 17.44992
725.10 17.56258
725.20 17.64818
725.30 17.71192
725.40 17.76026
725.50 17.80017
725.60 17.84096
725.70 17.88705
725.80 17.93945
725.90 18.00896
726.00 18.10531
726.10 18.22686
726.20 18.36829
726.30 18.52541
726.40 18.68737
726.50 18.83329
726.60 18.94142
726.70 18.99776
726.80 19.00188
726.90 18.97598
727.00 18.96534
727.10 19.00292
727.20 19.09327
727.30 19.22358
727.40 19.36595
727.50 19.48849
727.60 19.56348
727.70 19.57641
727.80 19.53934
727.90 19.4862
728.00 19.45166
728.10 19.46443
728.20 19.55338
728.30 19.72149
728.40 19.92453
728.50 20.11637
728.60 20.27306
728.70 20.38369
728.80 20.45432
728.90 20.50181
729.00 20.55542
729.10 20.64657
729.20 20.78826
729.30 20.98081
729.40 21.22562
729.50 21.51049
729.60 21.79702
729.70 22.05365
729.80 22.27319
729.90 22.46041
730.00 22.62433
730.10 22.78205
730.20 22.95761
730.30 23.16733
730.40 23.40978
730.50 23.67073
730.60 23.9331
730.70 24.17759
730.80 24.38948
730.90 24.57808
731.00 24.77488
731.10 25.00253
731.20 25.25487
731.30 25.5179
731.40 25.79695
731.50 26.09492
731.60 26.39773
731.70 26.6886
731.80 26.95276
731.90 27.17846
732.00 27.36282
732.10 27.51362
732.20 27.63346
732.30 27.71696
732.40 27.75953
732.50 27.75083
732.60 27.6869
732.70 27.5783
732.80 27.43461
732.90 27.26834
733.00 27.10874
733.10 26.99787
733.20 26.97503
733.30 27.07005
733.40 27.30168
733.50 27.67738
733.60 28.1863
733.70 28.78242
733.80 29.39377
733.90 29.9539
734.00 30.40948
734.10 30.70173
734.20 30.77747
734.30 30.62557
734.40 30.28194
734.50 29.81659
734.60 29.32043
734.70 28.88129
734.80 28.55906
734.90 28.36944
735.00 28.29057
735.10 28.27898
735.20 28.28171
735.30 28.25959
735.40 28.20287
735.50 28.13076
735.60 28.07785
735.70 28.07741
735.80 28.15139
735.90 28.30903
736.00 28.5485
736.10 28.86008
736.20 29.23123
736.30 29.6469
736.40 30.08525
736.50 30.51939
736.60 30.92298
736.70 31.27619
736.80 31.56748
736.90 31.78206
737.00 31.89457
737.10 31.87475
737.20 31.70786
737.30 31.40827
737.40 31.01678
737.50 30.58837
737.60 30.177
737.70 29.82671
737.80 29.5701
737.90 29.42905
738.00 29.40821
738.10 29.48497
738.20 29.61384
738.30 29.75575
738.40 29.89955
738.50 30.05934
738.60 30.25699
738.70 30.50123
738.80 30.7674
738.90 30.99857
739.00 31.12869
739.10 31.10406
739.20 30.90322
739.30 30.54463
739.40 30.08256
739.50 29.60326
739.60 29.20113
739.70 28.94044
739.80 28.85484
739.90 28.94255
740.00 29.15485
740.10 29.4059
740.20 29.59619
740.30 29.65469
740.40 29.55989
740.50 29.33996
740.60 29.06348
740.70 28.81051
740.80 28.64833
740.90 28.61186
741.00 28.70065
741.10 28.89736
741.20 29.15633
741.30 29.39977
741.40 29.54144
741.50 29.5154
741.60 29.31161
741.70 28.97062
741.80 28.55612
741.90 28.1371
742.00 27.77784
742.10 27.53553
742.20 27.43826
742.30 27.47855
742.40 27.62941
742.50 27.8458
742.60 28.07271
742.70 28.27239
742.80 28.43501
742.90 28.56332
743.00 28.65169
743.10 28.67723
743.20 28.62394
743.30 28.49908
743.40 28.31964
743.50 28.10468
743.60 27.8936
743.70 27.73206
743.80 27.63863
743.90 27.60647
744.00 27.60994
744.10 27.60561
744.20 27.54231
744.30 27.38399
744.40 27.13486
744.50 26.84545
744.60 26.57967
744.70 26.39225
744.80 26.32655
744.90 26.40225
745.00 26.59687
745.10 26.85528
745.20 27.11349
745.30 27.31932
745.40 27.44359
745.50 27.47499
745.60 27.42147
745.70 27.31354
745.80 27.1915
745.90 27.09702
746.00 27.07156
746.10 27.13854
746.20 27.29516
746.30 27.51944
746.40 27.77714
746.50 28.03415
746.60 28.26409
746.70 28.44504
746.80 28.56321
746.90 28.61929
747.00 28.62149
747.10 28.57467
747.20 28.49068
747.30 28.39012
747.40 28.28416
747.50 28.17716
747.60 28.07303
747.70 27.98448
747.80 27.94051
747.90 27.96721
748.00 28.07763
748.10 28.26399
748.20 28.50013
748.30 28.75947
748.40 29.01716
748.50 29.256
748.60 29.4649
748.70 29.63207
748.80 29.74802
748.90 29.8081
749.00 29.8136
749.10 29.76089
749.20 29.64509
749.30 29.4766
749.40 29.28812
749.50 29.1354
749.60 29.07192
749.70 29.1242
749.80 29.2921
749.90 29.5467
750.00 29.82907
750.10 30.06951
750.20 30.21698
750.30 30.25284
750.40 30.19606
750.50 30.10233
750.60 30.03751
750.70 30.04908
750.80 30.1523
750.90 30.3252
751.00 30.51742
751.10 30.67802
751.20 30.77662
751.30 30.80225
751.40 30.76212
751.50 30.67849
751.60 30.58054
751.70 30.49931
751.80 30.46044
751.90 30.48203
752.00 30.56398
752.10 30.68653
752.20 30.81942
752.30 30.93078
752.40 31.00164
752.50 31.02493
752.60 31.00881
752.70 30.97878
752.80 30.96793
752.90 30.99828
753.00 31.07062
753.10 31.17782
753.20 31.30694
753.30 31.43412
753.40 31.54877
753.50 31.6679
753.60 31.8193
753.70 32.02641
753.80 32.3062
753.90 32.66192
754.00 33.07325
754.10 33.49549
754.20 33.86736
754.30 34.13566
754.40 34.27386
754.50 34.27862
754.60 34.16746
754.70 33.97868
754.80 33.75903
754.90 33.54893
755.00 33.38451
755.10 33.29629
755.20 33.29559
755.30 33.37159
755.40 33.4952
755.50 33.63831
755.60 33.78516
755.70 33.9246
755.80 34.05431
755.90 34.17696
756.00 34.28964
756.10 34.37997
756.20 34.42728
756.30 34.41203
756.40 34.32489
756.50 34.17669
756.60 33.99955
756.70 33.83343
756.80 33.71655
756.90 33.68612
757.00 33.76145
757.10 33.92019
757.20 34.11158
757.30 34.28471
757.40 34.3977
757.50 34.42924
757.60 34.39498
757.70 34.34037
757.80 34.32139
757.90 34.37981
758.00 34.52616
758.10 34.73756
758.20 34.95631
758.30 35.0863
758.40 35.01116
758.50 34.63719
758.60 33.90627
758.70 32.80386
758.80 31.38174
758.90 29.75409
759.00 28.06964
759.10 26.48966
759.20 25.157
759.30 24.14859
759.40 23.45756
759.50 23.05281
759.60 22.90026
759.70 22.90731
759.80 22.96814
759.90 23.05522
760.00 23.1706
760.10 23.28704
760.20 23.3874
760.30 23.47145
760.40 23.53543
760.50 23.57489
760.60 23.59059
760.70 23.60347
760.80 23.65685
760.90 23.76758
761.00 23.92405
761.10 24.14476
761.20 24.44926
761.30 24.79394
761.40 25.13057
761.50 25.45759
761.60 25.76814
761.70 26.03692
761.80 26.23658
761.90 26.33337
762.00 26.29981
762.10 26.12079
762.20 25.79659
762.30 25.34183
762.40 24.7711
762.50 24.09136
762.60 23.31442
762.70 22.47117
762.80 21.6094
762.90 20.78711
763.00 20.05693
763.10 19.45286
763.20 18.98561
763.30 18.6454
763.40 18.40464
763.50 18.22944
763.60 18.08742
763.70 17.94596
763.80 17.77654
763.90 17.56752
764.00 17.32579
764.10 17.07259
764.20 16.83059
764.30 16.60527
764.40 16.39355
764.50 16.19267
764.60 15.99584
764.70 15.78714
764.80 15.54318
764.90 15.23954
765.00 14.8526
765.10 14.37225
765.20 13.81291
765.30 13.21773
765.40 12.64293
765.50 12.11716
765.60 11.6396
765.70 11.20619
765.80 10.80178
765.90 10.38374
766.00 9.907789
766.10 9.35431
766.20 8.72549
766.30 8.050842
766.40 7.392496
766.50 6.824062
766.60 6.411362
766.70 6.197548
766.80 6.198969
766.90 6.414134
767.00 6.821707
767.10 7.367389
767.20 7.981819
767.30 8.609911
767.40 9.209426
767.50 9.753125
767.60 10.23053
767.70 10.64257
767.80 11.00204
767.90 11.32512
768.00 11.62729
768.10 11.91808
768.20 12.19626
768.30 12.44915
768.40 12.65174
768.50 12.77915
768.60 12.81786
768.70 12.77448
768.80 12.6648
768.90 12.4978
769.00 12.27642
769.10 11.99904
769.20 11.65598
769.30 11.23627
769.40 10.73184
769.50 10.14058
769.60 9.475168
769.70 8.77886
769.80 8.126331
769.90 7.601603
770.00 7.275415
770.10 7.188225
770.20 7.346735
770.30 7.7304
770.40 8.299156
770.50 8.994671
770.60 9.759288
770.70 10.54401
770.80 11.29589
770.90 11.98353
771.00 12.6129
771.10 13.19993
771.20 13.7431
771.30 14.22507
771.40 14.62848
771.50 14.95436
771.60 15.22611
771.70 15.46784
771.80 15.69959
771.90 15.93244
772.00 16.16507
772.10 16.40517
772.20 16.68313
772.30 17.02188
772.40 17.41544
772.50 17.84357
772.60 18.29297
772.70 18.75376
772.80 19.21185
772.90 19.64323
773.00 20.02268
773.10 20.34293
773.20 20.61147
773.30 20.85348
773.40 21.09888
773.50 21.35992
773.60 21.63257
773.70 21.90847
773.80 22.17037
773.90 22.38633
774.00 22.52009
774.10 22.54917
774.20 22.46696
774.30 22.28882
774.40 22.05785
774.50 21.83125
774.60 21.66002
774.70 21.56286
774.80 21.53047
774.90 21.55362
775.00 21.62259
775.10 21.70375
775.20 21.75323
775.30 21.75179
775.40 21.71136
775.50 21.66381
775.60 21.63909
775.70 21.64587
775.80 21.67297
775.90 21.70269
776.00 21.7228
776.10 21.73692
776.20 21.75302
776.30 21.76562
776.40 21.77208
776.50 21.79609
776.60 21.88421
776.70 22.07454
776.80 22.37554
776.90 22.76571
777.00 23.21162
777.10 23.67769
777.20 24.11673
777.30 24.47025
777.40 24.68778
777.50 24.756
777.60 24.69381
777.70 24.53742
777.80 24.33437
777.90 24.12469
778.00 23.92736
778.10 23.73923
778.20 23.54885
778.30 23.34806
778.40 23.13737
778.50 22.92803
778.60 22.74375
778.70 22.6237
778.80 22.61305
778.90 22.73888
779.00 22.99406
779.10 23.33956
779.20 23.71167
779.30 24.04184
779.40 24.25934
779.50 24.28807
779.60 24.06108
779.70 23.55692
779.80 22.82845
779.90 22.00374
780.00 21.25832
780.10 20.76597
780.20 20.65853
780.30 21.01028
780.40 21.81606
780.50 22.96411
780.60 24.27492
780.70 25.5534
780.80 26.62927
780.90 27.41126
781.00 27.91049
781.10 28.20384
781.20 28.39503
781.30 28.5712
781.40 28.77651
781.50 29.02334
781.60 29.29406
781.70 29.52284
781.80 29.62664
781.90 29.58057
782.00 29.40689
782.10 29.1396
782.20 28.82095
782.30 28.48556
782.40 28.15089
782.50 27.81815
782.60 27.47681
782.70 27.12378
782.80 26.76975
782.90 26.42882
783.00 26.12049
783.10 25.88518
783.20 25.78856
783.30 25.86316
783.40 26.08259
783.50 26.40577
783.60 26.79505
783.70 27.20851
783.80 27.59837
783.90 27.94243
784.00 28.2439
784.10 28.51268
784.20 28.76907
784.30 29.03219
784.40 29.30284
784.50 29.55956
784.60 29.76641
784.70 29.904
784.80 29.97731
784.90 29.97294
785.00 29.86439
785.10 29.66504
785.20 29.43669
785.30 29.25353
785.40 29.17311
785.50 29.22379
785.60 29.3982
785.70 29.65593
785.80 29.94169
785.90 30.20329
786.00 30.39626
786.10 30.47883
786.20 30.42208
786.30 30.23714
786.40 29.9757
786.50 29.69604
786.60 29.44521
786.70 29.24256
786.80 29.07598
786.90 28.92915
787.00 28.78796
787.10 28.64859
787.20 28.52354
787.30 28.43368
787.40 28.40172
787.50 28.45387
787.60 28.61309
787.70 28.88688
787.80 29.25918
787.90 29.69593
788.00 30.15
788.10 30.57283
788.20 30.93538
788.30 31.22035
788.40 31.43756
788.50 31.62214
788.60 31.78892
788.70 31.93953
788.80 32.0847
788.90 32.2306
789.00 32.37126
789.10 32.48808
789.20 32.55439
789.30 32.53382
789.40 32.38595
789.50 32.08656
789.60 31.64374
789.70 31.10115
789.80 30.51682
789.90 29.95901
790.00 29.52099
790.10 29.29086
790.20 29.29995
790.30 29.51191
790.40 29.83594
790.50 30.15829
790.60 30.37463
790.70 30.42142
790.80 30.29458
790.90 30.02538
791.00 29.67562
791.10 29.33672
791.20 29.10284
791.30 29.02951
791.40 29.11385
791.50 29.30172
791.60 29.51262
791.70 29.67531
791.80 29.7535
791.90 29.75752
792.00 29.72004
792.10 29.66471
792.20 29.60622
792.30 29.57274
792.40 29.58874
792.50 29.66016
792.60 29.77995
792.70 29.93961
792.80 30.13353
792.90 30.36343
793.00 30.65435
793.10 31.02861
793.20 31.47187
793.30 31.92771
793.40 32.32301
793.50 32.58891
793.60 32.66745
793.70 32.52962
793.80 32.185
793.90 31.6759
794.00 31.06316
794.10 30.41082
794.20 29.77708
794.30 29.18462
794.40 28.60176
794.50 27.98237
794.60 27.32253
794.70 26.67532
794.80 26.1379
794.90 25.83356
795.00 25.87133
795.10 26.30429
795.20 27.11211
795.30 28.1987
795.40 29.41305
795.50 30.58029
795.60 31.53425
795.70 32.17465
795.80 32.49432
795.90 32.55943
796.00 32.46216
796.10 32.28679
796.20 32.11479
796.30 32.02499
796.40 32.07579
796.50 32.28547
796.60 32.63588
796.70 33.09054
796.80 33.59302
796.90 34.07632
797.00 34.48293
797.10 34.76249
797.20 34.86944
797.30 34.78003
797.40 34.52023
797.50 34.15738
797.60 33.75332
797.70 33.35853
797.80 33.02033
797.90 32.76558
798.00 32.58748
798.10 32.44725
798.20 32.29556
798.30 32.09242
798.40 31.82199
798.50 31.50185
798.60 31.19047
798.70 30.97033
798.80 30.89969
798.90 30.99773
799.00 31.2486
799.10 31.59382
799.20 31.95655
799.30 32.27681
799.40 32.52398
799.50 32.69669
799.60 32.81603
799.70 32.91428
799.80 33.02463
799.90 33.17725
800.00 33.38938
800.10 33.65265
800.20 33.94931
800.30 34.25899
800.40 34.5689
800.50 34.88326
800.60 35.20101
800.70 35.51994
800.80 35.84997
800.90 36.20477
801.00 36.59081
801.10 37.00341
801.20 37.43247
801.30 37.86058
801.40 38.26321
801.50 38.61989
801.60 38.9118
801.70 39.12877
801.80 39.28241
801.90 39.39744
802.00 39.51331
802.10 39.66688
802.20 39.87665
802.30 40.16633
802.40 40.56467
802.50 41.08267
802.60 41.70166
802.70 42.37158
802.80 43.02135
802.90 43.58719
803.00 44.02806
803.10 44.32447
803.20 44.47176
803.30 44.48142
803.40 44.37857
803.50 44.20842
803.60 44.03108
803.70 43.8891
803.80 43.80022
803.90 43.77344
804.00 43.81989
804.10 43.95058
804.20 44.1692
804.30 44.46155
804.40 44.79541
804.50 45.14777
804.60 45.53052
804.70 45.97267
804.80 46.50001
804.90 47.13007
805.00 47.86535
805.10 48.67495
805.20 49.49857
805.30 50.27654
805.40 50.95799
805.50 51.51605
805.60 51.95543
805.70 52.30012
805.80 52.59333
805.90 52.87413
806.00 53.14817
806.10 53.39881
806.20 53.60359
806.30 53.74394
806.40 53.80735
806.50 53.80191
806.60 53.76716
806.70 53.75416
806.80 53.80381
806.90 53.93459
807.00 54.15431
807.10 54.4699
807.20 54.88096
807.30 55.37706
807.40 55.93895
807.50 56.54752
807.60 57.18641
807.70 57.83309
807.80 58.46087
807.90 59.05605
808.00 59.62067
808.10 60.16158
808.20 60.68031
808.30 61.1707
808.40 61.60935
808.50 61.95471
808.60 62.17985
808.70 62.29885
808.80 62.35791
808.90 62.40718
809.00 62.48458
809.10 62.61288
809.20 62.80234
809.30 63.03166
809.40 63.24325
809.50 63.37499
809.60 63.39478
809.70 63.3113
809.80 63.17763
809.90 63.07398
810.00 63.06178
810.10 63.15879
810.20 63.34627
810.30 63.60547
810.40 63.94085
810.50 64.35577
810.60 64.83391
810.70 65.35204
810.80 65.89242
810.90 66.44687
811.00 67.00313
811.10 67.52835
811.20 67.97088
811.30 68.28795
811.40 68.4858
811.50 68.62914
811.60 68.8072
811.70 69.0898
811.80 69.50085
811.90 70.03044
812.00 70.64553
812.10 71.29425
812.20 71.93337
812.30 72.52897
812.40 73.0599
812.50 73.53662
812.60 73.99104
812.70 74.45987
812.80 74.94936
812.90 75.43222
813.00 75.8826
813.10 76.2846
813.20 76.635
813.30 76.95602
813.40 77.29648
813.50 77.70165
813.60 78.17139
813.70 78.65423
813.80 79.06333
813.90 79.28412
814.00 79.22257
814.10 78.85648
814.20 78.23842
814.30 77.46744
814.40 76.65717
814.50 75.91493
814.60 75.32497
814.70 74.932
814.80 74.73997
814.90 74.73196
815.00 74.88074
815.10 75.15308
815.20 75.51934
815.30 75.9672
815.40 76.48523
815.50 77.03174
815.60 77.54459
815.70 77.97335
815.80 78.30916
815.90 78.57851
816.00 78.834
816.10 79.14405
816.20 79.56336
816.30 80.11259
816.40 80.7792
816.50 81.54332
816.60 82.38536
816.70 83.2705
816.80 84.14023
816.90 84.93445
817.00 85.61353
817.10 86.15337
817.20 86.52673
817.30 86.69684
817.40 86.61391
817.50 86.21949
817.60 85.44591
817.70 84.21523
817.80 82.44707
817.90 80.06466
818.00 77.06695
818.10 73.60315
818.20 69.99719
818.30 66.69268
818.40 64.13696
818.50 62.66093
818.60 62.39335
818.70 63.22473
818.80 64.7996
818.90 66.56916
819.00 67.9156
819.10 68.32174
819.20 67.51634
819.30 65.57745
819.40 62.90471
819.50 60.06912
819.60 57.64959
819.70 56.11103
819.80 55.7354
819.90 56.58779
820.00 58.51176
820.10 61.16206
820.20 64.09352
820.30 66.86369
820.40 69.13785
820.50 70.74599
820.60 71.69943
820.70 72.13432
820.80 72.22763
820.90 72.17778
821.00 72.16709
821.10 72.31543
821.20 72.66515
821.30 73.17963
821.40 73.76914
821.50 74.34295
821.60 74.84731
821.70 75.28421
821.80 75.69755
821.90 76.1476
822.00 76.67349
822.10 77.27833
822.20 77.94061
822.30 78.62799
822.40 79.31684
822.50 79.99667
822.60 80.66624
822.70 81.32299
822.80 81.94955
822.90 82.51094
823.00 82.97359
823.10 83.30743
823.20 83.49572
823.30 83.5546
823.40 83.53584
823.50 83.51465
823.60 83.57518
823.70 83.78753
823.80 84.18874
823.90 84.77288
824.00 85.48206
824.10 86.22697
824.20 86.92446
824.30 87.5197
824.40 87.98214
824.50 88.31672
824.60 88.53522
824.70 88.61318
824.80 88.50375
824.90 88.15765
825.00 87.5431
825.10 86.6743
825.20 85.61002
825.30 84.44049
825.40 83.29616
825.50 82.34083
825.60 81.73157
825.70 81.56821
825.80 81.85913
825.90 82.51566
826.00 83.3957
826.10 84.35399
826.20 85.26264
826.30 86.02388
826.40 86.56632
826.50 86.82967
826.60 86.78509
826.70 86.4518
826.80 85.87582
826.90 85.12484
827.00 84.28616
827.10 83.4614
827.20 82.76966
827.30 82.33277
827.40 82.23191
827.50 82.47348
827.60 82.97872
827.70 83.60007
827.80 84.15403
827.90 84.46666
828.00 84.41722
828.10 83.97052
828.20 83.18794
828.30 82.20008
828.40 81.15074
828.50 80.13599
828.60 79.19014
828.70 78.27998
828.80 77.35768
828.90 76.41914
829.00 75.49793
829.10 74.6538
829.20 73.96876
829.30 73.52181
829.40 73.33215
829.50 73.34049
829.60 73.44237
829.70 73.51033
829.80 73.41754
829.90 73.09757
830.00 72.55816
830.10 71.87638
830.20 71.16641
830.30 70.52405
830.40 70.01746
830.50 69.69402
830.60 69.58362
830.70 69.68157
830.80 69.95756
830.90 70.37087
831.00 70.85855
831.10 71.35872
831.20 71.84349
831.30 72.31023
831.40 72.77672
831.50 73.28721
831.60 73.88728
831.70 74.6026
831.80 75.43402
831.90 76.35831
832.00 77.30702
832.10 78.18457
832.20 78.89293
832.30 79.33923
832.40 79.46727
832.50 79.27298
832.60 78.81928
832.70 78.24246
832.80 77.70884
832.90 77.3498
833.00 77.21639
833.10 77.27493
833.20 77.44282
833.30 77.60554
833.40 77.65965
833.50 77.55606
833.60 77.33005
833.70 77.09721
833.80 76.99415
833.90 77.12269
834.00 77.48691
834.10 77.97978
834.20 78.45682
834.30 78.80387
834.40 78.97319
834.50 78.98866
834.60 78.90462
834.70 78.78526
834.80 78.69406
834.90 78.66661
835.00 78.67625
835.10 78.66054
835.20 78.57444
835.30 78.40149
835.40 78.16987
835.50 77.95652
835.60 77.84921
835.70 77.89621
835.80 78.08986
835.90 78.38606
836.00 78.73195
836.10 79.0671
836.20 79.33219
836.30 79.50987
836.40 79.65284
836.50 79.85372
836.60 80.18478
836.70 80.65401
836.80 81.20534
836.90 81.73429
837.00 82.08784
837.10 82.11241
837.20 81.72648
837.30 80.9541
837.40 79.91512
837.50 78.8071
837.60 77.88626
837.70 77.39824
837.80 77.45395
837.90 77.96891
838.00 78.73317
838.10 79.52369
838.20 80.129
838.30 80.34546
838.40 80.0484
838.50 79.2332
838.60 78.01234
838.70 76.58939
838.80 75.2018
838.90 74.06866
839.00 73.32169
839.10 72.97325
839.20 73.00481
839.30 73.41346
839.40 74.19698
839.50 75.3069
839.60 76.61277
839.70 77.98735
839.80 79.35521
839.90 80.66374
840.00 81.8313
840.10 82.74707
840.20 83.34105
840.30 83.61469
840.40 83.63843
840.50 83.53015
840.60 83.39928
840.70 83.3167
840.80 83.282
840.90 83.28248
841.00 83.40946
841.10 83.76818
841.20 84.36269
841.30 85.10293
841.40 85.86481
841.50 86.51383
841.60 86.88433
841.70 86.82846
841.80 86.27201
841.90 85.25566
842.00 83.93864
842.10 82.55556
842.20 81.37577
842.30 80.60755
842.40 80.31583
842.50 80.4549
842.60 80.91364
842.70 81.50624
842.80 81.96992
842.90 82.06347
843.00 81.62843
843.10 80.52915
843.20 78.69535
843.30 76.19818
843.40 73.25193
843.50 70.19926
843.60 67.41216
843.70 65.17913
843.80 63.63351
843.90 62.71298
844.00 62.19579
844.10 61.805
844.20 61.32145
844.30 60.60279
844.40 59.59538
844.50 58.40424
844.60 57.24768
844.70 56.33001
844.80 55.74233
844.90 55.41425
845.00 55.17606
845.10 54.84273
845.20 54.27304
845.30 53.41875
845.40 52.33718
845.50 51.17717
845.60 50.11763
845.70 49.31213
845.80 48.87296
845.90 48.83836
846.00 49.15277
846.10 49.68311
846.20 50.26749
846.30 50.76728
846.40 51.10145
846.50 51.24842
846.60 51.23003
846.70 51.10072
846.80 50.90451
846.90 50.66593
847.00 50.41801
847.10 50.19553
847.20 50.02475
847.30 49.92849
847.40 49.91427
847.50 49.97295
847.60 50.10048
847.70 50.28691
847.80 50.48578
847.90 50.63946
848.00 50.73192
848.10 50.78735
848.20 50.85163
848.30 50.98512
848.40 51.23352
848.50 51.61489
848.60 52.13283
848.70 52.78831
848.80 53.58076
848.90 54.46642
849.00 55.35321
849.10 56.15473
849.20 56.80969
849.30 57.26775
849.40 57.47
849.50 57.37965
849.60 57.03214
849.70 56.52534
849.80 55.99579
849.90 55.61718
850.00 55.52421
850.10 55.70139
850.20 55.99944
850.30 56.26477
850.40 56.39937
850.50 56.33798
850.60 56.05476
850.70 55.5841
850.80 55.02916
850.90 54.53328
851.00 54.21644
851.10 54.11522
851.20 54.17801
851.30 54.25912
851.40 54.17746
851.50 53.8291
851.60 53.19294
851.70 52.27702
851.80 51.12121
851.90 49.837
852.00 48.60844
852.10 47.66015
852.20 47.17872
852.30 47.24733
852.40 47.84995
852.50 48.90538
852.60 50.27749
852.70 51.78932
852.80 53.25789
852.90 54.5443
853.00 55.58397
853.10 56.38982
853.20 57.03251
853.30 57.59207
853.40 58.10747
853.50 58.55876
853.60 58.92378
853.70 59.22744
853.80 59.51151
853.90 59.79318
854.00 60.06648
854.10 60.33116
854.20 60.6243
854.30 60.99781
854.40 61.47814
854.50 62.05945
854.60 62.72723
854.70 63.45894
854.80 64.22092
854.90 64.97171
855.00 65.66256
855.10 66.239
855.20 66.65465
855.30 66.90288
855.40 67.01698
855.50 67.03229
855.60 66.93974
855.70 66.70507
855.80 66.32898
855.90 65.86584
856.00 65.38944
856.10 64.97687
856.20 64.70845
856.30 64.65777
856.40 64.86314
856.50 65.29107
856.60 65.85077
856.70 66.42378
856.80 66.88803
856.90 67.15425
857.00 67.20292
857.10 67.07665
857.20 66.84451
857.30 66.58168
857.40 66.36192
857.50 66.24709
857.60 66.27759
857.70 66.45435
857.80 66.72082
857.90 67.00466
858.00 67.25846
858.10 67.45972
858.20 67.61169
858.30 67.7492
858.40 67.93122
858.50 68.20572
858.60 68.58123
858.70 69.02284
858.80 69.45174
858.90 69.77879
859.00 69.94364
859.10 69.93499
859.20 69.81095
859.30 69.67099
859.40 69.61658
859.50 69.71863
859.60 69.98775
859.70 70.38615
859.80 70.84977
859.90 71.30459
860.00 71.68408
860.10 71.95694
860.20 72.13701
860.30 72.25691
860.40 72.34633
860.50 72.41777
860.60 72.44457
860.70 72.36719
860.80 72.10109
860.90 71.56926
861.00 70.76015
861.10 69.71539
861.20 68.48694
861.30 67.13987
861.40 65.76025
861.50 64.44058
861.60 63.27506
861.70 62.34502
861.80 61.6976
861.90 61.32243
862.00 61.1467
862.10 61.06574
862.20 60.9853
862.30 60.83026
862.40 60.53685
862.50 60.0567
862.60 59.37798
862.70 58.55403
862.80 57.69771
862.90 56.92843
863.00 56.3281
863.10 55.94923
863.20 55.81081
863.30 55.91144
863.40 56.24406
863.50 56.77231
863.60 57.42164
863.70 58.10926
863.80 58.76771
863.90 59.35921
864.00 59.87498
864.10 60.30412
864.20 60.62559
864.30 60.83608
864.40 60.95402
864.50 61.00239
864.60 61.01553
864.70 61.03703
864.80 61.11912
864.90 61.33485
865.00 61.75902
865.10 62.42791
865.20 63.32025
865.30 64.34998
865.40 65.39646
865.50 66.35261
865.60 67.14915
865.70 67.74511
865.80 68.12118
865.90 68.29006
866.00 68.29355
866.10 68.19086
866.20 68.0548
866.30 67.9533
866.40 67.91816
866.50 67.92961
866.60 67.91964
866.70 67.83979
866.80 67.6747
866.90 67.42459
867.00 67.12167
867.10 66.83894
867.20 66.67988
867.30 66.75194
867.40 67.13149
867.50 67.82083
867.60 68.72683
867.70 69.67468
867.80 70.46702
867.90 70.95599
868.00 71.08727
868.10 70.89012
868.20 70.47163
868.30 69.96619
868.40 69.48002
868.50 69.06979
868.60 68.73149
868.70 68.39381
868.80 67.93122
868.90 67.21884
869.00 66.16703
869.10 64.74876
869.20 63.01918
869.30 61.11331
869.40 59.22683
869.50 57.5571
869.60 56.2439
869.70 55.36807
869.80 54.95045
869.90 54.95474
870.00 55.29982
870.10 55.87922
870.20 56.58769
870.30 57.33098
870.40 58.03218
870.50 58.61948
870.60 59.02796
870.70 59.20425
870.80 59.10542
870.90 58.7157
871.00 58.05929
871.10 57.21694
871.20 56.31766
871.30 55.50037
871.40 54.88083
871.50 54.52352
871.60 54.43065
871.70 54.56114
871.80 54.86132
871.90 55.27867
872.00 55.75904
872.10 56.26933
872.20 56.80929
872.30 57.41246
872.40 58.15093
872.50 59.08316
872.60 60.20859
872.70 61.45485
872.80 62.69304
872.90 63.78184
873.00 64.60238
873.10 65.07384
873.20 65.16207
873.30 64.90526
873.40 64.41838
873.50 63.8584
873.60 63.38452
873.70 63.12375
873.80 63.14167
873.90 63.46579
874.00 64.10592
874.10 65.0441
874.20 66.22295
874.30 67.51681
874.40 68.73291
874.50 69.67681
874.60 70.21729
874.70 70.31288
874.80 70.03198
874.90 69.53331
875.00 69.03452
875.10 68.74889
875.20 68.8075
875.30 69.24991
875.40 70.05111
875.50 71.15576
875.60 72.51227
875.70 74.04964
875.80 75.66565
875.90 77.19236
876.00 78.39818
876.10 79.10026
876.20 79.22713
876.30 78.80417
876.40 77.91823
876.50 76.74091
876.60 75.56826
876.70 74.75185
876.80 74.56923
876.90 75.16761
877.00 76.53616
877.10 78.56411
877.20 81.09657
877.30 83.90818
877.40 86.69676
877.50 89.09351
877.60 90.70934
877.70 91.26566
877.80 90.69315
877.90 89.14557
878.00 86.95227
878.10 84.52327
878.20 82.29596
878.30 80.63803
878.40 79.74652
878.50 79.62333
878.60 80.11082
878.70 80.99689
878.80 82.10124
878.90 83.2782
879.00 84.38965
879.10 85.33549
879.20 86.12736
879.30 86.83065
879.40 87.48021
879.50 88.06283
879.60 88.47831
879.70 88.56048
879.80 88.14589
879.90 87.12419
880.00 85.4956
880.10 83.40085
880.20 81.07669
880.30 78.81023
880.40 76.91475
880.50 75.66898
880.60 75.23273
880.70 75.64765
880.80 76.85825
880.90 78.726
881.00 81.10001
881.10 83.85566
881.20 86.88254
881.30 90.05773
881.40 93.21405
881.50 96.14985
881.60 98.64663
881.70 100.503
881.80 101.5869
881.90 101.8336
882.00 101.2976
882.10 100.1693
882.20 98.67946
882.30 97.05745
882.40 95.5136
882.50 94.21668
882.60 93.30518
882.70 92.87408
882.80 92.9222
882.90 93.34144
883.00 94.01632
883.10 94.89862
883.20 95.97354
883.30 97.20475
883.40 98.50762
883.50 99.78802
883.60 101.0055
883.70 102.1746
883.80 103.2919
883.90 104.2862
884.00 105.003
884.10 105.2246
884.20 104.7638
884.30 103.5335
884.40 101.5658
884.50 99.00997
884.60 96.18533
884.70 93.59368
884.80 91.76629
884.90 91.11765
885.00 91.83581
885.10 93.79957
885.20 96.60105
885.30 99.61841
885.40 102.1518
885.50 103.6133
885.60 103.6368
885.70 102.1119
885.80 99.1969
885.90 95.29441
886.00 90.98542
886.10 86.92677
886.20 83.70622
886.30 81.66032
886.40 80.8144
886.50 80.93838
886.60 81.6201
886.70 82.33894
886.80 82.5629
886.90 81.88899
887.00 80.16778
887.10 77.56694
887.20 74.52198
887.30 71.63912
887.40 69.53078
887.50 68.61577
887.60 69.02926
887.70 70.62992
887.80 73.05922
887.90 75.84787
888.00 78.54377
888.10 80.77789
888.20 82.27873
888.30 82.98357
888.40 83.07976
888.50 82.88889
888.60 82.70661
888.70 82.72118
888.80 83.0028
888.90 83.5015
889.00 84.0732
889.10 84.50734
889.20 84.57724
889.30 84.09408
889.40 82.9757
889.50 81.35879
889.60 79.64038
889.70 78.29636
889.80 77.73087
889.90 78.21554
890.00 79.84541
890.10 82.48342
890.20 85.75415
890.30 89.15341
890.40 92.14725
890.50 94.28338
890.60 95.2902
890.70 95.12495
890.80 93.97503
890.90 92.21711
891.00 90.31478
891.10 88.70618
891.20 87.71017
891.30 87.51068
891.40 88.19448
891.50 89.74613
891.60 91.98931
891.70 94.62268
891.80 97.26346
891.90 99.50297
892.00 101.0095
892.10 101.5656
892.20 101.1141
892.30 99.76383
892.40 97.7752
892.50 95.51216
892.60 93.38064
892.70 91.78581
892.80 91.04521
892.90 91.32366
893.00 92.62023
893.10 94.72731
893.20 97.25936
893.30 99.70998
893.40 101.5488
893.50 102.3651
893.60 101.9381
893.70 100.2987
893.80 97.70697
893.90 94.53351
894.00 91.17556
894.10 88.01856
894.20 85.39288
894.30 83.50967
894.40 82.45985
894.50 82.21857
894.60 82.66584
894.70 83.63292
894.80 84.90892
894.90 86.28697
895.00 87.60601
895.10 88.77612
895.20 89.84667
895.30 91.0111
895.40 92.49168
895.50 94.39601
895.60 96.64107
895.70 99.00274
895.80 101.1681
895.90 102.7895
896.00 103.5909
896.10 103.4458
896.20 102.4106
896.30 100.7137
896.40 98.69729
896.50 96.71367
896.60 95.03082
896.70 93.82429
896.80 93.18742
896.90 93.14208
897.00 93.6603
897.10 94.65219
897.20 95.99891
897.30 97.596
897.40 99.32813
897.50 101.0625
897.60 102.6565
897.70 103.9601
897.80 104.8529
897.90 105.3069
898.00 105.4185
898.10 105.399
898.20 105.555
898.30 106.2025
898.40 107.5172
898.50 109.4315
898.60 111.627
898.70 113.6204
898.80 114.9504
898.90 115.3614
899.00 114.8312
899.10 113.5231
899.20 111.7231
899.30 109.743
899.40 107.8983
899.50 106.4842
899.60 105.6405
899.70 105.2922
899.80 105.3491
899.90 105.872
900.00 104.2398
900.10 103.1261
900.20 103.0649
900.30 104.0521
900.40 106.501
900.50 111.4245
900.60 114.9001
900.70 116.8452
900.80 118.331
900.90 120.1951
901.00 117.5937
901.10 114.9147
901.20 111.3135
901.30 109.6967
901.40 109.5431
901.50 110.1451
901.60 110.3199
901.70 113.3049
901.80 116.4102
901.90 117.9115
902.00 117.3207
902.10 115.7142
902.20 113.0268
902.30 109.8022
902.40 104.2547
902.50 98.98756
902.60 95.15026
902.70 90.83049
902.80 87.46827
902.90 86.79382
903.00 87.59364
903.10 89.9928
903.20 92.87327
903.30 97.11651
903.40 103.1826
903.50 109.8133
903.60 115.035
903.70 119.3743
903.80 123.7185
903.90 127.6416
904.00 127.8615
904.10 126.6015
904.20 123.9302
904.30 120.977
904.40 118.024
904.50 114.9741
904.60 112.4455
904.70 113.1848
904.80 113.6677
904.90 115.5155
905.00 117.0816
905.10 117.3873
905.20 116.2815
905.30 115.094
905.40 110.8785
905.50 107.7821
905.60 106.1154
905.70 105.5683
905.80 105.9976
905.90 106.449
906.00 106.0436
906.10 105.5357
906.20 104.4114
906.30 101.6039
906.40 100.1278
906.50 100.0911
906.60 101.4523
906.70 102.8942
906.80 104.1022
906.90 105.3472
907.00 106.1643
907.10 104.4566
907.20 102.2881
907.30 102.0523
907.40 103.4952
907.50 106.4686
907.60 109.4848
907.70 113.2424
907.80 116.9725
907.90 120.8434
908.00 122.8299
908.10 123.3992
908.20 122.7781
908.30 122.2554
908.40 120.8568
908.50 119.3569
908.60 117.3103
908.70 114.9999
908.80 113.2881
908.90 113.2417
909.00 114.1031
909.10 115.4264
909.20 116.7545
909.30 118.1063
909.40 119.4117
909.50 120.9039
909.60 121.8652
909.70 122.4274
909.80 124.1175
909.90 126.1679
910.00 126.0698
910.10 125.8351
910.20 125.6417
910.30 125.4369
910.40 125.0639
910.50 124.0402
910.60 122.6136
910.70 121.9522
910.80 123.4824
910.90 123.5222
911.00 122.5192
911.10 122.3714
911.20 123.7457
911.30 124.2868
911.40 126.4846
911.50 126.9549
911.60 126.9097
911.70 129.6149
911.80 132.6853
911.90 134.1554
912.00 134.8695
912.10 136.3578
912.20 138.5372
912.30 141.4814
912.40 143.5939
912.50 143.8735
912.60 142.3648
912.70 140.8676
912.80 138.1248
912.90 133.9909
913.00 131.361
913.10 130.1438
913.20 130.7094
913.30 133.2316
913.40 136.0132
913.50 138.3811
913.60 140.2105
913.70 141.4236
913.80 141.3145
913.90 138.0657
914.00 133.1204
914.10 128.2125
914.20 122.7409
914.30 117.1942
914.40 116.3438
914.50 117.5712
914.60 121.3572
914.70 125.67
914.80 128.3884
914.90 129.0322
915.00 130.0899
915.10 130.1289
915.20 129.4874
915.30 129.9665
915.40 132.1421
915.50 135.5803
915.60 140.6239
915.70 146.1132
915.80 151.8714
915.90 155.5764
916.00 156.5774
916.10 154.5373
916.20 150.6761
916.30 145.6368
916.40 140.9413
916.50 137.6414
916.60 137.5414
916.70 139.9545
916.80 143.2741
916.90 147.2668
917.00 150.0885
917.10 151.598
917.20 151.8671
917.30 151.3078
917.40 149.3637
917.50 147.1449
917.60 143.2086
917.70 139.7662
917.80 137.9518
917.90 138.1797
918.00 138.4435
918.10 139.4238
918.20 140.2844
918.30 141.8409
918.40 142.7735
918.50 142.7728
918.60 142.5397
918.70 143.3049
918.80 145.2306
918.90 147.7497
919.00 153.5891
919.10 160.2082
919.20 166.0329
919.30 169.4114
919.40 170.5121
919.50 167.2797
919.60 163.8113
919.70 157.5785
919.80 153.2935
919.90 152.1667
920.00 154.0137
920.10 156.6107
920.20 160.157
920.30 162.7639
920.40 165.0566
920.50 165.5797
920.60 163.4269
920.70 159.6636
920.80 155.153
920.90 148.6008
921.00 141.6421
921.10 136.8353
921.20 133.8526
921.30 132.562
921.40 133.2421
921.50 135.3096
921.60 138.9231
921.70 142.4896
921.80 145.551
921.90 148.198
922.00 150.104
922.10 150.6281
922.20 149.7166
922.30 147.4605
922.40 145.4485
922.50 144.4583
922.60 143.0101
922.70 142.5013
922.80 142.1953
922.90 141.3116
923.00 139.2836
923.10 136.4367
923.20 132.9499
923.30 131.3775
923.40 130.4832
923.50 130.1324
923.60 130.9284
923.70 132.3394
923.80 133.464
923.90 134.1451
924.00 134.8899
924.10 137.3783
924.20 140.7754
924.30 145.7102
924.40 149.704
924.50 152.6986
924.60 154.2409
924.70 154.1431
924.80 148.8981
924.90 144.6744
925.00 139.2276
925.10 134.3999
925.20 130.5681
925.30 128.6008
925.40 128.1901
925.50 131.1351
925.60 134.0985
925.70 138.2633
925.80 142.2213
925.90 146.4306
926.00 149.0229
926.10 149.0801
926.20 146.1688
926.30 145.0558
926.40 143.4738
926.50 143.7115
926.60 144.2612
926.70 144.5388
926.80 145.5156
926.90 147.9895
927.00 148.1291
927.10 146.776
927.20 145.9396
927.30 144.2991
927.40 142.8559
927.50 140.9763
927.60 137.6323
927.70 134.0881
927.80 131.3513
927.90 128.5502
928.00 126.4736
928.10 125.7389
928.20 126.161
928.30 128.3992
928.40 131.4913
928.50 134.4674
928.60 136.2017
928.70 136.847
928.80 135.4301
928.90 132.8153
929.00 130.3129
929.10 129.0165
929.20 129.4737
929.30 130.8738
929.40 134.3543
929.50 136.9871
929.60 138.4991
929.70 139.2305
929.80 139.3055
929.90 138.025
930.00 137.5494
930.10 137.5962
930.20 135.9444
930.30 134.1981
930.40 132.2936
930.50 130.4342
930.60 128.7815
930.70 127.774
930.80 127.3496
930.90 127.5415
931.00 129.4607
931.10 132.6135
931.20 135.871
931.30 138.362
931.40 141.7316
931.50 144.5009
931.60 144.5956
931.70 144.7324
931.80 143.8783
931.90 143.723
932.00 143.6709
932.10 144.4634
932.20 144.4289
932.30 144.5488
932.40 144.0286
932.50 142.2854
932.60 141.0072
932.70 141.471
932.80 142.3494
932.90 142.2588
933.00 143.1321
933.10 143.9291
933.20 143.4357
933.30 142.1032
933.40 140.4066
933.50 138.1926
933.60 136.0442
933.70 134.9628
933.80 135.0735
933.90 135.2605
934.00 136.6389
934.10 138.8686
934.20 141.089
934.30 142.7493
934.40 143.765
934.50 144.8197
934.60 146.0395
934.70 147.3036
934.80 147.9188
934.90 148.3074
935.00 148.5031
935.10 145.8684
935.20 142.6111
935.30 139.3627
935.40 135.5703
935.50 131.3719
935.60 128.8186
935.70 128.7769
935.80 128.9661
935.90 132.5192
936.00 138.0809
936.10 143.5744
936.20 148.3479
936.30 152.5293
936.40 156.0955
936.50 157.618
936.60 158.5672
936.70 156.4975
936.80 152.8822
936.90 149.2702
937.00 146.0708
937.10 143.7719
937.20 141.7405
937.30 140.7009
937.40 140.0324
937.50 140.3113
937.60 140.8637
937.70 141.3576
937.80 141.1313
937.90 140.0344
938.00 139.0914
938.10 139.1858
938.20 139.8284
938.30 140.3285
938.40 140.6564
938.50 140.9763
938.60 141.7669
938.70 141.8068
938.80 141.8307
938.90 142.2904
939.00 143.8358
939.10 145.7518
939.20 148.4002
939.30 151.0314
939.40 153.2869
939.50 154.9682
939.60 156.5812
939.70 155.87
939.80 153.1
939.90 149.9944
940.00 145.8445
940.10 142.4522
940.20 139.7245
940.30 138.9628
940.40 138.7735
940.50 141.2059
940.60 145.0104
940.70 148.8428
940.80 152.199
940.90 153.6122
941.00 154.7564
941.10 155.5525
941.20 156.5468
941.30 156.057
941.40 154.939
941.50 153.8962
941.60 153.2374
941.70 152.5713
941.80 151.7717
941.90 149.8974
942.00 147.262
942.10 145.3506
942.20 145.3472
942.30 145.8814
942.40 147.0252
942.50 147.9148
942.60 148.804
942.70 150.6836
942.80 153.9791
942.90 157.1243
943.00 159.8297
943.10 162.4239
943.20 164.6156
943.30 166.5118
943.40 168.3984
943.50 170.2965
943.60 169.3375
943.70 168.0232
943.80 165.445
943.90 163.4712
944.00 161.1813
944.10 158.6515
944.20 156.1893
944.30 154.0874
944.40 152.3357
944.50 150.6395
944.60 149.819
944.70 148.6523
944.80 147.9972
944.90 149.066
945.00 150.7467
945.10 152.2949
945.20 154.395
945.30 156.6542
945.40 158.4269
945.50 159.1833
945.60 159.4297
945.70 157.0412
945.80 154.123
945.90 151.8936
946.00 149.9683
946.10 147.7886
946.20 146.9233
946.30 147.4037
946.40 148.0321
946.50 151.0805
946.60 155.1611
946.70 158.6569
946.80 160.936
946.90 163.1872
947.00 164.5337
947.10 164.7405
947.20 164.7981
947.30 165.0077
947.40 165.4868
947.50 166.1027
947.60 167.0302
947.70 167.4958
947.80 168.4311
947.90 169.6662
948.00 170.7888
948.10 171.098
948.20 171.6672
948.30 172.2519
948.40 172.8942
948.50 174.9255
948.60 176.6728
948.70 177.8442
948.80 178.9917
948.90 181.3165
949.00 183.1433
949.10 184.6652
949.20 184.7177
949.30 182.7658
949.40 180.703
949.50 178.7033
949.60 177.5679
949.70 176.6143
949.80 176.2552
949.90 176.1143
950.00 176.6581
950.10 177.7357
950.20 178.7968
950.30 179.0365
950.40 178.4931
950.50 177.7837
950.60 177.5788
950.70 178.1551
950.80 180.4436
950.90 182.5537
951.00 184.3785
951.10 185.2362
951.20 186.5899
951.30 187.5665
951.40 186.4684
951.50 184.2522
951.60 181.1777
951.70 177.4729
951.80 173.8858
951.90 171.0678
952.00 169.2575
952.10 167.6923
952.20 169.1827
952.30 173.0942
952.40 177.6643
952.50 183.2508
952.60 188.6949
952.70 193.7211
952.80 195.2914
952.90 196.1038
953.00 194.8557
953.10 192.6664
953.20 190.0839
953.30 186.7502
953.40 184.3385
953.50 182.4009
953.60 182.4408
953.70 183.2389
953.80 183.7418
953.90 182.4738
954.00 181.2186
954.10 180.8591
954.20 180.6654
954.30 180.47
954.40 180.8354
954.50 181.7005
954.60 182.8362
954.70 185.1616
954.80 187.7189
954.90 189.2446
955.00 189.0963
955.10 188.8616
955.20 187.7862
955.30 185.8387
955.40 185.2389
955.50 185.8319
955.60 186.446
955.70 187.2546
955.80 188.5638
955.90 189.8265
956.00 190.6914
956.10 191.8196
956.20 192.2913
956.30 192.1274
956.40 192.2491
956.50 192.1474
956.60 191.7807
956.70 191.3825
956.80 191.3375
956.90 191.1999
957.00 191.2351
957.10 191.6682
957.20 192.0018
957.30 192.1931
957.40 192.2174
957.50 192.2179
957.60 190.9207
957.70 188.7835
957.80 186.6541
957.90 184.6741
958.00 182.8563
958.10 181.5924
958.20 181.1447
958.30 180.7589
958.40 181.158
958.50 181.157
958.60 181.0213
958.70 179.9076
958.80 179.0432
958.90 177.2679
959.00 173.148
959.10 168.7378
959.20 164.9948
959.30 162.7625
959.40 160.9373
959.50 161.1878
959.60 161.7504
959.70 162.1261
959.80 161.7295
959.90 161.6593
960.00 160.7342
960.10 158.9503
960.20 157.2672
960.30 157.3579
960.40 157.7294
960.50 158.212
960.60 162.2773
960.70 165.809
960.80 169.0317
960.90 171.0967
961.00 172.5136
961.10 172.1139
961.20 171.2099
961.30 170.5199
961.40 168.339
961.50 167.5631
961.60 167.146
961.70 168.2871
961.80 169.691
961.90 172.16
962.00 175.136
962.10 177.7277
962.20 180.4205
962.30 182.0763
962.40 183.4301
962.50 182.3271
962.60 181.1458
962.70 179.9468
962.80 179.0003
962.90 178.3612
963.00 177.5694
963.10 177.4435
963.20 177.5411
963.30 177.378
963.40 175.7165
963.50 173.4217
963.60 168.7038
963.70 163.4233
963.80 157.8301
963.90 152.3767
964.00 147.1644
964.10 143.4347
964.20 141.9268
964.30 141.0032
964.40 143.8742
964.50 146.0575
964.60 148.9815
964.70 153.4114
964.80 158.2207
964.90 161.5076
965.00 163.2968
965.10 164.8825
965.20 164.6082
965.30 164.3142
965.40 163.848
965.50 163.0527
965.60 162.4804
965.70 162.3814
965.80 163.7993
965.90 165.7812
966.00 169.1769
966.10 171.1182
966.20 173.1712
966.30 176.3312
966.40 179.4436
966.50 182.0539
966.60 183.9415
966.70 185.7804
966.80 185.8415
966.90 185.7126
967.00 185.696
967.10 186.2185
967.20 184.772
967.30 183.1346
967.40 181.3652
967.50 180.0001
967.60 178.1759
967.70 177.2006
967.80 176.6971
967.90 176.1361
968.00 175.8469
968.10 175.984
968.20 177.7454
968.30 179.0336
968.40 179.933
968.50 179.7708
968.60 179.145
968.70 178.2739
968.80 177.8817
968.90 177.5895
969.00 177.6799
969.10 178.3424
969.20 179.4564
969.30 181.618
969.40 184.0356
969.50 186.7656
969.60 189.2268
969.70 191.5343
969.80 193.1523
969.90 194.3496
970.00 195.1702
970.10 194.5431
970.20 193.5369
970.30 192.0759
970.40 189.9824
970.50 187.7585
970.60 184.7706
970.70 182.6653
970.80 180.8387
970.90 180.7327
971.00 181.8887
971.10 184.2763
971.20 188.4296
971.30 192.4979
971.40 197.6577
971.50 201.8323
971.60 205.6148
971.70 207.3168
971.80 207.9258
971.90 207.9422
972.00 206.8477
972.10 206.4566
972.20 204.951
972.30 203.0697
972.40 201.4278
972.50 199.8926
972.60 197.3941
972.70 194.9452
972.80 192.9385
972.90 190.6656
973.00 188.3393
973.10 186.4373
973.20 184.9523
973.30 184.8823
973.40 185.4093
973.50 185.9813
973.60 187.1128
973.70 188.054
973.80 188.9319
973.90 189.812
974.00 190.8725
974.10 190.1255
974.20 187.978
974.30 185.7111
974.40 184.028
974.50 182.4514
974.60 180.9672
974.70 179.9107
974.80 179.0517
974.90 179.2695
975.00 181.0044
975.10 183.0452
975.20 185.6896
975.30 188.0081
975.40 190.1843
975.50 191.5851
975.60 193.0188
975.70 194.5674
975.80 196.1688
975.90 197.6119
976.00 197.7529
976.10 197.5716
976.20 197.4819
976.30 198.4555
976.40 199.1541
976.50 199.8731
976.60 200.5962
976.70 201.2147
976.80 201.6143
976.90 201.5183
977.00 201.2403
977.10 198.6706
977.20 196.2847
977.30 194.1968
977.40 193.7047
977.50 193.772
977.60 194.7351
977.70 196.3388
977.80 197.4815
977.90 198.5718
978.00 199.0933
978.10 199.4056
978.20 197.1187
978.30 194.7748
978.40 192.2347
978.50 189.6351
978.60 187.5711
978.70 186.0386
978.80 185.0894
978.90 184.2559
979.00 185.0351
979.10 187.323
979.20 190.0924
979.30 194.3658
979.40 198.1158
979.50 201.9369
979.60 205.2046
979.70 208.0012
979.80 210.1167
979.90 211.815
980.00 213.3179
980.10 213.2308
980.20 213.1217
980.30 213.0451
980.40 213.1203
980.50 213.3164
980.60 212.2726
980.70 210.4594
980.80 208.5841
980.90 207.5732
981.00 206.8271
981.10 206.203
981.20 205.7115
981.30 204.8196
981.40 204.1122
981.50 204.5577
981.60 205.5952
981.70 205.686
981.80 205.2687
981.90 204.862
982.00 204.6252
982.10 204.1577
982.20 203.581
982.30 202.8418
982.40 202.075
982.50 202.1999
982.60 202.8753
982.70 203.664
982.80 205.6313
982.90 206.5491
983.00 207.1855
983.10 207.248
983.20 207.3056
983.30 206.0869
983.40 204.6021
983.50 203.3345
983.60 201.676
983.70 200.4695
983.80 199.6583
983.90 200.3142
984.00 201.2292
984.10 202.6522
984.20 204.2626
984.30 205.6608
984.40 206.1365
984.50 205.1928
984.60 204.1511
984.70 203.6624
984.80 202.6102
984.90 201.1369
985.00 199.9067
985.10 199.7031
985.20 199.1254
985.30 199.259
985.40 199.6832
985.50 200.3484
985.60 200.5896
985.70 201.4423
985.80 203.454
985.90 204.8093
986.00 206.0822
986.10 207.6726
986.20 209.4738
986.30 210.868
986.40 211.9452
986.50 212.9257
986.60 213.3627
986.70 213.1549
986.80 211.6211
986.90 209.2624
987.00 207.5226
987.10 207.4459
987.20 208.8329
987.30 210.612
987.40 214.5612
987.50 216.7283
987.60 218.8578
987.70 220.2219
987.80 220.5808
987.90 217.5325
988.00 213.9884
988.10 210.9587
988.20 208.9991
988.30 209.2102
988.40 210.2359
988.50 213.3236
988.60 215.5213
988.70 218.2447
988.80 220.5436
988.90 222.2487
989.00 221.8914
989.10 219.9239
989.20 217.3784
989.30 211.8822
989.40 204.9032
989.50 196.0031
989.60 184.6317
989.70 173.2319
989.80 160.9243
989.90 149.7757
990.00 139.1457
990.10 131.7049
990.20 125.0178
990.30 118.9431
990.40 113.8865
990.50 108.4466
990.60 102.67
990.70 97.5018
990.80 92.75327
990.90 89.20288
991.00 86.94728
991.10 85.29703
991.20 85.32155
991.30 84.5047
991.40 83.55682
991.50 82.66447
991.60 81.92056
991.70 81.47986
991.80 81.46455
991.90 81.67205
992.00 83.17709
992.10 84.68596
992.20 86.291
992.30 87.69393
992.40 88.6635
992.50 88.31438
992.60 88.76955
992.70 89.70587
992.80 91.3545
992.90 93.30179
993.00 95.84098
993.10 99.3924
993.20 102.1949
993.30 104.8141
993.40 107.0746
993.50 109.1964
993.60 111.0167
993.70 113.8123
993.80 116.9083
993.90 121.0266
994.00 125.3802
994.10 129.4431
994.20 132.7128
994.30 135.5295
994.40 136.348
994.50 136.2584
994.60 136.1395
994.70 136.6667
994.80 137.4566
994.90 138.7466
995.00 141.1248
995.10 143.8953
995.20 147.3762
995.30 150.2764
995.40 152.8027
995.50 152.0362
995.60 149.9063
995.70 147.3727
995.80 143.9179
995.90 140.8601
996.00 137.4978
996.10 135.5799
996.20 134.778
996.30 139.0845
996.40 144.2092
996.50 149.6232
996.60 155.7319
996.70 158.9095
996.80 159.5777
996.90 156.676
997.00 153.0039
997.10 144.0332
997.20 135.0388
997.30 126.5928
997.40 120.1111
997.50 116.0966
997.60 114.2812
997.70 116.2156
997.80 117.8902
997.90 121.5337
998.00 125.5978
998.10 129.3826
998.20 131.5351
998.30 132.2168
998.40 132.1959
998.50 130.4334
998.60 129.1262
998.70 127.909
998.80 126.9675
998.90 126.1721
999.00 125.4638
999.10 125.2365
999.20 125.1608
999.30 125.3707
999.40 124.7107
999.50 123.4922
999.60 122.5679
999.70 122.745
999.80 124.3725
999.90 127.2007
1000.00 130.3365
1000.10 135.2254
1000.20 139.8291
1000.30 145.3426
1000.40 151.5271
1000.50 155.9008
1000.60 158.1093
1000.70 158.6479
1000.80 158.9268
1000.90 154.008
1001.00 149.2184
1001.10 144.4101
1001.20 140.0174
1001.30 137.1258
1001.40 136.683
1001.50 138.543
1001.60 140.5736
1001.70 145.0708
1001.80 149.3294
1001.90 153.1226
1002.00 154.7142
1002.10 156.0164
1002.20 157.029
1002.30 157.9439
1002.40 159.1898
1002.50 161.4051
1002.60 163.7693
1002.70 166.0323
1002.80 167.3225
1002.90 167.1978
1003.00 166.4017
1003.10 164.3706
1003.20 162.4664
1003.30 159.5668
1003.40 156.1817
1003.50 152.8368
1003.60 149.6595
1003.70 147.7251
1003.80 146.0472
1003.90 145.1386
1004.00 144.7193
1004.10 147.0101
1004.20 152.1524
1004.30 157.7572
1004.40 164.8619
1004.50 170.2285
1004.60 174.7183
1004.70 175.8665
1004.80 175.0211
1004.90 171.3835
1005.00 163.6949
1005.10 155.3735
1005.20 144.8266
1005.30 135.3108
1005.40 126.5163
1005.50 120.0341
1005.60 114.9276
1005.70 111.7566
1005.80 112.7053
1005.90 114.0231
1006.00 117.2866
1006.10 121.5315
1006.20 125.6855
1006.30 128.176
1006.40 131.8505
1006.50 135.6951
1006.60 139.7878
1006.70 143.7487
1006.80 148.6896
1006.90 153.7161
1007.00 158.0755
1007.10 160.699
1007.20 162.3465
1007.30 163.5206
1007.40 162.4988
1007.50 162.5885
1007.60 163.2921
1007.70 165.3366
1007.80 168.0519
1007.90 172.0031
1008.00 175.3798
1008.10 178.3666
1008.20 180.6368
1008.30 181.5494
1008.40 182.6295
1008.50 183.8309
1008.60 184.6372
1008.70 184.1231
1008.80 182.9291
1008.90 181.7704
1009.00 177.1928
1009.10 173.0888
1009.20 168.9433
1009.30 164.8524
1009.40 161.9344
1009.50 161.5029
1009.60 164.3301
1009.70 168.1689
1009.80 176.0612
1009.90 183.7886
1010.00 191.629
1010.10 201.1456
1010.20 209.3412
1010.30 215.8497
1010.40 219.0998
1010.50 220.8766
1010.60 217.6536
1010.70 212.5692
1010.80 207.3292
1010.90 199.2757
1011.00 190.9286
1011.10 182.9137
1011.20 175.8258
1011.30 169.2857
1011.40 163.6846
1011.50 159.2493
1011.60 155.1726
1011.70 151.9441
1011.80 150.9623
1011.90 151.0576
1012.00 154.4807
1012.10 159.0443
1012.20 166.0969
1012.30 174.3779
1012.40 181.9706
1012.50 189.6291
1012.60 195.8801
1012.70 201.2983
1012.80 203.4543
1012.90 205.1552
1013.00 205.7456
1013.10 204.1705
1013.20 201.5668
1013.30 196.7972
1013.40 190.5525
1013.50 183.8615
1013.60 173.813
1013.70 166.0426
1013.80 158.7569
1013.90 153.5737
1014.00 150.7251
1014.10 152.3864
1014.20 155.633
1014.30 158.4056
1014.40 164.0186
1014.50 167.7471
1014.60 170.3929
1014.70 170.6918
1014.80 172.1649
1014.90 173.4957
1015.00 175.3646
1015.10 177.7869
1015.20 181.9082
1015.30 184.1896
1015.40 185.8326
1015.50 185.8277
1015.60 184.3661
1015.70 180.5809
1015.80 174.7065
1015.90 169.6124
1016.00 165.3075
1016.10 163.0466
1016.20 161.6446
1016.30 163.6244
1016.40 165.159
1016.50 167.6056
1016.60 171.2899
1016.70 174.3888
1016.80 176.484
1016.90 177.7719
1017.00 178.8913
1017.10 177.1049
1017.20 177.8605
1017.30 179.5483
1017.40 182.9922
1017.50 185.6269
1017.60 190.2622
1017.70 194.6294
1017.80 197.6476
1017.90 196.8109
1018.00 194.4328
1018.10 190.7292
1018.20 182.0457
1018.30 174.9632
1018.40 167.9935
1018.50 162.0467
1018.60 157.1575
1018.70 156.5937
1018.80 157.4134
1018.90 158.6471
1019.00 163.2667
1019.10 167.1526
1019.20 171.0035
1019.30 174.5134
1019.40 177.5355
1019.50 178.1806
1019.60 178.0756
1019.70 178.1272
1019.80 176.8343
1019.90 176.0896
1020.00 176.0385
1020.10 177.6345
1020.20 179.4155
1020.30 181.5479
1020.40 183.9679
1020.50 186.4281
1020.60 189.7935
1020.70 191.6381
1020.80 193.0009
1020.90 193.2143
1021.00 192.658
1021.10 190.6654
1021.20 187.15
1021.30 183.4799
1021.40 176.9652
1021.50 170.2481
1021.60 163.7969
1021.70 158.4885
1021.80 153.7889
1021.90 149.5741
1022.00 146.8114
1022.10 145.273
1022.20 146.4203
1022.30 148.9902
1022.40 151.7814
1022.50 157.0937
1022.60 161.7153
1022.70 166.3916
1022.80 170.7405
1022.90 173.9673
1023.00 174.4659
1023.10 173.3331
1023.20 172.1808
1023.30 170.0014
1023.40 169.3198
1023.50 169.6001
1023.60 172.6636
1023.70 176.3231
1023.80 180.5582
1023.90 185.1
1024.00 189.4581
1024.10 194.1807
1024.20 197.19
1024.30 199.4647
1024.40 199.7357
1024.50 199.5142
1024.60 198.3619
1024.70 195.7703
1024.80 192.7443
1024.90 188.1331
1025.00 183.7346
1025.10 179.6252
1025.20 175.2718
1025.30 171.7403
1025.40 169.0438
1025.50 167.9194
1025.60 166.981
1025.70 166.4595
1025.80 164.8762
1025.90 162.5105
1026.00 158.1327
1026.10 153.6198
1026.20 148.4722
1026.30 142.4209
1026.40 139.0542
1026.50 138.8576
1026.60 141.7384
1026.70 145.2274
1026.80 154.182
1026.90 162.5036
1027.00 170.2769
1027.10 176.4591
1027.20 180.4811
1027.30 181.7001
1027.40 180.1506
1027.50 178.9422
1027.60 175.3085
1027.70 170.6965
1027.80 166.0275
1027.90 161.9459
1028.00 157.4681
1028.10 153.1933
1028.20 149.751
1028.30 147.2647
1028.40 145.7845
1028.50 146.3496
1028.60 147.7837
1028.70 153.6247
1028.80 159.0626
1028.90 164.9888
1029.00 171.5045
1029.10 176.3429
1029.20 178.8267
1029.30 179.6589
1029.40 180.3764
1029.50 178.043
1029.60 175.6389
1029.70 173.4706
1029.80 172.0374
1029.90 170.7116
1030.00 169.6427
1030.10 169.1162
1030.20 168.9338
1030.30 169.5983
1030.40 170.9266
1030.50 172.7103
1030.60 176.5656
1030.70 179.5714
1030.80 182.2369
1030.90 184.3158
1031.00 186.1823
1031.10 186.3565
1031.20 185.7289
1031.30 185.0149
1031.40 184.4602
1031.50 183.8469
1031.60 182.885
1031.70 181.3066
1031.80 179.7973
1031.90 177.574
1032.00 174.9044
1032.10 172.1935
1032.20 169.5096
1032.30 167.3049
1032.40 165.7624
1032.50 166.4067
1032.60 168.756
1032.70 171.9801
1032.80 176.4958
1032.90 181.5918
1033.00 190.9823
1033.10 198.9372
1033.20 206.0908
1033.30 211.1281
1033.40 213.009
1033.50 211.1364
1033.60 205.2289
1033.70 199.3647
1033.80 189.4744
1033.90 180.251
1034.00 172.19
1034.10 169.1963
1034.20 168.0155
1034.30 168.9018
1034.40 172.7598
1034.50 176.1102
1034.60 180.3045
1034.70 183.7719
1034.80 186.627
1034.90 185.6719
1035.00 184.4977
1035.10 182.725
1035.20 179.9566
1035.30 178.121
1035.40 176.8443
1035.50 176.6946
1035.60 177.1498
1035.70 179.9248
1035.80 182.9368
1035.90 186.3819
1036.00 191.2343
1036.10 195.5178
1036.20 200.0417
1036.30 204.538
1036.40 208.7628
1036.50 211.881
1036.60 214.7093
1036.70 217.1057
1036.80 217.0755
1036.90 218.3236
1037.00 220.5432
1037.10 223.721
1037.20 226.4447
1037.30 230.7375
1037.40 233.5344
1037.50 235.2084
1037.60 232.7824
1037.70 228.082
1037.80 220.453
1037.90 208.4344
1038.00 198.2256
1038.10 188.2783
1038.20 180.3558
1038.30 173.6971
1038.40 174.7348
1038.50 175.692
1038.60 177.9531
1038.70 183.2631
1038.80 187.125
1038.90 189.1939
1039.00 190.026
1039.10 190.915
1039.20 189.057
1039.30 187.9269
1039.40 187.1001
1039.50 186.6297
1039.60 186.5735
1039.70 187.6997
1039.80 189.8296
1039.90 191.7227
1040.00 194.2726
1040.10 196.99
1040.20 199.7826
1040.30 203.1763
1040.40 206.6251
1040.50 209.8383
1040.60 212.649
1040.70 215.317
1040.80 216.9728
1040.90 216.7515
1041.00 215.6316
1041.10 211.2888
1041.20 206.7451
1041.30 201.9176
1041.40 197.1638
1041.50 194.2105
1041.60 193.901
1041.70 196.0261
1041.80 198.866
1041.90 206.215
1042.00 211.4709
1042.10 215.4116
1042.20 216.0703
1042.30 214.8902
1042.40 210.6811
1042.50 204.1954
1042.60 197.8217
1042.70 187.9359
1042.80 180.5772
1042.90 174.8815
1043.00 173.4478
1043.10 173.4931
1043.20 177.2755
1043.30 185.026
1043.40 192.6556
1043.50 203.6435
1043.60 213.8342
1043.70 222.7986
1043.80 226.5636
1043.90 229.9765
1044.00 231.7217
1044.10 230.7329
1044.20 229.4773
1044.30 228.4137
1044.40 227.4624
1044.50 226.5257
1044.60 225.2224
1044.70 224.6296
1044.80 224.1565
1044.90 224.3023
1045.00 225.9412
1045.10 230.6366
1045.20 237.0367
1045.30 243.2934
1045.40 252.2555
1045.50 258.5828
1045.60 263.3808
1045.70 264.4555
1045.80 263.9413
1045.90 259.0348
1046.00 250.8787
1046.10 243.3004
1046.20 234.0725
1046.30 224.87
1046.40 216.1062
1046.50 209.2403
1046.60 202.0782
1046.70 195.8305
1046.80 191.158
1046.90 187.3037
1047.00 183.6635
1047.10 181.2661
1047.20 179.5948
1047.30 180.2017
1047.40 180.2713
1047.50 181.1773
1047.60 183.2366
1047.70 184.7825
1047.80 186.2702
1047.90 188.2902
1048.00 190.6825
1048.10 192.308
1048.20 195.095
1048.30 198.639
1048.40 203.5431
1048.50 207.9329
1048.60 212.1691
1048.70 215.747
1048.80 218.8078
1048.90 220.4637
1049.00 221.6886
1049.10 222.7258
1049.20 223.1395
1049.30 222.419
1049.40 221.6148
1049.50 220.6081
1049.60 219.4382
1049.70 215.9343
1049.80 213.6431
1049.90 211.9434
1050.00 210.5478
1050.10 210.3582
1050.20 211.4943
1050.30 213.6545
1050.40 214.7552
1050.50 215.2894
1050.60 214.5982
1050.70 213.3296
1050.80 211.0913
1050.90 208.4414
1051.00 205.5012
1051.10 202.1018
1051.20 198.737
1051.30 194.4143
1051.40 190.2579
1051.50 186.5303
1051.60 182.7863
1051.70 179.7109
1051.80 177.3229
1051.90 176.6203
1052.00 176.7367
1052.10 177.9734
1052.20 180.2597
1052.30 182.837
1052.40 186.4206
1052.50 190.4316
1052.60 195.3555
1052.70 203.0711
1052.80 209.5259
1052.90 214.7479
1053.00 218.4984
1053.10 221.8067
1053.20 221.8165
1053.30 221.1987
1053.40 220.4728
1053.50 218.9617
1053.60 217.1647
1053.70 215.7897
1053.80 215.0401
1053.90 214.4947
1054.00 213.8586
1054.10 213.0153
1054.20 212.1307
1054.30 212.0277
1054.40 210.8669
1054.50 209.2757
1054.60 207.0425
1054.70 204.8518
1054.80 201.0588
1054.90 197.8568
1055.00 195.629
1055.10 195.9537
1055.20 196.5109
1055.30 198.0303
1055.40 201.3431
1055.50 202.5166
1055.60 201.6826
1055.70 199.0763
1055.80 196.0359
1055.90 189.4609
1056.00 183.9597
1056.10 179.1536
1056.20 175.6892
1056.30 173.3496
1056.40 172.4555
1056.50 172.9954
1056.60 173.6729
1056.70 175.8324
1056.80 177.8102
1056.90 179.5639
1057.00 181.0387
1057.10 182.3895
1057.20 184.043
1057.30 186.2918
1057.40 188.9783
1057.50 191.5632
1057.60 193.9755
1057.70 196.2895
1057.80 198.303
1057.90 200.0324
1058.00 201.5465
1058.10 202.4888
1058.20 202.7894
1058.30 202.7449
1058.40 202.6916
1058.50 202.7542
1058.60 200.125
1058.70 197.3301
1058.80 194.3468
1058.90 191.1042
1059.00 188.4424
1059.10 186.3412
1059.20 184.5376
1059.30 182.6732
1059.40 184.0725
1059.50 185.8785
1059.60 187.7346
1059.70 189.6258
1059.80 190.9685
1059.90 191.5893
1060.00 191.4673
1060.10 191.2037
1060.20 189.5774
1060.30 187.6519
1060.40 185.7397
1060.50 183.9918
1060.60 182.417
1060.70 180.8764
1060.80 179.6439
1060.90 178.931
1061.00 177.8603
1061.10 177.1453
1061.20 176.9485
1061.30 180.3263
1061.40 183.0068
1061.50 185.9863
1061.60 189.4441
1061.70 192.7467
1061.80 194.0615
1061.90 194.5132
1062.00 194.9874
1062.10 192.2506
1062.20 190.4091
1062.30 189.2911
1062.40 189.5596
1062.50 190.0309
1062.60 193.5865
1062.70 198.7947
1062.80 203.7653
1062.90 210.2517
1063.00 215.6836
1063.10 219.6643
1063.20 219.9816
1063.30 220.8179
1063.40 219.9333
1063.50 218.0205
1063.60 216.7123
1063.70 216.5636
1063.80 216.5029
1063.90 217.0909
1064.00 221.2653
1064.10 224.3405
1064.20 226.5207
1064.30 227.61
1064.40 228.5476
1064.50 228.4775
1064.60 228.4479
1064.70 228.498
1064.80 227.6644
1064.90 226.5016
1065.00 225.9512
1065.10 225.9215
1065.20 224.7606
1065.30 221.5048
1065.40 217.4493
1065.50 213.3978
1065.60 207.5451
1065.70 203.3944
1065.80 199.6593
1065.90 196.1981
1066.00 192.1657
1066.10 190.1168
1066.20 188.891
1066.30 187.3841
1066.40 185.723
1066.50 184.6936
1066.60 183.5559
1066.70 181.8114
1066.80 181.3124
1066.90 180.4033
1067.00 178.9116
1067.10 177.0748
1067.20 177.6912
1067.30 179.6267
1067.40 182.4863
1067.50 188.0181
1067.60 193.3105
1067.70 199.142
1067.80 205.3836
1067.90 211.3568
1068.00 215.1554
1068.10 218.2155
1068.20 221.1276
1068.30 223.6205
1068.40 225.8874
1068.50 228.3688
1068.60 230.9886
1068.70 233.1858
1068.80 234.2388
1068.90 234.4824
1069.00 234.3758
1069.10 232.306
1069.20 230.1529
1069.30 227.55
1069.40 223.8648
1069.50 219.1865
1069.60 214.5223
1069.70 210.6469
1069.80 207.4929
1069.90 206.3899
1070.00 206.2032
1070.10 206.3042
1070.20 206.7129
1070.30 207.2264
1070.40 207.6468
1070.50 207.4403
1070.60 206.5468
1070.70 206.8021
1070.80 208.0211
1070.90 209.6404
1071.00 211.8127
1071.10 214.6133
1071.20 216.6735
1071.30 217.9804
1071.40 219.1682
1071.50 221.0904
1071.60 222.9013
1071.70 224.7496
1071.80 227.5839
1071.90 229.7154
1072.00 231.0225
1072.10 231.2098
1072.20 231.1149
1072.30 228.8878
1072.40 226.1895
1072.50 223.6575
1072.60 221.6221
1072.70 220.4879
1072.80 220.1822
1072.90 220.9029
1073.00 220.9633
1073.10 222.1989
1073.20 224.0454
1073.30 225.9626
1073.40 225.3722
1073.50 224.7827
1073.60 224.1723
1073.70 223.6222
1073.80 223.6344
1073.90 225.478
1074.00 228.2013
1074.10 230.6508
1074.20 234.2168
1074.30 238.3619
1074.40 242.1503
1074.50 244.3389
1074.60 246.1996
1074.70 247.6738
1074.80 248.2607
1074.90 247.9542
1075.00 246.397
1075.10 243.7625
1075.20 240.183
1075.30 233.8352
1075.40 229.1371
1075.50 224.6511
1075.60 221.1594
1075.70 219.2926
1075.80 221.7794
1075.90 224.7999
1076.00 227.6093
1076.10 231.816
1076.20 234.4097
1076.30 236.1941
1076.40 237.173
1076.50 238.7853
1076.60 238.8612
1076.70 238.8248
1076.80 239.2074
1076.90 240.8064
1077.00 242.0663
1077.10 243.0134
1077.20 243.229
1077.30 242.4297
1077.40 241.0521
1077.50 239.7242
1077.60 238.7722
1077.70 236.7425
1077.80 235.2186
1077.90 234.531
1078.00 235.7068
1078.10 236.6763
1078.20 238.1556
1078.30 239.4998
1078.40 240.1474
1078.50 239.5348
1078.60 238.5134
1078.70 236.9448
1078.80 233.5513
1078.90 229.8957
1079.00 226.0829
1079.10 222.1254
1079.20 218.1794
1079.30 213.8902
1079.40 210.5967
1079.50 208.0891
1079.60 207.0195
1079.70 207.0782
1079.80 208.2695
1079.90 210.6496
1080.00 212.6363
1080.10 215.5895
1080.20 218.4772
1080.30 221.1326
1080.40 224.1207
1080.50 227.7703
1080.60 231.3147
1080.70 234.4343
1080.80 237.0528
1080.90 238.8177
1081.00 240.2235
1081.10 241.6519
1081.20 242.086
1081.30 242.7144
1081.40 243.8959
1081.50 246.3282
1081.60 249.4247
1081.70 252.7272
1081.80 255.2327
1081.90 256.6099
1082.00 255.7196
1082.10 254.1389
1082.20 251.8495
1082.30 247.8475
1082.40 244.0073
1082.50 240.0028
1082.60 236.6596
1082.70 234.6145
1082.80 234.2392
1082.90 234.4617
1083.00 235.3535
1083.10 238.582
1083.20 241.7686
1083.30 246.2683
1083.40 251.7771
1083.50 256.4895
1083.60 259.6274
1083.70 261.7369
1083.80 263.195
1083.90 262.5318
1084.00 262.1542
1084.10 260.8688
1084.20 258.0362
1084.30 254.3673
1084.40 250.5059
1084.50 247.276
1084.60 244.5778
1084.70 240.8407
1084.80 237.3101
1084.90 234.8668
1085.00 234.4491
1085.10 234.7767
1085.20 235.6061
1085.30 236.1077
1085.40 235.9867
1085.50 236.1227
1085.60 237.6153
1085.70 239.5609
1085.80 241.7573
1085.90 244.1428
1086.00 248.4564
1086.10 253.7233
1086.20 258.5124
1086.30 263.1281
1086.40 266.4905
1086.50 268.3964
1086.60 266.8957
1086.70 266.6699
1086.80 265.8282
1086.90 264.4545
1087.00 263.1069
1087.10 264.3902
1087.20 265.7328
1087.30 266.7582
1087.40 267.2134
1087.50 266.7898
1087.60 264.7914
1087.70 261.208
1087.80 258.0364
1087.90 255.9882
1088.00 254.653
1088.10 253.7512
1088.20 254.4491
1088.30 255.1132
1088.40 255.7487
1088.50 256.3779
1088.60 257.1234
1088.70 256.9705
1088.80 255.9773
1088.90 254.5544
1089.00 253.3705
1089.10 252.4778
1089.20 250.8972
1089.30 248.0724
1089.40 246.5171
1089.50 246.5912
1089.60 247.6327
1089.70 248.7844
1089.80 255.039
1089.90 261.7551
1090.00 268.3806
1090.10 274.4381
1090.20 279.0262
1090.30 281.4997
1090.40 281.8673
1090.50 281.2394
1090.60 277.2914
1090.70 272.1181
1090.80 266.5562
1090.90 260.9402
1091.00 258.0581
1091.10 255.0157
1091.20 252.4986
1091.30 251.4121
1091.40 253.9998
1091.50 257.2853
1091.60 261.0027
1091.70 267.5713
1091.80 272.2204
1091.90 275.8701
1092.00 278.2582
1092.10 279.9491
1092.20 278.9307
1092.30 276.9667
1092.40 274.7899
1092.50 271.3967
1092.60 268.5026
1092.70 266.2389
1092.80 265.0403
1092.90 264.7344
1093.00 265.0884
1093.10 265.8692
1093.20 266.79
1093.30 267.5153
1093.40 267.5395
1093.50 266.8785
1093.60 265.1772
1093.70 263.6002
1093.80 262.694
1093.90 262.2205
1094.00 261.8206
1094.10 264.3742
1094.20 266.4496
1094.30 267.3211
1094.40 265.3744
1094.50 262.9475
1094.60 258.9017
1094.70 254.7508
1094.80 252.4972
1094.90 252.2147
1095.00 253.1985
1095.10 256.3532
1095.20 266.1763
1095.30 274.2357
1095.40 281.8454
1095.50 288.2959
1095.60 292.969
1095.70 293.8639
1095.80 294.0333
1095.90 293.6982
1096.00 290.0736
1096.10 287.9404
1096.20 286.802
1096.30 286.5749
1096.40 285.8583
1096.50 286.5729
1096.60 286.402
1096.70 284.8438
1096.80 279.9891
1096.90 275.1339
1097.00 268.8799
1097.10 260.7846
1097.20 254.5075
1097.30 249.8954
1097.40 247.0167
1097.50 245.3436
1097.60 249.1479
1097.70 252.5926
1097.80 256.6793
1097.90 262.1903
1098.00 266.4177
1098.10 269.1344
1098.20 270.3885
1098.30 270.7608
1098.40 268.5697
1098.50 266.7914
1098.60 264.9157
1098.70 262.2028
1098.80 260.9908
1098.90 260.5612
1099.00 261.0968
1099.10 262.3598
1099.20 265.6563
1099.30 268.4299
1099.40 270.7635
1099.50 273.0046
1099.60 274.9403
1099.70 276.8696
1099.80 278.5361
1099.90 279.5198
1100.00 279.0911
1100.10 278.3544
1100.20 277.4199
1100.30 275.2617
1100.40 272.9135
1100.50 270.3063
1100.60 267.5253
1100.70 265.183
1100.80 263.7783
1100.90 262.8404
1101.00 262.229
1101.10 263.5596
1101.20 264.8946
1101.30 266.4631
1101.40 268.35
1101.50 269.9783
1101.60 271.2549
1101.70 272.1572
1101.80 272.7663
1101.90 270.3073
1102.00 267.2897
1102.10 263.6924
1102.20 259.4428
1102.30 257.3325
1102.40 256.0025
1102.50 255.3372
1102.60 255.0248
1102.70 259.069
1102.80 262.362
1102.90 265.3988
1103.00 268.801
1103.10 270.0013
1103.20 268.1964
1103.30 264.5263
1103.40 261.4874
1103.50 254.6241
1103.60 248.1903
1103.70 243.1475
1103.80 241.6391
1103.90 241.0215
1104.00 242.4236
1104.10 245.5787
1104.20 248.5401
1104.30 251.2309
1104.40 253.5892
1104.50 255.7319
1104.60 257.7835
1104.70 259.0427
1104.80 260.5881
1104.90 262.465
1105.00 263.7894
1105.10 261.8409
1105.20 258.3927
1105.30 254.1279
1105.40 246.2415
1105.50 239.9823
1105.60 234.6861
1105.70 230.5227
1105.80 227.4968
1105.90 228.0272
1106.00 229.8708
1106.10 231.5697
1106.20 234.5114
1106.30 236.6915
1106.40 238.692
1106.50 240.7302
1106.60 241.6322
1106.70 240.6263
1106.80 239.1516
1106.90 238.588
1107.00 236.0292
1107.10 233.9253
1107.20 232.743
1107.30 233.4266
1107.40 233.9009
1107.50 235.2057
1107.60 236.6005
1107.70 236.9601
1107.80 238.741
1107.90 241.9331
1108.00 245.4698
1108.10 247.5345
1108.20 250.2777
1108.30 254.7557
1108.40 260.4956
1108.50 265.3832
1108.60 267.8995
1108.70 269.2806
1108.80 269.8912
1108.90 269.057
1109.00 268.4146
1109.10 267.1064
1109.20 265.3455
1109.30 264.9813
1109.40 266.6876
1109.50 268.7453
1109.60 270.6974
1109.70 273.9337
1109.80 275.3347
1109.90 275.272
1110.00 273.3822
1110.10 269.9149
1110.20 263.7771
1110.30 257.5603
1110.40 252.5667
1110.50 247.6388
1110.60 243.8404
1110.70 241.6085
1110.80 241.6157
1110.90 240.6802
1111.00 239.9961
1111.10 239.1037
1111.20 237.66
1111.30 233.2368
1111.40 229.8038
1111.50 227.1053
1111.60 225.0453
1111.70 223.5097
1111.80 224.1155
1111.90 225.7541
1112.00 226.5137
1112.10 227.9511
1112.20 230.451
1112.30 233.2648
1112.40 235.1185
1112.50 237.6125
1112.60 240.5727
1112.70 243.8285
1112.80 246.8844
1112.90 251.266
1113.00 254.7827
1113.10 257.2757
1113.20 258.9863
1113.30 259.9172
1113.40 260.0472
1113.50 259.2936
1113.60 257.9816
1113.70 254.1191
1113.80 251.046
1113.90 249.4851
1114.00 248.2873
1114.10 248.7535
1114.20 250.9041
1114.30 254.7528
1114.40 258.0068
1114.50 263.984
1114.60 269.4671
1114.70 272.8615
1114.80 272.8733
1114.90 272.3475
1115.00 270.6732
1115.10 267.3107
1115.20 264.4954
1115.30 261.9952
1115.40 260.5341
1115.50 260.5901
1115.60 261.8888
1115.70 262.9579
1115.80 263.8763
1115.90 264.6969
1116.00 264.616
1116.10 263.2262
1116.20 260.9741
1116.30 258.5878
1116.40 257.0088
1116.50 255.5399
1116.60 254.0542
1116.70 252.4195
1116.80 249.9748
1116.90 247.3756
1117.00 244.4453
1117.10 240.7643
1117.20 235.4456
1117.30 230.6139
1117.40 226.6956
1117.50 224.3192
1117.60 223.6119
1117.70 224.5581
1117.80 226.8266
1117.90 229.835
1118.00 233.5203
1118.10 238.753
1118.20 243.8757
1118.30 248.9893
1118.40 252.8789
1118.50 256.5502
1118.60 260.0201
1118.70 260.109
1118.80 259.5615
1118.90 258.8826
1119.00 256.83
1119.10 253.7032
1119.20 251.5217
1119.30 249.7598
1119.40 249.1323
1119.50 248.6425
1119.60 248.1653
1119.70 247.7411
1119.80 247.6697
1119.90 247.7799
1120.00 248.1389
1120.10 248.562
1120.20 248.9636
1120.30 249.9904
1120.40 251.72
1120.50 253.9277
1120.60 256.2927
1120.70 259.1559
1120.80 260.8139
1120.90 262.3229
1121.00 262.7268
1121.10 262.9475
1121.20 263.0671
1121.30 261.6057
1121.40 259.504
1121.50 257.3117
1121.60 254.7233
1121.70 251.7024
1121.80 248.657
1121.90 245.766
1122.00 243.4226
1122.10 241.4577
1122.20 239.5544
1122.30 240.9156
1122.40 243.2955
1122.50 246.2623
1122.60 251.2061
1122.70 256.8788
1122.80 262.4057
1122.90 266.3309
1123.00 268.1898
1123.10 268.372
1123.20 267.6511
1123.30 263.318
1123.40 259.4461
1123.50 255.662
1123.60 252.1355
1123.70 249.6111
1123.80 247.8028
1123.90 249.9913
1124.00 253.98
1124.10 257.9776
1124.20 263.0208
1124.30 269.2509
1124.40 273.5738
1124.50 277.2519
1124.60 277.9921
1124.70 277.65
1124.80 277.0703
1124.90 270.7681
1125.00 264.3728
1125.10 258.2429
1125.20 254.0888
1125.30 251.5736
1125.40 250.6368
1125.50 251.4379
1125.60 254.6711
1125.70 258.5147
1125.80 262.3678
1125.90 266.267
1126.00 268.9679
1126.10 271.3693
1126.20 270.6299
1126.30 269.6886
1126.40 268.8401
1126.50 268.8114
1126.60 269.4846
1126.70 270.8426
1126.80 272.5276
1126.90 274.6664
1127.00 275.6091
1127.10 276.2899
1127.20 275.4876
1127.30 273.0567
1127.40 270.1664
1127.50 267.0644
1127.60 264.7242
1127.70 263.1088
1127.80 261.652
1127.90 260.5702
1128.00 260.2617
1128.10 260.1463
1128.20 260.3344
1128.30 260.6792
1128.40 261.0887
1128.50 261.8963
1128.60 262.1272
1128.70 262.176
1128.80 262.4665
1128.90 263.0468
1129.00 263.8741
1129.10 264.5133
1129.20 264.9292
1129.30 265.0064
1129.40 265.4464
1129.50 266.4783
1129.60 267.3877
1129.70 268.3723
1129.80 269.9078
1129.90 271.2302
1130.00 272.4778
1130.10 271.9464
1130.20 270.8607
1130.30 269.4749
1130.40 265.8641
1130.50 261.0815
1130.60 256.9071
1130.70 253.3808
1130.80 251.0067
1130.90 249.5465
1131.00 248.4351
1131.10 249.9959
1131.20 252.1502
1131.30 254.5241
1131.40 258.4886
1131.50 262.1332
1131.60 265.1506
1131.70 267.6584
1131.80 269.7658
1131.90 271.6092
1132.00 272.9972
1132.10 273.5393
1132.20 273.4859
1132.30 273.2798
1132.40 271.8652
1132.50 271.126
1132.60 270.6625
1132.70 269.4997
1132.80 267.7543
1132.90 265.4696
1133.00 263.7414
1133.10 262.2645
1133.20 260.3377
1133.30 258.2654
1133.40 255.9107
1133.50 253.6641
1133.60 251.382
1133.70 248.697
1133.80 246.2533
1133.90 243.9131
1134.00 238.6436
1134.10 232.8174
1134.20 226.9927
1134.30 222.6695
1134.40 219.682
1134.50 217.8641
1134.60 217.6551
1134.70 220.5694
1134.80 224.6169
1134.90 228.9383
1135.00 235.5776
1135.10 241.5572
1135.20 247.2404
1135.30 248.8077
1135.40 248.8441
1135.50 248.0049
1135.60 245.7271
1135.70 242.5179
1135.80 239.7797
1135.90 237.9405
1136.00 237.9267
1136.10 238.3213
1136.20 238.9064
1136.30 241.383
1136.40 243.4333
1136.50 245.283
1136.60 245.2914
1136.70 244.7218
1136.80 243.886
1136.90 241.5745
1137.00 238.1978
1137.10 234.8373
1137.20 231.8267
1137.30 229.5596
1137.40 226.5507
1137.50 223.4693
1137.60 220.1676
1137.70 215.4075
1137.80 209.9291
1137.90 200.6827
1138.00 191.4851
1138.10 183.4969
1138.20 175.2826
1138.30 167.554
1138.40 163.0288
1138.50 161.0442
1138.60 164.4586
1138.70 169.4452
1138.80 175.0411
1138.90 186.9171
1139.00 197.1356
1139.10 206.5379
1139.20 213.4845
1139.30 218.749
1139.40 222.4351
1139.50 222.88
1139.60 220.6689
1139.70 217.3518
1139.80 213.1901
1139.90 207.2337
1140.00 200.4731
1140.10 193.4166
1140.20 183.484
1140.30 174.5317
1140.40 166.0843
1140.50 157.8986
1140.60 151.373
1140.70 147.148
1140.80 146.5036
1140.90 148.9748
1141.00 153.6214
1141.10 160.649
1141.20 172.9761
1141.30 184.4806
1141.40 195.9081
1141.50 207.4043
1141.60 216.9725
1141.70 225.5473
1141.80 231.6926
1141.90 237.1096
1142.00 242.2986
1142.10 245.984
1142.20 248.4441
1142.30 250.6752
1142.40 252.6621
1142.50 254.1057
1142.60 256.0999
1142.70 258.0551
1142.80 258.5475
1142.90 258.5589
1143.00 258.3114
1143.10 257.5468
1143.20 256.4724
1143.30 255.1035
1143.40 253.5398
1143.50 251.8688
1143.60 250.4225
1143.70 249.0975
1143.80 248.03
1143.90 246.9094
1144.00 245.84
1144.10 245.5302
1144.20 245.3546
1144.30 245.2513
1144.40 245.3282
1144.50 245.4598
1144.60 245.6141
1144.70 245.9518
1144.80 246.5443
1144.90 247.7968
1145.00 248.9671
1145.10 249.9628
1145.20 250.4406
1145.30 250.8361
1145.40 250.9026
1145.50 251.0936
1145.60 251.3516
1145.70 251.149
1145.80 251.0444
1145.90 251.2385
1146.00 252.1896
1146.10 253.7357
1146.20 255.4162
1146.30 257.663
1146.40 261.1132
1146.50 264.3786
1146.60 267.5426
1146.70 269.6336
1146.80 271.1575
1146.90 272.3762
1147.00 272.0829
1147.10 271.3173
1147.20 270.3411
1147.30 269.2689
1147.40 268.227
1147.50 267.7669
1147.60 267.8444
1147.70 269.0134
1147.80 270.9082
1147.90 272.8826
1148.00 274.948
1148.10 276.4802
1148.20 277.7377
1148.30 277.4911
1148.40 276.7025
1148.50 275.5772
1148.60 275.1
1148.70 275.2331
1148.80 276.1063
1148.90 277.2706
1149.00 279.0261
1149.10 280.4831
1149.20 281.837
1149.30 282.3439
1149.40 282.2302
1149.50 281.7969
1149.60 280.3019
1149.70 278.8919
1149.80 277.8955
1149.90 277.387
1150.00 277.3462
1150.10 277.9799
1150.20 278.7232
1150.30 279.679
1150.40 280.7472
1150.50 281.8127
1150.60 282.7389
1150.70 282.9724
1150.80 282.8491
1150.90 283.4721
1151.00 284.3016
1151.10 285.2199
1151.20 285.7536
1151.30 285.9574
1151.40 285.8012
1151.50 285.2371
1151.60 283.9151
1151.70 282.6603
1151.80 281.3303
1151.90 279.2709
1152.00 276.6427
1152.10 273.7344
1152.20 269.6078
1152.30 265.446
1152.40 261.5324
1152.50 258.3531
1152.60 255.8392
1152.70 254.2818
1152.80 253.4665
1152.90 253.9706
1153.00 255.1769
1153.10 256.5428
1153.20 258.7734
1153.30 260.363
1153.40 261.6511
1153.50 262.512
1153.60 263.3369
1153.70 264.2061
1153.80 266.1925
1153.90 268.8923
1154.00 271.7228
1154.10 274.4985
1154.20 277.1808
1154.30 279.7263
1154.40 281.8629
1154.50 281.0762
1154.60 280.1928
1154.70 279.2659
1154.80 277.0489
1154.90 274.7275
1155.00 272.5184
1155.10 271.5199
1155.20 271.1838
1155.30 270.6409
1155.40 271.0808
1155.50 273.1243
1155.60 274.9442
1155.70 276.6423
1155.80 277.6206
1155.90 279.0709
1156.00 280.7234
1156.10 281.5741
1156.20 282.268
1156.30 282.8914
1156.40 283.3695
1156.50 283.6659
1156.60 283.5623
1156.70 283.22
1156.80 282.5043
1156.90 281.5172
1157.00 280.3217
1157.10 278.0098
1157.20 275.5123
1157.30 272.939
1157.40 270.8577
1157.50 269.0385
1157.60 267.4625
1157.70 266.967
1157.80 267.2619
1157.90 268.4362
1158.00 269.9339
1158.10 271.8972
1158.20 273.7684
1158.30 275.4899
1158.40 276.4401
1158.50 276.1568
1158.60 275.3938
1158.70 273.4625
1158.80 271.313
1158.90 269.0319
1159.00 265.8293
1159.10 262.1977
1159.20 258.6496
1159.30 255.1961
1159.40 251.8732
1159.50 249.5731
1159.60 247.4354
1159.70 245.9424
1159.80 244.6474
1159.90 243.4256
1160.00 244.2737
1160.10 245.5507
1160.20 247.112
1160.30 249.8175
1160.40 252.9307
1160.50 255.7071
1160.60 257.8561
1160.70 259.2065
1160.80 261.0486
1160.90 262.7914
1161.00 264.1374
1161.10 265.6238
1161.20 267.1571
1161.30 269.9063
1161.40 272.2468
1161.50 274.1146
1161.60 275.9676
1161.70 277.6313
1161.80 278.7747
1161.90 278.3979
1162.00 276.2428
1162.10 274.715
1162.20 273.1609
1162.30 271.5082
1162.40 270.5649
1162.50 269.8335
1162.60 271.6245
1162.70 273.5534
1162.80 275.5377
1162.90 278.7872
1163.00 282.1942
1163.10 284.6963
1163.20 286.1287
1163.30 286.3688
1163.40 285.5318
1163.50 283.9286
1163.60 279.76
1163.70 275.8384
1163.80 271.9865
1163.90 267.8103
1164.00 264.5446
1164.10 262.0574
1164.20 262.283
1164.30 263.613
1164.40 265.3132
1164.50 267.9491
1164.60 271.4316
1164.70 273.2227
1164.80 274.4971
1164.90 274.2215
1165.00 273.276
1165.10 272.1292
1165.20 267.6291
1165.30 263.6223
1165.40 260.0031
1165.50 256.898
1165.60 254.448
1165.70 253.1144
1165.80 253.7547
1165.90 256.2017
1166.00 258.4444
1166.10 261.0721
1166.20 264.6899
1166.30 267.3536
1166.40 269.7581
1166.50 270.5543
1166.60 271.0711
1166.70 271.3855
1166.80 270.1184
1166.90 268.4956
1167.00 267.0043
1167.10 265.3033
1167.20 263.4519
1167.30 261.8852
1167.40 260.2651
1167.50 258.5205
1167.60 256.5053
1167.70 254.4562
1167.80 252.6824
1167.90 250.6548
1168.00 248.458
1168.10 245.6852
1168.20 242.1951
1168.30 237.6237
1168.40 231.6702
1168.50 224.5043
1168.60 215.9651
1168.70 206.2082
1168.80 193.8638
1168.90 182.7719
1169.00 171.8339
1169.10 160.3203
1169.20 151.4741
1169.30 144.2627
1169.40 143.2991
1169.50 144.5047
1169.60 147.3773
1169.70 155.4214
1169.80 166.9942
1169.90 178.1313
1170.00 190.158
1170.10 203.8367
1170.20 216.1097
1170.30 227.7775
1170.40 235.9547
1170.50 243.3756
1170.60 250.3712
1170.70 254.1813
1170.80 257.117
1170.90 259.5189
1171.00 260.7308
1171.10 261.1868
1171.20 261.4923
1171.30 261.7261
1171.40 261.843
1171.50 262.1585
1171.60 262.4278
1171.70 262.2561
1171.80 262.0206
1171.90 261.7537
1172.00 261.2547
1172.10 260.8064
1172.20 260.468
1172.30 260.4309
1172.40 260.6242
1172.50 261.1275
1172.60 262.0863
1172.70 263.7282
1172.80 265.1669
1172.90 266.5624
1173.00 267.7992
1173.10 268.5992
1173.20 269.203
1173.30 268.6871
1173.40 267.8863
1173.50 266.856
1173.60 265.3595
1173.70 263.7734
1173.80 262.6764
1173.90 261.7226
1174.00 260.9587
1174.10 260.8943
1174.20 261.1968
1174.30 262.9387
1174.40 264.6101
1174.50 266.2541
1174.60 267.4044
1174.70 267.9425
1174.80 267.8454
1174.90 266.4291
1175.00 264.3359
1175.10 261.7805
1175.20 258.4719
1175.30 254.2794
1175.40 250.8535
1175.50 247.7528
1175.60 245.7774
1175.70 243.9159
1175.80 242.0922
1175.90 241.0564
1176.00 239.7372
1176.10 238.1185
1176.20 235.7917
1176.30 232.755
1176.40 228.4062
1176.50 222.8418
1176.60 215.9777
1176.70 207.4284
1176.80 197.7906
1176.90 184.8875
1177.00 172.332
1177.10 159.8518
1177.20 145.1276
1177.30 132.5579
1177.40 121.8987
1177.50 115.8041
1177.60 112.0543
1177.70 110.7069
1177.80 114.742
1177.90 123.601
1178.00 133.426
1178.10 144.5695
1178.20 159.1036
1178.30 172.3932
1178.40 185.3139
1178.50 196.3851
1178.60 206.7863
1178.70 216.6611
1178.80 223.7248
1178.90 229.7048
1179.00 234.8755
1179.10 238.5765
1179.20 241.0861
1179.30 243.1726
1179.40 244.8123
1179.50 245.5025
1179.60 246.3745
1179.70 247.309
1179.80 248.5642
1179.90 250.1535
1180.00 251.9656
1180.10 254.3884
1180.20 256.8751
1180.30 259.2479
1180.40 261.1597
1180.50 262.6549
1180.60 263.3696
1180.70 263.5896
1180.80 262.8906
1180.90 261.9209
1181.00 260.8149
1181.10 258.9338
1181.20 257.1583
1181.30 255.4447
1181.40 253.9119
1181.50 252.6113
1181.60 251.6318
1181.70 251.5608
1181.80 252.081
1181.90 252.9264
1182.00 254.0509
1182.10 255.6121
1182.20 256.8975
1182.30 258.0544
1182.40 258.6568
1182.50 259.1348
1182.60 259.5488
1182.70 259.5518
1182.80 259.4951
1182.90 259.412
1183.00 259.5919
1183.10 259.7578
1183.20 259.2697
1183.30 258.2211
1183.40 256.3983
1183.50 254.6505
1183.60 252.705
1183.70 249.8373
1183.80 247.9485
1183.90 246.4792
1184.00 247.4704
1184.10 248.7603
1184.20 250.2164
1184.30 253.1266
1184.40 256.2972
1184.50 258.1816
1184.60 259.0165
1184.70 258.6196
1184.80 257.8938
1184.90 256.6556
1185.00 253.6369
1185.10 251.6635
1185.20 250.0768
1185.30 249.9054
1185.40 250.0452
1185.50 250.4789
1185.60 252.4388
1185.70 254.809
1185.80 256.8012
1185.90 258.527
1186.00 259.9785
1186.10 260.6449
1186.20 261.1513
1186.30 261.2021
1186.40 261.0285
1186.50 260.7688
1186.60 259.5709
1186.70 258.5058
1186.80 257.5584
1186.90 256.449
1187.00 255.4818
1187.10 254.9744
1187.20 254.8425
1187.30 255.0346
1187.40 255.3046
1187.50 255.9247
1187.60 257.3616
1187.70 257.7543
1187.80 257.8058
1187.90 256.3471
1188.00 254.4216
1188.10 252.144
1188.20 247.2459
1188.30 242.2177
1188.40 238.0932
1188.50 234.379
1188.60 231.0904
1188.70 229.0998
1188.80 228.6183
1188.90 231.0663
1189.00 233.5429
1189.10 236.2127
1189.20 240.5755
1189.30 244.4899
1189.40 248.1176
1189.50 250.5461
1189.60 252.8204
1189.70 255.1645
1189.80 256.5418
1189.90 257.2318
1190.00 257.2872
1190.10 257.3628
1190.20 257.4712
1190.30 257.4969
1190.40 257.3117
1190.50 255.99
1190.60 254.8406
1190.70 253.7839
1190.80 253.4984
1190.90 253.5745
1191.00 254.0612
1191.10 255.0685
1191.20 256.3046
1191.30 257.4053
1191.40 258.7725
1191.50 260.4929
1191.60 261.9122
1191.70 263.1253
1191.80 263.5558
1191.90 263.6589
1192.00 263.6149
1192.10 263.2999
1192.20 263.1743
1192.30 263.2975
1192.40 263.0753
1192.50 262.7326
1192.60 262.4678
1192.70 262.3402
1192.80 262.3675
1192.90 262.3947
1193.00 262.5796
1193.10 263.2927
1193.20 263.1421
1193.30 262.6721
1193.40 261.0618
1193.50 259.3746
1193.60 257.6072
1193.70 254.1724
1193.80 250.3112
1193.90 246.7345
1194.00 243.4524
1194.10 240.451
1194.20 237.874
1194.30 235.7197
1194.40 234.6523
1194.50 233.0679
1194.60 231.3056
1194.70 228.772
1194.80 226.7088
1194.90 225.0464
1195.00 223.2904
1195.10 221.8514
1195.20 221.2063
1195.30 222.3406
1195.40 224.8446
1195.50 226.9045
1195.60 229.1197
1195.70 231.65
1195.80 233.0707
1195.90 234.0045
1196.00 232.4781
1196.10 231.0275
1196.20 229.6317
1196.30 227.0041
1196.40 224.3919
1196.50 222.2315
1196.60 221.2653
1196.70 220.9883
1196.80 220.11
1196.90 218.9342
1197.00 217.2517
1197.10 214.8375
1197.20 211.9963
1197.30 207.2027
1197.40 202.7365
1197.50 198.4626
1197.60 194.2729
1197.70 190.677
1197.80 187.9953
1197.90 187.4478
1198.00 188.1735
1198.10 189.883
1198.20 192.7766
1198.30 197.3054
1198.40 201.1084
1198.50 204.8366
1198.60 208.5511
1198.70 211.0859
1198.80 213.0656
1198.90 212.2079
1199.00 210.8386
1199.10 209.0084
1199.20 205.3558
1199.30 201.2736
1199.40 198.4503
1199.50 196.2215
1199.60 194.6631
1199.70 193.5999
1199.80 193.097
1199.90 194.4007
1200.00 195.6558
1200.10 196.892
1200.20 197.5151
1200.30 198.1579
1200.40 198.8214
1200.50 200.0271
1200.60 201.4892
1200.70 203.2068
1200.80 205.1105
1200.90 207.1813
1201.00 208.7862
1201.10 210.1306
1201.20 210.8054
1201.30 210.9083
1201.40 210.7771
1201.50 209.4434
1201.60 208.2273
1201.70 207.1114
1201.80 206.6034
1201.90 206.3742
1202.00 206.4626
1202.10 207.031
1202.20 207.9671
1202.30 208.9924
1202.40 209.6445
1202.50 209.5722
1202.60 208.8137
1202.70 207.8542
1202.80 206.4417
1202.90 205.3939
1203.00 204.5995
1203.10 204.2955
1203.20 204.5251
1203.30 205.5973
1203.40 208.4904
1203.50 212.4997
1203.60 216.8885
1203.70 221.5816
1203.80 226.7506
1203.90 230.7139
1204.00 234.2771
1204.10 236.5939
1204.20 238.0694
1204.30 239.0716
1204.40 236.912
1204.50 234.6714
1204.60 232.7216
1204.70 230.9299
1204.80 229.4053
1204.90 228.8922
1205.00 229.3282
1205.10 230.9722
1205.20 232.9547
1205.30 235.2967
1205.40 238.8953
1205.50 242.1925
1205.60 245.3542
1205.70 247.8528
1205.80 250.0401
1205.90 251.8721
1206.00 252.7327
1206.10 253.035
1206.20 252.6315
1206.30 251.6654
1206.40 250.1367
1206.50 248.5239
1206.60 246.5125
1206.70 243.3718
1206.80 241.2795
1206.90 239.6249
1207.00 240.2082
1207.10 241.2586
1207.20 242.7579
1207.30 246.0684
1207.40 249.76
1207.50 253.1806
1207.60 257.101
1207.70 261.4047
1207.80 264.8826
1207.90 267.4436
1208.00 268.0563
1208.10 268.0731
1208.20 267.8392
1208.30 266.4353
1208.40 264.3225
1208.50 261.6527
1208.60 256.9343
1208.70 251.9361
1208.80 247.1721
1208.90 241.6108
1209.00 235.7468
1209.10 231.9765
1209.20 229.4284
1209.30 228.9613
1209.40 229.7463
1209.50 231.5554
1209.60 238.2983
1209.70 243.8126
1209.80 248.5738
1209.90 253.0965
1210.00 256.6107
1210.10 258.5224
1210.20 255.6895
1210.30 250.4768
1210.40 245.0009
1210.50 238.1706
1210.60 229.545
1210.70 222.661
1210.80 216.2837
1210.90 211.3321
1211.00 207.4571
1211.10 204.1125
1211.20 204.9084
1211.30 205.9383
1211.40 207.0497
1211.50 209.636
1211.60 212.798
1211.70 215.9683
1211.80 219.697
1211.90 224.0069
1212.00 228.705
1212.10 233.6336
1212.20 239.2053
1212.30 243.869
1212.40 248.1526
1212.50 250.2648
1212.60 251.4364
1212.70 251.6288
1212.80 248.5999
1212.90 244.7718
1213.00 241.255
1213.10 236.4145
1213.20 230.5464
1213.30 227.3997
1213.40 225.9311
1213.50 228.1975
1213.60 231.1915
1213.70 234.7602
1213.80 242.7129
1213.90 249.7731
1214.00 256.1029
1214.10 261.1737
1214.20 265.5781
1214.30 269.0756
1214.40 269.6645
1214.50 268.4314
1214.60 267.6327
1214.70 266.7339
1214.80 265.6645
1214.90 264.8771
1215.00 264.3393
1215.10 265.0288
1215.20 265.1996
1215.30 265.0387
1215.40 264.2403
1215.50 263.2007
1215.60 261.8833
1215.70 259.5987
1215.80 256.9495
1215.90 254.9861
1216.00 253.4855
1216.10 252.5736
1216.20 252.3293
1216.30 252.4098
1216.40 253.4929
1216.50 254.7842
1216.60 256.1779
1216.70 258.4142
1216.80 260.4476
1216.90 262.1897
1217.00 263.6946
1217.10 264.9925
1217.20 265.8137
1217.30 266.0115
1217.40 265.5861
1217.50 265.6327
1217.60 265.5562
1217.70 265.088
1217.80 265.0267
1217.90 265.175
1218.00 267.228
1218.10 269.2715
1218.20 271.3055
1218.30 273.9609
1218.40 276.3904
1218.50 277.7351
1218.60 277.6982
1218.70 276.5834
1218.80 275.7109
1218.90 274.2069
1219.00 271.4208
1219.10 268.8183
1219.20 266.4693
1219.30 266.1909
1219.40 266.0324
1219.50 265.9679
1219.60 266.0144
1219.70 266.0123
1219.80 265.8688
1219.90 265.3766
1220.00 264.7176
1220.10 264.4412
1220.20 264.2186
1220.30 264.0803
1220.40 263.8405
1220.50 263.8939
1220.60 265.5733
1220.70 266.6658
1220.80 267.3986
1220.90 266.4778
1221.00 265.3988
1221.10 264.2973
1221.20 261.1264
1221.30 257.109
1221.40 253.5628
1221.50 250.2071
1221.60 247.0753
1221.70 244.4075
1221.80 242.319
1221.90 242.1405
1222.00 241.8215
1222.10 241.4394
1222.20 242.1879
1222.30 243.0924
1222.40 244.1734
1222.50 244.7246
1222.60 245.42
1222.70 247.2196
1222.80 250.0349
1222.90 253.7878
1223.00 257.8989
1223.10 262.6965
1223.20 269.1568
1223.30 274.6714
1223.40 279.7963
1223.50 283.7534
1223.60 286.9546
1223.70 289.4581
1223.80 289.163
1223.90 288.2356
1224.00 287.2621
1224.10 285.1853
1224.20 282.3778
1224.30 280.2525
1224.40 278.6154
1224.50 277.8463
1224.60 277.595
1224.70 277.6557
1224.80 279.1705
1224.90 280.5652
1225.00 281.8728
1225.10 284.0005
1225.20 285.7884
1225.30 286.7568
1225.40 286.6175
1225.50 285.9032
1225.60 285.1557
1225.70 283.611
1225.80 281.0094
1225.90 279.5875
1226.00 278.4222
1226.10 277.6651
1226.20 277.4871
1226.30 277.6208
1226.40 280.2176
1226.50 282.475
1226.60 284.1219
1226.70 286.1639
1226.80 288.1192
1226.90 289.0146
1227.00 288.7404
1227.10 287.2489
1227.20 286.359
1227.30 285.1482
1227.40 282.9338
1227.50 281.5448
1227.60 280.5501
1227.70 281.9291
1227.80 283.2257
1227.90 284.4329
1228.00 286.7487
1228.10 289.152
1228.20 290.9861
1228.30 291.7593
1228.40 291.6845
1228.50 290.896
1228.60 289.3856
1228.70 286.4097
1228.80 283.5631
1228.90 280.7542
1229.00 277.9749
1229.10 274.9589
1229.20 271.7493
1229.30 268.9243
1229.40 266.4068
1229.50 264.4203
1229.60 262.3085
1229.70 260.226
1229.80 259.1845
1229.90 259.0699
1230.00 260.3457
1230.10 262.3864
1230.20 265.0399
1230.30 270.0266
1230.40 274.3487
1230.50 278.2634
1230.60 281.5327
1230.70 284.2442
1230.80 286.1478
1230.90 285.6137
1231.00 284.1038
1231.10 282.6991
1231.20 280.6377
1231.30 277.8358
1231.40 275.4323
1231.50 273.5417
1231.60 273.1654
1231.70 272.8447
1231.80 272.5495
1231.90 272.2994
1232.00 272.005
1232.10 271.6584
1232.20 271.3478
1232.30 271.0766
1232.40 270.9029
1232.50 270.7089
1232.60 270.4981
1232.70 269.7527
1232.80 269.0026
1232.90 268.242
1233.00 267.5839
1233.10 266.8311
1233.20 264.6162
1233.30 262.9089
1233.40 261.6517
1233.50 261.4249
1233.60 261.4567
1233.70 261.6677
1233.80 262.9915
1233.90 264.9053
1234.00 265.5939
1234.10 266.1257
1234.20 266.412
1234.30 266.6933
1234.40 266.6575
1234.50 264.9627
1234.60 263.9247
1234.70 263.3246
1234.80 263.8591
1234.90 264.6491
1235.00 265.706
1235.10 268.1662
1235.20 271.0633
1235.30 272.7722
1235.40 273.6403
1235.50 273.5213
1235.60 273.0499
1235.70 271.9904
1235.80 269.0784
1235.90 266.6873
1236.00 264.5412
1236.10 263.8315
1236.20 263.7632
1236.30 264.5112
1236.40 267.1408
1236.50 270.1825
1236.60 272.66
1236.70 275.4055
1236.80 278.3791
1236.90 279.7968
1237.00 280.1797
1237.10 278.3298
1237.20 276.1012
1237.30 273.6121
1237.40 269.3394
1237.50 265.9222
1237.60 263.2945
1237.70 261.6857
1237.80 260.5345
1237.90 260.0285
1238.00 261.784
1238.10 264.9011
1238.20 266.696
1238.30 268.3396
1238.40 269.7362
1238.50 269.3995
1238.60 267.95
1238.70 262.3508
1238.80 256.83
1238.90 251.3639
1239.00 243.4167
1239.10 235.9813
1239.20 229.8397
1239.30 226.0143
1239.40 223.4049
1239.50 221.9684
1239.60 222.3906
1239.70 224.9946
1239.80 227.1746
1239.90 229.3948
1240.00 231.9076
1240.10 233.3961
1240.20 234.3801
1240.30 232.6508
1240.40 231.1088
1240.50 229.8052
1240.60 228.5298
1240.70 227.5826
1240.80 227.839
1240.90 229.057
1241.00 231.1278
1241.10 233.0132
1241.20 235.3375
1241.30 238.699
1241.40 240.6212
1241.50 241.8508
1241.60 240.5982
1241.70 239.1981
1241.80 237.6564
1241.90 234.21
1242.00 230.6942
1242.10 227.9326
1242.20 225.2261
1242.30 222.5302
1242.40 219.367
1242.50 216.7724
1242.60 215.1053
1242.70 211.8251
1242.80 207.7785
1242.90 201.3951
1243.00 195.1207
1243.10 188.9221
1243.20 180.4959
1243.30 173.0011
1243.40 167.5064
1243.50 163.9386
1243.60 161.5575
1243.70 161.3228
1243.80 164.2984
1243.90 171.0426
1244.00 177.526
1244.10 184.6166
1244.20 193.8371
1244.30 202.2937
1244.40 210.3741
1244.50 216.9689
1244.60 223.4762
1244.70 229.8721
1244.80 235.0518
1244.90 239.7597
1245.00 244.0599
1245.10 247.9576
1245.20 251.5126
1245.30 254.2522
1245.40 256.5908
1245.50 258.0738
1245.60 258.9318
1245.70 259.4477
1245.80 258.4232
1245.90 257.552
1246.00 256.8223
1246.10 254.4541
1246.20 252.1178
1246.30 250.5676
1246.40 249.9976
1246.50 250.0598
1246.60 250.6122
1246.70 252.1232
1246.80 255.1336
1246.90 257.5787
1247.00 259.9809
1247.10 262.7663
1247.20 264.9962
1247.30 266.8559
1247.40 266.0123
1247.50 264.9136
1247.60 263.7271
1247.70 262.168
1247.80 260.4599
1247.90 258.8168
1248.00 257.2692
1248.10 255.8294
1248.20 254.8597
1248.30 254.0056
1248.40 253.3705
1248.50 253.0042
1248.60 252.7778
1248.70 253.2057
1248.80 253.5334
1248.90 253.7387
1249.00 254.4932
1249.10 255.2932
1249.20 255.7366
1249.30 255.8032
1249.40 255.5739
1249.50 255.2648
1249.60 254.7035
1249.70 253.632
1249.80 253.0744
1249.90 252.7138
1250.00 252.6657
1250.10 252.4074
1250.20 251.9628
1250.30 252.2039
1250.40 252.432
1250.50 252.3907
1250.60 251.6342
1250.70 250.4451
1250.80 248.8545
1250.90 247.0484
1251.00 244.9322
1251.10 242.8507
1251.20 240.6255
1251.30 237.7151
1251.40 234.1011
1251.50 230.0372
1251.60 225.7554
1251.70 220.8054
1251.80 214.784
1251.90 205.7873
1252.00 195.7449
1252.10 186.3335
1252.20 176.0281
1252.30 164.7921
1252.40 157.4711
1252.50 152.0596
1252.60 150.8906
1252.70 152.0305
1252.80 154.609
1252.90 166.8213
1253.00 178.6696
1253.10 190.0908
1253.20 203.1891
1253.30 216.1547
1253.40 227.3587
1253.50 235.7343
1253.60 242.0616
1253.70 247.7163
1253.80 252.518
1253.90 255.7357
1254.00 258.375
1254.10 260.7491
1254.20 262.3741
1254.30 263.8852
1254.40 265.3031
1254.50 265.0903
1254.60 264.66
1254.70 264.1962
1254.80 263.1428
1254.90 261.8941
1255.00 261.7414
1255.10 262.553
1255.20 264.6427
1255.30 266.7101
1255.40 269.2082
1255.50 273.3409
1255.60 277.2626
1255.70 281.0604
1255.80 283.287
1255.90 284.895
1256.00 285.6231
1256.10 285.0642
1256.20 284.0923
1256.30 283.1989
1256.40 281.2932
1256.50 278.4532
1256.60 276.2853
1256.70 274.4407
1256.80 273.2824
1256.90 272.3552
1257.00 271.5897
1257.10 271.8779
1257.20 271.9966
1257.30 271.9389
1257.40 272.5372
1257.50 273.3971
1257.60 274.6461
1257.70 275.7952
1257.80 276.8933
1257.90 278.4077
1258.00 280.253
1258.10 282.6384
1258.20 284.2756
1258.30 285.7556
1258.40 287.4055
1258.50 288.217
1258.60 288.396
1258.70 286.2968
1258.80 283.9969
1258.90 281.6916
1259.00 277.5568
1259.10 272.7595
1259.20 268.946
1259.30 266.0007
1259.40 264.0346
1259.50 263.1764
1259.60 263.1191
1259.70 265.1641
1259.80 267.1206
1259.90 269.0406
1260.00 271.8703
1260.10 274.635
1260.20 277.3136
1260.30 278.8186
1260.40 280.0314
1260.50 281.3995
1260.60 283.1082
1260.70 285.0846
1260.80 287.4645
1260.90 290.355
1261.00 294.2568
1261.10 297.1045
1261.20 299.5303
1261.30 301.4919
1261.40 302.9304
1261.50 303.8862
1261.60 301.6694
1261.70 299.0462
1261.80 296.5885
1261.90 292.7211
1262.00 288.1449
1262.10 284.8847
1262.20 282.7115
1262.30 282.0396
1262.40 281.5012
1262.50 281.4672
1262.60 283.4669
1262.70 285.1063
1262.80 286.5054
1262.90 286.7507
1263.00 286.8082
1263.10 286.6379
1263.20 285.73
1263.30 284.5242
1263.40 283.1762
1263.50 282.0226
1263.60 281.0556
1263.70 279.97
1263.80 278.7174
1263.90 277.0616
1264.00 275.367
1264.10 273.6201
1264.20 271.2141
1264.30 269.2522
1264.40 267.7914
1264.50 266.9755
1264.60 266.5023
1264.70 266.6661
1264.80 268.1227
1264.90 270.4379
1265.00 272.4309
1265.10 274.627
1265.20 277.1688
1265.30 279.2061
1265.40 281.0416
1265.50 282.5117
1265.60 283.845
1265.70 285.0663
1265.80 284.8811
1265.90 284.6795
1266.00 284.6928
1266.10 284.3873
1266.20 283.918
1266.30 283.2633
1266.40 283.0795
1266.50 283.4485
1266.60 284.3035
1266.70 285.1977
1266.80 285.9804
1266.90 286.8675
1267.00 287.8242
1267.10 289.8679
1267.20 291.8879
1267.30 293.8753
1267.40 295.4374
1267.50 296.8306
1267.60 298.0147
1267.70 299.1021
1267.80 300.1103
1267.90 300.6157
1268.00 300.3121
1268.10 298.4086
1268.20 296.2249
1268.30 293.994
1268.40 292.2709
1268.50 290.5451
1268.60 288.8167
1268.70 288.4147
1268.80 288.3699
1268.90 288.7344
1269.00 289.914
1269.10 291.5486
1269.20 293.1151
1269.30 293.9257
1269.40 293.6927
1269.50 293.0968
1269.60 292.1241
1269.70 289.8843
1269.80 287.6446
1269.90 285.4051
1270.00 283.2802
1270.10 281.2236
1270.20 279.2749
1270.30 278.1088
1270.40 277.3977
1270.50 277.7921
1270.60 278.7936
1270.70 280.3785
1270.80 282.1891
1270.90 284.3831
1271.00 287.5124
1271.10 290.3828
1271.20 293.1387
1271.30 295.9245
1271.40 298.121
1271.50 299.626
1271.60 299.8755
1271.70 299.9117
1271.80 300.0863
1271.90 299.4291
1272.00 298.2426
1272.10 297.2922
1272.20 296.6378
1272.30 296.4665
1272.40 296.1596
1272.50 295.8474
1272.60 295.7213
1272.70 295.3609
1272.80 294.8087
1272.90 294.2753
1273.00 293.8802
1273.10 293.7633
1273.20 293.2629
1273.30 292.5836
1273.40 291.7719
1273.50 290.7666
1273.60 289.5431
1273.70 287.8379
1273.80 285.7506
1273.90 282.7141
1274.00 280.2135
1274.10 278.0122
1274.20 276.3385
1274.30 275.3498
1274.40 275.3072
1274.50 277.7168
1274.60 280.6711
1274.70 283.197
1274.80 286.5816
1274.90 290.614
1275.00 293.2157
1275.10 294.9117
1275.20 294.9355
1275.30 295.3348
1275.40 295.7183
1275.50 295.0194
1275.60 294.9345
1275.70 295.4164
1275.80 297.1931
1275.90 298.8485
1276.00 299.8148
1276.10 301.3746
1276.20 303.1727
1276.30 303.9138
1276.40 303.3431
1276.50 301.1027
1276.60 299.1548
1276.70 297.3611
1276.80 295.9373
1276.90 295.3397
1277.00 295.2704
1277.10 296.9212
1277.20 298.4055
1277.30 299.5608
1277.40 301.4815
1277.50 303.5358
1277.60 305.0229
1277.70 304.8575
1277.80 303.2266
1277.90 300.5984
1278.00 297.649
1278.10 294.1514
1278.20 291.4466
1278.30 289.043
1278.40 286.3778
1278.50 284.0348
1278.60 282.041
1278.70 282.4843
1278.80 283.5693
1278.90 285.3897
1279.00 287.8571
1279.10 290.6884
1279.20 293.0015
1279.30 295.6918
1279.40 298.948
1279.50 301.6373
1279.60 303.783
1279.70 304.0979
1279.80 303.9295
1279.90 303.3966
1280.00 302.4234
1280.10 301.4332
1280.20 300.4542
1280.30 298.5728
1280.40 296.4039
1280.50 294.5745
1280.60 292.6836
1280.70 290.7311
1280.80 289.1626
1280.90 287.6595
1281.00 286.2149
1281.10 284.8956
1281.20 283.712
1281.30 283.9353
1281.40 284.1663
1281.50 284.4071
1281.60 284.9687
1281.70 285.5661
1281.80 286.0581
1281.90 286.8624
1282.00 287.8749
1282.10 289.2522
1282.20 290.5336
1282.30 291.6526
1282.40 292.606
1282.50 293.4988
1282.60 294.329
1282.70 294.8478
1282.80 295.1013
1282.90 294.7139
1283.00 294.2961
1283.10 293.9317
1283.20 293.7483
1283.30 293.6452
1283.40 293.5708
1283.50 293.3157
1283.60 292.8567
1283.70 292.3858
1283.80 292.0059
1283.90 291.9049
1284.00 291.7241
1284.10 291.498
1284.20 291.251
1284.30 291.3113
1284.40 291.8138
1284.50 292.2804
1284.60 292.7664
1284.70 293.3732
1284.80 294.272
1284.90 295.3908
1285.00 295.8473
1285.10 296.2548
1285.20 296.6224
1285.30 296.1619
1285.40 295.1045
1285.50 291.8041
1285.60 288.4992
1285.70 285.1899
1285.80 281.1442
1285.90 277.3036
1286.00 274.1651
1286.10 272.07
1286.20 270.5593
1286.30 270.1555
1286.40 270.9161
1286.50 273.0998
1286.60 275.8381
1286.70 278.8191
1286.80 282.2577
1286.90 285.2589
1287.00 287.9805
1287.10 291.9614
1287.20 295.3508
1287.30 297.7751
1287.40 297.8653
1287.50 297.1065
1287.60 295.5505
1287.70 292.3011
1287.80 287.6664
1287.90 283.8204
1288.00 280.0574
1288.10 276.3447
1288.20 273.4026
1288.30 271.1016
1288.40 271.739
1288.50 272.7757
1288.60 274.2451
1288.70 276.7984
1288.80 279.4119
1288.90 281.7358
1289.00 284.4922
1289.10 287.4698
1289.20 290.0734
1289.30 292.3338
1289.40 294.1202
1289.50 295.1294
1289.60 295.7042
1289.70 295.2707
1289.80 294.9136
1289.90 294.612
1290.00 291.9594
1290.10 289.4894
1290.20 287.4292
1290.30 286.1388
1290.40 285.1022
1290.50 284.0473
1290.60 283.4627
1290.70 283.295
1290.80 283.058
1290.90 283.1483
1291.00 284.0179
1291.10 284.6186
1291.20 285.0533
1291.30 285.0341
1291.40 285.2509
1291.50 285.7447
1291.60 285.882
1291.70 286.0548
1291.80 286.5576
1291.90 287.1548
1292.00 287.8056
1292.10 288.2694
1292.20 289.2344
1292.30 290.9512
1292.40 291.8232
1292.50 292.3454
1292.60 292.3594
1292.70 292.1
1292.80 291.6258
1292.90 289.1312
1293.00 287.0171
1293.10 285.8464
1293.20 284.2321
1293.30 282.4883
1293.40 281.024
1293.50 281.1553
1293.60 282.8195
1293.70 284.4653
1293.80 286.2182
1293.90 288.2531
1294.00 289.8544
1294.10 291.1681
1294.20 291.4739
1294.30 291.9559
1294.40 292.6622
1294.50 292.4379
1294.60 292.0629
1294.70 291.8379
1294.80 292.8665
1294.90 294.6966
1295.00 295.4979
1295.10 295.9372
1295.20 295.8266
1295.30 295.0787
1295.40 293.7693
1295.50 290.568
1295.60 287.7399
1295.70 285.2298
1295.80 281.3411
1295.90 277.7631
1296.00 275.0723
1296.10 274.6262
1296.20 275.0787
1296.30 275.3471
1296.40 276.323
1296.50 278.0352
1296.60 279.5702
1296.70 281.0416
1296.80 282.4187
1296.90 283.7687
1297.00 285.0444
1297.10 284.9056
1297.20 284.8054
1297.30 284.7585
1297.40 285.299
1297.50 285.9084
1297.60 286.2619
1297.70 286.5023
1297.80 286.6641
1297.90 287.2527
1298.00 287.8263
1298.10 288.3516
1298.20 289.3379
1298.30 290.5009
1298.40 291.7483
1298.50 292.8161
1298.60 293.7181
1298.70 296.4925
1298.80 299.131
1298.90 301.0383
1299.00 302.22
1299.10 303.0536
1299.20 303.3934
1299.30 303.1743
1299.40 302.3249
1299.50 301.5844
1299.60 300.3048
1299.70 297.3501
1299.80 294.6703
1299.90 292.156
