# Version 2.1 - nm, norm@500 to 1, cut digits
# Wavelength(nm)  Flambda(ergs/cm^s/s/nm)
300.00 1.407008e-95
300.10 1.407008e-95
300.20 1.407008e-95
300.30 1.407008e-95
300.40 1.407008e-95
300.50 1.407008e-95
300.60 1.407008e-95
300.70 1.407008e-95
300.80 1.407008e-95
300.90 1.407008e-95
301.00 1.407008e-95
301.10 1.407008e-95
301.20 1.407008e-95
301.30 1.407008e-95
301.40 1.407008e-95
301.50 1.407008e-95
301.60 1.407008e-95
301.70 1.407008e-95
301.80 1.407008e-95
301.90 1.407008e-95
302.00 1.407008e-95
302.10 1.407008e-95
302.20 1.407008e-95
302.30 1.407008e-95
302.40 1.407008e-95
302.50 1.407008e-95
302.60 1.407008e-95
302.70 1.407008e-95
302.80 1.407008e-95
302.90 1.407008e-95
303.00 1.407008e-95
303.10 1.407008e-95
303.20 1.407008e-95
303.30 1.407008e-95
303.40 1.407008e-95
303.50 1.407008e-95
303.60 1.407008e-95
303.70 1.407008e-95
303.80 1.407008e-95
303.90 1.407008e-95
304.00 1.407008e-95
304.10 1.407008e-95
304.20 1.407008e-95
304.30 1.407008e-95
304.40 1.407008e-95
304.50 1.407008e-95
304.60 1.407008e-95
304.70 1.407008e-95
304.80 1.407008e-95
304.90 1.407008e-95
305.00 1.407008e-95
305.10 1.407008e-95
305.20 1.407008e-95
305.30 1.407008e-95
305.40 1.407008e-95
305.50 1.407008e-95
305.60 1.407008e-95
305.70 1.407008e-95
305.80 1.407008e-95
305.90 1.407008e-95
306.00 1.407008e-95
306.10 1.407008e-95
306.20 1.407008e-95
306.30 1.407008e-95
306.40 1.407008e-95
306.50 1.407008e-95
306.60 1.407008e-95
306.70 1.407008e-95
306.80 1.407008e-95
306.90 1.407008e-95
307.00 1.407008e-95
307.10 1.407008e-95
307.20 1.407008e-95
307.30 1.407008e-95
307.40 1.407008e-95
307.50 1.407008e-95
307.60 1.407008e-95
307.70 1.407008e-95
307.80 1.407008e-95
307.90 1.407008e-95
308.00 1.407008e-95
308.10 1.407008e-95
308.20 1.407008e-95
308.30 1.407008e-95
308.40 1.407008e-95
308.50 1.407008e-95
308.60 1.407008e-95
308.70 1.407008e-95
308.80 1.407008e-95
308.90 1.407008e-95
309.00 1.407008e-95
309.10 1.407008e-95
309.20 1.407008e-95
309.30 1.407008e-95
309.40 1.407008e-95
309.50 1.407008e-95
309.60 1.407008e-95
309.70 1.407008e-95
309.80 1.407008e-95
309.90 1.407008e-95
310.00 1.407008e-95
310.10 1.407008e-95
310.20 1.407008e-95
310.30 1.407008e-95
310.40 1.407008e-95
310.50 1.407008e-95
310.60 1.407008e-95
310.70 1.407008e-95
310.80 1.407008e-95
310.90 1.407008e-95
311.00 1.407008e-95
311.10 1.407008e-95
311.20 1.407008e-95
311.30 1.407008e-95
311.40 1.407008e-95
311.50 1.407008e-95
311.60 1.407008e-95
311.70 1.407008e-95
311.80 1.407008e-95
311.90 1.407008e-95
312.00 1.407008e-95
312.10 1.407008e-95
312.20 1.407008e-95
312.30 1.407008e-95
312.40 1.407008e-95
312.50 1.407008e-95
312.60 1.407008e-95
312.70 1.407008e-95
312.80 1.407008e-95
312.90 1.407008e-95
313.00 1.407008e-95
313.10 1.407008e-95
313.20 1.407008e-95
313.30 1.407008e-95
313.40 1.407008e-95
313.50 1.407008e-95
313.60 1.407008e-95
313.70 1.407008e-95
313.80 1.407008e-95
313.90 1.407008e-95
314.00 1.407008e-95
314.10 1.407008e-95
314.20 1.407008e-95
314.30 1.407008e-95
314.40 1.407008e-95
314.50 1.407008e-95
314.60 1.407008e-95
314.70 1.407008e-95
314.80 1.407008e-95
314.90 1.407008e-95
315.00 1.407008e-95
315.10 1.407008e-95
315.20 1.407008e-95
315.30 1.407008e-95
315.40 1.407008e-95
315.50 1.407008e-95
315.60 1.407008e-95
315.70 1.407008e-95
315.80 1.407008e-95
315.90 1.407008e-95
316.00 1.407008e-95
316.10 1.407008e-95
316.20 1.407008e-95
316.30 1.407008e-95
316.40 1.407008e-95
316.50 1.407008e-95
316.60 1.407008e-95
316.70 1.407008e-95
316.80 1.407008e-95
316.90 1.407008e-95
317.00 1.407008e-95
317.10 1.407008e-95
317.20 1.407008e-95
317.30 1.407008e-95
317.40 1.407008e-95
317.50 1.407008e-95
317.60 1.407008e-95
317.70 1.407008e-95
317.80 1.407008e-95
317.90 1.407008e-95
318.00 1.407008e-95
318.10 1.407008e-95
318.20 1.407008e-95
318.30 1.407008e-95
318.40 1.407008e-95
318.50 1.407008e-95
318.60 1.407008e-95
318.70 1.407008e-95
318.80 1.407008e-95
318.90 1.407008e-95
319.00 1.407008e-95
319.10 1.407008e-95
319.20 1.407008e-95
319.30 1.407008e-95
319.40 1.407008e-95
319.50 1.407008e-95
319.60 1.407008e-95
319.70 1.407008e-95
319.80 1.407008e-95
319.90 1.407008e-95
320.00 1.407008e-95
320.10 1.407008e-95
320.20 1.407008e-95
320.30 1.407008e-95
320.40 1.407008e-95
320.50 1.407008e-95
320.60 1.407008e-95
320.70 1.407008e-95
320.80 1.407008e-95
320.90 1.407008e-95
321.00 1.407008e-95
321.10 1.407008e-95
321.20 1.407008e-95
321.30 1.407008e-95
321.40 1.407008e-95
321.50 1.407008e-95
321.60 1.407008e-95
321.70 1.407008e-95
321.80 1.407008e-95
321.90 1.407008e-95
322.00 1.407008e-95
322.10 1.407008e-95
322.20 1.407008e-95
322.30 1.407008e-95
322.40 1.407008e-95
322.50 1.407008e-95
322.60 1.407008e-95
322.70 1.407008e-95
322.80 1.407008e-95
322.90 1.407008e-95
323.00 1.407008e-95
323.10 1.407008e-95
323.20 1.407008e-95
323.30 1.407008e-95
323.40 1.407008e-95
323.50 1.407008e-95
323.60 1.407008e-95
323.70 1.407008e-95
323.80 1.407008e-95
323.90 1.407008e-95
324.00 1.407008e-95
324.10 1.407008e-95
324.20 1.407008e-95
324.30 1.407008e-95
324.40 1.407008e-95
324.50 1.407008e-95
324.60 1.407008e-95
324.70 1.407008e-95
324.80 1.407008e-95
324.90 1.407008e-95
325.00 1.407008e-95
325.10 1.407008e-95
325.20 1.407008e-95
325.30 1.407008e-95
325.40 1.407008e-95
325.50 1.407008e-95
325.60 1.407008e-95
325.70 1.407008e-95
325.80 1.407008e-95
325.90 1.407008e-95
326.00 1.407008e-95
326.10 1.407008e-95
326.20 1.407008e-95
326.30 1.407008e-95
326.40 1.407008e-95
326.50 1.407008e-95
326.60 1.407008e-95
326.70 1.407008e-95
326.80 1.407008e-95
326.90 1.407008e-95
327.00 1.407008e-95
327.10 1.407008e-95
327.20 1.407008e-95
327.30 1.407008e-95
327.40 1.407008e-95
327.50 1.407008e-95
327.60 1.407008e-95
327.70 1.407008e-95
327.80 1.407008e-95
327.90 1.407008e-95
328.00 1.407008e-95
328.10 1.407008e-95
328.20 1.407008e-95
328.30 1.407008e-95
328.40 1.407008e-95
328.50 1.407008e-95
328.60 1.407008e-95
328.70 1.407008e-95
328.80 1.407008e-95
328.90 1.407008e-95
329.00 1.407008e-95
329.10 1.407008e-95
329.20 1.407008e-95
329.30 1.407008e-95
329.40 1.407008e-95
329.50 1.407008e-95
329.60 1.407008e-95
329.70 1.407008e-95
329.80 1.407008e-95
329.90 1.407008e-95
330.00 1.407008e-95
330.10 1.407008e-95
330.20 1.407008e-95
330.30 1.407008e-95
330.40 1.407008e-95
330.50 1.407008e-95
330.60 1.407008e-95
330.70 1.407008e-95
330.80 1.407008e-95
330.90 1.407008e-95
331.00 1.407008e-95
331.10 1.407008e-95
331.20 1.407008e-95
331.30 1.407008e-95
331.40 1.407008e-95
331.50 1.407008e-95
331.60 1.407008e-95
331.70 1.407008e-95
331.80 1.407008e-95
331.90 1.407008e-95
332.00 1.407008e-95
332.10 1.407008e-95
332.20 1.407008e-95
332.30 1.407008e-95
332.40 1.407008e-95
332.50 1.407008e-95
332.60 1.407008e-95
332.70 1.407008e-95
332.80 1.407008e-95
332.90 1.407008e-95
333.00 1.407008e-95
333.10 1.407008e-95
333.20 1.407008e-95
333.30 1.407008e-95
333.40 1.407008e-95
333.50 1.407008e-95
333.60 1.407008e-95
333.70 1.407008e-95
333.80 1.407008e-95
333.90 1.407008e-95
334.00 1.407008e-95
334.10 1.407008e-95
334.20 1.407008e-95
334.30 1.407008e-95
334.40 1.407008e-95
334.50 1.407008e-95
334.60 1.407008e-95
334.70 1.407008e-95
334.80 1.407008e-95
334.90 1.407008e-95
335.00 1.407008e-95
335.10 1.407008e-95
335.20 1.407008e-95
335.30 1.407008e-95
335.40 1.407008e-95
335.50 1.407008e-95
335.60 1.407008e-95
335.70 1.407008e-95
335.80 1.407008e-95
335.90 1.407008e-95
336.00 1.407008e-95
336.10 1.407008e-95
336.20 1.407008e-95
336.30 1.407008e-95
336.40 1.407008e-95
336.50 1.407008e-95
336.60 1.407008e-95
336.70 1.407008e-95
336.80 1.407008e-95
336.90 1.407008e-95
337.00 1.407008e-95
337.10 1.407008e-95
337.20 1.407008e-95
337.30 1.407008e-95
337.40 1.407008e-95
337.50 1.407008e-95
337.60 1.407008e-95
337.70 1.407008e-95
337.80 1.407008e-95
337.90 1.407008e-95
338.00 1.407008e-95
338.10 1.407008e-95
338.20 1.407008e-95
338.30 1.407008e-95
338.40 1.407008e-95
338.50 1.407008e-95
338.60 1.407008e-95
338.70 1.407008e-95
338.80 1.407008e-95
338.90 1.407008e-95
339.00 1.407008e-95
339.10 1.407008e-95
339.20 1.407008e-95
339.30 1.407008e-95
339.40 1.407008e-95
339.50 1.407008e-95
339.60 1.407008e-95
339.70 1.407008e-95
339.80 1.407008e-95
339.90 1.407008e-95
340.00 1.407008e-95
340.10 1.407008e-95
340.20 1.407008e-95
340.30 1.407008e-95
340.40 1.407008e-95
340.50 1.407008e-95
340.60 1.407008e-95
340.70 1.407008e-95
340.80 1.407008e-95
340.90 1.407008e-95
341.00 1.407008e-95
341.10 1.407008e-95
341.20 1.407008e-95
341.30 1.407008e-95
341.40 1.407008e-95
341.50 1.407008e-95
341.60 1.407008e-95
341.70 1.407008e-95
341.80 1.407008e-95
341.90 1.407008e-95
342.00 1.407008e-95
342.10 1.407008e-95
342.20 1.407008e-95
342.30 1.407008e-95
342.40 1.407008e-95
342.50 1.407008e-95
342.60 1.407008e-95
342.70 1.407008e-95
342.80 1.407008e-95
342.90 1.407008e-95
343.00 1.407008e-95
343.10 1.407008e-95
343.20 1.407008e-95
343.30 1.407008e-95
343.40 1.407008e-95
343.50 1.407008e-95
343.60 1.407008e-95
343.70 1.407008e-95
343.80 1.407008e-95
343.90 1.407008e-95
344.00 1.407008e-95
344.10 1.407008e-95
344.20 1.407008e-95
344.30 1.407008e-95
344.40 1.407008e-95
344.50 1.407008e-95
344.60 1.407008e-95
344.70 1.407008e-95
344.80 1.407008e-95
344.90 1.407008e-95
345.00 1.407008e-95
345.10 1.407008e-95
345.20 1.407008e-95
345.30 1.407008e-95
345.40 1.407008e-95
345.50 1.407008e-95
345.60 1.407008e-95
345.70 1.407008e-95
345.80 1.407008e-95
345.90 1.407008e-95
346.00 1.407008e-95
346.10 1.407008e-95
346.20 1.407008e-95
346.30 1.407008e-95
346.40 1.407008e-95
346.50 1.407008e-95
346.60 1.407008e-95
346.70 1.407008e-95
346.80 1.407008e-95
346.90 1.407008e-95
347.00 1.407008e-95
347.10 1.407008e-95
347.20 1.407008e-95
347.30 1.407008e-95
347.40 1.407008e-95
347.50 1.407008e-95
347.60 1.407008e-95
347.70 1.407008e-95
347.80 1.407008e-95
347.90 1.407008e-95
348.00 1.407008e-95
348.10 1.407008e-95
348.20 1.407008e-95
348.30 1.407008e-95
348.40 1.407008e-95
348.50 1.407008e-95
348.60 1.407008e-95
348.70 1.407008e-95
348.80 1.407008e-95
348.90 1.407008e-95
349.00 1.407008e-95
349.10 1.407008e-95
349.20 1.407008e-95
349.30 1.407008e-95
349.40 1.407008e-95
349.50 1.407008e-95
349.60 1.407008e-95
349.70 1.407008e-95
349.80 1.407008e-95
349.90 1.407008e-95
350.00 1.407008e-95
350.10 1.407008e-95
350.20 1.407008e-95
350.30 1.407008e-95
350.40 1.407008e-95
350.50 1.407008e-95
350.60 1.407008e-95
350.70 1.407008e-95
350.80 1.407008e-95
350.90 1.407008e-95
351.00 1.407008e-95
351.10 1.407008e-95
351.20 1.407008e-95
351.30 1.407008e-95
351.40 1.407008e-95
351.50 1.407008e-95
351.60 1.407008e-95
351.70 1.407008e-95
351.80 1.407008e-95
351.90 1.407008e-95
352.00 1.407008e-95
352.10 1.407008e-95
352.20 1.407008e-95
352.30 1.407008e-95
352.40 1.407008e-95
352.50 1.407008e-95
352.60 1.407008e-95
352.70 1.407008e-95
352.80 1.407008e-95
352.90 1.407008e-95
353.00 1.407008e-95
353.10 1.407008e-95
353.20 1.407008e-95
353.30 1.407008e-95
353.40 1.407008e-95
353.50 1.407008e-95
353.60 1.407008e-95
353.70 1.407008e-95
353.80 1.407008e-95
353.90 1.407008e-95
354.00 1.407008e-95
354.10 1.407008e-95
354.20 1.407008e-95
354.30 1.407008e-95
354.40 1.407008e-95
354.50 1.407008e-95
354.60 1.407008e-95
354.70 1.407008e-95
354.80 1.407008e-95
354.90 1.407008e-95
355.00 1.407008e-95
355.10 1.407008e-95
355.20 1.407008e-95
355.30 1.407008e-95
355.40 1.407008e-95
355.50 1.407008e-95
355.60 1.407008e-95
355.70 1.407008e-95
355.80 1.407008e-95
355.90 1.407008e-95
356.00 1.407008e-95
356.10 1.407008e-95
356.20 1.407008e-95
356.30 1.407008e-95
356.40 1.407008e-95
356.50 1.407008e-95
356.60 1.407008e-95
356.70 1.407008e-95
356.80 1.407008e-95
356.90 1.407008e-95
357.00 1.407008e-95
357.10 1.407008e-95
357.20 1.407008e-95
357.30 1.407008e-95
357.40 1.407008e-95
357.50 1.407008e-95
357.60 1.407008e-95
357.70 1.407008e-95
357.80 1.407008e-95
357.90 1.407008e-95
358.00 1.407008e-95
358.10 1.407008e-95
358.20 1.407008e-95
358.30 1.407008e-95
358.40 1.407008e-95
358.50 1.407008e-95
358.60 1.407008e-95
358.70 1.407008e-95
358.80 1.407008e-95
358.90 1.407008e-95
359.00 1.407008e-95
359.10 1.407008e-95
359.20 1.407008e-95
359.30 1.407008e-95
359.40 1.407008e-95
359.50 1.407008e-95
359.60 1.407008e-95
359.70 1.407008e-95
359.80 1.407008e-95
359.90 1.407008e-95
360.00 1.407008e-95
360.10 1.407008e-95
360.20 1.407008e-95
360.30 1.407008e-95
360.40 1.407008e-95
360.50 1.407008e-95
360.60 1.407008e-95
360.70 1.407008e-95
360.80 1.407008e-95
360.90 1.407008e-95
361.00 1.407008e-95
361.10 1.407008e-95
361.20 1.407008e-95
361.30 1.407008e-95
361.40 1.407008e-95
361.50 1.407008e-95
361.60 1.407008e-95
361.70 1.407008e-95
361.80 1.407008e-95
361.90 1.407008e-95
362.00 1.407008e-95
362.10 1.407008e-95
362.20 1.407008e-95
362.30 1.407008e-95
362.40 1.407008e-95
362.50 1.407008e-95
362.60 1.407008e-95
362.70 1.407008e-95
362.80 1.407008e-95
362.90 1.407008e-95
363.00 1.407008e-95
363.10 1.407008e-95
363.20 1.407008e-95
363.30 1.407008e-95
363.40 1.407008e-95
363.50 1.407008e-95
363.60 1.407008e-95
363.70 1.407008e-95
363.80 1.407008e-95
363.90 1.407008e-95
364.00 1.407008e-95
364.10 1.407008e-95
364.20 1.407008e-95
364.30 1.407008e-95
364.40 1.407008e-95
364.50 1.407008e-95
364.60 1.407008e-95
364.70 1.407008e-95
364.80 1.407008e-95
364.90 1.407008e-95
365.00 1.407008e-95
365.10 1.407008e-95
365.20 1.407008e-95
365.30 1.407008e-95
365.40 1.407008e-95
365.50 1.407008e-95
365.60 1.407008e-95
365.70 1.407008e-95
365.80 1.407008e-95
365.90 1.407008e-95
366.00 1.407008e-95
366.10 1.407008e-95
366.20 1.407008e-95
366.30 1.407008e-95
366.40 1.407008e-95
366.50 1.407008e-95
366.60 1.407008e-95
366.70 1.407008e-95
366.80 1.407008e-95
366.90 1.407008e-95
367.00 1.407008e-95
367.10 1.407008e-95
367.20 1.407008e-95
367.30 1.407008e-95
367.40 1.407008e-95
367.50 1.407008e-95
367.60 1.407008e-95
367.70 1.407008e-95
367.80 1.407008e-95
367.90 1.407008e-95
368.00 1.407008e-95
368.10 1.407008e-95
368.20 1.407008e-95
368.30 1.407008e-95
368.40 1.407008e-95
368.50 1.407008e-95
368.60 1.407008e-95
368.70 1.407008e-95
368.80 1.407008e-95
368.90 1.407008e-95
369.00 1.407008e-95
369.10 1.407008e-95
369.20 1.407008e-95
369.30 1.407008e-95
369.40 1.407008e-95
369.50 1.407008e-95
369.60 1.407008e-95
369.70 1.407008e-95
369.80 1.407008e-95
369.90 1.407008e-95
370.00 1.407008e-95
370.10 1.407008e-95
370.20 1.407008e-95
370.30 1.407008e-95
370.40 1.407008e-95
370.50 1.407008e-95
370.60 1.407008e-95
370.70 1.407008e-95
370.80 1.407008e-95
370.90 1.407008e-95
371.00 1.407008e-95
371.10 1.407008e-95
371.20 1.407008e-95
371.30 1.407008e-95
371.40 1.407008e-95
371.50 1.407008e-95
371.60 1.407008e-95
371.70 1.407008e-95
371.80 1.407008e-95
371.90 1.407008e-95
372.00 1.407008e-95
372.10 1.407008e-95
372.20 1.407008e-95
372.30 1.407008e-95
372.40 1.407008e-95
372.50 1.407008e-95
372.60 1.407008e-95
372.70 1.407008e-95
372.80 1.407008e-95
372.90 1.407008e-95
373.00 1.407008e-95
373.10 1.407008e-95
373.20 1.407008e-95
373.30 1.407008e-95
373.40 1.407008e-95
373.50 1.407008e-95
373.60 1.407008e-95
373.70 1.407008e-95
373.80 1.407008e-95
373.90 1.407008e-95
374.00 1.407008e-95
374.10 1.407008e-95
374.20 1.407008e-95
374.30 1.407008e-95
374.40 1.407008e-95
374.50 1.407008e-95
374.60 1.407008e-95
374.70 1.407008e-95
374.80 1.407008e-95
374.90 1.407008e-95
375.00 1.407008e-95
375.10 1.407008e-95
375.20 1.407008e-95
375.30 1.407008e-95
375.40 1.407008e-95
375.50 1.407008e-95
375.60 1.407008e-95
375.70 1.407008e-95
375.80 1.407008e-95
375.90 1.407008e-95
376.00 1.407008e-95
376.10 1.407008e-95
376.20 1.407008e-95
376.30 1.407008e-95
376.40 1.407008e-95
376.50 1.407008e-95
376.60 1.407008e-95
376.70 1.407008e-95
376.80 1.407008e-95
376.90 1.407008e-95
377.00 1.407008e-95
377.10 1.407008e-95
377.20 1.407008e-95
377.30 1.407008e-95
377.40 1.407008e-95
377.50 1.407008e-95
377.60 1.407008e-95
377.70 1.407008e-95
377.80 1.407008e-95
377.90 1.407008e-95
378.00 1.407008e-95
378.10 1.407008e-95
378.20 1.407008e-95
378.30 1.407008e-95
378.40 1.407008e-95
378.50 1.407008e-95
378.60 1.407008e-95
378.70 1.407008e-95
378.80 1.407008e-95
378.90 1.407008e-95
379.00 1.407008e-95
379.10 1.407008e-95
379.20 1.407008e-95
379.30 1.407008e-95
379.40 1.407008e-95
379.50 1.407008e-95
379.60 1.407008e-95
379.70 1.407008e-95
379.80 1.407008e-95
379.90 1.407008e-95
380.00 1.407008e-95
380.10 1.407008e-95
380.20 1.407008e-95
380.30 1.407008e-95
380.40 1.407008e-95
380.50 1.407008e-95
380.60 1.407008e-95
380.70 1.407008e-95
380.80 1.407008e-95
380.90 1.407008e-95
381.00 1.407008e-95
381.10 1.407008e-95
381.20 1.407008e-95
381.30 1.407008e-95
381.40 1.407008e-95
381.50 1.407008e-95
381.60 1.407008e-95
381.70 1.407008e-95
381.80 1.407008e-95
381.90 1.407008e-95
382.00 1.407008e-95
382.10 1.407008e-95
382.20 1.407008e-95
382.30 1.407008e-95
382.40 1.407008e-95
382.50 1.407008e-95
382.60 1.407008e-95
382.70 1.407008e-95
382.80 1.407008e-95
382.90 1.407008e-95
383.00 1.407008e-95
383.10 1.407008e-95
383.20 1.407008e-95
383.30 1.407008e-95
383.40 1.407008e-95
383.50 1.407008e-95
383.60 1.407008e-95
383.70 1.407008e-95
383.80 1.407008e-95
383.90 1.407008e-95
384.00 1.407008e-95
384.10 1.407008e-95
384.20 1.407008e-95
384.30 1.407008e-95
384.40 1.407008e-95
384.50 1.407008e-95
384.60 1.407008e-95
384.70 1.407008e-95
384.80 1.407008e-95
384.90 1.407008e-95
385.00 1.407008e-95
385.10 1.407008e-95
385.20 1.407008e-95
385.30 1.407008e-95
385.40 1.407008e-95
385.50 1.407008e-95
385.60 1.407008e-95
385.70 1.407008e-95
385.80 1.407008e-95
385.90 1.407008e-95
386.00 1.407008e-95
386.10 1.407008e-95
386.20 1.407008e-95
386.30 1.407008e-95
386.40 1.407008e-95
386.50 1.407008e-95
386.60 1.407008e-95
386.70 1.407008e-95
386.80 1.407008e-95
386.90 1.407008e-95
387.00 1.407008e-95
387.10 1.407008e-95
387.20 1.407008e-95
387.30 1.407008e-95
387.40 1.407008e-95
387.50 1.407008e-95
387.60 1.407008e-95
387.70 1.407008e-95
387.80 1.407008e-95
387.90 1.407008e-95
388.00 1.407008e-95
388.10 1.407008e-95
388.20 1.407008e-95
388.30 1.407008e-95
388.40 1.407008e-95
388.50 1.407008e-95
388.60 1.407008e-95
388.70 1.407008e-95
388.80 1.407008e-95
388.90 1.407008e-95
389.00 1.407008e-95
389.10 1.407008e-95
389.20 1.407008e-95
389.30 1.407008e-95
389.40 1.407008e-95
389.50 1.407008e-95
389.60 1.407008e-95
389.70 1.407008e-95
389.80 1.407008e-95
389.90 1.407008e-95
390.00 1.407008e-95
390.10 1.407008e-95
390.20 1.407008e-95
390.30 1.407008e-95
390.40 1.407008e-95
390.50 1.407008e-95
390.60 1.407008e-95
390.70 1.407008e-95
390.80 1.407008e-95
390.90 1.407008e-95
391.00 1.407008e-95
391.10 1.407008e-95
391.20 1.407008e-95
391.30 1.407008e-95
391.40 1.407008e-95
391.50 1.407008e-95
391.60 1.407008e-95
391.70 1.407008e-95
391.80 1.407008e-95
391.90 1.407008e-95
392.00 1.407008e-95
392.10 1.407008e-95
392.20 1.407008e-95
392.30 1.407008e-95
392.40 1.407008e-95
392.50 1.407008e-95
392.60 1.407008e-95
392.70 1.407008e-95
392.80 1.407008e-95
392.90 1.407008e-95
393.00 1.407008e-95
393.10 1.407008e-95
393.20 1.407008e-95
393.30 1.407008e-95
393.40 1.407008e-95
393.50 1.407008e-95
393.60 1.407008e-95
393.70 1.407008e-95
393.80 1.407008e-95
393.90 1.407008e-95
394.00 1.407008e-95
394.10 1.407008e-95
394.20 1.407008e-95
394.30 1.407008e-95
394.40 1.407008e-95
394.50 1.407008e-95
394.60 1.407008e-95
394.70 1.407008e-95
394.80 1.407008e-95
394.90 1.407008e-95
395.00 0.005540965
395.10 0.01057225
395.20 0.01537033
395.30 0.02023635
395.40 0.02561858
395.50 0.0320063
395.60 0.03963098
395.70 0.04840729
395.80 0.05797666
395.90 0.06796051
396.00 0.07808245
396.10 0.08796855
396.20 0.09719115
396.30 0.1053433
396.40 0.1121351
396.50 0.1174722
396.60 0.1213966
396.70 0.1241337
396.80 0.1260075
396.90 0.1273325
397.00 0.1285106
397.10 0.1300904
397.20 0.1326117
397.30 0.1362141
397.40 0.1406839
397.50 0.14578
397.60 0.1512881
397.70 0.1570262
397.80 0.1628232
397.90 0.1685399
398.00 0.1741281
398.10 0.1795791
398.20 0.184947
398.30 0.1904152
398.40 0.1961745
398.50 0.2023451
398.60 0.2089849
398.70 0.2160201
398.80 0.2232479
398.90 0.2304636
399.00 0.2374515
399.10 0.244017
399.20 0.2500719
399.30 0.2556093
399.40 0.2606841
399.50 0.2654911
399.60 0.270274
399.70 0.2751149
399.80 0.2799916
399.90 0.2848048
400.00 0.2894043
400.10 0.2938268
400.20 0.298268
400.30 0.3029323
400.40 0.3080266
400.50 0.3136848
400.60 0.3198726
400.70 0.326398
400.80 0.3329259
400.90 0.3389525
401.00 0.3440105
401.10 0.3478623
401.20 0.3505079
401.30 0.3521474
401.40 0.3529636
401.50 0.3529914
401.60 0.3529914
401.70 0.3529914
401.80 0.3529914
401.90 0.3529914
402.00 0.3531886
402.10 0.3543538
402.20 0.3566373
402.30 0.3600825
402.40 0.3644774
402.50 0.3693877
402.60 0.3742509
402.70 0.3785421
402.80 0.3821747
402.90 0.3855558
403.00 0.3891313
403.10 0.3929865
403.20 0.3968807
403.30 0.4005796
403.40 0.4039886
403.50 0.4071389
403.60 0.4100487
403.70 0.4127023
403.80 0.4152099
403.90 0.4178684
404.00 0.4211417
404.10 0.4255023
404.20 0.4311944
404.30 0.4381261
404.40 0.4459253
404.50 0.4541245
404.60 0.4622605
404.70 0.4698705
404.80 0.4766286
404.90 0.482352
405.00 0.4814512
405.10 0.480154
405.20 0.478526
405.30 0.4766246
405.40 0.4742309
405.50 0.4709101
405.60 0.4663823
405.70 0.460662
405.80 0.4541212
405.90 0.447259
406.00 0.4404642
406.10 0.4341813
406.20 0.4289039
406.30 0.4251866
406.40 0.4234339
406.50 0.4236794
406.60 0.42572
406.70 0.4291734
406.80 0.4335977
406.90 0.4384946
407.00 0.4431956
407.10 0.4469273
407.20 0.4490453
407.30 0.4494793
407.40 0.4486908
407.50 0.4472202
407.60 0.4454365
407.70 0.4433514
407.80 0.4408344
407.90 0.4377759
408.00 0.4340236
408.10 0.4296042
408.20 0.424728
408.30 0.4197025
408.40 0.4149461
408.50 0.410842
408.60 0.4075453
408.70 0.4048936
408.80 0.4025275
408.90 0.399949
409.00 0.396693
409.10 0.3925156
409.20 0.3873918
409.30 0.3818544
409.40 0.3767796
409.50 0.3719726
409.60 0.3671897
409.70 0.3632582
409.80 0.3605382
409.90 0.3591201
410.00 0.3588819
410.10 0.3594704
410.20 0.3604421
410.30 0.3614081
410.40 0.3620981
410.50 0.3624327
410.60 0.3625257
410.70 0.3625889
410.80 0.3628193
410.90 0.3633543
411.00 0.364142
411.10 0.3648955
411.20 0.3653891
411.30 0.3657145
411.40 0.3664077
411.50 0.368277
411.60 0.3712744
411.70 0.3759
411.80 0.3824023
411.90 0.3906415
412.00 0.4000372
412.10 0.4093388
412.20 0.4178793
412.30 0.425255
412.40 0.4315504
412.50 0.4371995
412.60 0.4427568
412.70 0.4487329
412.80 0.4552373
412.90 0.46188
413.00 0.4681556
413.10 0.4738251
413.20 0.4789198
413.30 0.483501
413.40 0.4875198
413.50 0.4907866
413.60 0.4932175
413.70 0.4949714
413.80 0.4962774
413.90 0.4972982
414.00 0.4979685
414.10 0.4979572
414.20 0.4969081
414.30 0.4946181
414.40 0.4910937
414.50 0.4864917
414.60 0.4810045
414.70 0.4749383
414.80 0.468711
414.90 0.4629877
415.00 0.4583475
415.10 0.4548719
415.20 0.4529317
415.30 0.4525362
415.40 0.4535083
415.50 0.4555492
415.60 0.4583004
415.70 0.4613987
415.80 0.4644862
415.90 0.4672641
416.00 0.4696517
416.10 0.4716641
416.20 0.4732142
416.30 0.474087
416.40 0.4740008
416.50 0.4727363
416.60 0.4701966
416.70 0.4664297
416.80 0.4617262
416.90 0.4568229
417.00 0.4528562
417.10 0.4509541
417.20 0.4518469
417.30 0.4556098
417.40 0.4616536
417.50 0.4690134
417.60 0.4766491
417.70 0.4837531
417.80 0.4899412
417.90 0.4952553
418.00 0.5000243
418.10 0.5046029
418.20 0.5093029
418.30 0.514283
418.40 0.5194616
418.50 0.5246382
418.60 0.5296425
418.70 0.5344916
418.80 0.5393777
418.90 0.5446459
419.00 0.5506934
419.10 0.5576563
419.20 0.5652595
419.30 0.5725647
419.40 0.5784305
419.50 0.5829799
419.60 0.5865425
419.70 0.5886097
419.80 0.5892449
419.90 0.5887623
420.00 0.5875771
420.10 0.5860582
420.20 0.5844378
420.30 0.5827191
420.40 0.5807682
420.50 0.57851
420.60 0.5760228
420.70 0.5737011
420.80 0.5721408
420.90 0.5719864
421.00 0.5738785
421.10 0.5780992
421.20 0.5842713
421.30 0.5915337
421.40 0.5988959
421.50 0.6054594
421.60 0.610523
421.70 0.6136633
421.80 0.6147646
421.90 0.6140568
422.00 0.611957
422.10 0.6088047
422.20 0.6048649
422.30 0.6002693
422.40 0.5949386
422.50 0.5889073
422.60 0.5825031
422.70 0.5761197
422.80 0.5699892
422.90 0.5641891
423.00 0.5588138
423.10 0.5540371
423.20 0.550016
423.30 0.546708
423.40 0.5439627
423.50 0.5417204
423.60 0.5399351
423.70 0.538492
423.80 0.5372414
423.90 0.5359579
424.00 0.5344105
424.10 0.5325186
424.20 0.5303639
424.30 0.5282016
424.40 0.5263408
424.50 0.5250038
424.60 0.5244172
424.70 0.5247628
424.80 0.5260262
424.90 0.5278908
425.00 0.5300242
425.10 0.5322724
425.20 0.5338778
425.30 0.5343394
425.40 0.5335076
425.50 0.5316365
425.60 0.5292512
425.70 0.5268799
425.80 0.5247473
425.90 0.5227482
426.00 0.5206164
426.10 0.5181665
426.20 0.5154798
426.30 0.5128068
426.40 0.5105583
426.50 0.5092728
426.60 0.5094165
426.70 0.5112874
426.80 0.5148236
426.90 0.5193662
427.00 0.5237539
427.10 0.5267417
427.20 0.5274718
427.30 0.5256985
427.40 0.5216598
427.50 0.5159358
427.60 0.5093695
427.70 0.5029026
427.80 0.4973059
427.90 0.4929685
428.00 0.4899761
428.10 0.4881147
428.20 0.4868824
428.30 0.4857374
428.40 0.484199
428.50 0.4818658
428.60 0.4785579
428.70 0.4744031
428.80 0.4697333
428.90 0.4649667
429.00 0.4605015
429.10 0.4566555
429.20 0.4536693
429.30 0.4517167
429.40 0.4508123
429.50 0.4507177
429.60 0.4510054
429.70 0.4512219
429.80 0.451081
429.90 0.4505948
430.00 0.4501025
430.10 0.4499648
430.20 0.4504484
430.30 0.4516681
430.40 0.4534328
430.50 0.4552963
430.60 0.4566142
430.70 0.4566425
430.80 0.4548146
430.90 0.4509506
431.00 0.4452484
431.10 0.438408
431.20 0.4314953
431.30 0.4254395
431.40 0.4206174
431.50 0.4169582
431.60 0.4141205
431.70 0.4116517
431.80 0.4091054
431.90 0.4061113
432.00 0.4025183
432.10 0.3984599
432.20 0.3942644
432.30 0.3902819
432.40 0.3869327
432.50 0.3845147
432.60 0.3830408
432.70 0.382335
432.80 0.3821341
432.90 0.3821649
433.00 0.382197
433.10 0.3820386
433.20 0.3816645
433.30 0.3813031
433.40 0.3813109
433.50 0.3820172
433.60 0.383657
433.70 0.3863309
433.80 0.3898452
433.90 0.393682
434.00 0.3971859
434.10 0.399837
434.20 0.4014361
434.30 0.40212
434.40 0.4023
434.50 0.4025479
434.60 0.4033686
434.70 0.4050777
434.80 0.407707
434.90 0.4108921
435.00 0.4140474
435.10 0.4166251
435.20 0.418296
435.30 0.4190521
435.40 0.4191484
435.50 0.418989
435.60 0.418907
435.70 0.4190386
435.80 0.4194434
435.90 0.4201257
436.00 0.4209888
436.10 0.4218807
436.20 0.4225713
436.30 0.4227913
436.40 0.4223013
436.50 0.4209359
436.60 0.4186578
436.70 0.4155322
436.80 0.4117277
436.90 0.4074884
437.00 0.4031535
437.10 0.3991458
437.20 0.3957892
437.30 0.3931273
437.40 0.390979
437.50 0.3890619
437.60 0.3871501
437.70 0.3852081
437.80 0.3832856
437.90 0.3815288
438.00 0.3801701
438.10 0.3794415
438.20 0.3795054
438.30 0.3803939
438.40 0.3820842
438.50 0.3845515
438.60 0.3876248
438.70 0.391037
438.80 0.3944877
438.90 0.3974912
439.00 0.3994592
439.10 0.4000077
439.20 0.3991852
439.30 0.3974057
439.40 0.3952232
439.50 0.3932152
439.60 0.3919795
439.70 0.3919713
439.80 0.3932457
439.90 0.3954165
440.00 0.3978375
440.10 0.3998744
440.20 0.4010398
440.30 0.401224
440.40 0.4006956
440.50 0.3998914
440.60 0.3993019
440.70 0.3992633
440.80 0.3999314
440.90 0.4013097
441.00 0.4032201
441.10 0.4053499
441.20 0.4074186
441.30 0.4092834
441.40 0.4109416
441.50 0.4125156
441.60 0.4142785
441.70 0.4164131
441.80 0.4190282
441.90 0.4222067
442.00 0.4259181
442.10 0.430085
442.20 0.4346289
442.30 0.4395062
442.40 0.4445511
442.50 0.4494575
442.60 0.4538891
442.70 0.4576098
442.80 0.4606234
442.90 0.4630643
443.00 0.4650186
443.10 0.4666325
443.20 0.4680518
443.30 0.4693544
443.40 0.4705477
443.50 0.4715785
443.60 0.4722933
443.70 0.4724127
443.80 0.4718204
443.90 0.4707248
444.00 0.4695264
444.10 0.4685579
444.20 0.4679047
444.30 0.4674199
444.40 0.4668322
444.50 0.4657643
444.60 0.4638832
444.70 0.4610755
444.80 0.4575077
444.90 0.4536645
445.00 0.4502407
445.10 0.4479701
445.20 0.4473765
445.30 0.4486367
445.40 0.4515385
445.50 0.4555393
445.60 0.4600145
445.70 0.4644509
445.80 0.4685789
445.90 0.4724198
446.00 0.4761147
446.10 0.4797468
446.20 0.4833324
446.30 0.4868969
446.40 0.4905214
446.50 0.4942717
446.60 0.4981142
446.70 0.5018887
446.80 0.5054872
446.90 0.5089031
447.00 0.5120105
447.10 0.5145869
447.20 0.5164015
447.30 0.5174357
447.40 0.518038
447.50 0.5187663
447.60 0.5202107
447.70 0.5226983
447.80 0.5261786
447.90 0.530335
448.00 0.5346797
448.10 0.5386121
448.20 0.5414658
448.30 0.542736
448.40 0.5423242
448.50 0.5404934
448.60 0.5378074
448.70 0.5349038
448.80 0.532354
448.90 0.5307252
449.00 0.5304631
449.10 0.5318513
449.20 0.5349426
449.30 0.539445
449.40 0.544785
449.50 0.5503248
449.60 0.555449
449.70 0.5595875
449.80 0.5624437
449.90 0.5641071
450.00 0.5649261
450.10 0.565468
450.20 0.5663343
450.30 0.5679503
450.40 0.5705967
450.50 0.5743701
450.60 0.579155
450.70 0.5847356
450.80 0.5909212
450.90 0.5975574
451.00 0.6045475
451.10 0.6118247
451.20 0.6191727
451.30 0.6262097
451.40 0.6325346
451.50 0.6378258
451.60 0.6419192
451.70 0.6449218
451.80 0.6470754
451.90 0.6486555
452.00 0.6499857
452.10 0.6513831
452.20 0.6530488
452.30 0.6550451
452.40 0.6573993
452.50 0.6600791
452.60 0.6629868
452.70 0.6659593
452.80 0.6687818
452.90 0.6712475
453.00 0.6732409
453.10 0.6747033
453.20 0.6756124
453.30 0.6760066
453.40 0.6760112
453.50 0.6759113
453.60 0.6761571
453.70 0.6772285
453.80 0.6794015
453.90 0.6827739
454.00 0.6874005
454.10 0.6932985
454.20 0.7004332
454.30 0.7086495
454.40 0.7175432
454.50 0.7265572
454.60 0.7351845
454.70 0.7430121
454.80 0.749725
454.90 0.7550662
455.00 0.7588253
455.10 0.7608761
455.20 0.7612359
455.30 0.7601319
455.40 0.7579429
455.50 0.7550943
455.60 0.7519559
455.70 0.7488564
455.80 0.7461617
455.90 0.7441796
456.00 0.7430708
456.10 0.7428847
456.20 0.7436359
456.30 0.745267
456.40 0.7475339
456.50 0.7501185
456.60 0.7528615
456.70 0.7557243
456.80 0.7585855
456.90 0.7613817
457.00 0.7644028
457.10 0.7681427
457.20 0.7730167
457.30 0.7791946
457.40 0.7865653
457.50 0.7947719
457.60 0.8031779
457.70 0.8110893
457.80 0.8180279
457.90 0.8237488
458.00 0.8281859
458.10 0.8315516
458.20 0.8344112
458.30 0.8373916
458.40 0.8408328
458.50 0.8447361
458.60 0.8488738
458.70 0.8529383
458.80 0.8565247
458.90 0.8592052
459.00 0.8607793
459.10 0.8612522
459.20 0.8607599
459.30 0.8596325
459.40 0.8583933
459.50 0.8575292
459.60 0.8573657
459.70 0.8581269
459.80 0.8598585
459.90 0.8624076
460.00 0.8655451
460.10 0.8689726
460.20 0.8725125
460.30 0.876212
460.40 0.8799959
460.50 0.8835985
460.60 0.8867703
460.70 0.88926
460.80 0.8907556
460.90 0.8910176
461.00 0.8899312
461.10 0.8875339
461.20 0.8841236
461.30 0.8802222
461.40 0.87638
461.50 0.8730161
461.60 0.870309
461.70 0.8681355
461.80 0.8663487
461.90 0.8649608
462.00 0.8640318
462.10 0.8636702
462.20 0.8640049
462.30 0.8650198
462.40 0.8664633
462.50 0.8679723
462.60 0.8691751
462.70 0.8696921
462.80 0.8692308
462.90 0.8677798
463.00 0.865648
463.10 0.8633295
463.20 0.8613789
463.30 0.8603118
463.40 0.8605351
463.50 0.8621051
463.60 0.8646785
463.70 0.8677276
463.80 0.8707091
463.90 0.873101
464.00 0.8743716
464.10 0.8741905
464.20 0.872514
464.30 0.8694855
464.40 0.8654419
464.50 0.8610261
464.60 0.8570623
464.70 0.8542015
464.80 0.8527939
464.90 0.8530062
465.00 0.8547964
465.10 0.857937
465.20 0.8621644
465.30 0.8670449
465.40 0.8720836
465.50 0.8769127
465.60 0.881298
465.70 0.8851614
465.80 0.8885524
465.90 0.8915813
466.00 0.8943318
466.10 0.8968532
466.20 0.8991688
466.30 0.901297
466.40 0.903339
466.50 0.905443
466.60 0.9077318
466.70 0.9104324
466.80 0.9137313
466.90 0.9175786
467.00 0.9217166
467.10 0.9256986
467.20 0.9290333
467.30 0.9313104
467.40 0.9322785
467.50 0.9319623
467.60 0.9305932
467.70 0.9284749
467.80 0.9259
467.90 0.9230744
468.00 0.9201085
468.10 0.9169918
468.20 0.9136914
468.30 0.9102197
468.40 0.9066383
468.50 0.9031439
468.60 0.89995
468.70 0.8971843
468.80 0.8949982
468.90 0.8935439
469.00 0.8929492
469.10 0.8933185
469.20 0.8946411
469.30 0.896801
469.40 0.8995854
469.50 0.902799
469.60 0.9063677
469.70 0.9102271
469.80 0.9142847
469.90 0.9184749
470.00 0.9227171
470.10 0.9268442
470.20 0.9304895
470.30 0.9331492
470.40 0.9345014
470.50 0.9345422
470.60 0.933498
470.70 0.9317325
470.80 0.9296189
470.90 0.9273548
471.00 0.9249421
471.10 0.9223419
471.20 0.9195125
471.30 0.9163891
471.40 0.9130007
471.50 0.9094742
471.60 0.9059795
471.70 0.9027457
471.80 0.8998771
471.90 0.8971833
472.00 0.8943172
472.10 0.8909253
472.20 0.8867952
472.30 0.8820265
472.40 0.8770077
472.50 0.8722031
472.60 0.8680313
472.70 0.8648848
472.80 0.8630404
472.90 0.8625499
473.00 0.863205
473.10 0.8645912
473.20 0.8662417
473.30 0.8677745
473.40 0.8688326
473.50 0.8690618
473.60 0.8681737
473.70 0.8660297
473.80 0.8627313
473.90 0.8586067
474.00 0.8542213
474.10 0.8502018
474.20 0.8470053
474.30 0.8449496
474.40 0.8443454
474.50 0.8452878
474.60 0.8473676
474.70 0.8499057
474.80 0.8522843
474.90 0.8540074
475.00 0.8548391
475.10 0.8547555
475.20 0.8537354
475.30 0.8518835
475.40 0.8493777
475.50 0.8462943
475.60 0.8427183
475.70 0.8387834
475.80 0.8345184
475.90 0.829913
476.00 0.8251232
476.10 0.8203959
476.20 0.8159589
476.30 0.8120017
476.40 0.8085725
476.50 0.8055347
476.60 0.8025876
476.70 0.7993123
476.80 0.7954111
476.90 0.7908254
477.00 0.7855601
477.10 0.7796705
477.20 0.7733633
477.30 0.7669818
477.40 0.7608829
477.50 0.7552783
477.60 0.750236
477.70 0.7457907
477.80 0.7420475
477.90 0.7393255
478.00 0.7381389
478.10 0.7388883
478.20 0.7415895
478.30 0.7458738
478.40 0.7511634
478.50 0.756807
478.60 0.7621741
478.70 0.7666657
478.80 0.7698234
478.90 0.7715075
479.00 0.7718156
479.10 0.7709505
479.20 0.7691347
479.30 0.7664065
479.40 0.7625751
479.50 0.7574237
479.60 0.7508462
479.70 0.7429789
479.80 0.7342385
479.90 0.7250585
480.00 0.7156907
480.10 0.7062996
480.20 0.6970316
480.30 0.688021
480.40 0.6795023
480.50 0.6717694
480.60 0.6652162
480.70 0.6604919
480.80 0.6584209
480.90 0.6597587
481.00 0.664876
481.10 0.6735528
481.20 0.6849902
481.30 0.6980508
481.40 0.7115322
481.50 0.7243386
481.60 0.7356019
481.70 0.744801
481.80 0.7518419
481.90 0.7571323
482.00 0.76136
482.10 0.7650988
482.20 0.7686916
482.30 0.7722654
482.40 0.7758641
482.50 0.7795447
482.60 0.7833655
482.70 0.7873212
482.80 0.7913407
482.90 0.7953702
483.00 0.7994211
483.10 0.8034889
483.20 0.8074653
483.30 0.8111674
483.40 0.8144253
483.50 0.8172293
483.60 0.8197787
483.70 0.8223759
483.80 0.8252721
483.90 0.8286109
484.00 0.8323762
484.10 0.8363998
484.20 0.8404687
484.30 0.8443141
484.40 0.8475469
484.50 0.849834
484.60 0.8511661
484.70 0.8518044
484.80 0.8521158
484.90 0.8525413
485.00 0.853458
485.10 0.8551464
485.20 0.8578815
485.30 0.8618166
485.40 0.8669446
485.50 0.8732024
485.60 0.8804612
485.70 0.8884664
485.80 0.896894
485.90 0.9053746
486.00 0.9134782
486.10 0.92082
486.20 0.9271082
486.30 0.9321603
486.40 0.936027
486.50 0.9389859
486.60 0.94145
486.70 0.9438452
486.80 0.9465497
486.90 0.9497885
487.00 0.9535835
487.10 0.957925
487.20 0.9628644
487.30 0.968451
487.40 0.9746439
487.50 0.9813906
487.60 0.9887397
487.70 0.9967189
487.80 1.005152
487.90 1.013538
488.00 1.021131
488.10 1.02735
488.20 1.031938
488.30 1.034947
488.40 1.036751
488.50 1.037841
488.60 1.038736
488.70 1.040011
488.80 1.042201
488.90 1.045618
489.00 1.050225
489.10 1.055726
489.20 1.061745
489.30 1.06805
489.40 1.074695
489.50 1.081719
489.60 1.088954
489.70 1.096193
489.80 1.103197
489.90 1.109766
490.00 1.115771
490.10 1.121173
490.20 1.126066
490.30 1.130553
490.40 1.134636
490.50 1.138166
490.60 1.140803
490.70 1.141993
490.80 1.140984
490.90 1.13708
491.00 1.129982
491.10 1.119772
491.20 1.106941
491.30 1.092389
491.40 1.077242
491.50 1.06265
491.60 1.049647
491.70 1.039007
491.80 1.03115
491.90 1.026108
492.00 1.023502
492.10 1.022666
492.20 1.022798
492.30 1.023086
492.40 1.022766
492.50 1.021351
492.60 1.018733
492.70 1.015124
492.80 1.010988
492.90 1.006853
493.00 1.003125
493.10 1.000118
493.20 0.9980367
493.30 0.9968595
493.40 0.9964153
493.50 0.9964508
493.60 0.9966822
493.70 0.9969268
493.80 0.9972042
493.90 0.9976994
494.00 0.9986987
494.10 1.00051
494.20 1.00332
494.30 1.007114
494.40 1.011678
494.50 1.016556
494.60 1.021133
494.70 1.024838
494.80 1.027188
494.90 1.027803
495.00 1.026525
495.10 1.023467
495.20 1.01898
495.30 1.013522
495.40 1.007554
495.50 1.001489
495.60 0.9956662
495.70 0.9904171
495.80 0.9861175
495.90 0.9831245
496.00 0.9816181
496.10 0.9816012
496.20 0.9830517
496.30 0.9859093
496.40 0.9899595
496.50 0.9949097
496.60 1.000388
496.70 1.005952
496.80 1.011148
496.90 1.015681
497.00 1.019502
497.10 1.022608
497.20 1.024818
497.30 1.025827
497.40 1.025467
497.50 1.023767
497.60 1.02089
497.70 1.017219
497.80 1.013368
497.90 1.00994
498.00 1.007378
498.10 1.005865
498.20 1.005306
498.30 1.005317
498.40 1.005356
498.50 1.005041
498.60 1.004245
498.70 1.003063
498.80 1.001689
498.90 1.000321
499.00 0.9991647
499.10 0.9983505
499.20 0.9979219
499.30 0.9978488
499.40 0.9980038
499.50 0.9983117
499.60 0.998779
499.70 0.9993358
499.80 0.9998178
499.90 1.000047
500.00 1
500.10 0.999802
500.20 0.9996949
500.30 1.000016
500.40 1.001109
500.50 1.003322
500.60 1.006889
500.70 1.011817
500.80 1.017926
500.90 1.024937
501.00 1.032615
501.10 1.040956
501.20 1.050117
501.30 1.06014
501.40 1.070887
501.50 1.082096
501.60 1.09339
501.70 1.104342
501.80 1.114494
501.90 1.123359
502.00 1.130603
502.10 1.136277
502.20 1.140811
502.30 1.144758
502.40 1.148619
502.50 1.152721
502.60 1.15718
502.70 1.161973
502.80 1.166895
502.90 1.171639
503.00 1.17589
503.10 1.179286
503.20 1.181529
503.30 1.182633
503.40 1.182882
503.50 1.182671
503.60 1.182475
503.70 1.182779
503.80 1.183895
503.90 1.185816
504.00 1.188181
504.10 1.190337
504.20 1.191584
504.30 1.191433
504.40 1.18975
504.50 1.186906
504.60 1.18369
504.70 1.181016
504.80 1.179717
504.90 1.180345
505.00 1.182959
505.10 1.187141
505.20 1.192121
505.30 1.197032
505.40 1.201173
505.50 1.204133
505.60 1.205832
505.70 1.206444
505.80 1.206247
505.90 1.205485
506.00 1.204395
506.10 1.20316
506.20 1.201861
506.30 1.200557
506.40 1.199347
506.50 1.198347
506.60 1.197702
506.70 1.197527
506.80 1.197852
506.90 1.198689
507.00 1.20006
507.10 1.201977
507.20 1.204449
507.30 1.207513
507.40 1.211121
507.50 1.215065
507.60 1.21904
507.70 1.222688
507.80 1.225631
507.90 1.227653
508.00 1.22881
508.10 1.229342
508.20 1.229646
508.30 1.230195
508.40 1.231248
508.50 1.232735
508.60 1.234458
508.70 1.236252
508.80 1.238048
508.90 1.239935
509.00 1.242124
509.10 1.244872
509.20 1.248353
509.30 1.252472
509.40 1.25687
509.50 1.261125
509.60 1.264891
509.70 1.267968
509.80 1.270454
509.90 1.272678
510.00 1.274946
510.10 1.277373
510.20 1.279879
510.30 1.282245
510.40 1.284156
510.50 1.285317
510.60 1.285681
510.70 1.285495
510.80 1.285182
510.90 1.285256
511.00 1.286068
511.10 1.287607
511.20 1.289449
511.30 1.291018
511.40 1.291818
511.50 1.291464
511.60 1.289795
511.70 1.28689
511.80 1.283036
511.90 1.278631
512.00 1.273996
512.10 1.269271
512.20 1.264448
512.30 1.259472
512.40 1.254356
512.50 1.249154
512.60 1.243947
512.70 1.238819
512.80 1.233847
512.90 1.229093
513.00 1.224584
513.10 1.220399
513.20 1.216663
513.30 1.213458
513.40 1.21084
513.50 1.208956
513.60 1.207945
513.70 1.20773
513.80 1.207996
513.90 1.208424
514.00 1.208819
514.10 1.209122
514.20 1.209441
514.30 1.210022
514.40 1.211101
514.50 1.212721
514.60 1.214689
514.70 1.216662
514.80 1.218262
514.90 1.219213
515.00 1.219473
515.10 1.219187
515.20 1.21861
515.30 1.217998
515.40 1.217554
515.50 1.217318
515.60 1.217033
515.70 1.216333
515.80 1.215008
515.90 1.213091
516.00 1.210868
516.10 1.208825
516.20 1.207462
516.30 1.207182
516.40 1.208188
516.50 1.210403
516.60 1.213513
516.70 1.217057
516.80 1.220535
516.90 1.223535
517.00 1.225861
517.10 1.227492
517.20 1.228508
517.30 1.229147
517.40 1.229783
517.50 1.230839
517.60 1.232694
517.70 1.235496
517.80 1.239139
517.90 1.243383
518.00 1.247956
518.10 1.25268
518.20 1.257442
518.30 1.262188
518.40 1.267014
518.50 1.272143
518.60 1.277746
518.70 1.283766
518.80 1.289923
518.90 1.295707
519.00 1.300516
519.10 1.303844
519.20 1.305399
519.30 1.305262
519.40 1.303824
519.50 1.301615
519.60 1.299255
519.70 1.29736
519.80 1.296358
519.90 1.296497
520.00 1.297899
520.10 1.300502
520.20 1.304046
520.30 1.308261
520.40 1.312971
520.50 1.318003
520.60 1.323083
520.70 1.327808
520.80 1.331802
520.90 1.334808
521.00 1.336748
521.10 1.337829
521.20 1.338585
521.30 1.339569
521.40 1.341156
521.50 1.343655
521.60 1.347243
521.70 1.351895
521.80 1.357446
521.90 1.363654
522.00 1.370341
522.10 1.377486
522.20 1.385102
522.30 1.393153
522.40 1.401539
522.50 1.410028
522.60 1.418248
522.70 1.4259
522.80 1.432957
522.90 1.439698
523.00 1.446608
523.10 1.454161
523.20 1.462608
523.30 1.471925
523.40 1.481872
523.50 1.491974
523.60 1.501604
523.70 1.510179
523.80 1.517333
523.90 1.522982
524.00 1.527316
524.10 1.530772
524.20 1.533853
524.30 1.536999
524.40 1.540561
524.50 1.544722
524.60 1.5495
524.70 1.554834
524.80 1.560553
524.90 1.566366
525.00 1.572003
525.10 1.577375
525.20 1.582633
525.30 1.588155
525.40 1.594362
525.50 1.60159
525.60 1.61006
525.70 1.619662
525.80 1.629839
525.90 1.639817
526.00 1.648731
526.10 1.655759
526.20 1.660306
526.30 1.662104
526.40 1.661269
526.50 1.658218
526.60 1.653515
526.70 1.647838
526.80 1.641913
526.90 1.636284
527.00 1.631171
527.10 1.62662
527.20 1.622676
527.30 1.61929
527.40 1.61636
527.50 1.613794
527.60 1.611504
527.70 1.609433
527.80 1.607526
527.90 1.605641
528.00 1.603487
528.10 1.600642
528.20 1.596763
528.30 1.591804
528.40 1.586018
528.50 1.579817
528.60 1.573713
528.70 1.56826
528.80 1.563874
528.90 1.560786
529.00 1.559049
529.10 1.558516
529.20 1.558877
529.30 1.559821
529.40 1.561202
529.50 1.562998
529.60 1.565163
529.70 1.567601
529.80 1.570191
529.90 1.572739
530.00 1.574976
530.10 1.576748
530.20 1.578115
530.30 1.579138
530.40 1.579828
530.50 1.580297
530.60 1.580767
530.70 1.58148
530.80 1.582622
530.90 1.584281
531.00 1.586387
531.10 1.588645
531.20 1.590579
531.30 1.591848
531.40 1.592451
531.50 1.592573
531.60 1.5925
531.70 1.592571
531.80 1.593014
531.90 1.593875
532.00 1.594973
532.10 1.595904
532.20 1.596175
532.30 1.595403
532.40 1.593533
532.50 1.591014
532.60 1.588726
532.70 1.587602
532.80 1.588202
532.90 1.590533
533.00 1.594156
533.10 1.598462
533.20 1.602915
533.30 1.607128
533.40 1.610918
533.50 1.614353
533.60 1.617697
533.70 1.621298
533.80 1.625389
533.90 1.630031
534.00 1.635164
534.10 1.640604
534.20 1.646163
534.30 1.651693
534.40 1.657125
534.50 1.662558
534.60 1.668231
534.70 1.674409
534.80 1.681341
534.90 1.689278
535.00 1.698331
535.10 1.708327
535.20 1.71887
535.30 1.729423
535.40 1.739386
535.50 1.748292
535.60 1.75597
535.70 1.762644
535.80 1.768821
535.90 1.775006
536.00 1.781577
536.10 1.788782
536.20 1.796761
536.30 1.805439
536.40 1.814582
536.50 1.824051
536.60 1.833872
536.70 1.844065
536.80 1.854642
536.90 1.865633
537.00 1.876923
537.10 1.888201
537.20 1.899098
537.30 1.90932
537.40 1.918667
537.50 1.926995
537.60 1.9342
537.70 1.94037
537.80 1.945886
537.90 1.951306
538.00 1.957216
538.10 1.964161
538.20 1.972434
538.30 1.981924
538.40 1.992235
538.50 2.002777
538.60 2.012809
538.70 2.021634
538.80 2.028828
538.90 2.034313
539.00 2.038377
539.10 2.041611
539.20 2.044683
539.30 2.048126
539.40 2.052255
539.50 2.057136
539.60 2.062691
539.70 2.068701
539.80 2.074737
539.90 2.0803
540.00 2.085013
540.10 2.088664
540.20 2.091207
540.30 2.09287
540.40 2.094061
540.50 2.095054
540.60 2.095911
540.70 2.096645
540.80 2.09727
540.90 2.097747
541.00 2.098039
541.10 2.098248
541.20 2.09867
541.30 2.099631
541.40 2.101282
541.50 2.103536
541.60 2.10608
541.70 2.108417
541.80 2.110043
541.90 2.11077
542.00 2.110841
542.10 2.110761
542.20 2.111124
542.30 2.112385
542.40 2.114608
542.50 2.11747
542.60 2.120394
542.70 2.122675
542.80 2.123671
542.90 2.122972
543.00 2.12043
543.10 2.116141
543.20 2.110398
543.30 2.103519
543.40 2.095745
543.50 2.08724
543.60 2.078146
543.70 2.068724
543.80 2.059429
543.90 2.050631
544.00 2.042451
544.10 2.034922
544.20 2.027977
544.30 2.021329
544.40 2.0145
544.50 2.006918
544.60 1.998021
544.70 1.987475
544.80 1.975303
544.90 1.961821
545.00 1.947547
545.10 1.933099
545.20 1.91899
545.30 1.905509
545.40 1.892639
545.50 1.880059
545.60 1.867374
545.70 1.854326
545.80 1.840856
545.90 1.827116
546.00 1.813492
546.10 1.800399
546.20 1.788083
546.30 1.776596
546.40 1.765723
546.50 1.755014
546.60 1.743902
546.70 1.731945
546.80 1.718985
546.90 1.705127
547.00 1.690638
547.10 1.67575
547.20 1.660602
547.30 1.645357
547.40 1.630126
547.50 1.615042
547.60 1.600341
547.70 1.586262
547.80 1.572939
547.90 1.560323
548.00 1.548226
548.10 1.53637
548.20 1.524574
548.30 1.512834
548.40 1.501203
548.50 1.489795
548.60 1.478741
548.70 1.468004
548.80 1.457506
548.90 1.447193
549.00 1.436917
549.10 1.426435
549.20 1.415609
549.30 1.404498
549.40 1.393242
549.50 1.381978
549.60 1.37071
549.70 1.359341
549.80 1.347832
549.90 1.336291
550.00 1.258189
550.10 1.245828
550.20 1.23303
550.30 1.219316
550.40 1.204484
550.50 1.188724
550.60 1.172575
550.70 1.156436
550.80 1.140574
550.90 1.125324
551.00 1.111014
551.10 1.097663
551.20 1.085154
551.30 1.073721
551.40 1.063909
551.50 1.056386
551.60 1.051572
551.70 1.049116
551.80 1.048201
551.90 1.047842
552.00 1.046926
552.10 1.044504
552.20 1.040105
552.30 1.033929
552.40 1.026981
552.50 1.020801
552.60 1.016522
552.70 1.014168
552.80 1.012862
552.90 1.011499
553.00 1.009219
553.10 1.005813
553.20 1.001513
553.30 0.996586
553.40 0.9914072
553.50 0.9863567
553.60 0.981773
553.70 0.9779011
553.80 0.974635
553.90 0.9718027
554.00 0.9695379
554.10 0.9684359
554.20 0.9692979
554.30 0.9726813
554.40 0.9788977
554.50 0.9877439
554.60 0.99872
554.70 1.011426
554.80 1.025411
554.90 1.040311
555.00 1.055833
555.10 1.071658
555.20 1.090012
555.30 1.117156
555.40 1.160887
555.50 1.227438
555.60 1.319533
555.70 1.435574
555.80 1.56907
555.90 1.709821
556.00 1.846112
556.10 1.967053
556.20 2.065038
556.30 2.137319
556.40 2.186444
556.50 2.219687
556.60 2.245316
556.70 2.268964
556.80 2.293621
556.90 2.320566
557.00 2.349808
557.10 2.380397
557.20 2.411327
557.30 2.441772
557.40 2.471043
557.50 2.498888
557.60 2.525383
557.70 2.550716
557.80 2.574969
557.90 2.598112
558.00 2.620354
558.10 2.642279
558.20 2.664734
558.30 2.688393
558.40 2.713419
558.50 2.739469
558.60 2.765538
558.70 2.790262
558.80 2.812494
558.90 2.831418
559.00 2.846679
559.10 2.858508
559.20 2.865323
559.30 2.862051
559.40 2.842129
559.50 2.800156
559.60 2.733725
559.70 2.644552
559.80 2.538929
559.90 2.426449
560.00 2.318232
560.10 2.224738
560.20 2.153083
560.30 2.105396
560.40 2.078744
560.50 2.066079
560.60 2.060021
560.70 2.056123
560.80 2.052277
560.90 2.047607
561.00 2.042167
561.10 2.036527
561.20 2.031012
561.30 2.026002
561.40 2.022027
561.50 2.019301
561.60 2.017889
561.70 2.018007
561.80 2.020018
561.90 2.023938
562.00 2.029162
562.10 2.03478
562.20 2.039972
562.30 2.04422
562.40 2.047167
562.50 2.048578
562.60 2.048584
562.70 2.047309
562.80 2.044657
562.90 2.040737
563.00 2.03595
563.10 2.030802
563.20 2.02548
563.30 2.01979
563.40 2.013676
563.50 2.007386
563.60 2.001425
563.70 1.996286
563.80 1.991986
563.90 1.98822
564.00 1.984652
564.10 1.981184
564.20 1.978128
564.30 1.976082
564.40 1.975828
564.50 1.977957
564.60 1.982557
564.70 1.989471
564.80 1.998406
564.90 2.008713
565.00 2.019291
565.10 2.028872
565.20 2.037097
565.30 2.044623
565.40 2.052404
565.50 2.061385
565.60 2.072093
565.70 2.08421
565.80 2.096637
565.90 2.108085
566.00 2.117592
566.10 2.124565
566.20 2.128582
566.30 2.129398
566.40 2.127212
566.50 2.122763
566.60 2.116977
566.70 2.111016
566.80 2.106163
566.90 2.103401
567.00 2.103343
567.10 2.106204
567.20 2.111782
567.30 2.11949
567.40 2.128415
567.50 2.137468
567.60 2.145687
567.70 2.15273
567.80 2.159269
567.90 2.166718
568.00 2.176397
568.10 2.188783
568.20 2.203483
568.30 2.21946
568.40 2.235008
568.50 2.248396
568.60 2.258517
568.70 2.264754
568.80 2.267144
568.90 2.266466
569.00 2.264089
569.10 2.261606
569.20 2.259646
569.30 2.257745
569.40 2.255324
569.50 2.252039
569.60 2.247984
569.70 2.244019
569.80 2.24172
569.90 2.242478
570.00 2.246799
570.10 2.254409
570.20 2.264268
570.30 2.274895
570.40 2.284872
570.50 2.293177
570.60 2.2996
570.70 2.304477
570.80 2.308195
570.90 2.311006
571.00 2.312878
571.10 2.313413
571.20 2.311947
571.30 2.307868
571.40 2.300738
571.50 2.290283
571.60 2.276632
571.70 2.260351
571.80 2.242274
571.90 2.223087
572.00 2.203332
572.10 2.183979
572.20 2.166249
572.30 2.151274
572.40 2.139907
572.50 2.132461
572.60 2.128807
572.70 2.12867
572.80 2.131588
572.90 2.136842
573.00 2.143343
573.10 2.149759
573.20 2.155141
573.30 2.15938
573.40 2.162692
573.50 2.16516
573.60 2.166632
573.70 2.166519
573.80 2.163957
573.90 2.158377
574.00 2.14992
574.10 2.139421
574.20 2.128474
574.30 2.119135
574.40 2.113399
574.50 2.112709
574.60 2.117339
574.70 2.126103
574.80 2.136987
574.90 2.147855
575.00 2.156941
575.10 2.163544
575.20 2.168213
575.30 2.172253
575.40 2.177198
575.50 2.184436
575.60 2.194787
575.70 2.208313
575.80 2.224296
575.90 2.241569
576.00 2.258693
576.10 2.274091
576.20 2.286457
576.30 2.294825
576.40 2.29882
576.50 2.298531
576.60 2.294272
576.70 2.286575
576.80 2.276258
576.90 2.264583
577.00 2.25303
577.10 2.243079
577.20 2.235797
577.30 2.231333
577.40 2.229283
577.50 2.229038
577.60 2.229758
577.70 2.230611
577.80 2.231004
577.90 2.230944
578.00 2.230951
578.10 2.231616
578.20 2.233386
578.30 2.236314
578.40 2.239983
578.50 2.243448
578.60 2.245677
578.70 2.246423
578.80 2.246003
578.90 2.245007
579.00 2.244404
579.10 2.245095
579.20 2.247342
579.30 2.2507
579.40 2.254436
579.50 2.257671
579.60 2.259047
579.70 2.257037
579.80 2.250631
579.90 2.239643
580.00 2.22468
580.10 2.206824
580.20 2.18765
580.30 2.169241
580.40 2.153564
580.50 2.142302
580.60 2.136907
580.70 2.137999
580.80 2.144849
580.90 2.15565
581.00 2.16832
581.10 2.180842
581.20 2.191564
581.30 2.199721
581.40 2.205524
581.50 2.209787
581.60 2.213579
581.70 2.217944
581.80 2.22359
581.90 2.230481
582.00 2.237685
582.10 2.243942
582.20 2.248222
582.30 2.249987
582.40 2.249398
582.50 2.247244
582.60 2.244311
582.70 2.240796
582.80 2.236541
582.90 2.231282
583.00 2.224487
583.10 2.215563
583.20 2.204399
583.30 2.191362
583.40 2.177022
583.50 2.162345
583.60 2.148836
583.70 2.138067
583.80 2.130916
583.90 2.127483
584.00 2.127585
584.10 2.130791
584.20 2.136005
584.30 2.141562
584.40 2.145751
584.50 2.146757
584.60 2.142555
584.70 2.131743
584.80 2.114252
584.90 2.090945
585.00 2.063273
585.10 2.033227
585.20 2.002963
585.30 1.974053
585.40 1.946945
585.50 1.921246
585.60 1.896185
585.70 1.870882
585.80 1.844537
585.90 1.816696
586.00 1.787423
586.10 1.756954
586.20 1.725327
586.30 1.692665
586.40 1.658917
586.50 1.624054
586.60 1.588913
586.70 1.554977
586.80 1.52374
586.90 1.496217
587.00 1.472786
587.10 1.453052
587.20 1.436065
587.30 1.420816
587.40 1.406375
587.50 1.391957
587.60 1.377134
587.70 1.361608
587.80 1.345284
587.90 1.328117
588.00 1.309711
588.10 1.289816
588.20 1.268687
588.30 1.24719
588.40 1.226684
588.50 1.208691
588.60 1.194247
588.70 1.183602
588.80 1.176602
588.90 1.172906
589.00 1.171892
589.10 1.1724
589.20 1.172994
589.30 1.172532
589.40 1.170277
589.50 1.166005
589.60 1.160241
589.70 1.153957
589.80 1.148066
589.90 1.143269
590.00 1.140287
590.10 1.139716
590.20 1.141512
590.30 1.144642
590.40 1.147578
590.50 1.149156
590.60 1.148462
590.70 1.145097
590.80 1.139725
590.90 1.133855
591.00 1.12936
591.10 1.128052
591.20 1.131116
591.30 1.138833
591.40 1.15029
591.50 1.163457
591.60 1.176146
591.70 1.186978
591.80 1.195696
591.90 1.203088
592.00 1.210756
592.10 1.220252
592.20 1.232539
592.30 1.247757
592.40 1.265111
592.50 1.283332
592.60 1.301495
592.70 1.319079
592.80 1.335832
592.90 1.351775
593.00 1.366926
593.10 1.381589
593.20 1.396158
593.30 1.410701
593.40 1.425446
593.50 1.440683
593.60 1.456409
593.70 1.472511
593.80 1.488989
593.90 1.505918
594.00 1.523312
594.10 1.541278
594.20 1.560149
594.30 1.580538
594.40 1.60313
594.50 1.627842
594.60 1.65377
594.70 1.679621
594.80 1.703926
594.90 1.725575
595.00 1.744002
595.10 1.759078
595.20 1.771187
595.30 1.781191
595.40 1.790379
595.50 1.800289
595.60 1.812124
595.70 1.826416
595.80 1.842952
595.90 1.860856
596.00 1.878803
596.10 1.895287
596.20 1.908941
596.30 1.918909
596.40 1.925052
596.50 1.927913
596.60 1.92851
596.70 1.928192
596.80 1.928198
596.90 1.929247
597.00 1.93166
597.10 1.935467
597.20 1.940546
597.30 1.94669
597.40 1.953613
597.50 1.961303
597.60 1.969912
597.70 1.979418
597.80 1.989717
597.90 2.000717
598.00 2.012234
598.10 2.023804
598.20 2.034856
598.30 2.045159
598.40 2.054823
598.50 2.064119
598.60 2.073562
598.70 2.083881
598.80 2.095482
598.90 2.108082
599.00 2.120879
599.10 2.132843
599.20 2.142837
599.30 2.149869
599.40 2.153466
599.50 2.153872
599.60 2.152019
599.70 2.149111
599.80 2.146317
599.90 2.144723
600.00 2.374519
600.10 2.400913
600.20 2.409433
600.30 2.406104
600.40 2.395123
600.50 2.368613
600.60 2.329628
600.70 2.293462
600.80 2.267874
600.90 2.252161
601.00 2.241889
601.10 2.226621
601.20 2.198865
601.30 2.160579
601.40 2.113808
601.50 2.062154
601.60 2.017141
601.70 1.98916
601.80 1.985473
601.90 2.00882
602.00 2.052289
602.10 2.105168
602.20 2.160036
602.30 2.202066
602.40 2.222895
602.50 2.227602
602.60 2.221751
602.70 2.213409
602.80 2.217017
602.90 2.246166
603.00 2.29984
603.10 2.36476
603.20 2.426143
603.30 2.47337
603.40 2.49942
603.50 2.510868
603.60 2.521635
603.70 2.544665
603.80 2.587515
603.90 2.64464
604.00 2.70504
604.10 2.75614
604.20 2.784709
604.30 2.781766
604.40 2.746518
604.50 2.681348
604.60 2.596166
604.70 2.508716
604.80 2.434567
604.90 2.378488
605.00 2.34152
605.10 2.324021
605.20 2.319677
605.30 2.33418
605.40 2.374285
605.50 2.425714
605.60 2.457676
605.70 2.452177
605.80 2.417354
605.90 2.370848
606.00 2.331234
606.10 2.313512
606.20 2.323981
606.30 2.355969
606.40 2.403495
606.50 2.471577
606.60 2.563758
606.70 2.667973
606.80 2.766945
606.90 2.853914
607.00 2.933054
607.10 3.000815
607.20 3.040701
607.30 3.041503
607.40 3.006558
607.50 2.950017
607.60 2.890106
607.70 2.84911
607.80 2.835965
607.90 2.841132
608.00 2.853013
608.10 2.862474
608.20 2.864701
608.30 2.858667
608.40 2.844775
608.50 2.820698
608.60 2.786783
608.70 2.751835
608.80 2.713704
608.90 2.662752
609.00 2.60239
609.10 2.545782
609.20 2.504876
609.30 2.484431
609.40 2.483727
609.50 2.497798
609.60 2.518585
609.70 2.542631
609.80 2.565796
609.90 2.585642
610.00 2.601977
610.10 2.603379
610.20 2.584938
610.30 2.557256
610.40 2.529268
610.50 2.50263
610.60 2.481792
610.70 2.480052
610.80 2.50745
610.90 2.561738
611.00 2.629588
611.10 2.692503
611.20 2.737884
611.30 2.763569
611.40 2.773017
611.50 2.777515
611.60 2.786947
611.70 2.799049
611.80 2.807589
611.90 2.814128
612.00 2.820083
612.10 2.816583
612.20 2.793983
612.30 2.753157
612.40 2.700531
612.50 2.636058
612.60 2.561712
612.70 2.482268
612.80 2.40301
612.90 2.333007
613.00 2.288802
613.10 2.285804
613.20 2.32546
613.30 2.394569
613.40 2.472932
613.50 2.5436
613.60 2.59518
613.70 2.617689
613.80 2.606552
613.90 2.568492
614.00 2.515927
614.10 2.462418
614.20 2.418427
614.30 2.386261
614.40 2.364327
614.50 2.352067
614.60 2.346877
614.70 2.342763
614.80 2.340932
614.90 2.344065
615.00 2.350026
615.10 2.363677
615.20 2.388913
615.30 2.418016
615.40 2.438164
615.50 2.438601
615.60 2.414178
615.70 2.369387
615.80 2.313326
615.90 2.25569
616.00 2.211923
616.10 2.196787
616.20 2.212962
616.30 2.257148
616.40 2.323062
616.50 2.390512
616.60 2.43381
616.70 2.441599
616.80 2.410867
616.90 2.34499
617.00 2.259841
617.10 2.182165
617.20 2.131756
617.30 2.114719
617.40 2.129353
617.50 2.164756
617.60 2.205388
617.70 2.231821
617.80 2.227608
617.90 2.189725
618.00 2.128796
618.10 2.056465
618.20 1.983844
618.30 1.930292
618.40 1.909466
618.50 1.914078
618.60 1.927929
618.70 1.942472
618.80 1.954568
618.90 1.961988
619.00 1.964886
619.10 1.961984
619.20 1.949522
619.30 1.925967
619.40 1.894726
619.50 1.864269
619.60 1.84531
619.70 1.84142
619.80 1.849564
619.90 1.869358
620.00 1.900537
620.10 1.935595
620.20 1.965251
620.30 1.982343
620.40 1.977479
620.50 1.947176
620.60 1.898655
620.70 1.84842
620.80 1.810687
620.90 1.794401
621.00 1.807525
621.10 1.847016
621.20 1.901719
621.30 1.959152
621.40 2.006434
621.50 2.030987
621.60 2.024551
621.70 1.98511
621.80 1.924655
621.90 1.870657
622.00 1.844523
622.10 1.845055
622.20 1.869387
622.30 1.920338
622.40 1.988846
622.50 2.058252
622.60 2.110524
622.70 2.132415
622.80 2.126374
622.90 2.107745
623.00 2.088768
623.10 2.076451
623.20 2.072706
623.30 2.074428
623.40 2.081487
623.50 2.098537
623.60 2.12172
623.70 2.137255
623.80 2.136427
623.90 2.118841
624.00 2.091955
624.10 2.062719
624.20 2.033262
624.30 2.004984
624.40 1.978914
624.50 1.961555
624.60 1.960829
624.70 1.976219
624.80 2.002097
624.90 2.03393
625.00 2.070823
625.10 2.113138
625.20 2.154077
625.30 2.180253
625.40 2.182259
625.50 2.161191
625.60 2.123297
625.70 2.078311
625.80 2.042306
625.90 2.027644
626.00 2.040119
626.10 2.080531
626.20 2.140299
626.30 2.206706
626.40 2.268076
626.50 2.311663
626.60 2.331963
626.70 2.333823
626.80 2.324033
626.90 2.3082
627.00 2.290843
627.10 2.274102
627.20 2.257922
627.30 2.246496
627.40 2.24473
627.50 2.252921
627.60 2.27875
627.70 2.333558
627.80 2.418114
627.90 2.521876
628.00 2.629886
628.10 2.732546
628.20 2.824264
628.30 2.89034
628.40 2.918904
628.50 2.91132
628.60 2.873536
628.70 2.814619
628.80 2.750477
628.90 2.699889
629.00 2.670497
629.10 2.661055
629.20 2.667191
629.30 2.686537
629.40 2.727784
629.50 2.807834
629.60 2.924436
629.70 3.063386
629.80 3.214221
629.90 3.360418
630.00 3.485347
630.10 3.571738
630.20 3.598749
630.30 3.560625
630.40 3.474424
630.50 3.362197
630.60 3.247492
630.70 3.152599
630.80 3.088477
630.90 3.048289
631.00 3.029742
631.10 3.041452
631.20 3.080739
631.30 3.137997
631.40 3.201992
631.50 3.27017
631.60 3.349184
631.70 3.432613
631.80 3.500304
631.90 3.538596
632.00 3.548161
632.10 3.53931
632.20 3.523092
632.30 3.507153
632.40 3.504148
632.50 3.526462
632.60 3.576502
632.70 3.649068
632.80 3.737142
632.90 3.828586
633.00 3.909079
633.10 3.973491
633.20 4.024046
633.30 4.064022
633.40 4.09228
633.50 4.106904
633.60 4.107552
633.70 4.096397
633.80 4.073661
633.90 4.038146
634.00 3.998679
634.10 3.966454
634.20 3.946315
634.30 3.938864
634.40 3.942901
634.50 3.957345
634.60 3.981194
634.70 4.014565
634.80 4.051882
634.90 4.081738
635.00 4.099093
635.10 4.101081
635.20 4.086689
635.30 4.06463
635.40 4.045138
635.50 4.035409
635.60 4.037349
635.70 4.050967
635.80 4.074379
635.90 4.096325
636.00 4.103791
636.10 4.088344
636.20 4.057971
636.30 4.030256
636.40 4.014007
636.50 4.018718
636.60 4.048562
636.70 4.095429
636.80 4.148834
636.90 4.202655
637.00 4.257806
637.10 4.310822
637.20 4.354408
637.30 4.391776
637.40 4.428925
637.50 4.463954
637.60 4.485777
637.70 4.479448
637.80 4.440219
637.90 4.371346
638.00 4.284209
638.10 4.198287
638.20 4.127767
638.30 4.076861
638.40 4.042886
638.50 4.022988
638.60 4.015511
638.70 4.017143
638.80 4.024117
638.90 4.033703
639.00 4.041906
639.10 4.053155
639.20 4.075623
639.30 4.112296
639.40 4.16046
639.50 4.212646
639.60 4.266137
639.70 4.320368
639.80 4.376173
639.90 4.435345
640.00 4.495356
640.10 4.549388
640.20 4.589261
640.30 4.605687
640.40 4.595336
640.50 4.560021
640.60 4.502233
640.70 4.424374
640.80 4.332855
640.90 4.240157
641.00 4.158963
641.10 4.103774
641.20 4.081175
641.30 4.089339
641.40 4.127826
641.50 4.191695
641.60 4.269541
641.70 4.353192
641.80 4.434676
641.90 4.500087
642.00 4.535182
642.10 4.534711
642.20 4.506959
642.30 4.462592
642.40 4.405191
642.50 4.337745
642.60 4.270094
642.70 4.210775
642.80 4.164956
642.90 4.135954
643.00 4.119785
643.10 4.107226
643.20 4.093351
643.30 4.079728
643.40 4.074577
643.50 4.086995
643.60 4.112877
643.70 4.142807
643.80 4.170953
643.90 4.190396
644.00 4.198292
644.10 4.199735
644.20 4.199815
644.30 4.203688
644.40 4.219246
644.50 4.250957
644.60 4.300256
644.70 4.366002
644.80 4.437081
644.90 4.497844
645.00 4.539396
645.10 4.557551
645.20 4.557485
645.30 4.55145
645.40 4.546761
645.50 4.542185
645.60 4.530776
645.70 4.509108
645.80 4.482659
645.90 4.463214
646.00 4.456855
646.10 4.4627
646.20 4.477795
646.30 4.49743
646.40 4.519122
646.50 4.543481
646.60 4.564734
646.70 4.569207
646.80 4.548216
646.90 4.507831
647.00 4.461538
647.10 4.419835
647.20 4.391474
647.30 4.381591
647.40 4.393294
647.50 4.427517
647.60 4.481325
647.70 4.548393
647.80 4.6169
647.90 4.676449
648.00 4.72184
648.10 4.752995
648.20 4.770965
648.30 4.775129
648.40 4.76996
648.50 4.764731
648.60 4.765077
648.70 4.772218
648.80 4.784943
648.90 4.801215
649.00 4.821862
649.10 4.850506
649.20 4.890116
649.30 4.937317
649.40 4.988468
649.50 5.047701
649.60 5.119236
649.70 5.200237
649.80 5.281589
649.90 5.351308
650.00 5.400867
650.10 5.422916
650.20 5.416083
650.30 5.391878
650.40 5.366588
650.50 5.355139
650.60 5.37198
650.70 5.42321
650.80 5.502388
650.90 5.595609
651.00 5.690521
651.10 5.782092
651.20 5.866267
651.30 5.939725
651.40 6.000149
651.50 6.051172
651.60 6.102049
651.70 6.158246
651.80 6.219407
651.90 6.282594
652.00 6.344102
652.10 6.405094
652.20 6.470429
652.30 6.544312
652.40 6.631779
652.50 6.736116
652.60 6.86269
652.70 7.016339
652.80 7.191712
652.90 7.374393
653.00 7.546349
653.10 7.688326
653.20 7.788267
653.30 7.853935
653.40 7.901676
653.50 7.942955
653.60 7.989108
653.70 8.049583
653.80 8.125938
653.90 8.20962
654.00 8.285559
654.10 8.33841
654.20 8.364132
654.30 8.367853
654.40 8.35187
654.50 8.316957
654.60 8.267917
654.70 8.206279
654.80 8.135616
654.90 8.059434
655.00 7.97402
655.10 7.890878
655.20 7.828829
655.30 7.801152
655.40 7.820874
655.50 7.888004
655.60 7.993206
655.70 8.139845
655.80 8.345181
655.90 8.625146
656.00 8.97985
656.10 9.372318
656.20 9.727965
656.30 9.985977
656.40 10.11085
656.50 10.07111
656.60 9.86446
656.70 9.523706
656.80 9.095952
656.90 8.644742
657.00 8.237513
657.10 7.91629
657.20 7.683167
657.30 7.516436
657.40 7.386673
657.50 7.270685
657.60 7.164179
657.70 7.063629
657.80 6.971461
657.90 6.895746
658.00 6.83117
658.10 6.770774
658.20 6.714406
658.30 6.666409
658.40 6.630112
658.50 6.607311
658.60 6.605806
658.70 6.632309
658.80 6.680809
658.90 6.739626
659.00 6.804093
659.10 6.873511
659.20 6.946142
659.30 7.021443
659.40 7.104583
659.50 7.201802
659.60 7.311058
659.70 7.421109
659.80 7.517984
659.90 7.587498
660.00 7.618812
660.10 7.609912
660.20 7.565545
660.30 7.497873
660.40 7.424701
660.50 7.359976
660.60 7.314208
660.70 7.299379
660.80 7.320342
660.90 7.368512
661.00 7.433196
661.10 7.50887
661.20 7.590233
661.30 7.665194
661.40 7.71921
661.50 7.740742
661.60 7.733782
661.70 7.715333
661.80 7.696042
661.90 7.681805
662.00 7.67024
662.10 7.648004
662.20 7.604794
662.30 7.539603
662.40 7.4536
662.50 7.349437
662.60 7.237759
662.70 7.142359
662.80 7.089696
662.90 7.094345
663.00 7.154671
663.10 7.255815
663.20 7.376714
663.30 7.49635
663.40 7.600721
663.50 7.68102
663.60 7.72656
663.70 7.729619
663.80 7.695502
663.90 7.641668
664.00 7.588739
664.10 7.553942
664.20 7.551267
664.30 7.588803
664.40 7.662877
664.50 7.756372
664.60 7.843052
664.70 7.894743
664.80 7.88646
664.90 7.80931
665.00 7.677971
665.10 7.522226
665.20 7.376765
665.30 7.268137
665.40 7.210691
665.50 7.207749
665.60 7.248016
665.70 7.310854
665.80 7.372631
665.90 7.41608
666.00 7.436238
666.10 7.440383
666.20 7.443325
666.30 7.456583
666.40 7.48684
666.50 7.536988
666.60 7.601983
666.70 7.673724
666.80 7.741094
666.90 7.789775
667.00 7.808563
667.10 7.798312
667.20 7.776881
667.30 7.765572
667.40 7.780087
667.50 7.824488
667.60 7.89229
667.70 7.969022
667.80 8.035762
667.90 8.075843
668.00 8.078768
668.10 8.041063
668.20 7.966176
668.30 7.868667
668.40 7.770236
668.50 7.684413
668.60 7.612261
668.70 7.554931
668.80 7.51488
668.90 7.492264
669.00 7.483805
669.10 7.487983
669.20 7.505082
669.30 7.532162
669.40 7.564916
669.50 7.595272
669.60 7.612816
669.70 7.613119
669.80 7.603349
669.90 7.601509
670.00 7.623228
670.10 7.669721
670.20 7.738257
670.30 7.82446
670.40 7.919429
670.50 8.014675
670.60 8.098337
670.70 8.159611
670.80 8.1984
670.90 8.227498
671.00 8.262485
671.10 8.30452
671.20 8.341652
671.30 8.360273
671.40 8.349414
671.50 8.305798
671.60 8.228696
671.70 8.124219
671.80 8.009767
671.90 7.899737
672.00 7.808706
672.10 7.752192
672.20 7.734256
672.30 7.743986
672.40 7.765962
672.50 7.790075
672.60 7.808743
672.70 7.813997
672.80 7.804194
672.90 7.78568
673.00 7.766813
673.10 7.75595
673.20 7.760859
673.30 7.788797
673.40 7.83772
673.50 7.896594
673.60 7.955368
673.70 8.009249
673.80 8.05901
673.90 8.109892
674.00 8.169164
674.10 8.242273
674.20 8.328347
674.30 8.415641
674.40 8.491764
674.50 8.550143
674.60 8.588127
674.70 8.608029
674.80 8.616666
674.90 8.618658
675.00 8.609899
675.10 8.587421
675.20 8.555838
675.30 8.519684
675.40 8.481313
675.50 8.442519
675.60 8.410508
675.70 8.40188
675.80 8.427849
675.90 8.483444
676.00 8.553362
676.10 8.622878
676.20 8.684844
676.30 8.740011
676.40 8.794666
676.50 8.850905
676.60 8.904366
676.70 8.949747
676.80 8.981267
676.90 8.991557
677.00 8.975883
677.10 8.938681
677.20 8.896101
677.30 8.868384
677.40 8.869777
677.50 8.905123
677.60 8.968912
677.70 9.044793
677.80 9.107056
677.90 9.130201
678.00 9.096573
678.10 9.000006
678.20 8.849494
678.30 8.668614
678.40 8.485355
678.50 8.322137
678.60 8.188266
678.70 8.092145
678.80 8.047739
678.90 8.055318
679.00 8.103048
679.10 8.177827
679.20 8.269459
679.30 8.367245
679.40 8.454144
679.50 8.514418
679.60 8.539968
679.70 8.534117
679.80 8.508744
679.90 8.476157
680.00 8.457098
680.10 8.466909
680.20 8.500778
680.30 8.550369
680.40 8.603064
680.50 8.641308
680.60 8.651728
680.70 8.630019
680.80 8.584486
680.90 8.528845
681.00 8.476533
681.10 8.439871
681.20 8.426586
681.30 8.435263
681.40 8.455239
681.50 8.476157
681.60 8.493861
681.70 8.50451
681.80 8.509862
681.90 8.518068
682.00 8.535357
682.10 8.567248
682.20 8.617764
682.30 8.687329
682.40 8.769651
682.50 8.849113
682.60 8.908128
682.70 8.937445
682.80 8.934957
682.90 8.902874
683.00 8.844344
683.10 8.765543
683.20 8.673044
683.30 8.575439
683.40 8.487318
683.50 8.41471
683.60 8.357792
683.70 8.316911
683.80 8.291773
683.90 8.283092
684.00 8.289392
684.10 8.306178
684.20 8.324699
684.30 8.332442
684.40 8.324504
684.50 8.302106
684.60 8.265501
684.70 8.214344
684.80 8.147112
684.90 8.075182
685.00 8.017534
685.10 7.984577
685.20 7.977759
685.30 7.99356
685.40 8.030237
685.50 8.082079
685.60 8.135965
685.70 8.18393
685.80 8.225113
685.90 8.268293
686.00 8.323075
686.10 8.391725
686.20 8.473465
686.30 8.558615
686.40 8.63086
686.50 8.680137
686.60 8.699841
686.70 8.682614
686.80 8.626261
686.90 8.530994
687.00 8.407317
687.10 8.275311
687.20 8.153636
687.30 8.053335
687.40 7.987196
687.50 7.961877
687.60 7.968728
687.70 7.994014
687.80 8.025325
687.90 8.053815
688.00 8.074188
688.10 8.083217
688.20 8.076521
688.30 8.060864
688.40 8.046457
688.50 8.030066
688.60 8.005912
688.70 7.976813
688.80 7.947674
688.90 7.924915
689.00 7.919866
689.10 7.939775
689.20 7.978783
689.30 8.021634
689.40 8.056041
689.50 8.077663
689.60 8.083362
689.70 8.066118
689.80 8.023193
689.90 7.963353
690.00 7.900124
690.10 7.846257
690.20 7.813437
690.30 7.811312
690.40 7.844618
690.50 7.915241
690.60 8.022174
690.70 8.161563
690.80 8.325254
690.90 8.492729
691.00 8.643176
691.10 8.769173
691.20 8.863331
691.30 8.912332
691.40 8.902306
691.50 8.819548
691.60 8.667265
691.70 8.475373
691.80 8.285173
691.90 8.133309
692.00 8.053448
692.10 8.070329
692.20 8.186485
692.30 8.385963
692.40 8.635046
692.50 8.881624
692.60 9.082226
692.70 9.220603
692.80 9.298817
692.90 9.333678
693.00 9.34768
693.10 9.361463
693.20 9.39436
693.30 9.457573
693.40 9.54497
693.50 9.633829
693.60 9.699687
693.70 9.729281
693.80 9.727553
693.90 9.722454
694.00 9.745314
694.10 9.814713
694.20 9.947075
694.30 10.15353
694.40 10.42617
694.50 10.7416
694.60 11.06605
694.70 11.36358
694.80 11.60337
694.90 11.762
695.00 11.82808
695.10 11.80175
695.20 11.69238
695.30 11.51532
695.40 11.29611
695.50 11.07307
695.60 10.88251
695.70 10.75051
695.80 10.69251
695.90 10.70338
696.00 10.76804
696.10 10.86906
696.20 10.98435
696.30 11.09662
696.40 11.19598
696.50 11.28046
696.60 11.34906
696.70 11.39673
696.80 11.41616
696.90 11.40013
697.00 11.35247
697.10 11.28454
697.20 11.21384
697.30 11.17231
697.40 11.18324
697.50 11.24965
697.60 11.36803
697.70 11.52472
697.80 11.69269
697.90 11.84049
698.00 11.94165
698.10 11.98722
698.20 11.98932
698.30 11.96856
698.40 11.94305
698.50 11.93281
698.60 11.95285
698.70 11.99484
698.80 12.04079
698.90 12.08077
699.00 12.10617
699.10 12.10716
699.20 12.07368
699.30 12.00124
699.40 11.90188
699.50 11.79493
699.60 11.69467
699.70 11.6152
699.80 11.56763
699.90 11.55605
700.00 11.58231
700.10 11.64653
700.20 11.75065
700.30 11.89431
700.40 12.06801
700.50 12.25874
700.60 12.45937
700.70 12.6649
700.80 12.8592
700.90 13.02113
701.00 13.14117
701.10 13.22006
701.20 13.26405
701.30 13.2817
701.40 13.28338
701.50 13.28842
701.60 13.31342
701.70 13.36242
701.80 13.43353
701.90 13.52227
702.00 13.62094
702.10 13.71938
702.20 13.8109
702.30 13.89971
702.40 13.998
702.50 14.12078
702.60 14.27911
702.70 14.4754
702.80 14.70563
702.90 14.95208
703.00 15.18604
703.10 15.39073
703.20 15.56697
703.30 15.72385
703.40 15.86974
703.50 16.01178
703.60 16.16285
703.70 16.3288
703.80 16.50222
703.90 16.67104
704.00 16.82735
704.10 16.96041
704.20 17.05693
704.30 17.11797
704.40 17.15484
704.50 17.17537
704.60 17.18738
704.70 17.19806
704.80 17.21306
704.90 17.22775
705.00 17.20686
705.10 17.10005
705.20 16.86151
705.30 16.46073
705.40 15.89765
705.50 15.20957
705.60 14.45819
705.70 13.70654
705.80 13.01684
705.90 12.44388
706.00 12.01095
706.10 11.71084
706.20 11.5152
706.30 11.38937
706.40 11.31571
706.50 11.2909
706.60 11.31871
706.70 11.40432
706.80 11.53987
706.90 11.70431
707.00 11.87457
707.10 12.03598
707.20 12.17539
707.30 12.28151
707.40 12.3595
707.50 12.42238
707.60 12.4825
707.70 12.54855
707.80 12.62521
707.90 12.71314
708.00 12.80542
708.10 12.88903
708.20 12.9483
708.30 12.96615
708.40 12.92738
708.50 12.8194
708.60 12.64792
708.70 12.43372
708.80 12.19503
708.90 11.95463
709.00 11.73717
709.10 11.5652
709.20 11.45053
709.30 11.39177
709.40 11.37614
709.50 11.3832
709.60 11.39574
709.70 11.40664
709.80 11.41383
709.90 11.42324
710.00 11.4436
710.10 11.47752
710.20 11.52718
710.30 11.59494
710.40 11.68785
710.50 11.81145
710.60 11.96463
710.70 12.13782
710.80 12.31587
710.90 12.47677
711.00 12.59455
711.10 12.65516
711.20 12.66007
711.30 12.61839
711.40 12.54496
711.50 12.46594
711.60 12.41258
711.70 12.4071
711.80 12.4556
711.90 12.55087
712.00 12.67337
712.10 12.79116
712.20 12.86744
712.30 12.87695
712.40 12.81577
712.50 12.68887
712.60 12.50526
712.70 12.29053
712.80 12.07953
712.90 11.90542
713.00 11.78884
713.10 11.7311
713.20 11.72212
713.30 11.742
713.40 11.76716
713.50 11.78016
713.60 11.77542
713.70 11.75719
713.80 11.72967
713.90 11.69945
714.00 11.68007
714.10 11.67965
714.20 11.69704
714.30 11.72445
714.40 11.75836
714.50 11.80228
714.60 11.85703
714.70 11.92015
714.80 11.9854
714.90 12.04707
715.00 12.10241
715.10 12.15008
715.20 12.19833
715.30 12.26033
715.40 12.33849
715.50 12.42378
715.60 12.50317
715.70 12.56311
715.80 12.58685
715.90 12.56503
716.00 12.50165
716.10 12.41679
716.20 12.3417
716.30 12.30249
716.40 12.31478
716.50 12.38094
716.60 12.48356
716.70 12.59386
716.80 12.68849
716.90 12.75703
717.00 12.80316
717.10 12.83979
717.20 12.88379
717.30 12.94733
717.40 13.03248
717.50 13.12892
717.60 13.22199
717.70 13.30293
717.80 13.37212
717.90 13.43871
718.00 13.51474
718.10 13.6107
718.20 13.73092
718.30 13.87003
718.40 14.017
718.50 14.15862
718.60 14.28097
718.70 14.37555
718.80 14.44327
718.90 14.49138
719.00 14.5317
719.10 14.5763
719.20 14.62595
719.30 14.66693
719.40 14.68167
719.50 14.66244
719.60 14.61256
719.70 14.53935
719.80 14.44685
719.90 14.33819
720.00 14.22815
720.10 14.13743
720.20 14.07947
720.30 14.05944
720.40 14.0714
720.50 14.09898
720.60 14.12759
720.70 14.15445
720.80 14.18562
720.90 14.22588
721.00 14.27642
721.10 14.33691
721.20 14.40536
721.30 14.48186
721.40 14.56167
721.50 14.62945
721.60 14.67617
721.70 14.70342
721.80 14.72102
721.90 14.7463
722.00 14.79552
722.10 14.88054
722.20 15.01031
722.30 15.17967
722.40 15.36968
722.50 15.55922
722.60 15.72952
722.70 15.86803
722.80 15.96467
722.90 16.02485
723.00 16.06931
723.10 16.1217
723.20 16.20329
723.30 16.32137
723.40 16.47809
723.50 16.67671
723.60 16.89421
723.70 17.08828
723.80 17.23334
723.90 17.32831
724.00 17.38187
724.10 17.40308
724.20 17.41251
724.30 17.43893
724.40 17.50367
724.50 17.60924
724.60 17.74398
724.70 17.9021
724.80 18.07281
724.90 18.22749
725.00 18.35241
725.10 18.46208
725.20 18.56849
725.30 18.67226
725.40 18.77649
725.50 18.88002
725.60 18.97763
725.70 19.06168
725.80 19.12791
725.90 19.18831
726.00 19.25712
726.10 19.34143
726.20 19.44601
726.30 19.57514
726.40 19.72425
726.50 19.87109
726.60 19.98781
726.70 20.05513
726.80 20.0663
726.90 20.03931
727.00 20.02405
727.10 20.06247
727.20 20.16105
727.30 20.30541
727.40 20.46493
727.50 20.60074
727.60 20.67603
727.70 20.67028
727.80 20.59624
727.90 20.49499
728.00 20.41672
728.10 20.40608
728.20 20.50196
728.30 20.70788
728.40 20.96455
728.50 21.20866
728.60 21.40499
728.70 21.53091
728.80 21.5856
728.90 21.58911
729.00 21.58433
729.10 21.61956
729.20 21.71861
729.30 21.88711
729.40 22.12499
729.50 22.41015
729.60 22.69023
729.70 22.92286
729.80 23.09821
729.90 23.22313
730.00 23.31095
730.10 23.38673
730.20 23.48555
730.30 23.63522
730.40 23.84249
730.50 24.09444
730.60 24.36777
730.70 24.63326
730.80 24.86416
730.90 25.06351
731.00 25.26411
731.10 25.49073
731.20 25.73609
731.30 25.9859
731.40 26.24727
731.50 26.52539
731.60 26.80866
731.70 27.07915
731.80 27.32062
731.90 27.5213
732.00 27.68271
732.10 27.81966
732.20 27.94067
732.30 28.03949
732.40 28.10427
732.50 28.11832
732.60 28.06949
732.70 27.95587
732.80 27.78182
732.90 27.56245
733.00 27.33386
733.10 27.15161
733.20 27.0649
733.30 27.10967
733.40 27.31033
733.50 27.67561
733.60 28.18886
733.70 28.79814
733.80 29.42956
733.90 30.01379
734.00 30.49553
734.10 30.81376
734.20 30.9113
734.30 30.77597
734.40 30.44445
734.50 29.98534
734.60 29.48847
734.70 29.04319
734.80 28.71016
734.90 28.50682
735.00 28.41713
735.10 28.40185
735.20 28.40517
735.30 28.37985
735.40 28.31423
735.50 28.232
735.60 28.17003
735.70 28.1589
735.80 28.21607
735.90 28.35073
736.00 28.56497
736.10 28.85332
736.20 29.20775
736.30 29.61638
736.40 30.05471
736.50 30.48621
736.60 30.87557
736.70 31.20097
736.80 31.44999
736.90 31.61091
737.00 31.66723
737.10 31.59958
737.20 31.40329
737.30 31.09898
737.40 30.72887
737.50 30.3457
737.60 29.99509
737.70 29.70554
737.80 29.49494
737.90 29.37701
738.00 29.35344
738.10 29.40313
738.20 29.48496
738.30 29.56426
738.40 29.63733
738.50 29.73058
738.60 29.8801
738.70 30.10413
738.80 30.38033
738.90 30.64529
739.00 30.81927
739.10 30.83696
739.20 30.67017
739.30 30.33179
739.40 29.87464
739.50 29.38797
739.60 28.96988
739.70 28.68485
739.80 28.56284
739.90 28.60129
740.00 28.75836
740.10 28.96137
740.20 29.1213
740.30 29.1747
740.40 29.10674
740.50 28.94475
740.60 28.74708
740.70 28.58024
740.80 28.49691
740.90 28.51802
741.00 28.63569
741.10 28.83627
741.20 29.08541
741.30 29.31608
741.40 29.44502
741.50 29.40485
741.60 29.18897
741.70 28.84345
741.80 28.43345
741.90 28.02633
742.00 27.68323
742.10 27.45632
742.20 27.36692
742.30 27.40168
742.40 27.53261
742.50 27.71691
742.60 27.90469
742.70 28.06646
742.80 28.20097
742.90 28.31589
743.00 28.40641
743.10 28.4487
743.20 28.42532
743.30 28.33915
743.40 28.20034
743.50 28.02238
743.60 27.84116
743.70 27.70217
743.80 27.62241
743.90 27.59475
744.00 27.59606
744.10 27.58343
744.20 27.50757
744.30 27.33496
744.40 27.0722
744.50 26.77254
744.60 26.4992
744.70 26.30495
744.80 26.23416
744.90 26.30725
745.00 26.50087
745.10 26.75679
745.20 27.00876
745.30 27.20349
745.40 27.31103
745.50 27.32218
745.60 27.24797
745.70 27.12196
745.80 26.98569
745.90 26.88062
746.00 26.85072
746.10 26.92328
746.20 27.09573
746.30 27.34045
746.40 27.61298
746.50 27.87121
746.60 28.08622
746.70 28.23707
746.80 28.31335
746.90 28.32068
747.00 28.27346
747.10 28.18517
747.20 28.07511
747.30 27.96553
747.40 27.86502
747.50 27.77258
747.60 27.6857
747.70 27.6139
747.80 27.58656
747.90 27.62934
748.00 27.75374
748.10 27.95182
748.20 28.19866
748.30 28.46915
748.40 28.73758
748.50 28.98313
748.60 29.19051
748.70 29.34526
748.80 29.43658
748.90 29.46137
749.00 29.42388
749.10 29.32194
749.20 29.15452
749.30 28.93961
749.40 28.71476
749.50 28.53356
749.60 28.44517
749.70 28.47362
749.80 28.61776
749.90 28.84998
750.00 29.11612
750.10 29.35031
750.20 29.50169
750.30 29.54758
750.40 29.50216
750.50 29.41994
750.60 29.36368
750.70 29.37601
750.80 29.47121
750.90 29.63203
751.00 29.81242
751.10 29.96292
751.20 30.05792
751.30 30.08835
751.40 30.05562
751.50 29.97569
751.60 29.87425
751.70 29.78362
751.80 29.7331
751.90 29.74071
752.00 29.80396
752.10 29.90104
752.20 30.00328
752.30 30.08357
752.40 30.12782
752.50 30.13353
752.60 30.11004
752.70 30.08196
752.80 30.08305
752.90 30.13439
753.00 30.23144
753.10 30.3596
753.20 30.49916
753.30 30.62499
753.40 30.7291
753.50 30.82946
753.60 30.95476
753.70 31.12875
753.80 31.37179
753.90 31.69271
754.00 32.0734
754.10 32.47133
754.20 32.82486
754.30 33.07743
754.40 33.20079
754.50 33.18835
754.60 33.05275
754.70 32.8294
754.80 32.56518
754.90 32.3053
755.00 32.09225
755.10 31.96271
755.20 31.92912
755.30 31.97851
755.40 32.08104
755.50 32.20628
755.60 32.33636
755.70 32.46173
755.80 32.58306
755.90 32.70545
756.00 32.82687
756.10 32.93176
756.20 32.99459
756.30 32.99208
756.40 32.91145
756.50 32.76119
756.60 32.5759
756.70 32.39785
756.80 32.26379
756.90 32.20982
757.00 32.25898
757.10 32.39431
757.20 32.56686
757.30 32.72402
757.40 32.82041
757.50 32.83294
757.60 32.78097
757.70 32.71589
757.80 32.69425
757.90 32.7556
758.00 32.9074
758.10 33.12245
758.20 33.3419
758.30 33.47483
758.40 33.41362
758.50 33.07565
758.60 32.41654
758.70 31.43533
758.80 30.18971
758.90 28.78833
759.00 27.35957
759.10 26.03397
759.20 24.92615
759.30 24.08749
759.40 23.49225
759.50 23.10628
759.60 22.90859
759.70 22.82902
759.80 22.78653
759.90 22.77257
760.00 22.79847
760.10 22.83937
760.20 22.8846
760.30 22.94463
760.40 23.02473
760.50 23.11974
760.60 23.2141
760.70 23.30985
760.80 23.4359
760.90 23.59827
761.00 23.77723
761.10 23.98711
761.20 24.24637
761.30 24.51414
761.40 24.75085
761.50 24.96913
761.60 25.17454
761.70 25.34794
761.80 25.46297
761.90 25.48708
762.00 25.40392
762.10 25.20859
762.20 24.89808
762.30 24.47583
762.40 23.94671
762.50 23.31203
762.60 22.58249
762.70 21.79033
762.80 20.98589
762.90 20.22793
763.00 19.56589
763.10 19.02859
763.20 18.62026
763.30 18.32727
763.40 18.11744
763.50 17.95254
763.60 17.80287
763.70 17.64054
763.80 17.43683
763.90 17.17711
764.00 16.86817
764.10 16.53848
764.20 16.22183
764.30 15.93268
764.40 15.66856
764.50 15.42037
764.60 15.1781
764.70 14.92518
764.80 14.63524
764.90 14.28015
765.00 13.83681
765.10 13.29992
765.20 12.69126
765.30 12.06147
765.40 11.46998
765.50 10.94169
765.60 10.46976
765.70 10.04624
765.80 9.656168
765.90 9.258959
766.00 8.812742
766.10 8.299681
766.20 7.722834
766.30 7.112735
766.40 6.52928
766.50 6.040269
766.60 5.701933
766.70 5.545756
766.80 5.579365
766.90 5.801043
767.00 6.194859
767.10 6.712014
767.20 7.289815
767.30 7.881525
767.40 8.45143
767.50 8.975384
767.60 9.442622
767.70 9.850377
767.80 10.20744
767.90 10.52713
768.00 10.82736
768.10 11.12109
768.20 11.40697
768.30 11.66835
768.40 11.87373
768.50 11.99707
768.60 12.02795
768.70 11.97855
768.80 11.86889
768.90 11.70593
769.00 11.48926
769.10 11.21747
769.20 10.88039
769.30 10.46818
769.40 9.975401
769.50 9.402421
769.60 8.763972
769.70 8.102263
769.80 7.488703
769.90 6.99943
770.00 6.694953
770.10 6.606032
770.20 6.736451
770.30 7.07339
770.40 7.589726
770.50 8.237812
770.60 8.967594
770.70 9.732209
770.80 10.47619
770.90 11.16306
771.00 11.78597
771.10 12.35152
771.20 12.86082
771.30 13.30646
771.40 13.68559
771.50 14.01166
771.60 14.3121
771.70 14.60584
771.80 14.90249
771.90 15.20262
772.00 15.49622
772.10 15.78558
772.20 16.096
772.30 16.45121
772.40 16.85925
772.50 17.31254
772.60 17.79963
772.70 18.30573
772.80 18.80926
772.90 19.27671
773.00 19.67457
773.10 19.99538
773.20 20.25213
773.30 20.47795
773.40 20.71053
773.50 20.96605
773.60 21.24302
773.70 21.53352
773.80 21.81831
773.90 22.06328
774.00 22.23152
774.10 22.30038
774.20 22.26112
774.30 22.1281
774.40 21.9442
774.50 21.76664
774.60 21.64802
774.70 21.60982
774.80 21.64161
774.90 21.7296
775.00 21.85474
775.10 21.97256
775.20 22.0386
775.30 22.04141
775.40 21.99872
775.50 21.9437
775.60 21.90456
775.70 21.89137
775.80 21.90088
775.90 21.92036
776.00 21.93844
776.10 21.955
776.20 21.97394
776.30 21.98993
776.40 22.0052
776.50 22.04826
776.60 22.16339
776.70 22.38432
776.80 22.71956
776.90 23.14838
777.00 23.63708
777.10 24.14794
777.20 24.62485
777.30 24.99953
777.40 25.21384
777.50 25.25029
777.60 25.13447
777.70 24.91573
777.80 24.6543
777.90 24.40516
778.00 24.19733
778.10 24.02658
778.20 23.87316
778.30 23.72086
778.40 23.56327
778.50 23.40214
778.60 23.25413
778.70 23.15708
778.80 23.15841
778.90 23.2952
779.00 23.56996
779.10 23.9436
779.20 24.34695
779.30 24.6978
779.40 24.90819
779.50 24.88875
779.60 24.56545
779.70 23.91817
779.80 23.01096
779.90 21.99347
780.00 21.06869
780.10 20.43644
780.20 20.2459
780.30 20.57681
780.40 21.41753
780.50 22.6424
780.60 24.05467
780.70 25.4388
780.80 26.60469
780.90 27.44672
781.00 27.9708
781.10 28.25727
781.20 28.41901
781.30 28.55574
781.40 28.7207
781.50 28.93391
781.60 29.18757
781.70 29.42333
781.80 29.55848
781.90 29.56295
782.00 29.44787
782.10 29.23323
782.20 28.95127
782.30 28.62908
782.40 28.28335
782.50 27.92428
782.60 27.55578
782.70 27.18772
782.80 26.84363
782.90 26.54553
783.00 26.31293
783.10 26.17347
783.20 26.17141
783.30 26.32362
783.40 26.59679
783.50 26.95315
783.60 27.3622
783.70 27.79118
783.80 28.19707
783.90 28.55405
784.00 28.85975
784.10 29.12103
784.20 29.35866
784.30 29.59557
784.40 29.83454
784.50 30.05556
784.60 30.22855
784.70 30.34046
784.80 30.40036
784.90 30.39482
785.00 30.29653
785.10 30.11239
785.20 29.89176
785.30 29.70331
785.40 29.60213
785.50 29.61657
785.60 29.74504
785.70 29.95768
785.80 30.21291
785.90 30.47212
786.00 30.70099
786.10 30.85724
786.20 30.9005
786.30 30.82375
786.40 30.65481
786.50 30.43308
786.60 30.2018
786.70 29.98194
786.80 29.77241
786.90 29.57754
787.00 29.39723
787.10 29.23221
787.20 29.09542
787.30 29.0027
787.40 28.96561
787.50 29.00258
787.60 29.13645
787.70 29.37696
787.80 29.71038
787.90 30.10782
788.00 30.52524
788.10 30.91678
788.20 31.25502
788.30 31.51895
788.40 31.71835
788.50 31.89063
788.60 32.051
788.70 32.20368
788.80 32.36483
788.90 32.54191
789.00 32.72081
789.10 32.87323
789.20 32.96824
789.30 32.96869
789.40 32.83692
789.50 32.55347
789.60 32.13098
789.70 31.61584
789.80 31.06617
789.90 30.54823
790.00 30.15256
790.10 29.96225
790.20 29.99976
790.30 30.22124
790.40 30.5363
790.50 30.83819
790.60 31.0371
790.70 31.08609
790.80 30.98872
790.90 30.77969
791.00 30.51914
791.10 30.29112
791.20 30.17746
791.30 30.21418
791.40 30.37742
791.50 30.59806
791.60 30.79661
791.70 30.91817
791.80 30.94881
791.90 30.91869
792.00 30.86436
792.10 30.79802
792.20 30.72293
792.30 30.65676
792.40 30.61701
792.50 30.60938
792.60 30.63395
792.70 30.69731
792.80 30.81293
792.90 31.00357
793.00 31.30516
793.10 31.73262
793.20 32.2506
793.30 32.77807
793.40 33.22334
793.50 33.5119
793.60 33.59025
793.70 33.43466
793.80 33.05917
793.90 32.51291
794.00 31.86154
794.10 31.17147
794.20 30.50084
794.30 29.86279
794.40 29.21012
794.50 28.48668
794.60 27.69137
794.70 26.88987
794.80 26.20241
794.90 25.77915
795.00 25.75138
795.10 26.18758
795.20 27.07053
795.30 28.29261
795.40 29.68083
795.50 31.03288
795.60 32.15368
795.70 32.92475
795.80 33.33538
795.90 33.45594
796.00 33.38701
796.10 33.22521
796.20 33.06303
796.30 32.98132
796.40 33.03192
796.50 33.22574
796.60 33.54357
796.70 33.95419
796.80 34.4097
796.90 34.85151
797.00 35.23113
797.10 35.50473
797.20 35.62931
797.30 35.58412
797.40 35.39596
797.50 35.12505
797.60 34.81551
797.70 34.50271
797.80 34.22776
797.90 34.01248
798.00 33.84618
798.10 33.69066
798.20 33.50421
798.30 33.26155
798.40 32.95958
798.50 32.62119
798.60 32.30393
798.70 32.08197
798.80 32.00618
798.90 32.09678
799.00 32.34092
799.10 32.67755
799.20 33.02587
799.30 33.32554
799.40 33.55059
799.50 33.7056
799.60 33.81474
799.70 33.90774
799.80 34.01089
799.90 34.1497
800.00 34.34413
800.10 34.5927
800.20 34.87912
800.30 35.17418
800.40 35.45898
800.50 35.74137
800.60 36.0253
800.70 36.31323
800.80 36.6171
800.90 36.9493
801.00 37.31492
801.10 37.70951
801.20 38.12811
801.30 38.55921
801.40 38.97534
801.50 39.34787
801.60 39.64821
801.70 39.86243
801.80 40.00495
801.90 40.10344
802.00 40.2093
802.10 40.36987
802.20 40.6067
802.30 40.94076
802.40 41.38428
802.50 41.92963
802.60 42.5464
802.70 43.17894
802.80 43.75835
802.90 44.23105
803.00 44.57144
803.10 44.77528
803.20 44.84873
803.30 44.80904
803.40 44.67385
803.50 44.47726
803.60 44.27181
803.70 44.09609
803.80 43.97334
803.90 43.91826
804.00 43.94767
804.10 44.07703
804.20 44.30962
804.30 44.62668
804.40 44.98999
804.50 45.36894
804.60 45.7684
804.70 46.21512
804.80 46.73759
804.90 47.35862
805.00 48.0861
805.10 48.88922
805.20 49.70742
805.30 50.48696
805.40 51.17953
805.50 51.75443
805.60 52.21048
805.70 52.5635
805.80 52.85036
805.90 53.11143
806.00 53.35737
806.10 53.57753
806.20 53.75441
806.30 53.87217
806.40 53.91746
806.50 53.89663
806.60 53.84822
806.70 53.81872
806.80 53.84111
806.90 53.92961
807.00 54.09705
807.10 54.36526
807.20 54.747
807.30 55.23684
807.40 55.81474
807.50 56.45308
807.60 57.12218
807.70 57.78765
807.80 58.4172
807.90 59.00028
808.00 59.54606
808.10 60.066
808.20 60.56586
808.30 61.04144
808.40 61.46634
808.50 61.7906
808.60 61.97953
808.70 62.04517
808.80 62.03647
808.90 62.01182
809.00 62.0201
809.10 62.09093
809.20 62.23764
809.30 62.43941
809.40 62.6327
809.50 62.75059
809.60 62.75681
809.70 62.65544
809.80 62.49878
809.90 62.36783
810.00 62.32655
810.10 62.3949
810.20 62.55574
810.30 62.79334
810.40 63.1152
810.50 63.52634
810.60 64.00718
810.70 64.52747
810.80 65.06505
810.90 65.60862
811.00 66.14242
811.10 66.62941
811.20 67.01409
811.30 67.25819
811.40 67.37917
811.50 67.45539
811.60 67.58727
811.70 67.84658
811.80 68.2542
811.90 68.79903
812.00 69.4445
812.10 70.12918
812.20 70.79904
812.30 71.41119
812.40 71.94423
812.50 72.42016
812.60 72.88302
812.70 73.37302
812.80 73.8903
812.90 74.39652
813.00 74.85915
813.10 75.26012
813.20 75.59422
813.30 75.88339
813.40 76.18043
813.50 76.53778
813.60 76.96193
813.70 77.40743
813.80 77.78902
813.90 77.98541
814.00 77.89465
814.10 77.4955
814.20 76.84977
814.30 76.06258
814.40 75.2446
814.50 74.495
814.60 73.89618
814.70 73.49782
814.80 73.30706
814.90 73.30885
815.00 73.47841
815.10 73.78211
815.20 74.185
815.30 74.67122
815.40 75.22653
815.50 75.80001
815.60 76.31733
815.70 76.72445
815.80 77.02311
815.90 77.26023
816.00 77.50199
816.10 77.81594
816.20 78.251
816.30 78.8211
816.40 79.50478
816.50 80.27265
816.60 81.0968
816.70 81.94066
816.80 82.75213
816.90 83.48161
817.00 84.1055
817.10 84.61434
817.20 84.98374
817.30 85.17147
817.40 85.1209
817.50 84.76832
817.60 84.04556
817.70 82.87634
817.80 81.18132
817.90 78.88152
818.00 75.97439
818.10 72.60636
818.20 69.08881
818.30 65.85087
818.40 63.33019
818.50 61.85378
818.60 61.55119
818.70 62.31844
818.80 63.81151
818.90 65.49994
819.00 66.78749
819.10 67.17341
819.20 66.39188
819.30 64.5211
819.40 61.95193
819.50 59.23715
819.60 56.9423
819.70 55.52088
819.80 55.23844
819.90 56.14626
820.00 58.09065
820.10 60.74247
820.20 63.67502
820.30 66.46034
820.40 68.7665
820.50 70.41935
820.60 71.42618
820.70 71.91748
820.80 72.06449
820.90 72.0599
821.00 72.07696
821.10 72.22849
821.20 72.55921
821.30 73.04108
821.40 73.59214
821.50 74.12755
821.60 74.59872
821.70 75.01013
821.80 75.40629
821.90 75.84737
822.00 76.36926
822.10 76.96594
822.20 77.60281
822.30 78.2389
822.40 78.85677
822.50 79.45702
822.60 80.04588
822.70 80.62984
822.80 81.20023
822.90 81.7295
823.00 82.18705
823.10 82.53667
823.20 82.74975
823.30 82.82949
823.40 82.81726
823.50 82.78388
823.60 82.81823
823.70 83.00233
823.80 83.37965
823.90 83.95043
824.00 84.66513
824.10 85.43966
824.20 86.18941
824.30 86.8436
824.40 87.35365
824.50 87.71552
824.60 87.94405
824.70 88.02443
824.80 87.91877
824.90 87.584
825.00 86.99061
825.10 86.14773
825.20 85.10604
825.30 83.94818
825.40 82.79933
825.50 81.8224
825.60 81.18075
825.70 80.98933
825.80 81.26608
825.90 81.92663
826.00 82.82565
826.10 83.80693
826.20 84.73407
826.30 85.50503
826.40 86.04346
826.50 86.28681
826.60 86.21442
826.70 85.85993
826.80 85.28251
826.90 84.55299
827.00 83.75146
827.10 82.96806
827.20 82.31258
827.30 81.90063
827.40 81.81318
827.50 82.06392
827.60 82.58221
827.70 83.23142
827.80 83.8443
827.90 84.25661
828.00 84.34173
828.10 84.04962
828.20 83.42147
828.30 82.56524
828.40 81.61178
828.50 80.65811
828.60 79.74985
828.70 78.86549
828.80 77.95946
828.90 77.0251
829.00 76.09406
829.10 75.22364
829.20 74.49273
829.30 73.98369
829.40 73.72685
829.50 73.67618
829.60 73.74182
829.70 73.8107
829.80 73.75627
829.90 73.49707
830.00 73.02454
830.10 72.40717
830.20 71.76102
830.30 71.18349
830.40 70.73894
830.50 70.46824
830.60 70.39596
830.70 70.51475
830.80 70.79106
830.90 71.1816
831.00 71.62188
831.10 72.0531
831.20 72.45599
831.30 72.8425
831.40 73.24649
831.50 73.72042
831.60 74.30971
831.70 75.03359
831.80 75.88427
831.90 76.8312
832.00 77.80083
832.10 78.69403
832.20 79.41173
832.30 79.86222
832.40 79.99035
832.50 79.79178
832.60 79.33159
832.70 78.74939
832.80 78.21112
832.90 77.84899
833.00 77.71684
833.10 77.78657
833.20 77.98571
833.30 78.20511
833.40 78.33349
833.50 78.30398
833.60 78.13595
833.70 77.93137
833.80 77.81966
833.90 77.91325
834.00 78.24213
834.10 78.7344
834.20 79.26981
834.30 79.72937
834.40 80.0448
834.50 80.21135
834.60 80.24913
834.70 80.19412
834.80 80.10028
834.90 80.01659
835.00 79.93539
835.10 79.81683
835.20 79.64098
835.30 79.40289
835.40 79.12685
835.50 78.87257
835.60 78.71084
835.70 78.69173
835.80 78.81578
835.90 79.04723
836.00 79.34104
836.10 79.64237
836.20 79.89268
836.30 80.06651
836.40 80.21045
836.50 80.41187
836.60 80.73562
836.70 81.1911
836.80 81.73007
836.90 82.25732
837.00 82.62667
837.10 82.68384
837.20 82.34535
837.30 81.6341
837.40 80.66584
837.50 79.62879
837.60 78.77351
837.70 78.34404
837.80 78.44818
837.90 79.00305
838.00 79.80203
838.10 80.62273
838.20 81.25189
838.30 81.4795
838.40 81.17992
838.50 80.35463
838.60 79.12198
838.70 77.69167
838.80 76.30885
838.90 75.20038
839.00 74.48969
839.10 74.17052
839.20 74.215
839.30 74.61738
839.40 75.38043
839.50 76.4602
839.60 77.7332
839.70 79.08951
839.80 80.46065
839.90 81.78604
840.00 82.96746
840.10 83.87535
840.20 84.42719
840.30 84.62036
840.40 84.54219
840.50 84.34025
840.60 84.14016
840.70 84.01932
840.80 83.97974
840.90 84.00277
841.00 84.1649
841.10 84.55338
841.20 85.1673
841.30 85.91434
841.40 86.66396
841.50 87.28417
841.60 87.62272
841.70 87.54703
841.80 86.98853
841.90 85.98793
842.00 84.70807
842.10 83.38558
842.20 82.28091
842.30 81.59025
842.40 81.37132
842.50 81.57443
842.60 82.08826
842.70 82.74051
842.80 83.29056
842.90 83.50581
843.00 83.21673
843.10 82.26963
843.20 80.57709
843.30 78.19709
843.40 75.33612
843.50 72.32741
843.60 69.54296
843.70 67.28932
843.80 65.72269
843.90 64.79762
844.00 64.30333
844.10 63.96655
844.20 63.56456
844.30 62.94765
844.40 62.05663
844.50 60.99312
844.60 59.96801
844.70 59.16958
844.80 58.67689
844.90 58.42486
845.00 58.25189
845.10 57.97203
845.20 57.44071
845.30 56.60692
845.40 55.52764
845.50 54.3565
845.60 53.27702
845.70 52.44908
845.80 51.991
845.90 51.93712
846.00 52.22534
846.10 52.72078
846.20 53.26208
846.30 53.71228
846.40 53.99992
846.50 54.116
846.60 54.08415
846.70 53.95902
846.80 53.78208
846.90 53.56894
847.00 53.34624
847.10 53.14458
847.20 52.98158
847.30 52.8749
847.40 52.83694
847.50 52.86604
847.60 52.95953
847.70 53.10198
847.80 53.23838
847.90 53.30656
848.00 53.3002
848.10 53.25404
848.20 53.2166
848.30 53.25336
848.40 53.42016
848.50 53.74297
848.60 54.23233
848.70 54.89459
848.80 55.72804
848.90 56.68194
849.00 57.65557
849.10 58.54994
849.20 59.28948
849.30 59.81734
849.40 60.07072
849.50 60.00852
849.60 59.66768
849.70 59.14584
849.80 58.57733
849.90 58.14529
850.00 58.00381
850.10 58.15953
850.20 58.47721
850.30 58.80415
850.40 59.03103
850.50 59.07682
850.60 58.89818
850.70 58.51101
850.80 58.00639
850.90 57.52377
851.00 57.1884
851.10 57.05211
851.20 57.08459
851.30 57.15113
851.40 57.06824
851.50 56.7197
851.60 56.06392
851.70 55.08747
851.80 53.81802
851.90 52.36749
852.00 50.93499
852.10 49.77493
852.20 49.10842
852.30 49.04991
852.40 49.60258
852.50 50.68989
852.60 52.1681
852.70 53.84293
852.80 55.50139
852.90 56.96607
853.00 58.14409
853.10 59.03933
853.20 59.7255
853.30 60.29309
853.40 60.79271
853.50 61.20863
853.60 61.52442
853.70 61.77729
853.80 62.02371
853.90 62.29264
854.00 62.58064
854.10 62.88329
854.20 63.2319
854.30 63.67284
854.40 64.22846
854.50 64.88933
854.60 65.63052
854.70 66.4112
854.80 67.18741
854.90 67.92037
855.00 68.56569
855.10 69.07483
855.20 69.40726
855.30 69.56237
855.40 69.58515
855.50 69.52445
855.60 69.38088
855.70 69.12362
855.80 68.74941
855.90 68.30143
856.00 67.84152
856.10 67.43872
856.20 67.16577
856.30 67.09134
856.40 67.25806
856.50 67.64235
856.60 68.16586
856.70 68.72062
856.80 69.1865
856.90 69.47106
857.00 69.55055
857.10 69.46398
857.20 69.27399
857.30 69.04614
857.40 68.84968
857.50 68.74974
857.60 68.79654
857.70 69.00213
857.80 69.30857
857.90 69.63351
858.00 69.92415
858.10 70.15418
858.20 70.32313
858.30 70.4633
858.40 70.63095
858.50 70.87054
858.60 71.19193
858.70 71.56896
858.80 71.93549
858.90 72.21707
859.00 72.35863
859.10 72.34248
859.20 72.22223
859.30 72.09364
859.40 72.04698
859.50 72.1448
859.60 72.39979
859.70 72.7803
859.80 73.22765
859.90 73.67632
860.00 74.06644
860.10 74.36719
860.20 74.58306
860.30 74.72552
860.40 74.80484
860.50 74.81907
860.60 74.73651
860.70 74.50282
860.80 74.04089
860.90 73.28299
861.00 72.22688
861.10 70.91975
861.20 69.42147
861.30 67.80906
861.40 66.18486
861.50 64.65346
861.60 63.31177
861.70 62.23834
861.80 61.47091
861.90 60.99447
862.00 60.73253
862.10 60.57753
862.20 60.44417
862.30 60.26577
862.40 59.97813
862.50 59.53283
862.60 58.91537
862.70 58.16637
862.80 57.37518
862.90 56.63872
863.00 56.03196
863.10 55.62145
863.20 55.45615
863.30 55.55557
863.40 55.91711
863.50 56.50172
863.60 57.22573
863.70 57.98987
863.80 58.70718
863.90 59.32458
864.00 59.83087
864.10 60.22313
864.20 60.49064
864.30 60.64461
864.40 60.72139
864.50 60.74966
864.60 60.75431
864.70 60.77606
864.80 60.87657
864.90 61.13565
865.00 61.62237
865.10 62.36119
865.20 63.32105
865.30 64.41244
865.40 65.51894
865.50 66.53543
865.60 67.3894
865.70 68.0455
865.80 68.49234
865.90 68.74322
866.00 68.8274
866.10 68.78412
866.20 68.67115
866.30 68.54808
866.40 68.44699
866.50 68.35554
866.60 68.2122
866.70 67.97435
866.80 67.63499
866.90 67.20647
867.00 66.74063
867.10 66.32617
867.20 66.07633
867.30 66.1051
867.40 66.49763
867.50 67.25993
867.60 68.28673
867.70 69.37544
867.80 70.2952
867.90 70.87567
868.00 71.05899
868.10 70.87787
868.20 70.44372
868.30 69.90781
868.40 69.3999
868.50 68.98956
868.60 68.67163
868.70 68.36787
868.80 67.94376
868.90 67.2581
869.00 66.19765
869.10 64.72056
869.20 62.8786
869.30 60.81261
869.40 58.73472
869.50 56.8693
869.60 55.38629
869.70 54.38711
869.80 53.90239
869.90 53.89586
870.00 54.27431
870.10 54.9116
870.20 55.6798
870.30 56.46487
870.40 57.17789
870.50 57.74103
870.60 58.0939
870.70 58.19981
870.80 58.03722
870.90 57.60313
871.00 56.9194
871.10 56.05905
871.20 55.14559
871.30 54.31491
871.40 53.68248
871.50 53.31563
871.60 53.21721
871.70 53.34249
871.80 53.63609
871.90 54.0489
872.00 54.53341
872.10 55.06117
872.20 55.6324
872.30 56.27931
872.40 57.07487
872.50 58.07744
872.60 59.28022
872.70 60.59825
872.80 61.8876
872.90 62.99358
873.00 63.78972
873.10 64.19464
873.20 64.17932
873.30 63.79555
873.40 63.17889
873.50 62.50805
873.60 61.96143
873.70 61.67607
873.80 61.7147
873.90 62.093
874.00 62.8024
874.10 63.80429
874.20 65.02316
874.30 66.32358
874.40 67.51537
874.50 68.41791
874.60 68.91832
874.70 68.98978
874.80 68.70939
874.90 68.23683
875.00 67.77794
875.10 67.53009
875.20 67.61318
875.30 68.05395
875.40 68.82063
875.50 69.86578
875.60 71.14893
875.70 72.61495
875.80 74.19053
875.90 75.72358
876.00 76.97687
876.10 77.7504
876.20 77.94626
876.30 77.56681
876.40 76.68009
876.50 75.44757
876.60 74.17494
876.70 73.23994
876.80 72.94671
876.90 73.46023
877.00 74.78999
877.10 76.8386
877.20 79.43735
877.30 82.34068
877.40 85.22007
877.50 87.68263
877.60 89.33417
877.70 89.88784
877.80 89.26772
877.90 87.63341
878.00 85.32565
878.10 82.77162
878.20 80.43427
878.30 78.70844
878.40 77.80524
878.50 77.72034
878.60 78.27417
878.70 79.2283
878.80 80.39126
878.90 81.61353
879.00 82.74964
879.10 83.70765
879.20 84.51925
879.30 85.266
879.40 85.99045
879.50 86.67712
879.60 87.20596
879.70 87.38086
879.80 87.01635
879.90 85.9899
880.00 84.29793
880.10 82.09091
880.20 79.62993
880.30 77.2283
880.40 75.216
880.50 73.8766
880.60 73.37567
880.70 73.76436
880.80 74.98811
880.90 76.90316
881.00 79.36004
881.10 82.23517
881.20 85.40881
881.30 88.7439
881.40 92.05759
881.50 95.12702
881.60 97.71173
881.70 99.60277
881.80 100.6782
881.90 100.8882
882.00 100.287
882.10 99.05309
882.20 97.41151
882.30 95.61409
882.40 93.89848
882.50 92.45098
882.60 91.41736
882.70 90.87724
882.80 90.81733
882.90 91.14024
883.00 91.74697
883.10 92.59397
883.20 93.65944
883.30 94.90767
883.40 96.26616
883.50 97.64657
883.60 99.01214
883.70 100.3616
883.80 101.664
883.90 102.8199
884.00 103.6516
884.10 103.9391
884.20 103.4984
884.30 102.2357
884.40 100.1736
884.50 97.45855
884.60 94.42235
884.70 91.59561
884.80 89.54979
884.90 88.74843
885.00 89.40836
885.10 91.40166
885.20 94.29432
885.30 97.43733
885.40 100.1101
885.50 101.7122
885.60 101.874
885.70 100.4952
885.80 97.75608
885.90 94.08003
886.00 90.05018
886.10 86.29771
886.20 83.37326
886.30 81.57981
886.40 80.92491
886.50 81.18143
886.60 81.95105
886.70 82.72596
886.80 82.97544
886.90 82.29999
887.00 80.56427
887.10 77.94041
887.20 74.85861
887.30 71.92813
887.40 69.78088
887.50 68.85741
887.60 69.30645
887.70 70.98481
887.80 73.50596
887.90 76.35531
888.00 79.03531
888.10 81.15168
888.20 82.44275
888.30 82.88192
888.40 82.70957
888.50 82.30702
888.60 82.00981
888.70 82.01929
888.80 82.39769
888.90 83.0671
889.00 83.83087
889.10 84.41899
889.20 84.56625
889.30 84.07722
889.40 82.88946
889.50 81.16845
889.60 79.34306
889.70 77.91316
889.80 77.28303
889.90 77.71475
890.00 79.30726
890.10 81.93085
890.20 85.20323
890.30 88.6068
890.40 91.60061
890.50 93.7258
890.60 94.70401
890.70 94.48834
890.80 93.27027
890.90 91.44184
891.00 89.48093
891.10 87.83324
891.20 86.8231
891.30 86.63308
891.40 87.34139
891.50 88.92349
891.60 91.20098
891.70 93.8797
891.80 96.5768
891.90 98.87053
892.00 100.4111
892.10 100.9635
892.20 100.4605
892.30 99.01261
892.40 96.89136
892.50 94.47985
892.60 92.21253
892.70 90.52628
892.80 89.7687
892.90 90.12141
893.00 91.57761
893.10 93.89723
893.20 96.65501
893.30 99.32178
893.40 101.3516
893.50 102.3199
893.60 101.9895
893.70 100.3694
893.80 97.70264
893.90 94.35663
894.00 90.7366
894.10 87.25731
894.20 84.28963
894.30 82.08342
894.40 80.76608
894.50 80.35064
894.60 80.74967
894.70 81.79929
894.80 83.26414
894.90 84.89087
895.00 86.46435
895.10 87.84816
895.20 89.05973
895.30 90.29714
895.40 91.82435
895.50 93.78871
895.60 96.11616
895.70 98.57526
895.80 100.8421
895.90 102.5389
896.00 103.3615
896.10 103.1709
896.20 102.0298
896.30 100.1947
896.40 98.04866
896.50 95.99021
896.60 94.32644
896.70 93.23848
896.80 92.78307
896.90 92.93132
897.00 93.62303
897.10 94.74707
897.20 96.1648
897.30 97.77448
897.40 99.47399
897.50 101.1489
897.60 102.6728
897.70 103.9008
897.80 104.7175
897.90 105.1024
898.00 105.1664
898.10 105.1339
898.20 105.3138
898.30 106.0095
898.40 107.3792
898.50 109.3491
898.60 111.5972
898.70 113.6216
898.80 114.9366
898.90 115.2727
899.00 114.6141
899.10 113.1504
899.20 111.2025
899.30 109.1092
899.40 107.1884
899.50 105.7129
899.60 104.7948
899.70 104.3455
899.80 104.2677
899.90 104.6196
900.00 102.9325
900.10 102.1099
900.20 103.0427
900.30 104.7518
900.40 108.8253
900.50 114.6675
900.60 116.6497
900.70 116.384
900.80 116.0303
900.90 116.3075
901.00 113.3866
901.10 110.3362
901.20 106.6267
901.30 106.6215
901.40 108.3449
901.50 110.1171
901.60 111.007
901.70 113.9257
901.80 117.0451
901.90 119.018
902.00 118.0114
902.10 115.9748
902.20 112.9808
902.30 109.4322
902.40 104.2943
902.50 99.62408
902.60 95.97582
902.70 91.22381
902.80 87.07189
902.90 86.40559
903.00 87.88024
903.10 90.66768
903.20 94.2578
903.30 98.82196
903.40 106.2491
903.50 114.1448
903.60 119.3337
903.70 122.9768
903.80 126.4167
903.90 129.1542
904.00 129.207
904.10 126.9754
904.20 123.7352
904.30 120.781
904.40 118.0168
904.50 115.4932
904.60 113.8073
904.70 114.433
904.80 114.631
904.90 115.8045
905.00 115.9509
905.10 114.9635
905.20 113.1364
905.30 111.4416
905.40 107.7858
905.50 105.9962
905.60 105.2284
905.70 105.9208
905.80 107.4275
905.90 108.0157
906.00 107.1628
906.10 106.0709
906.20 103.9512
906.30 100.6284
906.40 99.83165
906.50 100.2194
906.60 101.8161
906.70 103.6103
906.80 105.2518
906.90 106.9549
907.00 108.3523
907.10 105.5842
907.20 102.4385
907.30 102.788
907.40 105.3784
907.50 109.0846
907.60 112.8623
907.70 117.168
907.80 121.4058
907.90 125.7442
908.00 126.871
908.10 126.295
908.20 124.9609
908.30 123.8253
908.40 122.0517
908.50 120.1092
908.60 117.7759
908.70 115.1954
908.80 113.028
908.90 112.83
909.00 114.0917
909.10 115.6846
909.20 117.2856
909.30 118.9034
909.40 120.438
909.50 122.0987
909.60 122.673
909.70 122.3835
909.80 123.0088
909.90 124.2346
910.00 123.9249
910.10 123.7208
910.20 123.5614
910.30 123.3632
910.40 123.0262
910.50 122.0515
910.60 120.4048
910.70 119.3051
910.80 121.8055
910.90 123.2407
911.00 123.8072
911.10 124.9295
911.20 126.6531
911.30 126.9871
911.40 128.3813
911.50 126.8945
911.60 125.0392
911.70 127.9916
911.80 132.1025
911.90 134.4408
912.00 135.4702
912.10 137.1513
912.20 139.9851
912.30 143.3655
912.40 145.1286
912.50 145.3571
912.60 144.4639
912.70 143.729
912.80 141.7725
912.90 137.4958
913.00 134.2941
913.10 133.1549
913.20 133.4201
913.30 135.5002
913.40 138.0673
913.50 140.1489
913.60 141.3325
913.70 142.0754
913.80 140.6786
913.90 136.988
914.00 132.5125
914.10 128.2941
914.20 123.6358
914.30 118.8523
914.40 117.4825
914.50 119.4411
914.60 123.2285
914.70 126.6382
914.80 128.6151
914.90 129.4093
915.00 130.9312
915.10 131.6529
915.20 131.2399
915.30 131.6277
915.40 134.4501
915.50 138.4996
915.60 144.0137
915.70 150.1898
915.80 156.1574
915.90 158.7006
916.00 159.3113
916.10 155.4943
916.20 150.0088
916.30 143.9832
916.40 138.4501
916.50 134.8776
916.60 136.6418
916.70 140.2021
916.80 144.9166
916.90 150.1502
917.00 152.9567
917.10 153.8507
917.20 153.5035
917.30 151.7749
917.40 149.0564
917.50 145.964
917.60 141.6441
917.70 139.1092
917.80 138.381
917.90 139.1294
918.00 139.9307
918.10 141.2355
918.20 142.3406
918.30 143.9431
918.40 144.2209
918.50 143.5542
918.60 143.4177
918.70 144.8458
918.80 147.1954
918.90 150.5347
919.00 156.247
919.10 162.3674
919.20 167.8894
919.30 170.151
919.40 169.3889
919.50 165.4701
919.60 161.1576
919.70 154.8694
919.80 152.2943
919.90 152.2344
920.00 154.79
920.10 158.222
920.20 161.9844
920.30 164.1803
920.40 166.1515
920.50 165.1975
920.60 162.2797
920.70 158.2734
920.80 153.7654
920.90 147.5895
921.00 140.7356
921.10 135.4914
921.20 133.2692
921.30 132.2564
921.40 133.7712
921.50 136.6916
921.60 140.7081
921.70 144.6789
921.80 148.2398
921.90 151.1097
922.00 153.4499
922.10 153.7084
922.20 152.6673
922.30 150.7214
922.40 149.0087
922.50 147.9304
922.60 146.0881
922.70 144.9173
922.80 143.9012
922.90 142.4737
923.00 139.6471
923.10 135.7788
923.20 132.0612
923.30 131.5363
923.40 131.4962
923.50 132.2905
923.60 133.928
923.70 135.8481
923.80 137.4751
923.90 138.815
924.00 140.2611
924.10 142.9703
924.20 147.1616
924.30 152.4519
924.40 155.451
924.50 157.0748
924.60 156.7941
924.70 154.0411
924.80 147.7056
924.90 143.0733
925.00 137.5668
925.10 133.5024
925.20 130.4318
925.30 129.5859
925.40 130.8588
925.50 134.5335
925.60 138.2387
925.70 142.8026
925.80 146.7704
925.90 150.8386
926.00 151.9041
926.10 149.5842
926.20 145.6837
926.30 144.7825
926.40 143.546
926.50 145.3996
926.60 147.6108
926.70 149.2507
926.80 151.1592
926.90 153.1383
927.00 151.2246
927.10 148.2438
927.20 146.1688
927.30 143.519
927.40 141.5932
927.50 139.6172
927.60 136.458
927.70 132.9328
927.80 129.98
927.90 126.9199
928.00 124.3777
928.10 123.8181
928.20 124.4084
928.30 126.9517
928.40 130.9058
928.50 134.5681
928.60 136.1592
928.70 136.9721
928.80 134.5892
928.90 131.0221
929.00 128.4562
929.10 127.5689
929.20 128.1884
929.30 130.3805
929.40 134.0594
929.50 136.0542
929.60 137.1413
929.70 137.6227
929.80 137.603
929.90 136.9279
930.00 137.5952
930.10 138.6358
930.20 136.823
930.30 134.9092
930.40 132.762
930.50 130.5905
930.60 128.5705
930.70 127.018
930.80 125.9198
930.90 125.8495
931.00 127.0138
931.10 129.874
931.20 133.0804
931.30 136.3969
931.40 141.1786
931.50 145.1948
931.60 145.1184
931.70 145.1124
931.80 144.3982
931.90 145.3144
932.00 146.4028
932.10 147.8844
932.20 147.9334
932.30 148.0927
932.40 146.7186
932.50 143.3047
932.60 140.2232
932.70 139.6378
932.80 139.7436
932.90 139.2053
933.00 140.5176
933.10 141.7753
933.20 141.7167
933.30 140.2589
933.40 138.5409
933.50 136.5508
933.60 134.67
933.70 133.5519
933.80 133.8744
933.90 134.3242
934.00 135.7765
934.10 138.5746
934.20 141.3659
934.30 143.2544
934.40 144.0679
934.50 144.9093
934.60 145.9891
934.70 147.1428
934.80 147.8318
934.90 148.3172
935.00 148.6648
935.10 146.735
935.20 143.767
935.30 140.8053
935.40 136.9205
935.50 132.3587
935.60 128.9728
935.70 128.8547
935.80 129.1218
935.90 132.0863
936.00 138.1474
936.10 144.1597
936.20 149.2317
936.30 153.3163
936.40 156.9611
936.50 157.8076
936.60 157.6982
936.70 155.431
936.80 151.4457
936.90 147.4627
937.00 144.1083
937.10 142.2558
937.20 140.5945
937.30 140.0924
937.40 140.2093
937.50 141.0033
937.60 141.7002
937.70 142.2995
937.80 142.2685
937.90 140.842
938.00 139.5255
938.10 139.3136
938.20 140.0161
938.30 140.6167
938.40 141.0773
938.50 141.5247
938.60 142.3084
938.70 141.6987
938.80 141.06
938.90 141.0963
939.00 142.9433
939.10 145.0551
939.20 147.6712
939.30 150.2587
939.40 152.5776
939.50 154.168
939.60 155.6443
939.70 155.2443
939.80 151.6332
939.90 147.7821
940.00 143.6463
940.10 140.7741
940.20 138.3768
940.30 138.544
940.40 139.666
940.50 142.6617
940.60 147.113
940.70 151.6039
940.80 155.1373
940.90 155.4303
941.00 155.531
941.10 155.596
941.20 155.9916
941.30 155.3263
941.40 154.5177
941.50 153.8346
941.60 153.4201
941.70 152.9474
941.80 152.3794
941.90 150.5986
942.00 147.5484
942.10 145.0158
942.20 144.887
942.30 145.6547
942.40 146.8581
942.50 147.4439
942.60 148.0065
942.70 149.68
942.80 153.7147
942.90 157.6421
943.00 161.1402
943.10 164.4528
943.20 167.4776
943.30 170.2549
943.40 173.0162
943.50 175.513
943.60 173.21
943.70 170.653
943.80 167.531
943.90 165.4169
944.00 163.077
944.10 160.6905
944.20 158.4167
944.30 156.4004
944.40 154.8538
944.50 153.3609
944.60 152.3953
944.70 150.8523
944.80 149.6749
944.90 150.3366
945.00 152.0187
945.10 153.606
945.20 156.1945
945.30 159.0485
945.40 161.4741
945.50 162.2476
945.60 162.6565
945.70 160.8857
945.80 158.2314
945.90 156.0694
946.00 153.6745
946.10 150.8551
946.20 148.9752
946.30 148.9439
946.40 149.0751
946.50 151.2133
946.60 155.0733
946.70 158.5153
946.80 161.0599
946.90 163.5578
947.00 165.4092
947.10 165.9111
947.20 166.1642
947.30 166.547
947.40 167.3656
947.50 168.2819
947.60 169.1624
947.70 169.2724
947.80 169.7181
947.90 170.1789
948.00 170.4519
948.10 170.1436
948.20 170.5136
948.30 170.926
948.40 171.753
948.50 174.8965
948.60 177.8369
948.70 180.3421
948.80 182.8074
948.90 186.1142
949.00 187.9029
949.10 189.183
949.20 189.2575
949.30 186.1126
949.40 182.8882
949.50 180.1928
949.60 178.9386
949.70 177.8144
949.80 177.5012
949.90 177.5518
950.00 178.0919
950.10 179.3272
950.20 180.5707
950.30 181.0043
950.40 180.1319
950.50 179.1408
950.60 179.2852
950.70 180.7325
950.80 183.4036
950.90 184.8593
951.00 185.8391
951.10 186.1829
951.20 187.4386
951.30 188.4249
951.40 187.3024
951.50 184.3153
951.60 180.7147
951.70 176.8812
951.80 173.2437
951.90 170.156
952.00 168.554
952.10 167.1675
952.20 168.6542
952.30 174.1787
952.40 180.1738
952.50 186.7485
952.60 193.0857
952.70 199.1242
952.80 199.6136
952.90 198.8392
953.00 196.5056
953.10 192.7223
953.20 188.658
953.30 184.5953
953.40 182.0702
953.50 179.884
953.60 180.5784
953.70 182.5375
953.80 184.2856
953.90 183.1508
954.00 181.9577
954.10 181.4546
954.20 181.228
954.30 181.0002
954.40 181.7102
954.50 183.2534
954.60 184.9902
954.70 188.5839
954.80 192.5642
954.90 195.6142
955.00 195.9051
955.10 196.1344
955.20 195.2086
955.30 192.8284
955.40 191.4116
955.50 190.8898
955.60 190.403
955.70 190.0553
955.80 190.5043
955.90 190.9338
956.00 191.167
956.10 191.8392
956.20 192.0423
956.30 192.1236
956.40 192.6811
956.50 193.079
956.60 193.1304
956.70 193.1295
956.80 193.368
956.90 193.4448
957.00 193.6451
957.10 194.0639
957.20 194.3165
957.30 194.4675
957.40 194.4464
957.50 194.3857
957.60 193.3974
957.70 191.2264
957.80 189.0552
957.90 187.0508
958.00 185.317
958.10 183.9792
958.20 183.3028
958.30 182.7295
958.40 182.7172
958.50 181.7469
958.60 180.5617
958.70 178.7161
958.80 177.2864
958.90 175.2056
959.00 171.2403
959.10 166.7907
959.20 162.8181
959.30 160.9229
959.40 159.7066
959.50 159.9741
959.60 160.4925
959.70 160.8774
959.80 160.8436
959.90 161.3542
960.00 161.2538
960.10 160.6777
960.20 160.2696
960.30 161.1293
960.40 161.8937
960.50 162.6971
960.60 165.9644
960.70 168.3419
960.80 170.4985
960.90 171.3223
961.00 171.0653
961.10 169.5099
961.20 168.1744
961.30 167.1959
961.40 165.1976
961.50 165.6878
961.60 166.4344
961.70 168.4126
961.80 170.829
961.90 174.0067
962.00 176.9738
962.10 179.2997
962.20 181.6979
962.30 182.3394
962.40 182.6524
962.50 181.1917
962.60 179.6005
962.70 177.9967
962.80 176.8437
962.90 176.2034
963.00 175.4538
963.10 175.8934
963.20 176.7058
963.30 177.2412
963.40 175.2879
963.50 172.8818
963.60 168.4553
963.70 163.0906
963.80 157.5023
963.90 152.4225
964.00 147.7448
964.10 144.1268
964.20 143.8828
964.30 144.1908
964.40 147.0261
964.50 148.7145
964.60 150.9323
964.70 154.6027
964.80 158.9058
964.90 162.1207
965.00 163.4897
965.10 164.5193
965.20 164.2213
965.30 163.9267
965.40 163.509
965.50 162.9863
965.60 162.8356
965.70 163.0231
965.80 165.3861
965.90 168.6897
966.00 173.0038
966.10 174.6543
966.20 176.3172
966.30 178.7561
966.40 181.1156
966.50 183.1164
966.60 184.546
966.70 185.8944
966.80 185.9721
966.90 186.3597
967.00 186.9188
967.10 187.6073
967.20 185.012
967.30 182.2802
967.40 179.7331
967.50 177.8604
967.60 175.6595
967.70 175.1661
967.80 175.4595
967.90 175.7119
968.00 176.4242
968.10 177.4413
968.20 179.4351
968.30 180.6398
968.40 181.5665
968.50 181.1244
968.60 179.9091
968.70 178.5184
968.80 177.9964
968.90 177.6245
969.00 177.6299
969.10 178.5896
969.20 179.8719
969.30 182.1027
969.40 184.7604
969.50 187.6414
969.60 189.9137
969.70 191.9299
969.80 193.4382
969.90 194.2858
970.00 194.8642
970.10 194.2299
970.20 192.9634
970.30 191.3718
970.40 189.1254
970.50 186.6614
970.60 183.6513
970.70 182.2841
970.80 181.2162
970.90 181.6787
971.00 184.2459
971.10 187.6934
971.20 192.3252
971.30 196.8152
971.40 202.0854
971.50 205.2454
971.60 207.7513
971.70 208.6814
971.80 207.8077
971.90 206.5105
972.00 204.8129
972.10 204.2883
972.20 202.9671
972.30 201.8203
972.40 201.073
972.50 200.4018
972.60 198.1077
972.70 195.7999
972.80 193.7235
972.90 191.2033
973.00 188.6448
973.10 186.8563
973.20 185.7633
973.30 185.6816
973.40 186.1221
973.50 186.6141
973.60 187.4814
973.70 188.0312
973.80 188.5358
973.90 189.1665
974.00 190.0983
974.10 189.7381
974.20 188.0982
974.30 186.2589
974.40 184.837
974.50 183.5445
974.60 182.3179
974.70 181.474
974.80 180.9593
974.90 181.2143
975.00 182.9731
975.10 185.2421
975.20 187.9425
975.30 189.9556
975.40 191.8051
975.50 193.1068
975.60 194.4632
975.70 195.9019
975.80 197.2497
975.90 198.3336
976.00 198.4867
976.10 198.6862
976.20 199.0386
976.30 200.1355
976.40 200.7418
976.50 201.3628
976.60 201.9354
976.70 202.3334
976.80 202.575
976.90 202.154
977.00 201.4294
977.10 199.0669
977.20 197.3963
977.30 195.9809
977.40 195.8564
977.50 196.6649
977.60 198.1136
977.70 199.5443
977.80 200.206
977.90 200.8303
978.00 200.5242
978.10 199.9459
978.20 197.5038
978.30 194.9666
978.40 192.2892
978.50 189.9095
978.60 188.4233
978.70 187.3169
978.80 186.8729
978.90 186.622
979.00 187.5237
979.10 190.7896
979.20 194.4258
979.30 198.9431
979.40 202.5873
979.50 206.2823
979.60 208.9867
979.70 210.9054
979.80 212.3373
979.90 213.246
980.00 213.9784
980.10 213.5703
980.20 213.1256
980.30 212.7041
980.40 212.4854
980.50 212.4681
980.60 211.5647
980.70 209.934
980.80 208.1999
980.90 207.0931
981.00 206.4028
981.10 205.7997
981.20 205.1034
981.30 203.7394
981.40 202.5072
981.50 203.0597
981.60 204.5994
981.70 205.4625
981.80 205.6251
981.90 205.766
982.00 205.9662
982.10 205.7819
982.20 205.5195
982.30 205.1136
982.40 204.6616
982.50 204.8469
982.60 205.6518
982.70 206.5942
982.80 208.2679
982.90 208.191
983.00 207.9132
983.10 207.2221
983.20 206.5231
983.30 204.9117
983.40 203.5709
983.50 202.5925
983.60 201.3346
983.70 200.863
983.80 200.6833
983.90 201.6483
984.00 203.0452
984.10 204.8053
984.20 206.4312
984.30 207.703
984.40 208.3154
984.50 206.7671
984.60 204.9773
984.70 203.4805
984.80 201.0441
984.90 198.3066
985.00 196.5764
985.10 196.5585
985.20 196.2731
985.30 197.3268
985.40 198.8651
985.50 200.5544
985.60 201.5337
985.70 202.9502
985.80 204.8728
985.90 205.7006
986.00 206.4695
986.10 207.8225
986.20 209.5268
986.30 210.9404
986.40 211.8781
986.50 212.7279
986.60 213.0057
986.70 212.2081
986.80 210.4628
986.90 208.7667
987.00 208.1027
987.10 208.6275
987.20 211.1197
987.30 214.0945
987.40 218.4104
987.50 219.7542
987.60 221.0711
987.70 221.1753
987.80 219.6031
987.90 215.5956
988.00 212.4338
988.10 210.1299
988.20 208.5908
988.30 210.6184
988.40 213.2282
988.50 216.9483
988.60 219.184
988.70 221.7956
988.80 223.2893
988.90 223.7927
989.00 222.8219
989.10 219.54
989.20 215.7016
989.30 209.4441
989.40 200.7137
989.50 190.6102
989.60 178.7153
989.70 166.773
989.80 154.1818
989.90 143.8436
990.00 134.2778
990.10 127.0456
990.20 121.0702
990.30 115.5325
990.40 110.508
990.50 104.844
990.60 98.93944
990.70 94.2461
990.80 90.25271
990.90 87.11569
991.00 86.03874
991.10 85.44175
991.20 85.76006
991.30 84.67518
991.40 83.49665
991.50 82.5307
991.60 81.81231
991.70 81.31064
991.80 81.45063
991.90 81.80945
992.00 83.09632
992.10 84.38959
992.20 85.7516
992.30 86.64465
992.40 86.81497
992.50 86.04276
992.60 87.15047
992.70 89.06063
992.80 91.49175
992.90 94.42098
993.00 97.77326
993.10 101.4975
993.20 103.9728
993.30 106.317
993.40 108.1797
993.50 109.8109
993.60 111.2267
993.70 114.3044
993.80 117.6695
993.90 121.8286
994.00 126.38
994.10 130.7236
994.20 134.0326
994.30 136.5863
994.40 137.7118
994.50 137.829
994.60 137.8464
994.70 138.3565
994.80 139.305
994.90 140.6108
995.00 142.9542
995.10 145.9518
995.20 149.4572
995.30 151.6754
995.40 153.2702
995.50 152.4989
995.60 149.5177
995.70 146.248
995.80 142.482
995.90 139.3781
996.00 136.0566
996.10 135.3629
996.20 136.5305
996.30 141.3492
996.40 146.8053
996.50 152.4738
996.60 157.9838
996.70 158.6055
996.80 157.4336
996.90 153.0048
997.00 147.2913
997.10 137.7906
997.20 129.8451
997.30 122.7093
997.40 117.2101
997.50 115.8257
997.60 116.013
997.70 118.7287
997.80 121.011
997.90 124.7005
998.00 128.1249
998.10 131.0834
998.20 132.8752
998.30 132.279
998.40 131.1532
998.50 128.9514
998.60 127.5086
998.70 126.1303
998.80 125.1413
998.90 124.3961
999.00 123.713
999.10 123.8178
999.20 124.097
999.30 124.4108
999.40 123.2736
999.50 121.7372
999.60 121.3419
999.70 122.7835
999.80 125.2618
999.90 129.2816
1000.00 133.7254
1000.10 139.4018
1000.20 144.6026
1000.30 150.4536
1000.40 155.8135
1000.50 158.1535
1000.60 158.946
1000.70 158.0644
1000.80 156.7496
1000.90 151.7198
1001.00 147.1662
1001.10 142.6153
1001.20 138.864
1001.30 137.6163
1001.40 138.1188
1001.50 140.4741
1001.60 143.1138
1001.70 147.5165
1001.80 151.0735
1001.90 154.188
1002.00 155.6803
1002.10 156.6899
1002.20 157.4925
1002.30 158.4834
1002.40 160.0262
1002.50 162.262
1002.60 164.4215
1002.70 166.4478
1002.80 167.7078
1002.90 166.6082
1003.00 165.0287
1003.10 162.6316
1003.20 160.4462
1003.30 157.5493
1003.40 154.3764
1003.50 151.2704
1003.60 148.2841
1003.70 147.3607
1003.80 146.6822
1003.90 146.7092
1004.00 147.5519
1004.10 150.3316
1004.20 155.6669
1004.30 161.7734
1004.40 168.952
1004.50 172.9595
1004.60 175.9731
1004.70 176.2888
1004.80 173.2799
1004.90 168.2752
1005.00 159.9012
1005.10 150.4719
1005.20 139.4518
1005.30 130.9359
1005.40 123.5565
1005.50 117.8844
1005.60 114.5065
1005.70 112.5121
1005.80 113.6434
1005.90 115.3901
1006.00 118.5275
1006.10 122.2125
1006.20 125.746
1006.30 128.0906
1006.40 132.529
1006.50 137.1687
1006.60 141.946
1006.70 146.5036
1006.80 151.7616
1006.90 156.3345
1007.00 159.7946
1007.10 162.014
1007.20 162.9444
1007.30 163.4239
1007.40 162.5064
1007.50 163.4425
1007.60 164.8174
1007.70 167.6529
1007.80 171.6073
1007.90 176.445
1008.00 179.8892
1008.10 182.7092
1008.20 184.9631
1008.30 184.9529
1008.40 185.0625
1008.50 185.0648
1008.60 184.408
1008.70 182.8076
1008.80 180.781
1008.90 178.8133
1009.00 174.4019
1009.10 170.9883
1009.20 167.5947
1009.30 164.574
1009.40 163.5095
1009.50 164.2222
1009.60 168.3511
1009.70 174.1669
1009.80 182.8799
1009.90 190.582
1010.00 198.182
1010.10 206.792
1010.20 213.1986
1010.30 218.3995
1010.40 220.2122
1010.50 219.5678
1010.60 215.3498
1010.70 209.7017
1010.80 203.9054
1010.90 196.0895
1011.00 187.784
1011.10 179.716
1011.20 172.5794
1011.30 166.3566
1011.40 160.8048
1011.50 156.694
1011.60 153.1812
1011.70 150.2746
1011.80 151.0635
1011.90 152.7556
1012.00 157.1695
1012.10 163.4855
1012.20 171.5805
1012.30 179.7835
1012.40 186.8386
1012.50 193.9407
1012.60 198.6844
1012.70 202.5752
1012.80 204.0638
1012.90 204.7934
1013.00 204.7292
1013.10 202.3471
1013.20 198.2495
1013.30 192.6038
1013.40 185.1861
1013.50 177.1972
1013.60 166.899
1013.70 160.4002
1013.80 154.2479
1013.90 150.7444
1014.00 151.1345
1014.10 154.7479
1014.20 158.6912
1014.30 161.8437
1014.40 167.0266
1014.50 168.9536
1014.60 169.985
1014.70 169.6923
1014.80 171.3579
1014.90 172.9218
1015.00 175.4895
1015.10 178.9803
1015.20 183.6854
1015.30 185.0585
1015.40 185.6195
1015.50 184.7576
1015.60 181.4666
1015.70 176.5147
1015.80 170.678
1015.90 166.1428
1016.00 162.1717
1016.10 161.3847
1016.20 161.786
1016.30 164.5821
1016.40 166.6358
1016.50 169.3414
1016.60 172.6312
1016.70 174.9448
1016.80 176.541
1016.90 177.2619
1017.00 177.7019
1017.10 176.0649
1017.20 178.7531
1017.30 182.2395
1017.40 186.7102
1017.50 189.8313
1017.60 194.3823
1017.70 197.1055
1017.80 197.5788
1017.90 195.2969
1018.00 190.9452
1018.10 185.4885
1018.20 176.7632
1018.30 170.7076
1018.40 164.7328
1018.50 160.3476
1018.60 157.726
1018.70 158.196
1018.80 159.8776
1018.90 161.9255
1019.00 166.3407
1019.10 169.5325
1019.20 172.6993
1019.30 175.3492
1019.40 177.1856
1019.50 177.3231
1019.60 177.2274
1019.70 177.3927
1019.80 176.597
1019.90 176.7157
1020.00 177.3463
1020.10 179.2194
1020.20 181.4008
1020.30 183.8334
1020.40 186.5224
1020.50 189.2786
1020.60 192.6816
1020.70 193.4525
1020.80 193.6685
1020.90 192.9018
1021.00 190.8517
1021.10 187.7749
1021.20 183.4736
1021.30 178.9143
1021.40 172.3218
1021.50 166.0277
1021.60 160.0487
1021.70 154.9369
1021.80 150.8404
1021.90 147.0903
1022.00 145.1241
1022.10 145.1997
1022.20 147.1948
1022.30 150.5672
1022.40 154.2598
1022.50 159.7542
1022.60 164.0967
1022.70 168.4717
1022.80 172.1759
1022.90 174.0086
1023.00 173.8914
1023.10 172.5803
1023.20 171.2369
1023.30 169.1593
1023.40 169.6534
1023.50 171.0017
1023.60 174.4813
1023.70 178.955
1023.80 183.84
1023.90 188.7692
1024.00 193.3922
1024.10 198.2758
1024.20 200.2355
1024.30 201.2718
1024.40 200.8179
1024.50 199.5425
1024.60 197.6018
1024.70 194.3448
1024.80 190.3633
1024.90 185.2487
1025.00 180.9926
1025.10 177.2316
1025.20 173.3124
1025.30 170.7635
1025.40 168.8115
1025.50 168.0666
1025.60 167.6318
1025.70 167.495
1025.80 165.3827
1025.90 161.9656
1026.00 157.1103
1026.10 152.1097
1026.20 146.6518
1026.30 141.3122
1026.40 140.4499
1026.50 141.8534
1026.60 146.1101
1026.70 151.3812
1026.80 160.5589
1026.90 167.9024
1027.00 174.5909
1027.10 179.8071
1027.20 181.4206
1027.30 181.0308
1027.40 178.9175
1027.50 177.373
1027.60 174.0951
1027.70 169.8
1027.80 165.3524
1027.90 161.3048
1028.00 156.5962
1028.10 152.0328
1028.20 148.555
1028.30 146.6716
1028.40 145.5073
1028.50 147.343
1028.60 150.6282
1028.70 157.0632
1028.80 162.8258
1028.90 168.9215
1029.00 174.8769
1029.10 178.0349
1029.20 179.51
1029.30 179.6655
1029.40 179.6296
1029.50 177.4131
1029.60 175.3663
1029.70 173.5209
1029.80 172.2219
1029.90 171.102
1030.00 170.1659
1030.10 169.908
1030.20 170.224
1030.30 171.1453
1030.40 172.9965
1030.50 175.3017
1030.60 179.0171
1030.70 181.3158
1030.80 183.3714
1030.90 184.8782
1031.00 186.0311
1031.10 185.9742
1031.20 185.147
1031.30 184.1695
1031.40 183.3057
1031.50 182.3442
1031.60 181.133
1031.70 179.5093
1031.80 178.0008
1031.90 175.9819
1032.00 173.5851
1032.10 171.1195
1032.20 168.6732
1032.30 167.0249
1032.40 165.9005
1032.50 166.7711
1032.60 170.4851
1032.70 174.8244
1032.80 180.6625
1032.90 187.4686
1033.00 197.3442
1033.10 204.2141
1033.20 210.0768
1033.30 214.0166
1033.40 212.6924
1033.50 208.6854
1033.60 201.8244
1033.70 195.0357
1033.80 185.3694
1033.90 177.8975
1034.00 171.8917
1034.10 169.5612
1034.20 170.2541
1034.30 172.4244
1034.40 176.4696
1034.50 179.6684
1034.60 183.4703
1034.70 185.7153
1034.80 186.9392
1034.90 185.4397
1035.00 183.5749
1035.10 181.2713
1035.20 178.5524
1035.30 177.389
1035.40 176.625
1035.50 177.4002
1035.60 179.1841
1035.70 182.6261
1035.80 186.271
1035.90 190.2311
1036.00 195.0937
1036.10 199.0076
1036.20 203.0933
1036.30 206.9297
1036.40 210.3132
1036.50 212.906
1036.60 215.2311
1036.70 217.2294
1036.80 217.5994
1036.90 220.101
1037.00 223.297
1037.10 226.9127
1037.20 229.771
1037.30 233.7508
1037.40 234.7373
1037.50 234.0568
1037.60 230.4458
1037.70 223.0416
1037.80 213.5224
1037.90 201.6049
1038.00 192.7058
1038.10 183.9936
1038.20 178.5353
1038.30 175.1849
1038.40 177.3354
1038.50 179.125
1038.60 181.8165
1038.70 186.3203
1038.80 188.4091
1038.90 189.2163
1039.00 189.1983
1039.10 189.275
1039.20 187.3883
1039.30 187.0392
1039.40 187.1303
1039.50 187.5349
1039.60 188.6305
1039.70 190.5712
1039.80 193.059
1039.90 195.1519
1040.00 197.7142
1040.10 200.3993
1040.20 203.1392
1040.30 206.311
1040.40 209.5748
1040.50 212.6702
1040.60 215.4046
1040.70 217.9009
1040.80 219.6738
1040.90 218.691
1041.00 216.3047
1041.10 211.6149
1041.20 206.59
1041.30 201.3543
1041.40 196.7741
1041.50 195.1968
1041.60 195.5092
1041.70 198.4647
1041.80 202.6122
1041.90 209.9826
1042.00 213.5881
1042.10 215.9145
1042.20 215.5104
1042.30 212.0397
1042.40 206.404
1042.50 199.2396
1042.60 192.262
1042.70 182.7741
1042.80 178.0456
1042.90 175.2908
1043.00 175.7387
1043.10 178.6532
1043.20 184.2389
1043.30 192.5838
1043.40 200.7272
1043.50 211.2709
1043.60 219.5825
1043.70 226.3386
1043.80 229.3751
1043.90 231.8244
1044.00 233.0818
1044.10 232.2654
1044.20 231.0041
1044.30 229.8801
1044.40 228.8648
1044.50 227.8774
1044.60 226.628
1044.70 226.5636
1044.80 226.6358
1044.90 227.5996
1045.00 231.0536
1045.10 236.6922
1045.20 243.3888
1045.30 249.8461
1045.40 258.237
1045.50 262.0397
1045.60 264.272
1045.70 263.5759
1045.80 260.2298
1045.90 253.7444
1046.00 245.4054
1046.10 238.0298
1046.20 229.4752
1046.30 221.2404
1046.40 213.4145
1046.50 206.9237
1046.60 199.939
1046.70 193.6079
1046.80 188.8806
1046.90 185.518
1047.00 182.3084
1047.10 181.1105
1047.20 180.9603
1047.30 182.4383
1047.40 183.0205
1047.50 184.1952
1047.60 185.9846
1047.70 186.9175
1047.80 187.809
1047.90 189.613
1048.00 192.0379
1048.10 193.9147
1048.20 197.736
1048.30 202.2085
1048.40 207.5228
1048.50 211.9797
1048.60 216.3267
1048.70 219.6694
1048.80 222.1499
1048.90 223.6262
1049.00 224.5163
1049.10 225.2151
1049.20 225.3068
1049.30 223.5071
1049.40 221.6474
1049.50 219.5209
1049.60 217.1222
1049.70 213.0553
1049.80 211.4344
1049.90 210.7628
1050.00 210.3691
1050.10 211.9866
1050.20 214.5516
1050.30 217.2806
1050.40 218.2427
1050.50 218.7999
1050.60 217.4839
1050.70 215.264
1050.80 212.3509
1050.90 208.7514
1051.00 204.9323
1051.10 200.7978
1051.20 196.721
1051.30 191.9595
1051.40 187.9049
1051.50 184.5655
1051.60 181.2143
1051.70 178.9784
1051.80 177.3125
1051.90 177.0464
1052.00 178.1461
1052.10 180.0465
1052.20 182.9857
1052.30 186.4101
1052.40 190.5538
1052.50 195.3155
1052.60 200.803
1052.70 208.1221
1052.80 213.3382
1052.90 217.6733
1053.00 220.6387
1053.10 222.8666
1053.20 222.7368
1053.30 222.2043
1053.40 221.6115
1053.50 220.4461
1053.60 218.804
1053.70 217.4635
1053.80 216.6749
1053.90 216.2268
1054.00 215.7139
1054.10 214.8841
1054.20 213.9379
1054.30 213.5504
1054.40 211.3986
1054.50 208.8973
1054.60 205.952
1054.70 203.0776
1054.80 199.058
1054.90 196.7428
1055.00 196.0522
1055.10 197.186
1055.20 198.6579
1055.30 200.841
1055.40 203.8277
1055.50 203.2465
1055.60 201.2305
1055.70 197.5341
1055.80 193.1136
1055.90 186.1668
1056.00 181.3441
1056.10 177.3574
1056.20 174.462
1056.30 173.4426
1056.40 173.4563
1056.50 174.5899
1056.60 175.9529
1056.70 178.3753
1056.80 180.2052
1056.90 181.7038
1057.00 182.9982
1057.10 184.0858
1057.20 185.3897
1057.30 187.334
1057.40 190.0083
1057.50 192.61
1057.60 194.9544
1057.70 197.1563
1057.80 199.1435
1057.90 200.657
1058.00 202.0053
1058.10 202.73
1058.20 202.3847
1058.30 201.7928
1058.40 201.3409
1058.50 201.0824
1058.60 198.8998
1058.70 196.467
1058.80 193.8815
1058.90 191.2405
1059.00 189.5682
1059.10 188.2966
1059.20 187.1797
1059.30 185.9616
1059.40 187.0761
1059.50 188.5613
1059.60 190.1023
1059.70 191.6038
1059.80 192.1905
1059.90 192.2611
1060.00 191.7032
1060.10 190.9091
1060.20 189.1411
1060.30 187.1213
1060.40 185.0971
1060.50 183.1953
1060.60 181.5822
1060.70 179.9936
1060.80 178.8803
1060.90 178.6335
1061.00 178.131
1061.10 178.3238
1061.20 179.1243
1061.30 182.4797
1061.40 184.672
1061.50 187.0505
1061.60 189.716
1061.70 192.1229
1061.80 193.109
1061.90 193.5067
1062.00 193.9421
1062.10 192.0824
1062.20 191.7158
1062.30 191.9827
1062.40 193.2859
1062.50 194.9274
1062.60 198.7734
1062.70 203.5742
1062.80 207.9787
1062.90 213.4666
1063.00 217.0872
1063.10 219.4094
1063.20 219.1743
1063.30 219.8048
1063.40 219.2052
1063.50 218.2881
1063.60 218.3792
1063.70 219.2991
1063.80 220.1706
1063.90 221.4648
1064.00 225.2786
1064.10 227.2593
1064.20 228.6003
1064.30 229.0838
1064.40 229.3143
1064.50 228.8246
1064.60 228.6731
1064.70 228.738
1064.80 228.1712
1064.90 227.0553
1065.00 226.3641
1065.10 225.6464
1065.20 223.042
1065.30 218.9402
1065.40 214.3204
1065.50 209.742
1065.60 203.8764
1065.70 200.8491
1065.80 198.3194
1065.90 195.8494
1066.00 192.4269
1066.10 190.422
1066.20 188.7266
1066.30 186.5624
1066.40 184.288
1066.50 183.0766
1066.60 181.9312
1066.70 180.514
1066.80 181.1738
1066.90 181.5405
1067.00 181.2427
1067.10 180.3694
1067.20 181.2496
1067.30 183.9802
1067.40 187.6901
1067.50 193.2981
1067.60 198.5067
1067.70 204.1005
1067.80 209.8437
1067.90 215.1393
1068.00 218.8806
1068.10 221.9082
1068.20 224.7387
1068.30 227.2694
1068.40 229.4232
1068.50 231.7259
1068.60 233.971
1068.70 235.5113
1068.80 236.2337
1068.90 236.0096
1069.00 235.2796
1069.10 233.1463
1069.20 230.8741
1069.30 228.2715
1069.40 224.6438
1069.50 219.3597
1069.60 214.0858
1069.70 210.1203
1069.80 207.3578
1069.90 206.0613
1070.00 206.2324
1070.10 206.7756
1070.20 207.5551
1070.30 208.5091
1070.40 209.3967
1070.50 209.3004
1070.60 208.0584
1070.70 207.6374
1070.80 208.702
1070.90 210.3043
1071.00 212.3401
1071.10 215.4238
1071.20 217.9783
1071.30 219.9277
1071.40 221.6785
1071.50 223.9541
1071.60 225.9009
1071.70 227.757
1071.80 230.3179
1071.90 231.7065
1072.00 232.4991
1072.10 232.3761
1072.20 231.7826
1072.30 229.6651
1072.40 227.4031
1072.50 225.3832
1072.60 223.7181
1072.70 223.5562
1072.80 224.0611
1072.90 225.1117
1073.00 225.0612
1073.10 225.8505
1073.20 227.1557
1073.30 228.5789
1073.40 228.2097
1073.50 227.8419
1073.60 227.4593
1073.70 227.2219
1073.80 227.9222
1073.90 229.9315
1074.00 232.3382
1074.10 234.2883
1074.20 237.0364
1074.30 240.6702
1074.40 244.1822
1074.50 246.5234
1074.60 248.318
1074.70 249.8363
1074.80 250.1761
1074.90 249.026
1075.00 246.982
1075.10 243.3351
1075.20 238.6561
1075.30 232.0142
1075.40 228.1236
1075.50 224.3845
1075.60 222.0848
1075.70 222.4951
1075.80 226.017
1075.90 229.3261
1076.00 232.1354
1076.10 235.9433
1076.20 237.0613
1076.30 237.5027
1076.40 237.5696
1076.50 238.6928
1076.60 238.7179
1076.70 239.1252
1076.80 240.1953
1076.90 242.1348
1077.00 243.5088
1077.10 244.6109
1077.20 244.9778
1077.30 243.6523
1077.40 241.9134
1077.50 240.5542
1077.60 239.822
1077.70 238.3195
1077.80 237.7033
1077.90 237.8161
1078.00 239.2364
1078.10 240.3126
1078.20 241.7532
1078.30 242.6164
1078.40 242.3178
1078.50 241.1186
1078.60 239.3858
1078.70 237.1727
1078.80 233.6449
1078.90 229.6798
1079.00 225.6025
1079.10 221.4276
1079.20 217.2721
1079.30 212.8713
1079.40 210.2028
1079.50 208.6218
1079.60 208.0687
1079.70 209.3972
1079.80 211.5685
1079.90 214.4436
1080.00 216.6625
1080.10 219.5723
1080.20 222.0821
1080.30 224.1803
1080.40 226.5164
1080.50 229.9557
1080.60 233.3899
1080.70 236.3934
1080.80 238.5614
1080.90 240.1192
1081.00 241.4436
1081.10 242.8057
1081.20 243.4572
1081.30 244.4327
1081.40 245.8415
1081.50 248.2473
1081.60 251.7609
1081.70 255.4218
1081.80 257.6332
1081.90 257.9629
1082.00 256.6718
1082.10 254.3921
1082.20 251.4494
1082.30 247.2942
1082.40 243.409
1082.50 239.4063
1082.60 236.6345
1082.70 236.0276
1082.80 236.6142
1082.90 237.9599
1083.00 239.9331
1083.10 243.5765
1083.20 247.15
1083.30 251.6621
1083.40 256.5544
1083.50 260.1186
1083.60 262.5574
1083.70 263.6561
1083.80 263.9185
1083.90 262.6646
1084.00 261.8871
1084.10 260.4812
1084.20 257.7177
1084.30 253.5599
1084.40 249.2643
1084.50 246.0898
1084.60 243.8433
1084.70 240.8543
1084.80 238.2095
1084.90 236.3739
1085.00 236.1316
1085.10 237.1321
1085.20 238.4912
1085.30 239.0684
1085.40 238.607
1085.50 238.3294
1085.60 240.3092
1085.70 242.9552
1085.80 245.8004
1085.90 248.9608
1086.00 253.4994
1086.10 258.403
1086.20 262.5096
1086.30 266.4922
1086.40 268.401
1086.50 268.8107
1086.60 266.8362
1086.70 266.9877
1086.80 266.699
1086.90 266.0435
1087.00 265.4315
1087.10 266.6999
1087.20 267.6247
1087.30 268.1239
1087.40 268.2156
1087.50 266.8416
1087.60 264.3162
1087.70 260.8104
1087.80 257.9915
1087.90 255.9754
1088.00 254.8465
1088.10 254.2896
1088.20 254.8761
1088.30 255.4063
1088.40 255.9124
1088.50 256.4435
1088.60 257.1686
1088.70 257.2516
1088.80 256.2829
1088.90 254.5906
1089.00 253.0691
1089.10 252.0332
1089.20 250.5625
1089.30 248.3995
1089.40 248.3537
1089.50 249.4724
1089.60 251.3686
1089.70 253.4486
1089.80 259.1758
1089.90 265.47
1090.00 271.7744
1090.10 277.5674
1090.20 280.9097
1090.30 282.7407
1090.40 282.4599
1090.50 280.519
1090.60 276.2051
1090.70 270.1994
1090.80 263.5662
1090.90 256.9206
1091.00 254.8345
1091.10 252.6339
1091.20 251.4502
1091.30 252.6527
1091.40 256.4812
1091.50 260.7562
1091.60 265.3093
1091.70 271.9003
1091.80 275.2901
1091.90 277.8488
1092.00 279.2843
1092.10 279.5572
1092.20 277.8936
1092.30 275.4244
1092.40 272.701
1092.50 269.1082
1092.60 266.3479
1092.70 264.1092
1092.80 262.8185
1092.90 263.0166
1093.00 263.6864
1093.10 264.7984
1093.20 266.1477
1093.30 267.3572
1093.40 267.3975
1093.50 266.7912
1093.60 265.4576
1093.70 264.3315
1093.80 263.6848
1093.90 263.4003
1094.00 263.2384
1094.10 265.1876
1094.20 266.1912
1094.30 266.122
1094.40 264.0145
1094.50 261.1061
1094.60 257.0406
1094.70 253.917
1094.80 253.9574
1094.90 255.4067
1095.00 258.7358
1095.10 264.0964
1095.20 274.2234
1095.30 281.4088
1095.40 288.2384
1095.50 293.5136
1095.60 295.8243
1095.70 295.4347
1095.80 294.5726
1095.90 293.3792
1096.00 289.8347
1096.10 288.7773
1096.20 288.5545
1096.30 288.8438
1096.40 288.3166
1096.50 288.8122
1096.60 287.4006
1096.70 283.9117
1096.80 278.0666
1096.90 272.2206
1097.00 265.3747
1097.10 257.5428
1097.20 252.7433
1097.30 249.1337
1097.40 247.7352
1097.50 248.2946
1097.60 252.7688
1097.70 256.6436
1097.80 260.8861
1097.90 266.0108
1098.00 268.9946
1098.10 270.8986
1098.20 271.1734
1098.30 269.9776
1098.40 266.9495
1098.50 264.7385
1098.60 262.6608
1098.70 260.0291
1098.80 259.9002
1098.90 260.3306
1099.00 261.808
1099.10 264.4985
1099.20 268.6424
1099.30 271.6748
1099.40 273.9953
1099.50 276.2497
1099.60 277.9949
1099.70 279.7265
1099.80 281.0172
1099.90 281.1689
1100.00 280.3112
1100.10 279.2353
1100.20 278.0195
1100.30 275.929
1100.40 273.5215
1100.50 270.9089
1100.60 268.2831
1100.70 266.3891
1100.80 265.1652
1100.90 264.4377
1101.00 264.0938
1101.10 265.1379
1101.20 266.1893
1101.30 267.4084
1101.40 268.8115
1101.50 269.7834
1101.60 270.5038
1101.70 270.7439
1101.80 270.5245
1101.90 268.1121
1102.00 264.7683
1102.10 260.8511
1102.20 256.645
1102.30 256.0066
1102.40 255.9259
1102.50 256.5354
1102.60 257.7336
1102.70 262.0455
1102.80 264.8863
1102.90 267.1623
1103.00 269.6567
1103.10 268.4789
1103.20 265.1532
1103.30 260.7906
1103.40 257.4804
1103.50 251.4369
1103.60 246.56
1103.70 243.1608
1103.80 242.2879
1103.90 242.9005
1104.00 245.0013
1104.10 248.2902
1104.20 251.2561
1104.30 254.0286
1104.40 256.2993
1104.50 258.2247
1104.60 260.085
1104.70 260.6236
1104.80 261.2735
1104.90 262.0288
1105.00 261.8627
1105.10 259.3573
1105.20 255.2825
1105.30 250.1462
1105.40 242.4212
1105.50 237.4101
1105.60 233.4277
1105.70 230.4315
1105.80 229.3323
1105.90 230.775
1106.00 233.0236
1106.10 235.0066
1106.20 237.8779
1106.30 239.4791
1106.40 240.7226
1106.50 241.9117
1106.60 241.2058
1106.70 239.1362
1106.80 237.2637
1106.90 236.9107
1107.00 235.1317
1107.10 234.1906
1107.20 234.1279
1107.30 235.3969
1107.40 236.3168
1107.50 237.8303
1107.60 238.9439
1107.70 238.3309
1107.80 238.7339
1107.90 241.3397
1108.00 244.8933
1108.10 247.3947
1108.20 251.0277
1108.30 255.9421
1108.40 261.4729
1108.50 265.5821
1108.60 267.9965
1108.70 268.9482
1108.80 268.8578
1108.90 267.7346
1109.00 266.9315
1109.10 265.6773
1109.20 264.4119
1109.30 265.4757
1109.40 268.0195
1109.50 270.5926
1109.60 272.8686
1109.70 276.0625
1109.80 276.1956
1109.90 274.8986
1110.00 272.071
1110.10 266.6126
1110.20 259.2454
1110.30 252.7362
1110.40 248.265
1110.50 243.8408
1110.60 241.3003
1110.70 240.2383
1110.80 240.709
1110.90 239.6076
1111.00 238.6859
1111.10 237.2932
1111.20 234.9813
1111.30 230.5397
1111.40 227.8373
1111.50 226.1233
1111.60 224.8656
1111.70 224.4825
1111.80 225.63
1111.90 227.1392
1112.00 227.1827
1112.10 227.7106
1112.20 229.9467
1112.30 232.9644
1112.40 235.2959
1112.50 238.6952
1112.60 242.4667
1112.70 246.386
1112.80 249.9719
1112.90 254.5054
1113.00 257.3734
1113.10 258.687
1113.20 259.4414
1113.30 258.8954
1113.40 257.6755
1113.50 255.6994
1113.60 252.792
1113.70 248.0616
1113.80 245.2939
1113.90 245.0054
1114.00 244.9764
1114.10 247.7225
1114.20 252.0444
1114.30 257.4954
1114.40 261.9545
1114.50 268.36
1114.60 272.9817
1114.70 274.2896
1114.80 273.1799
1114.90 271.1736
1115.00 268.1757
1115.10 264.0043
1115.20 260.7458
1115.30 257.7124
1115.40 256.2708
1115.50 257.3593
1115.60 259.3359
1115.70 260.9178
1115.80 262.2882
1115.90 263.5887
1116.00 263.3856
1116.10 262.2471
1116.20 260.4348
1116.30 258.3987
1116.40 256.9395
1116.50 255.6062
1116.60 254.2898
1116.70 252.8668
1116.80 250.0932
1116.90 247.1598
1117.00 243.7513
1117.10 239.0909
1117.20 233.26
1117.30 228.4745
1117.40 224.8897
1117.50 222.407
1117.60 222.708
1117.70 224.4286
1117.80 227.2597
1117.90 231.3246
1118.00 235.8734
1118.10 241.4232
1118.20 246.7896
1118.30 252.1494
1118.40 255.7476
1118.50 258.9819
1118.60 261.8803
1118.70 260.9549
1118.80 259.4802
1118.90 257.7863
1119.00 255.1106
1119.10 251.8515
1119.20 250.1692
1119.30 248.7868
1119.40 248.2151
1119.50 247.8732
1119.60 247.5516
1119.70 247.2679
1119.80 247.5725
1119.90 248.1802
1120.00 248.9655
1120.10 249.7831
1120.20 250.5649
1120.30 251.7934
1120.40 253.5986
1120.50 256.2009
1120.60 258.9158
1120.70 261.9866
1120.80 263.0477
1120.90 263.8603
1121.00 263.883
1121.10 263.6107
1121.20 263.1699
1121.30 261.5991
1121.40 259.5177
1121.50 257.2855
1121.60 254.77
1121.70 251.9423
1121.80 249.0736
1121.90 246.3154
1122.00 243.9485
1122.10 242.2128
1122.20 240.5798
1122.30 241.2802
1122.40 243.5834
1122.50 246.8651
1122.60 251.56
1122.70 256.7009
1122.80 261.5985
1122.90 265.3514
1123.00 267.4498
1123.10 266.752
1123.20 265.4087
1123.30 261.4837
1123.40 258.3277
1123.50 255.3182
1123.60 252.4927
1123.70 251.3258
1123.80 251.353
1123.90 254.2369
1124.00 258.4116
1124.10 262.6014
1124.20 267.5384
1124.30 273.187
1124.40 275.6548
1124.50 277.6617
1124.60 277.5688
1124.70 275.6709
1124.80 273.3768
1124.90 266.9925
1125.00 260.8636
1125.10 255.1772
1125.20 250.903
1125.30 248.476
1125.40 248.6814
1125.50 250.1289
1125.60 253.3453
1125.70 257.5799
1125.80 261.8212
1125.90 266.0955
1126.00 268.3714
1126.10 270.1475
1126.20 269.6789
1126.30 269.1697
1126.40 268.8151
1126.50 269.0464
1126.60 270.046
1126.70 272.1875
1126.80 274.5628
1126.90 277.2272
1127.00 277.8966
1127.10 278.379
1127.20 277.8013
1127.30 274.5075
1127.40 270.4477
1127.50 266.2365
1127.60 263.3182
1127.70 261.6089
1127.80 260.0128
1127.90 258.9574
1128.00 259.1916
1128.10 259.5638
1128.20 260.1545
1128.30 261.0065
1128.40 261.9048
1128.50 263.0875
1128.60 263.3085
1128.70 263.2258
1128.80 263.3159
1128.90 263.858
1129.00 264.8118
1129.10 265.6313
1129.20 266.1835
1129.30 266.1709
1129.40 266.4175
1129.50 267.0872
1129.60 267.5527
1129.70 268.072
1129.80 268.985
1129.90 269.5427
1130.00 269.9756
1130.10 269.1369
1130.20 267.6273
1130.30 265.6172
1130.40 262.0168
1130.50 257.7618
1130.60 254.5212
1130.70 251.7438
1130.80 249.7899
1130.90 249.36
1131.00 249.1973
1131.10 250.9445
1131.20 253.6816
1131.30 256.7848
1131.40 261.025
1131.50 264.4847
1131.60 266.8985
1131.70 268.948
1131.80 270.6404
1131.90 271.8925
1132.00 272.819
1132.10 273.141
1132.20 272.4696
1132.30 271.6716
1132.40 270.0099
1132.50 269.4744
1132.60 269.3988
1132.70 268.8234
1132.80 267.3938
1132.90 265.065
1133.00 263.134
1133.10 261.2685
1133.20 258.6527
1133.30 255.9329
1133.40 253.0112
1133.50 250.2698
1133.60 247.5073
1133.70 244.4568
1133.80 241.8088
1133.90 239.3333
1134.00 234.7641
1134.10 229.7982
1134.20 224.8349
1134.30 220.9448
1134.40 218.288
1134.50 217.5817
1134.60 218.0253
1134.70 220.7013
1134.80 225.2672
1134.90 230.0978
1135.00 236.5852
1135.10 241.9722
1135.20 246.8649
1135.30 248.8159
1135.40 249.0169
1135.50 247.7578
1135.60 245.4703
1135.70 242.6225
1135.80 240.56
1135.90 239.1401
1136.00 239.025
1136.10 239.5908
1136.20 240.3176
1136.30 242.3964
1136.40 243.7642
1136.50 244.7973
1136.60 244.5144
1136.70 243.6271
1136.80 242.2957
1136.90 239.9096
1137.00 236.7655
1137.10 233.6485
1137.20 230.7815
1137.30 228.4459
1137.40 224.8733
1137.50 221.1958
1137.60 217.3607
1137.70 211.0934
1137.80 203.6281
1137.90 193.4697
1138.00 184.1807
1138.10 176.9087
1138.20 169.4752
1138.30 163.0141
1138.40 161.8953
1138.50 162.5925
1138.60 167.1486
1138.70 174.3265
1138.80 182.0703
1138.90 194.3027
1139.00 203.7711
1139.10 211.8781
1139.20 218.2298
1139.30 222.2901
1139.40 223.7181
1139.50 222.8293
1139.60 219.8414
1139.70 215.0089
1139.80 209.5728
1139.90 202.8539
1140.00 194.7938
1140.10 186.4464
1140.20 176.0434
1140.30 167.2751
1140.40 159.349
1140.50 151.6098
1140.60 146.5808
1140.70 145.3887
1140.80 146.7558
1140.90 150.7446
1141.00 158.3615
1141.10 167.6802
1141.20 180.7867
1141.30 192.5212
1141.40 204.1232
1141.50 215.7744
1141.60 224.2099
1141.70 230.9889
1141.80 236.0314
1141.90 240.4024
1142.00 244.3933
1142.10 247.3094
1142.20 249.3082
1142.30 250.9249
1142.40 252.3672
1142.50 253.4211
1142.60 255.3931
1142.70 257.3891
1142.80 258.3397
1142.90 258.4881
1143.00 258.2045
1143.10 257.5514
1143.20 256.4897
1143.30 254.937
1143.40 253.245
1143.50 251.514
1143.60 250.158
1143.70 248.8887
1143.80 247.8034
1143.90 246.6294
1144.00 245.4864
1144.10 244.8864
1144.20 244.5102
1144.30 244.2544
1144.40 244.1275
1144.50 244.0541
1144.60 244.0185
1144.70 244.1139
1144.80 244.5025
1144.90 245.9918
1145.00 247.4223
1145.10 248.728
1145.20 249.1699
1145.30 249.4981
1145.40 249.5912
1145.50 249.892
1145.60 250.3045
1145.70 250.3878
1145.80 250.7309
1145.90 251.5721
1146.00 252.9545
1146.10 254.7846
1146.20 256.8391
1146.30 259.2983
1146.40 262.6177
1146.50 265.6288
1146.60 268.5478
1146.70 270.6999
1146.80 271.9065
1146.90 272.6039
1147.00 272.2206
1147.10 271.366
1147.20 270.16
1147.30 268.8855
1147.40 267.7304
1147.50 267.5458
1147.60 267.7454
1147.70 268.7251
1147.80 270.9153
1147.90 273.2308
1148.00 275.6113
1148.10 277.1025
1148.20 278.1355
1148.30 278.0936
1148.40 277.4412
1148.50 276.2274
1148.60 275.4768
1148.70 275.2967
1148.80 276.351
1148.90 277.6133
1149.00 279.2982
1149.10 280.4853
1149.20 281.5705
1149.30 282.0504
1149.40 281.4954
1149.50 280.4073
1149.60 278.5602
1149.70 277.0479
1149.80 276.2252
1149.90 275.7512
1150.00 275.734
1150.10 276.8417
1150.20 278.0278
1150.30 279.3658
1150.40 280.8911
1150.50 282.425
1150.60 283.8594
1150.70 284.1386
1150.80 283.8227
1150.90 284.0402
1151.00 284.4666
1151.10 285.0411
1151.20 285.3407
1151.30 285.3342
1151.40 284.7276
1151.50 283.8294
1151.60 282.3895
1151.70 281.0617
1151.80 279.6857
1151.90 277.7883
1152.00 274.9424
1152.10 271.6292
1152.20 267.4453
1152.30 263.4074
1152.40 259.7835
1152.50 256.6844
1152.60 254.2476
1152.70 253.406
1152.80 253.0949
1152.90 253.7267
1153.00 255.5296
1153.10 257.4969
1153.20 260.0822
1153.30 261.5987
1153.40 262.6121
1153.50 263.3202
1153.60 264.0345
1153.70 264.8227
1153.80 266.4094
1153.90 268.5334
1154.00 270.8754
1154.10 273.1782
1154.20 275.4142
1154.30 277.422
1154.40 279.1278
1154.50 278.7441
1154.60 278.1992
1154.70 277.5817
1154.80 276.0421
1154.90 274.512
1155.00 273.1694
1155.10 272.692
1155.20 272.6418
1155.30 272.2467
1155.40 272.5541
1155.50 274.0076
1155.60 275.0883
1155.70 276.0683
1155.80 276.534
1155.90 277.7866
1156.00 279.3765
1156.10 280.3933
1156.20 281.2431
1156.30 281.9752
1156.40 282.6035
1156.50 283.0067
1156.60 282.7427
1156.70 282.3082
1156.80 281.6067
1156.90 280.4526
1157.00 279.1387
1157.10 277.0269
1157.20 274.6056
1157.30 272.058
1157.40 269.8619
1157.50 268.0507
1157.60 266.6453
1157.70 266.0122
1157.80 266.1668
1157.90 267.7879
1158.00 269.6403
1158.10 271.8254
1158.20 273.8571
1158.30 275.779
1158.40 277.1495
1158.50 276.4631
1158.60 274.9766
1158.70 272.6551
1158.80 270.0665
1158.90 267.2586
1159.00 263.7919
1159.10 260.0425
1159.20 256.4322
1159.30 252.8895
1159.40 249.4402
1159.50 247.6966
1159.60 246.089
1159.70 244.9421
1159.80 244.1255
1159.90 243.4311
1160.00 244.2161
1160.10 245.568
1160.20 247.3939
1160.30 250.0377
1160.40 252.8715
1160.50 255.1437
1160.60 256.9674
1160.70 258.2204
1160.80 260.2932
1160.90 262.2952
1161.00 264.0134
1161.10 265.966
1161.20 267.9967
1161.30 270.8965
1161.40 273.0537
1161.50 274.4226
1161.60 275.7809
1161.70 276.8297
1161.80 277.0106
1161.90 276.105
1162.00 273.9345
1162.10 272.81
1162.20 271.6668
1162.30 270.453
1162.40 270.4223
1162.50 270.7449
1162.60 272.8705
1162.70 275.1517
1162.80 277.5252
1162.90 280.803
1163.00 283.8744
1163.10 285.4367
1163.20 286.2345
1163.30 286.1483
1163.40 284.2659
1163.50 281.8358
1163.60 277.5721
1163.70 273.7204
1163.80 269.9849
1163.90 266.0176
1164.00 263.572
1164.10 262.4247
1164.20 263.2164
1164.30 264.9415
1164.40 267.2842
1164.50 270.2955
1164.60 273.8272
1164.70 274.5381
1164.80 274.8798
1164.90 274.1135
1165.00 272.2301
1165.10 270.0433
1165.20 265.4597
1165.30 261.6987
1165.40 258.5841
1165.50 255.8369
1165.60 254.036
1165.70 254.097
1165.80 255.5687
1165.90 258.3172
1166.00 260.7248
1166.10 263.4077
1166.20 266.7982
1166.30 268.5974
1166.40 270.0118
1166.50 270.2767
1166.60 270.0755
1166.70 269.5368
1166.80 267.8678
1166.90 266.0062
1167.00 264.3639
1167.10 262.5717
1167.20 260.6988
1167.30 259.3008
1167.40 257.8647
1167.50 256.3395
1167.60 254.363
1167.70 252.3131
1167.80 250.4601
1167.90 248.1838
1168.00 245.6253
1168.10 242.6551
1168.20 238.6174
1168.30 232.7765
1168.40 225.9477
1168.50 218.0906
1168.60 207.9431
1168.70 196.9254
1168.80 184.0582
1168.90 173.28
1169.00 162.8059
1169.10 151.9205
1169.20 145.4836
1169.30 141.7733
1169.40 142.5285
1169.50 145.7671
1169.60 151.7858
1169.70 161.5009
1169.80 173.6761
1169.90 185.1248
1170.00 197.2092
1170.10 210.4744
1170.20 221.3953
1170.30 231.7181
1170.40 239.546
1170.50 246.1126
1170.60 251.9698
1170.70 255.5502
1170.80 258.1666
1170.90 259.8927
1171.00 260.7683
1171.10 261.0783
1171.20 261.1371
1171.30 261.1448
1171.40 261.0689
1171.50 261.3242
1171.60 261.5651
1171.70 261.4909
1171.80 261.3103
1171.90 261.0772
1172.00 260.6782
1172.10 260.3912
1172.20 260.2874
1172.30 260.3989
1172.40 260.74
1172.50 261.5981
1172.60 262.7818
1172.70 264.4538
1172.80 265.7869
1172.90 267.0767
1173.00 268.2531
1173.10 268.7012
1173.20 268.822
1173.30 268.1426
1173.40 267.0806
1173.50 265.6361
1173.60 263.8583
1173.70 262.1404
1173.80 261.2381
1173.90 260.4382
1174.00 259.7739
1174.10 260.2764
1174.20 261.0688
1174.30 262.89
1174.40 264.5937
1174.50 266.2515
1174.60 267.5566
1174.70 267.8653
1174.80 267.1147
1174.90 265.4213
1175.00 263.1124
1175.10 260.0325
1175.20 256.4144
1175.30 252.1645
1175.40 249.1931
1175.50 246.4615
1175.60 244.5343
1175.70 242.7969
1175.80 241.1227
1175.90 240.0116
1176.00 238.4126
1176.10 236.3141
1176.20 233.7096
1176.30 230.1583
1176.40 224.4186
1176.50 217.8101
1176.60 210.2399
1176.70 199.8592
1176.80 188.7006
1176.90 175.2081
1177.00 162.2952
1177.10 149.5296
1177.20 135.1601
1177.30 124.3837
1177.40 116.7936
1177.50 112.4661
1177.60 110.7495
1177.70 113.0396
1177.80 119.1768
1177.90 128.8104
1178.00 140.0548
1178.10 152.2416
1178.20 166.8519
1178.30 179.3866
1178.40 191.3794
1178.50 202.0503
1178.60 211.6038
1178.70 220.2794
1178.80 226.9457
1178.90 232.4746
1179.00 236.6536
1179.10 239.7822
1179.20 242.0241
1179.30 243.5606
1179.40 244.7777
1179.50 245.3162
1179.60 246.1578
1179.70 247.0771
1179.80 248.2255
1179.90 249.9313
1180.00 252.0086
1180.10 254.5225
1180.20 257.0236
1180.30 259.3346
1180.40 261.3162
1180.50 262.9081
1180.60 263.1984
1180.70 263.1351
1180.80 262.415
1180.90 261.2432
1181.00 259.9355
1181.10 258.0738
1181.20 256.3882
1181.30 254.8059
1181.40 253.3527
1181.50 252.2612
1181.60 251.7051
1181.70 251.7984
1181.80 252.3689
1181.90 253.4819
1182.00 254.7944
1182.10 256.4189
1182.20 257.5837
1182.30 258.6274
1182.40 259.2748
1182.50 259.7147
1182.60 260.0478
1182.70 260.0872
1182.80 260.0657
1182.90 260.0003
1183.00 260.1228
1183.10 260.0985
1183.20 258.9837
1183.30 257.4681
1183.40 255.3993
1183.50 253.4554
1183.60 251.3748
1183.70 248.635
1183.80 247.5279
1183.90 247.1204
1184.00 248.4715
1184.10 250.1712
1184.20 252.1482
1184.30 255.1644
1184.40 258.0211
1184.50 258.7327
1184.60 258.6942
1184.70 257.7753
1184.80 256.3079
1184.90 254.4647
1185.00 251.3488
1185.10 249.9763
1185.20 249.2487
1185.30 249.5326
1185.40 250.308
1185.50 251.5735
1185.60 253.93
1185.70 256.4595
1185.80 258.3588
1185.90 260.0676
1186.00 261.5728
1186.10 261.7688
1186.20 261.8505
1186.30 261.6065
1186.40 260.9883
1186.50 260.2447
1186.60 258.8305
1186.70 257.6378
1186.80 256.6413
1186.90 255.5291
1187.00 254.6975
1187.10 254.6328
1187.20 254.8365
1187.30 255.2757
1187.40 255.845
1187.50 256.6645
1187.60 258.0677
1187.70 257.7297
1187.80 256.9143
1187.90 255.0196
1188.00 252.3464
1188.10 249.086
1188.20 243.9526
1188.30 239.1504
1188.40 235.8553
1188.50 232.8535
1188.60 230.2782
1188.70 229.8677
1188.80 230.5358
1188.90 233.2977
1189.00 236.1074
1189.10 239.0599
1189.20 243.2227
1189.30 246.6374
1189.40 249.5739
1189.50 251.6534
1189.60 253.6617
1189.70 255.7865
1189.80 257.2203
1189.90 258.0724
1190.00 257.8662
1190.10 257.6745
1190.20 257.5063
1190.30 257.1999
1190.40 256.7331
1190.50 255.4539
1190.60 254.4621
1190.70 253.6249
1190.80 253.3389
1190.90 253.5833
1191.00 254.5124
1191.10 255.8136
1191.20 257.2519
1191.30 258.4644
1191.40 259.8674
1191.50 261.5228
1191.60 262.6762
1191.70 263.6606
1191.80 264.0856
1191.90 263.9645
1192.00 263.5981
1192.10 263.038
1192.20 262.8073
1192.30 262.9915
1192.40 262.9289
1192.50 262.7998
1192.60 262.8005
1192.70 262.8993
1192.80 263.1088
1192.90 263.3182
1193.00 263.6402
1193.10 264.3398
1193.20 263.5991
1193.30 262.3256
1193.40 260.2372
1193.50 258.0204
1193.60 255.67
1193.70 252.1278
1193.80 248.3761
1193.90 245.0989
1194.00 242.0324
1194.10 239.1747
1194.20 237.0249
1194.30 235.1772
1194.40 234.1063
1194.50 232.1733
1194.60 229.9741
1194.70 227.2237
1194.80 225.2578
1194.90 223.9604
1195.00 222.596
1195.10 221.7824
1195.20 222.293
1195.30 224.0754
1195.40 226.8098
1195.50 228.8035
1195.60 230.9082
1195.70 233.2381
1195.80 233.7175
1195.90 233.6167
1196.00 231.7576
1196.10 230.0248
1196.20 228.3834
1196.30 225.8617
1196.40 223.5727
1196.50 222.0373
1196.60 221.3554
1196.70 221.0952
1196.80 219.8325
1196.90 218.357
1197.00 216.5194
1197.10 213.4616
1197.20 209.9944
1197.30 205.1317
1197.40 200.8151
1197.50 196.8191
1197.60 192.8833
1197.70 189.9289
1197.80 188.4991
1197.90 188.5948
1198.00 189.7659
1198.10 192.5777
1198.20 196.2359
1198.30 201.0628
1198.40 204.6792
1198.50 208.1737
1198.60 211.6585
1198.70 213.1759
1198.80 213.7675
1198.90 212.331
1199.00 210.1838
1199.10 207.268
1199.20 203.0496
1199.30 198.824
1199.40 196.698
1199.50 194.9969
1199.60 193.775
1199.70 193.3789
1199.80 193.403
1199.90 194.7183
1200.00 195.9527
1200.10 197.1555
1200.20 197.9201
1200.30 198.7177
1200.40 199.5496
1200.50 200.7691
1200.60 202.2531
1200.70 204.1632
1200.80 206.2063
1200.90 208.3643
1201.00 209.7453
1201.10 210.9402
1201.20 211.6564
1201.30 211.4189
1201.40 210.8512
1201.50 209.4241
1201.60 208.193
1201.70 207.129
1201.80 206.4995
1201.90 206.199
1202.00 206.4282
1202.10 207.0004
1202.20 207.8409
1202.30 208.8299
1202.40 209.5523
1202.50 209.7569
1202.60 208.817
1202.70 207.5899
1202.80 206.0391
1202.90 205.0963
1203.00 204.5761
1203.10 204.4065
1203.20 205.0507
1203.30 207.1003
1203.40 210.4512
1203.50 214.6447
1203.60 219.4712
1203.70 224.5151
1203.80 229.8991
1203.90 233.2725
1204.00 236.1882
1204.10 238.2131
1204.20 238.8349
1204.30 238.6674
1204.40 236.2401
1204.50 233.9396
1204.60 232.1241
1204.70 230.4216
1204.80 229.0936
1204.90 229.4526
1205.00 230.49
1205.10 232.3907
1205.20 234.8561
1205.30 237.6027
1205.40 241.2475
1205.50 244.3895
1205.60 247.3057
1205.70 249.748
1205.80 251.6906
1205.90 253.0406
1206.00 253.6964
1206.10 253.7633
1206.20 252.6532
1206.30 251.141
1206.40 249.2267
1206.50 247.1719
1206.60 244.8307
1206.70 241.6823
1206.80 240.2824
1206.90 239.5464
1207.00 240.41
1207.10 242.0526
1207.20 244.4437
1207.30 248.1294
1207.40 251.992
1207.50 255.4025
1207.60 259.1703
1207.70 263.1877
1207.80 265.828
1207.90 267.8129
1208.00 268.4052
1208.10 268.0039
1208.20 267.2815
1208.30 265.7228
1208.40 262.9818
1208.50 259.312
1208.60 254.1779
1208.70 248.9489
1208.80 244.1106
1208.90 238.7025
1209.00 233.2753
1209.10 231.3398
1209.20 230.2779
1209.30 230.7034
1209.40 233.217
1209.50 236.6733
1209.60 243.6559
1209.70 248.5895
1209.80 252.2672
1209.90 255.7744
1210.00 257.6247
1210.10 256.8027
1210.20 252.5895
1210.30 246.6344
1210.40 240.2405
1210.50 232.8785
1210.60 224.2332
1210.70 218.4926
1210.80 213.2783
1210.90 209.083
1211.00 206.6832
1211.10 205.1678
1211.20 206.612
1211.30 208.2819
1211.40 210.0876
1211.50 212.9475
1211.60 216.2209
1211.70 219.508
1211.80 223.1943
1211.90 227.2959
1212.00 232.045
1212.10 236.9742
1212.20 242.3631
1212.30 246.2377
1212.40 249.5205
1212.50 251.2515
1212.60 251.4135
1212.70 249.9426
1212.80 246.1693
1212.90 241.929
1213.00 238.2078
1213.10 233.5405
1213.20 228.1917
1213.30 227.3815
1213.40 227.7706
1213.50 230.8294
1213.60 235.1017
1213.70 239.969
1213.80 247.9698
1213.90 254.4819
1214.00 259.7761
1214.10 264.1704
1214.20 267.6818
1214.30 269.6808
1214.40 269.6009
1214.50 268.2547
1214.60 267.633
1214.70 266.9398
1214.80 266.1247
1214.90 265.7798
1215.00 265.6607
1215.10 266.4188
1215.20 266.3118
1215.30 265.6517
1215.40 264.5359
1215.50 263.0854
1215.60 261.1716
1215.70 258.5665
1215.80 255.8071
1215.90 254.1917
1216.00 252.9069
1216.10 252.0431
1216.20 252.2925
1216.30 252.8447
1216.40 254.1136
1216.50 255.7295
1216.60 257.5164
1216.70 259.9055
1216.80 261.9315
1216.90 263.4715
1217.00 264.842
1217.10 265.951
1217.20 266.265
1217.30 266.1335
1217.40 265.5565
1217.50 265.7667
1217.60 265.9029
1217.70 265.759
1217.80 266.294
1217.90 267.1221
1218.00 269.3117
1218.10 271.4854
1218.20 273.6434
1218.30 276.2454
1218.40 278.3228
1218.50 278.5909
1218.60 277.8716
1218.70 276.389
1218.80 275.3105
1218.90 273.7807
1219.00 271.3346
1219.10 269.1945
1219.20 267.2821
1219.30 266.8497
1219.40 266.6171
1219.50 266.5414
1219.60 266.545
1219.70 266.4505
1219.80 266.1201
1219.90 265.5405
1220.00 264.8776
1220.10 264.853
1220.20 264.8669
1220.30 264.9409
1220.40 264.8459
1220.50 264.9447
1220.60 266.2056
1220.70 266.4878
1220.80 266.1701
1220.90 264.6706
1221.00 263.0442
1221.10 261.3802
1221.20 258.2371
1221.30 254.5682
1221.40 251.6851
1221.50 248.9381
1221.60 246.3512
1221.70 244.5383
1221.80 243.1778
1221.90 243.1826
1222.00 242.953
1222.10 242.618
1222.20 243.0912
1222.30 243.8135
1222.40 244.8304
1222.50 245.4685
1222.60 246.5065
1222.70 249.3861
1222.80 252.9916
1222.90 257.2673
1223.00 262.1405
1223.10 267.5112
1223.20 274.0704
1223.30 279.0523
1223.40 283.4553
1223.50 287.0237
1223.60 289.3314
1223.70 290.4755
1223.80 289.6192
1223.90 288.294
1224.00 286.8918
1224.10 284.701
1224.20 282.0222
1224.30 280.4811
1224.40 279.2889
1224.50 278.7172
1224.60 279.009
1224.70 279.6321
1224.80 281.2946
1224.90 282.7567
1225.00 284.0736
1225.10 285.9766
1225.20 287.2163
1225.30 287.0894
1225.40 286.1707
1225.50 284.8367
1225.60 283.4475
1225.70 281.4885
1225.80 278.7741
1225.90 278.0271
1226.00 277.6167
1226.10 277.4981
1226.20 278.3452
1226.30 279.7122
1226.40 282.8397
1226.50 285.3033
1226.60 286.7488
1226.70 288.4766
1226.80 289.9208
1226.90 289.5973
1227.00 288.4377
1227.10 286.4081
1227.20 285.3819
1227.30 284.1565
1227.40 282.2138
1227.50 281.6476
1227.60 281.669
1227.70 283.3871
1227.80 284.9677
1227.90 286.3992
1228.00 288.6231
1228.10 290.7286
1228.20 291.885
1228.30 292.2831
1228.40 292.0612
1228.50 290.6492
1228.60 288.7211
1228.70 285.7455
1228.80 282.9858
1228.90 280.2857
1229.00 277.6069
1229.10 274.5332
1229.20 271.1367
1229.30 268.015
1229.40 265.3513
1229.50 263.5733
1229.60 261.7057
1229.70 259.9571
1229.80 259.9447
1229.90 260.5947
1230.00 262.2385
1230.10 265.158
1230.20 268.6442
1230.30 273.798
1230.40 277.8434
1230.50 281.2095
1230.60 284.1141
1230.70 286.128
1230.80 286.7945
1230.90 285.7187
1231.00 283.9645
1231.10 282.3857
1231.20 280.3374
1231.30 277.76
1231.40 275.847
1231.50 274.3336
1231.60 273.9025
1231.70 273.5642
1231.80 273.268
1231.90 273.004
1232.00 272.666
1232.10 272.241
1232.20 271.8418
1232.30 271.4985
1232.40 271.318
1232.50 271.1229
1232.60 270.9158
1232.70 269.8172
1232.80 268.7152
1232.90 267.6056
1233.00 266.6671
1233.10 265.6918
1233.20 263.6714
1233.30 262.4975
1233.40 262.0743
1233.50 262.3876
1233.60 262.9589
1233.70 263.829
1233.80 265.4945
1233.90 267.4937
1234.00 267.4498
1234.10 267.2938
1234.20 266.9623
1234.30 266.6225
1234.40 266.0551
1234.50 264.3018
1234.60 263.644
1234.70 263.7164
1234.80 264.5998
1234.90 265.8152
1235.00 267.4757
1235.10 270.1392
1235.20 272.9307
1235.30 273.7405
1235.40 273.9494
1235.50 273.4527
1235.60 272.3684
1235.70 270.8304
1235.80 267.9685
1235.90 265.9751
1236.00 264.3905
1236.10 263.8325
1236.20 264.3442
1236.30 266.2173
1236.40 269.4353
1236.50 272.8049
1236.60 275.2336
1236.70 277.8538
1236.80 280.6372
1236.90 280.8256
1237.00 280.2441
1237.10 278.0667
1237.20 275.2577
1237.30 272.1423
1237.40 267.752
1237.50 264.7883
1237.60 263.1415
1237.70 262.2229
1237.80 261.8825
1237.90 262.6181
1238.00 264.9701
1238.10 268.2149
1238.20 269.2547
1238.30 270.1863
1238.40 270.9413
1238.50 268.8057
1238.60 265.5121
1238.70 259.2525
1238.80 253.1238
1238.90 247.0861
1239.00 239.2751
1239.10 232.5234
1239.20 227.9292
1239.30 224.9906
1239.40 223.088
1239.50 223.1416
1239.60 224.5236
1239.70 227.4651
1239.80 229.6994
1239.90 231.9175
1240.00 234.3447
1240.10 235.0637
1240.20 234.9414
1240.30 232.8797
1240.40 231.1305
1240.50 229.7789
1240.60 228.4473
1240.70 227.6553
1240.80 228.8704
1240.90 230.7729
1241.00 233.2849
1241.10 235.4878
1241.20 237.9989
1241.30 241.2513
1241.40 242.1033
1241.50 241.9784
1241.60 240.0793
1241.70 237.9343
1241.80 235.5531
1241.90 231.8105
1242.00 228.2979
1242.10 226.0431
1242.20 223.8276
1242.30 221.5963
1242.40 218.5858
1242.50 215.9817
1242.60 214.0405
1242.70 209.4091
1242.80 203.8924
1242.90 196.7055
1243.00 189.7005
1243.10 182.8218
1243.20 174.351
1243.30 167.618
1243.40 164.2205
1243.50 162.2005
1243.60 161.3341
1243.70 164.0475
1243.80 169.0555
1243.90 176.7571
1244.00 184.0236
1244.10 191.6965
1244.20 200.8917
1244.30 208.8131
1244.40 216.107
1244.50 222.3391
1244.60 228.4253
1244.70 234.3259
1244.80 239.357
1244.90 243.9477
1245.00 247.8585
1245.10 251.4816
1245.20 254.8597
1245.30 256.878
1245.40 258.5939
1245.50 259.6982
1245.60 259.7603
1245.70 259.3793
1245.80 257.8973
1245.90 256.671
1246.00 255.6806
1246.10 253.519
1246.20 251.6863
1246.30 251.1646
1246.40 251.3436
1246.50 252.0041
1246.60 253.4823
1246.70 255.6457
1246.80 258.8808
1246.90 261.1729
1247.00 263.3241
1247.10 265.7491
1247.20 267.2478
1247.30 268.129
1247.40 267.078
1247.50 265.7955
1247.60 264.3664
1247.70 262.6711
1247.80 260.8793
1247.90 259.1959
1248.00 257.5808
1248.10 256.0427
1248.20 255.2886
1248.30 254.6614
1248.40 254.1908
1248.50 254.1685
1248.60 254.3667
1248.70 255.0326
1248.80 255.5314
1248.90 255.8261
1249.00 256.5133
1249.10 257.1371
1249.20 257.1662
1249.30 256.9261
1249.40 256.4744
1249.50 255.8896
1249.60 255.1238
1249.70 253.9933
1249.80 253.7198
1249.90 253.7419
1250.00 253.9872
1250.10 253.8821
1250.20 253.4661
1250.30 253.5404
1250.40 253.4952
1250.50 253.0006
1250.60 251.9949
1250.70 250.6512
1250.80 248.6379
1250.90 246.4706
1251.00 244.0815
1251.10 241.7506
1251.20 239.3232
1251.30 236.406
1251.40 232.3155
1251.50 227.4747
1251.60 222.4781
1251.70 216.3781
1251.80 208.4912
1251.90 198.4778
1252.00 187.8231
1252.10 178.2207
1252.20 167.9792
1252.30 157.0728
1252.40 152.6953
1252.50 150.0071
1252.60 150.3512
1252.70 154.5459
1252.80 160.7574
1252.90 173.8545
1253.00 186.3447
1253.10 198.1226
1253.20 211.0992
1253.30 223.4795
1253.40 232.9221
1253.50 240.343
1253.60 246.3
1253.70 251.1352
1253.80 255.3607
1253.90 258.4541
1254.00 260.583
1254.10 262.3667
1254.20 263.6152
1254.30 264.6736
1254.40 265.5766
1254.50 265.314
1254.60 264.8809
1254.70 264.3917
1254.80 263.4812
1254.90 262.5344
1255.00 263.4154
1255.10 264.9857
1255.20 267.4695
1255.30 269.9159
1255.40 272.6668
1255.50 276.586
1255.60 280.1532
1255.70 283.5139
1255.80 285.7515
1255.90 286.9879
1256.00 286.7569
1256.10 285.606
1256.20 284.1753
1256.30 282.8753
1256.40 280.8519
1256.50 278.1606
1256.60 276.5903
1256.70 275.292
1256.80 274.4841
1256.90 274.0618
1257.00 273.8451
1257.10 274.3814
1257.20 274.6351
1257.30 274.5948
1257.40 275.0232
1257.50 275.7689
1257.60 277.1637
1257.70 278.487
1257.80 279.7861
1257.90 281.7794
1258.00 284.0092
1258.10 286.6251
1258.20 287.993
1258.30 289.0704
1258.40 290.2691
1258.50 290.0697
1258.60 288.8155
1258.70 285.9329
1258.80 282.9043
1258.90 279.8669
1259.00 275.5219
1259.10 270.8191
1259.20 267.7571
1259.30 265.3156
1259.40 263.5739
1259.50 263.6801
1259.60 264.4891
1259.70 266.8008
1259.80 268.9648
1259.90 271.0592
1260.00 273.8038
1260.10 276.44
1260.20 278.9327
1260.30 280.5864
1260.40 282.0684
1260.50 283.8093
1260.60 285.7937
1260.70 287.9694
1260.80 290.8181
1260.90 294.0436
1261.00 297.9919
1261.10 300.1824
1261.20 301.7184
1261.30 302.9226
1261.40 303.2545
1261.50 302.7812
1261.60 300.0405
1261.70 297.0736
1261.80 294.3825
1261.90 290.684
1262.00 286.5589
1262.10 284.6285
1262.20 283.4751
1262.30 283.3947
1262.40 283.537
1262.50 284.0659
1262.60 286.0483
1262.70 287.4298
1262.80 288.4106
1262.90 288.5667
1263.00 288.4556
1263.10 287.9645
1263.20 286.9461
1263.30 285.691
1263.40 284.1988
1263.50 282.8456
1263.60 281.6257
1263.70 280.2081
1263.80 278.6613
1263.90 276.8264
1264.00 274.9266
1264.10 272.9728
1264.20 270.5478
1264.30 268.8638
1264.40 268.0153
1264.50 267.6278
1264.60 267.6769
1264.70 268.7883
1264.80 270.8238
1264.90 273.4699
1265.00 275.5785
1265.10 277.8324
1265.20 280.3333
1265.30 281.9928
1265.40 283.3724
1265.50 284.4908
1265.60 285.3811
1265.70 286.0845
1265.80 285.7827
1265.90 285.57
1266.00 285.7158
1266.10 285.6337
1266.20 285.4149
1266.30 284.8868
1266.40 284.6953
1266.50 284.8989
1266.60 285.9129
1266.70 287.0243
1266.80 288.0559
1266.90 289.2617
1267.00 290.5732
1267.10 292.6616
1267.20 294.7105
1267.30 296.7049
1267.40 298.3954
1267.50 299.9185
1267.60 301.093
1267.70 302.1983
1267.80 303.247
1267.90 303.4572
1268.00 303.0693
1268.10 301.5378
1268.20 299.539
1268.30 297.4076
1268.40 295.6392
1268.50 293.8664
1268.60 292.0891
1268.70 291.2599
1268.80 290.8377
1268.90 291.0979
1269.00 291.9408
1269.10 293.1054
1269.20 294.1564
1269.30 294.6671
1269.40 294.4319
1269.50 293.5917
1269.60 292.4062
1269.70 290.315
1269.80 288.2242
1269.90 286.1335
1270.00 284.1249
1270.10 282.2254
1270.20 280.5059
1270.30 279.3458
1270.40 278.6824
1270.50 279.8627
1270.60 281.4769
1270.70 283.508
1270.80 285.9156
1270.90 288.616
1271.00 291.9849
1271.10 294.9219
1271.20 297.6662
1271.30 300.4319
1271.40 302.215
1271.50 302.8447
1271.60 302.5771
1271.70 302.1987
1271.80 302.0512
1271.90 301.3092
1272.00 300.1911
1272.10 299.4668
1272.20 298.9541
1272.30 298.7867
1272.40 298.3931
1272.50 297.9592
1272.60 297.6585
1272.70 296.9669
1272.80 295.9555
1272.90 294.9575
1273.00 294.189
1273.10 293.8843
1273.20 293.3056
1273.30 292.5849
1273.40 291.6434
1273.50 290.5637
1273.60 289.3279
1273.70 287.2888
1273.80 284.914
1273.90 281.8608
1274.00 279.7014
1274.10 278.031
1274.20 276.7375
1274.30 276.5867
1274.40 278.0136
1274.50 281.1932
1274.60 284.6601
1274.70 287.4125
1274.80 290.7786
1274.90 294.6078
1275.00 296.0508
1275.10 296.8044
1275.20 296.3628
1275.30 296.5472
1275.40 296.846
1275.50 296.3712
1275.60 296.9204
1275.70 298.4149
1275.80 300.8348
1275.90 302.8998
1276.00 303.8156
1276.10 305.1556
1276.20 306.6016
1276.30 306.2849
1276.40 305.0304
1276.50 302.5826
1276.60 300.6228
1276.70 298.8262
1276.80 297.2941
1276.90 297.1398
1277.00 297.8666
1277.10 299.8229
1277.20 301.468
1277.30 302.5643
1277.40 304.2077
1277.50 305.8437
1277.60 306.5336
1277.70 306.0424
1277.80 304.5038
1277.90 301.302
1278.00 297.799
1278.10 293.9042
1278.20 291.3317
1278.30 289.2829
1278.40 287.0472
1278.50 285.349
1278.60 284.233
1278.70 284.8589
1278.80 286.1771
1278.90 288.7217
1279.00 291.7286
1279.10 294.9804
1279.20 297.368
1279.30 300.0253
1279.40 303.0869
1279.50 305.2032
1279.60 306.7958
1279.70 307.0799
1279.80 306.558
1279.90 305.4282
1280.00 303.9836
1280.10 302.5327
1280.20 301.1005
1280.30 299.0233
1280.40 296.7848
1280.50 295.1125
1280.60 293.3962
1280.70 291.636
1280.80 290.516
1280.90 289.4835
1281.00 288.4929
1281.10 287.7111
1281.20 287.0851
1281.30 287.4647
1281.40 287.8572
1281.50 288.2661
1281.60 288.9043
1281.70 289.5398
1281.80 289.9994
1281.90 290.6822
1282.00 291.5138
1282.10 292.9538
1282.20 294.3289
1282.30 295.5878
1282.40 296.5706
1282.50 297.4631
1282.60 298.3107
1282.70 298.639
1282.80 298.5248
1282.90 297.9526
1283.00 297.3826
1283.10 296.9018
1283.20 296.5503
1283.30 296.259
1283.40 296.0156
1283.50 295.6429
1283.60 295.1245
1283.70 294.5863
1283.80 294.1112
1283.90 293.8355
1284.00 293.4267
1284.10 292.9428
1284.20 292.4439
1284.30 292.4574
1284.40 293.2085
1284.50 293.9339
1284.60 294.7002
1284.70 295.6681
1284.80 296.8445
1284.90 298.1784
1285.00 298.4075
1285.10 298.5753
1285.20 298.7146
1285.30 297.4727
1285.40 295.527
1285.50 291.978
1285.60 288.4215
1285.70 284.8577
1285.80 280.7677
1285.90 277.0974
1286.00 274.5983
1286.10 272.8448
1286.20 271.5765
1286.30 272.154
1286.40 273.5638
1286.50 275.9908
1286.60 279.3427
1286.70 282.9763
1286.80 286.937
1286.90 290.1683
1287.00 292.9332
1287.10 296.5982
1287.20 299.2767
1287.30 300.3458
1287.40 299.7465
1287.50 298.3957
1287.60 295.7155
1287.70 291.825
1287.80 286.9442
1287.90 283.3789
1288.00 279.9295
1288.10 276.5161
1288.20 274.3876
1288.30 273.0173
1288.40 273.7472
1288.50 275.1432
1288.60 277.2607
1288.70 280.1528
1288.80 282.9911
1288.90 285.3465
1289.00 288.0109
1289.10 290.8225
1289.20 293.0102
1289.30 294.9526
1289.40 296.5563
1289.50 296.8637
1289.60 296.6869
1289.70 295.7894
1289.80 295.0195
1289.90 294.3419
1290.00 291.9841
1290.10 289.9763
1290.20 288.652
1290.30 287.8778
1290.40 287.2825
1290.50 286.6567
1290.60 286.367
1290.70 286.3753
1290.80 286.268
1290.90 286.388
1291.00 287.0652
1291.10 287.2938
1291.20 287.2831
1291.30 286.948
1291.40 287.0065
1291.50 287.5271
1291.60 287.7928
1291.70 288.1779
1291.80 289.1132
1291.90 290.116
1292.00 291.1553
1292.10 291.8828
1292.20 292.9686
1292.30 294.5917
1292.40 294.8058
1292.50 294.5428
1292.60 293.9167
1292.70 292.8345
1292.80 291.3939
1292.90 288.5094
1293.00 286.3396
1293.10 285.7431
1293.20 284.8295
1293.30 283.8563
1293.40 283.3493
1293.50 283.9826
1293.60 285.7116
1293.70 287.4099
1293.80 289.1824
1293.90 291.1564
1294.00 292.4073
1294.10 293.2397
1294.20 293.3518
1294.30 293.7578
1294.40 294.5378
1294.50 294.6526
1294.60 294.6978
1294.70 294.9933
1294.80 296.1847
1294.90 297.949
1295.00 297.9976
1295.10 297.7776
1295.20 297.1645
1295.30 295.4886
1295.40 293.2196
1295.50 289.5985
1295.60 286.5997
1295.70 284.1311
1295.80 280.6773
1295.90 277.8253
1296.00 276.453
1296.10 276.6851
1296.20 277.5421
1296.30 278.0922
1296.40 279.1479
1296.50 280.7299
1296.60 282.0165
1296.70 283.2301
1296.80 284.3763
1296.90 285.4772
1297.00 286.5106
1297.10 286.5329
1297.20 286.6195
1297.30 286.7949
1297.40 287.3902
1297.50 287.9775
1297.60 288.1381
1297.70 288.2179
1297.80 288.2415
1297.90 288.9769
1298.00 289.7141
1298.10 290.4169
1298.20 291.8883
1298.30 293.6404
1298.40 295.4528
1298.50 296.9657
1298.60 298.2022
1298.70 300.7769
1298.80 302.9699
1298.90 303.9433
1299.00 304.3982
1299.10 304.5688
1299.20 303.9161
1299.30 302.8638
1299.40 301.3611
1299.50 300.04
1299.60 298.3518
1299.70 295.4664
1299.80 293.0396
1299.90 290.8916
