# Version 2.1 - nm, norm@500 to 1, cut digits
# Wavelength(nm)  Flambda(ergs/cm^s/s/nm)
300.00 1.407913e-95
300.10 1.407913e-95
300.20 1.407913e-95
300.30 1.407913e-95
300.40 1.407913e-95
300.50 1.407913e-95
300.60 1.407913e-95
300.70 1.407913e-95
300.80 1.407913e-95
300.90 1.407913e-95
301.00 1.407913e-95
301.10 1.407913e-95
301.20 1.407913e-95
301.30 1.407913e-95
301.40 1.407913e-95
301.50 1.407913e-95
301.60 1.407913e-95
301.70 1.407913e-95
301.80 1.407913e-95
301.90 1.407913e-95
302.00 1.407913e-95
302.10 1.407913e-95
302.20 1.407913e-95
302.30 1.407913e-95
302.40 1.407913e-95
302.50 1.407913e-95
302.60 1.407913e-95
302.70 1.407913e-95
302.80 1.407913e-95
302.90 1.407913e-95
303.00 1.407913e-95
303.10 1.407913e-95
303.20 1.407913e-95
303.30 1.407913e-95
303.40 1.407913e-95
303.50 1.407913e-95
303.60 1.407913e-95
303.70 1.407913e-95
303.80 1.407913e-95
303.90 1.407913e-95
304.00 1.407913e-95
304.10 1.407913e-95
304.20 1.407913e-95
304.30 1.407913e-95
304.40 1.407913e-95
304.50 1.407913e-95
304.60 1.407913e-95
304.70 1.407913e-95
304.80 1.407913e-95
304.90 1.407913e-95
305.00 1.407913e-95
305.10 1.407913e-95
305.20 1.407913e-95
305.30 1.407913e-95
305.40 1.407913e-95
305.50 1.407913e-95
305.60 1.407913e-95
305.70 1.407913e-95
305.80 1.407913e-95
305.90 1.407913e-95
306.00 1.407913e-95
306.10 1.407913e-95
306.20 1.407913e-95
306.30 1.407913e-95
306.40 1.407913e-95
306.50 1.407913e-95
306.60 1.407913e-95
306.70 1.407913e-95
306.80 1.407913e-95
306.90 1.407913e-95
307.00 1.407913e-95
307.10 1.407913e-95
307.20 1.407913e-95
307.30 1.407913e-95
307.40 1.407913e-95
307.50 1.407913e-95
307.60 1.407913e-95
307.70 1.407913e-95
307.80 1.407913e-95
307.90 1.407913e-95
308.00 1.407913e-95
308.10 1.407913e-95
308.20 1.407913e-95
308.30 1.407913e-95
308.40 1.407913e-95
308.50 1.407913e-95
308.60 1.407913e-95
308.70 1.407913e-95
308.80 1.407913e-95
308.90 1.407913e-95
309.00 1.407913e-95
309.10 1.407913e-95
309.20 1.407913e-95
309.30 1.407913e-95
309.40 1.407913e-95
309.50 1.407913e-95
309.60 1.407913e-95
309.70 1.407913e-95
309.80 1.407913e-95
309.90 1.407913e-95
310.00 1.407913e-95
310.10 1.407913e-95
310.20 1.407913e-95
310.30 1.407913e-95
310.40 1.407913e-95
310.50 1.407913e-95
310.60 1.407913e-95
310.70 1.407913e-95
310.80 1.407913e-95
310.90 1.407913e-95
311.00 1.407913e-95
311.10 1.407913e-95
311.20 1.407913e-95
311.30 1.407913e-95
311.40 1.407913e-95
311.50 1.407913e-95
311.60 1.407913e-95
311.70 1.407913e-95
311.80 1.407913e-95
311.90 1.407913e-95
312.00 1.407913e-95
312.10 1.407913e-95
312.20 1.407913e-95
312.30 1.407913e-95
312.40 1.407913e-95
312.50 1.407913e-95
312.60 1.407913e-95
312.70 1.407913e-95
312.80 1.407913e-95
312.90 1.407913e-95
313.00 1.407913e-95
313.10 1.407913e-95
313.20 1.407913e-95
313.30 1.407913e-95
313.40 1.407913e-95
313.50 1.407913e-95
313.60 1.407913e-95
313.70 1.407913e-95
313.80 1.407913e-95
313.90 1.407913e-95
314.00 1.407913e-95
314.10 1.407913e-95
314.20 1.407913e-95
314.30 1.407913e-95
314.40 1.407913e-95
314.50 1.407913e-95
314.60 1.407913e-95
314.70 1.407913e-95
314.80 1.407913e-95
314.90 1.407913e-95
315.00 1.407913e-95
315.10 1.407913e-95
315.20 1.407913e-95
315.30 1.407913e-95
315.40 1.407913e-95
315.50 1.407913e-95
315.60 1.407913e-95
315.70 1.407913e-95
315.80 1.407913e-95
315.90 1.407913e-95
316.00 1.407913e-95
316.10 1.407913e-95
316.20 1.407913e-95
316.30 1.407913e-95
316.40 1.407913e-95
316.50 1.407913e-95
316.60 1.407913e-95
316.70 1.407913e-95
316.80 1.407913e-95
316.90 1.407913e-95
317.00 1.407913e-95
317.10 1.407913e-95
317.20 1.407913e-95
317.30 1.407913e-95
317.40 1.407913e-95
317.50 1.407913e-95
317.60 1.407913e-95
317.70 1.407913e-95
317.80 1.407913e-95
317.90 1.407913e-95
318.00 1.407913e-95
318.10 1.407913e-95
318.20 1.407913e-95
318.30 1.407913e-95
318.40 1.407913e-95
318.50 1.407913e-95
318.60 1.407913e-95
318.70 1.407913e-95
318.80 1.407913e-95
318.90 1.407913e-95
319.00 1.407913e-95
319.10 1.407913e-95
319.20 1.407913e-95
319.30 1.407913e-95
319.40 1.407913e-95
319.50 1.407913e-95
319.60 1.407913e-95
319.70 1.407913e-95
319.80 1.407913e-95
319.90 1.407913e-95
320.00 1.407913e-95
320.10 1.407913e-95
320.20 1.407913e-95
320.30 1.407913e-95
320.40 1.407913e-95
320.50 1.407913e-95
320.60 1.407913e-95
320.70 1.407913e-95
320.80 1.407913e-95
320.90 1.407913e-95
321.00 1.407913e-95
321.10 1.407913e-95
321.20 1.407913e-95
321.30 1.407913e-95
321.40 1.407913e-95
321.50 1.407913e-95
321.60 1.407913e-95
321.70 1.407913e-95
321.80 1.407913e-95
321.90 1.407913e-95
322.00 1.407913e-95
322.10 1.407913e-95
322.20 1.407913e-95
322.30 1.407913e-95
322.40 1.407913e-95
322.50 1.407913e-95
322.60 1.407913e-95
322.70 1.407913e-95
322.80 1.407913e-95
322.90 1.407913e-95
323.00 1.407913e-95
323.10 1.407913e-95
323.20 1.407913e-95
323.30 1.407913e-95
323.40 1.407913e-95
323.50 1.407913e-95
323.60 1.407913e-95
323.70 1.407913e-95
323.80 1.407913e-95
323.90 1.407913e-95
324.00 1.407913e-95
324.10 1.407913e-95
324.20 1.407913e-95
324.30 1.407913e-95
324.40 1.407913e-95
324.50 1.407913e-95
324.60 1.407913e-95
324.70 1.407913e-95
324.80 1.407913e-95
324.90 1.407913e-95
325.00 1.407913e-95
325.10 1.407913e-95
325.20 1.407913e-95
325.30 1.407913e-95
325.40 1.407913e-95
325.50 1.407913e-95
325.60 1.407913e-95
325.70 1.407913e-95
325.80 1.407913e-95
325.90 1.407913e-95
326.00 1.407913e-95
326.10 1.407913e-95
326.20 1.407913e-95
326.30 1.407913e-95
326.40 1.407913e-95
326.50 1.407913e-95
326.60 1.407913e-95
326.70 1.407913e-95
326.80 1.407913e-95
326.90 1.407913e-95
327.00 1.407913e-95
327.10 1.407913e-95
327.20 1.407913e-95
327.30 1.407913e-95
327.40 1.407913e-95
327.50 1.407913e-95
327.60 1.407913e-95
327.70 1.407913e-95
327.80 1.407913e-95
327.90 1.407913e-95
328.00 1.407913e-95
328.10 1.407913e-95
328.20 1.407913e-95
328.30 1.407913e-95
328.40 1.407913e-95
328.50 1.407913e-95
328.60 1.407913e-95
328.70 1.407913e-95
328.80 1.407913e-95
328.90 1.407913e-95
329.00 1.407913e-95
329.10 1.407913e-95
329.20 1.407913e-95
329.30 1.407913e-95
329.40 1.407913e-95
329.50 1.407913e-95
329.60 1.407913e-95
329.70 1.407913e-95
329.80 1.407913e-95
329.90 1.407913e-95
330.00 1.407913e-95
330.10 1.407913e-95
330.20 1.407913e-95
330.30 1.407913e-95
330.40 1.407913e-95
330.50 1.407913e-95
330.60 1.407913e-95
330.70 1.407913e-95
330.80 1.407913e-95
330.90 1.407913e-95
331.00 1.407913e-95
331.10 1.407913e-95
331.20 1.407913e-95
331.30 1.407913e-95
331.40 1.407913e-95
331.50 1.407913e-95
331.60 1.407913e-95
331.70 1.407913e-95
331.80 1.407913e-95
331.90 1.407913e-95
332.00 1.407913e-95
332.10 1.407913e-95
332.20 1.407913e-95
332.30 1.407913e-95
332.40 1.407913e-95
332.50 1.407913e-95
332.60 1.407913e-95
332.70 1.407913e-95
332.80 1.407913e-95
332.90 1.407913e-95
333.00 1.407913e-95
333.10 1.407913e-95
333.20 1.407913e-95
333.30 1.407913e-95
333.40 1.407913e-95
333.50 1.407913e-95
333.60 1.407913e-95
333.70 1.407913e-95
333.80 1.407913e-95
333.90 1.407913e-95
334.00 1.407913e-95
334.10 1.407913e-95
334.20 1.407913e-95
334.30 1.407913e-95
334.40 1.407913e-95
334.50 1.407913e-95
334.60 1.407913e-95
334.70 1.407913e-95
334.80 1.407913e-95
334.90 1.407913e-95
335.00 1.407913e-95
335.10 1.407913e-95
335.20 1.407913e-95
335.30 1.407913e-95
335.40 1.407913e-95
335.50 1.407913e-95
335.60 1.407913e-95
335.70 1.407913e-95
335.80 1.407913e-95
335.90 1.407913e-95
336.00 1.407913e-95
336.10 1.407913e-95
336.20 1.407913e-95
336.30 1.407913e-95
336.40 1.407913e-95
336.50 1.407913e-95
336.60 1.407913e-95
336.70 1.407913e-95
336.80 1.407913e-95
336.90 1.407913e-95
337.00 1.407913e-95
337.10 1.407913e-95
337.20 1.407913e-95
337.30 1.407913e-95
337.40 1.407913e-95
337.50 1.407913e-95
337.60 1.407913e-95
337.70 1.407913e-95
337.80 1.407913e-95
337.90 1.407913e-95
338.00 1.407913e-95
338.10 1.407913e-95
338.20 1.407913e-95
338.30 1.407913e-95
338.40 1.407913e-95
338.50 1.407913e-95
338.60 1.407913e-95
338.70 1.407913e-95
338.80 1.407913e-95
338.90 1.407913e-95
339.00 1.407913e-95
339.10 1.407913e-95
339.20 1.407913e-95
339.30 1.407913e-95
339.40 1.407913e-95
339.50 1.407913e-95
339.60 1.407913e-95
339.70 1.407913e-95
339.80 1.407913e-95
339.90 1.407913e-95
340.00 1.407913e-95
340.10 1.407913e-95
340.20 1.407913e-95
340.30 1.407913e-95
340.40 1.407913e-95
340.50 1.407913e-95
340.60 1.407913e-95
340.70 1.407913e-95
340.80 1.407913e-95
340.90 1.407913e-95
341.00 1.407913e-95
341.10 1.407913e-95
341.20 1.407913e-95
341.30 1.407913e-95
341.40 1.407913e-95
341.50 1.407913e-95
341.60 1.407913e-95
341.70 1.407913e-95
341.80 1.407913e-95
341.90 1.407913e-95
342.00 1.407913e-95
342.10 1.407913e-95
342.20 1.407913e-95
342.30 1.407913e-95
342.40 1.407913e-95
342.50 1.407913e-95
342.60 1.407913e-95
342.70 1.407913e-95
342.80 1.407913e-95
342.90 1.407913e-95
343.00 1.407913e-95
343.10 1.407913e-95
343.20 1.407913e-95
343.30 1.407913e-95
343.40 1.407913e-95
343.50 1.407913e-95
343.60 1.407913e-95
343.70 1.407913e-95
343.80 1.407913e-95
343.90 1.407913e-95
344.00 1.407913e-95
344.10 1.407913e-95
344.20 1.407913e-95
344.30 1.407913e-95
344.40 1.407913e-95
344.50 1.407913e-95
344.60 1.407913e-95
344.70 1.407913e-95
344.80 1.407913e-95
344.90 1.407913e-95
345.00 1.407913e-95
345.10 1.407913e-95
345.20 1.407913e-95
345.30 1.407913e-95
345.40 1.407913e-95
345.50 1.407913e-95
345.60 1.407913e-95
345.70 1.407913e-95
345.80 1.407913e-95
345.90 1.407913e-95
346.00 1.407913e-95
346.10 1.407913e-95
346.20 1.407913e-95
346.30 1.407913e-95
346.40 1.407913e-95
346.50 1.407913e-95
346.60 1.407913e-95
346.70 1.407913e-95
346.80 1.407913e-95
346.90 1.407913e-95
347.00 1.407913e-95
347.10 1.407913e-95
347.20 1.407913e-95
347.30 1.407913e-95
347.40 1.407913e-95
347.50 1.407913e-95
347.60 1.407913e-95
347.70 1.407913e-95
347.80 1.407913e-95
347.90 1.407913e-95
348.00 1.407913e-95
348.10 1.407913e-95
348.20 1.407913e-95
348.30 1.407913e-95
348.40 1.407913e-95
348.50 1.407913e-95
348.60 1.407913e-95
348.70 1.407913e-95
348.80 1.407913e-95
348.90 1.407913e-95
349.00 1.407913e-95
349.10 1.407913e-95
349.20 1.407913e-95
349.30 1.407913e-95
349.40 1.407913e-95
349.50 1.407913e-95
349.60 1.407913e-95
349.70 1.407913e-95
349.80 1.407913e-95
349.90 1.407913e-95
350.00 1.407913e-95
350.10 1.407913e-95
350.20 1.407913e-95
350.30 1.407913e-95
350.40 1.407913e-95
350.50 1.407913e-95
350.60 1.407913e-95
350.70 1.407913e-95
350.80 1.407913e-95
350.90 1.407913e-95
351.00 1.407913e-95
351.10 1.407913e-95
351.20 1.407913e-95
351.30 1.407913e-95
351.40 1.407913e-95
351.50 1.407913e-95
351.60 1.407913e-95
351.70 1.407913e-95
351.80 1.407913e-95
351.90 1.407913e-95
352.00 1.407913e-95
352.10 1.407913e-95
352.20 1.407913e-95
352.30 1.407913e-95
352.40 1.407913e-95
352.50 1.407913e-95
352.60 1.407913e-95
352.70 1.407913e-95
352.80 1.407913e-95
352.90 1.407913e-95
353.00 1.407913e-95
353.10 1.407913e-95
353.20 1.407913e-95
353.30 1.407913e-95
353.40 1.407913e-95
353.50 1.407913e-95
353.60 1.407913e-95
353.70 1.407913e-95
353.80 1.407913e-95
353.90 1.407913e-95
354.00 1.407913e-95
354.10 1.407913e-95
354.20 1.407913e-95
354.30 1.407913e-95
354.40 1.407913e-95
354.50 1.407913e-95
354.60 1.407913e-95
354.70 1.407913e-95
354.80 1.407913e-95
354.90 1.407913e-95
355.00 1.407913e-95
355.10 1.407913e-95
355.20 1.407913e-95
355.30 1.407913e-95
355.40 1.407913e-95
355.50 1.407913e-95
355.60 1.407913e-95
355.70 1.407913e-95
355.80 1.407913e-95
355.90 1.407913e-95
356.00 1.407913e-95
356.10 1.407913e-95
356.20 1.407913e-95
356.30 1.407913e-95
356.40 1.407913e-95
356.50 1.407913e-95
356.60 1.407913e-95
356.70 1.407913e-95
356.80 1.407913e-95
356.90 1.407913e-95
357.00 1.407913e-95
357.10 1.407913e-95
357.20 1.407913e-95
357.30 1.407913e-95
357.40 1.407913e-95
357.50 1.407913e-95
357.60 1.407913e-95
357.70 1.407913e-95
357.80 1.407913e-95
357.90 1.407913e-95
358.00 1.407913e-95
358.10 1.407913e-95
358.20 1.407913e-95
358.30 1.407913e-95
358.40 1.407913e-95
358.50 1.407913e-95
358.60 1.407913e-95
358.70 1.407913e-95
358.80 1.407913e-95
358.90 1.407913e-95
359.00 1.407913e-95
359.10 1.407913e-95
359.20 1.407913e-95
359.30 1.407913e-95
359.40 1.407913e-95
359.50 1.407913e-95
359.60 1.407913e-95
359.70 1.407913e-95
359.80 1.407913e-95
359.90 1.407913e-95
360.00 1.407913e-95
360.10 1.407913e-95
360.20 1.407913e-95
360.30 1.407913e-95
360.40 1.407913e-95
360.50 1.407913e-95
360.60 1.407913e-95
360.70 1.407913e-95
360.80 1.407913e-95
360.90 1.407913e-95
361.00 1.407913e-95
361.10 1.407913e-95
361.20 1.407913e-95
361.30 1.407913e-95
361.40 1.407913e-95
361.50 1.407913e-95
361.60 1.407913e-95
361.70 1.407913e-95
361.80 1.407913e-95
361.90 1.407913e-95
362.00 1.407913e-95
362.10 1.407913e-95
362.20 1.407913e-95
362.30 1.407913e-95
362.40 1.407913e-95
362.50 1.407913e-95
362.60 1.407913e-95
362.70 1.407913e-95
362.80 1.407913e-95
362.90 1.407913e-95
363.00 1.407913e-95
363.10 1.407913e-95
363.20 1.407913e-95
363.30 1.407913e-95
363.40 1.407913e-95
363.50 1.407913e-95
363.60 1.407913e-95
363.70 1.407913e-95
363.80 1.407913e-95
363.90 1.407913e-95
364.00 1.407913e-95
364.10 1.407913e-95
364.20 1.407913e-95
364.30 1.407913e-95
364.40 1.407913e-95
364.50 1.407913e-95
364.60 1.407913e-95
364.70 1.407913e-95
364.80 1.407913e-95
364.90 1.407913e-95
365.00 1.407913e-95
365.10 1.407913e-95
365.20 1.407913e-95
365.30 1.407913e-95
365.40 1.407913e-95
365.50 1.407913e-95
365.60 1.407913e-95
365.70 1.407913e-95
365.80 1.407913e-95
365.90 1.407913e-95
366.00 1.407913e-95
366.10 1.407913e-95
366.20 1.407913e-95
366.30 1.407913e-95
366.40 1.407913e-95
366.50 1.407913e-95
366.60 1.407913e-95
366.70 1.407913e-95
366.80 1.407913e-95
366.90 1.407913e-95
367.00 1.407913e-95
367.10 1.407913e-95
367.20 1.407913e-95
367.30 1.407913e-95
367.40 1.407913e-95
367.50 1.407913e-95
367.60 1.407913e-95
367.70 1.407913e-95
367.80 1.407913e-95
367.90 1.407913e-95
368.00 1.407913e-95
368.10 1.407913e-95
368.20 1.407913e-95
368.30 1.407913e-95
368.40 1.407913e-95
368.50 1.407913e-95
368.60 1.407913e-95
368.70 1.407913e-95
368.80 1.407913e-95
368.90 1.407913e-95
369.00 1.407913e-95
369.10 1.407913e-95
369.20 1.407913e-95
369.30 1.407913e-95
369.40 1.407913e-95
369.50 1.407913e-95
369.60 1.407913e-95
369.70 1.407913e-95
369.80 1.407913e-95
369.90 1.407913e-95
370.00 1.407913e-95
370.10 1.407913e-95
370.20 1.407913e-95
370.30 1.407913e-95
370.40 1.407913e-95
370.50 1.407913e-95
370.60 1.407913e-95
370.70 1.407913e-95
370.80 1.407913e-95
370.90 1.407913e-95
371.00 1.407913e-95
371.10 1.407913e-95
371.20 1.407913e-95
371.30 1.407913e-95
371.40 1.407913e-95
371.50 1.407913e-95
371.60 1.407913e-95
371.70 1.407913e-95
371.80 1.407913e-95
371.90 1.407913e-95
372.00 1.407913e-95
372.10 1.407913e-95
372.20 1.407913e-95
372.30 1.407913e-95
372.40 1.407913e-95
372.50 1.407913e-95
372.60 1.407913e-95
372.70 1.407913e-95
372.80 1.407913e-95
372.90 1.407913e-95
373.00 1.407913e-95
373.10 1.407913e-95
373.20 1.407913e-95
373.30 1.407913e-95
373.40 1.407913e-95
373.50 1.407913e-95
373.60 1.407913e-95
373.70 1.407913e-95
373.80 1.407913e-95
373.90 1.407913e-95
374.00 1.407913e-95
374.10 1.407913e-95
374.20 1.407913e-95
374.30 1.407913e-95
374.40 1.407913e-95
374.50 1.407913e-95
374.60 1.407913e-95
374.70 1.407913e-95
374.80 1.407913e-95
374.90 1.407913e-95
375.00 1.407913e-95
375.10 1.407913e-95
375.20 1.407913e-95
375.30 1.407913e-95
375.40 1.407913e-95
375.50 1.407913e-95
375.60 1.407913e-95
375.70 1.407913e-95
375.80 1.407913e-95
375.90 1.407913e-95
376.00 1.407913e-95
376.10 1.407913e-95
376.20 1.407913e-95
376.30 1.407913e-95
376.40 1.407913e-95
376.50 1.407913e-95
376.60 1.407913e-95
376.70 1.407913e-95
376.80 1.407913e-95
376.90 1.407913e-95
377.00 1.407913e-95
377.10 1.407913e-95
377.20 1.407913e-95
377.30 1.407913e-95
377.40 1.407913e-95
377.50 1.407913e-95
377.60 1.407913e-95
377.70 1.407913e-95
377.80 1.407913e-95
377.90 1.407913e-95
378.00 1.407913e-95
378.10 1.407913e-95
378.20 1.407913e-95
378.30 1.407913e-95
378.40 1.407913e-95
378.50 1.407913e-95
378.60 1.407913e-95
378.70 1.407913e-95
378.80 1.407913e-95
378.90 1.407913e-95
379.00 1.407913e-95
379.10 1.407913e-95
379.20 1.407913e-95
379.30 1.407913e-95
379.40 1.407913e-95
379.50 1.407913e-95
379.60 1.407913e-95
379.70 1.407913e-95
379.80 1.407913e-95
379.90 1.407913e-95
380.00 1.407913e-95
380.10 1.407913e-95
380.20 1.407913e-95
380.30 1.407913e-95
380.40 1.407913e-95
380.50 1.407913e-95
380.60 1.407913e-95
380.70 1.407913e-95
380.80 1.407913e-95
380.90 1.407913e-95
381.00 1.407913e-95
381.10 1.407913e-95
381.20 1.407913e-95
381.30 1.407913e-95
381.40 1.407913e-95
381.50 1.407913e-95
381.60 1.407913e-95
381.70 1.407913e-95
381.80 1.407913e-95
381.90 1.407913e-95
382.00 1.407913e-95
382.10 1.407913e-95
382.20 1.407913e-95
382.30 1.407913e-95
382.40 1.407913e-95
382.50 1.407913e-95
382.60 1.407913e-95
382.70 1.407913e-95
382.80 1.407913e-95
382.90 1.407913e-95
383.00 1.407913e-95
383.10 1.407913e-95
383.20 1.407913e-95
383.30 1.407913e-95
383.40 1.407913e-95
383.50 1.407913e-95
383.60 1.407913e-95
383.70 1.407913e-95
383.80 1.407913e-95
383.90 1.407913e-95
384.00 1.407913e-95
384.10 1.407913e-95
384.20 1.407913e-95
384.30 1.407913e-95
384.40 1.407913e-95
384.50 1.407913e-95
384.60 1.407913e-95
384.70 1.407913e-95
384.80 1.407913e-95
384.90 1.407913e-95
385.00 1.407913e-95
385.10 1.407913e-95
385.20 1.407913e-95
385.30 1.407913e-95
385.40 1.407913e-95
385.50 1.407913e-95
385.60 1.407913e-95
385.70 1.407913e-95
385.80 1.407913e-95
385.90 1.407913e-95
386.00 1.407913e-95
386.10 1.407913e-95
386.20 1.407913e-95
386.30 1.407913e-95
386.40 1.407913e-95
386.50 1.407913e-95
386.60 1.407913e-95
386.70 1.407913e-95
386.80 1.407913e-95
386.90 1.407913e-95
387.00 1.407913e-95
387.10 1.407913e-95
387.20 1.407913e-95
387.30 1.407913e-95
387.40 1.407913e-95
387.50 1.407913e-95
387.60 1.407913e-95
387.70 1.407913e-95
387.80 1.407913e-95
387.90 1.407913e-95
388.00 1.407913e-95
388.10 1.407913e-95
388.20 1.407913e-95
388.30 1.407913e-95
388.40 1.407913e-95
388.50 1.407913e-95
388.60 1.407913e-95
388.70 1.407913e-95
388.80 1.407913e-95
388.90 1.407913e-95
389.00 1.407913e-95
389.10 1.407913e-95
389.20 1.407913e-95
389.30 1.407913e-95
389.40 1.407913e-95
389.50 1.407913e-95
389.60 1.407913e-95
389.70 1.407913e-95
389.80 1.407913e-95
389.90 1.407913e-95
390.00 1.407913e-95
390.10 1.407913e-95
390.20 1.407913e-95
390.30 1.407913e-95
390.40 1.407913e-95
390.50 1.407913e-95
390.60 1.407913e-95
390.70 1.407913e-95
390.80 1.407913e-95
390.90 1.407913e-95
391.00 1.407913e-95
391.10 1.407913e-95
391.20 1.407913e-95
391.30 1.407913e-95
391.40 1.407913e-95
391.50 1.407913e-95
391.60 1.407913e-95
391.70 1.407913e-95
391.80 1.407913e-95
391.90 1.407913e-95
392.00 1.407913e-95
392.10 1.407913e-95
392.20 1.407913e-95
392.30 1.407913e-95
392.40 1.407913e-95
392.50 1.407913e-95
392.60 1.407913e-95
392.70 1.407913e-95
392.80 1.407913e-95
392.90 1.407913e-95
393.00 1.407913e-95
393.10 1.407913e-95
393.20 1.407913e-95
393.30 1.407913e-95
393.40 1.407913e-95
393.50 1.407913e-95
393.60 1.407913e-95
393.70 1.407913e-95
393.80 1.407913e-95
393.90 1.407913e-95
394.00 1.407913e-95
394.10 1.407913e-95
394.20 1.407913e-95
394.30 1.407913e-95
394.40 1.407913e-95
394.50 1.407913e-95
394.60 1.407913e-95
394.70 1.407913e-95
394.80 1.407913e-95
394.90 1.407913e-95
395.00 0.004927867
395.10 0.009318204
395.20 0.01357285
395.30 0.01811153
395.40 0.0234387
395.50 0.03006504
395.60 0.03818013
395.70 0.04761506
395.80 0.05794099
395.90 0.06875445
396.00 0.0798227
396.10 0.09081662
396.20 0.1012861
396.30 0.1107203
396.40 0.1186768
396.50 0.1248848
396.60 0.1292309
396.70 0.1318314
396.80 0.1329498
396.90 0.1329498
397.00 0.1329498
397.10 0.1329498
397.20 0.1339259
397.30 0.1364232
397.40 0.1402531
397.50 0.1451168
397.60 0.1506758
397.70 0.1565792
397.80 0.162517
397.90 0.1682574
398.00 0.1736578
398.10 0.1786544
398.20 0.1833837
398.30 0.1882212
398.40 0.1935229
398.50 0.1994943
398.60 0.2062139
398.70 0.2135195
398.80 0.2210053
398.90 0.2282573
399.00 0.2349494
399.10 0.2408949
399.20 0.2461087
399.30 0.2507379
399.40 0.2549942
399.50 0.2591876
399.60 0.2635849
399.70 0.268157
399.80 0.2726852
399.90 0.2768404
400.00 0.2803113
400.10 0.283178
400.20 0.2858533
400.30 0.288798
400.40 0.2924317
400.50 0.2970373
400.60 0.3026269
400.70 0.3089751
400.80 0.3156837
400.90 0.3221414
401.00 0.327725
401.10 0.3320398
401.20 0.334981
401.30 0.3367052
401.40 0.3373025
401.50 0.3373025
401.60 0.3373025
401.70 0.3373025
401.80 0.3373025
401.90 0.3373025
402.00 0.3373025
402.10 0.3373025
402.20 0.3385781
402.30 0.3415617
402.40 0.3460737
402.50 0.3516346
402.60 0.3575626
402.70 0.363164
402.80 0.3682285
402.90 0.3730925
403.00 0.3780695
403.10 0.3830717
403.20 0.3877481
403.30 0.3918648
403.40 0.3954057
403.50 0.3984627
403.60 0.4010581
403.70 0.4031861
403.80 0.4049903
403.90 0.4068096
404.00 0.4091693
404.10 0.4126067
404.20 0.4174159
404.30 0.4235701
404.40 0.4308011
404.50 0.4387195
404.60 0.446855
404.70 0.4546698
404.80 0.4617506
404.90 0.4678441
405.00 0.467892
405.10 0.4674691
405.20 0.4665052
405.30 0.4649639
405.40 0.4625812
405.50 0.4589036
405.60 0.4537176
405.70 0.4471221
405.80 0.4395115
405.90 0.4313593
406.00 0.4229882
406.10 0.4147946
406.20 0.4072721
406.30 0.4010829
406.40 0.3968738
406.50 0.3949496
406.60 0.3953329
406.70 0.3978535
406.80 0.4022007
406.90 0.407796
407.00 0.4131688
407.10 0.4179793
407.20 0.4210163
407.30 0.421708
407.40 0.4204613
407.50 0.4178726
407.60 0.4144688
407.70 0.4105194
407.80 0.4061249
407.90 0.4013244
408.00 0.3960305
408.10 0.391034
408.20 0.3863046
408.30 0.3814672
408.40 0.3761655
408.50 0.370194
408.60 0.3649759
408.70 0.3605605
408.80 0.3567387
408.90 0.3531018
409.00 0.3491438
409.10 0.34441
409.20 0.3391962
409.30 0.334567
409.40 0.3303107
409.50 0.3261173
409.60 0.32172
409.70 0.3171479
409.80 0.3127582
409.90 0.3102665
410.00 0.3096259
410.10 0.3103502
410.20 0.3117531
410.30 0.3131892
410.40 0.3141656
410.50 0.3144748
410.60 0.3141946
410.70 0.3135327
410.80 0.3126855
410.90 0.3118097
411.00 0.3109362
411.10 0.3099034
411.20 0.3086097
411.30 0.3072839
411.40 0.3067238
411.50 0.3074061
411.60 0.3095141
411.70 0.3135838
411.80 0.3198937
411.90 0.3283201
412.00 0.3384994
412.10 0.3499963
412.20 0.36104
412.30 0.3708086
412.40 0.3792166
412.50 0.3865036
412.60 0.3930817
412.70 0.3993682
412.80 0.4053691
412.90 0.4106403
413.00 0.4148342
413.10 0.4180615
413.20 0.4207243
413.30 0.4231605
413.40 0.425459
413.50 0.4274936
413.60 0.4292371
413.70 0.4308893
413.80 0.4326954
413.90 0.4347542
414.00 0.4368142
414.10 0.438334
414.20 0.4387872
414.30 0.437768
414.40 0.4350381
414.50 0.4305531
414.60 0.4243975
414.70 0.4168984
414.80 0.4098176
414.90 0.403724
415.00 0.3987483
415.10 0.3947809
415.20 0.3914901
415.30 0.3889843
415.40 0.3881355
415.50 0.3885673
415.60 0.3897711
415.70 0.3912867
415.80 0.3927671
415.90 0.3940426
416.00 0.3952109
416.10 0.3964197
416.20 0.3977016
416.30 0.3988519
416.40 0.3993812
416.50 0.3987779
416.60 0.3966469
416.70 0.3927384
416.80 0.3872727
416.90 0.3816774
417.00 0.3763046
417.10 0.3727918
417.20 0.3725306
417.30 0.3757913
417.40 0.3819785
417.50 0.390028
417.60 0.3986813
417.70 0.4068051
417.80 0.4137666
417.90 0.4195478
418.00 0.424642
418.10 0.4289041
418.20 0.433006
418.30 0.437727
418.40 0.4436358
418.50 0.4510101
418.60 0.4583124
418.70 0.4653353
418.80 0.472209
418.90 0.47925
419.00 0.4868731
419.10 0.4953588
419.20 0.5039759
419.30 0.5110496
419.40 0.5163359
419.50 0.5199844
419.60 0.5224197
419.70 0.5242254
419.80 0.5258973
419.90 0.5265086
420.00 0.5265892
420.10 0.5265129
420.20 0.5264438
420.30 0.5263417
420.40 0.5260107
420.50 0.5252267
420.60 0.5239754
420.70 0.5227329
420.80 0.522264
420.90 0.5234063
421.00 0.5269601
421.10 0.5332008
421.20 0.5415719
421.30 0.5509768
421.40 0.5602224
421.50 0.5683346
421.60 0.5746379
421.70 0.5787609
421.80 0.5806268
421.90 0.5805492
422.00 0.5790238
422.10 0.5763297
422.20 0.5726024
422.30 0.5678558
422.40 0.5619584
422.50 0.5550378
422.60 0.5476355
422.70 0.5404224
422.80 0.533862
422.90 0.5281358
423.00 0.5233207
423.10 0.5194763
423.20 0.5166148
423.30 0.5145095
423.40 0.5128077
423.50 0.5113182
423.60 0.5099305
423.70 0.5084705
423.80 0.5067437
423.90 0.5045644
424.00 0.501854
424.10 0.4987123
424.20 0.4953799
424.30 0.4922822
424.40 0.4898966
424.50 0.4885659
424.60 0.4886222
424.70 0.4903004
424.80 0.4923246
424.90 0.4945395
425.00 0.4971364
425.10 0.5002094
425.20 0.5036853
425.30 0.5069021
425.40 0.5086301
425.50 0.5091729
425.60 0.5091702
425.70 0.5092733
425.80 0.5097502
425.90 0.5103737
426.00 0.5106372
426.10 0.5101426
426.20 0.5088298
426.30 0.5069364
426.40 0.5050269
426.50 0.5038795
426.60 0.5042419
426.70 0.5066755
426.80 0.5111557
426.90 0.5163719
427.00 0.5220233
427.10 0.5264471
427.20 0.5282337
427.30 0.5270225
427.40 0.5230901
427.50 0.5171426
427.60 0.5102719
427.70 0.5037276
427.80 0.4984764
427.90 0.4949202
428.00 0.4929633
428.10 0.4920705
428.20 0.4914278
428.30 0.4903439
428.40 0.4883188
428.50 0.4849692
428.60 0.4801538
428.70 0.4740724
428.80 0.4671961
428.90 0.4601968
429.00 0.4537142
429.10 0.4481627
429.20 0.443807
429.30 0.440822
429.40 0.4392316
429.50 0.4387862
429.60 0.4389378
429.70 0.438943
429.80 0.4381592
429.90 0.4363997
430.00 0.4340546
430.10 0.4317356
430.20 0.4299851
430.30 0.4290326
430.40 0.4286706
430.50 0.4284408
430.60 0.4276643
430.70 0.4254825
430.80 0.4211832
430.90 0.4144942
431.00 0.4062304
431.10 0.3967076
431.20 0.3870314
431.30 0.3788897
431.40 0.3727228
431.50 0.3682914
431.60 0.3649714
431.70 0.3620138
431.80 0.3587385
431.90 0.3545833
432.00 0.3492458
432.10 0.3428878
432.20 0.3360485
432.30 0.3293484
432.40 0.3234827
432.50 0.3189336
432.60 0.3157895
432.70 0.3138836
432.80 0.3129452
432.90 0.3126693
433.00 0.3127255
433.10 0.3127777
433.20 0.3126399
433.30 0.3124409
433.40 0.3125454
433.50 0.313304
433.60 0.3149545
433.70 0.3176143
433.80 0.321064
433.90 0.3247115
434.00 0.3278225
434.10 0.3298158
434.20 0.3304758
434.30 0.3299746
434.40 0.3287804
434.50 0.3275397
434.60 0.3267849
434.70 0.326793
434.80 0.3275412
434.90 0.3286201
435.00 0.3294345
435.10 0.3294873
435.20 0.3286077
435.30 0.3270174
435.40 0.3251708
435.50 0.3236062
435.60 0.3226346
435.70 0.3221848
435.80 0.3220831
435.90 0.3221574
436.00 0.3222223
436.10 0.3221124
436.20 0.3216276
436.30 0.320533
436.40 0.3186179
436.50 0.3160849
436.60 0.3131241
436.70 0.3094779
436.80 0.3049977
436.90 0.2997815
437.00 0.294427
437.10 0.2896261
437.20 0.2856699
437.30 0.2824663
437.40 0.2796055
437.50 0.2765868
437.60 0.2730234
437.70 0.2694898
437.80 0.2662362
437.90 0.2630714
438.00 0.2598275
438.10 0.2568757
438.20 0.2553529
438.30 0.2553134
438.40 0.2566357
438.50 0.2591542
438.60 0.2625882
438.70 0.2666043
438.80 0.2708608
438.90 0.2747711
439.00 0.2776408
439.10 0.2790517
439.20 0.2790658
439.30 0.2781498
439.40 0.2768249
439.50 0.2755752
439.60 0.275001
439.70 0.2756756
439.80 0.2778129
439.90 0.2811346
440.00 0.2849899
440.10 0.2886175
440.20 0.2913557
440.30 0.2930326
440.40 0.2940151
440.50 0.2948791
440.60 0.2962145
440.70 0.2984166
440.80 0.3017046
440.90 0.3060867
441.00 0.3106634
441.10 0.3154912
441.20 0.3203439
441.30 0.3244532
441.40 0.3278302
441.50 0.3307305
441.60 0.3336543
441.70 0.3369925
441.80 0.3409316
441.90 0.345534
442.00 0.3507225
442.10 0.3563469
442.20 0.3622321
442.30 0.3682809
442.40 0.374303
442.50 0.380009
442.60 0.3851062
442.70 0.3893814
442.80 0.3928556
442.90 0.3957141
443.00 0.3981401
443.10 0.4003914
443.20 0.4026814
443.30 0.4050718
443.40 0.407498
443.50 0.4098256
443.60 0.411806
443.70 0.4130778
443.80 0.4135577
443.90 0.4135594
444.00 0.4135598
444.10 0.4139002
444.20 0.4145778
444.30 0.4153186
444.40 0.41575
444.50 0.4154087
444.60 0.4141272
444.70 0.4121253
444.80 0.4093529
444.90 0.4060591
445.00 0.4033014
445.10 0.4020263
445.20 0.4026697
445.30 0.4051852
445.40 0.4091164
445.50 0.4137273
445.60 0.4183569
445.70 0.4226257
445.80 0.4264412
445.90 0.4300334
446.00 0.4337684
446.10 0.437874
446.20 0.4424097
446.30 0.4473929
446.40 0.4528553
446.50 0.4584213
446.60 0.4636779
446.70 0.4686166
446.80 0.4733663
446.90 0.4780734
447.00 0.4823728
447.10 0.485786
447.20 0.4881432
447.30 0.4896216
447.40 0.4908413
447.50 0.4926029
447.60 0.4956657
447.70 0.4997258
447.80 0.5045354
447.90 0.5101552
448.00 0.5165686
448.10 0.5231033
448.20 0.5281127
448.30 0.5309926
448.40 0.5316959
448.50 0.5306529
448.60 0.5285924
448.70 0.526259
448.80 0.5242704
448.90 0.5232169
449.00 0.5235445
449.10 0.5255019
449.20 0.5290666
449.30 0.5338663
449.40 0.5393546
449.50 0.5450348
449.60 0.5504226
449.70 0.5549863
449.80 0.5583856
449.90 0.5606217
450.00 0.5619588
450.10 0.5629289
450.20 0.5641413
450.30 0.5660383
450.40 0.5689162
450.50 0.5729256
450.60 0.5780068
450.70 0.5839302
450.80 0.5904318
450.90 0.5973005
451.00 0.6044486
451.10 0.6118864
451.20 0.6194761
451.30 0.6268484
451.40 0.6335514
451.50 0.6391679
451.60 0.6434352
451.70 0.6464182
451.80 0.6483849
451.90 0.6496724
452.00 0.6506868
452.10 0.6518315
452.20 0.6533534
452.30 0.6553104
452.40 0.6577573
452.50 0.660703
452.60 0.6640655
452.70 0.6676761
452.80 0.6712805
452.90 0.6746036
453.00 0.6774063
453.10 0.6794567
453.20 0.6805801
453.30 0.680753
453.40 0.6801586
453.50 0.6792884
453.60 0.678928
453.70 0.6798611
453.80 0.6824755
453.90 0.6868282
454.00 0.6928681
454.10 0.7004843
454.20 0.7095385
454.30 0.7197727
454.40 0.7306732
454.50 0.7416206
454.60 0.7519298
454.70 0.760982
454.80 0.7688303
454.90 0.7755073
455.00 0.7803689
455.10 0.7829546
455.20 0.7831991
455.30 0.7813864
455.40 0.7781039
455.50 0.7740549
455.60 0.769808
455.70 0.7657704
455.80 0.7623165
455.90 0.7596814
456.00 0.7578603
456.10 0.7567353
456.20 0.7562407
456.30 0.7563473
456.40 0.7569285
456.50 0.7578247
456.60 0.7590755
456.70 0.7608086
456.80 0.7629406
456.90 0.7653294
457.00 0.7681955
457.10 0.7720757
457.20 0.7774815
457.30 0.7846202
457.40 0.793365
457.50 0.8032981
457.60 0.8136405
457.70 0.8235141
457.80 0.8322502
457.90 0.8394384
458.00 0.8449135
458.10 0.8488703
458.20 0.851939
458.30 0.8548795
458.40 0.8581871
458.50 0.861984
458.60 0.8661265
458.70 0.8703547
458.80 0.8742457
458.90 0.8773171
459.00 0.8792976
459.10 0.8801204
459.20 0.8798974
459.30 0.8790039
459.40 0.8780477
459.50 0.8775734
459.60 0.8779245
459.70 0.8793361
459.80 0.8818661
459.90 0.8853372
460.00 0.889437
460.10 0.8937741
460.20 0.8981007
460.30 0.9024079
460.40 0.9065576
460.50 0.9102149
460.60 0.9131027
460.70 0.9150044
460.80 0.9156632
460.90 0.9148918
461.00 0.9126437
461.10 0.9090589
461.20 0.904584
461.30 0.8998968
461.40 0.8956758
461.50 0.892436
461.60 0.8903554
461.70 0.8891899
461.80 0.8886248
461.90 0.8885293
462.00 0.8888567
462.10 0.8896481
462.20 0.8910181
462.30 0.8929876
462.40 0.8953279
462.50 0.8976664
462.60 0.8995692
462.70 0.9005176
462.80 0.9000481
462.90 0.8980214
463.00 0.8947624
463.10 0.890939
463.20 0.8873828
463.30 0.8849283
463.40 0.8842513
463.50 0.8854904
463.60 0.8881715
463.70 0.8915195
463.80 0.8947377
463.90 0.8970916
464.00 0.8979026
464.10 0.8968315
464.20 0.8939445
464.30 0.8895332
464.40 0.88408
464.50 0.8783502
464.60 0.8732371
464.70 0.8693735
464.80 0.8670667
464.90 0.8665332
465.00 0.8678576
465.10 0.8709051
465.20 0.8754467
465.30 0.8810041
465.40 0.8869443
465.50 0.8927502
465.60 0.8981326
465.70 0.9030413
465.80 0.9075795
465.90 0.9119262
466.00 0.9162538
466.10 0.9206736
466.20 0.925161
466.30 0.9295734
466.40 0.9337817
466.50 0.9377328
466.60 0.9414294
466.70 0.9450554
466.80 0.9488184
466.90 0.9527506
467.00 0.9567024
467.10 0.9602543
467.20 0.9628752
467.30 0.9641341
467.40 0.9637845
467.50 0.9618935
467.60 0.958767
467.70 0.9547937
467.80 0.9503649
467.90 0.9457939
468.00 0.9413052
468.10 0.9370173
468.20 0.9330092
468.30 0.9292597
468.40 0.9256382
468.50 0.9221805
468.60 0.9190142
468.70 0.9161649
468.80 0.9136786
468.90 0.9116356
469.00 0.9101823
469.10 0.90954
469.20 0.9098354
469.30 0.9110363
469.40 0.9129204
469.50 0.9152305
469.60 0.9178735
469.70 0.9208462
469.80 0.9241497
469.90 0.9277839
470.00 0.931688
470.10 0.9356874
470.20 0.9393666
470.30 0.9421267
470.40 0.9435493
470.50 0.9435331
470.60 0.9422254
470.70 0.939993
470.80 0.9373051
470.90 0.9344877
471.00 0.9316123
471.10 0.9286208
471.20 0.9253897
471.30 0.921753
471.40 0.917632
471.50 0.9130574
471.60 0.9081794
471.70 0.9033112
471.80 0.8986672
471.90 0.8941432
472.00 0.8894726
472.10 0.8843312
472.20 0.8784527
472.30 0.8718487
472.40 0.8648611
472.50 0.8579868
472.60 0.8517653
472.70 0.8468088
472.80 0.8436848
472.90 0.8426817
473.00 0.8436422
473.10 0.8459914
473.20 0.8489704
473.30 0.8518286
473.40 0.8537792
473.50 0.8541002
473.60 0.8523194
473.70 0.848327
473.80 0.8424554
473.90 0.8353973
474.00 0.8281171
474.10 0.8215715
474.20 0.8164224
474.30 0.8130776
474.40 0.8118593
474.50 0.8128087
474.60 0.8153505
474.70 0.818598
474.80 0.8217786
474.90 0.8242572
475.00 0.8257338
475.10 0.8262342
475.20 0.825815
475.30 0.8246395
475.40 0.8229032
475.50 0.8206289
475.60 0.8178004
475.70 0.8144643
475.80 0.8106024
475.90 0.8061886
476.00 0.801357
476.10 0.7963354
476.20 0.7913817
476.30 0.7868003
476.40 0.7827943
476.50 0.7793433
476.60 0.7761981
476.70 0.7729577
476.80 0.769338
476.90 0.7652528
477.00 0.7606055
477.10 0.7553361
477.20 0.7495522
477.30 0.7435025
477.40 0.7375189
477.50 0.7318669
477.60 0.7267318
477.70 0.7223032
477.80 0.7187904
477.90 0.7165439
478.00 0.7160735
478.10 0.717732
478.20 0.7214429
478.30 0.7267525
478.40 0.7330178
478.50 0.7394835
478.60 0.7453891
478.70 0.7500875
478.80 0.7532088
478.90 0.7547747
479.00 0.7550043
479.10 0.7541824
479.20 0.7525942
479.30 0.7502671
479.40 0.7469091
479.50 0.742132
479.60 0.7356063
479.70 0.7272675
479.80 0.7174234
479.90 0.7065278
480.00 0.6949857
480.10 0.6831811
480.20 0.6714748
480.30 0.660223
480.40 0.6498915
480.50 0.6409176
480.60 0.6337216
480.70 0.6288717
480.80 0.6270298
480.90 0.6287743
481.00 0.6343494
481.10 0.6434595
481.20 0.6552492
481.30 0.6685543
481.40 0.6822167
481.50 0.6952225
481.60 0.7067584
481.70 0.716322
481.80 0.7238145
481.90 0.7296373
482.00 0.7344535
482.10 0.7388473
482.20 0.7432366
482.30 0.7478194
482.40 0.7526436
482.50 0.7576857
482.60 0.7628586
482.70 0.7679723
482.80 0.772765
482.90 0.7770719
483.00 0.7809343
483.10 0.7844655
483.20 0.7876996
483.30 0.7906422
483.40 0.7933628
483.50 0.7960493
483.60 0.7989828
483.70 0.8024432
483.80 0.8065563
483.90 0.8112775
484.00 0.8164255
484.10 0.8216783
484.20 0.8266593
484.30 0.8309558
484.40 0.8340583
484.50 0.8355838
484.60 0.8356211
484.70 0.8345893
484.80 0.8329967
484.90 0.8314894
485.00 0.8306272
485.10 0.8307677
485.20 0.8322503
485.30 0.8352931
485.40 0.8398902
485.50 0.8459071
485.60 0.8531111
485.70 0.8611322
485.80 0.8695393
485.90 0.8778768
486.00 0.8856589
486.10 0.892507
486.20 0.8981556
486.30 0.9023868
486.40 0.9052252
486.50 0.9070085
486.60 0.9082338
486.70 0.9093844
486.80 0.9108889
486.90 0.913044
487.00 0.9159349
487.10 0.9195781
487.20 0.9240138
487.30 0.9292275
487.40 0.9350363
487.50 0.9411911
487.60 0.9475868
487.70 0.9541854
487.80 0.9608468
487.90 0.9671505
488.00 0.972417
488.10 0.9761641
488.20 0.9782789
488.30 0.9789881
488.40 0.9788528
488.50 0.9784838
488.60 0.9784273
488.70 0.9791942
488.80 0.9811807
488.90 0.9845281
489.00 0.9890169
489.10 0.9941626
489.20 0.9994155
489.30 1.004477
489.40 1.009527
489.50 1.014864
489.60 1.020607
489.70 1.026813
489.80 1.033406
489.90 1.040212
490.00 1.046996
490.10 1.053571
490.20 1.059895
490.30 1.065916
490.40 1.071473
490.50 1.076325
490.60 1.080123
490.70 1.082356
490.80 1.082291
490.90 1.079176
491.00 1.072592
491.10 1.062456
491.20 1.049127
491.30 1.033448
491.40 1.016577
491.50 0.9997596
491.60 0.9841636
491.70 0.9707867
491.80 0.9603612
491.90 0.9531963
492.00 0.9490753
492.10 0.9473681
492.20 0.9471747
492.30 0.9474869
492.40 0.9473027
492.50 0.9459136
492.60 0.943072
492.70 0.9389875
492.80 0.9342308
492.90 0.9294433
493.00 0.9251315
493.10 0.9216871
493.20 0.9193321
493.30 0.9180111
493.40 0.9175082
493.50 0.9175293
493.60 0.9177652
493.70 0.9180291
493.80 0.9183869
493.90 0.9191058
494.00 0.9205186
494.10 0.9229313
494.20 0.9265091
494.30 0.9312304
494.40 0.9368961
494.50 0.9430265
494.60 0.9489351
494.70 0.9539947
494.80 0.9576918
494.90 0.9595617
495.00 0.9593673
495.10 0.957228
495.20 0.9535387
495.30 0.9487782
495.40 0.943406
495.50 0.9378598
495.60 0.9325013
495.70 0.9276654
495.80 0.923742
495.90 0.9211209
496.00 0.9200205
496.10 0.9204631
496.20 0.9224867
496.30 0.9261753
496.40 0.9314281
496.50 0.9379631
496.60 0.9453725
496.70 0.953176
496.80 0.960861
496.90 0.9680172
497.00 0.9744682
497.10 0.9800801
497.20 0.9845425
497.30 0.9875184
497.40 0.988947
497.50 0.9890348
497.60 0.9880728
497.70 0.9865096
497.80 0.9849906
497.90 0.9841039
498.00 0.9842028
498.10 0.9853088
498.20 0.9871364
498.30 0.9891171
498.40 0.9905738
498.50 0.9911138
498.60 0.9907428
498.70 0.9897508
498.80 0.9884948
498.90 0.9873026
499.00 0.986499
499.10 0.9863014
499.20 0.9868276
499.30 0.9881181
499.40 0.9900085
499.50 0.992272
499.60 0.9947006
499.70 0.9969808
499.80 0.9987526
499.90 0.9997522
500.00 1
500.10 0.9997085
500.20 0.9992262
500.30 0.9990342
500.40 0.9996095
500.50 1.001392
500.60 1.004619
500.70 1.009228
500.80 1.015006
500.90 1.021699
501.00 1.029157
501.10 1.037519
501.20 1.047077
501.30 1.05792
501.40 1.069799
501.50 1.082284
501.60 1.094852
501.70 1.106896
501.80 1.117763
501.90 1.12683
502.00 1.133741
502.10 1.138623
502.20 1.142046
502.30 1.144763
502.40 1.147516
502.50 1.150845
502.60 1.154983
502.70 1.159899
502.80 1.165242
502.90 1.1705
503.00 1.17516
503.10 1.178717
503.20 1.180837
503.30 1.181564
503.40 1.181242
503.50 1.180361
503.60 1.17952
503.70 1.179333
503.80 1.180179
503.90 1.182031
504.00 1.184438
504.10 1.186612
504.20 1.187745
504.30 1.187272
504.40 1.184986
504.50 1.181254
504.60 1.176948
504.70 1.173117
504.80 1.170719
504.90 1.170383
505.00 1.172158
505.10 1.175496
505.20 1.179407
505.30 1.182819
505.40 1.184911
505.50 1.185279
505.60 1.183958
505.70 1.181328
505.80 1.17794
505.90 1.174326
506.00 1.170956
506.10 1.168145
506.20 1.165987
506.30 1.164386
506.40 1.163178
506.50 1.1622
506.60 1.161356
506.70 1.160576
506.80 1.159791
506.90 1.159072
507.00 1.158667
507.10 1.158881
507.20 1.159976
507.30 1.162087
507.40 1.165076
507.50 1.168552
507.60 1.172043
507.70 1.175102
507.80 1.177358
507.90 1.178688
508.00 1.179284
508.10 1.179505
508.20 1.179854
508.30 1.180861
508.40 1.182726
508.50 1.185187
508.60 1.187803
508.70 1.190261
508.80 1.19246
508.90 1.194539
509.00 1.196837
509.10 1.199752
509.20 1.203511
509.30 1.207953
509.40 1.21261
509.50 1.216984
509.60 1.220699
509.70 1.223556
509.80 1.22571
509.90 1.227593
510.00 1.229627
510.10 1.232007
510.20 1.234667
510.30 1.237324
510.40 1.239518
510.50 1.240784
510.60 1.241048
510.70 1.240647
510.80 1.240089
510.90 1.240001
511.00 1.240839
511.10 1.242621
511.20 1.244883
511.30 1.246998
511.40 1.248443
511.50 1.248816
511.60 1.247969
511.70 1.246051
511.80 1.243446
511.90 1.240646
512.00 1.237938
512.10 1.235286
512.20 1.232487
512.30 1.229289
512.40 1.225521
512.50 1.221107
512.60 1.216112
512.70 1.210735
512.80 1.20527
512.90 1.200036
513.00 1.195301
513.10 1.191308
513.20 1.188223
513.30 1.186041
513.40 1.184698
513.50 1.184245
513.60 1.184731
513.70 1.185965
513.80 1.18752
513.90 1.189024
514.00 1.19029
514.10 1.191322
514.20 1.192324
514.30 1.193644
514.40 1.195603
514.50 1.198293
514.60 1.201516
514.70 1.204852
514.80 1.207802
514.90 1.209974
515.00 1.211242
515.10 1.211743
515.20 1.211794
515.30 1.211763
515.40 1.211989
515.50 1.212607
515.60 1.213378
515.70 1.213893
515.80 1.213834
515.90 1.213038
516.00 1.211609
516.10 1.209938
516.20 1.208493
516.30 1.20776
516.40 1.208152
516.50 1.20983
516.60 1.212678
516.70 1.216359
516.80 1.220445
516.90 1.224494
517.00 1.228147
517.10 1.231151
517.20 1.233375
517.30 1.234965
517.40 1.236313
517.50 1.237893
517.60 1.240141
517.70 1.243202
517.80 1.24688
517.90 1.25088
518.00 1.254969
518.10 1.259079
518.20 1.263136
518.30 1.267099
518.40 1.271147
518.50 1.275665
518.60 1.281009
518.70 1.287228
518.80 1.294047
518.90 1.300864
519.00 1.306892
519.10 1.311442
519.20 1.314133
519.30 1.315031
519.40 1.314551
519.50 1.313276
519.60 1.31191
519.70 1.311124
519.80 1.311325
519.90 1.312665
520.00 1.315111
520.10 1.318441
520.20 1.322291
520.30 1.326411
520.40 1.330823
520.50 1.335623
520.60 1.340699
520.70 1.345669
520.80 1.350078
520.90 1.353504
521.00 1.355707
521.10 1.356824
521.20 1.357409
521.30 1.358056
521.40 1.359179
521.50 1.361169
521.60 1.364289
521.70 1.368552
521.80 1.373741
521.90 1.379482
522.00 1.385527
522.10 1.391896
522.20 1.398701
522.30 1.406032
522.40 1.413902
522.50 1.42215
522.60 1.430416
522.70 1.438359
522.80 1.445902
522.90 1.453263
523.00 1.46085
523.10 1.469078
523.20 1.478165
523.30 1.48808
523.40 1.498576
523.50 1.509139
523.60 1.519067
523.70 1.527702
523.80 1.534617
523.90 1.539668
524.00 1.543037
524.10 1.545226
524.20 1.546878
524.30 1.548637
524.40 1.551051
524.50 1.554428
524.60 1.558814
524.70 1.56412
524.80 1.570091
524.90 1.576272
525.00 1.582214
525.10 1.587669
525.20 1.592723
525.30 1.597799
525.40 1.603438
525.50 1.610159
525.60 1.618393
525.70 1.628169
525.80 1.638971
525.90 1.649999
526.00 1.660271
526.10 1.668762
526.20 1.674617
526.30 1.677296
526.40 1.676679
526.50 1.673077
526.60 1.667087
526.70 1.659565
526.80 1.651501
526.90 1.643692
527.00 1.636552
527.10 1.630275
527.20 1.62501
527.30 1.620758
527.40 1.617392
527.50 1.614745
527.60 1.612641
527.70 1.610972
527.80 1.609624
527.90 1.608315
528.00 1.606526
528.10 1.603583
528.20 1.598993
528.30 1.592723
528.40 1.585184
528.50 1.577023
528.60 1.568966
528.70 1.561719
528.80 1.555779
528.90 1.551395
529.00 1.5486
529.10 1.547171
529.20 1.546678
529.30 1.54672
529.40 1.547141
529.50 1.547943
529.60 1.549098
529.70 1.550535
529.80 1.552132
529.90 1.553653
530.00 1.554781
530.10 1.555367
530.20 1.555536
530.30 1.555427
530.40 1.555066
530.50 1.554581
530.60 1.554254
530.70 1.554402
530.80 1.555304
530.90 1.557112
531.00 1.559698
531.10 1.562583
531.20 1.565054
531.30 1.566601
531.40 1.567173
531.50 1.566962
531.60 1.566297
531.70 1.565614
531.80 1.565254
531.90 1.56536
532.00 1.565804
532.10 1.566146
532.20 1.565738
532.30 1.564038
532.40 1.560957
532.50 1.557014
532.60 1.553227
532.70 1.550667
532.80 1.54997
532.90 1.551188
533.00 1.553915
533.10 1.55755
533.20 1.561581
533.30 1.565672
533.40 1.569683
533.50 1.573711
533.60 1.578018
533.70 1.582868
533.80 1.588359
533.90 1.594447
534.00 1.601
534.10 1.607765
534.20 1.614474
534.30 1.620888
534.40 1.626896
534.50 1.632642
534.60 1.638491
534.70 1.644825
534.80 1.652
534.90 1.660395
535.00 1.670269
535.10 1.681561
535.20 1.693839
535.30 1.706354
535.40 1.718198
535.50 1.728593
535.60 1.737144
535.70 1.744021
535.80 1.74982
535.90 1.755235
536.00 1.76085
536.10 1.767128
536.20 1.774428
536.30 1.782825
536.40 1.792105
536.50 1.802029
536.60 1.812492
536.70 1.823368
536.80 1.834507
536.90 1.845823
537.00 1.857156
537.10 1.868188
537.20 1.878584
537.30 1.888097
537.40 1.896615
537.50 1.904111
537.60 1.910548
537.70 1.916007
537.80 1.920896
537.90 1.925871
538.00 1.931646
538.10 1.938922
538.20 1.948134
538.30 1.9592
538.40 1.971599
538.50 1.984482
538.60 1.996789
538.70 2.007537
538.80 2.016089
538.90 2.022246
539.00 2.026279
539.10 2.028914
539.20 2.031064
539.30 2.033539
539.40 2.036889
539.50 2.041333
539.60 2.04684
539.70 2.05315
539.80 2.05977
539.90 2.066148
540.00 2.071837
540.10 2.076528
540.20 2.080081
540.30 2.082647
540.40 2.084628
540.50 2.086309
540.60 2.087726
540.70 2.088831
540.80 2.089585
540.90 2.089963
541.00 2.090031
541.10 2.090066
541.20 2.090505
541.30 2.091714
541.40 2.093794
541.50 2.096574
541.60 2.09965
541.70 2.102454
541.80 2.104448
541.90 2.105477
542.00 2.105892
542.10 2.106373
542.20 2.107708
542.30 2.110399
542.40 2.114338
542.50 2.118951
542.60 2.123457
542.70 2.127031
542.80 2.12903
542.90 2.129083
543.00 2.127051
543.10 2.123015
543.20 2.117224
543.30 2.109905
543.40 2.101163
543.50 2.091065
543.60 2.079744
543.70 2.06763
543.80 2.055504
543.90 2.044048
544.00 2.033617
544.10 2.0244
544.20 2.016382
544.30 2.009206
544.40 2.002262
544.50 1.99478
544.60 1.985957
544.70 1.975265
544.80 1.962634
544.90 1.948356
545.00 1.932965
545.10 1.917144
545.20 1.901549
545.30 1.886662
545.40 1.872621
545.50 1.859151
545.60 1.845799
545.70 1.832207
545.80 1.818189
545.90 1.803774
546.00 1.789311
546.10 1.775267
546.20 1.762006
546.30 1.749706
546.40 1.738301
546.50 1.727439
546.60 1.716512
546.70 1.704916
546.80 1.692324
546.90 1.678741
547.00 1.664419
547.10 1.649582
547.20 1.634362
547.30 1.618983
547.40 1.603642
547.50 1.588554
547.60 1.574019
547.70 1.56029
547.80 1.54742
547.90 1.535241
548.00 1.523469
548.10 1.511771
548.20 1.499966
548.30 1.48809
548.40 1.476243
548.50 1.464587
548.60 1.453314
548.70 1.442437
548.80 1.431924
548.90 1.421772
549.00 1.411866
549.10 1.401966
549.20 1.391909
549.30 1.381678
549.40 1.371326
549.50 1.360938
549.60 1.350502
549.70 1.339937
549.80 1.329217
549.90 1.318466
550.00 1.202129
550.10 1.18749
550.20 1.172223
550.30 1.156136
550.40 1.139454
550.50 1.12277
550.60 1.106863
550.70 1.092024
550.80 1.078092
550.90 1.064959
551.00 1.052654
551.10 1.041009
551.20 1.02991
551.30 1.019766
551.40 1.011279
551.50 1.005223
551.60 1.002077
551.70 1.001453
551.80 1.00248
551.90 1.00413
552.00 1.005244
552.10 1.004846
552.20 1.002478
552.30 0.9983865
552.40 0.9937625
552.50 0.9904965
552.60 0.989975
552.70 0.992207
552.80 0.9960549
552.90 1.000056
553.00 1.002978
553.10 1.004198
553.20 1.003616
553.30 1.001277
553.40 0.9974352
553.50 0.9926246
553.60 0.9876887
553.70 0.9836539
553.80 0.9811148
553.90 0.9802563
554.00 0.9811941
554.10 0.9842373
554.20 0.9897816
554.30 0.9978958
554.40 1.008414
554.50 1.020719
554.60 1.034002
554.70 1.047843
554.80 1.062131
554.90 1.076898
555.00 1.09206
555.10 1.10734
555.20 1.12539
555.30 1.153238
555.40 1.19932
555.50 1.270058
555.60 1.367682
555.70 1.489596
555.80 1.628031
555.90 1.771629
556.00 1.908024
556.10 2.026219
556.20 2.119043
556.30 2.18482
556.40 2.227582
556.50 2.255988
556.60 2.278862
556.70 2.301541
556.80 2.32642
556.90 2.354178
557.00 2.384518
557.10 2.416431
557.20 2.448881
557.30 2.480983
557.40 2.511941
557.50 2.541303
557.60 2.568861
557.70 2.59433
557.80 2.617289
557.90 2.637422
558.00 2.655052
558.10 2.671318
558.20 2.687758
558.30 2.705631
558.40 2.725457
558.50 2.746981
558.60 2.769231
558.70 2.790846
558.80 2.810578
558.90 2.827517
559.00 2.84135
559.10 2.8524
559.20 2.858649
559.30 2.854187
559.40 2.831696
559.50 2.785368
559.60 2.71305
559.70 2.617323
559.80 2.505763
559.90 2.389311
560.00 2.280029
560.10 2.188659
560.20 2.121812
560.30 2.080311
560.40 2.059493
560.50 2.050801
560.60 2.046373
560.70 2.042223
560.80 2.037013
560.90 2.030666
561.00 2.02379
561.10 2.017192
561.20 2.011183
561.30 2.006059
561.40 2.002355
561.50 2.000332
561.60 2.00014
561.70 2.002229
561.80 2.007179
561.90 2.014961
562.00 2.024568
562.10 2.034455
562.20 2.043321
562.30 2.050473
562.40 2.055637
562.50 2.058912
562.60 2.060838
562.70 2.061824
562.80 2.061814
562.90 2.06071
563.00 2.058547
563.10 2.055431
563.20 2.051241
563.30 2.045617
563.40 2.038691
563.50 2.031314
563.60 2.024691
563.70 2.019804
563.80 2.016838
563.90 2.015359
564.00 2.014664
564.10 2.014189
564.20 2.013882
564.30 2.014165
564.40 2.015724
564.50 2.019007
564.60 2.023929
564.70 2.030332
564.80 2.038123
564.90 2.046927
565.00 2.055917
565.10 2.064089
565.20 2.0714
565.30 2.078873
565.40 2.087779
565.50 2.099214
565.60 2.113519
565.70 2.129829
565.80 2.146375
565.90 2.161324
566.00 2.173419
566.10 2.181985
566.20 2.186477
566.30 2.186477
566.40 2.182145
566.50 2.174383
566.60 2.164402
566.70 2.153696
566.80 2.143914
566.90 2.136413
567.00 2.132151
567.10 2.131561
567.20 2.13446
567.30 2.140087
567.40 2.147143
567.50 2.154052
567.60 2.159567
567.70 2.163388
567.80 2.166409
567.90 2.170242
568.00 2.1763
568.10 2.185013
568.20 2.195839
568.30 2.207584
568.40 2.218451
568.50 2.226873
568.60 2.23215
568.70 2.23405
568.80 2.232893
568.90 2.229612
569.00 2.225515
569.10 2.221956
569.20 2.219153
569.30 2.216119
569.40 2.211829
569.50 2.205717
569.60 2.197951
569.70 2.189815
569.80 2.18356
569.90 2.181171
570.00 2.183473
570.10 2.190323
570.20 2.200689
570.30 2.212864
570.40 2.225033
570.50 2.23571
570.60 2.244258
570.70 2.250763
570.80 2.255523
570.90 2.258802
571.00 2.260674
571.10 2.260932
571.20 2.259161
571.30 2.255097
571.40 2.248621
571.50 2.23951
571.60 2.227692
571.70 2.213455
571.80 2.197387
571.90 2.179898
572.00 2.16131
572.10 2.142598
572.20 2.125168
572.30 2.110477
572.40 2.099737
572.50 2.093392
572.60 2.091228
572.70 2.092753
572.80 2.097104
572.90 2.103109
573.00 2.109294
573.10 2.114021
573.20 2.116216
573.30 2.11603
573.40 2.114178
573.50 2.111282
573.60 2.107727
573.70 2.103267
573.80 2.097111
573.90 2.088646
574.00 2.077966
574.10 2.065892
574.20 2.054106
574.30 2.04489
574.40 2.040424
574.50 2.042216
574.60 2.050526
574.70 2.063939
574.80 2.080063
574.90 2.096353
575.00 2.110618
575.10 2.12182
575.20 2.130298
575.30 2.137166
575.40 2.143781
575.50 2.151471
575.60 2.161161
575.70 2.173122
575.80 2.186949
575.90 2.201971
576.00 2.217287
576.10 2.23171
576.20 2.244171
576.30 2.253714
576.40 2.259728
576.50 2.261875
576.60 2.25996
576.70 2.254181
576.80 2.245319
576.90 2.234785
577.00 2.224318
577.10 2.215715
577.20 2.210329
577.30 2.208335
577.40 2.209063
577.50 2.211515
577.60 2.214349
577.70 2.216122
577.80 2.215725
577.90 2.212998
578.00 2.2086
578.10 2.203391
578.20 2.198221
578.30 2.1937
578.40 2.190086
578.50 2.186963
578.60 2.183449
578.70 2.17923
578.80 2.174392
578.90 2.169046
579.00 2.163704
579.10 2.159149
579.20 2.155769
579.30 2.153356
579.40 2.151567
579.50 2.149872
579.60 2.146937
579.70 2.14096
579.80 2.130472
579.90 2.114816
580.00 2.09438
580.10 2.070321
580.20 2.044577
580.30 2.019788
580.40 1.99838
580.50 1.982257
580.60 1.972927
580.70 1.970908
580.80 1.975182
580.90 1.983714
581.00 1.994354
581.10 2.005112
581.20 2.014398
581.30 2.021503
581.40 2.026659
581.50 2.030514
581.60 2.03391
581.70 2.03792
581.80 2.043572
581.90 2.051184
582.00 2.059987
582.10 2.068686
582.20 2.076096
582.30 2.081406
582.40 2.084371
582.50 2.085378
582.60 2.084945
582.70 2.083216
582.80 2.080275
582.90 2.076393
583.00 2.071508
583.10 2.065075
583.20 2.056686
583.30 2.04632
583.40 2.034272
583.50 2.021615
583.60 2.010244
583.70 2.002107
583.80 1.998348
583.90 1.999146
584.00 2.004183
584.10 2.01267
584.20 2.022802
584.30 2.032079
584.40 2.038319
584.50 2.03975
584.60 2.034652
584.70 2.022005
584.80 2.002166
584.90 1.976224
585.00 1.945694
585.10 1.912729
585.20 1.879758
585.30 1.848596
585.40 1.819902
585.50 1.793524
585.60 1.768912
585.70 1.745195
585.80 1.721222
585.90 1.695947
586.00 1.668937
586.10 1.640119
586.20 1.609348
586.30 1.576751
586.40 1.54241
586.50 1.50655
586.60 1.470511
586.70 1.436394
586.80 1.406091
586.90 1.380718
587.00 1.360627
587.10 1.345262
587.20 1.333447
587.30 1.323797
587.40 1.314675
587.50 1.3045
587.60 1.292299
587.70 1.277521
587.80 1.260107
587.90 1.24033
588.00 1.218311
588.10 1.194387
588.20 1.16946
588.30 1.144983
588.40 1.12267
588.50 1.104238
588.60 1.090645
588.70 1.081816
588.80 1.077306
588.90 1.076507
589.00 1.078375
589.10 1.081165
589.20 1.082891
589.30 1.082125
589.40 1.078059
589.50 1.070714
589.60 1.061263
589.70 1.051539
589.80 1.043235
589.90 1.03752
590.00 1.035194
590.10 1.036577
590.20 1.041045
590.30 1.046768
590.40 1.051544
590.50 1.05386
590.60 1.052566
590.70 1.047006
590.80 1.037771
590.90 1.026536
591.00 1.01546
591.10 1.00674
591.20 1.001976
591.30 1.001922
591.40 1.006267
591.50 1.013492
591.60 1.021696
591.70 1.029676
591.80 1.037201
591.90 1.044854
592.00 1.053914
592.10 1.065675
592.20 1.08088
592.30 1.099376
592.40 1.12005
592.50 1.141285
592.60 1.162028
592.70 1.181909
592.80 1.200789
592.90 1.218781
593.00 1.236068
593.10 1.253121
593.20 1.270401
593.30 1.287891
593.40 1.305669
593.50 1.323651
593.60 1.341231
593.70 1.357831
593.80 1.373266
593.90 1.387828
594.00 1.402056
594.10 1.416639
594.20 1.432445
594.30 1.450522
594.40 1.471749
594.50 1.495874
594.60 1.5217
594.70 1.547754
594.80 1.572436
594.90 1.59463
595.00 1.613941
595.10 1.630406
595.20 1.644524
595.30 1.657253
595.40 1.669864
595.50 1.683745
595.60 1.699901
595.70 1.718653
595.80 1.739645
595.90 1.761952
596.00 1.784047
596.10 1.804005
596.20 1.820176
596.30 1.831734
596.40 1.83869
596.50 1.841804
596.60 1.842298
596.70 1.841592
596.80 1.841051
596.90 1.841605
597.00 1.843829
597.10 1.848054
597.20 1.854356
597.30 1.86256
597.40 1.87233
597.50 1.883664
597.60 1.896627
597.70 1.91088
597.80 1.92603
597.90 1.941754
598.00 1.957795
598.10 1.97383
598.20 1.989497
598.30 2.004728
598.40 2.019706
598.50 2.034654
598.60 2.049925
598.70 2.065956
598.80 2.082728
598.90 2.099463
599.00 2.114863
599.10 2.127584
599.20 2.136484
599.30 2.140813
599.40 2.140531
599.50 2.136433
599.60 2.130072
599.70 2.123219
599.80 2.117428
599.90 2.11395
600.00 2.412014
600.10 2.457099
600.20 2.484358
600.30 2.496294
600.40 2.49411
600.50 2.465901
600.60 2.415146
600.70 2.3592
600.80 2.305089
600.90 2.253032
601.00 2.200315
601.10 2.137801
601.20 2.063635
601.30 1.986626
601.40 1.913646
601.50 1.852225
601.60 1.817783
601.70 1.820069
601.80 1.860453
601.90 1.933144
602.00 2.019686
602.10 2.10064
602.20 2.167903
602.30 2.207108
602.40 2.213454
602.50 2.19742
602.60 2.16541
602.70 2.129826
602.80 2.113121
602.90 2.134656
603.00 2.195548
603.10 2.283
603.20 2.379838
603.30 2.466213
603.40 2.522899
603.50 2.552455
603.60 2.570463
603.70 2.592024
603.80 2.6273
603.90 2.672921
604.00 2.721682
604.10 2.764792
604.20 2.789541
604.30 2.785647
604.40 2.748311
604.50 2.67251
604.60 2.561458
604.70 2.436039
604.80 2.326876
604.90 2.25071
605.00 2.210289
605.10 2.204361
605.20 2.224885
605.30 2.27415
605.40 2.35071
605.50 2.427232
605.60 2.461963
605.70 2.434895
605.80 2.36235
605.90 2.276366
606.00 2.212323
606.10 2.19608
606.20 2.230703
606.30 2.296491
606.40 2.377785
606.50 2.475527
606.60 2.588987
606.70 2.702898
606.80 2.800587
606.90 2.880147
607.00 2.952033
607.10 3.015207
607.20 3.05128
607.30 3.04504
607.40 2.998063
607.50 2.92706
607.60 2.855271
607.70 2.81071
607.80 2.803983
607.90 2.823635
608.00 2.855541
608.10 2.885488
608.20 2.9045
608.30 2.910965
608.40 2.905743
608.50 2.885913
608.60 2.849941
608.70 2.806755
608.80 2.752415
608.90 2.674352
609.00 2.578887
609.10 2.485363
609.20 2.411484
609.30 2.365389
609.40 2.34836
609.50 2.358168
609.60 2.38586
609.70 2.423196
609.80 2.461009
609.90 2.492125
610.00 2.512928
610.10 2.50854
610.20 2.474813
610.30 2.427351
610.40 2.377791
610.50 2.329302
610.60 2.290518
610.70 2.281957
610.80 2.316936
610.90 2.390645
611.00 2.485091
611.10 2.575755
611.20 2.645146
611.30 2.689165
611.40 2.712902
611.50 2.732279
611.60 2.758567
611.70 2.786904
611.80 2.810112
611.90 2.83182
612.00 2.8526
612.10 2.858416
612.20 2.837635
612.30 2.794121
612.40 2.736566
612.50 2.664633
612.60 2.580534
612.70 2.48955
612.80 2.396877
612.90 2.312848
613.00 2.259353
613.10 2.256968
613.20 2.307404
613.30 2.392168
613.40 2.486217
613.50 2.57132
613.60 2.635558
613.70 2.670032
613.80 2.672553
613.90 2.65116
614.00 2.615032
614.10 2.5734
614.20 2.533959
614.30 2.49485
614.40 2.453063
614.50 2.412034
614.60 2.37538
614.70 2.345969
614.80 2.333791
614.90 2.344199
615.00 2.369643
615.10 2.404736
615.20 2.443371
615.30 2.472067
615.40 2.478609
615.50 2.455038
615.60 2.39886
615.70 2.321757
615.80 2.240313
615.90 2.168118
616.00 2.122812
616.10 2.117806
616.20 2.151445
616.30 2.216621
616.40 2.306926
616.50 2.401862
616.60 2.474624
616.70 2.511867
616.80 2.503192
616.90 2.444233
617.00 2.349136
617.10 2.247318
617.20 2.163471
617.30 2.110129
617.40 2.093987
617.50 2.112693
617.60 2.154645
617.70 2.198533
617.80 2.221609
617.90 2.213625
618.00 2.178693
618.10 2.122082
618.20 2.053151
618.30 1.997217
618.40 1.973495
618.50 1.97549
618.60 1.98538
618.70 1.995622
618.80 2.005628
618.90 2.012392
619.00 2.015608
619.10 2.013815
619.20 2.002871
619.30 1.98048
619.40 1.950051
619.50 1.921309
619.60 1.905058
619.70 1.902308
619.80 1.907997
619.90 1.922724
620.00 1.948486
620.10 1.97764
620.20 1.999484
620.30 2.008949
620.40 1.999186
620.50 1.968467
620.60 1.924299
620.70 1.883291
620.80 1.857657
620.90 1.852499
621.00 1.875303
621.10 1.924187
621.20 1.988169
621.30 2.053682
621.40 2.107634
621.50 2.137753
621.60 2.135578
621.70 2.095453
621.80 2.026552
621.90 1.959269
622.00 1.918547
622.10 1.903991
622.20 1.914274
622.30 1.954936
622.40 2.017527
622.50 2.083679
622.60 2.132631
622.70 2.15109
622.80 2.144326
622.90 2.130199
623.00 2.118808
623.10 2.116026
623.20 2.123186
623.30 2.134337
623.40 2.148963
623.50 2.173006
623.60 2.203659
623.70 2.22704
623.80 2.234601
623.90 2.224932
624.00 2.205821
624.10 2.18473
624.20 2.160919
624.30 2.132491
624.40 2.101887
624.50 2.078799
624.60 2.072586
624.70 2.083081
624.80 2.104257
624.90 2.131604
625.00 2.16171
625.10 2.192658
625.20 2.216745
625.30 2.221084
625.40 2.198899
625.50 2.155339
625.60 2.10051
625.70 2.047628
625.80 2.015492
625.90 2.017568
626.00 2.058405
626.10 2.132793
626.20 2.221876
626.30 2.303243
626.40 2.362622
626.50 2.389929
626.60 2.382714
626.70 2.351511
626.80 2.311123
626.90 2.273125
627.00 2.246156
627.10 2.233901
627.20 2.234291
627.30 2.247334
627.40 2.272109
627.50 2.30224
627.60 2.343972
627.70 2.411822
627.80 2.508414
627.90 2.622903
628.00 2.740029
628.10 2.849161
628.20 2.941664
628.30 3.00099
628.40 3.016482
628.50 2.992691
628.60 2.940519
628.70 2.872244
628.80 2.804196
628.90 2.75731
629.00 2.738984
629.10 2.743023
629.20 2.759002
629.30 2.777475
629.40 2.801527
629.50 2.85124
629.60 2.929089
629.70 3.021494
629.80 3.120811
629.90 3.216652
630.00 3.2995
630.10 3.358605
630.20 3.377906
630.30 3.352015
630.40 3.293507
630.50 3.216353
630.60 3.134603
630.70 3.065039
630.80 3.019817
630.90 2.992878
631.00 2.985104
631.10 3.011262
631.20 3.070156
631.30 3.150892
631.40 3.238534
631.50 3.326312
631.60 3.418402
631.70 3.505799
631.80 3.566888
631.90 3.589761
632.00 3.579884
632.10 3.552509
632.20 3.521544
632.30 3.494043
632.40 3.480292
632.50 3.494954
632.60 3.545583
632.70 3.628172
632.80 3.734392
632.90 3.85041
633.00 3.960201
633.10 4.057215
633.20 4.140834
633.30 4.21096
633.40 4.264032
633.50 4.295689
633.60 4.301958
633.70 4.285409
633.80 4.250375
633.90 4.196896
634.00 4.135544
634.10 4.080683
634.20 4.038316
634.30 4.010028
634.40 3.99601
634.50 3.99658
634.60 4.012652
634.70 4.045845
634.80 4.088109
634.90 4.122491
635.00 4.141792
635.10 4.142202
635.20 4.122264
635.30 4.094254
635.40 4.071933
635.50 4.065481
635.60 4.079777
635.70 4.115271
635.80 4.167283
635.90 4.221116
636.00 4.259214
636.10 4.267639
636.20 4.251503
636.30 4.229179
636.40 4.209931
636.50 4.202375
636.60 4.211136
636.70 4.228932
636.80 4.248138
636.90 4.267383
637.00 4.293096
637.10 4.326644
637.20 4.363653
637.30 4.406841
637.40 4.459452
637.50 4.514654
637.60 4.555961
637.70 4.564187
637.80 4.530941
637.90 4.458705
638.00 4.361149
638.10 4.262037
638.20 4.177437
638.30 4.112334
638.40 4.064652
638.50 4.031956
638.60 4.013769
638.70 4.006884
638.80 4.006986
638.90 4.011279
639.00 4.014699
639.10 4.022621
639.20 4.04719
639.30 4.092794
639.40 4.154453
639.50 4.220985
639.60 4.288432
639.70 4.357058
639.80 4.42889
639.90 4.504428
640.00 4.578101
640.10 4.642382
640.20 4.690123
640.30 4.712963
640.40 4.708298
640.50 4.676868
640.60 4.618931
640.70 4.534948
640.80 4.430108
640.90 4.31905
641.00 4.218837
641.10 4.147887
641.20 4.116439
641.30 4.126062
641.40 4.17684
641.50 4.260563
641.60 4.361991
641.70 4.470572
641.80 4.576949
641.90 4.665462
642.00 4.719272
642.10 4.731846
642.20 4.711594
642.30 4.667444
642.40 4.599994
642.50 4.512536
642.60 4.417346
642.70 4.327656
642.80 4.255863
642.90 4.212149
643.00 4.194557
643.10 4.190233
643.20 4.188836
643.30 4.187284
643.40 4.190981
643.50 4.208635
643.60 4.236576
643.70 4.26589
643.80 4.291522
643.90 4.306586
644.00 4.309734
644.10 4.306991
644.20 4.302039
644.30 4.299767
644.40 4.309877
644.50 4.340006
644.60 4.394801
644.70 4.473805
644.80 4.563316
644.90 4.643097
645.00 4.70022
645.10 4.727619
645.20 4.730654
645.30 4.725347
645.40 4.721321
645.50 4.715795
645.60 4.700162
645.70 4.671081
645.80 4.635988
645.90 4.608499
646.00 4.594895
646.10 4.594823
646.20 4.605742
646.30 4.623483
646.40 4.64762
646.50 4.680304
646.60 4.712693
646.70 4.723595
646.80 4.698712
646.90 4.644375
647.00 4.577243
647.10 4.510285
647.20 4.454252
647.30 4.418406
647.40 4.41007
647.50 4.432814
647.60 4.484427
647.70 4.556287
647.80 4.631806
647.90 4.697454
648.00 4.748128
648.10 4.784738
648.20 4.808865
648.30 4.820756
648.40 4.827163
648.50 4.838822
648.60 4.860315
648.70 4.890217
648.80 4.925108
648.90 4.960437
649.00 4.994456
649.10 5.030298
649.20 5.071859
649.30 5.116172
649.40 5.159952
649.50 5.209664
649.60 5.272913
649.70 5.34924
649.80 5.430256
649.90 5.503849
650.00 5.560408
650.10 5.588713
650.20 5.582989
650.30 5.552801
650.40 5.515869
650.50 5.491559
650.60 5.498765
650.70 5.545813
650.80 5.626547
650.90 5.724772
651.00 5.824846
651.10 5.919613
651.20 6.002076
651.30 6.067261
651.40 6.113113
651.50 6.143979
651.60 6.171836
651.70 6.206581
651.80 6.251333
651.90 6.304358
652.00 6.362824
652.10 6.429233
652.20 6.505855
652.30 6.591937
652.40 6.689255
652.50 6.797664
652.60 6.921568
652.70 7.066578
652.80 7.229024
652.90 7.401135
653.00 7.572649
653.10 7.726795
653.20 7.849947
653.30 7.94834
653.40 8.034862
653.50 8.114788
653.60 8.195403
653.70 8.284215
653.80 8.380473
653.90 8.474115
654.00 8.551719
654.10 8.601714
654.20 8.622226
654.30 8.617918
654.40 8.590461
654.50 8.542419
654.60 8.482589
654.70 8.414539
654.80 8.342652
654.90 8.270429
655.00 8.193062
655.10 8.119867
655.20 8.065118
655.30 8.039341
655.40 8.054531
655.50 8.108724
655.60 8.192068
655.70 8.30836
655.80 8.475427
655.90 8.713967
656.00 9.030417
656.10 9.391391
656.20 9.7229
656.30 9.96635
656.40 10.08974
656.50 10.06394
656.60 9.888821
656.70 9.593725
656.80 9.215671
656.90 8.809092
657.00 8.436604
657.10 8.136827
657.20 7.908173
657.30 7.728541
657.40 7.57612
657.50 7.439093
657.60 7.323044
657.70 7.229711
657.80 7.162379
657.90 7.124112
658.00 7.097168
658.10 7.063967
658.20 7.018075
658.30 6.96031
658.40 6.893197
658.50 6.824137
658.60 6.775187
658.70 6.767656
658.80 6.800352
658.90 6.858938
659.00 6.937219
659.10 7.032626
659.20 7.137878
659.30 7.247307
659.40 7.364496
659.50 7.494469
659.60 7.632949
659.70 7.764144
659.80 7.871075
659.90 7.939076
660.00 7.955633
660.10 7.916894
660.20 7.830238
660.30 7.716303
660.40 7.600527
660.50 7.501016
660.60 7.433412
660.70 7.414656
660.80 7.449494
660.90 7.524255
661.00 7.621378
661.10 7.731143
661.20 7.847219
661.30 7.956172
661.40 8.042106
661.50 8.092289
661.60 8.110194
661.70 8.113563
661.80 8.113778
661.90 8.116986
662.00 8.117486
662.10 8.097403
662.20 8.045083
662.30 7.96041
662.40 7.847655
662.50 7.71326
662.60 7.569928
662.70 7.444195
662.80 7.366627
662.90 7.356816
663.00 7.417565
663.10 7.534828
663.20 7.684287
663.30 7.839287
663.40 7.98083
663.50 8.096692
663.60 8.172722
663.70 8.197858
663.80 8.175536
663.90 8.124316
664.00 8.068483
664.10 8.030553
664.20 8.029848
664.30 8.07663
664.40 8.166684
664.50 8.279249
664.60 8.38311
664.70 8.447898
664.80 8.447453
664.90 8.369458
665.00 8.225837
665.10 8.047853
665.20 7.874935
665.30 7.738745
665.40 7.658549
665.50 7.641841
665.60 7.680247
665.70 7.754094
665.80 7.836062
665.90 7.903784
666.00 7.949535
666.10 7.978084
666.20 8.001631
666.30 8.03074
666.40 8.073337
666.50 8.134554
666.60 8.2099
666.70 8.290735
666.80 8.365002
666.90 8.415669
667.00 8.427224
667.10 8.398617
667.20 8.351105
667.30 8.312829
667.40 8.305622
667.50 8.336673
667.60 8.402358
667.70 8.490549
667.80 8.580563
667.90 8.649421
668.00 8.679138
668.10 8.660104
668.20 8.592649
668.30 8.49252
668.40 8.38601
668.50 8.28979
668.60 8.204356
668.70 8.130575
668.80 8.072838
668.90 8.035673
669.00 8.019721
669.10 8.025753
669.20 8.0543
669.30 8.099375
669.40 8.153118
669.50 8.203577
669.60 8.235306
669.70 8.239603
669.80 8.222395
669.90 8.205436
670.00 8.212051
670.10 8.249702
670.20 8.318285
670.30 8.413386
670.40 8.524641
670.50 8.639254
670.60 8.738981
670.70 8.809384
670.80 8.848695
670.90 8.869649
671.00 8.889303
671.10 8.911921
671.20 8.93112
671.30 8.939029
671.40 8.92682
671.50 8.891276
671.60 8.831713
671.70 8.752184
671.80 8.66479
671.90 8.578381
672.00 8.504268
672.10 8.455802
672.20 8.437105
672.30 8.439519
672.40 8.450796
672.50 8.463506
672.60 8.468461
672.70 8.454568
672.80 8.421265
672.90 8.378778
673.00 8.338958
673.10 8.312775
673.20 8.309757
673.30 8.337767
673.40 8.393756
673.50 8.464523
673.60 8.53717
673.70 8.604583
673.80 8.666796
673.90 8.7281
674.00 8.79523
674.10 8.874413
674.20 8.967105
674.30 9.063034
674.40 9.148655
674.50 9.216426
674.60 9.264546
674.70 9.295829
674.80 9.316571
674.90 9.329474
675.00 9.327121
675.10 9.303467
675.20 9.262196
675.30 9.210286
675.40 9.153906
675.50 9.097521
675.60 9.049612
675.70 9.029604
675.80 9.052308
675.90 9.112586
676.00 9.190302
676.10 9.264959
676.20 9.327564
676.30 9.382665
676.40 9.43962
676.50 9.499832
676.60 9.556606
676.70 9.601921
676.80 9.628311
676.90 9.627743
677.00 9.595027
677.10 9.53493
677.20 9.466317
677.30 9.41576
677.40 9.405776
677.50 9.447647
677.60 9.537567
677.70 9.653707
677.80 9.760037
677.90 9.821274
678.00 9.813626
678.10 9.727656
678.20 9.572247
678.30 9.373893
678.40 9.166119
678.50 8.977934
678.60 8.824241
678.70 8.718215
678.80 8.675966
678.90 8.695485
679.00 8.758298
679.10 8.844879
679.20 8.94318
679.30 9.041434
679.40 9.117404
679.50 9.151351
679.60 9.138078
679.70 9.090929
679.80 9.032703
679.90 8.98214
680.00 8.962932
680.10 8.988909
680.20 9.049483
680.30 9.129327
680.40 9.207641
680.50 9.258914
680.60 9.264483
680.70 9.219691
680.80 9.141146
680.90 9.054538
681.00 8.981554
681.10 8.937381
681.20 8.929145
681.30 8.952113
681.40 8.99037
681.50 9.029857
681.60 9.064919
681.70 9.090901
681.80 9.109693
681.90 9.128763
682.00 9.152618
682.10 9.184423
682.20 9.22315
682.30 9.264324
682.40 9.300834
682.50 9.322602
682.60 9.322418
682.70 9.302305
682.80 9.269798
682.90 9.231007
683.00 9.18581
683.10 9.132724
683.20 9.069098
683.30 8.995396
683.40 8.920431
683.50 8.84573
683.60 8.772609
683.70 8.70911
683.80 8.663081
683.90 8.638157
684.00 8.631286
684.10 8.638437
684.20 8.650652
684.30 8.651871
684.40 8.636016
684.50 8.606092
684.60 8.565568
684.70 8.516836
684.80 8.459192
684.90 8.406551
685.00 8.376848
685.10 8.371971
685.20 8.385139
685.30 8.411826
685.40 8.455503
685.50 8.511974
685.60 8.566381
685.70 8.610927
685.80 8.64312
685.90 8.671942
686.00 8.709999
686.10 8.762945
686.20 8.833172
686.30 8.912015
686.40 8.984768
686.50 9.044165
686.60 9.082606
686.70 9.084678
686.80 9.036434
686.90 8.928711
687.00 8.770025
687.10 8.587341
687.20 8.412147
687.30 8.268196
687.40 8.177409
687.50 8.149763
687.60 8.173911
687.70 8.227545
687.80 8.286784
687.90 8.334824
688.00 8.361013
688.10 8.358254
688.20 8.324818
688.30 8.276634
688.40 8.231419
688.50 8.188806
688.60 8.143941
688.70 8.098161
688.80 8.054266
688.90 8.019287
689.00 8.008998
689.10 8.036191
689.20 8.094307
689.30 8.161599
689.40 8.220696
689.50 8.264561
689.60 8.284871
689.70 8.269332
689.80 8.214309
689.90 8.13143
690.00 8.041037
690.10 7.965683
690.20 7.924969
690.30 7.93159
690.40 7.986131
690.50 8.082911
690.60 8.216993
690.70 8.380415
690.80 8.559944
690.90 8.73415
691.00 8.883677
691.10 9.0024
691.20 9.085334
691.30 9.121246
691.40 9.094687
691.50 8.990015
691.60 8.813391
691.70 8.599213
691.80 8.390925
691.90 8.225572
692.00 8.137127
692.10 8.151007
692.20 8.268673
692.30 8.46916
692.40 8.714572
692.50 8.952355
692.60 9.140839
692.70 9.267546
692.80 9.338398
692.90 9.371574
693.00 9.387304
693.10 9.403925
693.20 9.442471
693.30 9.517269
693.40 9.62118
693.50 9.726359
693.60 9.803578
693.70 9.83823
693.80 9.835253
693.90 9.824527
694.00 9.840274
694.10 9.901872
694.20 10.02682
694.30 10.22761
694.40 10.49482
694.50 10.80412
694.60 11.12246
694.70 11.41303
694.80 11.64368
694.90 11.79149
695.00 11.84738
695.10 11.81369
695.20 11.70099
695.30 11.52312
695.40 11.30446
695.50 11.08419
695.60 10.89966
695.70 10.77759
695.80 10.73452
695.90 10.76318
696.00 10.84446
696.10 10.95876
696.20 11.08263
696.30 11.19691
696.40 11.28918
696.50 11.35778
696.60 11.40452
696.70 11.42866
696.80 11.42711
696.90 11.39544
697.00 11.34038
697.10 11.27439
697.20 11.21429
697.30 11.19276
697.40 11.23098
697.50 11.32523
697.60 11.46704
697.70 11.64124
697.80 11.81986
697.90 11.96905
698.00 12.06025
698.10 12.08504
698.20 12.05739
698.30 12.0004
698.40 11.93705
698.50 11.89493
698.60 11.89485
698.70 11.92844
698.80 11.9747
698.90 12.0216
699.00 12.05692
699.10 12.06591
699.20 12.03604
699.30 11.96189
699.40 11.85573
699.50 11.73779
699.60 11.62353
699.70 11.52994
699.80 11.4681
699.90 11.44
700.00 11.44708
700.10 11.49107
700.20 11.5796
700.30 11.71927
700.40 11.90368
700.50 12.11872
700.60 12.35251
700.70 12.59472
700.80 12.82555
700.90 13.02033
701.00 13.16653
701.10 13.2631
701.20 13.315
701.30 13.33162
701.40 13.32751
701.50 13.32573
701.60 13.3423
701.70 13.37946
701.80 13.43706
701.90 13.51389
702.00 13.60581
702.10 13.70473
702.20 13.80249
702.30 13.90147
702.40 14.01356
702.50 14.1529
702.60 14.32866
702.70 14.53978
702.80 14.78022
702.90 15.0321
703.00 15.26571
703.10 15.46382
703.20 15.62835
703.30 15.77201
703.40 15.90657
703.50 16.04149
703.60 16.19197
703.70 16.36485
703.80 16.55145
703.90 16.73633
704.00 16.90964
704.10 17.06003
704.20 17.17003
704.30 17.23666
704.40 17.27126
704.50 17.28261
704.60 17.27878
704.70 17.26931
704.80 17.26627
704.90 17.27127
705.00 17.25441
705.10 17.17119
705.20 16.97983
705.30 16.65125
705.40 16.18301
705.50 15.60548
705.60 14.97089
705.70 14.33004
705.80 13.73308
705.90 13.22927
706.00 12.84178
706.10 12.56432
706.20 12.37337
706.30 12.24388
706.40 12.16798
706.50 12.14797
706.60 12.18964
706.70 12.29835
706.80 12.46162
706.90 12.64881
707.00 12.8273
707.10 12.98079
707.20 13.10086
707.30 13.18276
707.40 13.24155
707.50 13.29786
707.60 13.364
707.70 13.44474
707.80 13.53893
707.90 13.64017
708.00 13.73338
708.10 13.79881
708.20 13.82086
708.30 13.78975
708.40 13.70096
708.50 13.55048
708.60 13.35164
708.70 13.13065
708.80 12.905
708.90 12.69431
709.00 12.51836
709.10 12.39398
709.20 12.32791
709.30 12.31409
709.40 12.33708
709.50 12.37457
709.60 12.40832
709.70 12.43229
709.80 12.44615
709.90 12.4586
710.00 12.481
710.10 12.51693
710.20 12.56895
710.30 12.64018
710.40 12.73948
710.50 12.87178
710.60 13.03416
710.70 13.21553
710.80 13.39674
710.90 13.55162
711.00 13.65291
711.10 13.68856
711.20 13.66432
711.30 13.59402
711.40 13.49636
711.50 13.40153
711.60 13.34558
711.70 13.3524
711.80 13.42455
711.90 13.54971
712.00 13.70224
712.10 13.84472
712.20 13.93782
712.30 13.95516
712.40 13.8947
712.50 13.76438
712.60 13.57524
712.70 13.35586
712.80 13.14529
712.90 12.97823
713.00 12.87269
713.10 12.82712
713.20 12.83038
713.30 12.86111
713.40 12.89314
713.50 12.9078
713.60 12.90152
713.70 12.88203
713.80 12.8532
713.90 12.81953
714.00 12.795
714.10 12.78845
714.20 12.79759
714.30 12.81484
714.40 12.8379
714.50 12.8725
714.60 12.92339
714.70 12.99093
714.80 13.06944
714.90 13.15093
715.00 13.22741
715.10 13.29336
715.20 13.35854
715.30 13.43853
715.40 13.53384
715.50 13.63224
715.60 13.717
715.70 13.77005
715.80 13.77421
715.90 13.7224
716.00 13.621
716.10 13.49502
716.20 13.38445
716.30 13.32434
716.40 13.33614
716.50 13.4236
716.60 13.56331
716.70 13.71543
716.80 13.84747
716.90 13.94424
717.00 14.00697
717.10 14.04862
717.20 14.08644
717.30 14.1347
717.40 14.20121
717.50 14.27997
717.60 14.35708
717.70 14.42489
717.80 14.48561
717.90 14.54919
718.00 14.62783
718.10 14.73218
718.20 14.8649
718.30 15.01606
718.40 15.17184
718.50 15.31749
718.60 15.43871
718.70 15.52861
718.80 15.59034
718.90 15.6373
719.00 15.68682
719.10 15.75138
719.20 15.82918
719.30 15.9005
719.40 15.94093
719.50 15.939
719.60 15.89754
719.70 15.82507
719.80 15.72715
719.90 15.60935
720.00 15.49045
720.10 15.39541
720.20 15.3395
720.30 15.32533
720.40 15.34447
720.50 15.37787
720.60 15.40889
720.70 15.43679
720.80 15.46716
720.90 15.50221
721.00 15.543
721.10 15.59124
721.20 15.64772
721.30 15.71571
721.40 15.7929
721.50 15.86257
721.60 15.91363
721.70 15.94555
721.80 15.96368
721.90 15.98202
722.00 16.01614
722.10 16.07931
722.20 16.18763
722.30 16.34289
722.40 16.52752
722.50 16.71948
722.60 16.89759
722.70 17.04647
722.80 17.15286
722.90 17.22096
723.00 17.27034
723.10 17.3242
723.20 17.40876
723.30 17.53492
723.40 17.70148
723.50 17.90761
723.60 18.12536
723.70 18.31028
723.80 18.44063
723.90 18.51991
724.00 18.55792
724.10 18.56312
724.20 18.55801
724.30 18.56967
724.40 18.61586
724.50 18.69744
724.60 18.7995
724.70 18.9155
724.80 19.04134
724.90 19.15664
725.00 19.25607
725.10 19.36274
725.20 19.48998
725.30 19.63382
725.40 19.79404
725.50 19.96126
725.60 20.11576
725.70 20.23781
725.80 20.31791
725.90 20.36916
726.00 20.41042
726.10 20.45743
726.20 20.52513
726.30 20.62622
726.40 20.76247
726.50 20.91023
726.60 21.03555
726.70 21.11385
726.80 21.13209
726.90 21.10401
727.00 21.08412
727.10 21.12337
727.20 21.2302
727.30 21.38864
727.40 21.56532
727.50 21.71441
727.60 21.79001
727.70 21.76555
727.80 21.6545
727.90 21.50508
728.00 21.38301
728.10 21.34893
728.20 21.45176
728.30 21.69554
728.40 22.0059
728.50 22.30235
728.60 22.53837
728.70 22.67961
728.80 22.71835
728.90 22.67781
729.00 22.61456
729.10 22.5938
729.20 22.65015
729.30 22.79457
729.40 23.02551
729.50 23.31097
729.60 23.58458
729.70 23.7932
729.80 23.9243
729.90 23.98683
730.00 23.99846
730.10 23.99218
730.20 24.01417
730.30 24.10372
730.40 24.27575
730.50 24.5187
730.60 24.803
730.70 25.08951
730.80 25.33945
730.90 25.54957
731.00 25.75397
731.10 25.97957
731.20 26.21793
731.30 26.4545
731.40 26.69817
731.50 26.95641
731.60 27.22011
731.70 27.47021
731.80 27.68896
731.90 27.86459
732.00 28.00302
732.10 28.1261
732.20 28.24827
732.30 28.36243
732.40 28.44946
732.50 28.48628
732.60 28.45257
732.70 28.33393
732.80 28.12949
732.90 27.85693
733.00 27.55927
733.10 27.30554
733.20 27.15488
733.30 27.14933
733.40 27.31899
733.50 27.67383
733.60 28.19142
733.70 28.81389
733.80 29.4654
733.90 30.07376
734.00 30.58168
734.10 30.92593
734.20 31.04531
734.30 30.92656
734.40 30.60717
734.50 30.1543
734.60 29.65674
734.70 29.20531
734.80 28.86145
734.90 28.64438
735.00 28.54386
735.10 28.52488
735.20 28.52879
735.30 28.50026
735.40 28.42573
735.50 28.33337
735.60 28.26234
735.70 28.24049
735.80 28.28083
735.90 28.39249
736.00 28.58145
736.10 28.84655
736.20 29.18424
736.30 29.58582
736.40 30.02413
736.50 30.453
736.60 30.82811
736.70 31.12565
736.80 31.33236
736.90 31.43955
737.00 31.4396
737.10 31.32406
737.20 31.09832
737.30 30.78929
737.40 30.44059
737.50 30.10273
737.60 29.81294
737.70 29.58421
737.80 29.41968
737.90 29.3249
738.00 29.29859
738.10 29.32119
738.20 29.3559
738.30 29.37252
738.40 29.37478
738.50 29.4014
738.60 29.50272
738.70 29.70651
738.80 29.99276
738.90 30.29155
739.00 30.50946
739.10 30.56952
739.20 30.43681
739.30 30.11868
739.40 29.66645
739.50 29.17239
739.60 28.73834
739.70 28.42893
739.80 28.27047
739.90 28.25959
740.00 28.36137
740.10 28.51626
740.20 28.6458
740.30 28.6941
740.40 28.653
740.50 28.54903
740.60 28.43028
740.70 28.34967
740.80 28.3453
740.90 28.42405
741.00 28.57065
741.10 28.7751
741.20 29.0144
741.30 29.23228
741.40 29.34848
741.50 29.29415
741.60 29.06617
741.70 28.71612
741.80 28.31062
741.90 27.91542
742.00 27.58849
742.10 27.37701
742.20 27.29548
742.30 27.32472
742.40 27.43569
742.50 27.58785
742.60 27.73646
742.70 27.86026
742.80 27.96663
742.90 28.06814
743.00 28.16082
743.10 28.21988
743.20 28.22645
743.30 28.17902
743.40 28.08089
743.50 27.93998
743.60 27.78865
743.70 27.67225
743.80 27.60616
743.90 27.58301
744.00 27.58217
744.10 27.56123
744.20 27.47278
744.30 27.28587
744.40 27.00946
744.50 26.69953
744.60 26.41863
744.70 26.21754
744.80 26.14166
744.90 26.21213
745.00 26.40475
745.10 26.65817
745.20 26.90389
745.30 27.08751
745.40 27.17831
745.50 27.16916
745.60 27.07425
745.70 26.93013
745.80 26.77962
745.90 26.66394
746.00 26.62959
746.10 26.70775
746.20 26.89603
746.30 27.16123
746.40 27.44861
746.50 27.70806
746.60 27.90812
746.70 28.02883
746.80 28.06318
746.90 28.02168
747.00 27.92498
747.10 27.79518
747.20 27.659
747.30 27.5404
747.40 27.44535
747.50 27.36748
747.60 27.29788
747.70 27.24284
747.80 27.23215
747.90 27.29103
748.00 27.42943
748.10 27.63925
748.20 27.8968
748.30 28.17845
748.40 28.45764
748.50 28.70991
748.60 28.91578
748.70 29.05808
748.80 29.12473
748.90 29.1142
749.00 29.03366
749.10 28.88242
749.20 28.66332
749.30 28.40194
749.40 28.14067
749.50 27.93095
749.60 27.81763
749.70 27.82221
749.80 27.94255
749.90 28.15237
750.00 28.40226
750.10 28.63018
750.20 28.78549
750.30 28.84141
750.40 28.80738
750.50 28.73667
750.60 28.68898
750.70 28.70207
750.80 28.78925
750.90 28.93796
751.00 29.10652
751.10 29.24689
751.20 29.33828
751.30 29.37353
751.40 29.34821
751.50 29.27199
751.60 29.16705
751.70 29.06702
751.80 29.00482
751.90 28.99844
752.00 29.04296
752.10 29.11453
752.20 29.18608
752.30 29.23526
752.40 29.25288
752.50 29.24098
752.60 29.21012
752.70 29.18398
752.80 29.19702
752.90 29.26938
753.00 29.39118
753.10 29.54033
753.20 29.69034
753.30 29.81482
753.40 29.90838
753.50 29.98995
753.60 30.08912
753.70 30.22993
753.80 30.43616
753.90 30.72225
754.00 31.07225
754.10 31.44585
754.20 31.78101
754.30 32.01784
754.40 32.12633
754.50 32.09667
754.60 31.93662
754.70 31.67864
754.80 31.3698
754.90 31.06007
755.00 30.79833
755.10 30.62742
755.20 30.5609
755.30 30.58364
755.40 30.66506
755.50 30.77241
755.60 30.8857
755.70 30.99697
755.80 31.10993
755.90 31.23204
756.00 31.36223
756.10 31.48168
756.20 31.56006
756.30 31.57029
756.40 31.4962
756.50 31.34387
756.60 31.15042
756.70 30.96042
756.80 30.80915
756.90 30.73161
757.00 30.75459
757.10 30.86648
757.20 31.02015
757.30 31.16132
757.40 31.24108
757.50 31.23459
757.60 31.16488
757.70 31.08932
757.80 31.06501
757.90 31.12931
758.00 31.28655
758.10 31.50528
758.20 31.72541
758.30 31.86128
758.40 31.81403
758.50 31.51209
758.60 30.92488
758.70 30.06505
758.80 28.99615
758.90 27.82133
759.00 26.64859
759.10 25.5777
759.20 24.69501
759.30 24.02631
759.40 23.52699
759.50 23.15981
759.60 22.91693
759.70 22.75063
759.80 22.60468
759.90 22.48955
760.00 22.42585
760.10 22.39113
760.20 22.38114
760.30 22.41713
760.40 22.51337
760.50 22.664
760.60 22.83712
760.70 23.01584
760.80 23.21466
760.90 23.42874
761.00 23.63021
761.10 23.82926
761.20 24.04321
761.30 24.23397
761.40 24.37064
761.50 24.48004
761.60 24.58018
761.70 24.65807
761.80 24.68835
761.90 24.63969
762.00 24.50687
762.10 24.29521
762.20 23.99841
762.30 23.60873
762.40 23.12127
762.50 22.5317
762.60 21.84963
762.70 21.10862
762.80 20.36158
762.90 19.66803
763.00 19.07421
763.10 18.60377
763.20 18.25445
763.30 18.00874
763.40 17.82987
763.50 17.67528
763.60 17.51796
763.70 17.33474
763.80 17.09668
763.90 16.78619
764.00 16.40996
764.10 16.00369
764.20 15.61228
764.30 15.25923
764.40 14.94263
764.50 14.64708
764.60 14.35931
764.70 14.06211
764.80 13.72613
764.90 13.31952
765.00 12.81971
765.10 12.2262
765.20 11.56817
765.30 10.90372
765.40 10.29551
765.50 9.764718
765.60 9.298422
765.70 8.884787
765.80 8.509083
765.90 8.132735
766.00 7.716286
766.10 7.243696
766.20 6.718889
766.30 6.173422
766.40 5.664954
766.50 5.255469
766.60 4.99159
766.70 4.893126
766.80 4.958963
766.90 5.187162
767.00 5.567206
767.10 6.055796
767.20 6.59692
767.30 7.152201
767.40 7.692459
767.50 8.196642
767.60 8.653703
767.70 9.057164
767.80 9.41181
767.90 9.728111
768.00 10.0264
768.10 10.32308
768.20 10.61666
768.30 10.88654
768.40 11.09472
768.50 11.21398
768.60 11.23702
768.70 11.1816
768.80 11.07195
768.90 10.91303
769.00 10.70108
769.10 10.43491
769.20 10.10381
769.30 9.699099
769.40 9.217992
769.50 8.663313
769.60 8.05186
769.70 7.424796
769.80 6.850255
769.90 6.396482
770.00 6.113745
770.10 6.02309
770.20 6.125382
770.30 6.415534
770.40 6.879384
770.50 7.479978
770.60 8.174881
770.70 8.919361
770.80 9.655423
770.90 10.34154
771.00 10.95797
771.10 11.50201
771.20 11.97741
771.30 12.38667
771.40 12.74149
771.50 13.06774
771.60 13.39691
771.70 13.74273
771.80 14.10437
771.90 14.47186
772.00 14.82651
772.10 15.16519
772.20 15.50812
772.30 15.8798
772.40 16.30234
772.50 16.78082
772.60 17.30565
772.70 17.85713
772.80 18.40615
772.90 18.90973
773.00 19.32602
773.10 19.64739
773.20 19.89232
773.30 20.10193
773.40 20.32168
773.50 20.57167
773.60 20.85297
773.70 21.1581
773.80 21.46579
773.90 21.73982
774.00 21.94257
774.10 22.05126
774.20 22.05501
774.30 21.96717
774.40 21.83041
774.50 21.70194
774.60 21.636
774.70 21.65683
774.80 21.7529
774.90 21.90581
775.00 22.08719
775.10 22.24172
775.20 22.32433
775.30 22.3314
775.40 22.28646
775.50 22.22395
775.60 22.17037
775.70 22.13718
775.80 22.1291
775.90 22.13831
776.00 22.15435
776.10 22.17335
776.20 22.19514
776.30 22.21454
776.40 22.23862
776.50 22.30077
776.60 22.44293
776.70 22.6945
776.80 23.06402
776.90 23.53154
777.00 24.06309
777.10 24.61878
777.20 25.13363
777.30 25.5295
777.40 25.74059
777.50 25.74521
777.60 25.57569
777.70 25.29452
777.80 24.97463
777.90 24.686
778.00 24.46765
778.10 24.3143
778.20 24.19789
778.30 24.09413
778.40 23.98972
778.50 23.87685
778.60 23.76517
778.70 23.69115
778.80 23.70448
778.90 23.85223
779.00 24.1466
779.10 24.54842
779.20 24.98305
779.30 25.35461
779.40 25.55787
779.50 25.49021
779.60 25.07048
779.70 24.27988
779.80 23.1937
779.90 21.98318
780.00 20.87882
780.10 20.10648
780.20 19.83273
780.30 20.14278
780.40 21.0185
780.50 22.32028
780.60 23.83414
780.70 25.32406
780.80 26.58009
780.90 27.48222
781.00 28.03118
781.10 28.31077
781.20 28.44303
781.30 28.54026
781.40 28.66481
781.50 28.84437
781.60 29.08094
781.70 29.32368
781.80 29.49023
781.90 29.54532
782.00 29.48891
782.10 29.32699
782.20 29.08175
782.30 28.77278
782.40 28.41599
782.50 28.03054
782.60 27.63484
782.70 27.25173
782.80 26.91761
782.90 26.6624
783.00 26.50561
783.10 26.46213
783.20 26.55476
783.30 26.78467
783.40 27.11165
783.50 27.50124
783.60 27.93008
783.70 28.37459
783.80 28.79654
783.90 29.16646
784.00 29.47639
784.10 29.73017
784.20 29.94902
784.30 30.15966
784.40 30.36692
784.50 30.55219
784.60 30.69129
784.70 30.77748
784.80 30.82394
784.90 30.81724
785.00 30.72922
785.10 30.56033
785.20 30.34742
785.30 30.15366
785.40 30.03171
785.50 30.00985
785.60 30.09234
785.70 30.25983
785.80 30.48449
785.90 30.7413
786.00 31.00611
786.10 31.23614
786.20 31.37954
786.30 31.41112
786.40 31.33479
786.50 31.17106
786.60 30.95937
786.70 30.72227
786.80 30.46974
786.90 30.22676
787.00 30.00728
787.10 29.81659
787.20 29.66805
787.30 29.57244
787.40 29.53023
787.50 29.552
787.60 29.66048
787.70 29.86767
787.80 30.16216
787.90 30.52024
788.00 30.90096
788.10 31.26117
788.20 31.57508
788.30 31.81794
788.40 31.99951
788.50 32.15948
788.60 32.31342
788.70 32.46818
788.80 32.64531
788.90 32.85362
789.00 33.0708
789.10 33.25888
789.20 33.38263
789.30 33.40413
789.40 33.28847
789.50 33.02098
789.60 32.61885
789.70 32.1312
789.80 31.61624
789.90 31.13821
790.00 30.78494
790.10 30.6345
790.20 30.70046
790.30 30.93149
790.40 31.23756
790.50 31.51897
790.60 31.70043
790.70 31.75162
790.80 31.68375
790.90 31.53497
791.00 31.36375
791.10 31.24675
791.20 31.25345
791.30 31.40037
791.40 31.64262
791.50 31.89607
791.60 32.08225
791.70 32.16263
791.80 32.14566
791.90 32.08135
792.00 32.01014
792.10 31.93279
792.20 31.84107
792.30 31.74218
792.40 31.64661
792.50 31.55983
792.60 31.48904
792.70 31.45599
792.80 31.4932
792.90 31.64454
793.00 31.95682
793.10 32.43754
793.20 33.03033
793.30 33.62951
793.40 34.12482
793.50 34.43608
793.60 34.51423
793.70 34.34086
793.80 33.93446
793.90 33.351
794.00 32.66094
794.10 31.9331
794.20 31.22554
794.30 30.54182
794.40 29.81926
794.50 28.99165
794.60 28.06068
794.70 27.1047
794.80 26.26701
794.90 25.72466
795.00 25.63128
795.10 26.07072
795.20 27.0289
795.30 28.38663
795.40 29.94895
795.50 31.48605
795.60 32.77391
795.70 33.67583
795.80 34.17753
795.90 34.35361
796.00 34.31306
796.10 34.16484
796.20 34.01249
796.30 33.93888
796.40 33.98928
796.50 34.16722
796.60 34.45243
796.70 34.81895
796.80 35.22743
796.90 35.6277
797.00 35.9803
797.10 36.24792
797.20 36.39015
797.30 36.38924
797.40 36.27282
797.50 36.09397
797.60 35.87905
797.70 35.64837
797.80 35.43674
797.90 35.26099
798.00 35.10649
798.10 34.93567
798.20 34.71442
798.30 34.43219
798.40 34.09864
798.50 33.74197
798.60 33.41882
798.70 33.19503
798.80 33.11409
798.90 33.19725
799.00 33.43465
799.10 33.76268
799.20 34.09656
799.30 34.37562
799.40 34.57853
799.50 34.71581
799.60 34.81474
799.70 34.90247
799.80 34.99842
799.90 35.1234
800.00 35.30011
800.10 35.53396
800.20 35.81012
800.30 36.09055
800.40 36.3502
800.50 36.60059
800.60 36.85064
800.70 37.10753
800.80 37.38522
800.90 37.69479
801.00 38.03995
801.10 38.41652
801.20 38.82465
801.30 39.25875
801.40 39.68838
801.50 40.07678
801.60 40.38556
801.70 40.59704
801.80 40.72842
801.90 40.81035
802.00 40.90618
802.10 41.07376
802.20 41.33768
802.30 41.71618
802.40 42.20494
802.50 42.77767
802.60 43.39224
802.70 43.98734
802.80 44.49629
802.90 44.87574
803.00 45.11553
803.10 45.22666
803.20 45.22618
803.30 45.13707
803.40 44.9695
803.50 44.74645
803.60 44.51284
803.70 44.30335
803.80 44.14669
803.90 44.06326
804.00 44.07561
804.10 44.20365
804.20 44.45022
804.30 44.79203
804.40 45.18483
804.50 45.59039
804.60 46.00658
804.70 46.45789
804.80 46.97548
804.90 47.58747
805.00 48.30714
805.10 49.10377
805.20 49.91653
805.30 50.69765
805.40 51.40137
805.50 51.99312
805.60 52.46586
805.70 52.82723
805.80 53.10771
805.90 53.34903
806.00 53.56683
806.10 53.75648
806.20 53.90542
806.30 54.00056
806.40 54.02772
806.50 53.99148
806.60 53.92938
806.70 53.88336
806.80 53.87845
806.90 53.92462
807.00 54.03972
807.10 54.26048
807.20 54.61288
807.30 55.09645
807.40 55.69037
807.50 56.35852
807.60 57.05787
807.70 57.74216
807.80 58.37348
807.90 58.94443
808.00 59.47137
808.10 59.9703
808.20 60.45126
808.30 60.91202
808.40 61.32314
808.50 61.62627
808.60 61.77895
808.70 61.79115
808.80 61.71461
808.90 61.61595
809.00 61.55503
809.10 61.56831
809.20 61.67221
809.30 61.8464
809.40 62.02138
809.50 62.12539
809.60 62.11802
809.70 61.99874
809.80 61.81907
809.90 61.66077
810.00 61.59037
810.10 61.63003
810.20 61.7642
810.30 61.98015
810.40 62.28848
810.50 62.69585
810.60 63.1794
810.70 63.70183
810.80 64.23662
810.90 64.7693
811.00 65.28061
811.10 65.7293
811.20 66.05607
811.30 66.22712
811.40 66.27112
811.50 66.28014
811.60 66.36578
811.70 66.60175
811.80 67.00595
811.90 67.56603
812.00 68.24193
812.10 68.96261
812.20 69.66325
812.30 70.29198
812.40 70.82712
812.50 71.30226
812.60 71.77357
812.70 72.28478
812.80 72.82988
812.90 73.3595
813.00 73.83438
813.10 74.23431
813.20 74.5521
813.30 74.80937
813.40 75.06295
813.50 75.37241
813.60 75.75092
813.70 76.15903
813.80 76.51308
813.90 76.68504
814.00 76.56502
814.10 76.13277
814.20 75.45934
814.30 74.65591
814.40 73.83023
814.50 73.07323
814.60 72.46554
814.70 72.06179
814.80 71.87232
814.90 71.8839
815.00 72.07428
815.10 72.40938
815.20 72.84894
815.30 73.37358
815.40 73.96622
815.50 74.5667
815.60 75.0885
815.70 75.47394
815.80 75.7354
815.90 75.94025
816.00 76.16827
816.10 76.48611
816.20 76.93694
816.30 77.52794
816.40 78.22871
816.50 79.00034
816.60 79.80658
816.70 80.6091
816.80 81.36224
816.90 82.0269
817.00 82.59553
817.10 83.07332
817.20 83.43876
817.30 83.64413
817.40 83.62597
817.50 83.31528
817.60 82.64341
817.70 81.53572
817.80 79.91393
817.90 77.69685
818.00 74.88043
818.10 71.60828
818.20 68.17927
818.30 65.00798
818.40 62.52237
818.50 61.04559
818.60 60.70794
818.70 61.41099
818.80 62.82214
818.90 64.42934
819.00 65.65793
819.10 66.0236
819.20 65.26597
819.30 63.46338
819.40 60.99792
819.50 58.40411
819.60 56.2341
819.70 54.92998
819.80 54.74084
819.90 55.70417
820.00 57.669
820.10 60.32234
820.20 63.25599
820.30 66.05647
820.40 68.39467
820.50 70.0923
820.60 71.15259
820.70 71.70035
820.80 71.90113
820.90 71.94187
821.00 71.98671
821.10 72.14144
821.20 72.45314
821.30 72.90235
821.40 73.41491
821.50 73.91188
821.60 74.34981
821.70 74.73571
821.80 75.11465
821.90 75.54675
822.00 76.06463
822.10 76.65314
822.20 77.26456
822.30 77.8493
822.40 78.39611
822.50 78.91668
822.60 79.42472
822.70 79.9358
822.80 80.44993
822.90 80.94705
823.00 81.3995
823.10 81.76491
823.20 82.00282
823.30 82.10345
823.40 82.09774
823.50 82.05218
823.60 82.06031
823.70 82.21611
823.80 82.56953
823.90 83.12693
824.00 83.84716
824.10 84.65134
824.20 85.45341
824.30 86.16664
824.40 86.72435
824.50 87.11354
824.60 87.35213
824.70 87.43493
824.80 87.33304
824.90 87.00962
825.00 86.43741
825.10 85.62048
825.20 84.60141
825.30 83.45523
825.40 82.30186
825.50 81.3033
825.60 80.62923
825.70 80.40969
825.80 80.67226
825.90 81.33684
826.00 82.25487
826.10 83.25917
826.20 84.20482
826.30 84.98551
826.40 85.51993
826.50 85.74324
826.60 85.64302
826.70 85.2673
826.80 84.68844
826.90 83.9804
827.00 83.21608
827.10 82.47408
827.20 81.8549
827.30 81.46794
827.40 81.39391
827.50 81.65382
827.60 82.18519
827.70 82.86229
827.80 83.53418
827.90 84.04628
828.00 84.26613
828.10 84.12882
828.20 83.6553
828.30 82.93088
828.40 82.07341
828.50 81.18091
828.60 80.31028
828.70 79.45175
828.80 78.56202
828.90 77.63183
829.00 76.69097
829.10 75.79421
829.20 75.01737
829.30 74.44616
829.40 74.12206
829.50 74.01231
829.60 74.04165
829.70 74.11145
829.80 74.09544
829.90 73.89707
830.00 73.49152
830.10 72.93865
830.20 72.3564
830.30 71.84378
830.40 71.46134
830.50 71.24344
830.60 71.20935
830.70 71.349
830.80 71.62563
830.90 71.99337
831.00 72.3862
831.10 72.74837
831.20 73.06929
831.30 73.37547
831.40 73.71687
831.50 74.15418
831.60 74.73268
831.70 75.46512
831.80 76.33511
831.90 77.3047
832.00 78.29528
832.10 79.20414
832.20 79.9312
832.30 80.38587
832.40 80.5141
832.50 80.31125
832.60 79.84456
832.70 79.25698
832.80 78.71405
832.90 78.34881
833.00 78.21793
833.10 78.29888
833.20 78.5293
833.30 78.80546
833.40 79.0082
833.50 79.05285
833.60 78.94289
833.70 78.7666
833.80 78.64624
833.90 78.70482
834.00 78.99833
834.10 79.48999
834.20 80.08384
834.30 80.65605
834.40 81.1178
834.50 81.43562
834.60 81.59536
834.70 81.6048
834.80 81.50831
834.90 81.36832
835.00 81.19616
835.10 80.9746
835.20 80.70889
835.30 80.40558
835.40 80.08506
835.50 79.78979
835.60 79.57357
835.70 79.48828
835.80 79.54262
835.90 79.70924
836.00 79.95091
836.10 80.21837
836.20 80.45388
836.30 80.62387
836.40 80.76878
836.50 80.97074
836.60 81.28717
836.70 81.72888
836.80 82.25547
836.90 82.78101
837.00 83.16619
837.10 83.25601
837.20 82.96502
837.30 82.31498
837.40 81.41753
837.50 80.45154
837.60 79.66189
837.70 79.29106
837.80 79.44369
837.90 80.03852
838.00 80.87227
838.10 81.72318
838.20 82.37622
838.30 82.61499
838.40 82.31288
838.50 81.47751
838.60 80.23305
838.70 78.79536
838.80 77.41733
838.90 76.33355
839.00 75.65919
839.10 75.36933
839.20 75.42673
839.30 75.82284
839.40 76.56539
839.50 77.61497
839.60 78.85506
839.70 80.19309
839.80 81.56752
839.90 82.90979
840.00 84.10509
840.10 85.00508
840.20 85.51472
840.30 85.62732
840.40 85.44712
840.50 85.15139
840.60 84.88199
840.70 84.72285
840.80 84.67839
840.90 84.72398
841.00 84.92131
841.10 85.33959
841.20 85.97295
841.30 86.72679
841.40 87.46414
841.50 88.0555
841.60 88.36207
841.70 88.26652
841.80 87.70597
841.90 86.72113
842.00 85.4785
842.10 84.21667
842.20 83.18721
842.30 82.57422
842.40 82.42816
842.50 82.69539
842.60 83.26439
842.70 83.97637
842.80 84.6129
842.90 84.95001
843.00 84.80707
843.10 84.01234
843.20 82.46125
843.30 80.19857
843.40 77.42299
843.50 74.4583
843.60 71.6765
843.70 69.40223
843.80 67.81456
843.90 66.88495
844.00 66.41358
844.10 66.13088
844.20 65.81056
844.30 65.29553
844.40 64.52104
844.50 63.58534
844.60 62.69185
844.70 62.0128
844.80 61.61521
844.90 61.43934
845.00 61.33168
845.10 61.10537
845.20 60.61245
845.30 59.79919
845.40 58.7222
845.50 57.53992
845.60 56.44048
845.70 55.59008
845.80 55.11305
845.90 55.03988
846.00 55.30186
846.10 55.76236
846.20 56.26052
846.30 56.66107
846.40 56.90213
846.50 56.98727
846.60 56.94194
846.70 56.82099
846.80 56.66335
846.90 56.47568
847.00 56.27824
847.10 56.09743
847.20 55.94221
847.30 55.82511
847.40 55.76337
847.50 55.76285
847.60 55.82225
847.70 55.92067
847.80 55.99452
847.90 55.97709
848.00 55.87178
848.10 55.72391
848.20 55.5846
848.30 55.52452
848.40 55.60961
848.50 55.87379
848.60 56.33453
848.70 57.00358
848.80 57.87808
848.90 58.9003
849.00 59.96088
849.10 60.94822
849.20 61.77246
849.30 62.37021
849.40 62.6748
849.50 62.64077
849.60 62.3066
849.70 61.76971
849.80 61.16219
849.90 60.67665
850.00 60.4866
850.10 60.62082
850.20 60.95817
850.30 61.3468
850.40 61.66608
850.50 61.81919
850.60 61.74526
850.70 61.44168
850.80 60.98746
850.90 60.51811
851.00 60.16419
851.10 59.99278
851.20 59.9949
851.30 60.04687
851.40 59.96273
851.50 59.61402
851.60 58.9386
851.70 57.90154
851.80 56.5183
851.90 54.90124
852.00 53.26453
852.10 51.89243
852.20 51.04061
852.30 50.85481
852.40 51.35747
852.50 52.4767
852.60 54.06115
852.70 55.89918
852.80 57.74778
852.90 59.39095
853.00 60.7075
853.10 61.69225
853.20 62.42195
853.30 62.99758
853.40 63.4814
853.50 63.8619
853.60 64.1284
853.70 64.33041
853.80 64.53913
853.90 64.7953
854.00 65.09802
854.10 65.4387
854.20 65.84286
854.30 66.35131
854.40 66.98232
854.50 67.72285
854.60 68.53754
854.70 69.36725
854.80 70.15771
854.90 70.87281
855.00 71.47256
855.10 71.91429
855.20 72.16342
855.30 72.22528
855.40 72.15662
855.50 72.01983
855.60 71.82517
855.70 71.54527
855.80 71.17296
855.90 70.74015
856.00 70.29674
856.10 69.90373
856.20 69.62625
856.30 69.52805
856.40 69.65606
856.50 69.99665
856.60 70.48392
856.70 71.02042
856.80 71.48793
856.90 71.79085
857.00 71.9012
857.10 71.85437
857.20 71.70659
857.30 71.51376
857.40 71.34063
857.50 71.2556
857.60 71.31873
857.70 71.55319
857.80 71.89966
857.90 72.26574
858.00 72.59327
858.10 72.85209
858.20 73.03805
858.30 73.18088
858.40 73.33415
858.50 73.5388
858.60 73.80598
858.70 74.11835
858.80 74.42243
858.90 74.65848
859.00 74.77673
859.10 74.75306
859.20 74.6366
859.30 74.5194
859.40 74.4805
859.50 74.5741
859.60 74.81493
859.70 75.17753
859.80 75.60858
859.90 76.0511
860.00 76.45186
860.10 76.78054
860.20 77.03226
860.30 77.1973
860.40 77.26652
860.50 77.22346
860.60 77.0314
860.70 76.64119
860.80 75.98319
860.90 74.99892
861.00 73.69549
861.10 72.12565
861.20 70.35719
861.30 68.4791
861.40 66.61002
861.50 64.86661
861.60 63.34852
861.70 62.13153
861.80 61.24392
861.90 60.66609
862.00 60.31783
862.10 60.0887
862.20 59.90234
862.30 59.70054
862.40 59.4187
862.50 59.00827
862.60 58.45217
862.70 57.77822
862.80 57.05225
862.90 56.34864
863.00 55.73543
863.10 55.29325
863.20 55.10104
863.30 55.19923
863.40 55.58973
863.50 56.23078
863.60 57.02956
863.70 57.87033
863.80 58.64656
863.90 59.2899
864.00 59.78671
864.10 60.14203
864.20 60.35551
864.30 60.45289
864.40 60.48845
864.50 60.4966
864.60 60.49275
864.70 60.51475
864.80 60.63371
864.90 60.93621
865.00 61.48555
865.10 62.29439
865.20 63.32186
865.30 64.47498
865.40 65.64159
865.50 66.71848
865.60 67.62996
865.70 68.34627
865.80 68.86398
865.90 69.19696
866.00 69.36194
866.10 69.37814
866.20 69.2883
866.30 69.14361
866.40 68.9765
866.50 68.78202
866.60 68.50514
866.70 68.10909
866.80 67.59523
866.90 66.98807
867.00 66.3591
867.10 65.81274
867.20 65.47201
867.30 65.45742
867.40 65.86297
867.50 66.69831
867.60 67.84607
867.70 69.07581
867.80 70.12316
867.90 70.79525
868.00 71.03067
868.10 70.86561
868.20 70.41578
868.30 69.84935
868.40 69.31968
868.50 68.90923
868.60 68.6117
868.70 68.34191
868.80 67.95631
868.90 67.29741
869.00 66.22832
869.10 64.69232
869.20 62.73783
869.30 60.51153
869.40 58.24197
869.50 56.18061
869.60 54.52757
869.70 53.40489
869.80 52.85298
869.90 52.83561
870.00 53.24749
870.10 53.94274
870.20 54.77074
870.30 55.59765
870.40 56.32249
870.50 56.86144
870.60 57.15864
870.70 57.19407
870.80 56.96765
870.90 56.48913
871.00 55.77805
871.10 54.89967
871.20 53.972
871.30 53.12793
871.40 52.4826
871.50 52.1062
871.60 52.00221
871.70 52.12226
871.80 52.40929
871.90 52.81756
872.00 53.30621
872.10 53.85146
872.20 54.45399
872.30 55.14469
872.40 55.99743
872.50 57.07042
872.60 58.35067
872.70 59.74054
872.80 61.08113
872.90 62.20432
873.00 62.97601
873.10 63.31431
873.20 63.1953
873.30 62.6844
873.40 61.93779
873.50 61.15596
873.60 60.53651
873.70 60.22654
873.80 60.2859
873.90 60.71845
874.00 61.4972
874.10 62.56288
874.20 63.82183
874.30 65.12881
874.40 66.29627
874.50 67.15738
874.60 67.61768
874.70 67.66497
874.80 67.3851
874.90 66.93868
875.00 66.51975
875.10 66.30972
875.20 66.41733
875.30 66.85645
875.40 67.58857
875.50 68.57414
875.60 69.78385
875.70 71.17841
875.80 72.71351
875.90 74.25291
876.00 75.55373
876.10 76.39881
876.20 76.66375
876.30 76.32786
876.40 75.44036
876.50 74.15258
876.60 72.77983
876.70 71.7261
876.80 71.3221
876.90 71.75066
877.00 73.04158
877.10 75.11087
877.20 77.776
877.30 80.77117
877.40 83.74149
877.50 86.26993
877.60 87.95723
877.70 88.50824
877.80 87.84045
877.90 86.11931
878.00 83.69694
878.10 81.01771
878.20 78.57019
878.30 76.77637
878.40 75.86146
878.50 75.8149
878.60 76.43516
878.70 77.45744
878.80 78.67908
878.90 79.94671
879.00 81.10752
879.10 82.07771
879.20 82.90906
879.30 83.69933
879.40 84.49876
879.50 85.28963
879.60 85.93197
879.70 86.19972
879.80 85.88536
879.90 84.85416
880.00 83.09872
880.10 80.77928
880.20 78.18131
880.30 75.64432
880.40 73.51505
880.50 72.08192
880.60 71.51622
880.70 71.87864
880.80 73.11556
880.90 75.07799
881.00 77.61783
881.10 80.61259
881.20 83.93318
881.30 87.42839
881.40 90.89963
881.50 94.10288
881.60 96.77563
881.70 98.70134
881.80 99.76838
881.90 99.94146
882.00 99.27503
882.10 97.93544
882.20 96.14193
882.30 94.16886
882.40 92.28129
882.50 90.68301
882.60 89.52711
882.70 88.87783
882.80 88.70976
882.90 88.93621
883.00 89.47471
883.10 90.28635
883.20 91.34235
883.30 92.60763
883.40 94.02181
883.50 95.50237
883.60 97.01622
883.70 98.5464
883.80 100.0341
883.90 101.3517
884.00 102.2985
884.10 102.6519
884.20 102.2313
884.30 100.9362
884.40 98.77958
884.50 95.90513
884.60 92.6571
884.70 89.59498
884.80 87.33044
884.90 86.37615
885.00 86.97779
885.10 89.00066
885.20 91.98463
885.30 95.25344
885.40 98.0657
885.50 99.80861
885.60 100.109
885.70 98.87652
885.80 96.31341
885.90 92.86409
886.00 89.11372
886.10 85.66784
886.20 83.03987
886.30 81.4992
886.40 81.03556
886.50 81.42478
886.60 82.28241
886.70 83.11348
886.80 83.38852
886.90 82.71152
887.00 80.96127
887.10 78.31437
887.20 75.19568
887.30 72.21752
887.40 70.03131
887.50 69.09936
887.60 69.584
887.70 71.34016
887.80 73.95327
887.90 76.86341
888.00 79.52748
888.10 81.52594
888.20 82.60699
888.30 82.78014
888.40 82.3389
888.50 81.72441
888.60 81.31212
888.70 81.31648
888.80 81.7918
888.90 82.63213
889.00 83.58823
889.10 84.33052
889.20 84.55525
889.30 84.06034
889.40 82.8031
889.50 80.97787
889.60 79.04535
889.70 77.52947
889.80 76.83461
889.90 77.21332
890.00 78.76842
890.10 81.37757
890.20 84.6516
890.30 88.0595
890.40 91.05327
890.50 93.16751
890.60 94.11706
890.70 93.8509
890.80 92.5646
890.90 90.66558
891.00 88.646
891.10 86.95918
891.20 85.93489
891.30 85.75434
891.40 86.48719
891.50 88.09978
891.60 90.41164
891.70 93.13577
891.80 95.88926
891.90 98.23727
892.00 99.8118
892.10 100.3606
892.20 99.80596
892.30 98.26042
892.40 96.00639
892.50 93.44621
892.60 91.04292
892.70 89.26513
892.80 88.49056
892.90 88.9176
893.00 90.53365
893.10 93.06609
893.20 96.04988
893.30 98.93309
893.40 101.1542
893.50 102.2745
893.60 102.0411
893.70 100.4401
893.80 97.6983
893.90 94.17952
894.00 90.29707
894.10 86.49507
894.20 83.18496
894.30 80.65533
894.40 79.07013
894.50 78.48032
894.60 78.83104
894.70 79.9633
894.80 81.61725
894.90 83.49298
895.00 85.32121
895.10 86.91901
895.20 88.27177
895.30 89.58227
895.40 91.15616
895.50 93.18063
895.60 95.59058
895.70 98.14723
895.80 100.5157
895.90 102.288
896.00 103.1317
896.10 102.8957
896.20 101.6485
896.30 99.67497
896.40 97.39919
896.50 95.26582
896.60 93.62115
896.70 92.65191
896.80 92.37819
896.90 92.72028
897.00 93.58571
897.10 94.84208
897.20 96.33091
897.30 97.95318
897.40 99.62003
897.50 101.2354
897.60 102.6891
897.70 103.8414
897.80 104.5818
897.90 104.8976
898.00 104.9139
898.10 104.8685
898.20 105.0724
898.30 105.8162
898.40 107.2411
898.50 109.2667
898.60 111.5674
898.70 113.6228
898.80 114.9227
898.90 115.1839
899.00 114.3967
899.10 112.7772
899.20 110.6812
899.30 108.4745
899.40 106.4775
899.50 104.9406
899.60 103.948
899.70 103.3975
899.80 103.185
899.90 103.3656
900.00 101.6234
900.10 101.0925
900.20 103.0205
900.30 105.4524
900.40 111.1526
900.50 117.9147
900.60 118.4015
900.70 115.9221
900.80 113.7266
900.90 112.4149
901.00 109.174
901.10 105.7518
901.20 101.9339
901.30 103.5423
901.40 107.1452
901.50 110.089
901.60 111.695
901.70 114.5473
901.80 117.6808
901.90 120.126
902.00 118.703
902.10 116.2357
902.20 112.9347
902.30 109.0617
902.40 104.334
902.50 100.2614
902.60 96.80244
902.70 91.61764
902.80 86.67499
902.90 86.01685
903.00 88.16722
903.10 91.34342
903.20 95.64412
903.30 100.5296
903.40 109.3195
903.50 118.4818
903.60 123.638
903.70 126.584
903.80 129.1183
903.90 130.6688
904.00 130.5542
904.10 127.3498
904.20 123.5398
904.30 120.5848
904.40 118.0095
904.50 116.013
904.60 115.1709
904.70 115.6828
904.80 115.5956
904.90 116.094
905.00 114.8188
905.10 112.5366
905.20 109.9872
905.30 107.7846
905.40 104.6891
905.50 104.2079
905.60 104.3403
905.70 106.2738
905.80 108.8593
905.90 109.5844
906.00 108.2834
906.10 106.6069
906.20 103.4904
906.30 99.65163
906.40 99.53509
906.50 100.3478
906.60 102.1803
906.70 104.3273
906.80 106.4028
906.90 108.5647
907.00 110.543
907.10 106.7132
907.20 102.5892
907.30 103.5247
907.40 107.2639
907.50 111.704
907.60 116.2442
907.70 121.0986
907.80 125.8448
907.90 130.6514
908.00 130.9172
908.10 129.1944
908.20 127.1465
908.30 125.3972
908.40 123.2482
908.50 120.8625
908.60 118.2421
908.70 115.3911
908.80 112.7676
908.90 112.4178
909.00 114.0804
909.10 115.9432
909.20 117.8173
909.30 119.7015
909.40 121.4657
909.50 123.295
909.60 123.4818
909.70 122.3397
909.80 121.8986
909.90 122.2989
910.00 121.7773
910.10 121.6037
910.20 121.4784
910.30 121.2869
910.40 120.9858
910.50 120.0601
910.60 118.1932
910.70 116.6546
910.80 120.1265
910.90 122.9588
911.00 125.0968
911.10 127.4909
911.20 129.5643
911.30 129.6909
911.40 130.2805
911.50 126.834
911.60 123.1663
911.70 126.3663
911.80 131.519
911.90 134.7265
912.00 136.0716
912.10 137.9458
912.20 141.4348
912.30 145.2519
912.40 146.6652
912.50 146.8427
912.60 146.5656
912.70 146.5942
912.80 145.4249
912.90 141.0052
913.00 137.231
913.10 136.17
913.20 136.1344
913.30 137.7718
913.40 140.1241
913.50 141.919
913.60 142.4558
913.70 142.7281
913.80 140.042
913.90 135.9089
914.00 131.9038
914.10 128.3757
914.20 124.5319
914.30 120.5125
914.40 118.6226
914.50 121.3134
914.60 125.1021
914.70 127.6077
914.80 128.8422
914.90 129.787
915.00 131.7736
915.10 133.179
915.20 132.9946
915.30 133.2911
915.40 136.761
915.50 141.4227
915.60 147.4079
915.70 154.2717
915.80 160.4489
915.90 161.8289
916.00 162.0487
916.10 156.4526
916.20 149.3407
916.30 142.3274
916.40 135.9557
916.50 132.1103
916.60 135.741
916.70 140.4501
916.80 146.5612
916.90 153.0373
917.00 155.8286
917.10 156.1063
917.20 155.142
917.30 152.2425
917.40 148.7487
917.50 144.7817
917.60 140.0777
917.70 138.4512
917.80 138.8108
917.90 140.0803
918.00 141.4198
918.10 143.0496
918.20 144.3995
918.30 146.0481
918.40 145.6703
918.50 144.3366
918.60 144.2968
918.70 146.3886
918.80 149.1628
918.90 153.3232
919.00 158.9084
919.10 164.5294
919.20 169.7483
919.30 170.8916
919.40 168.2644
919.50 163.6581
919.60 158.5006
919.70 152.1567
919.80 151.2938
919.90 152.3023
920.00 155.5673
920.10 159.8354
920.20 163.8142
920.30 165.5984
920.40 167.2478
920.50 164.8149
920.60 161.1309
920.70 156.8814
920.80 152.3759
920.90 146.5769
921.00 139.828
921.10 134.1458
921.20 132.685
921.30 131.9504
921.40 134.301
921.50 138.0754
921.60 142.4954
921.70 146.8709
921.80 150.932
921.90 154.0251
922.00 156.8002
922.10 156.7927
922.20 155.6218
922.30 153.9866
922.40 152.5734
922.50 151.407
922.60 149.1701
922.70 147.3364
922.80 145.6093
922.90 143.6372
923.00 140.0111
923.10 135.12
923.20 131.1714
923.30 131.6954
923.40 132.5105
923.50 134.4515
923.60 136.9315
923.70 139.3613
923.80 141.4914
923.90 143.4909
924.00 145.6391
924.10 148.5696
924.20 153.556
924.30 159.2022
924.40 161.2054
924.50 161.4567
924.60 159.3506
924.70 153.9391
924.80 146.5115
924.90 141.4701
925.00 135.9039
925.10 132.6037
925.20 130.2952
925.30 130.5723
925.40 133.5309
925.50 137.9362
925.60 142.3842
925.70 147.3478
925.80 151.3253
925.90 155.2524
926.00 154.789
926.10 150.0889
926.20 145.198
926.30 144.5088
926.40 143.6182
926.50 147.0898
926.60 150.9648
926.70 153.9687
926.80 156.8101
926.90 158.2938
927.00 154.324
927.10 149.7135
927.20 146.3982
927.30 142.7379
927.40 140.3288
927.50 138.2564
927.60 135.2822
927.70 131.776
927.80 128.6069
927.90 125.2876
928.00 122.2791
928.10 121.8948
928.20 122.6536
928.30 125.5024
928.40 130.3195
928.50 134.6688
928.60 136.1167
928.70 137.0973
928.80 133.7472
928.90 129.2266
929.00 126.5972
929.10 126.1195
929.20 126.9015
929.30 129.8865
929.40 133.7641
929.50 135.1201
929.60 135.7818
929.70 136.0128
929.80 135.8984
929.90 135.8294
930.00 137.641
930.10 139.6767
930.20 137.7027
930.30 135.6212
930.40 133.2311
930.50 130.747
930.60 128.3592
930.70 126.261
930.80 124.4881
930.90 124.1553
931.00 124.5636
931.10 127.1309
931.20 130.2863
931.30 134.4293
931.40 140.6249
931.50 145.8895
931.60 145.6419
931.70 145.4929
931.80 144.9187
931.90 146.9079
932.00 149.1382
932.10 151.3099
932.20 151.4424
932.30 151.6412
932.40 149.4121
932.50 144.3254
932.60 139.4382
932.70 137.8021
932.80 137.1345
932.90 136.1479
933.00 137.8996
933.10 139.6186
933.20 139.9956
933.30 138.4123
933.40 136.6728
933.50 134.9068
933.60 133.2941
933.70 132.1392
933.80 132.6738
933.90 133.3867
934.00 134.9131
934.10 138.2801
934.20 141.6432
934.30 143.7601
934.40 144.3713
934.50 144.9991
934.60 145.9386
934.70 146.9817
934.80 147.7447
934.90 148.3271
935.00 148.8267
935.10 147.6028
935.20 144.9244
935.30 142.2498
935.40 138.2725
935.50 133.3469
935.60 129.1271
935.70 128.9326
935.80 129.2777
935.90 131.6528
936.00 138.2139
936.10 144.7457
936.20 150.1167
936.30 154.1042
936.40 157.8277
936.50 157.9975
936.60 156.8281
936.70 154.3633
936.80 150.0073
936.90 145.6528
937.00 142.1432
937.10 140.7378
937.20 139.4471
937.30 139.4831
937.40 140.3864
937.50 141.6962
937.60 142.5377
937.70 143.2425
937.80 143.4071
937.90 141.6506
938.00 139.9602
938.10 139.4416
938.20 140.204
938.30 140.9053
938.40 141.4988
938.50 142.0738
938.60 142.8507
938.70 141.5905
938.80 140.2883
938.90 139.9007
939.00 142.0496
939.10 144.3575
939.20 146.9413
939.30 149.485
939.40 151.8674
939.50 153.3667
939.60 154.7061
939.70 154.6179
939.80 150.1645
939.90 145.567
940.00 141.4453
940.10 139.0937
940.20 137.0274
940.30 138.1248
940.40 140.5596
940.50 144.1195
940.60 149.2183
940.70 154.3687
940.80 158.0795
940.90 157.2508
941.00 156.3067
941.10 155.6395
941.20 155.4356
941.30 154.5947
941.40 154.0959
941.50 153.7729
941.60 153.603
941.70 153.324
941.80 152.9878
941.90 151.3007
942.00 147.8353
942.10 144.6806
942.20 144.4262
942.30 145.4277
942.40 146.6908
942.50 146.9724
942.60 147.208
942.70 148.6751
942.80 153.4501
942.90 158.1606
943.00 162.4524
943.10 166.4842
943.20 170.3434
943.30 174.0028
943.40 177.64
943.50 180.7363
943.60 177.0875
943.70 173.2862
943.80 169.6196
943.90 167.3652
944.00 164.9751
944.10 162.7321
944.20 160.6469
944.30 158.7164
944.40 157.3752
944.50 156.0858
944.60 154.9749
944.70 153.0551
944.80 151.3548
944.90 151.6088
945.00 153.2923
945.10 154.9188
945.20 157.9964
945.30 161.4458
945.40 164.5252
945.50 165.3158
945.60 165.8875
945.70 164.7351
945.80 162.3451
945.90 160.2506
946.00 157.3854
946.10 153.9255
946.20 151.0298
946.30 150.4862
946.40 150.1194
946.50 151.3464
946.60 154.9854
946.70 158.3734
946.80 161.1838
946.90 163.929
947.00 166.2858
947.10 167.0832
947.20 167.532
947.30 168.0883
947.40 169.2468
947.50 170.4639
947.60 171.2973
947.70 171.0513
947.80 171.0068
947.90 170.6922
948.00 170.1146
948.10 169.188
948.20 169.3585
948.30 169.5985
948.40 170.6104
948.50 174.8674
948.60 179.0026
948.70 182.8432
948.80 186.628
948.90 190.9181
949.00 192.6685
949.10 193.7066
949.20 193.8032
949.30 189.4636
949.40 185.0763
949.50 181.6842
949.60 180.3111
949.70 179.016
949.80 178.7487
949.90 178.9912
950.00 179.5275
950.10 180.9207
950.20 182.3469
950.30 182.9746
950.40 181.7727
950.50 180.4996
950.60 180.9938
950.70 183.3132
950.80 186.3674
950.90 187.1679
951.00 187.3017
951.10 187.1308
951.20 188.2884
951.30 189.2843
951.40 188.1375
951.50 184.3785
951.60 180.2511
951.70 176.2886
951.80 172.6008
951.90 169.2431
952.00 167.8497
952.10 166.6421
952.20 168.125
952.30 175.2645
952.40 182.6866
952.50 190.2507
952.60 197.4821
952.70 204.5342
952.80 203.9414
952.90 201.578
953.00 198.1576
953.10 192.7783
953.20 187.2303
953.30 182.4376
953.40 179.799
953.50 177.3639
953.60 178.7137
953.70 181.8353
953.80 184.8301
953.90 183.8286
954.00 182.6976
954.10 182.0509
954.20 181.7913
954.30 181.5311
954.40 182.5861
954.50 184.8084
954.60 187.147
954.70 192.0105
954.80 197.4158
954.90 201.9919
955.00 202.7227
955.10 203.4165
955.20 202.6406
955.30 199.8272
955.40 197.5921
955.50 195.9541
955.60 194.3651
955.70 192.8597
955.80 192.4474
955.90 192.0425
956.00 191.6432
956.10 191.8589
956.20 191.7929
956.30 192.1198
956.40 193.1137
956.50 194.0118
956.60 194.4819
956.70 194.8787
956.80 195.401
956.90 195.6925
957.00 196.0582
957.10 196.4626
957.20 196.6343
957.30 196.7449
957.40 196.6782
957.50 196.5562
957.60 195.8773
957.70 193.6725
957.80 191.4593
957.90 189.4305
958.00 187.7809
958.10 186.369
958.20 185.4636
958.30 184.7027
958.40 184.2785
958.50 182.3376
958.60 180.1015
958.70 177.5231
958.80 175.5273
958.90 173.1407
959.00 169.3301
959.10 164.8412
959.20 160.6386
959.30 159.0809
959.40 158.4742
959.50 158.7589
959.60 159.2331
959.70 159.6271
959.80 159.9565
959.90 161.0488
960.00 161.7741
960.10 162.4074
960.20 163.2758
960.30 164.9055
960.40 166.0633
960.50 167.188
960.60 169.6563
960.70 170.8781
960.80 171.9672
960.90 171.5483
961.00 169.6151
961.10 166.9025
961.20 165.1351
961.30 163.8676
961.40 162.0522
961.50 163.8101
961.60 165.7219
961.70 168.5382
961.80 171.9685
961.90 175.8558
962.00 178.8139
962.10 180.8737
962.20 182.977
962.30 182.603
962.40 181.8736
962.50 180.0549
962.60 178.0532
962.70 176.044
962.80 174.6842
962.90 174.0427
963.00 173.3356
963.10 174.3414
963.20 175.8693
963.30 177.1043
963.40 174.8587
963.50 172.3413
963.60 168.2064
963.70 162.7574
963.80 157.1742
963.90 152.4684
964.00 148.326
964.10 144.8198
964.20 145.8413
964.30 147.3825
964.40 150.1821
964.50 151.3749
964.60 152.8856
964.70 155.7955
964.80 159.5917
964.90 162.7346
965.00 163.6828
965.10 164.1557
965.20 163.8338
965.30 163.5386
965.40 163.1695
965.50 162.9198
965.60 163.1912
965.70 163.6657
965.80 166.975
965.90 171.6019
966.00 176.8355
966.10 178.1951
966.20 179.4672
966.30 181.1841
966.40 182.7899
966.50 184.1802
966.60 185.1513
966.70 186.0086
966.80 186.1029
966.90 187.0076
967.00 188.1431
967.10 188.9978
967.20 185.2522
967.30 181.4247
967.40 178.0989
967.50 175.7179
967.60 173.1399
967.70 173.129
967.80 174.2204
967.90 175.2871
968.00 177.0023
968.10 178.9005
968.20 181.1271
968.30 182.248
968.40 183.2022
968.50 182.4797
968.60 180.6741
968.70 178.7632
968.80 178.1112
968.90 177.6595
969.00 177.5798
969.10 178.8371
969.20 180.288
969.30 182.588
969.40 185.4862
969.50 188.5184
969.60 190.6016
969.70 192.326
969.80 193.7244
969.90 194.222
970.00 194.5578
970.10 193.9164
970.20 192.3892
970.30 190.6668
970.40 188.2672
970.50 185.5629
970.60 182.5307
970.70 181.9025
970.80 181.5942
970.90 182.6259
971.00 186.6062
971.10 191.115
971.20 196.2258
971.30 201.1381
971.40 206.5187
971.50 208.6628
971.60 209.8906
971.70 210.0477
971.80 207.6894
971.90 205.0769
972.00 202.7755
972.10 202.1172
972.20 200.9806
972.30 200.5694
972.40 200.7177
972.50 200.9117
972.60 198.8223
972.70 196.6556
972.80 194.5095
972.90 191.7416
973.00 188.9508
973.10 187.2758
973.20 186.5754
973.30 186.482
973.40 186.8357
973.50 187.2478
973.60 187.8505
973.70 188.0084
973.80 188.1392
973.90 188.5203
974.00 189.3231
974.10 189.3502
974.20 188.2184
974.30 186.8075
974.40 185.6471
974.50 184.639
974.60 183.6704
974.70 183.0392
974.80 182.8693
974.90 183.1616
975.00 184.9443
975.10 187.4418
975.20 190.1983
975.30 191.9057
975.40 193.428
975.50 194.6304
975.60 195.9096
975.70 197.2381
975.80 198.3321
975.90 199.0562
976.00 199.2215
976.10 199.8023
976.20 200.5973
976.30 201.8176
976.40 202.3317
976.50 202.8545
976.60 203.2762
976.70 203.4536
976.80 203.537
976.90 202.7905
977.00 201.6188
977.10 199.4637
977.20 198.5093
977.30 197.7672
977.40 198.0109
977.50 199.5615
977.60 201.4966
977.70 202.7539
977.80 202.934
977.90 203.0916
978.00 201.9571
978.10 200.487
978.20 197.8894
978.30 195.1586
978.40 192.3436
978.50 190.1843
978.60 189.2765
978.70 188.5968
978.80 188.6588
978.90 188.9911
979.00 190.0155
979.10 194.2606
979.20 198.7648
979.30 203.5262
979.40 207.0645
979.50 210.6333
979.60 212.7736
979.70 213.8134
979.80 214.5608
979.90 214.6788
980.00 214.6397
980.10 213.9102
980.20 213.1295
980.30 212.3627
980.40 211.8496
980.50 211.6187
980.60 210.8558
980.70 209.408
980.80 207.8152
980.90 206.6123
981.00 205.9779
981.10 205.3958
981.20 204.4945
981.30 202.6578
981.40 200.9002
981.50 201.5597
981.60 203.6024
981.70 205.2388
981.80 205.982
981.90 206.6711
982.00 207.309
982.10 207.4083
982.20 207.4606
982.30 207.3883
982.40 207.2515
982.50 207.4973
982.60 208.4318
982.70 209.5282
982.80 210.9078
982.90 209.8352
983.00 208.6418
983.10 207.1963
983.20 205.7395
983.30 203.735
983.40 202.5385
983.50 201.8495
983.60 200.9928
983.70 201.257
983.80 201.7096
983.90 202.984
984.00 204.8636
984.10 206.9612
984.20 208.6025
984.30 209.7478
984.40 210.4971
984.50 208.3433
984.60 205.8046
984.70 203.2985
984.80 199.4759
984.90 195.4727
985.00 193.2418
985.10 193.4098
985.20 193.4171
985.30 195.3921
985.40 198.046
985.50 200.7606
985.60 202.4791
985.70 204.46
985.80 206.2934
985.90 206.593
986.00 206.8574
986.10 207.9725
986.20 209.58
986.30 211.0129
986.40 211.8109
986.50 212.5299
986.60 212.6483
986.70 211.2601
986.80 209.303
986.90 208.2704
987.00 208.6836
987.10 209.8105
987.20 213.4094
987.30 217.5814
987.40 222.2645
987.50 222.784
987.60 223.2873
987.70 222.13
987.80 218.6241
987.90 213.6562
988.00 210.8773
988.10 209.3
988.20 208.182
988.30 212.0284
988.40 216.2243
988.50 220.5776
988.60 222.8515
988.70 225.351
988.80 226.0385
988.90 225.3386
989.00 223.7536
989.10 219.1556
989.20 214.0227
989.30 207.0028
989.40 196.5188
989.50 185.2104
989.60 172.7913
989.70 160.3058
989.80 147.4307
989.90 137.904
990.00 129.4038
990.10 122.3804
990.20 117.1176
990.30 112.1176
990.40 107.1251
990.50 101.2368
990.60 95.20405
990.70 90.98621
990.80 87.74894
990.90 85.02582
991.00 85.12904
991.10 85.58665
991.20 86.19913
991.30 84.84588
991.40 83.4364
991.50 82.39676
991.60 81.70392
991.70 81.1412
991.80 81.43669
991.90 81.94702
992.00 83.01546
992.10 84.09285
992.20 85.2115
992.30 85.59402
992.40 84.96406
992.50 83.76822
992.60 85.52932
992.70 88.41455
992.80 91.62919
992.90 95.5416
993.00 99.70802
993.10 103.6053
993.20 105.7529
993.30 107.8218
993.40 109.2862
993.50 110.4262
993.60 111.437
993.70 114.7972
993.80 118.4318
993.90 122.6316
994.00 127.381
994.10 132.0057
994.20 135.3542
994.30 137.6445
994.40 139.0773
994.50 139.4016
994.60 139.5554
994.70 140.0485
994.80 141.1557
994.90 142.4773
995.00 144.7859
995.10 148.011
995.20 151.5409
995.30 153.0762
995.40 153.7383
995.50 152.9623
995.60 149.1287
995.70 145.1219
995.80 141.0443
995.90 137.8943
996.00 134.6135
996.10 135.1456
996.20 138.2852
996.30 143.6169
996.40 149.4046
996.50 155.3281
996.60 160.2385
996.70 158.3011
996.80 155.2868
996.90 149.3289
997.00 141.5713
997.10 131.54
997.20 124.6446
997.30 118.8209
997.40 114.3054
997.50 115.5545
997.60 117.7471
997.70 121.2451
997.80 124.1358
997.90 127.8713
998.00 130.6552
998.10 132.7864
998.20 134.2171
998.30 132.3412
998.40 130.1091
998.50 127.4674
998.60 125.889
998.70 124.3492
998.80 123.3127
998.90 122.6177
999.00 121.9601
999.10 122.3971
999.20 123.032
999.30 123.4495
999.40 121.8346
999.50 119.98
999.60 120.1144
999.70 122.8221
999.80 126.1523
999.90 131.3653
1000.00 137.1188
1000.10 143.5837
1000.20 149.3822
1000.30 155.5712
1000.40 160.1054
1000.50 160.4091
1000.60 159.7837
1000.70 157.4801
1000.80 154.5696
1000.90 149.4287
1001.00 145.1114
1001.10 140.8181
1001.20 137.7091
1001.30 138.1073
1001.40 139.5564
1001.50 142.4076
1001.60 145.6572
1001.70 149.9653
1001.80 152.8199
1001.90 155.2548
1002.00 156.6476
1002.10 157.3642
1002.20 157.9566
1002.30 159.0235
1002.40 160.8637
1002.50 163.1199
1002.60 165.0745
1002.70 166.8638
1002.80 168.0937
1002.90 166.0179
1003.00 163.654
1003.10 160.8904
1003.20 158.4234
1003.30 155.5293
1003.40 152.5688
1003.50 149.7019
1003.60 146.907
1003.70 146.9957
1003.80 147.3181
1003.90 148.2817
1004.00 150.3881
1004.10 153.6575
1004.20 159.1859
1004.30 165.7948
1004.40 173.0474
1004.50 175.6941
1004.60 177.2294
1004.70 176.7117
1004.80 171.5364
1004.90 165.1629
1005.00 156.1027
1005.10 145.5639
1005.20 134.0701
1005.30 126.5555
1005.40 120.5929
1005.50 115.7319
1005.60 114.085
1005.70 113.2686
1005.80 114.5826
1005.90 116.7588
1006.00 119.77
1006.10 122.8944
1006.20 125.8067
1006.30 128.005
1006.40 133.2084
1006.50 138.6442
1006.60 144.107
1006.70 149.2621
1006.80 154.8376
1006.90 158.9561
1007.00 161.5158
1007.10 163.3307
1007.20 163.5432
1007.30 163.3272
1007.40 162.5139
1007.50 164.2975
1007.60 166.3446
1007.70 169.9723
1007.80 175.1673
1007.90 180.8927
1008.00 184.4043
1008.10 187.0573
1008.20 189.2949
1008.30 188.3608
1008.40 187.4986
1008.50 186.3002
1008.60 184.1786
1008.70 181.4903
1008.80 178.6301
1008.90 175.8523
1009.00 171.6074
1009.10 168.8851
1009.20 166.2444
1009.30 164.2953
1009.40 165.0866
1009.50 166.945
1009.60 172.3772
1009.70 180.1725
1009.80 189.7074
1009.90 197.3842
1010.00 204.7435
1010.10 212.4455
1010.20 217.061
1010.30 220.9525
1010.40 221.326
1010.50 218.2573
1010.60 213.0432
1010.70 206.8305
1010.80 200.4771
1010.90 192.8991
1011.00 184.6353
1011.10 176.5141
1011.20 169.3289
1011.30 163.4236
1011.40 157.9214
1011.50 154.1353
1011.60 151.1872
1011.70 148.603
1011.80 151.1649
1011.90 154.4559
1012.00 159.8618
1012.10 167.9325
1012.20 177.0712
1012.30 185.196
1012.40 191.7128
1012.50 198.2579
1012.60 201.4923
1012.70 203.8538
1012.80 204.6741
1012.90 204.4311
1013.00 203.7115
1013.10 200.5213
1013.20 194.9279
1013.30 188.4051
1013.40 179.8128
1013.50 170.5243
1013.60 159.9761
1013.70 154.7506
1013.80 149.733
1013.90 147.9115
1014.00 151.5443
1014.10 157.1124
1014.20 161.7533
1014.30 165.2863
1014.40 170.0384
1014.50 170.1617
1014.60 169.5765
1014.70 168.6915
1014.80 170.5499
1014.90 172.3472
1015.00 175.6146
1015.10 180.1752
1015.20 185.4648
1015.30 185.9286
1015.40 185.4061
1015.50 183.6862
1015.60 178.5633
1015.70 172.4432
1015.80 166.6444
1015.90 162.6688
1016.00 159.0319
1016.10 159.7207
1016.20 161.9276
1016.30 165.5411
1016.40 168.1146
1016.50 171.0795
1016.60 173.9743
1016.70 175.5016
1016.80 176.5981
1016.90 176.7513
1017.00 176.5109
1017.10 175.0236
1017.20 179.6468
1017.30 184.9343
1017.40 190.433
1017.50 194.0411
1017.60 198.5077
1017.70 199.5847
1017.80 197.51
1017.90 193.781
1018.00 187.4532
1018.10 180.2412
1018.20 171.4738
1018.30 166.4466
1018.40 161.4679
1018.50 158.6462
1018.60 158.2952
1018.70 159.8004
1018.80 162.345
1018.90 165.2081
1019.00 169.4188
1019.10 171.9155
1019.20 174.3972
1019.30 176.1861
1019.40 176.8353
1019.50 176.4645
1019.60 176.378
1019.70 176.6572
1019.80 176.3595
1019.90 177.3427
1020.00 178.6558
1020.10 180.8062
1020.20 183.3887
1020.30 186.1219
1020.40 189.0803
1020.50 192.1327
1020.60 195.5734
1020.70 195.2694
1020.80 194.3369
1020.90 192.589
1021.00 189.043
1021.10 184.8806
1021.20 179.7924
1021.30 174.3427
1021.40 167.6724
1021.50 161.8019
1021.60 156.2957
1021.70 151.3808
1021.80 147.888
1021.90 144.6033
1022.00 143.4346
1022.10 145.1263
1022.20 147.9704
1022.30 152.1464
1022.40 156.7413
1022.50 162.4181
1022.60 166.4813
1022.70 170.5545
1022.80 173.6132
1022.90 174.05
1023.00 173.3162
1023.10 171.8266
1023.20 170.2917
1023.30 168.3161
1023.40 169.9873
1023.50 172.4051
1023.60 176.3014
1023.70 181.5902
1023.80 187.126
1023.90 192.4432
1024.00 197.3314
1024.10 202.3761
1024.20 203.2851
1024.30 203.0813
1024.40 201.9015
1024.50 199.5708
1024.60 196.8408
1024.70 192.9174
1024.80 187.9792
1024.90 182.3606
1025.00 178.2471
1025.10 174.8351
1025.20 171.3503
1025.30 169.7855
1025.40 168.5789
1025.50 168.2139
1025.60 168.2834
1025.70 168.5318
1025.80 165.8898
1025.90 161.42
1026.00 156.0867
1026.10 150.5977
1026.20 144.8291
1026.30 140.202
1026.40 141.8473
1026.50 144.853
1026.60 150.4874
1026.70 157.543
1026.80 166.9439
1026.90 173.3082
1027.00 178.9106
1027.10 183.1595
1027.20 182.3614
1027.30 180.3606
1027.40 177.6828
1027.50 175.8018
1027.60 172.8802
1027.70 168.9024
1027.80 164.6764
1027.90 160.6628
1028.00 155.7232
1028.10 150.8708
1028.20 147.3574
1028.30 146.0777
1028.40 145.2296
1028.50 148.3377
1028.60 153.4764
1028.70 160.5061
1028.80 166.5939
1028.90 172.8592
1029.00 178.2535
1029.10 179.7291
1029.20 180.1943
1029.30 179.6721
1029.40 178.8818
1029.50 176.7824
1029.60 175.0933
1029.70 173.5713
1029.80 172.4067
1029.90 171.493
1030.00 170.6897
1030.10 170.7009
1030.20 171.5159
1030.30 172.6943
1030.40 175.0691
1030.50 177.8964
1030.60 181.4718
1030.70 183.0625
1030.80 184.5073
1030.90 185.4414
1031.00 185.8796
1031.10 185.5915
1031.20 184.5644
1031.30 183.3229
1031.40 182.1497
1031.50 180.8395
1031.60 179.3787
1031.70 177.7097
1031.80 176.2019
1031.90 174.3878
1032.00 172.2642
1032.10 170.0441
1032.20 167.8356
1032.30 166.7445
1032.40 166.0388
1032.50 167.1359
1032.60 172.2164
1032.70 177.6723
1032.80 184.8346
1032.90 193.353
1033.00 203.7142
1033.10 209.4978
1033.20 214.0679
1033.30 216.9089
1033.40 212.3754
1033.50 206.2313
1033.60 198.4156
1033.70 190.7012
1033.80 181.259
1033.90 175.5409
1034.00 171.593
1034.10 169.9266
1034.20 172.4956
1034.30 175.9516
1034.40 180.1842
1034.50 183.2311
1034.60 186.6402
1034.70 187.6612
1034.80 187.2517
1034.90 185.2072
1035.00 182.6509
1035.10 179.8158
1035.20 177.1464
1035.30 176.656
1035.40 176.4054
1035.50 178.1067
1035.60 181.221
1035.70 185.3308
1035.80 189.6096
1035.90 194.0852
1036.00 198.9581
1036.10 202.5018
1036.20 206.1487
1036.30 209.3244
1036.40 211.8657
1036.50 213.9322
1036.60 215.7535
1036.70 217.3533
1036.80 218.1239
1036.90 221.8807
1037.00 226.0544
1037.10 230.1085
1037.20 233.1016
1037.30 236.768
1037.40 235.9418
1037.50 232.9037
1037.60 228.1062
1037.70 217.9948
1037.80 206.5829
1037.90 194.7667
1038.00 187.1789
1038.10 179.7034
1038.20 176.7125
1038.30 176.6746
1038.40 179.9393
1038.50 182.5623
1038.60 185.6848
1038.70 189.3815
1038.80 189.6948
1038.90 189.2388
1039.00 188.3694
1039.10 187.6329
1039.20 185.7176
1039.30 186.1505
1039.40 187.1604
1039.50 188.4413
1039.60 190.6902
1039.70 193.4463
1039.80 196.2925
1039.90 198.5854
1040.00 201.1602
1040.10 203.813
1040.20 206.5002
1040.30 209.4498
1040.40 212.5283
1040.50 215.5057
1040.60 218.1638
1040.70 220.4881
1040.80 222.3782
1040.90 220.6331
1041.00 216.9787
1041.10 211.9414
1041.20 206.4346
1041.30 200.7902
1041.40 196.3839
1041.50 196.1844
1041.60 197.1195
1041.70 200.9064
1041.80 206.3633
1041.90 213.7551
1042.00 215.708
1042.10 216.418
1042.20 214.9498
1042.30 209.1855
1042.40 202.1214
1042.50 194.2775
1042.60 186.6952
1042.70 177.6057
1042.80 175.5108
1042.90 175.7005
1043.00 178.0326
1043.10 183.82
1043.20 191.2112
1043.30 200.1514
1043.40 208.8092
1043.50 218.9081
1043.60 225.3382
1043.70 229.8832
1043.80 232.1902
1043.90 233.6747
1044.00 234.4436
1044.10 233.7998
1044.20 232.5329
1044.30 231.3484
1044.40 230.269
1044.50 229.2309
1044.60 228.0355
1044.70 228.5002
1044.80 229.1182
1044.90 230.9011
1045.00 236.1726
1045.10 242.7557
1045.20 249.749
1045.30 256.4072
1045.40 264.2263
1045.50 265.5011
1045.60 265.1644
1045.70 262.6952
1045.80 256.5136
1045.90 248.4472
1046.00 239.925
1046.10 232.7524
1046.20 224.8719
1046.30 217.6061
1046.40 210.7192
1046.50 204.6042
1046.60 197.7971
1046.70 191.3825
1046.80 186.6003
1046.90 183.73
1047.00 180.9515
1047.10 180.9547
1047.20 182.3275
1047.30 184.6778
1047.40 185.7732
1047.50 187.217
1047.60 188.7361
1047.70 189.0553
1047.80 189.3497
1047.90 190.9375
1048.00 193.395
1048.10 195.5235
1048.20 200.3803
1048.30 205.7825
1048.40 211.5077
1048.50 216.0317
1048.60 220.4897
1048.70 223.5969
1048.80 225.4963
1048.90 226.7927
1049.00 227.3475
1049.10 227.7076
1049.20 227.477
1049.30 224.5965
1049.40 221.6801
1049.50 218.4323
1049.60 214.8032
1049.70 210.1725
1049.80 209.2229
1049.90 209.5807
1050.00 210.19
1050.10 213.617
1050.20 217.6128
1050.30 220.9115
1050.40 221.7348
1050.50 222.3149
1050.60 220.3733
1050.70 217.2008
1050.80 213.6121
1050.90 209.0618
1051.00 204.3627
1051.10 199.4922
1051.20 194.7024
1051.30 189.5016
1051.40 185.549
1051.50 182.5982
1051.60 179.6404
1051.70 178.2449
1051.80 177.3021
1051.90 177.473
1052.00 179.5572
1052.10 182.1222
1052.20 185.7152
1052.30 189.9878
1052.40 194.6923
1052.50 200.2057
1052.60 206.2576
1052.70 213.1795
1052.80 217.1555
1052.90 220.6025
1053.00 222.7817
1053.10 223.9278
1053.20 223.6583
1053.30 223.2112
1053.40 222.7516
1053.50 221.9324
1053.60 220.4455
1053.70 219.1396
1053.80 218.3118
1053.90 217.9611
1054.00 217.5715
1054.10 216.7553
1054.20 215.7475
1054.30 215.0751
1054.40 211.9311
1054.50 208.5184
1054.60 204.8601
1054.70 201.3012
1054.80 197.0547
1054.90 195.6274
1055.00 196.476
1055.10 198.4198
1055.20 200.8077
1055.30 203.6553
1055.40 206.3155
1055.50 203.9774
1055.60 200.7778
1055.70 195.9898
1055.80 190.1876
1055.90 182.8685
1056.00 178.7252
1056.10 175.5588
1056.20 173.2333
1056.30 173.5357
1056.40 174.4584
1056.50 176.1865
1056.60 178.2359
1056.70 180.9214
1056.80 182.6032
1056.90 183.8465
1057.00 184.9603
1057.10 185.7843
1057.20 186.7382
1057.30 188.3776
1057.40 191.0397
1057.50 193.6582
1057.60 195.9345
1057.70 198.0243
1057.80 199.9851
1057.90 201.2824
1058.00 202.4646
1058.10 202.9716
1058.20 201.9795
1058.30 200.8394
1058.40 199.9885
1058.50 199.4084
1058.60 197.6731
1058.70 195.6028
1058.80 193.4156
1058.90 191.377
1059.00 190.6955
1059.10 190.2544
1059.20 189.8253
1059.30 189.2542
1059.40 190.0835
1059.50 191.2476
1059.60 192.4731
1059.70 193.5844
1059.80 193.414
1059.90 192.9338
1060.00 191.9394
1060.10 190.6141
1060.20 188.7041
1060.30 186.59
1060.40 184.4536
1060.50 182.3978
1060.60 180.7464
1060.70 179.1097
1060.80 178.1157
1060.90 178.3357
1061.00 178.4022
1061.10 179.5037
1061.20 181.3028
1061.30 184.6359
1061.40 186.3394
1061.50 188.1159
1061.60 189.9883
1061.70 191.4983
1061.80 192.1553
1061.90 192.499
1062.00 192.8955
1062.10 191.914
1062.20 193.0242
1062.30 194.6777
1062.40 197.017
1062.50 199.8302
1062.60 203.967
1062.70 208.3598
1062.80 212.1975
1062.90 216.6856
1063.00 218.4926
1063.10 219.1541
1063.20 218.3659
1063.30 218.7903
1063.40 218.4762
1063.50 218.556
1063.60 220.0482
1063.70 222.038
1063.80 223.8431
1063.90 225.8443
1064.00 229.2972
1064.10 230.1819
1064.20 230.6826
1064.30 230.5595
1064.40 230.082
1064.50 229.1721
1064.60 228.8986
1064.70 228.9782
1064.80 228.6786
1064.90 227.6098
1065.00 226.7777
1065.10 225.3709
1065.20 221.3211
1065.30 216.3724
1065.40 211.1874
1065.50 206.0816
1065.60 200.2029
1065.70 198.3006
1065.80 196.9778
1065.90 195.5003
1066.00 192.6883
1066.10 190.7276
1066.20 188.562
1066.30 185.7397
1066.40 182.8512
1066.50 181.4575
1066.60 180.3044
1066.70 179.2149
1066.80 181.0351
1066.90 182.6792
1067.00 183.5769
1067.10 183.6683
1067.20 184.8124
1067.30 188.3392
1067.40 192.9007
1067.50 198.5849
1067.60 203.7095
1067.70 209.0655
1067.80 214.3096
1067.90 218.9267
1068.00 222.6106
1068.10 225.6057
1068.20 228.3543
1068.30 230.923
1068.40 232.9636
1068.50 235.0874
1068.60 236.9572
1068.70 237.8397
1068.80 238.2312
1068.90 237.5389
1069.00 236.1845
1069.10 233.9877
1069.20 231.5962
1069.30 228.994
1069.40 225.4238
1069.50 219.5332
1069.60 213.6486
1069.70 209.5929
1069.80 207.2225
1069.90 205.7323
1070.00 206.2617
1070.10 207.2477
1070.20 208.3983
1070.30 209.7935
1070.40 211.1488
1070.50 211.163
1070.60 209.5719
1070.70 208.4737
1070.80 209.3837
1070.90 210.9691
1071.00 212.8681
1071.10 216.2353
1071.20 219.2848
1071.30 221.8775
1071.40 224.192
1071.50 226.8216
1071.60 228.9043
1071.70 230.7683
1071.80 233.0553
1071.90 233.7001
1072.00 233.9776
1072.10 233.544
1072.20 232.4511
1072.30 230.4433
1072.40 228.6183
1072.50 227.1111
1072.60 225.8169
1072.70 226.6285
1072.80 227.945
1072.90 229.3259
1073.00 229.1643
1073.10 229.5069
1073.20 230.2701
1073.30 231.1985
1073.40 231.0508
1073.50 230.9051
1073.60 230.7506
1073.70 230.8263
1073.80 232.2156
1073.90 234.3907
1074.00 236.4804
1074.10 237.9305
1074.20 239.8597
1074.30 242.9815
1074.40 246.2167
1074.50 248.7108
1074.60 250.4392
1074.70 252.0017
1074.80 252.094
1074.90 250.0992
1075.00 247.5676
1075.10 242.9072
1075.20 237.1271
1075.30 230.1908
1075.40 227.1087
1075.50 224.1175
1075.60 223.0115
1075.70 225.7017
1075.80 230.2601
1075.90 233.8582
1076.00 236.6673
1076.10 240.0759
1076.20 239.7163
1076.30 238.813
1076.40 237.9667
1076.50 238.6003
1076.60 238.5745
1076.70 239.426
1076.80 241.1845
1076.90 243.4649
1077.00 244.9531
1077.10 246.2104
1077.20 246.7289
1077.30 244.8765
1077.40 242.7758
1077.50 241.3854
1077.60 240.8732
1077.70 239.8985
1077.80 240.1913
1077.90 241.1054
1078.00 242.7706
1078.10 243.9536
1078.20 245.3553
1078.30 245.737
1078.40 244.4911
1078.50 242.7044
1078.60 240.2593
1078.70 237.4009
1078.80 233.7385
1078.90 229.4637
1079.00 225.1214
1079.10 220.7289
1079.20 216.3636
1079.30 211.851
1079.40 209.8083
1079.50 209.1552
1079.60 209.1192
1079.70 211.7191
1079.80 214.8717
1079.90 218.2425
1080.00 220.694
1080.10 223.5602
1080.20 225.6916
1080.30 227.2321
1080.40 228.9153
1080.50 232.144
1080.60 235.4677
1080.70 238.3551
1080.80 240.0719
1080.90 241.4223
1081.00 242.6653
1081.10 243.961
1081.20 244.8301
1081.30 246.1532
1081.40 247.7896
1081.50 250.1689
1081.60 254.1002
1081.70 258.1198
1081.80 260.0368
1081.90 259.3175
1082.00 257.6253
1082.10 254.6456
1082.20 251.0488
1082.30 246.7403
1082.40 242.8099
1082.50 238.809
1082.60 236.6093
1082.70 237.4425
1082.80 238.9922
1082.90 241.4626
1083.00 244.5187
1083.10 248.5774
1083.20 252.5384
1083.30 257.0628
1083.40 261.3379
1083.50 263.7523
1083.60 265.4911
1083.70 265.5777
1083.80 264.6428
1083.90 262.7976
1084.00 261.6196
1084.10 260.0931
1084.20 257.3989
1084.30 252.7513
1084.40 248.0211
1084.50 244.9021
1084.60 243.1078
1084.70 240.8678
1084.80 239.1101
1084.90 237.8829
1085.00 237.8162
1085.10 239.4905
1085.20 241.3801
1085.30 242.0328
1085.40 241.2307
1085.50 240.539
1085.60 243.0066
1085.70 246.3538
1085.80 249.8487
1085.90 253.7851
1086.00 258.5489
1086.10 263.0886
1086.20 266.5118
1086.30 269.8606
1086.40 270.314
1086.50 269.2255
1086.60 266.7766
1086.70 267.3059
1086.80 267.571
1086.90 267.6346
1087.00 267.759
1087.10 269.0125
1087.20 269.519
1087.30 269.4914
1087.40 269.2191
1087.50 266.8935
1087.60 263.8403
1087.70 260.4124
1087.80 257.9465
1087.90 255.9626
1088.00 255.0402
1088.10 254.8287
1088.20 255.3036
1088.30 255.6997
1088.40 256.0763
1088.50 256.5092
1088.60 257.2139
1088.70 257.5331
1088.80 256.5888
1088.90 254.6268
1089.00 252.7672
1089.10 251.588
1089.20 250.2274
1089.30 248.727
1089.40 250.1926
1089.50 252.3574
1089.60 255.1094
1089.70 258.1188
1089.80 263.318
1089.90 269.1898
1090.00 275.1726
1090.10 280.7007
1090.20 282.7957
1090.30 283.9832
1090.40 283.0533
1090.50 279.7977
1090.60 275.1173
1090.70 268.2781
1090.80 260.5723
1090.90 252.8958
1091.00 251.6068
1091.10 250.2489
1091.20 250.4006
1091.30 253.8948
1091.40 258.9657
1091.50 264.2316
1091.60 269.6214
1091.70 276.2348
1091.80 278.3637
1091.90 279.83
1092.00 280.3117
1092.10 279.1648
1092.20 276.8553
1092.30 273.8801
1092.40 270.6094
1092.50 266.8168
1092.60 264.1904
1092.70 261.9767
1092.80 260.5939
1092.90 261.2966
1093.00 262.2826
1093.10 263.7262
1093.20 265.5045
1093.30 267.1988
1093.40 267.2552
1093.50 266.7038
1093.60 265.7384
1093.70 265.0637
1093.80 264.6769
1093.90 264.5816
1094.00 264.6581
1094.10 266.0021
1094.20 265.9324
1094.30 264.9214
1094.40 262.6529
1094.50 259.2623
1094.60 255.1771
1094.70 253.0821
1094.80 255.4195
1094.90 258.6029
1095.00 264.2802
1095.10 271.8497
1095.20 282.2809
1095.30 288.5911
1095.40 294.6397
1095.50 298.738
1095.60 298.6834
1095.70 297.0075
1095.80 295.1125
1095.90 293.0598
1096.00 289.5955
1096.10 289.6153
1096.20 290.3093
1096.30 291.1155
1096.40 290.778
1096.50 291.0545
1096.60 288.4005
1096.70 282.9784
1096.80 276.1417
1096.90 269.3036
1097.00 261.8651
1097.10 254.2969
1097.20 250.9768
1097.30 248.3711
1097.40 248.4547
1097.50 251.2494
1097.60 256.3945
1097.70 260.6998
1097.80 265.0984
1097.90 269.8361
1098.00 271.5748
1098.10 272.6652
1098.20 271.9593
1098.30 269.1933
1098.40 265.3272
1098.50 262.6829
1098.60 260.4031
1098.70 257.8526
1098.80 258.8082
1098.90 260.0997
1099.00 262.5201
1099.10 266.6399
1099.20 271.6324
1099.30 274.9238
1099.40 277.2313
1099.50 279.4991
1099.60 281.0535
1099.70 282.5871
1099.80 283.5014
1099.90 282.8202
1100.00 281.5329
1100.10 280.1174
1100.20 278.6198
1100.30 276.5971
1100.40 274.1303
1100.50 271.5122
1100.60 269.0419
1100.70 267.5967
1100.80 266.5539
1100.90 266.0371
1101.00 265.961
1101.10 266.7182
1101.20 267.4856
1101.30 268.3548
1101.40 269.2736
1101.50 269.5882
1101.60 269.7519
1101.70 269.3288
1101.80 268.2798
1101.90 265.9141
1102.00 262.2436
1102.10 258.0061
1102.20 253.8435
1102.30 254.679
1102.40 255.8493
1102.50 257.7352
1102.60 260.4458
1102.70 265.0258
1102.80 267.4138
1102.90 268.9281
1103.00 270.5135
1103.10 266.9546
1103.20 262.1061
1103.30 257.05
1103.40 253.4683
1103.50 248.2456
1103.60 244.9276
1103.70 243.1742
1103.80 242.9376
1103.90 244.7819
1104.00 247.5824
1104.10 251.0053
1104.20 253.9757
1104.30 256.8299
1104.40 259.0129
1104.50 260.7207
1104.60 262.3894
1104.70 262.2066
1104.80 261.9599
1104.90 261.592
1105.00 259.9335
1105.10 256.8705
1105.20 252.1683
1105.30 246.1592
1105.40 238.596
1105.50 234.8346
1105.60 232.1677
1105.70 230.3401
1105.80 231.1702
1105.90 233.5264
1106.00 236.1805
1106.10 238.4479
1106.20 241.2487
1106.30 242.2702
1106.40 242.7559
1106.50 243.0948
1106.60 240.7788
1106.70 237.6442
1106.80 235.3734
1106.90 235.2313
1107.00 234.2331
1107.10 234.4562
1107.20 235.5147
1107.30 237.3698
1107.40 238.7359
1107.50 240.4583
1107.60 241.2903
1107.70 239.7035
1107.80 238.7268
1107.90 240.7456
1108.00 244.316
1108.10 247.2547
1108.20 251.7788
1108.30 257.1299
1108.40 262.4514
1108.50 265.7813
1108.60 268.0936
1108.70 268.6153
1108.80 267.8229
1108.90 266.4106
1109.00 265.4464
1109.10 264.2464
1109.20 263.477
1109.30 265.9707
1109.40 269.353
1109.50 272.4423
1109.60 275.0426
1109.70 278.194
1109.80 277.0576
1109.90 274.5247
1110.00 270.7582
1110.10 263.306
1110.20 254.7079
1110.30 247.9058
1110.40 243.9578
1110.50 240.0379
1110.60 238.7569
1110.70 238.8663
1110.80 239.8012
1110.90 238.5336
1111.00 237.3739
1111.10 235.4804
1111.20 232.2991
1111.30 227.8391
1111.40 225.8683
1111.50 225.14
1111.60 224.6857
1111.70 225.4566
1111.80 227.1463
1111.90 228.5262
1112.00 227.8526
1112.10 227.4698
1112.20 229.4418
1112.30 232.6636
1112.40 235.4734
1112.50 239.7793
1112.60 244.3631
1112.70 248.9467
1112.80 253.0634
1112.90 257.749
1113.00 259.9676
1113.10 260.1002
1113.20 259.8971
1113.30 257.8722
1113.40 255.3008
1113.50 252.1005
1113.60 247.5957
1113.70 241.9964
1113.80 239.5344
1113.90 240.5199
1114.00 241.6612
1114.10 246.6901
1114.20 253.1862
1114.30 260.2415
1114.40 265.9073
1114.50 272.7417
1114.60 276.5008
1114.70 275.7196
1114.80 273.4868
1114.90 269.9982
1115.00 265.6749
1115.10 260.6937
1115.20 256.9913
1115.30 253.4241
1115.40 252.0021
1115.50 254.1243
1115.60 256.7798
1115.70 258.875
1115.80 260.698
1115.90 262.4791
1116.00 262.1537
1116.10 261.2668
1116.20 259.8948
1116.30 258.2093
1116.40 256.8702
1116.50 255.6726
1116.60 254.5256
1116.70 253.3146
1116.80 250.2116
1116.90 246.9437
1117.00 243.0564
1117.10 237.4154
1117.20 231.0716
1117.30 226.3323
1117.40 223.0815
1117.50 220.4923
1117.60 221.803
1117.70 224.2989
1117.80 227.6932
1117.90 232.8161
1118.00 238.2294
1118.10 244.0969
1118.20 249.7072
1118.30 255.3136
1118.40 258.6201
1118.50 261.4167
1118.60 263.7428
1118.70 261.8019
1118.80 259.3988
1118.90 256.6886
1119.00 253.3889
1119.10 249.9976
1119.20 248.815
1119.30 247.8125
1119.40 247.2967
1119.50 247.1028
1119.60 246.937
1119.70 246.7941
1119.80 247.4752
1119.90 248.5809
1120.00 249.7933
1120.10 251.0059
1120.20 252.1682
1120.30 253.5988
1120.40 255.4795
1120.50 258.4771
1120.60 261.5422
1120.70 264.8211
1120.80 265.2843
1120.90 265.3996
1121.00 265.0406
1121.10 264.2748
1121.20 263.2729
1121.30 261.5925
1121.40 259.5315
1121.50 257.2592
1121.60 254.8168
1121.70 252.1824
1121.80 249.4908
1121.90 246.8654
1122.00 244.4751
1122.10 242.9689
1122.20 241.6066
1122.30 241.6453
1122.40 243.8715
1122.50 247.4687
1122.60 251.9143
1122.70 256.5228
1122.80 260.7904
1122.90 264.3707
1123.00 266.7089
1123.10 265.13
1123.20 263.1635
1123.30 259.6469
1123.40 257.2078
1123.50 254.9739
1123.60 252.8504
1123.70 253.0427
1123.80 254.9077
1123.90 258.4879
1124.00 262.849
1124.10 267.2311
1124.20 272.0618
1124.30 277.1281
1124.40 277.7385
1124.50 278.072
1124.60 277.145
1124.70 273.6893
1124.80 269.6785
1124.90 263.2121
1125.00 257.3499
1125.10 252.1075
1125.20 247.7131
1125.30 245.3744
1125.40 246.7234
1125.50 248.8182
1125.60 252.0179
1125.70 256.6439
1125.80 261.274
1125.90 265.9238
1126.00 267.774
1126.10 268.9243
1126.20 268.7268
1126.30 268.6502
1126.40 268.7901
1126.50 269.2818
1126.60 270.6082
1126.70 273.5342
1126.80 276.6006
1126.90 279.7912
1127.00 280.1872
1127.10 280.4708
1127.20 280.118
1127.30 275.9602
1127.40 270.7293
1127.50 265.4075
1127.60 261.9104
1127.70 260.107
1127.80 258.3715
1127.90 257.3425
1128.00 258.1202
1128.10 258.9807
1128.20 259.9745
1128.30 261.3343
1128.40 262.7219
1128.50 264.2803
1128.60 264.4914
1128.70 264.277
1128.80 264.1663
1128.90 264.6701
1129.00 265.7508
1129.10 266.7507
1129.20 267.4394
1129.30 267.3368
1129.40 267.3898
1129.50 267.6969
1129.60 267.718
1129.70 267.7713
1129.80 268.061
1129.90 267.853
1130.00 267.4701
1130.10 266.3238
1130.20 264.3898
1130.30 261.7546
1130.40 258.1645
1130.50 254.4379
1130.60 252.1322
1130.70 250.1047
1130.80 248.5715
1130.90 249.1734
1131.00 249.9605
1131.10 251.8943
1131.20 255.2149
1131.30 259.0484
1131.40 263.5646
1131.50 266.8392
1131.60 268.6486
1131.70 270.2393
1131.80 271.5162
1131.90 272.1761
1132.00 272.6406
1132.10 272.7421
1132.20 271.4521
1132.30 270.0614
1132.40 268.1522
1132.50 267.8207
1132.60 268.1335
1132.70 268.1462
1132.80 267.0329
1132.90 264.6599
1133.00 262.5257
1133.10 260.2713
1133.20 256.9655
1133.30 253.5974
1133.40 250.1081
1133.50 246.8711
1133.60 243.6276
1133.70 240.2111
1133.80 237.3585
1133.90 234.7476
1134.00 230.8796
1134.10 226.7751
1134.20 222.6743
1134.30 219.2178
1134.40 216.8921
1134.50 217.2989
1134.60 218.396
1134.70 220.8335
1134.80 225.9184
1134.90 231.2589
1135.00 237.5941
1135.10 242.3878
1135.20 246.489
1135.30 248.824
1135.40 249.19
1135.50 247.5103
1135.60 245.2132
1135.70 242.7272
1135.80 241.3413
1135.90 240.3413
1136.00 240.1246
1136.10 240.8619
1136.20 241.7306
1136.30 243.4111
1136.40 244.0955
1136.50 244.311
1136.60 243.7365
1136.70 242.5309
1136.80 240.7033
1136.90 238.2425
1137.00 235.3314
1137.10 232.4581
1137.20 229.735
1137.30 227.3309
1137.40 223.1939
1137.50 218.9193
1137.60 214.5502
1137.70 206.7737
1137.80 197.319
1137.90 186.2474
1138.00 176.867
1138.10 170.3122
1138.20 163.6604
1138.30 158.4683
1138.40 160.7604
1138.50 164.1428
1138.60 169.842
1138.70 179.2141
1138.80 189.1086
1138.90 201.6979
1139.00 210.4151
1139.10 217.2251
1139.20 222.9813
1139.30 225.8358
1139.40 225.0026
1139.50 222.7785
1139.60 219.0129
1139.70 212.6631
1139.80 205.9509
1139.90 198.4685
1140.00 189.1073
1140.10 179.4673
1140.20 168.5932
1140.30 160.0092
1140.40 152.6049
1140.50 145.3129
1140.60 141.7825
1140.70 143.6271
1140.80 147.0083
1140.90 152.5167
1141.00 163.1077
1141.10 174.7204
1141.20 188.6073
1141.30 200.5722
1141.40 212.3489
1141.50 224.1552
1141.60 231.4567
1141.70 236.4375
1141.80 240.3758
1141.90 243.6995
1142.00 246.4906
1142.10 248.6365
1142.20 250.1734
1142.30 251.175
1142.40 252.0718
1142.50 252.7355
1142.60 254.6854
1142.70 256.7223
1142.80 258.1316
1142.90 258.4171
1143.00 258.0975
1143.10 257.556
1143.20 256.5071
1143.30 254.7702
1143.40 252.9498
1143.50 251.1589
1143.60 249.8932
1143.70 248.6796
1143.80 247.5765
1143.90 246.3491
1144.00 245.1325
1144.10 244.2418
1144.20 243.6646
1144.30 243.2563
1144.40 242.9253
1144.50 242.6465
1144.60 242.4208
1144.70 242.2737
1144.80 242.4581
1144.90 244.1844
1145.00 245.8755
1145.10 247.4916
1145.20 247.8976
1145.30 248.1585
1145.40 248.2782
1145.50 248.6888
1145.60 249.256
1145.70 249.6256
1145.80 250.417
1145.90 251.9062
1146.00 253.7203
1146.10 255.835
1146.20 258.2639
1146.30 260.9358
1146.40 264.1241
1146.50 266.8805
1146.60 269.5543
1146.70 271.7677
1146.80 272.6564
1146.90 272.8318
1147.00 272.3585
1147.10 271.4147
1147.20 269.9787
1147.30 268.5016
1147.40 267.2333
1147.50 267.3244
1147.60 267.6463
1147.70 268.4365
1147.80 270.9224
1147.90 273.5793
1148.00 276.2754
1148.10 277.7255
1148.20 278.5339
1148.30 278.6968
1148.40 278.1809
1148.50 276.8785
1148.60 275.8541
1148.70 275.3604
1148.80 276.596
1148.90 277.9564
1149.00 279.5706
1149.10 280.4874
1149.20 281.3037
1149.30 281.7566
1149.40 280.7596
1149.50 279.0158
1149.60 276.8164
1149.70 275.2015
1149.80 274.5527
1149.90 274.1133
1150.00 274.1197
1150.10 275.7021
1150.20 277.3315
1150.30 279.0522
1150.40 281.0352
1150.50 283.0382
1150.60 284.9814
1150.70 285.3063
1150.80 284.7975
1150.90 284.609
1151.00 284.6318
1151.10 284.862
1151.20 284.9273
1151.30 284.7103
1151.40 283.6527
1151.50 282.4199
1151.60 280.8619
1151.70 279.461
1151.80 278.0389
1151.90 276.3038
1152.00 273.2398
1152.10 269.5212
1152.20 265.2799
1152.30 261.3662
1152.40 258.0324
1152.50 255.0136
1152.60 252.654
1152.70 252.5291
1152.80 252.7227
1152.90 253.4825
1153.00 255.8827
1153.10 258.4522
1153.20 261.3928
1153.30 262.8359
1153.40 263.5743
1153.50 264.1295
1153.60 264.733
1153.70 265.4401
1153.80 266.6267
1153.90 268.174
1154.00 270.0268
1154.10 271.8561
1154.20 273.6453
1154.30 275.1148
1154.40 276.3891
1154.50 276.4091
1154.60 276.2029
1154.70 275.8953
1154.80 275.034
1154.90 274.2963
1155.00 273.8212
1155.10 273.8656
1155.20 274.1017
1155.30 273.8546
1155.40 274.0293
1155.50 274.892
1155.60 275.2326
1155.70 275.4937
1155.80 275.4459
1155.90 276.5006
1156.00 278.0279
1156.10 279.2111
1156.20 280.2169
1156.30 281.0579
1156.40 281.8366
1156.50 282.3466
1156.60 281.9221
1156.70 281.3952
1156.80 280.708
1156.90 279.3866
1157.00 277.9543
1157.10 276.0428
1157.20 273.6978
1157.30 271.1758
1157.40 268.8648
1157.50 267.0617
1157.60 265.8271
1157.70 265.0562
1157.80 265.0703
1157.90 267.1389
1158.00 269.3463
1158.10 271.7535
1158.20 273.9458
1158.30 276.0684
1158.40 277.8599
1158.50 276.7698
1158.60 274.5589
1158.70 271.8467
1158.80 268.8184
1158.90 265.4829
1159.00 261.7519
1159.10 257.8844
1159.20 254.2119
1159.30 250.5799
1159.40 247.0041
1159.50 245.8177
1159.60 244.7408
1159.70 243.9406
1159.80 243.6031
1159.90 243.4367
1160.00 244.1585
1160.10 245.5853
1160.20 247.6762
1160.30 250.2582
1160.40 252.8123
1160.50 254.5796
1160.60 256.0776
1160.70 257.2329
1160.80 259.5369
1160.90 261.7983
1161.00 263.8893
1161.10 266.3086
1161.20 268.8374
1161.30 271.888
1161.40 273.8616
1161.50 274.731
1161.60 275.5939
1161.70 276.027
1161.80 275.2443
1161.90 273.8093
1162.00 271.6232
1162.10 270.9026
1162.20 270.1707
1162.30 269.3965
1162.40 270.2795
1162.50 271.6576
1162.60 274.1181
1162.70 276.7521
1162.80 279.5152
1162.90 282.8214
1163.00 285.5568
1163.10 286.1781
1163.20 286.3405
1163.30 285.9276
1163.40 282.9984
1163.50 279.7404
1163.60 275.3815
1163.70 271.5997
1163.80 267.9808
1163.90 264.2227
1164.00 262.5982
1164.10 262.7925
1164.20 264.151
1164.30 266.2718
1164.40 269.2576
1164.50 272.645
1164.60 276.2259
1164.70 275.8553
1164.80 275.2629
1164.90 274.0054
1165.00 271.1829
1165.10 267.9546
1165.20 263.2874
1165.30 259.7726
1165.40 257.1632
1165.50 254.7745
1165.60 253.6236
1165.70 255.0808
1165.80 257.3851
1165.90 260.4354
1166.00 263.0082
1166.10 265.7462
1166.20 268.9092
1166.30 269.8428
1166.40 270.2658
1166.50 269.9987
1166.60 269.0786
1166.70 267.6858
1166.80 265.6143
1166.90 263.5136
1167.00 261.7201
1167.10 259.8366
1167.20 257.9423
1167.30 256.7131
1167.40 255.4611
1167.50 254.1557
1167.60 252.218
1167.70 250.1674
1167.80 248.2349
1167.90 245.7096
1168.00 242.7889
1168.10 239.6211
1168.20 235.0351
1168.30 227.923
1168.40 220.2178
1168.50 211.6686
1168.60 199.9109
1168.70 187.6307
1168.80 174.2401
1168.90 163.7758
1169.00 153.7664
1169.10 143.5099
1169.20 139.4855
1169.30 139.2806
1169.40 141.7568
1169.50 147.0311
1169.60 156.2001
1169.70 167.5883
1169.80 180.3666
1169.90 192.1272
1170.00 204.2695
1170.10 217.1206
1170.20 226.6877
1170.30 235.6638
1170.40 243.1419
1170.50 248.8532
1170.60 253.5706
1170.70 256.921
1170.80 259.2175
1170.90 260.267
1171.00 260.8058
1171.10 260.9696
1171.20 260.7815
1171.30 260.5627
1171.40 260.2938
1171.50 260.4888
1171.60 260.7014
1171.70 260.7248
1171.80 260.599
1171.90 260.3998
1172.00 260.101
1172.10 259.9755
1172.20 260.1066
1172.30 260.3669
1172.40 260.856
1172.50 262.0694
1172.60 263.4783
1172.70 265.1803
1172.80 266.4076
1172.90 267.5917
1173.00 268.7076
1173.10 268.8033
1173.20 268.4405
1173.30 267.5973
1173.40 266.2739
1173.50 264.4146
1173.60 262.3552
1173.70 260.5054
1173.80 259.798
1173.90 259.1521
1174.00 258.5876
1174.10 259.6576
1174.20 260.9406
1174.30 262.8413
1174.40 264.5772
1174.50 266.249
1174.60 267.7089
1174.70 267.788
1174.80 266.3831
1174.90 264.4121
1175.00 261.8873
1175.10 258.2823
1175.20 254.3543
1175.30 250.0468
1175.40 247.5306
1175.50 245.1686
1175.60 243.2896
1175.70 241.6765
1175.80 240.1519
1175.90 238.9655
1176.00 237.0863
1176.10 234.5074
1176.20 231.6247
1176.30 227.5581
1176.40 220.4259
1176.50 212.7719
1176.60 204.4947
1176.70 192.2803
1176.80 179.5988
1176.90 165.5161
1177.00 152.2455
1177.10 139.1941
1177.20 125.1798
1177.30 116.199
1177.40 111.682
1177.50 109.1237
1177.60 109.4431
1177.70 115.3754
1177.80 123.6174
1177.90 134.0264
1178.00 146.6921
1178.10 159.9236
1178.20 174.6101
1178.30 186.3889
1178.40 197.4526
1178.50 207.7228
1178.60 216.4275
1178.70 223.9023
1178.80 230.1708
1178.90 235.2479
1179.00 238.434
1179.10 240.9894
1179.20 242.9634
1179.30 243.9491
1179.40 244.7431
1179.50 245.1297
1179.60 245.9409
1179.70 246.8449
1179.80 247.8865
1179.90 249.7089
1180.00 252.0518
1180.10 254.6568
1180.20 257.1722
1180.30 259.4214
1180.40 261.4729
1180.50 263.1616
1180.60 263.027
1180.70 262.68
1180.80 261.9388
1180.90 260.5647
1181.00 259.055
1181.10 257.2128
1181.20 255.6171
1181.30 254.1662
1181.40 252.7928
1181.50 251.9106
1181.60 251.7785
1181.70 252.0362
1181.80 252.6571
1181.90 254.0381
1182.00 255.5388
1182.10 257.2268
1182.20 258.2708
1182.30 259.2011
1182.40 259.8935
1182.50 260.2953
1182.60 260.5475
1182.70 260.6233
1182.80 260.6371
1182.90 260.5894
1183.00 260.6544
1183.10 260.4397
1183.20 258.6973
1183.30 256.7142
1183.40 254.399
1183.50 252.2588
1183.60 250.0429
1183.70 247.4313
1183.80 247.1068
1183.90 247.7625
1184.00 249.474
1184.10 251.5839
1184.20 254.0824
1184.30 257.2049
1184.40 259.7471
1184.50 259.2845
1184.60 258.3715
1184.70 256.9299
1184.80 254.7201
1184.90 252.271
1185.00 249.0578
1185.10 248.287
1185.20 248.4195
1185.30 249.1593
1185.40 250.5711
1185.50 252.6696
1185.60 255.423
1185.70 258.1122
1185.80 259.9183
1185.90 261.6101
1186.00 263.1691
1186.10 262.8942
1186.20 262.5505
1186.30 262.0114
1186.40 260.948
1186.50 259.7199
1186.60 258.0892
1186.70 256.7686
1186.80 255.7231
1186.90 254.608
1187.00 253.9122
1187.10 254.2908
1187.20 254.8305
1187.30 255.5171
1187.40 256.386
1187.50 257.4051
1187.60 258.7748
1187.70 257.705
1187.80 256.0217
1187.90 253.6904
1188.00 250.2685
1188.10 246.0241
1188.20 240.6551
1188.30 236.0791
1188.40 233.6145
1188.50 231.326
1188.60 229.4649
1188.70 230.6365
1188.80 232.4557
1188.90 235.532
1189.00 238.6752
1189.10 241.9109
1189.20 245.8732
1189.30 248.7876
1189.40 251.0322
1189.50 252.7621
1189.60 254.5041
1189.70 256.4093
1189.80 257.8996
1189.90 258.9141
1190.00 258.446
1190.10 257.9866
1190.20 257.5414
1190.30 256.9025
1190.40 256.1537
1190.50 254.9171
1190.60 254.0831
1190.70 253.4657
1190.80 253.1792
1190.90 253.5921
1191.00 254.9642
1191.10 256.5597
1191.20 258.2005
1191.30 259.5249
1191.40 260.9637
1191.50 262.5541
1191.60 263.4412
1191.70 264.1965
1191.80 264.616
1191.90 264.2704
1192.00 263.5812
1192.10 262.7758
1192.20 262.4398
1192.30 262.6851
1192.40 262.7822
1192.50 262.8671
1192.60 263.1336
1192.70 263.4591
1192.80 263.8511
1192.90 264.2428
1193.00 264.7022
1193.10 265.3882
1193.20 264.0566
1193.30 261.9787
1193.40 259.4115
1193.50 256.6644
1193.60 253.7302
1193.70 250.0805
1193.80 246.4385
1193.90 243.4613
1194.00 240.6106
1194.10 237.8968
1194.20 236.1747
1194.30 234.634
1194.40 233.5596
1194.50 231.2775
1194.60 228.641
1194.70 225.6734
1194.80 223.805
1194.90 222.8729
1195.00 221.9007
1195.10 221.7134
1195.20 223.3812
1195.30 225.8125
1195.40 228.7776
1195.50 230.705
1195.60 232.699
1195.70 234.8283
1195.80 234.3651
1195.90 233.2285
1196.00 231.0362
1196.10 229.0208
1196.20 227.1336
1196.30 224.7178
1196.40 222.7525
1196.50 221.8428
1196.60 221.4456
1196.70 221.2024
1196.80 219.5546
1196.90 217.7791
1197.00 215.7861
1197.10 212.0839
1197.20 207.9899
1197.30 203.0581
1197.40 198.8911
1197.50 195.1734
1197.60 191.4919
1197.70 189.1798
1197.80 189.0036
1197.90 189.7432
1198.00 191.3603
1198.10 195.2758
1198.20 199.6995
1198.30 204.8249
1198.40 208.2545
1198.50 211.5151
1198.60 214.7698
1198.70 215.2685
1198.80 214.4703
1198.90 212.4544
1199.00 209.5283
1199.10 205.5253
1199.20 200.7404
1199.30 196.3713
1199.40 194.9435
1199.50 193.7707
1199.60 192.8857
1199.70 193.1577
1199.80 193.7094
1199.90 195.0364
1200.00 196.2499
1200.10 197.4193
1200.20 198.3256
1200.30 199.2782
1200.40 200.2788
1200.50 201.5121
1200.60 203.018
1200.70 205.1208
1200.80 207.3035
1200.90 209.5489
1201.00 210.7057
1201.10 211.7508
1201.20 212.5086
1201.30 211.9301
1201.40 210.9254
1201.50 209.4047
1201.60 208.1587
1201.70 207.1466
1201.80 206.3955
1201.90 206.0235
1202.00 206.3936
1202.10 206.9697
1202.20 207.7145
1202.30 208.6673
1202.40 209.46
1202.50 209.9419
1202.60 208.8204
1202.70 207.3253
1202.80 205.6359
1202.90 204.7983
1203.00 204.5528
1203.10 204.5177
1203.20 205.5771
1203.30 208.6051
1203.40 212.4145
1203.50 216.7924
1203.60 222.0571
1203.70 227.4523
1203.80 233.0517
1203.90 235.8344
1204.00 238.1018
1204.10 239.8343
1204.20 239.6013
1204.30 238.2627
1204.40 235.5673
1204.50 233.2068
1204.60 231.5258
1204.70 229.9126
1204.80 228.7815
1204.90 230.0138
1205.00 231.6533
1205.10 233.8111
1205.20 236.76
1205.30 239.9117
1205.40 243.6027
1205.50 246.5894
1205.60 249.2598
1205.70 251.6456
1205.80 253.3433
1205.90 254.2107
1206.00 254.6613
1206.10 254.4926
1206.20 252.675
1206.30 250.616
1206.40 248.3156
1206.50 245.8183
1206.60 243.1468
1206.70 239.9906
1206.80 239.2841
1206.90 239.4678
1207.00 240.612
1207.10 242.8475
1207.20 246.1317
1207.30 250.193
1207.40 254.2268
1207.50 257.6273
1207.60 261.2423
1207.70 264.973
1207.80 266.7746
1207.90 268.1827
1208.00 268.7547
1208.10 267.9347
1208.20 266.7231
1208.30 265.0093
1208.40 261.6394
1208.50 256.9682
1208.60 251.418
1208.70 245.9579
1208.80 241.0452
1208.90 235.7904
1209.00 230.8006
1209.10 230.7023
1209.20 231.1285
1209.30 232.4477
1209.40 236.6923
1209.50 241.7977
1209.60 249.0204
1209.70 253.3725
1209.80 255.9653
1209.90 258.4557
1210.00 258.6401
1210.10 255.0808
1210.20 249.4854
1210.30 242.7872
1210.40 235.4739
1210.50 227.5795
1210.60 218.9146
1210.70 214.3188
1210.80 210.269
1210.90 206.8309
1211.00 205.9083
1211.10 206.2246
1211.20 208.3177
1211.30 210.6284
1211.40 213.1294
1211.50 216.2633
1211.60 219.6481
1211.70 223.0523
1211.80 226.696
1211.90 230.5892
1212.00 235.3893
1212.10 240.3192
1212.20 245.525
1212.30 248.6095
1212.40 250.8903
1212.50 252.2393
1212.60 251.3906
1212.70 248.2542
1212.80 243.7355
1212.90 239.0825
1213.00 235.1567
1213.10 230.6628
1213.20 225.834
1213.30 227.3632
1213.40 229.6125
1213.50 233.4647
1213.60 239.0168
1213.70 245.1844
1213.80 253.2333
1213.90 259.1968
1214.00 263.454
1214.10 267.171
1214.20 269.7882
1214.30 270.2868
1214.40 269.5372
1214.50 268.0778
1214.60 267.6334
1214.70 267.146
1214.80 266.5855
1214.90 266.6837
1215.00 266.9838
1215.10 267.8106
1215.20 267.4255
1215.30 266.2655
1215.40 264.8319
1215.50 262.97
1215.60 260.459
1215.70 257.5329
1215.80 254.6633
1215.90 253.3962
1216.00 252.3277
1216.10 251.5118
1216.20 252.2556
1216.30 253.2802
1216.40 254.7351
1216.50 256.6761
1216.60 258.8567
1216.70 261.3988
1216.80 263.4172
1216.90 264.755
1217.00 265.9909
1217.10 266.9108
1217.20 266.717
1217.30 266.2556
1217.40 265.5268
1217.50 265.9009
1217.60 266.25
1217.70 266.431
1217.80 267.5629
1217.90 269.0718
1218.00 271.3981
1218.10 273.7022
1218.20 275.9842
1218.30 278.5328
1218.40 280.2576
1218.50 279.4478
1218.60 278.0452
1218.70 276.1943
1218.80 274.9097
1218.90 273.354
1219.00 271.2482
1219.10 269.5712
1219.20 268.096
1219.30 267.5093
1219.40 267.2025
1219.50 267.1156
1219.60 267.0763
1219.70 266.8893
1219.80 266.3717
1219.90 265.7045
1220.00 265.0379
1220.10 265.2654
1220.20 265.516
1220.30 265.8027
1220.40 265.8526
1220.50 265.9968
1220.60 266.8387
1220.70 266.3096
1220.80 264.9401
1220.90 262.8611
1221.00 260.6866
1221.10 258.4593
1221.20 255.3441
1221.30 252.0241
1221.40 249.8049
1221.50 247.6675
1221.60 245.6262
1221.70 244.6692
1221.80 244.0377
1221.90 244.226
1222.00 244.0858
1222.10 243.7981
1222.20 243.9956
1222.30 244.5356
1222.40 245.4882
1222.50 246.2134
1222.60 247.5945
1222.70 251.5554
1222.80 255.9522
1222.90 260.7513
1223.00 266.3875
1223.10 272.3321
1223.20 278.9902
1223.30 283.4389
1223.40 287.1191
1223.50 290.2982
1223.60 291.7112
1223.70 291.4941
1223.80 290.076
1223.90 288.3524
1224.00 286.5209
1224.10 284.216
1224.20 281.666
1224.30 280.7099
1224.40 279.9633
1224.50 279.5892
1224.60 280.4248
1224.70 281.6111
1224.80 283.4214
1224.90 284.951
1225.00 286.2772
1225.10 287.9553
1225.20 288.646
1225.30 287.4223
1225.40 285.7233
1225.50 283.7689
1225.60 281.7372
1225.70 279.3633
1225.80 276.536
1225.90 276.4646
1226.00 276.8102
1226.10 277.3309
1226.20 279.2044
1226.30 281.8063
1226.40 285.4651
1226.50 288.1352
1226.60 289.379
1226.70 290.7923
1226.80 291.7248
1226.90 290.1806
1227.00 288.1346
1227.10 285.5662
1227.20 284.4035
1227.30 283.1635
1227.40 281.4929
1227.50 281.7505
1227.60 282.7894
1227.70 284.847
1227.80 286.7119
1227.90 288.368
1228.00 290.4998
1228.10 292.3073
1228.20 292.7851
1228.30 292.8076
1228.40 292.4385
1228.50 290.402
1228.60 288.0557
1228.70 285.0805
1228.80 282.4077
1228.90 279.8167
1229.00 277.2383
1229.10 274.107
1229.20 270.5232
1229.30 267.1045
1229.40 264.2944
1229.50 262.7251
1229.60 261.1021
1229.70 259.6879
1229.80 260.7058
1229.90 262.1215
1230.00 264.1339
1230.10 267.9333
1230.20 272.2532
1230.30 277.5742
1230.40 281.3426
1230.50 284.1593
1230.60 286.6989
1230.70 288.0142
1230.80 287.4421
1230.90 285.8238
1231.00 283.825
1231.10 282.0718
1231.20 280.0368
1231.30 277.6841
1231.40 276.2622
1231.50 275.1265
1231.60 274.6406
1231.70 274.2847
1231.80 273.9874
1231.90 273.7095
1232.00 273.3278
1232.10 272.8244
1232.20 272.3364
1232.30 271.921
1232.40 271.7336
1232.50 271.5374
1232.60 271.3341
1232.70 269.8818
1232.80 268.4274
1232.90 266.9684
1233.00 265.7491
1233.10 264.551
1233.20 262.7254
1233.30 262.0856
1233.40 262.4975
1233.50 263.3516
1233.60 264.463
1233.70 265.9931
1233.80 268.0007
1233.90 270.0855
1234.00 269.3082
1234.10 268.4634
1234.20 267.5134
1234.30 266.5516
1234.40 265.4519
1234.50 263.6401
1234.60 263.3629
1234.70 264.1087
1234.80 265.3415
1234.90 266.9828
1235.00 269.2477
1235.10 272.1148
1235.20 274.8005
1235.30 274.7101
1235.40 274.2588
1235.50 273.384
1235.60 271.6859
1235.70 269.669
1235.80 266.8571
1235.90 265.2621
1236.00 264.2396
1236.10 263.8335
1236.20 264.926
1236.30 267.9256
1236.40 271.7327
1236.50 275.4306
1236.60 277.8105
1236.70 280.3054
1236.80 282.8981
1236.90 281.8557
1237.00 280.3086
1237.10 277.8033
1237.20 274.4132
1237.30 270.6705
1237.40 266.1625
1237.50 263.653
1237.60 262.9883
1237.70 262.7608
1237.80 263.2323
1237.90 265.2111
1238.00 268.1604
1238.10 271.533
1238.20 271.8167
1238.30 272.0353
1238.40 272.148
1238.50 268.2111
1238.60 263.071
1238.70 256.1502
1238.80 249.4128
1238.90 242.8028
1239.00 235.1282
1239.10 229.0611
1239.20 226.0163
1239.30 223.9655
1239.40 222.7707
1239.50 224.3162
1239.60 226.6594
1239.70 229.9388
1239.80 232.2274
1239.90 234.4434
1240.00 236.785
1240.10 236.7335
1240.20 235.5034
1240.30 233.109
1240.40 231.1522
1240.50 229.7525
1240.60 228.3648
1240.70 227.7281
1240.80 229.9032
1240.90 232.491
1241.00 235.4447
1241.10 237.9655
1241.20 240.6637
1241.30 243.8069
1241.40 243.5874
1241.50 242.1061
1241.60 239.5597
1241.70 236.6688
1241.80 233.447
1241.90 229.4079
1242.00 225.8984
1242.10 224.1511
1242.20 222.4273
1242.30 220.6612
1242.40 217.8036
1242.50 215.19
1242.60 212.9744
1242.70 206.99
1242.80 200.0013
1242.90 192.01
1243.00 184.2733
1243.10 176.7137
1243.20 168.1981
1243.30 162.2279
1243.40 160.9305
1243.50 160.4601
1243.60 161.1105
1243.70 166.7758
1243.80 173.8187
1243.90 182.4789
1244.00 190.5296
1244.10 198.7855
1244.20 207.9555
1244.30 215.3409
1244.40 221.8474
1244.50 227.7163
1244.60 233.3808
1244.70 238.7853
1244.80 243.6678
1244.90 248.1411
1245.00 251.662
1245.10 255.0101
1245.20 258.2112
1245.30 259.5073
1245.40 260.5996
1245.50 261.3247
1245.60 260.5898
1245.70 259.3108
1245.80 257.3707
1245.90 255.7888
1246.00 254.5373
1246.10 252.5828
1246.20 251.2543
1246.30 251.7625
1246.40 252.6913
1246.50 253.951
1246.60 256.3562
1246.70 259.1727
1246.80 262.6327
1246.90 264.7717
1247.00 266.6716
1247.10 268.7358
1247.20 269.5023
1247.30 269.4037
1247.40 268.1451
1247.50 266.6785
1247.60 265.0066
1247.70 263.1749
1247.80 261.2993
1247.90 259.5755
1248.00 257.8928
1248.10 256.2563
1248.20 255.718
1248.30 255.3181
1248.40 255.0121
1248.50 255.3342
1248.60 255.9577
1248.70 256.8619
1248.80 257.532
1248.90 257.9161
1249.00 258.5359
1249.10 258.9834
1249.20 258.5977
1249.30 258.0504
1249.40 257.376
1249.50 256.5151
1249.60 255.5445
1249.70 254.355
1249.80 254.3661
1249.90 254.7712
1250.00 255.3104
1250.10 255.3587
1250.20 254.9714
1250.30 254.8785
1250.40 254.5597
1250.50 253.6113
1250.60 252.3561
1250.70 250.8575
1250.80 248.421
1250.90 245.8919
1251.00 243.2298
1251.10 240.649
1251.20 238.0191
1251.30 235.0952
1251.40 230.5275
1251.50 224.9088
1251.60 219.1965
1251.70 211.945
1251.80 202.1903
1251.90 191.1589
1252.00 179.891
1252.10 170.0974
1252.20 159.9201
1252.30 149.3435
1252.40 147.9134
1252.50 147.952
1252.60 149.8111
1252.70 157.0645
1252.80 166.9136
1252.90 180.8967
1253.00 194.0297
1253.10 206.1647
1253.20 219.0195
1253.30 230.8137
1253.40 238.4926
1253.50 244.9577
1253.60 250.5438
1253.70 254.5585
1253.80 258.2072
1253.90 261.1761
1254.00 262.7938
1254.10 263.9865
1254.20 264.8578
1254.30 265.463
1254.40 265.8504
1254.50 265.5379
1254.60 265.1021
1254.70 264.5876
1254.80 263.8201
1254.90 263.1755
1255.00 265.0916
1255.10 267.4215
1255.20 270.2999
1255.30 273.1259
1255.40 276.1298
1255.50 279.8352
1255.60 283.0476
1255.70 285.9705
1255.80 288.2192
1255.90 289.0836
1256.00 287.8922
1256.10 286.1486
1256.20 284.2584
1256.30 282.5514
1256.40 280.41
1256.50 277.8676
1256.60 276.8957
1256.70 276.1443
1256.80 275.6874
1256.90 275.7706
1257.00 276.1033
1257.10 276.8881
1257.20 277.277
1257.30 277.254
1257.40 277.5124
1257.50 278.1438
1257.60 279.6845
1257.70 281.1822
1257.80 282.6826
1257.90 285.1554
1258.00 287.7703
1258.10 290.6169
1258.20 291.7152
1258.30 292.3894
1258.40 293.1365
1258.50 291.9248
1258.60 289.2355
1258.70 285.5686
1258.80 281.8103
1258.90 278.0399
1259.00 273.4843
1259.10 268.8763
1259.20 266.5666
1259.30 264.6296
1259.40 263.1127
1259.50 264.1844
1259.60 265.8609
1259.70 268.4396
1259.80 270.8114
1259.90 273.0804
1260.00 275.7398
1260.10 278.2474
1260.20 280.5538
1260.30 282.3565
1260.40 284.108
1260.50 286.2222
1260.60 288.4826
1260.70 290.8578
1260.80 294.1759
1260.90 297.7369
1261.00 301.7318
1261.10 303.2643
1261.20 303.9093
1261.30 304.3552
1261.40 303.579
1261.50 301.6749
1261.60 298.4094
1261.70 295.0983
1261.80 292.1738
1261.90 288.6443
1262.00 284.9709
1262.10 284.3721
1262.20 284.2397
1262.30 284.7516
1262.40 285.5754
1262.50 286.6679
1262.60 288.6331
1262.70 289.7563
1262.80 290.3183
1262.90 290.3851
1263.00 290.105
1263.10 289.2927
1263.20 288.1638
1263.30 286.8592
1263.40 285.2227
1263.50 283.6696
1263.60 282.1965
1263.70 280.4465
1263.80 278.6052
1263.90 276.5908
1264.00 274.4856
1264.10 272.3246
1264.20 269.8808
1264.30 268.4749
1264.40 268.2395
1264.50 268.2809
1264.60 268.853
1264.70 270.9133
1264.80 273.5284
1264.90 276.5058
1265.00 278.7302
1265.10 281.0418
1265.20 283.5018
1265.30 284.783
1265.40 285.7061
1265.50 286.4725
1265.60 286.9191
1265.70 287.1041
1265.80 286.6855
1265.90 286.4617
1266.00 286.7401
1266.10 286.8816
1266.20 286.9136
1266.30 286.5123
1266.40 286.3131
1266.50 286.3511
1266.60 287.5245
1266.70 288.8533
1266.80 290.1342
1266.90 291.659
1267.00 293.3257
1267.10 295.4588
1267.20 297.5367
1267.30 299.5382
1267.40 301.3573
1267.50 303.0103
1267.60 304.1752
1267.70 305.2985
1267.80 306.3878
1267.90 306.3024
1268.00 305.83
1268.10 304.671
1268.20 302.8573
1268.30 300.8256
1268.40 299.0119
1268.50 297.1919
1268.60 295.3657
1268.70 294.1088
1268.80 293.3086
1268.90 293.4645
1269.00 293.9701
1269.10 294.6642
1269.20 295.199
1269.30 295.4095
1269.40 295.1722
1269.50 294.0872
1269.60 292.6887
1269.70 290.7463
1269.80 288.8045
1269.90 286.8629
1270.00 284.9706
1270.10 283.2284
1270.20 281.7385
1270.30 280.5844
1270.40 279.9688
1270.50 281.9359
1270.60 284.1636
1270.70 286.6416
1270.80 289.647
1270.90 292.8543
1271.00 296.463
1271.10 299.4668
1271.20 302.1996
1271.30 304.9451
1271.40 306.3142
1271.50 306.0676
1271.60 305.2822
1271.70 304.4886
1271.80 304.0186
1271.90 303.1917
1272.00 302.1421
1272.10 301.6442
1272.20 301.2734
1272.30 301.1098
1272.40 300.6294
1272.50 300.0738
1272.60 299.5981
1272.70 298.5749
1272.80 297.1038
1272.90 295.6407
1273.00 294.4982
1273.10 294.0055
1273.20 293.3483
1273.30 292.5862
1273.40 291.5148
1273.50 290.3604
1273.60 289.1124
1273.70 286.739
1273.80 284.0764
1273.90 281.0065
1274.00 279.1886
1274.10 278.0497
1274.20 277.1371
1274.30 277.8251
1274.40 280.7234
1274.50 284.6741
1274.60 288.6542
1274.70 291.6334
1274.80 294.9811
1274.90 298.6068
1275.00 298.8897
1275.10 298.6995
1275.20 297.7918
1275.30 297.7611
1275.40 297.9752
1275.50 297.7247
1275.60 298.9089
1275.70 301.4172
1275.80 304.4812
1275.90 306.9563
1276.00 307.8215
1276.10 308.9414
1276.20 310.0349
1276.30 308.6589
1276.40 306.72
1276.50 304.0645
1276.60 302.0927
1276.70 300.2933
1276.80 298.6526
1276.90 298.9423
1277.00 300.4663
1277.10 302.7284
1277.20 304.5344
1277.30 305.5717
1277.40 306.9375
1277.50 308.1545
1277.60 308.0463
1277.70 307.2289
1277.80 305.7827
1277.90 302.0065
1278.00 297.9492
1278.10 293.6567
1278.20 291.2165
1278.30 289.5232
1278.40 287.7176
1278.50 286.6649
1278.60 286.4278
1278.70 287.2366
1278.80 288.7882
1278.90 292.0579
1279.00 295.6052
1279.10 299.278
1279.20 301.7402
1279.30 304.3643
1279.40 307.2312
1279.50 308.7736
1279.60 309.8125
1279.70 310.0657
1279.80 309.1899
1279.90 307.4623
1280.00 305.5458
1280.10 303.6335
1280.20 301.7476
1280.30 299.4744
1280.40 297.1661
1280.50 295.6512
1280.60 294.1098
1280.70 292.542
1280.80 291.8712
1280.90 291.3099
1281.00 290.7737
1281.10 290.5302
1281.20 290.4626
1281.30 290.9987
1281.40 291.5529
1281.50 292.1301
1281.60 292.845
1281.70 293.5185
1281.80 293.9457
1281.90 294.5068
1282.00 295.1573
1282.10 296.6602
1282.20 298.129
1282.30 299.5281
1282.40 300.5404
1282.50 301.4324
1282.60 302.2975
1282.70 302.435
1282.80 301.9528
1282.90 301.1955
1283.00 300.4732
1283.10 299.8758
1283.20 299.356
1283.30 298.8762
1283.40 298.4634
1283.50 297.9731
1283.60 297.3953
1283.70 296.7896
1283.80 296.2192
1283.90 295.7685
1284.00 295.1314
1284.10 294.3893
1284.20 293.6382
1284.30 293.6051
1284.40 294.605
1284.50 295.5895
1284.60 296.6365
1284.70 297.9658
1284.80 299.4204
1284.90 300.9695
1285.00 300.971
1285.10 300.8987
1285.20 300.8094
1285.30 298.7852
1285.40 295.95
1285.50 292.1522
1285.60 288.3437
1285.70 284.5252
1285.80 280.3906
1285.90 276.891
1286.00 275.032
1286.10 273.6207
1286.20 272.595
1286.30 274.1551
1286.40 276.2149
1286.50 278.8855
1286.60 282.8518
1286.70 287.1389
1286.80 291.6224
1286.90 295.084
1287.00 297.8923
1287.10 301.241
1287.20 303.2077
1287.30 302.9198
1287.40 301.6302
1287.50 299.6866
1287.60 295.8807
1287.70 291.3482
1287.80 286.2211
1287.90 282.9368
1288.00 279.8014
1288.10 276.6876
1288.20 275.3739
1288.30 274.9355
1288.40 275.7581
1288.50 277.5137
1288.60 280.2801
1288.70 283.5116
1288.80 286.5749
1288.90 288.9618
1289.00 291.5342
1289.10 294.1795
1289.20 295.9508
1289.30 297.5748
1289.40 298.9955
1289.50 298.6003
1289.60 297.6709
1289.70 296.3089
1289.80 295.1255
1289.90 294.0715
1290.00 292.0087
1290.10 290.4638
1290.20 289.8763
1290.30 289.6191
1290.40 289.4657
1290.50 289.2695
1290.60 289.275
1290.70 289.4595
1290.80 289.4821
1290.90 289.632
1291.00 290.1164
1291.10 289.9724
1291.20 289.5157
1291.30 288.8643
1291.40 288.7644
1291.50 289.3117
1291.60 289.7061
1291.70 290.3036
1291.80 291.672
1291.90 293.081
1292.00 294.5093
1292.10 295.5009
1292.20 296.7075
1292.30 298.2368
1292.40 297.7922
1292.50 296.7431
1292.60 295.476
1292.70 293.5699
1292.80 291.1618
1292.90 287.8868
1293.00 285.6612
1293.10 285.6396
1293.20 285.4277
1293.30 285.2261
1293.40 285.6775
1293.50 286.8136
1293.60 288.6075
1293.70 290.3584
1293.80 292.1504
1293.90 294.0634
1294.00 294.9635
1294.10 295.314
1294.20 295.2321
1294.30 295.562
1294.40 296.4158
1294.50 296.8702
1294.60 297.3361
1294.70 298.1527
1294.80 299.5072
1294.90 301.2056
1295.00 300.5005
1295.10 299.6203
1295.20 298.5041
1295.30 295.8991
1295.40 292.6693
1295.50 288.6277
1295.60 285.458
1295.70 283.0311
1295.80 280.0125
1295.90 277.8876
1296.00 277.8355
1296.10 278.7467
1296.20 280.0088
1296.30 280.8408
1296.40 281.9764
1296.50 283.428
1296.60 284.4658
1296.70 285.4213
1296.80 286.3364
1296.90 287.188
1297.00 287.9786
1297.10 288.1621
1297.20 288.4358
1297.30 288.8339
1297.40 289.484
1297.50 290.0493
1297.60 290.0168
1297.70 289.9357
1297.80 289.8208
1297.90 290.7032
1298.00 291.6043
1298.10 292.4848
1298.20 294.442
1298.30 296.784
1298.40 299.1621
1298.50 301.1207
1298.60 302.692
1298.70 305.0668
1298.80 306.8137
1298.90 306.8521
1299.00 306.5792
1299.10 306.086
1299.20 304.4394
1299.30 302.553
1299.40 300.396
1299.50 298.4935
1299.60 296.3963
1299.70 293.5803
1299.80 291.4068
1299.90 289.6256
