# Version 2.1 - nm, norm@500 to 1, cut digits
# Wavelength(nm)  Flambda(ergs/cm^s/s/nm)
300.00 1.407035e-95
300.10 1.407035e-95
300.20 1.407035e-95
300.30 1.407035e-95
300.40 1.407035e-95
300.50 1.407035e-95
300.60 1.407035e-95
300.70 1.407035e-95
300.80 1.407035e-95
300.90 1.407035e-95
301.00 1.407035e-95
301.10 1.407035e-95
301.20 1.407035e-95
301.30 1.407035e-95
301.40 1.407035e-95
301.50 1.407035e-95
301.60 1.407035e-95
301.70 1.407035e-95
301.80 1.407035e-95
301.90 1.407035e-95
302.00 1.407035e-95
302.10 1.407035e-95
302.20 1.407035e-95
302.30 1.407035e-95
302.40 1.407035e-95
302.50 1.407035e-95
302.60 1.407035e-95
302.70 1.407035e-95
302.80 1.407035e-95
302.90 1.407035e-95
303.00 1.407035e-95
303.10 1.407035e-95
303.20 1.407035e-95
303.30 1.407035e-95
303.40 1.407035e-95
303.50 1.407035e-95
303.60 1.407035e-95
303.70 1.407035e-95
303.80 1.407035e-95
303.90 1.407035e-95
304.00 1.407035e-95
304.10 1.407035e-95
304.20 1.407035e-95
304.30 1.407035e-95
304.40 1.407035e-95
304.50 1.407035e-95
304.60 1.407035e-95
304.70 1.407035e-95
304.80 1.407035e-95
304.90 1.407035e-95
305.00 1.407035e-95
305.10 1.407035e-95
305.20 1.407035e-95
305.30 1.407035e-95
305.40 1.407035e-95
305.50 1.407035e-95
305.60 1.407035e-95
305.70 1.407035e-95
305.80 1.407035e-95
305.90 1.407035e-95
306.00 1.407035e-95
306.10 1.407035e-95
306.20 1.407035e-95
306.30 1.407035e-95
306.40 1.407035e-95
306.50 1.407035e-95
306.60 1.407035e-95
306.70 1.407035e-95
306.80 1.407035e-95
306.90 1.407035e-95
307.00 1.407035e-95
307.10 1.407035e-95
307.20 1.407035e-95
307.30 1.407035e-95
307.40 1.407035e-95
307.50 1.407035e-95
307.60 1.407035e-95
307.70 1.407035e-95
307.80 1.407035e-95
307.90 1.407035e-95
308.00 1.407035e-95
308.10 1.407035e-95
308.20 1.407035e-95
308.30 1.407035e-95
308.40 1.407035e-95
308.50 1.407035e-95
308.60 1.407035e-95
308.70 1.407035e-95
308.80 1.407035e-95
308.90 1.407035e-95
309.00 1.407035e-95
309.10 1.407035e-95
309.20 1.407035e-95
309.30 1.407035e-95
309.40 1.407035e-95
309.50 1.407035e-95
309.60 1.407035e-95
309.70 1.407035e-95
309.80 1.407035e-95
309.90 1.407035e-95
310.00 1.407035e-95
310.10 1.407035e-95
310.20 1.407035e-95
310.30 1.407035e-95
310.40 1.407035e-95
310.50 1.407035e-95
310.60 1.407035e-95
310.70 1.407035e-95
310.80 1.407035e-95
310.90 1.407035e-95
311.00 1.407035e-95
311.10 1.407035e-95
311.20 1.407035e-95
311.30 1.407035e-95
311.40 1.407035e-95
311.50 1.407035e-95
311.60 1.407035e-95
311.70 1.407035e-95
311.80 1.407035e-95
311.90 1.407035e-95
312.00 1.407035e-95
312.10 1.407035e-95
312.20 1.407035e-95
312.30 1.407035e-95
312.40 1.407035e-95
312.50 1.407035e-95
312.60 1.407035e-95
312.70 1.407035e-95
312.80 1.407035e-95
312.90 1.407035e-95
313.00 1.407035e-95
313.10 1.407035e-95
313.20 1.407035e-95
313.30 1.407035e-95
313.40 1.407035e-95
313.50 1.407035e-95
313.60 1.407035e-95
313.70 1.407035e-95
313.80 1.407035e-95
313.90 1.407035e-95
314.00 1.407035e-95
314.10 1.407035e-95
314.20 1.407035e-95
314.30 1.407035e-95
314.40 1.407035e-95
314.50 1.407035e-95
314.60 1.407035e-95
314.70 1.407035e-95
314.80 1.407035e-95
314.90 1.407035e-95
315.00 1.407035e-95
315.10 1.407035e-95
315.20 1.407035e-95
315.30 1.407035e-95
315.40 1.407035e-95
315.50 1.407035e-95
315.60 1.407035e-95
315.70 1.407035e-95
315.80 1.407035e-95
315.90 1.407035e-95
316.00 1.407035e-95
316.10 1.407035e-95
316.20 1.407035e-95
316.30 1.407035e-95
316.40 1.407035e-95
316.50 1.407035e-95
316.60 1.407035e-95
316.70 1.407035e-95
316.80 1.407035e-95
316.90 1.407035e-95
317.00 1.407035e-95
317.10 1.407035e-95
317.20 1.407035e-95
317.30 1.407035e-95
317.40 1.407035e-95
317.50 1.407035e-95
317.60 1.407035e-95
317.70 1.407035e-95
317.80 1.407035e-95
317.90 1.407035e-95
318.00 1.407035e-95
318.10 1.407035e-95
318.20 1.407035e-95
318.30 1.407035e-95
318.40 1.407035e-95
318.50 1.407035e-95
318.60 1.407035e-95
318.70 1.407035e-95
318.80 1.407035e-95
318.90 1.407035e-95
319.00 1.407035e-95
319.10 1.407035e-95
319.20 1.407035e-95
319.30 1.407035e-95
319.40 1.407035e-95
319.50 1.407035e-95
319.60 1.407035e-95
319.70 1.407035e-95
319.80 1.407035e-95
319.90 1.407035e-95
320.00 1.407035e-95
320.10 1.407035e-95
320.20 1.407035e-95
320.30 1.407035e-95
320.40 1.407035e-95
320.50 1.407035e-95
320.60 1.407035e-95
320.70 1.407035e-95
320.80 1.407035e-95
320.90 1.407035e-95
321.00 1.407035e-95
321.10 1.407035e-95
321.20 1.407035e-95
321.30 1.407035e-95
321.40 1.407035e-95
321.50 1.407035e-95
321.60 1.407035e-95
321.70 1.407035e-95
321.80 1.407035e-95
321.90 1.407035e-95
322.00 1.407035e-95
322.10 1.407035e-95
322.20 1.407035e-95
322.30 1.407035e-95
322.40 1.407035e-95
322.50 1.407035e-95
322.60 1.407035e-95
322.70 1.407035e-95
322.80 1.407035e-95
322.90 1.407035e-95
323.00 1.407035e-95
323.10 1.407035e-95
323.20 1.407035e-95
323.30 1.407035e-95
323.40 1.407035e-95
323.50 1.407035e-95
323.60 1.407035e-95
323.70 1.407035e-95
323.80 1.407035e-95
323.90 1.407035e-95
324.00 1.407035e-95
324.10 1.407035e-95
324.20 1.407035e-95
324.30 1.407035e-95
324.40 1.407035e-95
324.50 1.407035e-95
324.60 1.407035e-95
324.70 1.407035e-95
324.80 1.407035e-95
324.90 1.407035e-95
325.00 1.407035e-95
325.10 1.407035e-95
325.20 1.407035e-95
325.30 1.407035e-95
325.40 1.407035e-95
325.50 1.407035e-95
325.60 1.407035e-95
325.70 1.407035e-95
325.80 1.407035e-95
325.90 1.407035e-95
326.00 1.407035e-95
326.10 1.407035e-95
326.20 1.407035e-95
326.30 1.407035e-95
326.40 1.407035e-95
326.50 1.407035e-95
326.60 1.407035e-95
326.70 1.407035e-95
326.80 1.407035e-95
326.90 1.407035e-95
327.00 1.407035e-95
327.10 1.407035e-95
327.20 1.407035e-95
327.30 1.407035e-95
327.40 1.407035e-95
327.50 1.407035e-95
327.60 1.407035e-95
327.70 1.407035e-95
327.80 1.407035e-95
327.90 1.407035e-95
328.00 1.407035e-95
328.10 1.407035e-95
328.20 1.407035e-95
328.30 1.407035e-95
328.40 1.407035e-95
328.50 1.407035e-95
328.60 1.407035e-95
328.70 1.407035e-95
328.80 1.407035e-95
328.90 1.407035e-95
329.00 1.407035e-95
329.10 1.407035e-95
329.20 1.407035e-95
329.30 1.407035e-95
329.40 1.407035e-95
329.50 1.407035e-95
329.60 1.407035e-95
329.70 1.407035e-95
329.80 1.407035e-95
329.90 1.407035e-95
330.00 1.407035e-95
330.10 1.407035e-95
330.20 1.407035e-95
330.30 1.407035e-95
330.40 1.407035e-95
330.50 1.407035e-95
330.60 1.407035e-95
330.70 1.407035e-95
330.80 1.407035e-95
330.90 1.407035e-95
331.00 1.407035e-95
331.10 1.407035e-95
331.20 1.407035e-95
331.30 1.407035e-95
331.40 1.407035e-95
331.50 1.407035e-95
331.60 1.407035e-95
331.70 1.407035e-95
331.80 1.407035e-95
331.90 1.407035e-95
332.00 1.407035e-95
332.10 1.407035e-95
332.20 1.407035e-95
332.30 1.407035e-95
332.40 1.407035e-95
332.50 1.407035e-95
332.60 1.407035e-95
332.70 1.407035e-95
332.80 1.407035e-95
332.90 1.407035e-95
333.00 1.407035e-95
333.10 1.407035e-95
333.20 1.407035e-95
333.30 1.407035e-95
333.40 1.407035e-95
333.50 1.407035e-95
333.60 1.407035e-95
333.70 1.407035e-95
333.80 1.407035e-95
333.90 1.407035e-95
334.00 1.407035e-95
334.10 1.407035e-95
334.20 1.407035e-95
334.30 1.407035e-95
334.40 1.407035e-95
334.50 1.407035e-95
334.60 1.407035e-95
334.70 1.407035e-95
334.80 1.407035e-95
334.90 1.407035e-95
335.00 1.407035e-95
335.10 1.407035e-95
335.20 1.407035e-95
335.30 1.407035e-95
335.40 1.407035e-95
335.50 1.407035e-95
335.60 1.407035e-95
335.70 1.407035e-95
335.80 1.407035e-95
335.90 1.407035e-95
336.00 1.407035e-95
336.10 1.407035e-95
336.20 1.407035e-95
336.30 1.407035e-95
336.40 1.407035e-95
336.50 1.407035e-95
336.60 1.407035e-95
336.70 1.407035e-95
336.80 1.407035e-95
336.90 1.407035e-95
337.00 1.407035e-95
337.10 1.407035e-95
337.20 1.407035e-95
337.30 1.407035e-95
337.40 1.407035e-95
337.50 1.407035e-95
337.60 1.407035e-95
337.70 1.407035e-95
337.80 1.407035e-95
337.90 1.407035e-95
338.00 1.407035e-95
338.10 1.407035e-95
338.20 1.407035e-95
338.30 1.407035e-95
338.40 1.407035e-95
338.50 1.407035e-95
338.60 1.407035e-95
338.70 1.407035e-95
338.80 1.407035e-95
338.90 1.407035e-95
339.00 1.407035e-95
339.10 1.407035e-95
339.20 1.407035e-95
339.30 1.407035e-95
339.40 1.407035e-95
339.50 1.407035e-95
339.60 1.407035e-95
339.70 1.407035e-95
339.80 1.407035e-95
339.90 1.407035e-95
340.00 1.407035e-95
340.10 1.407035e-95
340.20 1.407035e-95
340.30 1.407035e-95
340.40 1.407035e-95
340.50 1.407035e-95
340.60 1.407035e-95
340.70 1.407035e-95
340.80 1.407035e-95
340.90 1.407035e-95
341.00 1.407035e-95
341.10 1.407035e-95
341.20 1.407035e-95
341.30 1.407035e-95
341.40 1.407035e-95
341.50 1.407035e-95
341.60 1.407035e-95
341.70 1.407035e-95
341.80 1.407035e-95
341.90 1.407035e-95
342.00 1.407035e-95
342.10 1.407035e-95
342.20 1.407035e-95
342.30 1.407035e-95
342.40 1.407035e-95
342.50 1.407035e-95
342.60 1.407035e-95
342.70 1.407035e-95
342.80 1.407035e-95
342.90 1.407035e-95
343.00 1.407035e-95
343.10 1.407035e-95
343.20 1.407035e-95
343.30 1.407035e-95
343.40 1.407035e-95
343.50 1.407035e-95
343.60 1.407035e-95
343.70 1.407035e-95
343.80 1.407035e-95
343.90 1.407035e-95
344.00 1.407035e-95
344.10 1.407035e-95
344.20 1.407035e-95
344.30 1.407035e-95
344.40 1.407035e-95
344.50 1.407035e-95
344.60 1.407035e-95
344.70 1.407035e-95
344.80 1.407035e-95
344.90 1.407035e-95
345.00 1.407035e-95
345.10 1.407035e-95
345.20 1.407035e-95
345.30 1.407035e-95
345.40 1.407035e-95
345.50 1.407035e-95
345.60 1.407035e-95
345.70 1.407035e-95
345.80 1.407035e-95
345.90 1.407035e-95
346.00 1.407035e-95
346.10 1.407035e-95
346.20 1.407035e-95
346.30 1.407035e-95
346.40 1.407035e-95
346.50 1.407035e-95
346.60 1.407035e-95
346.70 1.407035e-95
346.80 1.407035e-95
346.90 1.407035e-95
347.00 1.407035e-95
347.10 1.407035e-95
347.20 1.407035e-95
347.30 1.407035e-95
347.40 1.407035e-95
347.50 1.407035e-95
347.60 1.407035e-95
347.70 1.407035e-95
347.80 1.407035e-95
347.90 1.407035e-95
348.00 1.407035e-95
348.10 1.407035e-95
348.20 1.407035e-95
348.30 1.407035e-95
348.40 1.407035e-95
348.50 1.407035e-95
348.60 1.407035e-95
348.70 1.407035e-95
348.80 1.407035e-95
348.90 1.407035e-95
349.00 1.407035e-95
349.10 1.407035e-95
349.20 1.407035e-95
349.30 1.407035e-95
349.40 1.407035e-95
349.50 1.407035e-95
349.60 1.407035e-95
349.70 1.407035e-95
349.80 1.407035e-95
349.90 1.407035e-95
350.00 1.407035e-95
350.10 1.407035e-95
350.20 1.407035e-95
350.30 1.407035e-95
350.40 1.407035e-95
350.50 1.407035e-95
350.60 1.407035e-95
350.70 1.407035e-95
350.80 1.407035e-95
350.90 1.407035e-95
351.00 1.407035e-95
351.10 1.407035e-95
351.20 1.407035e-95
351.30 1.407035e-95
351.40 1.407035e-95
351.50 1.407035e-95
351.60 1.407035e-95
351.70 1.407035e-95
351.80 1.407035e-95
351.90 1.407035e-95
352.00 1.407035e-95
352.10 1.407035e-95
352.20 1.407035e-95
352.30 1.407035e-95
352.40 1.407035e-95
352.50 1.407035e-95
352.60 1.407035e-95
352.70 1.407035e-95
352.80 1.407035e-95
352.90 1.407035e-95
353.00 1.407035e-95
353.10 1.407035e-95
353.20 1.407035e-95
353.30 1.407035e-95
353.40 1.407035e-95
353.50 1.407035e-95
353.60 1.407035e-95
353.70 1.407035e-95
353.80 1.407035e-95
353.90 1.407035e-95
354.00 1.407035e-95
354.10 1.407035e-95
354.20 1.407035e-95
354.30 1.407035e-95
354.40 1.407035e-95
354.50 1.407035e-95
354.60 1.407035e-95
354.70 1.407035e-95
354.80 1.407035e-95
354.90 1.407035e-95
355.00 1.407035e-95
355.10 1.407035e-95
355.20 1.407035e-95
355.30 1.407035e-95
355.40 1.407035e-95
355.50 1.407035e-95
355.60 1.407035e-95
355.70 1.407035e-95
355.80 1.407035e-95
355.90 1.407035e-95
356.00 1.407035e-95
356.10 1.407035e-95
356.20 1.407035e-95
356.30 1.407035e-95
356.40 1.407035e-95
356.50 1.407035e-95
356.60 1.407035e-95
356.70 1.407035e-95
356.80 1.407035e-95
356.90 1.407035e-95
357.00 1.407035e-95
357.10 1.407035e-95
357.20 1.407035e-95
357.30 1.407035e-95
357.40 1.407035e-95
357.50 1.407035e-95
357.60 1.407035e-95
357.70 1.407035e-95
357.80 1.407035e-95
357.90 1.407035e-95
358.00 1.407035e-95
358.10 1.407035e-95
358.20 1.407035e-95
358.30 1.407035e-95
358.40 1.407035e-95
358.50 1.407035e-95
358.60 1.407035e-95
358.70 1.407035e-95
358.80 1.407035e-95
358.90 1.407035e-95
359.00 1.407035e-95
359.10 1.407035e-95
359.20 1.407035e-95
359.30 1.407035e-95
359.40 1.407035e-95
359.50 1.407035e-95
359.60 1.407035e-95
359.70 1.407035e-95
359.80 1.407035e-95
359.90 1.407035e-95
360.00 1.407035e-95
360.10 1.407035e-95
360.20 1.407035e-95
360.30 1.407035e-95
360.40 1.407035e-95
360.50 1.407035e-95
360.60 1.407035e-95
360.70 1.407035e-95
360.80 1.407035e-95
360.90 1.407035e-95
361.00 1.407035e-95
361.10 1.407035e-95
361.20 1.407035e-95
361.30 1.407035e-95
361.40 1.407035e-95
361.50 1.407035e-95
361.60 1.407035e-95
361.70 1.407035e-95
361.80 1.407035e-95
361.90 1.407035e-95
362.00 1.407035e-95
362.10 1.407035e-95
362.20 1.407035e-95
362.30 1.407035e-95
362.40 1.407035e-95
362.50 1.407035e-95
362.60 1.407035e-95
362.70 1.407035e-95
362.80 1.407035e-95
362.90 1.407035e-95
363.00 1.407035e-95
363.10 1.407035e-95
363.20 1.407035e-95
363.30 1.407035e-95
363.40 1.407035e-95
363.50 1.407035e-95
363.60 1.407035e-95
363.70 1.407035e-95
363.80 1.407035e-95
363.90 1.407035e-95
364.00 1.407035e-95
364.10 1.407035e-95
364.20 1.407035e-95
364.30 1.407035e-95
364.40 1.407035e-95
364.50 1.407035e-95
364.60 1.407035e-95
364.70 1.407035e-95
364.80 1.407035e-95
364.90 1.407035e-95
365.00 1.407035e-95
365.10 1.407035e-95
365.20 1.407035e-95
365.30 1.407035e-95
365.40 1.407035e-95
365.50 1.407035e-95
365.60 1.407035e-95
365.70 1.407035e-95
365.80 1.407035e-95
365.90 1.407035e-95
366.00 1.407035e-95
366.10 1.407035e-95
366.20 1.407035e-95
366.30 1.407035e-95
366.40 1.407035e-95
366.50 1.407035e-95
366.60 1.407035e-95
366.70 1.407035e-95
366.80 1.407035e-95
366.90 1.407035e-95
367.00 1.407035e-95
367.10 1.407035e-95
367.20 1.407035e-95
367.30 1.407035e-95
367.40 1.407035e-95
367.50 1.407035e-95
367.60 1.407035e-95
367.70 1.407035e-95
367.80 1.407035e-95
367.90 1.407035e-95
368.00 1.407035e-95
368.10 1.407035e-95
368.20 1.407035e-95
368.30 1.407035e-95
368.40 1.407035e-95
368.50 1.407035e-95
368.60 1.407035e-95
368.70 1.407035e-95
368.80 1.407035e-95
368.90 1.407035e-95
369.00 1.407035e-95
369.10 1.407035e-95
369.20 1.407035e-95
369.30 1.407035e-95
369.40 1.407035e-95
369.50 1.407035e-95
369.60 1.407035e-95
369.70 1.407035e-95
369.80 1.407035e-95
369.90 1.407035e-95
370.00 1.407035e-95
370.10 1.407035e-95
370.20 1.407035e-95
370.30 1.407035e-95
370.40 1.407035e-95
370.50 1.407035e-95
370.60 1.407035e-95
370.70 1.407035e-95
370.80 1.407035e-95
370.90 1.407035e-95
371.00 1.407035e-95
371.10 1.407035e-95
371.20 1.407035e-95
371.30 1.407035e-95
371.40 1.407035e-95
371.50 1.407035e-95
371.60 1.407035e-95
371.70 1.407035e-95
371.80 1.407035e-95
371.90 1.407035e-95
372.00 1.407035e-95
372.10 1.407035e-95
372.20 1.407035e-95
372.30 1.407035e-95
372.40 1.407035e-95
372.50 1.407035e-95
372.60 1.407035e-95
372.70 1.407035e-95
372.80 1.407035e-95
372.90 1.407035e-95
373.00 1.407035e-95
373.10 1.407035e-95
373.20 1.407035e-95
373.30 1.407035e-95
373.40 1.407035e-95
373.50 1.407035e-95
373.60 1.407035e-95
373.70 1.407035e-95
373.80 1.407035e-95
373.90 1.407035e-95
374.00 1.407035e-95
374.10 1.407035e-95
374.20 1.407035e-95
374.30 1.407035e-95
374.40 1.407035e-95
374.50 1.407035e-95
374.60 1.407035e-95
374.70 1.407035e-95
374.80 1.407035e-95
374.90 1.407035e-95
375.00 1.407035e-95
375.10 1.407035e-95
375.20 1.407035e-95
375.30 1.407035e-95
375.40 1.407035e-95
375.50 1.407035e-95
375.60 1.407035e-95
375.70 1.407035e-95
375.80 1.407035e-95
375.90 1.407035e-95
376.00 1.407035e-95
376.10 1.407035e-95
376.20 1.407035e-95
376.30 1.407035e-95
376.40 1.407035e-95
376.50 1.407035e-95
376.60 1.407035e-95
376.70 1.407035e-95
376.80 1.407035e-95
376.90 1.407035e-95
377.00 1.407035e-95
377.10 1.407035e-95
377.20 1.407035e-95
377.30 1.407035e-95
377.40 1.407035e-95
377.50 1.407035e-95
377.60 1.407035e-95
377.70 1.407035e-95
377.80 1.407035e-95
377.90 1.407035e-95
378.00 1.407035e-95
378.10 1.407035e-95
378.20 1.407035e-95
378.30 1.407035e-95
378.40 1.407035e-95
378.50 1.407035e-95
378.60 1.407035e-95
378.70 1.407035e-95
378.80 1.407035e-95
378.90 1.407035e-95
379.00 1.407035e-95
379.10 1.407035e-95
379.20 1.407035e-95
379.30 1.407035e-95
379.40 1.407035e-95
379.50 1.407035e-95
379.60 1.407035e-95
379.70 1.407035e-95
379.80 1.407035e-95
379.90 1.407035e-95
380.00 1.407035e-95
380.10 1.407035e-95
380.20 1.407035e-95
380.30 1.407035e-95
380.40 1.407035e-95
380.50 1.407035e-95
380.60 1.407035e-95
380.70 1.407035e-95
380.80 1.407035e-95
380.90 1.407035e-95
381.00 1.407035e-95
381.10 1.407035e-95
381.20 1.407035e-95
381.30 1.407035e-95
381.40 1.407035e-95
381.50 1.407035e-95
381.60 1.407035e-95
381.70 1.407035e-95
381.80 1.407035e-95
381.90 1.407035e-95
382.00 1.407035e-95
382.10 1.407035e-95
382.20 1.407035e-95
382.30 1.407035e-95
382.40 1.407035e-95
382.50 1.407035e-95
382.60 1.407035e-95
382.70 1.407035e-95
382.80 1.407035e-95
382.90 1.407035e-95
383.00 1.407035e-95
383.10 1.407035e-95
383.20 1.407035e-95
383.30 1.407035e-95
383.40 1.407035e-95
383.50 1.407035e-95
383.60 1.407035e-95
383.70 1.407035e-95
383.80 1.407035e-95
383.90 1.407035e-95
384.00 1.407035e-95
384.10 1.407035e-95
384.20 1.407035e-95
384.30 1.407035e-95
384.40 1.407035e-95
384.50 1.407035e-95
384.60 1.407035e-95
384.70 1.407035e-95
384.80 1.407035e-95
384.90 1.407035e-95
385.00 1.407035e-95
385.10 1.407035e-95
385.20 1.407035e-95
385.30 1.407035e-95
385.40 1.407035e-95
385.50 1.407035e-95
385.60 1.407035e-95
385.70 1.407035e-95
385.80 1.407035e-95
385.90 1.407035e-95
386.00 1.407035e-95
386.10 1.407035e-95
386.20 1.407035e-95
386.30 1.407035e-95
386.40 1.407035e-95
386.50 1.407035e-95
386.60 1.407035e-95
386.70 1.407035e-95
386.80 1.407035e-95
386.90 1.407035e-95
387.00 1.407035e-95
387.10 1.407035e-95
387.20 1.407035e-95
387.30 1.407035e-95
387.40 1.407035e-95
387.50 1.407035e-95
387.60 1.407035e-95
387.70 1.407035e-95
387.80 1.407035e-95
387.90 1.407035e-95
388.00 1.407035e-95
388.10 1.407035e-95
388.20 1.407035e-95
388.30 1.407035e-95
388.40 1.407035e-95
388.50 1.407035e-95
388.60 1.407035e-95
388.70 1.407035e-95
388.80 1.407035e-95
388.90 1.407035e-95
389.00 1.407035e-95
389.10 1.407035e-95
389.20 1.407035e-95
389.30 1.407035e-95
389.40 1.407035e-95
389.50 1.407035e-95
389.60 1.407035e-95
389.70 1.407035e-95
389.80 1.407035e-95
389.90 1.407035e-95
390.00 1.407035e-95
390.10 1.407035e-95
390.20 1.407035e-95
390.30 1.407035e-95
390.40 1.407035e-95
390.50 1.407035e-95
390.60 1.407035e-95
390.70 1.407035e-95
390.80 1.407035e-95
390.90 1.407035e-95
391.00 1.407035e-95
391.10 1.407035e-95
391.20 1.407035e-95
391.30 1.407035e-95
391.40 1.407035e-95
391.50 1.407035e-95
391.60 1.407035e-95
391.70 1.407035e-95
391.80 1.407035e-95
391.90 1.407035e-95
392.00 1.407035e-95
392.10 1.407035e-95
392.20 1.407035e-95
392.30 1.407035e-95
392.40 1.407035e-95
392.50 1.407035e-95
392.60 1.407035e-95
392.70 1.407035e-95
392.80 1.407035e-95
392.90 1.407035e-95
393.00 1.407035e-95
393.10 1.407035e-95
393.20 1.407035e-95
393.30 1.407035e-95
393.40 1.407035e-95
393.50 1.407035e-95
393.60 1.407035e-95
393.70 1.407035e-95
393.80 1.407035e-95
393.90 1.407035e-95
394.00 1.407035e-95
394.10 1.407035e-95
394.20 1.407035e-95
394.30 1.407035e-95
394.40 1.407035e-95
394.50 1.407035e-95
394.60 1.407035e-95
394.70 1.407035e-95
394.80 1.407035e-95
394.90 1.407035e-95
395.00 0.004308514
395.10 0.008052328
395.20 0.01175814
395.30 0.01596371
395.40 0.02122908
395.50 0.02808566
395.60 0.03668087
395.70 0.04676248
395.80 0.0578319
395.90 0.06946127
396.00 0.08146183
396.10 0.09354966
396.20 0.1052528
396.30 0.1159572
396.40 0.1250683
396.50 0.1321393
396.60 0.1369016
396.70 0.1393622
396.80 0.1397238
396.90 0.1397238
397.00 0.1397238
397.10 0.1397238
397.20 0.1397238
397.30 0.1411128
397.40 0.1442978
397.50 0.148923
397.60 0.1545259
397.70 0.160587
397.80 0.1666581
397.90 0.1724149
398.00 0.1776207
398.10 0.1821565
398.20 0.1862413
398.30 0.1904419
398.40 0.1952792
398.50 0.201044
398.60 0.2078348
398.70 0.2154016
398.80 0.2231358
398.90 0.230415
399.00 0.2368028
399.10 0.2421207
399.20 0.2464869
399.30 0.2502019
399.40 0.2536344
399.50 0.2572089
399.60 0.2612149
399.70 0.2655125
399.80 0.2696865
399.90 0.2731785
400.00 0.2755163
400.10 0.2768234
400.20 0.2777294
400.30 0.2789509
400.40 0.2811193
400.50 0.2846665
400.60 0.2896507
400.70 0.2958136
400.80 0.3026945
400.90 0.3095751
401.00 0.3156771
401.10 0.3204495
401.20 0.3236827
401.30 0.3254893
401.40 0.325867
401.50 0.325867
401.60 0.325867
401.70 0.325867
401.80 0.325867
401.90 0.325867
402.00 0.325867
402.10 0.325867
402.20 0.3261331
402.30 0.3286512
402.40 0.3332746
402.50 0.3394789
402.60 0.3464643
402.70 0.3533689
402.80 0.359859
402.90 0.3661996
403.00 0.3725718
403.10 0.3787147
403.20 0.3841674
403.30 0.3886968
403.40 0.3923651
403.50 0.3953248
403.60 0.3976026
403.70 0.3992023
403.80 0.4003008
403.90 0.4012785
404.00 0.4027215
404.10 0.4052314
404.20 0.4091516
404.30 0.4145206
404.40 0.4211741
404.50 0.4288018
404.60 0.4369265
404.70 0.4449361
404.80 0.4523306
404.90 0.4587866
405.00 0.4597832
405.10 0.4602351
405.20 0.4599364
405.30 0.4587573
405.40 0.4563886
405.50 0.4523588
405.60 0.4465213
405.70 0.4390587
405.80 0.4303882
405.90 0.4209561
406.00 0.4110193
406.10 0.4009254
406.20 0.3911671
406.30 0.382514
406.40 0.3758537
406.50 0.3717623
406.60 0.3704878
406.70 0.3720723
406.80 0.376337
406.90 0.3812985
407.00 0.3861582
407.10 0.3904615
407.20 0.3938433
407.30 0.394792
407.40 0.3930885
407.50 0.3893851
407.60 0.3843654
407.70 0.3785569
407.80 0.3724858
407.90 0.366729
408.00 0.3615232
408.10 0.3569873
408.20 0.3529026
408.30 0.348702
408.40 0.3438647
408.50 0.3380999
408.60 0.3313091
408.70 0.3251356
408.80 0.3198628
408.90 0.315172
409.00 0.3105171
409.10 0.3052329
409.20 0.3008668
409.30 0.2971517
409.40 0.2937192
409.50 0.2901447
409.60 0.2861387
409.70 0.2818412
409.80 0.2776671
409.90 0.2741752
410.00 0.273133
410.10 0.2739922
410.20 0.2758245
410.30 0.2777288
410.40 0.2789904
410.50 0.2792739
410.60 0.2786207
410.70 0.2772347
410.80 0.2753109
410.90 0.2730253
411.00 0.2704917
411.10 0.2676738
411.20 0.2645946
411.30 0.2627879
411.40 0.2624103
411.50 0.2624103
411.60 0.2636262
411.70 0.2671348
411.80 0.2732444
411.90 0.2818473
412.00 0.2925999
412.10 0.3051126
412.20 0.3186455
412.30 0.3307946
412.40 0.3413047
412.50 0.3502202
412.60 0.3578109
412.70 0.3643999
412.80 0.3698897
412.90 0.3737826
413.00 0.3758894
413.10 0.3766704
413.20 0.3768978
413.30 0.377186
413.40 0.3777612
413.50 0.378561
413.60 0.3796148
413.70 0.3811633
413.80 0.3834673
413.90 0.3865613
414.00 0.3900084
414.10 0.3930575
414.20 0.3950124
414.30 0.3952654
414.40 0.3933335
414.50 0.388971
414.60 0.3821549
414.70 0.3741453
414.80 0.3667507
414.90 0.3602947
415.00 0.3549897
415.10 0.350794
415.20 0.3473869
415.30 0.3443604
415.40 0.3416917
415.50 0.3405139
415.60 0.3401688
415.70 0.3400997
415.80 0.339971
415.90 0.3397425
416.00 0.3396901
416.10 0.3400938
416.20 0.3411059
416.30 0.3425321
416.40 0.3436763
416.50 0.343735
416.60 0.3420153
416.70 0.3379702
416.80 0.3333439
416.90 0.3283823
417.00 0.3235226
417.10 0.3192193
417.20 0.3178044
417.30 0.3205588
417.40 0.3268817
417.50 0.3356107
417.60 0.3452706
417.70 0.354404
417.80 0.3619347
417.90 0.3673958
418.00 0.3711858
418.10 0.3740944
418.20 0.3771013
418.30 0.3811145
418.40 0.3867432
418.50 0.3942393
418.60 0.4034883
418.70 0.4126762
418.80 0.4215287
418.90 0.4303337
419.00 0.4395227
419.10 0.4495205
419.20 0.4582096
419.30 0.4650428
419.40 0.4697427
419.50 0.4724859
419.60 0.4737908
419.70 0.4744233
419.80 0.4752499
419.90 0.4768842
420.00 0.4782305
420.10 0.4795969
420.20 0.4810792
420.30 0.4825938
420.40 0.4838832
420.50 0.4845745
420.60 0.4845606
420.70 0.484399
420.80 0.4850221
420.90 0.4874596
421.00 0.4926706
421.10 0.5009235
421.20 0.5114829
421.30 0.5218496
421.40 0.5315318
421.50 0.5406494
421.60 0.5481845
421.70 0.553285
421.80 0.5559131
421.90 0.5564658
422.00 0.5555167
422.10 0.5532843
422.20 0.5497742
422.30 0.5448826
422.40 0.5384259
422.50 0.5306248
422.60 0.5222337
422.70 0.5142001
422.80 0.5072181
422.90 0.501573
423.00 0.4973242
423.10 0.4944171
423.20 0.4927189
423.30 0.4918188
423.40 0.4911628
423.50 0.4904279
423.60 0.4894397
423.70 0.4879647
423.80 0.4857637
423.90 0.4826916
424.00 0.4788213
424.10 0.4744339
424.20 0.4699281
424.30 0.4658989
424.40 0.4629914
424.50 0.4616686
424.60 0.4623679
424.70 0.4644637
424.80 0.4667152
424.90 0.4692776
425.00 0.4723347
425.10 0.4759703
425.20 0.4800823
425.30 0.4844636
425.40 0.4887493
425.50 0.4917054
425.60 0.4940853
425.70 0.4966627
425.80 0.4997486
425.90 0.5029938
426.00 0.5056523
426.10 0.5071138
426.20 0.5071766
426.30 0.5060652
426.40 0.5044971
426.50 0.5034892
426.60 0.5040699
426.70 0.507063
426.80 0.5108872
426.90 0.5154516
427.00 0.5204473
427.10 0.5254854
427.20 0.5283263
427.30 0.5276787
427.40 0.5238575
427.50 0.5176942
427.60 0.5105276
427.70 0.5039144
427.80 0.4990153
427.90 0.4962447
428.00 0.4953259
428.10 0.4954027
428.20 0.4953506
428.30 0.4943291
428.40 0.4918199
428.50 0.4874581
428.60 0.4811413
428.70 0.4731409
428.80 0.4640669
428.90 0.4548438
429.00 0.4463519
429.10 0.4391018
429.20 0.4333821
429.30 0.4293685
429.40 0.427094
429.50 0.4262984
429.60 0.4263138
429.70 0.4261076
429.80 0.425281
429.90 0.4236467
430.00 0.4210048
430.10 0.417472
430.20 0.4134895
430.30 0.4103661
430.40 0.4078777
430.50 0.405555
430.60 0.402685
430.70 0.3982959
430.80 0.3927156
430.90 0.3856831
431.00 0.3769037
431.10 0.3666963
431.20 0.3559829
431.30 0.3457657
431.40 0.3382618
431.50 0.3330638
431.60 0.3292657
431.70 0.325823
431.80 0.3218228
431.90 0.3165117
432.00 0.3094364
432.10 0.3007869
432.20 0.2913123
432.30 0.2819032
432.40 0.2735284
432.50 0.2668539
432.60 0.2620435
432.70 0.2589399
432.80 0.2572653
432.90 0.2566829
433.00 0.2567632
433.10 0.257026
433.20 0.2571247
433.30 0.2570882
433.40 0.2572893
433.50 0.2580992
433.60 0.2597584
433.70 0.2624007
433.80 0.2657814
433.90 0.269235
434.00 0.2719492
434.10 0.2732822
434.20 0.2730021
434.30 0.2714093
434.40 0.2695952
434.50 0.2676528
434.60 0.2656449
434.70 0.263952
434.80 0.2628181
434.90 0.2617895
435.00 0.2602618
435.10 0.2577897
435.20 0.2543607
435.30 0.2504259
435.40 0.2466387
435.50 0.2436709
435.60 0.241811
435.70 0.2407803
435.80 0.240172
435.90 0.2396383
436.00 0.2389049
436.10 0.2377934
436.20 0.2361338
436.30 0.2337677
436.40 0.2317408
436.50 0.2297105
436.60 0.2273617
436.70 0.2243686
436.80 0.2205444
436.90 0.21598
437.00 0.2109843
437.10 0.2059462
437.20 0.2013953
437.30 0.1976541
437.40 0.1940845
437.50 0.1905971
437.60 0.1875205
437.70 0.1847478
437.80 0.1821162
437.90 0.1794256
438.00 0.1765545
438.10 0.173569
438.20 0.1706142
438.30 0.1696468
438.40 0.1705993
438.50 0.1731659
438.60 0.1769562
438.70 0.1815711
438.80 0.1866281
438.90 0.1914402
439.00 0.1952081
439.10 0.1974795
439.20 0.1983302
439.30 0.198279
439.40 0.1978134
439.50 0.1973235
439.60 0.1974115
439.70 0.198768
439.80 0.2011665
439.90 0.2042386
440.00 0.2079702
440.10 0.2122194
440.20 0.2165271
440.30 0.2196946
440.40 0.2221867
440.50 0.2247178
440.60 0.2279765
440.70 0.2324166
440.80 0.2371352
440.90 0.2420426
441.00 0.2472442
441.10 0.2527782
441.20 0.2586946
441.30 0.2650433
441.40 0.2701347
441.50 0.2743577
441.60 0.2784386
441.70 0.2829764
441.80 0.2882343
441.90 0.2942549
442.00 0.300914
442.10 0.3079889
442.20 0.3152079
442.30 0.3224205
442.40 0.3294123
442.50 0.3359105
442.60 0.341667
442.70 0.3464913
442.80 0.3504216
442.90 0.3536941
443.00 0.3565887
443.10 0.3594746
443.20 0.3626325
443.30 0.3661075
443.40 0.3697636
443.50 0.3733852
443.60 0.3766287
443.70 0.3790513
443.80 0.3806028
443.90 0.3817019
444.00 0.382901
444.10 0.3845499
444.20 0.3865576
444.30 0.3884301
444.40 0.3891274
444.50 0.3891274
444.60 0.3891274
444.70 0.3887245
444.80 0.3876069
444.90 0.3860731
445.00 0.3845437
445.10 0.3842658
445.20 0.3861452
445.30 0.3899129
445.40 0.3948687
445.50 0.4000837
445.60 0.4048618
445.70 0.4089577
445.80 0.4124558
445.90 0.4157948
446.00 0.4195652
446.10 0.424139
446.20 0.4296191
446.30 0.4359729
446.40 0.4419555
446.50 0.4476629
446.60 0.4530362
446.70 0.4579637
446.80 0.4625326
446.90 0.466903
447.00 0.4710173
447.10 0.4747131
447.20 0.4776098
447.30 0.4795306
447.40 0.4813661
447.50 0.4835299
447.60 0.4860731
447.70 0.4893525
447.80 0.4935364
447.90 0.4987343
448.00 0.5049544
448.10 0.5118973
448.20 0.5189032
448.30 0.5233892
448.40 0.5252068
448.50 0.5249529
448.60 0.5235206
448.70 0.5217603
448.80 0.5203354
448.90 0.5198585
449.00 0.5207755
449.10 0.5232995
449.20 0.5273332
449.30 0.5324241
449.40 0.5380538
449.50 0.5438673
449.60 0.5495118
449.70 0.554495
449.80 0.558433
449.90 0.5612389
450.00 0.5630926
450.10 0.5644896
450.20 0.5660465
450.30 0.5682221
450.40 0.571328
450.50 0.5755683
450.60 0.5809394
450.70 0.5871979
450.80 0.5940074
450.90 0.6010999
451.00 0.6083969
451.10 0.6159858
451.20 0.6238077
451.30 0.6315059
451.40 0.6385785
451.50 0.6445132
451.60 0.648949
451.70 0.6519087
451.80 0.6536859
451.90 0.6546792
452.00 0.6553765
452.10 0.6562671
452.20 0.6576433
452.30 0.6595586
452.40 0.662095
452.50 0.6653029
452.60 0.6691159
452.70 0.67336
452.80 0.6777417
452.90 0.6819181
453.00 0.6855266
453.10 0.6881623
453.20 0.6894986
453.30 0.6894499
453.40 0.6882573
453.50 0.686618
453.60 0.6856518
453.70 0.6864455
453.80 0.6894979
453.90 0.6948253
454.00 0.702271
454.10 0.7115957
454.20 0.722558
454.30 0.7347972
454.40 0.7476907
454.50 0.7601582
454.60 0.7711343
454.70 0.780609
454.80 0.7887269
454.90 0.7955248
455.00 0.800924
455.10 0.8040413
455.20 0.8041703
455.30 0.8016511
455.40 0.7972793
455.50 0.7920349
455.60 0.7866849
455.70 0.7817144
455.80 0.7775056
455.90 0.7742208
456.00 0.7716897
456.10 0.7696273
456.20 0.7678875
456.30 0.7664694
456.40 0.7653641
456.50 0.7645708
456.60 0.7643278
456.70 0.7649288
456.80 0.7663289
456.90 0.7683075
457.00 0.7710149
457.10 0.7750306
457.20 0.7809611
457.30 0.7890517
457.40 0.7991596
457.50 0.8108066
457.60 0.8230723
457.70 0.8348956
457.80 0.8454182
457.90 0.8540645
458.00 0.8605708
458.10 0.8651136
458.20 0.8683876
458.30 0.8712845
458.40 0.8744543
458.50 0.8781399
458.60 0.882282
458.70 0.8866686
458.80 0.8908593
458.90 0.8943175
459.00 0.8967021
459.10 0.8978737
459.20 0.8979203
459.30 0.8972619
459.40 0.8965898
459.50 0.8965059
459.60 0.8973711
459.70 0.8994314
459.80 0.9027567
459.90 0.9071454
460.00 0.9122024
460.10 0.9174434
460.20 0.9225513
460.30 0.9274607
460.40 0.9319709
460.50 0.9356785
460.60 0.9382786
460.70 0.9395897
460.80 0.9394109
460.90 0.9376071
461.00 0.9342002
461.10 0.9294323
461.20 0.9238985
461.30 0.9184315
461.40 0.9138371
461.50 0.9107255
461.60 0.9092739
461.70 0.909118
461.80 0.9097752
461.90 0.9109723
462.00 0.9125558
462.10 0.9144992
462.20 0.9169027
462.30 0.9198244
462.40 0.9230586
462.50 0.9262236
462.60 0.9288239
462.70 0.9302026
462.80 0.9297255
462.90 0.9271255
463.00 0.9227436
463.10 0.9174199
463.20 0.9122627
463.30 0.9084239
463.40 0.9068474
463.50 0.907754
463.60 0.9105395
463.70 0.9141821
463.80 0.9176329
463.90 0.9199458
464.00 0.9202962
464.10 0.9183365
464.20 0.9142425
464.30 0.9084542
464.40 0.9015982
464.50 0.8945617
464.60 0.8883057
464.70 0.8834441
464.80 0.8802411
464.90 0.8789625
465.00 0.8798193
465.10 0.8827699
465.20 0.8876198
465.30 0.8938473
465.40 0.9006813
465.50 0.9074568
465.60 0.9138295
465.70 0.9197771
465.80 0.9254569
465.90 0.931116
466.00 0.9370151
466.10 0.9433277
466.20 0.9499815
466.30 0.9566723
466.40 0.9630416
466.50 0.968835
466.60 0.9739347
466.70 0.9784815
466.80 0.9827037
466.90 0.9867159
467.00 0.9904765
467.10 0.9935939
467.20 0.9954976
467.30 0.9957367
467.40 0.9940698
467.50 0.9906063
467.60 0.9857263
467.70 0.979903
467.80 0.9736259
467.90 0.9673153
468.00 0.9613095
468.10 0.9558558
468.20 0.9511451
468.30 0.9471226
468.40 0.9434655
468.50 0.9400489
468.60 0.9369142
468.70 0.9339849
468.80 0.9312017
468.90 0.9285724
469.00 0.9262624
469.10 0.9246093
469.20 0.923877
469.30 0.9241174
469.40 0.9250987
469.50 0.9265025
469.60 0.9282165
469.70 0.9302988
469.80 0.9328438
469.90 0.9359175
470.00 0.9394786
470.10 0.9433452
470.20 0.9470535
470.30 0.9499105
470.40 0.9514018
470.50 0.9513285
470.60 0.9497589
470.70 0.9470626
470.80 0.9438036
470.90 0.9404365
471.00 0.9371021
471.10 0.9337231
471.20 0.9300944
471.30 0.925949
471.40 0.9211006
471.50 0.9154837
471.60 0.9092285
471.70 0.9027322
471.80 0.8963186
471.90 0.8899699
472.00 0.8835008
472.10 0.8766164
472.20 0.8689969
472.30 0.860566
472.40 0.8516184
472.50 0.842683
472.60 0.8344196
472.70 0.8276593
472.80 0.8232598
472.90 0.8217453
473.00 0.82301
473.10 0.8263192
473.20 0.830623
473.30 0.834803
473.40 0.8376437
473.50 0.8380561
473.60 0.8353847
473.70 0.829549
473.80 0.8211116
473.90 0.8111289
474.00 0.800963
474.10 0.7918995
474.20 0.7848045
474.30 0.7801746
474.40 0.7783438
474.50 0.779299
474.60 0.7822995
474.70 0.7862524
474.80 0.7902311
474.90 0.793462
475.00 0.7955816
475.10 0.7966654
475.20 0.7968476
475.30 0.79635
475.40 0.7953855
475.50 0.7939232
475.60 0.7918457
475.70 0.7891126
475.80 0.7856587
475.90 0.7814422
476.00 0.776575
476.10 0.7712653
476.20 0.7658012
476.30 0.7606014
476.40 0.7560237
476.50 0.7521638
476.60 0.7488246
476.70 0.7456233
476.80 0.7422895
476.90 0.73871
477.00 0.7346866
477.10 0.7300442
477.20 0.7247909
477.30 0.7190807
477.40 0.7132199
477.50 0.7075276
477.60 0.7023063
477.70 0.6979
477.80 0.694622
477.90 0.6928539
478.00 0.6931003
478.10 0.6956659
478.20 0.7003817
478.30 0.70671
478.40 0.7139431
478.50 0.7212227
478.60 0.7276593
478.70 0.7325585
478.80 0.7356394
478.90 0.7370851
479.00 0.7372359
479.10 0.7364583
479.20 0.7350997
479.30 0.7331767
479.40 0.7302963
479.50 0.7258995
479.60 0.719434
479.70 0.7106342
479.80 0.699699
479.90 0.6871016
480.00 0.6733997
480.10 0.6591965
480.20 0.6450666
480.30 0.631588
480.40 0.6194567
480.50 0.609253
480.60 0.6014234
480.70 0.596454
480.80 0.5948435
480.90 0.5969925
481.00 0.6030185
481.10 0.6125503
481.20 0.6246774
481.30 0.63821
481.40 0.6520362
481.50 0.665225
481.60 0.6770187
481.70 0.6869347
481.80 0.6948693
481.90 0.7012171
482.00 0.7066158
482.10 0.7116591
482.20 0.7168394
482.30 0.7224253
482.40 0.728469
482.50 0.7348661
482.60 0.7413846
482.70 0.7476499
482.80 0.7532098
482.90 0.7577885
483.00 0.7614576
483.10 0.7644477
483.20 0.7669353
483.30 0.7691148
483.40 0.7712946
483.50 0.7738601
483.60 0.7771741
483.70 0.7814933
483.80 0.7868181
483.90 0.7929158
484.00 0.79944
484.10 0.8059154
484.20 0.811802
484.30 0.8165443
484.40 0.8195126
484.50 0.8202744
484.60 0.819017
484.70 0.8163163
484.80 0.8128217
484.90 0.8093834
485.00 0.8067434
485.10 0.8053359
485.20 0.805564
485.30 0.8077106
485.40 0.8117709
485.50 0.8175394
485.60 0.8246794
485.70 0.8327063
485.80 0.8410823
485.90 0.8492661
486.00 0.8567167
486.10 0.8630625
486.20 0.8680643
486.30 0.8714693
486.40 0.8732759
486.50 0.8738812
486.60 0.8738662
486.70 0.8737706
486.80 0.8740731
486.90 0.8751419
487.00 0.877125
487.10 0.8800653
487.20 0.8839915
487.30 0.8888259
487.40 0.8942432
487.50 0.8997982
487.60 0.9052323
487.70 0.9104421
487.80 0.915323
487.90 0.9195362
488.00 0.9224695
488.10 0.9237403
488.20 0.9233789
488.30 0.9217875
488.40 0.9197126
488.50 0.9178862
488.60 0.916878
488.70 0.9171355
488.80 0.9189157
488.90 0.9221891
489.00 0.9265544
489.10 0.9313378
489.20 0.9358188
489.30 0.9396307
489.40 0.9430795
489.50 0.9467212
489.60 0.9509642
489.70 0.9561309
489.80 0.9623053
489.90 0.9693381
490.00 0.9768932
490.10 0.9846324
490.20 0.9923792
490.30 0.9999271
490.40 1.006952
490.50 1.01312
490.60 1.018073
490.70 1.021348
490.80 1.022226
490.90 1.019904
491.00 1.013843
491.10 1.003793
491.20 0.9899829
491.30 0.9731971
491.40 0.9546241
491.50 0.9360866
491.60 0.91853
491.70 0.9026024
491.80 0.8896212
491.90 0.8803424
492.00 0.8747121
492.10 0.8721358
492.20 0.8716171
492.30 0.8719528
492.40 0.8719048
492.50 0.8705433
492.60 0.8674814
492.70 0.8629273
492.80 0.857555
492.90 0.8521218
493.00 0.8472315
493.10 0.843354
493.20 0.8407283
493.30 0.8392651
493.40 0.8387042
493.50 0.8387108
493.60 0.8389509
493.70 0.8392338
493.80 0.8396715
493.90 0.8406133
494.00 0.8424377
494.10 0.8454493
494.20 0.8497901
494.30 0.8554324
494.40 0.8621928
494.50 0.8695682
494.60 0.8768005
494.70 0.8832084
494.80 0.8882477
494.90 0.8913703
495.00 0.8922597
495.10 0.8910418
495.20 0.8881551
495.30 0.8840977
495.40 0.879329
495.50 0.8743085
495.60 0.8694208
495.70 0.8650043
495.80 0.8614619
495.90 0.8592161
496.00 0.8585231
496.10 0.8594247
496.20 0.8620189
496.30 0.8665338
496.40 0.8729825
496.50 0.8810941
496.60 0.8904249
496.70 0.9004587
496.80 0.9106229
496.90 0.9203931
497.00 0.9294657
497.10 0.9375768
497.20 0.9442863
497.30 0.9492249
497.40 0.9524407
497.50 0.9543155
497.60 0.9552698
497.70 0.9558164
497.80 0.9566316
497.90 0.9582873
498.00 0.9610471
498.10 0.9647703
498.20 0.9689823
498.30 0.9729308
498.40 0.9758037
498.50 0.9771978
498.60 0.9772521
498.70 0.9764518
498.80 0.9753154
498.90 0.9742998
499.00 0.9738501
499.10 0.9742694
499.20 0.9757498
499.30 0.9784022
499.40 0.9820257
499.50 0.986242
499.60 0.9906288
499.70 0.9946296
499.80 0.997689
499.90 0.9994575
500.00 1
500.10 0.9996153
500.20 0.9987584
500.30 0.998054
500.40 0.9981104
500.50 0.9994596
500.60 1.002343
500.70 1.006628
500.80 1.012066
500.90 1.018434
501.00 1.025662
501.10 1.034034
501.20 1.043978
501.30 1.055627
501.40 1.068622
501.50 1.081882
501.60 1.095096
501.70 1.108047
501.80 1.119616
501.90 1.128872
502.00 1.135443
502.10 1.139527
502.20 1.141833
502.30 1.143317
502.40 1.144959
502.50 1.14751
502.60 1.151323
502.70 1.156356
502.80 1.162112
502.90 1.167878
503.00 1.172941
503.10 1.176655
503.20 1.178647
503.30 1.178998
503.40 1.178106
503.50 1.176555
503.60 1.175071
503.70 1.174392
503.80 1.174968
503.90 1.176748
504.00 1.179194
504.10 1.181383
504.20 1.182402
504.30 1.181606
504.40 1.178721
504.50 1.174106
504.60 1.168714
504.70 1.163732
504.80 1.160237
504.90 1.158937
505.00 1.159872
505.10 1.162361
505.20 1.165198
505.30 1.167107
505.40 1.167147
505.50 1.164922
505.60 1.160584
505.70 1.154714
505.80 1.14814
505.90 1.141678
506.00 1.136032
506.10 1.13165
506.20 1.128635
506.30 1.126739
506.40 1.125534
506.50 1.124579
506.60 1.123537
506.70 1.122154
506.80 1.120259
506.90 1.117986
507.00 1.115804
507.10 1.114316
507.20 1.114033
507.30 1.115188
507.40 1.117554
507.50 1.120558
507.60 1.12356
507.70 1.126027
507.80 1.127593
507.90 1.128228
508.00 1.128263
508.10 1.128173
508.20 1.128566
508.30 1.13003
508.40 1.132705
508.50 1.136136
508.60 1.139643
508.70 1.142761
508.80 1.14536
508.90 1.147629
509.00 1.150033
509.10 1.153112
509.20 1.157144
509.30 1.161903
509.40 1.166813
509.50 1.171301
509.60 1.174958
509.70 1.177593
509.80 1.179412
509.90 1.180952
510.00 1.182749
510.10 1.185079
510.20 1.187889
510.30 1.190835
510.40 1.193308
510.50 1.194677
510.60 1.194841
510.70 1.194225
510.80 1.193424
510.90 1.193174
511.00 1.194037
511.10 1.196061
511.20 1.19874
511.30 1.201397
511.40 1.203485
511.50 1.204585
511.60 1.204561
511.70 1.203633
511.80 1.202278
511.90 1.201089
512.00 1.200311
512.10 1.199734
512.20 1.198963
512.30 1.197549
512.40 1.195133
512.50 1.191512
512.60 1.186736
512.70 1.181117
512.80 1.175165
512.90 1.169458
513.00 1.164502
513.10 1.160706
513.20 1.158276
513.30 1.157121
513.40 1.157054
513.50 1.158033
513.60 1.160016
513.70 1.162697
513.80 1.165539
513.90 1.168118
514.00 1.170253
514.10 1.172012
514.20 1.173696
514.30 1.175752
514.40 1.178589
514.50 1.182346
514.60 1.18682
514.70 1.191515
514.80 1.195812
514.90 1.199201
515.00 1.201476
515.10 1.202762
515.20 1.203443
515.30 1.203992
515.40 1.204887
515.50 1.206359
515.60 1.208184
515.70 1.209915
515.80 1.211121
515.90 1.211448
516.00 1.210815
516.10 1.209518
516.20 1.207993
516.30 1.206807
516.40 1.206584
516.50 1.207725
516.60 1.210306
516.70 1.21412
516.80 1.218809
516.90 1.223901
517.00 1.228877
517.10 1.233251
517.20 1.23668
517.30 1.239218
517.40 1.241277
517.50 1.243378
517.60 1.246017
517.70 1.249332
517.80 1.253042
517.90 1.256792
518.00 1.260393
518.10 1.263883
518.20 1.26723
518.30 1.270404
518.40 1.27367
518.50 1.277571
518.60 1.282648
518.70 1.289058
518.80 1.296531
518.90 1.304373
519.00 1.311613
519.10 1.317378
519.20 1.321201
519.30 1.323133
519.40 1.323612
519.50 1.323274
519.60 1.322904
519.70 1.323227
519.80 1.32463
519.90 1.327171
520.00 1.330656
520.10 1.334709
520.20 1.338861
520.30 1.342881
520.40 1.346988
520.50 1.351551
520.60 1.356616
520.70 1.361825
520.80 1.366645
520.90 1.370485
521.00 1.372949
521.10 1.3741
521.20 1.374513
521.30 1.374821
521.40 1.37548
521.50 1.376958
521.60 1.379607
521.70 1.383475
521.80 1.388295
521.90 1.393562
522.00 1.398958
522.10 1.404543
522.20 1.410528
522.30 1.417129
522.40 1.424473
522.50 1.43247
522.60 1.44077
522.70 1.448996
522.80 1.457016
522.90 1.464987
523.00 1.473242
523.10 1.482134
523.20 1.491849
523.30 1.50235
523.40 1.513383
523.50 1.524393
523.60 1.534605
523.70 1.54329
523.80 1.549956
523.90 1.554404
524.00 1.556804
524.10 1.557722
524.20 1.557943
524.30 1.558312
524.40 1.559576
524.50 1.562165
524.60 1.566153
524.70 1.571424
524.80 1.577639
524.90 1.584181
525.00 1.59042
525.10 1.595952
525.20 1.600795
525.30 1.605418
525.40 1.610482
525.50 1.616688
525.60 1.624676
525.70 1.634612
525.80 1.646027
525.90 1.65809
526.00 1.669707
526.10 1.679651
526.20 1.686806
526.30 1.690362
526.40 1.689965
526.50 1.685816
526.60 1.678547
526.70 1.669189
526.80 1.658996
526.90 1.649017
527.00 1.63986
527.10 1.631864
527.20 1.625286
527.30 1.620174
527.40 1.616376
527.50 1.61365
527.60 1.611736
527.70 1.61047
527.80 1.609683
527.90 1.608952
528.00 1.60753
528.10 1.604492
528.20 1.599198
528.30 1.591625
528.40 1.582341
528.50 1.57223
528.60 1.562231
528.70 1.553199
528.80 1.545713
528.90 1.540037
529.00 1.536189
529.10 1.533867
529.20 1.532519
529.30 1.531659
529.40 1.53112
529.50 1.530926
529.60 1.53107
529.70 1.531503
529.80 1.532106
529.90 1.532598
530.00 1.532616
530.10 1.532015
530.20 1.530986
530.30 1.529744
530.40 1.528333
530.50 1.526895
530.60 1.52577
530.70 1.525354
530.80 1.526016
530.90 1.527969
531.00 1.531033
531.10 1.534541
531.20 1.537545
531.30 1.539367
531.40 1.539909
531.50 1.539365
531.60 1.538109
531.70 1.536672
531.80 1.535509
531.90 1.534861
532.00 1.534651
532.10 1.534403
532.20 1.533317
532.30 1.530692
532.40 1.526402
532.50 1.52104
532.60 1.51576
532.70 1.511766
532.80 1.509773
532.90 1.509878
533.00 1.511703
533.10 1.514662
533.20 1.518267
533.30 1.522231
533.40 1.526458
533.50 1.531073
533.60 1.536339
533.70 1.542431
533.80 1.549315
533.90 1.556843
534.00 1.564807
534.10 1.572889
534.20 1.580738
534.30 1.588029
534.40 1.594604
534.50 1.600657
534.60 1.606675
534.70 1.613156
534.80 1.620564
534.90 1.629407
535.00 1.64009
535.10 1.652664
535.20 1.666661
535.30 1.681122
535.40 1.694832
535.50 1.706702
535.60 1.716118
535.70 1.723187
535.80 1.728601
535.90 1.73324
536.00 1.737891
536.10 1.743233
536.20 1.749846
536.30 1.757952
536.40 1.767356
536.50 1.777722
536.60 1.788814
536.70 1.800359
536.80 1.812046
536.90 1.823675
537.00 1.835035
537.10 1.845807
537.20 1.855688
537.30 1.864482
537.40 1.872159
537.50 1.878815
537.60 1.884475
537.70 1.889215
537.80 1.893472
537.90 1.897995
538.00 1.903628
538.10 1.911226
538.20 1.921364
538.30 1.933993
538.40 1.948464
538.50 1.963671
538.60 1.978238
538.70 1.990896
538.80 2.000796
538.90 2.007616
539.00 2.011613
539.10 2.013646
539.20 2.014871
539.30 2.016375
539.40 2.018941
539.50 2.022942
539.60 2.028395
539.70 2.034997
539.80 2.042192
539.90 2.049378
540.00 2.056035
540.10 2.061761
540.20 2.06632
540.30 2.069786
540.40 2.072553
540.50 2.07492
540.60 2.076896
540.70 2.07837
540.80 2.079253
540.90 2.079531
541.00 2.079375
541.10 2.079234
541.20 2.07969
541.30 2.081147
541.40 2.083654
541.50 2.086955
541.60 2.090559
541.70 2.093827
541.80 2.096187
541.90 2.097517
542.00 2.098274
542.10 2.099315
542.20 2.101621
542.30 2.105739
542.40 2.111388
542.50 2.117748
542.60 2.123828
542.70 2.128692
542.80 2.131691
542.90 2.132496
543.00 2.130977
543.10 2.127199
543.20 2.121368
543.30 2.113616
543.40 2.103918
543.50 2.09224
543.60 2.078706
543.70 2.063917
543.80 2.048974
543.90 2.034875
544.00 2.022206
544.10 2.011313
544.20 2.002231
544.30 1.994538
544.40 1.987487
544.50 1.980115
544.60 1.971377
544.70 1.960552
544.80 1.947478
544.90 1.932422
545.00 1.915934
545.10 1.89876
545.20 1.881698
545.30 1.865423
545.40 1.850231
545.50 1.835888
545.60 1.821885
545.70 1.807767
545.80 1.793217
545.90 1.778147
546.00 1.762861
546.10 1.747886
546.20 1.733695
546.30 1.720598
546.40 1.708675
546.50 1.697674
546.60 1.686946
546.70 1.675726
546.80 1.663518
546.90 1.650228
547.00 1.636091
547.10 1.621323
547.20 1.60605
547.30 1.590558
547.40 1.575125
547.50 1.560053
547.60 1.545703
547.70 1.53234
547.80 1.51994
547.90 1.508213
548.00 1.496781
548.10 1.485256
548.20 1.473457
548.30 1.46146
548.40 1.449411
548.50 1.437522
548.60 1.426045
548.70 1.415042
548.80 1.404527
548.90 1.394548
549.00 1.385026
549.10 1.37572
549.20 1.366444
549.30 1.357107
549.40 1.347672
549.50 1.338173
549.60 1.328582
549.70 1.318835
549.80 1.308916
549.90 1.298969
550.00 1.144544
550.10 1.127646
550.20 1.10993
550.30 1.09149
550.40 1.072979
550.50 1.055393
550.60 1.039747
550.70 1.026227
550.80 1.014243
550.90 1.003244
551.00 0.9929584
551.10 0.9830347
551.20 0.9733604
551.30 0.9645171
551.40 0.9573656
551.50 0.9527845
551.60 0.9513109
551.70 0.9525208
551.80 0.9554888
551.90 0.9591449
552.00 0.9622875
552.10 0.9639145
552.20 0.9635806
552.30 0.9615781
552.40 0.9592846
552.50 0.9589366
552.60 0.9621732
552.70 0.9689884
552.80 0.9779852
552.90 0.9873454
553.00 0.9954658
553.10 1.00131
553.20 1.004448
553.30 1.0047
553.40 1.002199
553.50 0.9976348
553.60 0.9923529
553.70 0.9881603
553.80 0.9863516
553.90 0.9874679
554.00 0.9916072
554.10 0.9987919
554.20 1.009011
554.30 1.021846
554.40 1.036654
554.50 1.052402
554.60 1.067975
554.70 1.082934
554.80 1.097505
554.90 1.112121
555.00 1.126904
555.10 1.14162
555.20 1.159342
555.30 1.187859
555.40 1.236234
555.50 1.31107
555.60 1.414098
555.70 1.541731
555.80 1.684929
555.90 1.831193
556.00 1.967518
556.10 2.082818
556.20 2.170363
556.30 2.229553
556.40 2.265897
556.50 2.289432
556.60 2.30952
556.70 2.331203
556.80 2.356271
556.90 2.384809
557.00 2.416206
557.10 2.449403
557.20 2.483331
557.30 2.517051
557.40 2.549656
557.50 2.580498
557.60 2.609085
557.70 2.634658
557.80 2.656293
557.90 2.673391
558.00 2.686387
558.10 2.696972
558.20 2.707377
558.30 2.719441
558.40 2.734042
558.50 2.751011
558.60 2.769414
558.70 2.787894
558.80 2.8051
558.90 2.820033
559.00 2.83242
559.10 2.842677
559.20 2.848352
559.30 2.842706
559.40 2.817675
559.50 2.767051
559.60 2.688937
559.70 2.586777
559.80 2.469422
559.90 2.349144
560.00 2.238936
560.10 2.149805
560.20 2.087852
560.30 2.05259
560.40 2.037632
560.50 2.032924
560.60 2.030132
560.70 2.025734
560.80 2.019168
560.90 2.011152
561.00 2.002849
561.10 1.995301
561.20 1.988805
561.30 1.983574
561.40 1.980146
561.50 1.978829
561.60 1.979856
561.70 1.983914
561.80 1.991797
561.90 2.00343
562.00 2.017409
562.10 2.031553
562.20 2.044082
562.30 2.054128
562.40 2.061502
562.50 2.066638
562.60 2.070481
562.70 2.073728
562.80 2.076359
562.90 2.078073
563.00 2.078537
563.10 2.077455
563.20 2.074402
563.30 2.068853
563.40 2.061124
563.50 2.052669
563.60 2.045392
563.70 2.040763
563.80 2.039135
563.90 2.039944
564.00 2.042124
564.10 2.044643
564.20 2.047086
564.30 2.049697
564.40 2.053067
564.50 2.057499
564.60 2.062738
564.70 2.068621
564.80 2.075258
564.90 2.082548
565.00 2.089939
565.10 2.096692
565.20 2.10308
565.30 2.110489
565.40 2.12051
565.50 2.134382
565.60 2.152267
565.70 2.17275
565.80 2.193393
565.90 2.211825
566.00 2.226494
566.10 2.23664
566.20 2.241601
566.30 2.240786
566.40 2.234313
566.50 2.223248
566.60 2.209086
566.70 2.193648
566.80 2.178949
566.90 2.166718
567.00 2.158257
567.10 2.154219
567.20 2.154433
567.30 2.157972
567.40 2.16315
567.50 2.167907
567.60 2.17071
567.70 2.171304
567.80 2.170805
567.90 2.171017
568.00 2.173445
568.10 2.178475
568.20 2.185413
568.30 2.192911
568.40 2.199083
568.50 2.202528
568.60 2.202955
568.70 2.200514
568.80 2.195812
568.90 2.189932
569.00 2.184121
569.10 2.179489
569.20 2.175847
569.30 2.171684
569.40 2.165531
569.50 2.1566
569.60 2.145133
569.70 2.132835
569.80 2.122631
569.90 2.1171
570.00 2.117379
570.10 2.123459
570.20 2.13432
570.30 2.148027
570.40 2.162373
570.50 2.175409
570.60 2.186072
570.70 2.194195
570.80 2.199991
570.90 2.203735
571.00 2.205605
571.10 2.205584
571.20 2.203512
571.30 2.199468
571.40 2.193654
571.50 2.185898
571.60 2.175928
571.70 2.163753
571.80 2.149714
571.90 2.133945
572.00 2.116549
572.10 2.098501
572.20 2.081393
572.30 2.067006
572.40 2.056905
572.50 2.051669
572.60 2.050998
572.70 2.054183
572.80 2.059962
572.90 2.06671
573.00 2.072571
573.10 2.075603
573.20 2.074609
573.30 2.069998
573.40 2.062984
573.50 2.054727
573.60 2.04615
573.70 2.037348
573.80 2.027607
573.90 2.016267
574.00 2.003377
574.10 1.989744
574.20 1.977134
574.30 1.968053
574.40 1.964862
574.50 1.969133
574.60 1.981113
574.70 1.999158
574.80 2.020501
574.90 2.042194
575.00 2.06162
575.10 2.077407
575.20 2.089683
575.30 2.099371
575.40 2.107647
575.50 2.115779
575.60 2.124796
575.70 2.135177
575.80 2.146829
575.90 2.159583
576.00 2.173071
576.10 2.1865
576.20 2.19904
576.30 2.209747
576.40 2.217772
576.50 2.222352
576.60 2.222784
576.70 2.21893
576.80 2.211535
576.90 2.202155
577.00 2.192787
577.10 2.185543
577.20 2.18206
577.30 2.182537
577.40 2.186043
577.50 2.19119
577.60 2.196135
577.70 2.198826
577.80 2.197639
577.90 2.192248
578.00 2.18345
578.10 2.172374
578.20 2.16027
578.30 2.148306
578.40 2.137413
578.50 2.127705
578.60 2.118454
578.70 2.109274
578.80 2.100024
578.90 2.090334
579.00 2.08026
579.10 2.070465
579.20 2.061464
579.30 2.053281
579.40 2.04597
579.50 2.039347
579.60 2.032104
579.70 2.022168
579.80 2.007611
579.90 1.987307
580.00 1.961424
580.10 1.931191
580.20 1.898909
580.30 1.867772
580.40 1.84066
580.50 1.819696
580.60 1.806444
580.70 1.801316
580.80 1.803009
580.90 1.809261
581.00 1.817858
581.10 1.826838
581.20 1.834676
581.30 1.840721
581.40 1.845222
581.50 1.848665
581.60 1.85166
581.70 1.855309
581.80 1.860961
581.90 1.869284
582.00 1.879676
582.10 1.890805
582.20 1.901336
582.30 1.910184
582.40 1.916699
582.50 1.920866
582.60 1.922935
582.70 1.922994
582.80 1.92137
582.90 1.91887
583.00 1.915901
583.10 1.911966
583.20 1.906365
583.30 1.898682
583.40 1.888942
583.50 1.878322
583.60 1.869103
583.70 1.863607
583.80 1.863245
583.90 1.868274
584.00 1.878238
584.10 1.891997
584.20 1.907033
584.30 1.920018
584.40 1.928302
584.50 1.930156
584.60 1.924168
584.70 1.909702
584.80 1.88754
584.90 1.858997
585.00 1.825647
585.10 1.789806
585.20 1.754168
585.30 1.720794
585.40 1.690551
585.50 1.663527
585.60 1.639395
585.70 1.617295
585.80 1.595724
585.90 1.573047
586.00 1.548333
586.10 1.521203
586.20 1.491329
586.30 1.458836
586.40 1.423946
586.50 1.387135
586.60 1.350244
586.70 1.315989
586.80 1.286659
586.90 1.263467
587.00 1.246742
587.10 1.235766
587.20 1.229138
587.30 1.225098
587.40 1.221308
587.50 1.215389
587.60 1.205825
587.70 1.191814
587.80 1.173331
587.90 1.150969
588.00 1.125364
588.10 1.097442
588.20 1.06875
588.30 1.041323
588.40 1.017231
588.50 0.9983834
588.60 0.9856597
588.70 0.9786576
588.80 0.9766422
588.90 0.978742
589.00 0.9834904
589.10 0.9885572
589.20 0.9914137
589.30 0.990344
589.40 0.984472
589.50 0.9740642
589.60 0.9609391
589.70 0.9477875
589.80 0.937079
589.90 0.9304542
590.00 0.9287873
590.10 0.9321222
590.20 0.9392559
590.30 0.9475664
590.40 0.954176
590.50 0.9572269
590.60 0.9553344
590.70 0.9475878
590.80 0.9344997
590.90 0.9179144
591.00 0.9002706
591.10 0.8841497
591.20 0.8715637
591.30 0.8637398
591.40 0.8609657
591.50 0.8622403
591.60 0.8659491
591.70 0.8710667
591.80 0.8773895
591.90 0.8852932
592.00 0.895734
592.10 0.9097453
592.20 0.927849
592.30 0.9495997
592.40 0.9735678
592.50 0.9977891
592.60 1.021086
592.70 1.043239
592.80 1.064222
592.90 1.08424
593.00 1.103641
593.10 1.123062
593.20 1.143031
593.30 1.163446
593.40 1.184235
593.50 1.204939
593.60 1.224351
593.70 1.241428
593.80 1.255801
593.90 1.267977
594.00 1.27902
594.10 1.290202
594.20 1.302924
594.30 1.318665
594.40 1.3385
594.50 1.362008
594.60 1.3877
594.70 1.413923
594.80 1.438951
594.90 1.461662
595.00 1.481833
595.10 1.499667
595.20 1.515776
595.30 1.531213
595.40 1.547231
595.50 1.565065
595.60 1.585521
595.70 1.60871
595.80 1.634131
595.90 1.660814
596.00 1.687027
596.10 1.710435
596.20 1.729103
596.30 1.742236
596.40 1.749995
596.50 1.753361
596.60 1.753751
596.70 1.752657
596.80 1.751571
596.90 1.751628
597.00 1.753659
597.10 1.758298
597.20 1.765816
597.30 1.776067
597.40 1.788672
597.50 1.803638
597.60 1.820937
597.70 1.83992
597.80 1.859901
597.90 1.88033
598.00 1.900874
598.10 1.921355
598.20 1.941616
598.30 1.961756
598.40 1.98203
598.50 2.002609
598.60 2.023689
598.70 2.045414
598.80 2.067334
598.90 2.088184
599.00 2.106167
599.10 2.119629
599.20 2.127423
599.30 2.129043
599.40 2.124883
599.50 2.116287
599.60 2.105424
599.70 2.094636
599.80 2.085855
599.90 2.080498
600.00 2.446453
600.10 2.510173
600.20 2.556136
600.30 2.583323
600.40 2.589937
600.50 2.560066
600.60 2.497605
600.70 2.421951
600.80 2.339384
600.90 2.251049
601.00 2.155952
601.10 2.046269
601.20 1.925788
601.30 1.810152
601.40 1.711056
601.50 1.639945
601.60 1.616118
601.70 1.64867
601.80 1.733074
601.90 1.855017
602.00 1.984524
602.10 2.093451
602.20 2.173023
602.30 2.209354
602.40 2.201208
602.50 2.164453
602.60 2.106324
602.70 2.043543
602.80 2.006545
602.90 2.020439
603.00 2.088473
603.10 2.198346
603.20 2.330517
603.30 2.45593
603.40 2.543182
603.50 2.590809
603.60 2.616035
603.70 2.636099
603.80 2.663756
603.90 2.697815
604.00 2.734875
604.10 2.769942
604.20 2.790838
604.30 2.785998
604.40 2.746621
604.50 2.660285
604.60 2.523504
604.70 2.360273
604.80 2.216235
604.90 2.120079
605.00 2.076255
605.10 2.081906
605.20 2.127272
605.30 2.211236
605.40 2.324156
605.50 2.425675
605.60 2.46313
605.70 2.414527
605.80 2.304351
605.90 2.178997
606.00 2.090606
606.10 2.075863
606.20 2.134596
606.30 2.234102
606.40 2.349062
606.50 2.476341
606.60 2.610935
606.70 2.734399
606.80 2.83068
606.90 2.902731
607.00 2.96727
607.10 3.025779
607.20 3.057994
607.30 3.044719
607.40 2.985768
607.50 2.900394
607.60 2.816816
607.70 2.768748
607.80 2.768447
607.90 2.802559
608.00 2.85445
608.10 2.904847
608.20 2.94062
608.30 2.959576
608.40 2.96303
608.50 2.947473
608.60 2.909488
608.70 2.85812
608.80 2.787638
608.90 2.682563
609.00 2.552115
609.10 2.421794
609.20 2.315035
609.30 2.243346
609.40 2.210015
609.50 2.215548
609.60 2.25011
609.70 2.300689
609.80 2.353101
609.90 2.395449
610.00 2.420694
610.10 2.410521
610.20 2.361551
610.30 2.294368
610.40 2.223299
610.50 2.15302
610.60 2.096337
610.70 2.080967
610.80 2.123482
610.90 2.216519
611.00 2.337442
611.10 2.455741
611.20 2.549054
611.30 2.611352
611.40 2.649348
611.50 2.68358
611.60 2.726691
611.70 2.771227
611.80 2.809075
611.90 2.845923
612.00 2.881501
612.10 2.896629
612.20 2.877691
612.30 2.831545
612.40 2.769134
612.50 2.689832
612.60 2.596086
612.70 2.493677
612.80 2.387707
612.90 2.289757
613.00 2.22704
613.10 2.225272
613.20 2.286425
613.30 2.386736
613.40 2.496351
613.50 2.595782
613.60 2.672596
613.70 2.718993
613.80 2.735168
613.90 2.73047
614.00 2.710826
614.10 2.681124
614.20 2.646281
614.30 2.600278
614.40 2.538692
614.50 2.468945
614.60 2.400874
614.70 2.346203
614.80 2.323691
614.90 2.341363
615.00 2.386259
615.10 2.442749
615.20 2.494733
615.30 2.522986
615.40 2.515915
615.50 2.468365
615.60 2.380503
615.70 2.271185
615.80 2.164459
615.90 2.077797
616.00 2.031009
616.10 2.03614
616.20 2.087202
616.30 2.173284
616.40 2.287866
616.50 2.410168
616.60 2.512304
616.70 2.578955
616.80 2.592346
616.90 2.540381
617.00 2.435456
617.10 2.309624
617.20 2.192445
617.30 2.102866
617.40 2.055967
617.50 2.057951
617.60 2.101172
617.70 2.162459
617.80 2.212795
617.90 2.234719
618.00 2.22583
618.10 2.185011
618.20 2.119859
618.30 2.061612
618.40 2.035025
618.50 2.0344
618.60 2.040315
618.70 2.046245
618.80 2.054147
618.90 2.060248
619.00 2.063777
619.10 2.063096
619.20 2.053683
619.30 2.032485
619.40 2.002907
619.50 1.975916
619.60 1.962393
619.70 1.960787
619.80 1.964014
619.90 1.973655
620.00 1.993968
620.10 2.01718
620.20 2.031183
620.30 2.033011
620.40 2.01836
620.50 1.987265
620.60 1.947504
620.70 1.915777
620.80 1.902274
620.90 1.90825
621.00 1.940707
621.10 1.99892
621.20 2.0721
621.30 2.145612
621.40 2.206166
621.50 2.241812
621.60 2.243901
621.70 2.203144
621.80 2.125882
621.90 2.0454
622.00 1.990141
622.10 1.960516
622.20 1.956736
622.30 1.987057
622.40 2.043651
622.50 2.106466
622.60 2.152036
622.70 2.167039
622.80 2.15956
622.90 2.149955
623.00 2.146164
623.10 2.15292
623.20 2.170977
623.30 2.191542
623.40 2.213717
623.50 2.244723
623.60 2.282807
623.70 2.314005
623.80 2.329946
623.90 2.328206
624.00 2.316895
624.10 2.303974
624.20 2.28584
624.30 2.257297
624.40 2.222198
624.50 2.193411
624.60 2.181718
624.70 2.187305
624.80 2.203753
624.90 2.226578
625.00 2.24986
625.10 2.269402
625.20 2.276605
625.30 2.2591
625.40 2.212753
625.50 2.146755
625.60 2.075062
625.70 2.01435
625.80 1.986123
625.90 2.004935
626.00 2.074083
626.10 2.182354
626.20 2.300639
626.30 2.396863
626.40 2.454175
626.50 2.465168
626.60 2.430447
626.70 2.366219
626.80 2.295284
626.90 2.235169
627.00 2.198622
627.10 2.190869
627.20 2.207829
627.30 2.245324
627.40 2.29661
627.50 2.348643
627.60 2.406225
627.70 2.487032
627.80 2.595538
627.90 2.720609
628.00 2.846702
628.10 2.962167
628.20 3.055339
628.30 3.107839
628.40 3.11024
628.50 3.07027
628.60 3.003777
628.70 2.926231
628.80 2.854363
628.90 2.811238
629.00 2.804001
629.10 2.821516
629.20 2.847319
629.30 2.864895
629.40 2.871721
629.50 2.891034
629.60 2.93003
629.70 2.975773
629.80 3.023445
629.90 3.068807
630.00 3.109469
630.10 3.141213
630.20 3.152779
630.30 3.139153
630.40 3.108412
630.50 3.06643
630.60 3.017739
630.70 2.973593
630.80 2.947328
630.90 2.933674
631.00 2.936682
631.10 2.977256
631.20 3.055682
631.30 3.159795
631.40 3.270972
631.50 3.378241
631.60 3.48329
631.70 3.574545
631.80 3.628954
631.90 3.636378
632.00 3.607072
632.10 3.561206
632.20 3.515533
632.30 3.476504
632.40 3.452025
632.50 3.459017
632.60 3.51017
632.70 3.602678
632.80 3.726911
632.90 3.867355
633.00 4.006306
633.10 4.135799
633.20 4.252378
633.30 4.352565
633.40 4.430385
633.50 4.479034
633.60 4.490917
633.70 4.468994
633.80 4.421706
633.90 4.35033
634.00 4.267172
634.10 4.189743
634.20 4.125202
634.30 4.076112
634.40 4.044056
634.50 4.03075
634.60 4.039027
634.70 4.071998
634.80 4.119157
634.90 4.15802
635.00 4.179244
635.10 4.178075
635.20 4.152617
635.30 4.11869
635.40 4.093569
635.50 4.090401
635.60 4.117036
635.70 4.174362
635.80 4.254908
635.90 4.34056
636.00 4.409242
636.10 4.441531
636.20 4.439651
636.30 4.422746
636.40 4.400524
636.50 4.38071
636.60 4.368376
636.70 4.357079
636.80 4.342061
636.90 4.326705
637.00 4.322946
637.10 4.336984
637.20 4.367368
637.30 4.416321
637.40 4.484329
637.50 4.559634
637.60 4.620373
637.70 4.643143
637.80 4.615923
637.90 4.540417
638.00 4.432565
638.10 4.320388
638.20 4.221813
638.30 4.142597
638.40 4.081267
638.50 4.035816
638.60 4.00694
638.70 3.991548
638.80 3.984778
638.90 3.983772
639.00 3.982405
639.10 3.986989
639.20 4.013629
639.30 4.068105
639.40 4.143181
639.50 4.223975
639.60 4.305293
639.70 4.388227
639.80 4.475995
639.90 4.567804
640.00 4.655047
640.10 4.729495
640.20 4.785044
640.30 4.814268
640.40 4.815296
640.50 4.78779
640.60 4.729778
640.70 4.639777
640.80 4.521749
640.90 4.392471
641.00 4.273366
641.10 4.186745
641.20 4.146487
641.30 4.157558
641.40 4.220562
641.50 4.324034
641.60 4.448916
641.70 4.582288
641.80 4.713425
641.90 4.824929
642.00 4.897385
642.10 4.922988
642.20 4.910262
642.30 4.866385
642.40 4.788971
642.50 4.681612
642.60 4.559003
642.70 4.439056
642.80 4.341378
642.90 4.283009
643.00 4.264016
643.10 4.267933
643.20 4.279015
643.30 4.289537
643.40 4.302077
643.50 4.324946
643.60 4.354909
643.70 4.383569
643.80 4.406654
643.90 4.417322
644.00 4.415717
644.10 4.408792
644.20 4.398813
644.30 4.3904
644.40 4.395049
644.50 4.423557
644.60 4.483779
644.70 4.57594
644.80 4.683772
644.90 4.78247
645.00 4.855091
645.10 4.8917
645.20 4.897831
645.30 4.893258
645.40 4.889902
645.50 4.883432
645.60 4.863595
645.70 4.827137
645.80 4.783445
645.90 4.747946
646.00 4.727115
646.10 4.721127
646.20 4.727856
646.30 4.743679
646.40 4.770232
646.50 4.811199
646.60 4.854683
646.70 4.871999
646.80 4.843258
646.90 4.775036
647.00 4.68715
647.10 4.595021
647.20 4.511386
647.30 4.449623
647.40 4.421258
647.50 4.432493
647.60 4.481847
647.70 4.558407
647.80 4.640843
647.90 4.712506
648.00 4.7684
648.10 4.810418
648.20 4.840671
648.30 4.860275
648.40 4.878251
648.50 4.906783
648.60 4.949396
648.70 5.002021
648.80 5.059035
648.90 5.113376
649.00 5.160724
649.10 5.203719
649.20 5.247179
649.30 5.288548
649.40 5.3249
649.50 5.365028
649.60 5.419912
649.70 5.491467
649.80 5.572046
649.90 5.649417
650.00 5.712905
650.10 5.747431
650.20 5.742823
650.30 5.70669
650.40 5.658164
650.50 5.621022
650.60 5.618584
650.70 5.66139
650.80 5.743579
650.90 5.846684
651.00 5.951793
651.10 6.049636
651.20 6.130282
651.30 6.18711
651.40 6.218332
651.50 6.229003
651.60 6.233804
651.70 6.247053
651.80 6.275338
651.90 6.318133
652.00 6.373483
652.10 6.445224
652.20 6.533037
652.30 6.63121
652.40 6.738256
652.50 6.850599
652.60 6.971676
652.70 7.107864
652.80 7.257176
652.90 7.4185
653.00 7.589355
653.10 7.755474
653.20 7.901681
653.30 8.032675
653.40 8.157869
653.50 8.276342
653.60 8.391318
653.70 8.508354
653.80 8.624393
653.90 8.727876
654.00 8.807047
654.10 8.854124
654.20 8.869399
654.30 8.857068
654.40 8.81817
654.50 8.757061
654.60 8.686515
654.70 8.61214
654.80 8.539121
654.90 8.470948
655.00 8.401726
655.10 8.33857
655.20 8.291193
655.30 8.267347
655.40 8.277985
655.50 8.319174
655.60 8.380552
655.70 8.46635
655.80 8.594935
655.90 8.791748
656.00 9.069543
656.10 9.398565
656.20 9.705515
656.30 9.934094
656.40 10.05585
656.50 10.04402
656.60 9.900652
656.70 9.651588
656.80 9.323714
656.90 8.962283
657.00 8.625009
657.10 8.347057
657.20 8.123163
657.30 7.930857
657.40 7.75597
657.50 7.598077
657.60 7.472631
657.70 7.386636
657.80 7.344225
657.90 7.343454
658.00 7.354178
658.10 7.348214
658.20 7.312855
658.30 7.245397
658.40 7.147552
658.50 7.03232
658.60 6.935987
658.70 6.894429
658.80 6.911281
658.90 6.969561
659.00 7.061556
659.10 7.182832
659.20 7.320574
659.30 7.463991
659.40 7.615081
659.50 7.777644
659.60 7.945174
659.70 8.097347
659.80 8.214198
659.90 8.2806
660.00 8.282379
660.10 8.213849
660.20 8.085014
660.30 7.92496
660.40 7.766726
660.50 7.632554
660.60 7.543199
660.70 7.52054
660.80 7.569209
660.90 7.670467
661.00 7.799905
661.10 7.943623
661.20 8.094267
661.30 8.237073
661.40 8.354816
661.50 8.433588
661.60 8.476335
661.70 8.501519
661.80 8.52124
661.90 8.541889
662.00 8.554453
662.10 8.536549
662.20 8.475185
662.30 8.371139
662.40 8.231773
662.50 8.067316
662.60 7.892511
662.70 7.736603
662.80 7.634229
662.90 7.609969
663.00 7.671065
663.10 7.804298
663.20 7.982128
663.30 8.172298
663.40 8.350834
663.50 8.502113
663.60 8.608537
663.70 8.655719
663.80 8.645218
663.90 8.596677
664.00 8.538012
664.10 8.496997
664.20 8.498264
664.30 8.554232
664.40 8.660152
664.50 8.791645
664.60 8.912555
664.70 8.990358
664.80 8.997752
664.90 8.91901
665.00 8.763291
665.10 8.563292
665.20 8.363134
665.30 8.199555
665.40 8.096711
665.50 8.066258
665.60 8.102754
665.70 8.187516
665.80 8.289571
665.90 8.381482
666.00 8.452769
666.10 8.505685
666.20 8.549809
666.30 8.594732
666.40 8.649615
666.50 8.721823
666.60 8.807425
666.70 8.897252
666.80 8.978321
666.90 9.030911
667.00 9.035218
667.10 8.98829
667.20 8.914758
667.30 8.849562
667.40 8.820642
667.50 8.838303
667.60 8.901787
667.70 9.001327
667.80 9.114502
667.90 9.212049
668.00 9.268522
668.10 9.268184
668.20 9.208247
668.30 9.105623
668.40 8.991168
668.50 8.884675
668.60 8.786066
668.70 8.695927
668.80 8.620577
668.90 8.56891
669.00 8.545483
669.10 8.553362
669.20 8.593322
669.30 8.656334
669.40 8.731001
669.50 8.801498
669.60 8.847372
669.70 8.855658
669.80 8.831032
669.90 8.798977
670.00 8.790479
670.10 8.81924
670.20 8.887783
670.30 8.991662
670.40 9.119062
670.50 9.252898
670.60 9.368563
670.70 9.448007
670.80 9.48779
670.90 9.500572
671.00 9.504868
671.10 9.50804
671.20 9.509282
671.30 9.506469
671.40 9.492925
671.50 9.465499
671.60 9.42355
671.70 9.369069
671.80 9.308846
671.90 9.246167
672.00 9.189067
672.10 9.148711
672.20 9.129276
672.30 9.12437
672.40 9.124934
672.50 9.126225
672.60 9.117462
672.70 9.084438
672.80 9.027677
672.90 8.96127
673.00 8.900547
673.10 8.859076
673.20 8.848136
673.30 8.876183
673.40 8.939167
673.50 9.021736
673.60 9.108164
673.70 9.189024
673.80 9.263611
673.90 9.33526
674.00 9.410162
674.10 9.49532
674.20 9.594512
674.30 9.698954
674.40 9.793966
674.50 9.871042
674.60 9.929238
674.70 9.971864
674.80 10.00468
674.90 10.02848
675.00 10.03254
675.10 10.00774
675.20 9.95683
675.30 9.88923
675.40 9.814913
675.50 9.741008
675.60 9.67726
675.70 9.645897
675.80 9.665308
675.90 9.730193
676.00 9.815608
676.10 9.895312
676.20 9.958477
676.30 10.01344
676.40 10.07263
676.50 10.13673
676.60 10.19675
676.70 10.24194
676.80 10.26317
676.90 10.25174
677.00 10.20203
677.10 10.11911
677.20 10.02455
677.30 9.951215
677.40 9.929867
677.50 9.97821
677.60 10.09415
677.70 10.2504
677.80 10.40066
677.90 10.49992
678.00 10.51826
678.10 10.44299
678.20 10.28288
678.30 10.06731
678.40 9.83528
678.50 9.622366
678.60 9.449046
678.70 9.333249
678.80 9.29321
678.90 9.324645
679.00 9.402461
679.10 9.500735
679.20 9.605582
679.30 9.704179
679.40 9.769123
679.50 9.7767
679.60 9.72462
679.70 9.636231
679.80 9.545226
679.90 9.47675
680.00 9.457419
680.10 9.499528
680.20 9.586732
680.30 9.696728
680.40 9.800563
680.50 9.8648
680.60 9.86551
680.70 9.797692
680.80 9.686232
680.90 9.568767
681.00 9.475204
681.10 9.423575
681.20 9.420398
681.30 9.457629
681.40 9.514119
681.50 9.572124
681.60 9.624502
681.70 9.665783
681.80 9.697991
681.90 9.727902
682.00 9.758291
682.10 9.789971
682.20 9.816859
682.30 9.829591
682.40 9.820241
682.50 9.784286
682.60 9.724903
682.70 9.655385
682.80 9.592899
682.90 9.54745
683.00 9.515642
683.10 9.488339
683.20 9.453669
683.30 9.403963
683.40 9.342247
683.50 9.265549
683.60 9.176318
683.70 9.090281
683.80 9.023419
683.90 8.982283
684.00 8.962248
684.10 8.959756
684.20 8.965649
684.30 8.960343
684.40 8.93659
684.50 8.899178
684.60 8.854787
684.70 8.808541
684.80 8.760558
684.90 8.727274
685.00 8.725555
685.10 8.748764
685.20 8.781901
685.30 8.819441
685.40 8.870063
685.50 8.931091
685.60 8.985949
685.70 9.02702
685.80 9.050182
685.90 9.064609
686.00 9.085894
686.10 9.123067
686.20 9.181693
686.30 9.254128
686.40 9.327296
686.50 9.39674
686.60 9.453868
686.70 9.475237
686.80 9.435164
686.90 9.315122
687.00 9.121626
687.10 8.888495
687.20 8.660004
687.30 8.472583
687.40 8.357264
687.50 8.327325
687.60 8.368741
687.70 8.450654
687.80 8.537747
687.90 8.605277
688.00 8.637248
688.10 8.622705
688.20 8.56257
688.30 8.48192
688.40 8.405954
688.50 8.337172
688.60 8.271654
688.70 8.20925
688.80 8.150654
688.90 8.1035
689.00 8.087983
689.10 8.122426
689.20 8.199576
689.30 8.291224
689.40 8.374938
689.50 8.440989
689.60 8.475886
689.70 8.462071
689.80 8.39502
689.90 8.289205
690.00 8.171763
690.10 8.075017
690.20 8.02646
690.30 8.04182
690.40 8.117527
690.50 8.240342
690.60 8.401404
690.70 8.588652
690.80 8.78379
690.90 8.964507
691.00 9.112926
691.10 9.224224
691.20 9.295829
691.30 9.318606
691.40 9.275547
691.50 9.149094
691.60 8.948352
691.70 8.712159
691.80 8.486046
691.90 8.307414
692.00 8.210496
692.10 8.221358
692.20 8.340386
692.30 8.541627
692.40 8.783058
692.50 9.011743
692.60 9.187871
692.70 9.302747
692.80 9.366147
692.90 9.397596
693.00 9.415033
693.10 9.434472
693.20 9.478619
693.30 9.564907
693.40 9.685199
693.50 9.806565
693.60 9.895048
693.70 9.934714
693.80 9.930493
693.90 9.914152
694.00 9.922766
694.10 9.976485
694.20 10.09385
694.30 10.28872
694.40 10.55017
694.50 10.85295
694.60 11.16477
694.70 11.44802
694.80 11.66924
694.90 11.80603
695.00 11.85166
695.10 11.81067
695.20 11.69478
695.30 11.51631
695.40 11.29848
695.50 11.08127
695.60 10.903
695.70 10.79101
695.80 10.76292
695.90 10.80934
696.00 10.90714
696.10 11.03458
696.20 11.16686
696.30 11.28301
696.40 11.36809
696.50 11.42071
696.60 11.44553
696.70 11.44611
696.80 11.42358
696.90 11.37631
697.00 11.31392
697.10 11.24996
697.20 11.20053
697.30 11.19904
697.40 11.26448
697.50 11.38647
697.60 11.55153
697.70 11.74301
697.80 11.93206
697.90 12.08244
698.00 12.16357
698.10 12.16754
698.20 12.11018
698.30 12.01702
698.40 11.91593
698.50 11.84196
698.60 11.82177
698.70 11.84692
698.80 11.89344
698.90 11.94719
699.00 11.99238
699.10 12.00937
699.20 11.98315
699.30 11.90738
699.40 11.79457
699.50 11.66577
699.60 11.53765
699.70 11.43007
699.80 11.35405
699.90 11.30945
700.00 11.29735
700.10 11.32106
700.20 11.39388
700.30 11.52938
700.40 11.72425
700.50 11.96335
700.60 12.22999
700.70 12.50858
700.80 12.77566
700.90 13.00303
701.00 13.17521
701.10 13.28932
701.20 13.34909
701.30 13.36465
701.40 13.35475
701.50 13.34616
701.60 13.35428
701.70 13.37954
701.80 13.42357
701.90 13.48838
702.00 13.57344
702.10 13.67271
702.20 13.77658
702.30 13.88561
702.40 14.01137
702.50 14.16709
702.60 14.36005
702.70 14.58573
702.80 14.83608
702.90 15.09308
703.00 15.32604
703.10 15.51733
703.20 15.66993
703.30 15.80018
703.40 15.92324
703.50 16.05087
703.60 16.20058
703.70 16.38016
703.80 16.57971
703.90 16.78041
704.00 16.9705
704.10 17.13805
704.20 17.26137
704.30 17.3335
704.40 17.36579
704.50 17.36796
704.60 17.34829
704.70 17.31867
704.80 17.2976
704.90 17.2929
705.00 17.2801
705.10 17.22058
705.20 17.07664
705.30 16.82067
705.40 16.44788
705.50 15.98163
705.60 15.46463
705.70 14.93539
705.80 14.43192
705.90 13.99792
706.00 13.65635
706.10 13.4019
706.20 13.21588
706.30 13.08288
706.40 13.00484
706.50 12.98967
706.60 13.04514
706.70 13.17681
706.80 13.36759
706.90 13.57731
707.00 13.76381
707.10 13.90916
707.20 14.00974
707.30 14.06732
707.40 14.10684
707.50 14.1565
707.60 14.22859
707.70 14.32392
707.80 14.43551
707.90 14.54994
708.00 14.64396
708.10 14.69111
708.20 14.67592
708.30 14.59589
708.40 14.4572
708.50 14.26442
708.60 14.03845
708.70 13.81095
708.80 13.59862
708.90 13.41791
709.00 13.2837
709.10 13.20706
709.20 13.18969
709.30 13.22082
709.40 13.28241
709.50 13.35028
709.60 13.4052
709.70 13.44221
709.80 13.46272
709.90 13.47819
710.00 13.5026
710.10 13.5405
710.20 13.59481
710.30 13.66942
710.40 13.77499
710.50 13.91581
710.60 14.0872
710.70 14.27651
710.80 14.46065
710.90 14.60933
711.00 14.69399
711.10 14.70464
711.20 14.65128
711.30 14.55244
711.40 14.43067
711.50 14.32016
711.60 14.2617
711.70 14.28081
711.80 14.3765
711.90 14.53139
712.00 14.71376
712.10 14.88075
712.20 14.99056
712.30 15.0157
712.40 14.95604
712.50 14.82246
712.60 14.62805
712.70 14.40429
712.80 14.19441
712.90 14.03463
713.00 13.94026
713.10 13.9069
713.20 13.92239
713.30 13.96393
713.40 14.0028
713.50 14.01911
713.60 14.01129
713.70 13.99057
713.80 13.96047
713.90 13.92339
714.00 13.89374
714.10 13.88107
714.20 13.88194
714.30 13.88901
714.40 13.9012
714.50 13.92643
714.60 13.97339
714.70 14.04528
714.80 14.13694
714.90 14.23815
715.00 14.33567
715.10 14.41983
715.20 14.50184
715.30 14.59972
715.40 14.71206
715.50 14.82344
715.60 14.91347
715.70 14.95957
715.80 14.94414
715.90 14.8624
716.00 14.72311
716.10 14.55618
716.20 14.41026
716.30 14.32932
716.40 14.34061
716.50 14.44927
716.60 14.62589
716.70 14.81964
716.80 14.98891
716.90 15.11381
717.00 15.19305
717.10 15.23967
717.20 15.27126
717.30 15.30418
717.40 15.35197
717.50 15.41295
717.60 15.474
717.70 15.5286
717.80 15.58077
717.90 15.64126
718.00 15.72241
718.10 15.83502
718.20 15.98006
718.30 16.14309
718.40 16.30747
718.50 16.45698
718.60 16.57692
718.70 16.66201
718.80 16.71768
718.90 16.76343
719.00 16.82209
719.10 16.90651
719.20 17.01238
719.30 17.11395
719.40 17.18001
719.50 17.19538
719.60 17.1624
719.70 17.09077
719.80 16.98754
719.90 16.86075
720.00 16.73314
720.10 16.6339
720.20 16.58013
720.30 16.57183
720.40 16.59812
720.50 16.6373
720.60 16.6707
720.70 16.69959
720.80 16.72912
720.90 16.75892
721.00 16.7899
721.10 16.82584
721.20 16.87027
721.30 16.92966
721.40 17.00413
721.50 17.07561
721.60 17.13096
721.70 17.1675
721.80 17.18612
721.90 17.1975
722.00 17.2165
722.10 17.25773
722.20 17.34445
722.30 17.48541
722.40 17.66443
722.50 17.85858
722.60 18.04427
722.70 18.20333
722.80 18.31934
722.90 18.39528
723.00 18.4495
723.10 18.50477
723.20 18.59218
723.30 18.72627
723.40 18.90246
723.50 19.11585
723.60 19.33356
723.70 19.50909
723.80 19.62458
723.90 19.68806
724.00 19.71047
724.10 19.69966
724.20 19.68001
724.30 19.67689
724.40 19.70448
724.50 19.76198
724.60 19.83122
724.70 19.90496
724.80 19.98576
724.90 20.06153
725.00 20.13534
725.10 20.23889
725.20 20.38679
725.30 20.57053
725.40 20.78652
725.50 21.01722
725.60 21.22842
725.70 21.38833
725.80 21.48218
725.90 21.52424
726.00 21.53787
726.10 21.54753
726.20 21.57825
726.30 21.65118
726.40 21.7744
726.50 21.92289
726.60 22.05665
726.70 22.14583
726.80 22.17111
726.90 22.142
727.00 22.11749
727.10 22.15754
727.20 22.27247
727.30 22.44478
727.40 22.6384
727.50 22.8006
727.60 22.8764
727.70 22.83326
727.80 22.68535
727.90 22.48794
728.00 22.32222
728.10 22.26476
728.20 22.37439
728.30 22.65573
728.40 23.01939
728.50 23.3678
728.60 23.64322
728.70 23.7996
728.80 23.82232
728.90 23.73779
729.00 23.61616
729.10 23.53943
729.20 23.55301
729.30 23.67316
729.40 23.89687
729.50 24.18227
729.60 24.44907
729.70 24.63339
729.80 24.72009
729.90 24.72016
730.00 24.65557
730.10 24.56725
730.20 24.51237
730.30 24.54169
730.40 24.67826
730.50 24.91189
730.60 25.20681
730.70 25.51397
730.80 25.78264
730.90 26.00326
731.00 26.2112
731.10 26.43549
731.20 26.66656
731.30 26.88959
731.40 27.11525
731.50 27.35328
731.60 27.59709
731.70 27.82646
731.80 28.02222
731.90 28.17257
732.00 28.28784
732.10 28.3969
732.20 28.52009
732.30 28.64944
732.40 28.7586
732.50 28.81815
732.60 28.7996
732.70 28.67609
732.80 28.44151
732.90 28.11612
733.00 27.74976
733.10 27.42488
733.20 27.21046
733.30 27.1546
733.40 27.29303
733.50 27.63699
733.60 28.15825
733.70 28.79312
733.80 29.4639
733.90 30.09562
734.00 30.62909
734.10 30.99892
734.20 31.13998
734.30 31.03797
734.40 30.73111
734.50 30.28506
734.60 29.78742
734.70 29.33042
734.80 28.97618
734.90 28.74564
735.00 28.63442
735.10 28.61177
735.20 28.61627
735.30 28.58456
735.40 28.50122
735.50 28.39884
735.60 28.31883
735.70 28.2863
735.80 28.30976
735.90 28.39826
736.00 28.56172
736.10 28.80323
736.20 29.12375
736.30 29.51777
736.40 29.9555
736.50 30.38119
736.60 30.74158
736.70 31.01089
736.80 31.17502
736.90 31.22834
737.00 31.17212
737.10 31.00884
737.20 30.75393
737.30 30.44057
737.40 30.11373
737.50 29.8216
737.60 29.59301
737.70 29.4254
737.80 29.30714
737.90 29.23564
738.00 29.20662
738.10 29.20209
738.20 29.18965
738.30 29.14356
738.40 29.075
738.50 29.03496
738.60 29.08796
738.70 29.27124
738.80 29.56718
738.90 29.89943
739.00 30.16097
739.10 30.26333
739.20 30.16488
739.30 29.8674
739.40 29.42066
739.50 28.91985
739.60 28.47038
739.70 28.13698
739.80 27.94227
739.90 27.88207
740.00 27.92843
740.10 28.03501
740.20 28.134
740.30 28.17713
740.40 28.16295
740.50 28.11713
740.60 28.07744
740.70 28.08318
740.80 28.15776
740.90 28.29406
741.00 28.4694
741.10 28.67747
741.20 28.90662
741.30 29.11144
741.40 29.21475
741.50 29.14632
741.60 28.90654
741.70 28.55241
741.80 28.15191
741.90 27.76913
742.00 27.45879
742.10 27.26301
742.20 27.18946
742.30 27.21313
742.40 27.304
742.50 27.42384
742.60 27.53308
742.70 27.61876
742.80 27.69684
742.90 27.78482
743.00 27.87954
743.10 27.9553
743.20 27.99181
743.30 27.98318
743.40 27.92586
743.50 27.82217
743.60 27.70093
743.70 27.60726
743.80 27.55493
743.90 27.53631
744.00 27.53332
744.10 27.5041
744.20 27.40318
744.30 27.2022
744.40 26.91249
744.50 26.59269
744.60 26.30458
744.70 26.09691
744.80 26.01602
744.90 26.08379
745.00 26.27516
745.10 26.52577
745.20 26.76494
745.30 26.93721
745.40 27.01114
745.50 26.98172
745.60 26.86621
745.70 26.70417
745.80 26.53962
745.90 26.41346
746.00 26.37471
746.10 26.45837
746.20 26.66226
746.30 26.9476
746.40 27.24946
746.50 27.5098
746.60 27.69465
746.70 27.78508
746.80 27.77744
746.90 27.68717
747.00 27.54111
747.10 27.36995
747.20 27.20784
747.30 27.08037
747.40 26.99089
747.50 26.9277
747.60 26.87546
747.70 26.83725
747.80 26.84323
747.90 26.91813
748.00 27.07036
748.10 27.29166
748.20 27.55958
748.30 27.85204
748.40 28.14163
748.50 28.40031
748.60 28.60439
748.70 28.73407
748.80 28.77596
748.90 28.73012
749.00 28.60664
749.10 28.4063
749.20 28.13579
749.30 27.82826
749.40 27.53091
749.50 27.29293
749.60 27.15481
749.70 27.13553
749.80 27.23191
749.90 27.41907
750.00 27.6524
750.10 27.87376
750.20 28.03279
750.30 28.09869
750.40 28.07607
750.50 28.01698
750.60 27.97792
750.70 27.99174
750.80 28.07079
750.90 28.20722
751.00 28.36372
751.10 28.49379
751.20 28.58146
751.30 28.62147
751.40 28.6036
751.50 28.53118
751.60 28.42289
751.70 28.31357
751.80 28.23977
751.90 28.2194
752.00 28.24515
752.10 28.29112
752.20 28.33188
752.30 28.34989
752.40 28.34085
752.50 28.31136
752.60 28.27317
752.70 28.24901
752.80 28.27399
752.90 28.36727
753.00 28.51366
753.10 28.68361
753.20 28.84388
753.30 28.96686
753.40 29.04974
753.50 29.11241
753.60 29.18533
753.70 29.29279
753.80 29.46196
753.90 29.71284
754.00 30.03172
754.10 30.38051
754.20 30.69687
754.30 30.91765
754.40 31.01115
754.50 30.96431
754.60 30.77999
754.70 30.48771
754.80 30.13464
754.90 29.77545
755.00 29.46535
755.10 29.2533
755.20 29.15393
755.30 29.14999
755.40 29.21019
755.50 29.29952
755.60 29.39588
755.70 29.49291
755.80 29.59734
755.90 29.71903
756.00 29.85781
756.10 29.99169
756.20 30.08552
756.30 30.10848
756.40 30.04101
756.50 29.88681
756.60 29.68545
756.70 29.48374
756.80 29.31545
756.90 29.21443
757.00 29.2112
757.10 29.2995
757.20 29.4341
757.30 29.5591
757.40 29.62214
757.50 29.59663
757.60 29.50927
757.70 29.42332
757.80 29.39637
757.90 29.46354
758.00 29.62603
758.10 29.84814
758.20 30.06869
758.30 30.20734
758.40 30.17409
758.50 29.90858
758.60 29.39402
758.70 28.65664
758.80 27.76582
758.90 26.81905
759.00 25.90382
759.10 25.08901
759.20 24.43257
759.30 23.93469
759.40 23.53191
759.50 23.184
759.60 22.89623
759.70 22.6434
759.80 22.39419
759.90 22.17803
760.00 22.02482
760.10 21.91451
760.20 21.84932
760.30 21.86122
760.40 21.97348
760.50 22.17953
760.60 22.4312
760.70 22.69267
760.80 22.964
760.90 23.22951
761.00 23.45326
761.10 23.64121
761.20 23.80959
761.30 23.9231
761.40 23.95954
761.50 23.95992
761.60 23.95466
761.70 23.93695
761.80 23.88244
761.90 23.76107
762.00 23.57876
762.10 23.35102
762.20 23.06831
762.30 22.71169
762.40 22.26651
762.50 21.72281
762.60 21.08907
762.70 20.40015
762.80 19.71146
762.90 19.08319
763.00 18.55836
763.10 18.15537
763.20 17.8655
763.30 17.66738
763.40 17.5197
763.50 17.37562
763.60 17.21085
763.70 17.00696
763.80 16.73486
763.90 16.374
764.00 15.93094
764.10 15.44862
764.20 14.98294
764.30 14.56643
764.40 14.19775
764.50 13.85521
764.60 13.52231
764.70 13.18121
764.80 12.79961
764.90 12.34199
765.00 11.78634
765.10 11.13697
765.20 10.4304
765.30 9.732128
765.40 9.107976
765.50 8.575347
765.60 8.115275
765.70 7.712057
765.80 7.351194
765.90 6.996184
766.00 6.610032
766.10 6.178512
766.20 5.706411
766.30 5.226268
766.40 4.793433
766.50 4.463994
766.60 4.274909
766.70 4.234283
766.80 4.332266
766.90 4.566698
767.00 4.932486
767.10 5.391892
767.20 5.895653
767.30 6.413801
767.40 6.923726
767.50 7.407499
767.60 7.853803
767.70 8.25246
767.80 8.604243
767.90 8.916753
768.00 9.212718
768.10 9.511963
768.20 9.812879
768.30 10.09092
768.40 10.30163
768.50 10.41667
768.60 10.43184
768.70 10.37046
768.80 10.26097
768.90 10.10629
769.00 9.899334
769.10 9.639103
769.20 9.314402
769.30 8.917713
769.40 8.448888
769.50 7.913213
769.60 7.329533
769.70 6.737908
769.80 6.203114
769.90 5.785417
770.00 5.524779
770.10 5.432504
770.20 5.50654
770.30 5.749536
770.40 6.160312
770.50 6.712653
770.60 7.371795
770.70 8.095195
770.80 8.822409
770.90 9.506904
771.00 10.11606
771.10 10.63792
771.20 11.0788
771.30 11.45117
771.40 11.78122
771.50 12.10724
771.60 12.46473
771.70 12.86218
771.80 13.28836
771.90 13.72275
772.00 14.13801
772.10 14.52557
772.20 14.90057
772.30 15.28826
772.40 15.72477
772.50 16.22784
772.60 16.78974
772.70 17.38588
772.80 17.97971
772.90 18.51877
773.00 18.95297
773.10 19.2745
773.20 19.50729
773.30 19.70043
773.40 19.90707
773.50 20.15122
773.60 20.43648
773.70 20.75585
773.80 21.08607
773.90 21.3888
774.00 21.62581
774.10 21.77419
774.20 21.82095
774.30 21.7784
774.40 21.68895
774.50 21.60975
774.60 21.59657
774.70 21.6764
774.80 21.83662
774.90 22.05426
775.00 22.29166
775.10 22.4827
775.20 22.58178
775.30 22.5931
775.40 22.54596
775.50 22.47604
775.60 22.4081
775.70 22.35494
775.80 22.32927
775.90 22.32821
776.00 22.3422
776.10 22.36361
776.20 22.38823
776.30 22.41099
776.40 22.44386
776.50 22.52501
776.60 22.69404
776.70 22.97593
776.80 23.37926
776.90 23.88489
777.00 24.45861
777.10 25.05844
777.20 25.61056
777.30 26.02712
777.40 26.23472
777.50 26.20752
777.60 25.98452
777.70 25.64127
777.80 25.26332
777.90 24.93556
778.00 24.70696
778.10 24.57121
778.20 24.49197
778.30 24.43688
778.40 24.38578
778.50 24.32132
778.60 24.2461
778.70 24.1952
778.80 24.22052
778.90 24.37905
779.00 24.69266
779.10 25.12215
779.20 25.5875
779.30 25.9793
779.40 26.17518
779.50 26.05938
779.60 25.54374
779.70 24.61084
779.80 23.34706
779.90 21.94505
780.00 20.66249
780.10 19.75103
780.20 19.39443
780.30 19.68323
780.40 20.59282
780.50 21.96986
780.60 23.5834
780.70 25.17723
780.80 26.52181
780.90 27.48291
781.00 28.05604
781.10 28.3284
781.20 28.43101
781.30 28.48862
781.40 28.5726
781.50 28.71827
781.60 28.93746
781.70 29.18687
781.80 29.38461
781.90 29.49024
782.00 29.49258
782.10 29.38358
782.20 29.17539
782.30 28.88003
782.40 28.51262
782.50 28.10129
782.60 27.67889
782.70 27.28121
782.80 26.95748
782.90 26.74548
783.00 26.66471
783.10 26.71727
783.20 26.90446
783.30 27.21178
783.40 27.59217
783.50 28.01448
783.60 28.46257
783.70 28.92207
783.80 29.35954
783.90 29.74192
784.00 30.05569
784.10 30.30165
784.20 30.50143
784.30 30.68555
784.40 30.86083
784.50 31.01012
784.60 31.11514
784.70 31.17551
784.80 31.20848
784.90 31.20062
785.00 31.12298
785.10 30.96954
785.20 30.76463
785.30 30.56582
785.40 30.42324
785.50 30.36512
785.60 30.4015
785.70 30.52363
785.80 30.71744
785.90 30.97153
786.00 31.27195
786.10 31.57546
786.20 31.81883
786.30 31.95869
786.40 31.97508
786.50 31.86957
786.60 31.67772
786.70 31.42369
786.80 31.12846
786.90 30.8377
787.00 30.57932
787.10 30.36319
787.20 30.20309
787.30 30.10472
787.40 30.05744
787.50 30.06399
787.60 30.14694
787.70 30.32054
787.80 30.57572
787.90 30.894
788.00 31.23754
788.10 31.56595
788.20 31.85513
788.30 32.07662
788.40 32.24012
788.50 32.38757
788.60 32.5349
788.70 32.69154
788.80 32.88443
788.90 33.1237
789.00 33.3789
789.10 33.60239
789.20 33.75473
789.30 33.79724
789.40 33.69784
789.50 33.44666
789.60 33.0654
789.70 32.60586
789.80 32.12625
789.90 31.68874
790.00 31.37832
790.10 31.26794
790.20 31.36228
790.30 31.60256
790.40 31.89925
790.50 32.15982
790.60 32.3236
790.70 32.37693
790.80 32.33865
790.90 32.2503
791.00 32.16863
791.10 32.1628
791.20 32.28986
791.30 32.5468
791.40 32.86774
791.50 33.15369
791.60 33.32726
791.70 33.36636
791.80 33.30179
791.90 33.20338
792.00 33.11539
792.10 33.02712
792.20 32.91889
792.30 32.78739
792.40 32.63612
792.50 32.4703
792.60 32.30425
792.70 32.17482
792.80 32.13357
792.90 32.24541
793.00 32.56799
793.10 33.10137
793.20 33.76822
793.30 34.43836
793.40 34.98307
793.50 35.31665
793.60 35.39449
793.70 35.20356
793.80 34.76677
793.90 34.14685
794.00 33.41896
794.10 32.65428
794.20 31.91068
794.30 31.18217
794.40 30.39062
794.50 29.45988
794.60 28.39444
794.70 27.28518
794.80 26.29832
794.90 25.63758
795.00 25.4787
795.10 25.92083
795.20 26.95303
795.30 28.44469
795.40 30.17913
795.50 31.89933
795.60 33.35261
795.70 34.38424
795.80 34.97638
795.90 35.20776
796.00 35.19564
796.10 35.0612
796.20 34.91887
796.30 34.85345
796.40 34.90358
796.50 35.06542
796.60 35.31765
796.70 35.6396
796.80 36.00053
796.90 36.35876
797.00 36.68388
797.10 36.9452
797.20 37.10489
797.30 37.14827
797.40 37.10374
797.50 37.01717
797.60 36.89716
797.70 36.74888
797.80 36.60083
797.90 36.46484
798.00 36.32234
798.10 36.13643
798.20 35.88066
798.30 35.55922
798.40 35.19451
798.50 34.82001
798.60 34.49138
798.70 34.26606
798.80 34.18006
798.90 34.25567
799.00 34.48604
799.10 34.80505
799.20 35.12406
799.30 35.38217
799.40 35.56267
799.50 35.68205
799.60 35.77063
799.70 35.853
799.80 35.94161
799.90 36.05261
800.00 36.21138
800.10 36.43022
800.20 36.69577
800.30 36.9612
800.40 37.19538
800.50 37.41344
800.60 37.6293
800.70 37.85483
800.80 38.10599
800.90 38.39253
801.00 38.71679
801.10 39.07486
801.20 39.47201
801.30 39.90855
801.40 40.35115
801.50 40.75492
801.60 41.07175
801.70 41.28021
801.80 41.4003
801.90 41.46555
802.00 41.55125
802.10 41.72561
802.20 42.0163
802.30 42.43876
802.40 42.97213
802.50 43.57152
802.60 44.1831
802.70 44.74002
802.80 45.17787
802.90 45.46357
803.00 45.60245
803.10 45.62075
803.20 45.54634
803.30 45.40792
803.40 45.20818
803.50 44.95895
803.60 44.69748
803.70 44.45447
803.80 44.2641
803.90 44.15244
804.00 44.1477
804.10 44.27426
804.20 44.5345
804.30 44.90061
804.40 45.32241
804.50 45.75408
804.60 46.18647
804.70 46.64179
804.80 47.15385
804.90 47.75602
805.00 48.46696
805.10 49.2561
805.20 50.0624
805.30 50.8441
805.40 51.55807
805.50 52.16592
805.60 52.65477
805.70 53.02401
805.80 53.29778
805.90 53.51904
806.00 53.70842
806.10 53.86731
806.20 53.98813
806.30 54.06053
806.40 54.06952
806.50 54.01791
806.60 53.94221
806.70 53.87973
806.80 53.84752
806.90 53.8513
807.00 53.91391
807.10 54.08694
807.20 54.40955
807.30 54.88623
807.40 55.49543
807.50 56.19254
807.60 56.92126
807.70 57.6235
807.80 58.25579
807.90 58.81389
808.00 59.32131
808.10 59.79861
808.20 60.26005
808.30 60.70541
808.40 61.10224
808.50 61.38386
808.60 61.50009
808.70 61.45884
808.80 61.31454
808.90 61.142
809.00 61.01195
809.10 60.96766
809.20 61.02862
809.30 61.17501
809.40 61.33145
809.50 61.42145
809.60 61.40051
809.70 61.26345
809.80 61.06101
809.90 60.87555
810.00 60.77614
810.10 60.78704
810.20 60.89438
810.30 61.08842
810.40 61.38281
810.50 61.78589
810.60 62.27154
810.70 62.79545
810.80 63.32678
810.90 63.84789
811.00 64.33605
811.10 64.74589
811.20 65.01432
811.30 65.1121
811.40 65.07907
811.50 65.02088
811.60 65.06017
811.70 65.27251
811.80 65.67276
811.90 66.24739
812.00 66.95286
812.10 67.70863
812.20 68.43916
812.30 69.08367
812.40 69.62025
812.50 70.09398
812.60 70.57315
812.70 71.10493
812.80 71.67715
812.90 72.22949
813.00 72.71603
813.10 73.11442
813.20 73.41549
813.30 73.64054
813.40 73.85034
813.50 74.1115
813.60 74.44389
813.70 74.8141
813.80 75.14015
813.90 75.28747
814.00 75.13834
814.10 74.67353
814.20 73.97325
814.30 73.15462
814.40 72.32226
814.50 71.55885
814.60 70.94305
814.70 70.53442
814.80 70.34647
814.90 70.36784
815.00 70.57879
815.10 70.94486
815.20 71.42054
815.30 71.98294
815.40 72.61215
815.50 73.23888
815.60 73.7645
815.70 74.12778
815.80 74.35169
815.90 74.52402
816.00 74.738
816.10 75.05934
816.20 75.52537
816.30 76.13652
816.40 76.8535
816.50 77.6279
816.60 78.41521
816.70 79.17538
816.80 79.86922
816.90 80.46823
817.00 80.98087
817.10 81.42702
817.20 81.78802
817.30 82.01077
817.40 82.02504
817.50 81.75663
817.60 81.1365
817.70 80.09176
817.80 78.54526
817.90 76.41372
818.00 73.69157
818.10 70.51945
818.20 67.18332
818.30 64.0827
818.40 61.63531
818.50 60.16003
818.60 59.78776
818.70 60.4257
818.80 61.75315
818.90 63.27708
819.00 64.44515
819.10 64.7901
819.20 64.05735
819.30 62.32524
819.40 59.9666
819.50 57.49705
819.60 55.45463
819.70 54.26946
819.80 54.17386
819.90 55.19148
820.00 57.17426
820.10 59.82576
820.20 62.7568
820.30 65.56889
820.40 67.93617
820.50 69.67642
820.60 70.78883
820.70 71.39236
820.80 71.64667
820.90 71.73267
821.00 71.80524
821.10 71.96297
821.20 72.25525
821.30 72.67124
821.40 73.14465
821.50 73.60254
821.60 74.00668
821.70 74.36657
821.80 74.72782
821.90 75.1504
822.00 75.66362
822.10 76.24321
822.20 76.82841
822.30 77.36104
822.40 77.8361
822.50 78.27632
822.60 78.7029
822.70 79.14045
822.80 79.59768
822.90 80.06202
823.00 80.50879
823.10 80.88953
823.20 81.15196
823.30 81.27336
823.40 81.27419
823.50 81.21648
823.60 81.1984
823.70 81.3257
823.80 81.65477
823.90 82.19807
824.00 82.92292
824.10 83.75574
824.20 84.60911
824.30 85.38047
824.40 85.98515
824.50 86.40116
824.60 86.64951
824.70 86.73462
824.80 86.63663
824.90 86.32496
825.00 85.77466
825.10 84.98473
825.20 83.98956
825.30 82.85652
825.40 81.7001
825.50 80.68116
825.60 79.97552
825.70 79.72815
825.80 79.9762
825.90 80.64397
826.00 81.57984
826.10 82.60589
826.20 83.56885
826.30 84.35829
826.40 84.88801
826.50 85.09102
826.60 84.96308
826.70 84.56661
826.80 83.98704
826.90 83.30138
827.00 82.57523
827.10 81.87558
827.20 81.2935
827.30 80.93201
827.40 80.87149
827.50 81.14025
827.60 81.68403
827.70 82.38816
827.80 83.1182
827.90 83.72945
828.00 84.08376
828.10 84.10141
828.20 83.78313
828.30 83.19144
828.40 82.43105
828.50 81.60085
828.60 80.76895
828.70 79.93734
828.80 79.06503
828.90 78.1402
829.00 77.1907
829.10 76.26875
829.20 75.44695
829.30 74.81431
829.40 74.42334
829.50 74.25466
829.60 74.24766
829.70 74.31831
829.80 74.34072
829.90 74.20345
830.00 73.86538
830.10 73.37771
830.20 72.86011
830.30 72.41304
830.40 72.09321
830.50 71.92839
830.60 71.93252
830.70 72.09286
830.80 72.36946
830.90 72.71393
831.00 73.0588
831.10 73.35148
831.20 73.59001
831.30 73.81546
831.40 74.09384
831.50 74.49399
831.60 75.06096
831.70 75.80104
831.80 76.68922
831.90 77.68025
832.00 78.69052
832.10 79.6139
832.20 80.3494
832.30 80.80768
832.40 80.93583
832.50 80.72896
832.60 80.25637
832.70 79.66414
832.80 79.11724
832.90 78.74937
833.00 78.61991
833.10 78.71198
833.20 78.97339
833.30 79.30596
833.40 79.58281
833.50 79.70156
833.60 79.64981
833.70 79.50203
833.80 79.37317
833.90 79.39667
834.00 79.65443
834.10 80.14486
834.20 80.79641
834.30 81.48055
834.40 82.08802
834.50 82.55672
834.60 82.83823
834.70 82.91209
834.80 82.81307
834.90 82.61696
835.00 82.35406
835.10 82.02979
835.20 81.67455
835.30 81.3064
835.40 80.9418
835.50 80.60593
835.60 80.33548
835.70 80.18411
835.80 80.16869
835.90 80.27027
836.00 80.45948
836.10 80.69274
836.20 80.91315
836.30 81.07908
836.40 81.22477
836.50 81.42701
836.60 81.73573
836.70 82.16311
836.80 82.67665
836.90 83.19982
837.00 83.60033
837.10 83.72269
837.20 83.47956
837.30 82.89156
837.40 82.06607
837.50 81.17236
837.60 80.44935
837.70 80.13762
837.80 80.33855
837.90 80.97258
838.00 81.84005
838.10 82.7201
838.20 83.39619
838.30 83.64583
838.40 83.34157
838.50 82.49716
838.60 81.24248
838.70 79.79924
838.80 78.42773
838.90 77.37002
839.00 76.73283
839.10 76.47265
839.20 76.54292
839.30 76.93226
839.40 77.65336
839.50 78.67142
839.60 79.87703
839.70 81.19507
839.80 82.57105
839.90 83.9285
840.00 85.13616
840.10 86.02711
840.20 86.49392
840.30 86.5258
840.40 86.24379
840.50 85.85465
840.60 85.51628
840.70 85.31903
840.80 85.26974
840.90 85.33785
841.00 85.57012
841.10 86.01768
841.20 86.66968
841.30 87.42936
841.40 88.1535
841.50 88.71526
841.60 88.98946
841.70 88.87418
841.80 88.31229
841.90 87.34446
842.00 86.14062
842.10 84.94105
842.20 83.98811
842.30 83.45358
842.40 83.38056
842.50 83.71159
842.60 84.33502
842.70 85.10585
842.80 85.82805
842.90 86.28659
843.00 86.28998
843.10 85.64863
843.20 84.24094
843.30 82.09846
843.40 79.4118
843.50 76.49488
843.60 73.71925
843.70 71.42724
843.80 69.82054
843.90 68.88756
844.00 68.43971
844.10 68.21144
844.20 67.97321
844.30 67.56071
844.40 66.90374
844.50 66.09703
844.60 65.33629
844.70 64.7775
844.80 64.47552
844.90 64.37603
845.00 64.33381
845.10 64.16133
845.20 63.70744
845.30 62.91575
845.40 61.84242
845.50 60.65049
845.60 59.53247
845.70 58.66069
845.80 58.16533
845.90 58.07295
846.00 58.30837
846.10 58.73333
846.20 59.18773
846.30 59.53812
846.40 59.73228
846.50 59.78639
846.60 59.72763
846.70 59.61101
846.80 59.47287
846.90 59.31092
847.00 59.13898
847.10 58.97925
847.20 58.832
847.30 58.70463
847.40 58.61919
847.50 58.58905
847.60 58.61429
847.70 58.66855
847.80 58.67976
847.90 58.57674
848.00 58.37261
848.10 58.12322
848.20 57.88222
848.30 57.72536
848.40 57.72864
848.50 57.93385
848.60 58.36539
848.70 59.04038
848.80 59.95481
848.90 61.04407
849.00 62.19026
849.10 63.26932
849.20 64.17721
849.30 64.8441
849.40 65.1995
849.50 65.19369
849.60 64.86663
849.70 64.31535
849.80 63.66959
849.90 63.13117
850.00 62.89279
850.10 63.00535
850.20 63.36192
850.30 63.81176
850.40 64.22303
850.50 64.48328
850.60 64.51414
850.70 64.29455
850.80 63.8913
850.90 63.43582
851.00 63.06379
851.10 62.85748
851.20 62.82925
851.30 62.86657
851.40 62.7813
851.50 62.43285
851.60 61.73865
851.70 60.64229
851.80 59.14702
851.90 57.36546
852.00 55.52661
852.10 53.94421
852.20 52.90816
852.30 52.59529
852.40 53.04731
852.50 54.19705
852.60 55.88573
852.70 57.88464
852.80 59.92103
852.90 61.74062
853.00 63.19404
853.10 64.26705
853.20 65.03936
853.30 65.62229
853.40 66.0897
853.50 66.4343
853.60 66.65117
853.70 66.80207
853.80 66.97283
853.90 67.21591
854.00 67.53297
854.10 67.91124
854.20 68.37043
854.30 68.94575
854.40 69.65134
854.50 70.4706
854.60 71.35776
854.70 72.23545
854.80 73.03917
854.90 73.73551
855.00 74.2889
855.10 74.66269
855.20 74.82818
855.30 74.79673
855.40 74.63671
855.50 74.42398
855.60 74.17848
855.70 73.87631
855.80 73.50637
855.90 73.08929
856.00 72.66293
856.10 72.28021
856.20 71.99854
856.30 71.87669
856.40 71.96584
856.50 72.26229
856.60 72.71272
856.70 73.23026
856.80 73.69882
856.90 74.01972
857.00 74.16078
857.10 74.15377
857.20 74.04838
857.30 73.89081
857.40 73.74123
857.50 73.67122
857.60 73.7506
857.70 74.01363
857.80 74.39968
857.90 74.80644
858.00 75.17044
858.10 75.45775
858.20 75.66048
858.30 75.80578
858.40 75.94447
858.50 76.11392
858.60 76.32656
858.70 76.57388
858.80 76.81512
858.90 77.00533
859.00 77.10011
859.10 77.06896
859.20 76.95644
859.30 76.85077
859.40 76.81969
859.50 76.90894
859.60 77.13531
859.70 77.47954
859.80 77.89375
859.90 78.32955
860.00 78.74044
860.10 79.09665
860.20 79.3839
860.30 79.5713
860.40 79.63032
860.50 79.53003
860.60 79.22872
860.70 78.68249
860.80 77.82924
860.90 76.61985
861.00 75.07075
861.10 73.24019
861.20 71.20378
861.30 69.06239
861.40 66.95078
861.50 64.99756
861.60 63.305
861.70 61.94599
861.80 60.93932
861.90 60.26083
862.00 59.82668
862.10 59.52371
862.20 59.2846
862.30 59.05966
862.40 58.78396
862.50 58.40894
862.60 57.91489
862.70 57.31684
862.80 56.65701
862.90 55.98715
863.00 55.36827
863.10 54.89498
863.20 54.67609
863.30 54.77295
863.40 55.19192
863.50 55.88858
863.60 56.76112
863.70 57.67746
863.80 58.51164
863.90 59.1801
864.00 59.66679
864.10 59.98472
864.20 60.14389
864.30 60.18456
864.40 60.17887
864.50 60.16688
864.60 60.15454
864.70 60.17675
864.80 60.31401
864.90 60.65954
865.00 61.27081
865.10 62.14865
865.20 63.24242
865.30 64.45582
865.40 65.68106
865.50 66.81699
865.60 67.78482
865.70 68.56044
865.80 69.14837
865.90 69.56303
866.00 69.80859
866.10 69.88426
866.20 69.81766
866.30 69.65155
866.40 69.41862
866.50 69.12134
866.60 68.71127
866.70 68.15753
866.80 67.46981
866.90 66.68479
867.00 65.89347
867.10 65.2159
867.20 64.78472
867.30 64.72679
867.40 65.14483
867.50 66.05216
867.60 67.31942
867.70 68.68865
867.80 69.86226
867.90 70.62511
868.00 70.91234
868.10 70.76355
868.20 70.2986
868.30 69.70237
868.40 69.15162
868.50 68.74158
868.60 68.46482
868.70 68.22934
868.80 67.88276
868.90 67.25145
869.00 66.17506
869.10 64.5821
869.20 62.51756
869.30 60.13377
869.40 57.6754
869.50 55.42072
869.60 53.59973
869.70 52.35498
869.80 51.73659
869.90 51.70838
870.00 52.15317
870.10 52.9055
870.20 53.79227
870.30 54.65996
870.40 55.3957
870.50 55.90979
870.60 56.15093
870.70 56.11584
870.80 55.82587
870.90 55.30353
871.00 54.566
871.10 53.67071
871.20 52.73001
871.30 51.87361
871.40 51.21618
871.50 50.83071
871.60 50.72129
871.70 50.83597
871.80 51.11605
871.90 51.51926
872.00 52.01144
872.10 52.57348
872.20 53.20655
872.30 53.94018
872.40 54.849
872.50 55.99107
872.60 57.34715
872.70 58.80712
872.80 60.19724
872.90 61.33621
873.00 62.08249
873.10 62.35373
873.20 62.13119
873.30 61.49381
873.40 60.6182
873.50 59.72635
873.60 59.03486
873.70 58.70066
873.80 58.78069
873.90 59.26693
874.00 60.11405
874.10 61.24217
874.20 62.5396
874.30 63.85149
874.40 64.99314
874.50 65.81173
874.60 66.23133
874.70 66.2544
874.80 65.9754
874.90 65.55569
875.00 65.17724
875.10 65.00531
875.20 65.13729
875.30 65.57422
875.40 66.27083
875.50 67.19559
875.60 68.3303
875.70 69.65165
875.80 71.14433
875.90 72.68812
876.00 74.03483
876.10 74.95038
876.20 75.28406
876.30 74.99217
876.40 74.10501
876.50 72.7636
876.60 71.29247
876.70 70.12133
876.80 69.60709
876.90 69.95013
877.00 71.20058
877.10 73.28793
877.20 76.01607
877.30 79.09927
877.40 82.15676
877.50 84.74789
877.60 86.46881
877.70 87.01646
877.80 86.30185
877.90 84.49605
878.00 81.96213
878.10 79.16111
878.20 76.60651
878.30 74.74697
878.40 73.82151
878.50 73.81335
878.60 74.49925
878.70 75.58839
878.80 76.86717
878.90 78.17856
879.00 79.3626
879.10 80.34374
879.20 81.19379
879.30 82.02658
879.40 82.89998
879.50 83.79404
879.60 84.54907
879.70 84.90933
879.80 84.64551
879.90 83.61087
880.00 81.79419
880.10 79.36527
880.20 76.63359
880.30 73.96447
880.40 71.72092
880.50 70.19586
880.60 69.56611
880.70 69.90181
880.80 71.15033
880.90 73.15764
881.00 75.77724
881.10 78.88783
881.20 82.35118
881.30 86.00207
881.40 89.62647
881.50 92.95947
881.60 95.71688
881.70 97.67483
881.80 98.73212
881.90 98.86811
882.00 98.13728
882.10 96.69367
882.20 94.7505
882.30 92.60428
882.40 90.54714
882.50 88.80009
882.60 87.52338
882.70 86.76576
882.80 86.48973
882.90 86.61945
883.00 87.08903
883.10 87.86429
883.20 88.90948
883.30 90.1902
883.40 91.65829
883.50 93.23712
883.60 94.89732
883.70 96.60624
883.80 98.27739
883.90 99.75504
884.00 100.8157
884.10 101.2346
884.20 100.8347
884.30 99.50882
884.40 97.26035
884.50 94.23016
884.60 90.7744
884.70 87.48078
884.80 85.00039
884.90 83.89438
885.00 84.43695
885.10 86.48684
885.20 89.55833
885.30 92.94881
885.40 95.89701
885.50 97.77853
885.60 98.21707
885.70 97.13248
885.80 94.74866
885.90 91.53045
886.00 88.06433
886.10 84.92941
886.20 82.60125
886.30 81.31531
886.40 81.04352
886.50 81.56497
886.60 82.50952
886.70 83.39569
886.80 83.69593
886.90 83.01825
887.00 81.25569
887.10 78.5891
887.20 75.43746
887.30 72.4154
887.40 70.19301
887.50 69.25375
887.60 69.77338
887.70 71.60511
887.80 74.30687
887.90 77.27412
888.00 79.91889
888.10 81.7969
888.20 82.66655
888.30 82.57346
888.40 81.86388
888.50 81.03823
888.60 80.51138
888.70 80.51063
888.80 81.08226
888.90 82.09245
889.00 83.23966
889.10 84.13519
889.20 84.4371
889.30 83.93694
889.40 82.61182
889.50 80.68467
889.60 78.64748
889.70 77.04754
889.80 76.28882
889.90 76.61404
890.00 78.12976
890.10 80.72116
890.20 83.99269
890.30 87.4006
890.40 90.39054
890.50 92.49114
890.60 93.41085
890.70 93.09453
890.80 91.74163
890.90 89.77441
891.00 87.69872
891.10 85.97491
891.20 84.93776
891.30 84.76692
891.40 85.52339
891.50 87.16442
891.60 89.50771
891.70 92.2738
891.80 95.08019
891.90 97.47952
892.00 99.08606
892.10 99.63049
892.20 99.02499
892.30 97.38371
892.40 94.99975
892.50 92.29414
892.60 89.75792
892.70 87.89084
892.80 87.10026
892.90 87.60111
893.00 89.37495
893.10 92.11699
893.20 95.32303
893.30 98.41902
893.40 100.8286
893.50 102.0995
893.60 101.9633
893.70 100.3836
893.80 97.57016
893.90 93.88307
894.00 89.74311
894.10 85.62322
894.20 81.97485
894.30 79.12501
894.40 77.27395
894.50 76.51051
894.60 76.81248
894.70 78.02596
894.80 79.8669
894.90 81.98926
895.00 84.06994
895.10 85.8797
895.20 87.37194
895.30 88.75386
895.40 90.37245
895.50 92.45447
895.60 94.94386
895.70 97.59482
895.80 100.0619
895.90 101.9075
896.00 102.7713
896.10 102.4901
896.20 101.1383
896.30 99.02894
896.40 96.62629
896.50 94.4207
896.60 92.79721
896.70 91.94793
896.80 91.85624
896.90 92.39175
897.00 93.4298
897.10 94.8169
897.20 96.37496
897.30 98.00777
897.40 99.63984
897.50 101.1937
897.60 102.5754
897.70 103.6505
897.80 104.3137
897.90 104.5599
898.00 104.5285
898.10 104.4701
898.20 104.6977
898.30 105.4889
898.40 106.967
898.50 109.0458
898.60 111.3962
898.70 113.4801
898.80 114.7631
898.90 114.9492
899.00 114.0343
899.10 112.261
899.20 110.0197
899.30 107.7024
899.40 105.6317
899.50 104.0353
899.60 102.9695
899.70 102.3184
899.80 101.9714
899.90 101.9805
900.00 100.1856
900.10 99.94686
900.20 102.8678
900.30 106.0194
900.40 113.3392
900.50 121.0126
900.60 120.0034
900.70 115.3134
900.80 111.2788
900.90 108.3797
901.00 104.8231
901.10 101.0333
901.20 97.11177
901.30 100.3319
901.40 105.8097
901.50 109.9214
901.60 112.2414
901.70 115.0238
901.80 118.1674
901.90 121.0817
902.00 119.2441
902.10 116.3493
902.20 112.7454
902.30 108.5529
902.40 104.2414
902.50 100.7717
902.60 97.50642
902.70 91.89538
902.80 86.16825
902.90 85.51911
903.00 88.34248
903.10 91.90343
903.20 96.90926
903.30 102.1099
903.40 112.2515
903.50 122.6688
903.60 127.7857
903.70 130.0308
903.80 131.6564
903.90 132.0178
904.00 131.7361
904.10 127.5629
904.20 123.188
904.30 120.2358
904.40 117.8527
904.50 116.3858
904.60 116.3886
904.70 116.7861
904.80 116.4136
904.90 116.2363
905.00 113.5412
905.10 109.9671
905.20 106.6987
905.30 103.9909
905.40 101.4596
905.50 102.2876
905.60 103.3199
905.70 106.4921
905.80 110.1532
905.90 111.0142
906.00 109.2668
906.10 107.0078
906.20 102.8985
906.30 98.54859
906.40 99.11239
906.50 100.3491
906.60 102.4151
906.70 104.9122
906.80 107.4191
906.90 110.037
907.00 112.5938
907.10 107.707
907.20 102.6098
907.30 104.1301
907.40 109.0136
907.50 114.1819
907.60 119.4788
907.70 124.8758
907.80 130.1244
907.90 135.3931
908.00 134.7976
908.10 131.9302
908.20 129.171
908.30 126.8103
908.40 124.2886
908.50 121.4626
908.60 118.5585
908.70 115.4406
908.80 112.3643
908.90 111.8632
909.00 113.9245
909.10 116.0549
909.20 118.1998
909.30 120.348
909.40 122.3395
909.50 124.3352
909.60 124.1341
909.70 122.1408
909.80 120.6339
909.90 120.2082
910.00 119.4754
910.10 119.3325
910.20 119.2414
910.30 119.0569
910.40 118.792
910.50 117.9166
910.60 115.8317
910.70 113.8562
910.80 118.2952
910.90 122.5211
911.00 126.228
911.10 129.8909
911.20 132.3113
911.30 132.2304
911.40 132.0146
911.50 126.6128
911.60 121.1373
911.70 124.5807
911.80 130.7688
911.90 134.8415
912.00 136.5006
912.10 138.5655
912.20 142.7053
912.30 146.9543
912.40 148.016
912.50 148.1421
912.60 148.4817
912.70 149.2736
912.80 148.893
912.90 144.336
913.00 139.994
913.10 139.0125
913.20 138.6762
913.30 139.8689
913.40 142.0034
913.50 143.5093
913.60 143.3987
913.70 143.2
913.80 139.2278
913.90 134.6575
914.00 131.1279
914.10 128.2947
914.20 125.2702
914.30 122.0201
914.40 119.6124
914.50 123.0319
914.60 126.8173
914.70 128.4155
914.80 128.9059
914.90 130.0001
915.00 132.4491
915.10 134.5363
915.20 134.5809
915.30 134.7857
915.40 138.8987
915.50 144.1667
915.60 150.6154
915.70 158.1582
915.80 164.5371
915.90 164.7522
916.00 164.5808
916.10 157.2126
916.20 148.4834
916.30 140.4912
916.40 133.289
916.50 129.1755
916.60 134.6682
916.70 140.5202
916.80 148.0201
916.90 155.7305
917.00 158.5031
917.10 158.1642
917.20 156.584
917.30 152.5173
917.40 148.2526
917.50 143.4159
917.60 138.3336
917.70 137.6178
917.80 139.0647
917.90 140.8538
918.00 142.7297
918.10 144.6824
918.20 146.2755
918.30 147.9681
918.40 146.9351
918.50 144.9361
918.60 144.993
918.70 147.746
918.80 150.9411
918.90 155.9175
919.00 161.3685
919.10 166.483
919.20 171.3921
919.30 171.4157
919.40 166.9266
919.50 161.6388
919.60 155.6426
919.70 149.2512
919.80 150.1016
919.90 152.1772
920.00 156.1475
920.10 161.2463
920.20 165.4364
920.30 166.8067
920.40 168.1321
920.50 164.2234
920.60 159.778
920.70 155.2907
920.80 150.7934
920.90 145.3785
921.00 138.7431
921.10 132.6302
921.20 131.9327
921.30 131.4772
921.40 134.6606
921.50 139.2842
921.60 144.1022
921.70 148.877
921.80 153.4331
921.90 156.7454
922.00 159.9517
922.10 159.6783
922.20 158.3792
922.30 157.0567
922.40 155.945
922.50 154.6917
922.60 152.0632
922.70 149.5689
922.80 147.1329
922.90 144.6187
923.00 140.1978
923.10 134.2901
923.20 130.1153
923.30 131.6876
923.40 133.3569
923.50 136.4421
923.60 139.7616
923.70 142.698
923.80 145.3284
923.90 147.9851
924.00 150.8328
924.10 153.9806
924.20 159.7558
924.30 165.7509
924.40 166.7556
924.50 165.6341
924.60 161.7051
924.70 153.6419
924.80 145.1318
924.90 139.6877
925.00 134.0687
925.10 131.537
925.20 129.9936
925.30 131.3933
925.40 136.0339
925.50 141.1641
925.60 146.3494
925.70 151.7063
925.80 155.6886
925.90 159.4694
926.00 157.4778
926.10 150.4034
926.20 144.5283
926.30 144.0519
926.40 143.5085
926.50 148.5937
926.60 154.1276
926.70 158.4916
926.80 162.2624
926.90 163.2488
927.00 157.2279
927.10 150.9935
927.20 146.4422
927.30 141.7759
927.40 138.8865
927.50 136.7204
927.60 133.935
927.70 130.4521
927.80 127.0709
927.90 123.4964
928.00 120.0256
928.10 119.817
928.20 120.7434
928.30 123.8941
928.40 129.5681
928.50 134.5989
928.60 135.9017
928.70 137.0488
928.80 132.7356
928.90 127.2673
929.00 124.5776
929.10 124.5102
929.20 125.4538
929.30 129.2279
929.40 133.2994
929.50 134.0148
929.60 134.2502
929.70 134.2306
929.80 134.0215
929.90 134.5587
930.00 137.5124
930.10 140.5407
930.20 138.408
930.30 136.1614
930.40 133.5313
930.50 130.7378
930.60 127.9852
930.70 125.344
930.80 122.8987
930.90 122.3037
931.00 121.9556
931.10 124.2267
931.20 127.327
931.30 132.2913
931.40 139.893
931.50 146.3994
931.60 145.9809
931.70 145.6891
931.80 145.2557
931.90 148.3153
932.00 151.6847
932.10 154.5436
932.20 154.7596
932.30 154.9976
932.40 151.9163
932.50 145.1632
932.60 138.4765
932.70 135.7919
932.80 134.3516
932.90 132.918
933.00 135.1069
933.10 137.285
933.20 138.097
933.30 136.3903
933.40 134.6314
933.50 133.0919
933.60 131.7492
933.70 130.559
933.80 131.305
933.90 132.2802
934.00 133.8787
934.10 137.8105
934.20 141.7409
934.30 144.0837
934.40 144.4917
934.50 144.9052
934.60 145.7033
934.70 146.6345
934.80 147.4703
934.90 148.149
935.00 148.8
935.10 148.2836
935.20 145.8982
935.30 143.514
935.40 139.4493
935.50 134.166
935.60 129.1178
935.70 128.8472
935.80 129.2698
935.90 131.0526
936.00 138.1054
936.10 145.1484
936.20 150.8114
936.30 154.6968
936.40 158.4943
936.50 157.9873
936.60 155.7593
936.70 153.0998
936.80 148.3788
936.90 143.6583
937.00 139.9981
937.10 139.0414
937.20 138.1229
937.30 138.697
937.40 140.3855
937.50 142.2095
937.60 143.1946
937.70 144.0041
937.80 144.364
937.90 142.2797
938.00 140.2175
938.10 139.3929
938.20 140.2143
938.30 141.0153
938.40 141.741
938.50 142.4429
938.60 143.212
938.70 141.3028
938.80 139.3388
938.90 138.5278
939.00 140.9758
939.10 143.4769
939.20 146.0251
939.30 148.5218
939.40 150.9648
939.50 152.371
939.60 153.572
939.70 153.7956
939.80 148.5055
939.90 143.1674
940.00 139.065
940.10 137.2371
940.20 135.5043
940.30 137.5305
940.40 141.2751
940.50 145.3946
940.60 151.1345
940.70 156.9378
940.80 160.8213
940.90 158.872
941.00 156.8843
941.10 155.4859
941.20 154.6826
941.30 153.6671
941.40 153.4789
941.50 153.5164
941.60 153.5913
941.70 153.5064
941.80 153.4024
941.90 151.811
942.00 147.9348
942.10 144.162
942.20 143.7823
942.30 145.0164
942.40 146.3375
942.50 146.3147
942.60 146.2229
942.70 147.4818
942.80 152.9909
942.90 158.4786
943.00 163.5588
943.10 168.3048
943.20 172.9933
943.30 177.5304
943.40 182.0388
943.50 185.7306
943.60 180.7407
943.70 175.6999
943.80 171.4934
943.90 169.1014
944.00 166.6642
944.10 164.5675
944.20 162.6736
944.30 160.8313
944.40 159.6971
944.50 158.6129
944.60 157.3582
944.70 155.064
944.80 152.843
944.90 152.689
945.00 154.3717
945.10 156.0354
945.20 159.5981
945.30 163.6386
945.40 167.3679
945.50 168.1746
945.60 168.9083
945.70 168.3759
945.80 166.2531
945.90 164.2289
946.00 160.8969
946.10 156.801
946.20 152.893
946.30 151.8377
946.40 150.9735
946.50 151.2877
946.60 154.7011
946.70 158.0309
946.80 161.1036
946.90 164.0923
947.00 166.9518
947.10 168.0436
947.20 168.6876
947.30 169.4167
947.40 170.9136
947.50 172.43
947.60 173.2152
947.70 172.6134
947.80 172.0788
947.90 170.9893
948.00 169.5618
948.10 168.018
948.20 167.9888
948.30 168.056
948.40 169.2516
948.50 174.6168
948.60 179.9414
948.70 185.1126
948.80 190.2122
948.90 195.4801
949.00 197.1901
949.10 197.9849
949.20 198.1034
949.30 192.5746
949.40 187.0299
949.50 182.9454
949.60 181.4551
949.70 179.9908
949.80 179.7698
949.90 180.2037
950.00 180.7356
950.10 182.285
950.20 183.8921
950.30 184.713
950.40 183.1833
950.50 181.6298
950.60 182.4732
950.70 185.6617
950.80 189.0951
950.90 189.2393
951.00 188.5269
951.10 187.8416
951.20 188.8997
951.30 189.9039
951.40 188.7342
951.50 184.208
951.60 179.5591
951.70 175.4727
951.80 171.7392
951.90 168.1156
952.00 166.9326
952.10 165.9054
952.20 167.3828
952.30 176.1283
952.40 184.9679
952.50 193.5118
952.60 201.6283
952.70 209.6851
952.80 208.0108
952.90 204.0615
953.00 199.5586
953.10 192.59
953.20 185.5653
953.30 180.0487
953.40 177.2999
953.50 174.6189
953.60 176.6225
953.70 180.9026
953.80 185.1404
953.90 184.2734
954.00 183.2061
954.10 182.4165
954.20 182.1243
954.30 181.832
954.40 183.2306
954.50 186.1293
954.60 189.0666
954.70 195.1939
954.80 202.0172
954.90 208.1138
955.00 209.2836
955.10 210.441
955.20 209.816
955.30 206.5729
955.40 203.5225
955.50 200.7702
955.60 198.081
955.70 195.4196
955.80 194.1467
955.90 192.9078
956.00 191.8765
956.10 191.6354
956.20 191.3005
956.30 191.8725
956.40 193.3016
956.50 194.6987
956.60 195.587
956.70 196.381
956.80 197.1865
956.90 197.6923
957.00 198.2229
957.10 198.6124
957.20 198.7029
957.30 198.7729
957.40 198.6609
957.50 198.4777
957.60 198.109
957.70 195.8732
957.80 193.6208
957.90 191.5703
958.00 190.0069
958.10 188.5228
958.20 187.3895
958.30 186.4418
958.40 185.6063
958.50 182.6972
958.60 179.4131
958.70 176.1051
958.80 173.5458
958.90 170.8563
959.00 167.2054
959.10 162.6828
959.20 158.2555
959.30 157.0372
959.40 157.0411
959.50 157.3425
959.60 157.7719
959.70 158.1745
959.80 158.8668
959.90 160.5392
960.00 162.0895
960.10 163.9312
960.20 166.0752
960.30 168.4729
960.40 170.0226
960.50 171.4672
960.60 173.1333
960.70 173.1978
960.80 173.2181
960.90 171.5568
961.00 167.95
961.10 164.0835
961.20 161.8864
961.30 160.3316
961.40 158.7015
961.50 161.7248
961.60 164.7994
961.70 168.4503
961.80 172.8901
961.90 177.4821
962.00 180.4274
962.10 182.2186
962.20 184.0242
962.30 182.6351
962.40 180.8644
962.50 178.6899
962.60 176.2803
962.70 173.8682
962.80 172.3034
962.90 171.6614
963.00 170.9977
963.10 172.5684
963.20 174.81
963.30 176.7429
963.40 174.2079
963.50 171.5824
963.60 167.7445
963.70 162.218
963.80 156.6468
963.90 152.3211
964.00 148.7192
964.10 145.3293
964.20 147.615
964.30 150.3875
964.40 153.1478
964.50 153.8435
964.60 154.6452
964.70 156.7909
964.80 160.0754
964.90 163.1423
965.00 163.6685
965.10 163.584
965.20 163.2388
965.30 162.9433
965.40 162.6233
965.50 162.6469
965.60 163.3401
965.70 164.1009
965.80 168.3523
965.90 174.2967
966.00 180.4432
966.10 181.5101
966.20 182.3899
966.30 183.3826
966.40 184.2325
966.50 185.0107
966.60 185.522
966.70 185.887
966.80 185.9979
966.90 187.4185
967.00 189.129
967.10 190.1489
967.20 185.2577
967.30 180.3392
967.40 176.239
967.50 173.3527
967.60 170.4008
967.70 170.8725
967.80 172.7605
967.90 174.6402
968.00 177.3561
968.10 180.133
968.20 182.5895
968.30 183.6254
968.40 184.6057
968.50 183.6038
968.60 181.2102
968.70 178.7815
968.80 178.0003
968.90 177.4694
969.00 177.3048
969.10 178.8579
969.20 180.4756
969.30 182.8419
969.40 185.9769
969.50 189.1565
969.60 191.0479
969.70 192.4783
969.80 193.7652
969.90 193.912
970.00 194.0049
970.10 193.3571
970.20 191.5711
970.30 189.7202
970.40 187.1705
970.50 184.2292
970.60 181.1787
970.70 181.2903
970.80 181.742
970.90 183.3418
971.00 188.7301
971.10 194.2945
971.20 199.8778
971.30 205.2062
971.40 210.6905
971.50 211.8159
971.60 211.764
971.70 211.1479
971.80 207.308
971.90 203.3835
972.00 200.4811
972.10 199.6899
972.20 198.7395
972.30 199.0643
972.40 200.1081
972.50 201.1671
972.60 199.2849
972.70 197.2622
972.80 195.0491
972.90 192.037
973.00 189.0173
973.10 187.4581
973.20 187.151
973.30 187.0461
973.40 187.3127
973.50 187.6442
973.60 187.9815
973.70 187.7474
973.80 187.5042
973.90 187.6351
974.00 188.308
974.10 188.7224
974.20 188.1002
974.30 187.1194
974.40 186.222
974.50 185.4995
974.60 184.7902
974.70 184.3726
974.80 184.5477
974.90 184.8768
975.00 186.6812
975.10 189.404
975.20 192.2131
975.30 193.6126
975.40 194.8058
975.50 195.9074
975.60 197.1077
975.70 198.3244
975.80 199.1631
975.90 199.5266
976.00 199.7039
976.10 200.6652
976.20 201.9018
976.30 203.244
976.40 203.6651
976.50 204.0891
976.60 204.3596
976.70 204.3159
976.80 204.241
976.90 203.1701
977.00 201.5527
977.10 199.6077
977.20 199.3708
977.30 199.303
977.40 199.9145
977.50 202.2053
977.60 204.6242
977.70 205.7066
977.80 205.4049
977.90 205.0956
978.00 203.134
978.10 200.774
978.20 198.0242
978.30 195.1033
978.40 192.1544
978.50 190.218
978.60 189.8899
978.70 189.6378
978.80 190.2056
978.90 191.1208
979.00 192.2666
979.10 197.4856
979.20 202.8521
979.30 207.8515
979.40 211.2794
979.50 214.7175
979.60 216.291
979.70 216.4504
979.80 216.5124
979.90 215.8396
980.00 215.029
980.10 213.9791
980.20 212.8633
980.30 211.7522
980.40 210.9454
980.50 210.5012
980.60 209.8798
980.70 208.6166
980.80 207.1672
980.90 205.8698
981.00 205.292
981.10 204.7317
981.20 203.6265
981.30 201.3193
981.40 199.0385
981.50 199.8044
981.60 202.3473
981.70 204.755
981.80 206.0779
981.90 207.3144
982.00 208.3892
982.10 208.7718
982.20 209.1388
982.30 209.4003
982.40 209.5788
982.50 209.8848
982.60 210.9478
982.70 212.1967
982.80 213.2805
982.90 211.2134
983.00 209.106
983.10 206.9078
983.20 204.6952
983.30 202.3001
983.40 201.2494
983.50 200.8508
983.60 200.3963
983.70 201.3959
983.80 202.4804
983.90 204.0626
984.00 206.4225
984.10 208.8549
984.20 210.5096
984.30 211.5268
984.40 212.4122
984.50 209.6556
984.60 206.3711
984.70 202.8588
984.80 197.655
984.90 192.391
985.00 189.6624
985.10 190.0159
985.20 190.316
985.30 193.2098
985.40 196.976
985.50 200.7124
985.60 203.1679
985.70 205.7108
985.80 207.4526
985.90 207.2237
986.00 206.9831
986.10 207.859
986.20 209.3676
986.30 210.818
986.40 211.4753
986.50 212.0625
986.60 212.0214
986.70 210.0444
986.80 207.8779
986.90 207.5102
987.00 209.0001
987.10 210.7278
987.20 215.4288
987.30 220.7927
987.40 225.837
987.50 225.5315
987.60 225.2206
987.70 222.8032
987.80 217.3681
987.90 211.446
988.00 209.0534
988.10 208.2049
988.20 207.5094
988.30 213.1698
988.40 218.9465
988.50 223.9275
988.60 226.2367
988.70 228.621
988.80 228.5014
988.90 226.5989
989.00 224.4017
989.10 218.4935
989.20 212.0726
989.30 204.2992
989.40 192.0748
989.50 179.5757
989.60 166.6483
989.70 153.6354
989.80 140.4927
989.90 131.7894
990.00 124.3656
990.10 117.5599
990.20 113.0165
990.30 108.5605
990.40 103.6064
990.50 97.50122
990.60 91.34795
990.70 87.61097
990.80 85.13393
990.90 82.82817
991.00 84.11145
991.10 85.6231
991.20 86.52898
991.30 84.90907
991.40 83.27042
991.50 82.15841
991.60 81.492
991.70 80.86894
991.80 81.31956
991.90 81.98076
992.00 82.8294
992.10 83.68953
992.20 84.56342
992.30 84.43491
992.40 83.00545
992.50 81.38748
992.60 83.79975
992.70 87.65643
992.80 91.65051
992.90 96.54118
993.00 101.5165
993.10 105.5819
993.20 107.3991
993.30 109.1901
993.40 110.2542
993.50 110.9017
993.60 111.5061
993.70 115.1446
993.80 119.0439
993.90 123.2791
994.00 128.2206
994.10 133.1205
994.20 136.5042
994.30 138.5282
994.40 140.2666
994.50 140.7975
994.60 141.0877
994.70 141.5631
994.80 142.8275
994.90 144.1634
995.00 146.4342
995.10 149.8826
995.20 153.4326
995.30 154.2831
995.40 154.0115
995.50 153.2318
995.60 148.5507
995.70 143.8119
995.80 139.4278
995.90 136.2356
996.00 132.9999
996.10 134.757
996.20 139.8647
996.30 145.7026
996.40 151.8148
996.50 157.9857
996.60 162.2903
996.70 157.7961
996.80 152.9431
996.90 145.4638
997.00 135.6719
997.10 125.1226
997.20 119.2861
997.30 114.7818
997.40 111.2559
997.50 115.1368
997.60 119.332
997.70 123.6078
997.80 127.1033
997.90 130.8802
998.00 133.02
998.10 134.3211
998.20 135.3889
998.30 132.2357
998.40 128.9002
998.50 125.8218
998.60 124.1098
998.70 122.4106
998.80 121.3279
998.90 120.684
999.00 120.0525
999.10 120.8214
999.20 121.8109
999.30 122.3319
999.40 120.2412
999.50 118.0706
999.60 118.7346
999.70 122.7051
999.80 126.8828
999.90 133.2824
1000.00 140.3384
1000.10 147.5836
1000.20 153.9726
1000.30 160.4917
1000.40 164.1946
1000.50 162.4615
1000.60 160.4189
1000.70 156.6962
1000.80 152.1937
1000.90 146.9483
1001.00 142.8727
1001.10 138.8425
1001.20 136.3796
1001.30 138.4234
1001.40 140.8173
1001.50 144.1608
1001.60 148.0161
1001.70 152.2241
1001.80 154.3726
1001.90 156.1249
1002.00 157.4164
1002.10 157.8392
1002.20 158.2205
1002.30 159.3621
1002.40 161.4974
1002.50 163.7712
1002.60 165.5184
1002.70 167.0684
1002.80 168.2665
1002.90 165.2172
1003.00 162.0718
1003.10 158.9453
1003.20 156.1998
1003.30 153.3121
1003.40 150.5678
1003.50 147.9438
1003.60 145.3438
1003.70 146.4445
1003.80 147.7674
1003.90 149.6664
1004.00 153.0338
1004.10 156.7887
1004.20 162.5033
1004.30 169.6062
1004.40 176.9236
1004.50 178.2061
1004.60 178.2612
1004.70 176.9106
1004.80 169.5755
1004.90 161.8412
1005.00 152.1062
1005.10 140.4714
1005.20 128.5184
1005.30 122.0145
1005.40 117.4764
1005.50 113.4328
1005.60 113.5188
1005.70 113.8815
1005.80 115.3767
1005.90 117.9797
1006.00 120.8608
1006.10 123.4206
1006.20 125.7079
1006.30 127.7573
1006.40 133.719
1006.50 139.944
1006.60 146.0855
1006.70 151.8314
1006.80 157.7175
1006.90 161.3765
1007.00 163.0325
1007.10 164.4404
1007.20 163.9347
1007.30 163.0234
1007.40 162.3156
1007.50 164.9444
1007.60 167.661
1007.70 172.0763
1007.80 178.5054
1007.90 185.1113
1008.00 188.6858
1008.10 191.1685
1008.20 193.3869
1008.30 191.5301
1008.40 189.6972
1008.50 187.2996
1008.60 183.7157
1008.70 179.9431
1008.80 176.2528
1008.90 172.6684
1009.00 168.5953
1009.10 166.5679
1009.20 164.6833
1009.30 163.8083
1009.40 166.4546
1009.50 169.4563
1009.60 176.1849
1009.70 185.95
1009.80 196.2946
1009.90 203.9364
1010.00 211.0456
1010.10 217.83
1010.20 220.6484
1010.30 223.2256
1010.40 222.1594
1010.50 216.6703
1010.60 210.4665
1010.70 203.6971
1010.80 196.7948
1010.90 189.4643
1011.00 181.2526
1011.10 173.0885
1011.20 165.8637
1011.30 160.2836
1011.40 154.8377
1011.50 151.3813
1011.60 149.0016
1011.70 146.7431
1011.80 151.0747
1011.90 155.9604
1012.00 162.3516
1012.10 172.1667
1012.20 182.3376
1012.30 190.374
1012.40 196.3442
1012.50 202.3239
1012.60 204.0449
1012.70 204.8741
1012.80 205.0251
1012.90 203.8097
1013.00 202.4357
1013.10 198.4414
1013.20 191.3593
1013.30 183.9675
1013.40 174.2116
1013.50 163.6352
1013.60 152.8504
1013.70 148.9047
1013.80 145.0284
1013.90 144.8911
1014.00 151.7621
1014.10 159.2779
1014.20 164.6104
1014.30 168.5196
1014.40 172.8348
1014.50 171.1541
1014.60 168.9532
1014.70 167.477
1014.80 169.5257
1014.90 171.5541
1015.00 175.5172
1015.10 181.1418
1015.20 187.0093
1015.30 186.5631
1015.40 184.9577
1015.50 182.382
1015.60 175.4336
1015.70 168.1531
1015.80 162.3995
1015.90 158.9886
1016.00 155.6905
1016.10 157.8542
1016.20 161.864
1016.30 166.2903
1016.40 169.3804
1016.50 172.6008
1016.60 175.097
1016.70 175.8359
1016.80 176.4313
1016.90 176.0167
1017.00 175.0963
1017.10 173.7605
1017.20 180.3129
1017.30 187.3947
1017.40 193.9146
1017.50 198.0051
1017.60 202.3816
1017.70 201.8111
1017.80 197.1908
1017.90 192.0195
1018.00 183.7235
1018.10 174.7653
1018.20 165.967
1018.30 161.9746
1018.40 157.9983
1018.50 156.7438
1018.60 158.6639
1018.70 161.2023
1018.80 164.6067
1018.90 168.2814
1019.00 172.2822
1019.10 174.0807
1019.20 175.8741
1019.30 176.7998
1019.40 176.2609
1019.50 175.3823
1019.60 175.3051
1019.70 175.6979
1019.80 175.8984
1019.90 177.7449
1020.00 179.7389
1020.10 182.164
1020.20 185.1442
1020.30 188.1746
1020.40 191.3986
1020.50 194.7434
1020.60 198.2175
1020.70 196.8388
1020.80 194.7591
1020.90 192.0321
1021.00 186.9947
1021.10 181.752
1021.20 175.8833
1021.30 169.5502
1021.40 162.8105
1021.50 157.371
1021.60 152.3445
1021.70 147.6327
1021.80 144.7482
1021.90 141.9331
1022.00 141.5634
1022.10 144.869
1022.20 148.5585
1022.30 153.5327
1022.40 159.0243
1022.50 164.8763
1022.60 168.6548
1022.70 172.4212
1022.80 174.8304
1022.90 173.8709
1023.00 172.5213
1023.10 170.8552
1023.20 169.1308
1023.30 167.2596
1023.40 170.1059
1023.50 173.59
1023.60 177.8981
1023.70 183.9954
1023.80 190.175
1023.90 195.8734
1024.00 201.0206
1024.10 206.22
1024.20 206.077
1024.30 204.6334
1024.40 202.7293
1024.50 199.3463
1024.60 195.8303
1024.70 191.2456
1024.80 185.3568
1024.90 179.2414
1025.00 175.2757
1025.10 172.2169
1025.20 169.1712
1025.30 168.5923
1025.40 168.1327
1025.50 168.1481
1025.60 168.7218
1025.70 169.355
1025.80 166.1868
1025.90 160.6698
1026.00 154.8652
1026.10 148.8948
1026.20 142.8228
1026.30 138.9142
1026.40 143.0651
1026.50 147.6691
1026.60 154.6741
1026.70 163.5052
1026.80 173.1176
1026.90 178.4945
1027.00 183.0036
1027.10 186.2798
1027.20 183.0711
1027.30 179.4618
1027.40 176.2229
1027.50 174.0079
1027.60 171.4462
1027.70 167.7906
1027.80 163.7918
1027.90 159.8172
1028.00 154.6529
1028.10 149.5176
1028.20 145.9731
1028.30 145.2986
1028.40 144.768
1028.50 149.1445
1028.60 156.1301
1028.70 163.7457
1028.80 170.151
1028.90 176.578
1029.00 181.4044
1029.10 181.1956
1029.20 180.6501
1029.30 179.451
1029.40 177.9074
1029.50 175.9276
1029.60 174.5985
1029.70 173.4017
1029.80 172.373
1029.90 171.6667
1030.00 170.9972
1030.10 171.2774
1030.20 172.5904
1030.30 174.0245
1030.40 176.9199
1030.50 180.2657
1030.60 183.6966
1030.70 184.5773
1030.80 185.4094
1030.90 185.7696
1031.00 185.4926
1031.10 184.9735
1031.20 183.7479
1031.30 182.244
1031.40 180.7629
1031.50 179.1057
1031.60 177.397
1031.70 175.6848
1031.80 174.1798
1031.90 172.5727
1032.00 170.7249
1032.10 168.7532
1032.20 166.7854
1032.30 166.2528
1032.40 165.9667
1032.50 167.289
1032.60 173.7295
1032.70 180.2951
1032.80 188.7725
1032.90 198.9925
1033.00 209.8263
1033.10 214.5161
1033.20 217.7878
1033.30 219.5263
1033.40 211.7894
1033.50 203.5158
1033.60 194.7552
1033.70 186.1249
1033.80 176.9189
1033.90 172.9618
1034.00 171.0769
1034.10 170.0766
1034.20 174.5185
1034.30 179.2559
1034.40 183.6706
1034.50 186.5618
1034.60 189.5736
1034.70 189.3694
1034.80 187.327
1034.90 184.74
1035.00 181.4955
1035.10 178.1324
1035.20 175.5159
1035.30 175.6991
1035.40 175.9623
1035.50 178.5875
1035.60 183.0283
1035.70 187.8007
1035.80 192.7079
1035.90 197.6935
1036.00 202.5704
1036.10 205.7395
1036.20 208.943
1036.30 211.454
1036.40 213.1498
1036.50 214.6874
1036.60 216.0025
1036.70 217.2018
1036.80 218.372
1036.90 223.3793
1037.00 228.5254
1037.10 233.0128
1037.20 236.1368
1037.30 239.4852
1037.40 236.8473
1037.50 231.4555
1037.60 225.4775
1037.70 212.6717
1037.80 199.3815
1037.90 187.6815
1038.00 181.4147
1038.10 175.1854
1038.20 174.6658
1038.30 177.9404
1038.40 182.3153
1038.50 185.7684
1038.60 189.3179
1038.70 192.2027
1038.80 190.7402
1038.90 189.0214
1039.00 187.3019
1039.10 185.753
1039.20 183.8114
1039.30 185.0258
1039.40 186.9534
1039.50 189.109
1039.60 192.5082
1039.70 196.0764
1039.80 199.2774
1039.90 201.7674
1040.00 204.3513
1040.10 206.9684
1040.20 209.5996
1040.30 212.3232
1040.40 215.2126
1040.50 218.0682
1040.60 220.6465
1040.70 222.796
1040.80 224.8008
1040.90 222.2956
1041.00 217.3778
1041.10 211.9993
1041.20 206.0177
1041.30 199.9716
1041.40 195.7448
1041.50 196.9235
1041.60 198.48
1041.70 203.0936
1041.80 209.8529
1041.90 217.2568
1042.00 217.5546
1042.10 216.6473
1042.20 214.1168
1042.30 206.0662
1042.40 197.5827
1042.50 189.0691
1042.60 180.8917
1042.70 172.2121
1042.80 172.7535
1042.90 175.8876
1043.00 180.1008
1043.10 188.7539
1043.20 197.9413
1043.30 207.4654
1043.40 216.6267
1043.50 226.268
1043.60 230.8084
1043.70 233.1365
1043.80 234.7111
1043.90 235.2289
1044.00 235.5083
1044.10 235.0381
1044.20 233.7671
1044.30 232.5235
1044.40 231.3815
1044.50 230.294
1044.60 229.1541
1044.70 230.1472
1044.80 231.3104
1044.90 233.9101
1045.00 240.9924
1045.10 248.5116
1045.20 255.7929
1045.30 262.6435
1045.40 269.8808
1045.50 268.6262
1045.60 265.7208
1045.70 261.4816
1045.80 252.4723
1045.90 242.8351
1046.00 234.1404
1046.10 227.18
1046.20 219.9837
1046.30 213.696
1046.40 207.7569
1046.50 202.0253
1046.60 195.4045
1046.70 188.9145
1046.80 184.0836
1046.90 181.7092
1047.00 179.3654
1047.10 180.5696
1047.20 183.4637
1047.30 186.6834
1047.40 188.2905
1047.50 190.0016
1047.60 191.2484
1047.70 190.9536
1047.80 190.6506
1047.90 192.02
1048.00 194.5071
1048.10 196.8845
1048.20 202.7708
1048.30 209.0959
1048.40 215.2247
1048.50 219.81
1048.60 224.3733
1048.70 227.2412
1048.80 228.557
1048.90 229.672
1049.00 229.8907
1049.10 229.9116
1049.20 229.3589
1049.30 225.4014
1049.40 221.4319
1049.50 217.0669
1049.60 212.212
1049.70 207.0234
1049.80 206.7462
1049.90 208.133
1050.00 209.7447
1050.10 214.9768
1050.20 220.3984
1050.30 224.2624
1050.40 224.9459
1050.50 225.5483
1050.60 222.9835
1050.70 218.8624
1050.80 214.6027
1050.90 209.1074
1051.00 203.5341
1051.10 197.9337
1051.20 192.4371
1051.30 186.8035
1051.40 182.9578
1051.50 180.3994
1051.60 177.8387
1051.70 177.2855
1051.80 177.067
1051.90 177.6747
1052.00 180.7409
1052.10 183.9672
1052.20 188.2093
1052.30 193.3248
1052.40 198.5842
1052.50 204.8423
1052.60 211.4509
1052.70 217.967
1052.80 220.6977
1052.90 223.2522
1053.00 224.6425
1053.10 224.7052
1053.20 224.2964
1053.30 223.9353
1053.40 223.6095
1053.50 223.1375
1053.60 221.8076
1053.70 220.538
1053.80 219.6721
1053.90 219.4192
1054.00 219.1534
1054.10 218.3519
1054.20 217.2837
1054.30 216.3273
1054.40 212.195
1054.50 207.8752
1054.60 203.5086
1054.70 199.2697
1054.80 194.8016
1054.90 194.264
1055.00 196.6507
1055.10 199.4023
1055.20 202.703
1055.30 206.2116
1055.40 208.5419
1055.50 204.4498
1055.60 200.0707
1055.70 194.1972
1055.80 187.0205
1055.90 179.3385
1056.00 175.8797
1056.10 173.5377
1056.20 171.785
1056.30 173.4089
1056.40 175.2394
1056.50 177.5598
1056.60 180.2931
1056.70 183.2383
1056.80 184.7699
1056.90 185.7563
1057.00 186.688
1057.10 187.2474
1057.20 187.85
1057.30 189.1825
1057.40 191.829
1057.50 194.4609
1057.60 196.6664
1057.70 198.6413
1057.80 200.5734
1057.90 201.6527
1058.00 202.6674
1058.10 202.9559
1058.20 201.3184
1058.30 199.6315
1058.40 198.3826
1058.50 197.4817
1058.60 196.1959
1058.70 194.4907
1058.80 192.7046
1058.90 191.271
1059.00 191.5811
1059.10 191.9713
1059.20 192.2303
1059.30 192.307
1059.40 192.8502
1059.50 193.6915
1059.60 194.6
1059.70 195.3196
1059.80 194.3925
1059.90 193.3621
1060.00 191.9324
1060.10 190.0776
1060.20 188.028
1060.30 185.8222
1060.40 183.5763
1060.50 181.3692
1060.60 179.6815
1060.70 177.9987
1060.80 177.1253
1060.90 177.8119
1061.00 178.4473
1061.10 180.4563
1061.20 183.2517
1061.30 186.5581
1061.40 187.7707
1061.50 188.9431
1061.60 190.0198
1061.70 190.631
1061.80 190.958
1061.90 191.2473
1062.00 191.6044
1062.10 191.5024
1062.20 194.088
1062.30 197.1261
1062.40 200.4985
1062.50 204.4799
1062.60 208.9022
1062.70 212.8815
1062.80 216.1474
1062.90 219.6301
1063.00 219.6212
1063.10 218.6212
1063.20 217.2809
1063.30 217.4986
1063.40 217.4704
1063.50 218.5469
1063.60 221.4384
1063.70 224.4956
1063.80 227.232
1063.90 229.9377
1064.00 233.0252
1064.10 232.8129
1064.20 232.4727
1064.30 231.7431
1064.40 230.5582
1064.50 229.2292
1064.60 228.8341
1064.70 228.9284
1064.80 228.8963
1064.90 227.8759
1065.00 226.9038
1065.10 224.8099
1065.20 219.3198
1065.30 213.5303
1065.40 207.7868
1065.50 202.16
1065.60 196.2757
1065.70 195.5008
1065.80 195.3866
1065.90 194.9034
1066.00 192.7057
1066.10 190.7914
1066.20 188.1584
1066.30 184.6815
1066.40 181.1826
1066.50 179.6085
1066.60 178.4492
1066.70 177.6887
1066.80 180.6669
1066.90 183.5865
1067.00 185.6785
1067.10 186.7345
1067.20 188.1412
1067.30 192.4596
1067.40 197.8669
1067.50 203.6202
1067.60 208.6544
1067.70 213.7656
1067.80 218.504
1067.90 222.4367
1068.00 226.0585
1068.10 229.0175
1068.20 231.6807
1068.30 234.2841
1068.40 236.2088
1068.50 238.151
1068.60 239.6432
1068.70 239.8668
1068.80 239.9268
1068.90 238.7671
1069.00 236.7902
1069.10 234.5326
1069.20 232.0248
1069.30 229.4262
1069.40 225.9182
1069.50 219.4284
1069.60 212.9408
1069.70 208.8
1069.80 206.8247
1069.90 205.1426
1070.00 206.0296
1070.10 207.4571
1070.20 208.9774
1070.30 210.8121
1070.40 212.6334
1070.50 212.7579
1070.60 210.8198
1070.70 209.046
1070.80 209.8002
1070.90 211.3665
1071.00 213.1265
1071.10 216.7728
1071.20 220.3134
1071.30 223.5462
1071.40 226.4214
1071.50 229.4017
1071.60 231.6178
1071.70 233.4872
1071.80 235.4975
1071.90 235.3977
1072.00 235.1597
1072.10 234.4159
1072.20 232.8251
1072.30 230.9295
1072.40 229.5439
1072.50 228.5512
1072.60 227.6296
1072.70 229.4136
1072.80 231.5402
1072.90 233.2497
1073.00 232.9771
1073.10 232.8725
1073.20 233.0927
1073.30 233.5252
1073.40 233.5992
1073.50 233.6757
1073.60 233.7495
1073.70 234.1382
1073.80 236.2147
1073.90 238.553
1074.00 240.323
1074.10 241.2712
1074.20 242.3791
1074.30 244.985
1074.40 247.9392
1074.50 250.5831
1074.60 252.243
1074.70 253.8477
1074.80 253.6925
1074.90 250.8555
1075.00 247.8396
1075.10 242.1715
1075.20 235.2977
1075.30 228.0757
1075.40 225.806
1075.50 223.5666
1075.60 223.6555
1075.70 228.6223
1075.80 234.2114
1075.90 238.094
1076.00 240.8993
1076.10 243.9044
1076.20 242.0676
1076.30 239.8207
1076.40 238.0623
1076.50 238.2053
1076.60 238.1287
1076.70 239.4234
1076.80 241.868
1076.90 244.4865
1077.00 246.0871
1077.10 247.498
1077.20 248.1674
1077.30 245.7904
1077.40 243.3307
1077.50 241.9107
1077.60 241.6192
1077.70 241.1736
1077.80 242.3749
1077.90 244.0893
1078.00 245.9972
1078.10 247.2855
1078.20 248.6467
1078.30 248.5463
1078.40 246.3545
1078.50 243.9826
1078.60 240.8284
1078.70 237.3282
1078.80 233.536
1078.90 228.9567
1079.00 224.355
1079.10 219.7505
1079.20 215.1809
1079.30 210.5622
1079.40 209.148
1079.50 209.4236
1079.60 209.9048
1079.70 213.7729
1079.80 217.9026
1079.90 221.7648
1080.00 224.4458
1080.10 227.265
1080.20 229.0152
1080.30 229.9959
1080.40 231.0241
1080.50 234.0381
1080.60 237.2472
1080.70 240.0148
1080.80 241.2782
1080.90 242.4195
1081.00 243.5795
1081.10 244.8072
1081.20 245.8929
1081.30 247.5619
1081.40 249.4237
1081.50 251.7736
1081.60 256.1175
1081.70 260.4908
1081.80 262.1109
1081.90 260.3436
1082.00 258.2523
1082.10 254.5764
1082.20 250.3301
1082.30 245.8737
1082.40 241.9032
1082.50 237.9091
1082.60 236.2843
1082.70 238.5565
1082.80 241.0674
1082.90 244.6594
1083.00 248.7944
1083.10 253.2635
1083.20 257.6068
1083.30 262.1379
1083.40 265.7902
1083.50 267.0518
1083.60 268.0884
1083.70 267.1629
1083.80 265.0319
1083.90 262.5976
1084.00 261.0206
1084.10 259.3753
1084.20 256.7539
1084.30 251.6225
1084.40 246.4635
1084.50 243.404
1084.60 242.0643
1084.70 240.5762
1084.80 239.7076
1084.90 239.0906
1085.00 239.1995
1085.10 241.5455
1085.20 243.9631
1085.30 244.6906
1085.40 243.5488
1085.50 242.4438
1085.60 245.3962
1085.70 249.4403
1085.80 253.5804
1085.90 258.2878
1086.00 263.2709
1086.10 267.4409
1086.20 270.1764
1086.30 272.8871
1086.40 271.8845
1086.50 269.2992
1086.60 266.3789
1086.70 267.2854
1086.80 268.1039
1086.90 268.8865
1087.00 269.7474
1087.10 270.9844
1087.20 271.0718
1087.30 270.5174
1087.40 269.8815
1087.50 266.6072
1087.60 263.0301
1087.70 259.6843
1087.80 257.5746
1087.90 255.6255
1088.00 254.9107
1088.10 255.0449
1088.20 255.4077
1088.30 255.6691
1088.40 255.9157
1088.50 256.2498
1088.60 256.9333
1088.70 257.4883
1088.80 256.5697
1088.90 254.3403
1089.00 252.1451
1089.10 250.824
1089.20 249.5752
1089.30 248.7393
1089.40 251.7146
1089.50 254.9227
1089.60 258.5269
1089.70 262.462
1089.80 267.1265
1089.90 272.5685
1090.00 278.2221
1090.10 283.4784
1090.20 284.3233
1090.30 284.866
1090.40 283.288
1090.50 278.7218
1090.60 273.681
1090.70 266.0169
1090.80 257.2481
1090.90 248.5505
1091.00 248.0601
1091.10 247.5468
1091.20 249.0336
1091.30 254.8152
1091.40 261.1221
1091.50 267.3722
1091.60 273.592
1091.70 280.2194
1091.80 281.0846
1091.90 281.4567
1092.00 280.984
1092.10 278.4187
1092.20 275.4661
1092.30 271.9887
1092.40 268.1749
1092.50 264.1872
1092.60 261.698
1092.70 259.5123
1092.80 258.039
1092.90 259.2455
1093.00 260.5464
1093.10 262.3198
1093.20 264.5248
1093.30 266.7019
1093.40 266.7743
1093.50 266.2785
1093.60 265.6825
1093.70 265.4601
1093.80 265.3336
1093.90 265.4276
1094.00 265.7425
1094.10 266.4795
1094.20 265.3366
1094.30 263.3851
1094.40 260.9585
1094.50 257.09
1094.60 252.9902
1094.70 251.9264
1094.80 256.558
1094.90 261.4714
1095.00 269.4898
1095.10 279.2586
1095.20 289.9807
1095.30 295.4078
1095.40 300.6677
1095.50 303.5839
1095.60 301.164
1095.70 298.2041
1095.80 295.2785
1095.90 292.369
1096.00 288.9894
1096.10 290.0864
1096.20 291.6963
1096.30 293.0185
1096.40 292.8709
1096.50 292.928
1096.60 289.0349
1096.70 281.6865
1096.80 273.8668
1096.90 266.0452
1097.00 258.0235
1097.10 250.7287
1097.20 248.8922
1097.30 247.2937
1097.40 248.8593
1097.50 253.8858
1097.60 259.6953
1097.70 264.4257
1097.80 268.9747
1097.90 273.3196
1098.00 273.8109
1098.10 274.0862
1098.20 272.4006
1098.30 268.0678
1098.40 263.3686
1098.50 260.2944
1098.60 257.8153
1098.70 255.3492
1098.80 257.3883
1098.90 259.5392
1099.00 262.8995
1099.10 268.4435
1099.20 274.2782
1099.30 277.8246
1099.40 280.1161
1099.50 282.3943
1099.60 283.756
1099.70 285.0896
1099.80 285.6265
1099.90 284.1131
1100.00 282.3979
1100.10 280.6446
1100.20 278.8671
1100.30 276.9148
1100.40 274.3918
1100.50 271.7715
1100.60 269.4598
1100.70 268.4653
1100.80 267.6049
1100.90 267.2994
1101.00 267.4912
1101.10 267.9606
1101.20 268.4431
1101.30 268.9613
1101.40 269.3945
1101.50 269.0514
1101.60 268.658
1101.70 267.5724
1101.80 265.6951
1101.90 263.3791
1102.00 259.3866
1102.10 254.8342
1102.20 250.7204
1102.30 253.0286
1102.40 255.4484
1102.50 258.6084
1102.60 262.828
1102.70 267.6704
1102.80 269.6025
1102.90 270.3531
1103.00 271.0275
1103.10 265.0919
1103.20 258.7267
1103.30 252.9836
1103.40 249.135
1103.50 244.7397
1103.60 242.9848
1103.70 242.8795
1103.80 243.2794
1103.90 246.3532
1104.00 249.8498
1104.10 253.4023
1104.20 256.3734
1104.30 259.3058
1104.40 261.3984
1104.50 262.8864
1104.60 264.3613
1104.70 263.4573
1104.80 262.3143
1104.90 260.8237
1105.00 257.6749
1105.10 254.0582
1105.20 248.7346
1105.30 241.8603
1105.40 234.4683
1105.50 231.9614
1105.60 230.6135
1105.70 229.9569
1105.80 232.7152
1105.90 235.9819
1106.00 239.0381
1106.10 241.5872
1106.20 244.3139
1106.30 244.7544
1106.40 244.4816
1106.50 243.9698
1106.60 240.0468
1106.70 235.851
1106.80 233.1848
1106.90 233.2538
1107.00 233.0376
1107.10 234.4248
1107.20 236.603
1107.30 239.0419
1107.40 240.8524
1107.50 242.7817
1107.60 243.331
1107.70 240.7724
1107.80 238.4171
1107.90 239.8464
1108.00 243.4291
1108.10 246.8014
1108.20 252.2108
1108.30 257.992
1108.40 263.0973
1108.50 265.6437
1108.60 267.8511
1108.70 267.9421
1108.80 266.4487
1108.90 264.7489
1109.00 263.6249
1109.10 262.4806
1109.20 262.2082
1109.30 266.1287
1109.40 270.3452
1109.50 273.9468
1109.60 276.8681
1109.70 279.973
1109.80 277.5685
1109.90 273.8029
1110.00 269.1022
1110.10 259.6658
1110.20 249.8475
1110.30 242.7613
1110.40 239.3413
1110.50 235.9308
1110.60 235.911
1110.70 237.1916
1110.80 238.5895
1110.90 237.1573
1111.00 235.7612
1111.10 233.3692
1111.20 229.3225
1111.30 224.8498
1111.40 223.613
1111.50 223.8714
1111.60 224.2211
1111.70 226.1449
1111.80 228.3749
1111.90 229.6236
1112.00 228.2338
1112.10 226.9408
1112.20 228.6462
1112.30 232.068
1112.40 235.3526
1112.50 240.5595
1112.60 245.9499
1112.70 251.1921
1112.80 255.8343
1112.90 260.666
1113.00 262.2323
1113.10 261.1838
1113.20 260.0235
1113.30 256.5223
1113.40 252.6026
1113.50 248.1822
1113.60 242.0856
1113.70 235.6243
1113.80 233.4712
1113.90 235.7295
1114.00 238.0397
1114.10 245.3451
1114.20 254.0071
1114.30 262.6578
1114.40 269.5232
1114.50 276.7778
1114.60 279.6697
1114.70 276.8002
1114.80 273.4473
1114.90 268.4806
1115.00 262.8374
1115.10 257.0528
1115.20 252.9112
1115.30 248.8146
1115.40 247.4139
1115.50 250.5673
1115.60 253.8983
1115.70 256.5041
1115.80 258.7775
1115.90 261.0368
1116.00 260.5896
1116.10 259.9553
1116.20 259.0254
1116.30 257.6927
1116.40 256.4753
1116.50 255.415
1116.60 254.4389
1116.70 253.4415
1116.80 250.013
1116.90 246.4146
1117.00 242.0535
1117.10 235.439
1117.20 228.5903
1117.30 223.9033
1117.40 220.9905
1117.50 218.2982
1117.60 220.6169
1117.70 223.885
1117.80 227.8383
1117.90 234.0126
1118.00 240.2837
1118.10 246.4612
1118.20 252.3084
1118.30 258.1543
1118.40 261.1649
1118.50 263.5203
1118.60 265.2712
1118.70 262.3172
1118.80 258.9887
1118.90 255.2656
1119.00 251.3461
1119.10 247.8267
1119.20 247.1454
1119.30 246.5241
1119.40 246.065
1119.50 246.0193
1119.60 246.0096
1119.70 246.0075
1119.80 247.0643
1119.90 248.6666
1120.00 250.3045
1120.10 251.9105
1120.20 253.4521
1120.30 255.0829
1120.40 257.0368
1120.50 260.4258
1120.60 263.8373
1120.70 267.32
1120.80 267.1849
1120.90 266.6026
1121.00 265.8624
1121.10 264.604
1121.20 263.0422
1121.30 261.2544
1121.40 259.2165
1121.50 256.9069
1121.60 254.5407
1121.70 252.1031
1121.80 249.5918
1121.90 247.1027
1122.00 244.6918
1122.10 243.4171
1122.20 242.3273
1122.30 241.7042
1122.40 243.8507
1122.50 247.7587
1122.60 251.9494
1122.70 256.0196
1122.80 259.6517
1122.90 263.0549
1123.00 265.63
1123.10 263.1719
1123.20 260.5847
1123.30 257.4811
1123.40 255.7619
1123.50 254.3064
1123.60 252.8878
1123.70 254.439
1123.80 258.1396
1123.90 262.4115
1124.00 266.9533
1124.10 271.5222
1124.20 276.2406
1124.30 280.7182
1124.40 279.4702
1124.50 278.13
1124.60 276.3699
1124.70 271.3608
1124.80 265.6385
1124.90 259.0981
1125.00 253.51
1125.10 248.7184
1125.20 244.2092
1125.30 241.9618
1125.40 244.4527
1125.50 247.1921
1125.60 250.3711
1125.70 255.3827
1125.80 260.3956
1125.90 265.4151
1126.00 266.8373
1126.10 267.3602
1126.20 267.4341
1126.30 267.7901
1126.40 268.4245
1126.50 269.176
1126.60 270.8274
1126.70 274.5343
1126.80 278.288
1126.90 282.0008
1127.00 282.1227
1127.10 282.2072
1127.20 282.0797
1127.30 277.0633
1127.40 270.6679
1127.50 264.2422
1127.60 260.1707
1127.70 258.2754
1127.80 256.4028
1127.90 255.4015
1128.00 256.7216
1128.10 258.0693
1128.20 259.4649
1128.30 261.3309
1128.40 263.2061
1128.50 265.1382
1128.60 265.3391
1128.70 264.9933
1128.80 264.6821
1128.90 265.147
1129.00 266.353
1129.10 267.5321
1129.20 268.3565
1129.30 268.164
1129.40 268.0234
1129.50 267.9674
1129.60 267.5439
1129.70 267.1312
1129.80 266.7973
1129.90 265.8238
1130.00 264.6257
1130.10 263.1732
1130.20 260.8172
1130.30 257.5601
1130.40 253.985
1130.50 250.7915
1130.60 249.4237
1130.70 248.1486
1130.80 247.0381
1130.90 248.6709
1131.00 250.407
1131.10 252.525
1131.20 256.4249
1131.30 260.9839
1131.40 265.7702
1131.50 268.8557
1131.60 270.0584
1131.70 271.1882
1131.80 272.0479
1131.90 272.1148
1132.00 272.1167
1132.10 271.9976
1132.20 270.0906
1132.30 268.109
1132.40 265.9547
1132.50 265.8275
1132.60 266.5283
1132.70 267.1291
1132.80 266.3335
1132.90 263.9194
1133.00 261.5848
1133.10 258.9442
1133.20 254.9527
1133.30 250.9405
1133.40 246.8879
1133.50 243.1596
1133.60 239.4391
1133.70 235.661
1133.80 232.6074
1133.90 229.8643
1134.00 226.7025
1134.10 223.4647
1134.20 220.2315
1134.30 217.2131
1134.40 215.2214
1134.50 216.7407
1134.60 218.49
1134.70 220.6858
1134.80 226.2834
1134.90 232.1269
1135.00 238.3019
1135.10 242.4962
1135.20 245.8007
1135.30 248.5168
1135.40 249.0472
1135.50 246.9491
1135.60 244.6454
1135.70 242.5243
1135.80 241.8169
1135.90 241.238
1136.00 240.92
1136.10 241.8278
1136.20 242.8374
1136.30 244.1174
1136.40 244.1174
1136.50 243.5151
1136.60 242.6496
1136.70 241.1273
1136.80 238.8059
1136.90 236.2735
1137.00 233.599
1137.10 230.9731
1137.20 228.3973
1137.30 225.9278
1137.40 221.2316
1137.50 216.3654
1137.60 211.4677
1137.70 202.1919
1137.80 190.7597
1137.90 178.7889
1138.00 169.3289
1138.10 163.4996
1138.20 157.638
1138.30 153.7217
1138.40 159.4218
1138.50 165.4851
1138.60 172.3202
1138.70 183.8748
1138.80 195.9073
1138.90 208.8376
1139.00 216.7925
1139.10 222.2969
1139.20 227.4503
1139.30 229.0954
1139.40 226.0021
1139.50 222.4455
1139.60 217.9068
1139.70 210.0477
1139.80 202.0679
1139.90 193.8315
1140.00 183.1809
1140.10 172.2607
1140.20 160.9293
1140.30 152.5404
1140.40 145.6674
1140.50 138.8318
1140.60 136.8044
1140.70 141.6835
1140.80 147.0745
1140.90 154.0955
1141.00 167.6472
1141.10 181.5393
1141.20 196.189
1141.30 208.3692
1141.40 220.3057
1141.50 232.2521
1141.60 238.4103
1141.70 241.5866
1141.80 244.4157
1141.90 246.6878
1142.00 248.2757
1142.10 249.6486
1142.20 250.7216
1142.30 251.1068
1142.40 251.4571
1142.50 251.7297
1142.60 253.6549
1142.70 255.7302
1142.80 257.5964
1142.90 258.0187
1143.00 257.6634
1143.10 257.2342
1143.20 256.1994
1143.30 254.2806
1143.40 252.334
1143.50 250.4854
1143.60 249.3118
1143.70 248.1554
1143.80 247.0359
1143.90 245.7567
1144.00 244.4679
1144.10 243.2877
1144.20 242.5103
1144.30 241.9498
1144.40 241.4151
1144.50 240.9315
1144.60 240.5159
1144.70 240.1265
1144.80 240.1065
1144.90 242.0676
1145.00 244.0171
1145.10 245.9415
1145.20 246.3111
1145.30 246.5043
1145.40 246.6505
1145.50 247.1705
1145.60 247.8917
1145.70 248.5471
1145.80 249.7858
1145.90 251.9211
1146.00 254.1647
1146.10 256.5611
1146.20 259.3614
1146.30 262.2426
1146.40 265.2958
1146.50 267.7942
1146.60 270.2193
1146.70 272.491
1146.80 273.0608
1146.90 272.7141
1147.00 272.1513
1147.10 271.1194
1147.20 269.4553
1147.30 267.7774
1147.40 266.3975
1147.50 266.7643
1147.60 267.208
1147.70 267.8077
1147.80 270.5862
1147.90 273.5813
1148.00 276.5894
1148.10 277.9967
1148.20 278.5793
1148.30 278.9469
1148.40 278.5681
1148.50 277.1786
1148.60 275.8818
1148.70 275.0752
1148.80 276.4905
1148.90 277.9474
1149.00 279.4888
1149.10 280.1342
1149.20 280.6805
1149.30 281.1057
1149.40 279.6681
1149.50 277.2708
1149.60 274.7217
1149.70 273.0064
1149.80 272.5323
1149.90 272.1281
1150.00 272.158
1150.10 274.2131
1150.20 276.2838
1150.30 278.385
1150.40 280.8231
1150.50 283.2927
1150.60 285.7423
1150.70 286.1125
1150.80 285.4115
1150.90 284.8172
1151.00 284.4363
1151.10 284.322
1151.20 284.1527
1151.30 283.7256
1151.40 282.2182
1151.50 280.6525
1151.60 278.9785
1151.70 277.5061
1151.80 276.0398
1151.90 274.4691
1152.00 271.191
1152.10 267.0717
1152.20 262.7784
1152.30 258.9938
1152.40 255.9542
1152.50 253.0196
1152.60 250.7403
1152.70 251.3323
1152.80 252.0304
1152.90 252.9171
1153.00 255.9116
1153.10 259.08
1153.20 262.3721
1153.30 263.7401
1153.40 264.2026
1153.50 264.6041
1153.60 265.0961
1153.70 265.7212
1153.80 266.506
1153.90 267.4749
1154.00 268.8361
1154.10 270.1895
1154.20 271.5296
1154.30 272.4589
1154.40 273.3002
1154.50 273.7237
1154.60 273.8567
1154.70 273.8592
1154.80 273.6773
1154.90 273.733
1155.00 274.126
1155.10 274.6921
1155.20 275.2142
1155.30 275.1155
1155.40 275.1572
1155.50 275.4282
1155.60 275.0281
1155.70 274.5699
1155.80 274.0088
1155.90 274.8643
1156.00 276.3269
1156.10 277.675
1156.20 278.8356
1156.30 279.7844
1156.40 280.7125
1156.50 281.3287
1156.60 280.7442
1156.70 280.1256
1156.80 279.4535
1156.90 277.9666
1157.00 276.4176
1157.10 274.7089
1157.20 272.4432
1157.30 269.9499
1157.40 267.527
1157.50 265.7342
1157.60 264.672
1157.70 263.7643
1157.80 263.6379
1157.90 266.1513
1158.00 268.7111
1158.10 271.3373
1158.20 273.6874
1158.30 276.008
1158.40 278.2182
1158.50 276.7258
1158.60 273.7933
1158.70 270.6938
1158.80 267.2297
1158.90 263.3708
1159.00 259.3802
1159.10 255.3996
1159.20 251.6694
1159.30 247.9528
1159.40 244.2549
1159.50 243.6273
1159.60 243.0825
1159.70 242.6299
1159.80 242.7719
1159.90 243.1337
1160.00 243.7914
1160.10 245.2913
1160.20 247.6447
1160.30 250.1616
1160.40 252.4327
1160.50 253.6928
1160.60 254.8633
1160.70 255.9195
1160.80 258.4517
1160.90 260.9696
1161.00 263.4308
1161.10 266.3138
1161.20 269.3375
1161.30 272.5349
1161.40 274.3226
1161.50 274.6912
1161.60 275.0578
1161.70 274.8745
1161.80 273.1292
1161.90 271.1665
1162.00 268.9677
1162.10 268.6519
1162.20 268.3323
1162.30 267.9985
1162.40 269.7943
1162.50 272.226
1162.60 275.0184
1162.70 278.0018
1162.80 281.1511
1162.90 284.4814
1163.00 286.8773
1163.10 286.5569
1163.20 286.0836
1163.30 285.3446
1163.40 281.3723
1163.50 277.2904
1163.60 272.8418
1163.70 269.1348
1163.80 265.637
1163.90 262.0929
1164.00 261.2916
1164.10 262.8273
1164.20 264.7508
1164.30 267.2646
1164.40 270.8899
1164.50 274.649
1164.60 278.2746
1164.70 276.8229
1164.80 275.2973
1164.90 273.5501
1165.00 269.792
1165.10 265.5264
1165.20 260.7814
1165.30 257.5172
1165.40 255.4165
1165.50 253.3893
1165.60 252.8897
1165.70 255.7415
1165.80 258.8754
1165.90 262.2236
1166.00 264.9583
1166.10 267.7481
1166.20 270.6794
1166.30 270.7463
1166.40 270.1774
1166.50 269.3786
1166.60 267.7408
1166.70 265.4955
1166.80 263.0241
1166.90 260.687
1167.00 258.7446
1167.10 256.7722
1167.20 254.8588
1167.30 253.8001
1167.40 252.7338
1167.50 251.6498
1167.60 249.7533
1167.70 247.7046
1167.80 245.6952
1167.90 242.924
1168.00 239.6448
1168.10 236.2834
1168.20 231.1549
1168.30 222.7806
1168.40 214.2087
1168.50 204.9783
1168.60 191.6252
1168.70 178.098
1168.80 164.2009
1168.90 154.0639
1169.00 144.5318
1169.10 134.9174
1169.20 133.3105
1169.30 136.6115
1169.40 140.8056
1169.50 148.1089
1169.60 160.4165
1169.70 173.4635
1169.80 186.8287
1169.90 198.8863
1170.00 211.071
1170.10 223.4919
1170.20 231.693
1170.30 239.3109
1170.40 246.4298
1170.50 251.2784
1170.60 254.85
1170.70 257.9662
1170.80 259.94
1170.90 260.3115
1171.00 260.5129
1171.10 260.5302
1171.20 260.0955
1171.30 259.6505
1171.40 259.1888
1171.50 259.3233
1171.60 259.5073
1171.70 259.6282
1171.80 259.5575
1171.90 259.3924
1172.00 259.1941
1172.10 259.2304
1172.20 259.5961
1172.30 260.005
1172.40 260.6414
1172.50 262.2086
1172.60 263.8408
1172.70 265.5708
1172.80 266.6908
1172.90 267.7676
1173.00 268.8217
1173.10 268.5648
1173.20 267.7189
1173.30 266.7129
1173.40 265.1297
1173.50 262.858
1173.60 260.5196
1173.70 258.5401
1173.80 258.0286
1173.90 257.5376
1174.00 257.0737
1174.10 258.7098
1174.20 260.4818
1174.30 262.4595
1174.40 264.2254
1174.50 265.909
1174.60 267.522
1174.70 267.3713
1174.80 265.3139
1174.90 263.0679
1175.00 260.3303
1175.10 256.2048
1175.20 251.9717
1175.30 247.6123
1175.40 245.5544
1175.50 243.565
1175.60 241.7366
1175.70 240.2498
1175.80 238.8768
1175.90 237.6165
1176.00 235.4595
1176.10 232.4035
1176.20 229.2464
1176.30 224.6696
1176.40 216.1537
1176.50 207.4641
1176.60 198.4903
1176.70 184.4576
1176.80 170.2694
1176.90 155.6143
1177.00 142.0027
1177.10 128.6821
1177.20 115.0407
1177.30 107.867
1177.40 106.4287
1177.50 105.643
1177.60 107.998
1177.70 117.565
1177.80 127.9014
1177.90 139.0728
1178.00 153.1437
1178.10 167.4031
1178.20 182.1472
1178.30 193.1552
1178.40 203.2758
1178.50 213.1321
1178.60 220.977
1178.70 227.2416
1178.80 233.1043
1178.90 237.7231
1179.00 239.9122
1179.10 241.8913
1179.20 243.5948
1179.30 244.0286
1179.40 244.3984
1179.50 244.6325
1179.60 245.4122
1179.70 246.2999
1179.80 247.2333
1179.90 249.17
1180.00 251.7755
1180.10 254.4684
1180.20 256.9949
1180.30 259.1796
1180.40 261.2983
1180.50 263.0817
1180.60 262.5223
1180.70 261.8921
1180.80 261.1306
1180.90 259.556
1181.00 257.8463
1181.10 256.0258
1181.20 254.522
1181.30 253.2044
1181.40 251.9126
1181.50 251.2408
1181.60 251.5328
1181.70 251.9547
1181.80 252.6253
1181.90 254.2724
1182.00 255.9594
1182.10 257.7088
1182.20 258.6306
1182.30 259.4464
1182.40 260.1829
1182.50 260.5461
1182.60 260.717
1182.70 260.8292
1182.80 260.8782
1182.90 260.8482
1183.00 260.8558
1183.10 260.4509
1183.20 258.083
1183.30 255.635
1183.40 253.0763
1183.50 250.7425
1183.60 248.3941
1183.70 245.9139
1183.80 246.3725
1183.90 248.0906
1184.00 250.1604
1184.10 252.6779
1184.20 255.6947
1184.30 258.9194
1184.40 261.1441
1184.50 259.5078
1184.60 257.7214
1184.70 255.7589
1184.80 252.8094
1184.90 249.7575
1185.00 246.4512
1185.10 246.283
1185.20 247.2754
1185.30 248.4702
1185.40 250.5168
1185.50 253.4455
1185.60 256.5924
1185.70 259.4378
1185.80 261.1485
1185.90 262.8212
1186.00 264.432
1186.10 263.6864
1186.20 262.9179
1186.30 262.0843
1186.40 260.5771
1186.50 258.866
1186.60 257.0208
1186.70 255.5741
1186.80 254.4807
1186.90 253.3643
1187.00 252.8051
1187.10 253.6265
1187.20 254.5016
1187.30 255.4348
1187.40 256.6022
1187.50 257.8197
1187.60 259.1539
1187.70 257.3538
1187.80 254.8047
1187.90 252.0397
1188.00 247.8735
1188.10 242.6503
1188.20 237.0525
1188.30 232.7087
1188.40 231.0776
1188.50 229.5053
1188.60 228.3608
1188.70 231.1131
1188.80 234.0811
1188.90 237.4678
1189.00 240.9406
1189.10 244.4554
1189.20 248.2122
1189.30 250.6227
1189.40 252.1723
1189.50 253.5506
1189.60 255.024
1189.70 256.7072
1189.80 258.2521
1189.90 259.4277
1190.00 258.6983
1190.10 257.9719
1190.20 257.2501
1190.30 256.2796
1190.40 255.2497
1190.50 254.0573
1190.60 253.3821
1190.70 252.9853
1190.80 252.6987
1190.90 253.2795
1191.00 255.0929
1191.10 256.9807
1191.20 258.8219
1191.30 260.2566
1191.40 261.7294
1191.50 263.2528
1191.60 263.8723
1191.70 264.3976
1191.80 264.811
1191.90 264.2415
1192.00 263.2304
1192.10 262.1806
1192.20 261.7398
1192.30 262.0459
1192.40 262.3026
1192.50 262.6012
1192.60 263.1334
1192.70 263.6851
1192.80 264.259
1192.90 264.8326
1193.00 265.4288
1193.10 266.1004
1193.20 264.1796
1193.30 261.2998
1193.40 258.2571
1193.50 254.9833
1193.60 251.469
1193.70 247.7163
1193.80 244.1886
1193.90 241.5152
1194.00 238.8839
1194.10 236.3174
1194.20 235.0252
1194.30 233.7934
1194.40 232.717
1194.50 230.0887
1194.60 227.018
1194.70 223.8372
1194.80 222.0686
1194.90 221.5031
1195.00 220.9242
1195.10 221.3635
1195.20 224.1863
1195.30 227.2635
1195.40 230.4555
1195.50 232.3141
1195.60 234.195
1195.70 236.1209
1195.80 234.7158
1195.90 232.5448
1196.00 230.022
1196.10 227.7266
1196.20 225.5959
1196.30 223.2891
1196.40 221.65
1196.50 221.3672
1196.60 221.2552
1196.70 221.0292
1196.80 218.9984
1196.90 216.9251
1197.00 214.7794
1197.10 210.4374
1197.20 205.7218
1197.30 200.7271
1197.40 196.7152
1197.50 193.2805
1197.60 189.8578
1197.70 188.1911
1197.80 189.2686
1197.90 190.6512
1198.00 192.7122
1198.10 197.7265
1198.20 202.9102
1198.30 208.3276
1198.40 211.566
1198.50 214.5885
1198.60 217.6091
1198.70 217.0884
1198.80 214.9013
1198.90 212.3085
1199.00 208.6072
1199.10 203.5222
1199.20 198.1768
1199.30 193.6697
1199.40 192.9419
1199.50 192.299
1199.60 191.752
1199.70 192.6916
1199.80 193.7703
1199.90 195.1073
1200.00 196.2985
1200.10 197.433
1200.20 198.4799
1200.30 199.5861
1200.40 200.7542
1200.50 201.9998
1200.60 203.5256
1200.70 205.8185
1200.80 208.138
1200.90 210.4679
1201.00 211.3991
1201.10 212.2931
1201.20 213.0914
1201.30 212.1728
1201.40 210.7324
1201.50 209.12
1201.60 207.8606
1201.70 206.9018
1201.80 206.0299
1201.90 205.587
1202.00 206.0976
1202.10 206.6768
1202.20 207.3248
1202.30 208.2402
1202.40 209.1023
1202.50 209.8608
1202.60 208.5591
1202.70 206.798
1202.80 204.9721
1202.90 204.2409
1203.00 204.2703
1203.10 204.3698
1203.20 205.8429
1203.30 209.8457
1203.40 214.1087
1203.50 218.6655
1203.60 224.3617
1203.70 230.1014
1203.80 235.9091
1203.90 238.0975
1204.00 239.7137
1204.10 241.1517
1204.20 240.0642
1204.30 237.5561
1204.40 234.5959
1204.50 232.1785
1204.60 230.6341
1204.70 229.1123
1204.80 228.1796
1204.90 230.2835
1205.00 232.523
1205.10 234.9353
1205.20 238.3639
1205.30 241.9167
1205.40 245.6492
1205.50 248.4769
1205.60 250.898
1205.70 253.2243
1205.80 254.6749
1205.90 255.0586
1206.00 255.3035
1206.10 254.8994
1206.20 252.3766
1206.30 249.7734
1206.40 247.0897
1206.50 244.1531
1206.60 241.1547
1206.70 237.9948
1206.80 237.9825
1206.90 239.0858
1207.00 240.5091
1207.10 243.3347
1207.20 247.5078
1207.30 251.9397
1207.40 256.1395
1207.50 259.5257
1207.60 262.9833
1207.70 266.4226
1207.80 267.3832
1207.90 268.2126
1208.00 268.7635
1208.10 267.5259
1208.20 265.8266
1208.30 263.9601
1208.40 259.9655
1208.50 254.2989
1208.60 248.3394
1208.70 242.6552
1208.80 237.6743
1208.90 232.5795
1209.00 228.0334
1209.10 229.7725
1209.20 231.6862
1209.30 233.8975
1209.40 239.8676
1209.50 246.6159
1209.60 254.0695
1209.70 257.8346
1209.80 259.3391
1209.90 260.8095
1210.00 259.3278
1210.10 253.0356
1210.20 246.0652
1210.30 238.6321
1210.40 230.4089
1210.50 221.9921
1210.60 213.3186
1210.70 209.8734
1210.80 206.9932
1210.90 204.3167
1211.00 204.8724
1211.10 207.02
1211.20 209.7595
1211.30 212.7081
1211.40 215.9011
1211.50 219.305
1211.60 222.7971
1211.70 226.3139
1211.80 229.9106
1211.90 233.5903
1212.00 238.4354
1212.10 243.3596
1212.20 248.3758
1212.30 250.6662
1212.40 251.9421
1212.50 252.9076
1212.60 251.0491
1212.70 246.2512
1212.80 240.9929
1212.90 235.933
1213.00 231.8075
1213.10 227.4928
1213.20 223.19
1213.30 227.0568
1213.40 231.1635
1213.50 235.8041
1213.60 242.6291
1213.70 250.0893
1213.80 258.1761
1213.90 263.5834
1214.00 266.7982
1214.10 269.8331
1214.20 271.5528
1214.30 270.5502
1214.40 269.1319
1214.50 267.5612
1214.60 267.2946
1214.70 267.0137
1214.80 266.7085
1214.90 267.2496
1215.00 267.9686
1215.10 268.8631
1215.20 268.2003
1215.30 266.5419
1215.40 264.7923
1215.50 262.5214
1215.60 259.4163
1215.70 256.173
1215.80 253.1968
1215.90 252.2797
1216.00 251.4287
1216.10 250.6619
1216.20 251.8991
1216.30 253.3947
1216.40 255.0337
1216.50 257.2975
1216.60 259.8689
1216.70 262.5608
1216.80 264.5692
1216.90 265.703
1217.00 266.8028
1217.10 267.5324
1217.20 266.8309
1217.30 266.0404
1217.40 265.1607
1217.50 265.6982
1217.60 266.2597
1217.70 266.7653
1217.80 268.4927
1217.90 270.6805
1218.00 273.1406
1218.10 275.5722
1218.20 277.9754
1218.30 280.4674
1218.40 281.8374
1218.50 279.9507
1218.60 277.8665
1218.70 275.6497
1218.80 274.1604
1218.90 272.5809
1219.00 270.8181
1219.10 269.6063
1219.20 268.5701
1219.30 267.83
1219.40 267.4494
1219.50 267.3514
1219.60 267.2692
1219.70 266.9898
1219.80 266.2858
1219.90 265.5319
1220.00 264.8624
1220.10 265.3417
1220.20 265.8287
1220.30 266.3277
1220.40 266.5224
1220.50 266.7118
1220.60 267.1337
1220.70 265.7939
1220.80 263.3743
1220.90 260.7184
1221.00 257.9985
1221.10 255.2109
1221.20 252.1274
1221.30 249.1606
1221.40 247.6082
1221.50 246.083
1221.60 244.5899
1221.70 244.4901
1221.80 244.5885
1221.90 244.9599
1222.00 244.9094
1222.10 244.6694
1222.20 244.5909
1222.30 244.9479
1222.40 245.835
1222.50 246.6463
1222.60 248.3687
1222.70 253.406
1222.80 258.5885
1222.90 263.905
1223.00 270.297
1223.10 276.808
1223.20 283.5567
1223.30 287.4664
1223.40 290.4191
1223.50 293.2048
1223.60 293.7214
1223.70 292.1434
1223.80 290.1653
1223.90 288.0455
1224.00 285.787
1224.10 283.3709
1224.20 280.953
1224.30 280.5831
1224.40 280.2829
1224.50 280.1069
1224.60 281.4853
1224.70 283.2333
1224.80 285.1891
1224.90 286.7842
1225.00 288.118
1225.10 289.5691
1225.20 289.71
1225.30 287.3911
1225.40 284.9138
1225.50 282.3415
1225.60 279.6698
1225.70 276.8841
1225.80 273.9474
1225.90 274.5518
1226.00 275.6529
1226.10 276.8123
1226.20 279.7098
1226.30 283.5433
1226.40 287.7288
1226.50 290.602
1226.60 291.6426
1226.70 292.7396
1226.80 293.159
1226.90 290.3963
1227.00 287.4664
1227.10 284.3624
1227.20 283.0647
1227.30 281.8117
1227.40 280.4152
1227.50 281.4964
1227.60 283.5515
1227.70 285.9459
1227.80 288.0928
1227.90 289.9714
1228.00 292.0085
1228.10 293.5157
1228.20 293.3142
1228.30 292.9611
1228.40 292.4452
1228.50 289.7868
1228.60 287.0253
1228.70 284.0543
1228.80 281.4718
1228.90 278.993
1229.00 276.5185
1229.10 273.3334
1229.20 269.567
1229.30 265.8556
1229.40 262.9027
1229.50 261.5441
1229.60 260.1676
1229.70 259.0896
1229.80 261.1367
1229.90 263.3162
1230.00 265.6945
1230.10 270.3691
1230.20 275.5172
1230.30 280.9988
1230.40 284.4853
1230.50 286.749
1230.60 288.9205
1230.70 289.5355
1230.80 287.7254
1230.90 285.5667
1231.00 283.3259
1231.10 281.4006
1231.20 279.3814
1231.30 277.2563
1231.40 276.3274
1231.50 275.5708
1231.60 275.0307
1231.70 274.6576
1231.80 274.3596
1231.90 274.0681
1232.00 273.6433
1232.10 273.0621
1232.20 272.486
1232.30 271.9989
1232.40 271.8048
1232.50 271.6079
1232.60 271.4086
1232.70 269.6043
1232.80 267.7994
1232.90 265.993
1233.00 264.4944
1233.10 263.0749
1233.20 261.4464
1233.30 261.3416
1233.40 262.5881
1233.50 263.9818
1233.60 265.6321
1233.70 267.8201
1233.80 270.1673
1233.90 272.3351
1234.00 270.8252
1234.10 269.2929
1234.20 267.7255
1234.30 266.143
1234.40 264.5123
1234.50 262.6444
1234.60 262.7482
1234.70 264.1664
1234.80 265.7469
1234.90 267.8121
1235.00 270.6785
1235.10 273.7456
1235.20 276.3221
1235.30 275.3315
1235.40 274.2208
1235.50 272.9689
1235.60 270.6592
1235.70 268.1658
1235.80 265.4076
1235.90 264.2128
1236.00 263.7539
1236.10 263.5002
1236.20 265.172
1236.30 269.2944
1236.40 273.6858
1236.50 277.7074
1236.60 280.0354
1236.70 282.4017
1236.80 284.8007
1236.90 282.5286
1237.00 280.0178
1237.10 277.1879
1237.20 273.221
1237.30 268.8558
1237.40 264.2357
1237.50 262.1835
1237.60 262.5018
1237.70 262.9657
1237.80 264.2485
1237.90 267.468
1238.00 271.0109
1238.10 274.5071
1238.20 274.0342
1238.30 273.5397
1238.40 273.0099
1238.50 267.2767
1238.60 260.2966
1238.70 252.7233
1238.80 245.3857
1238.90 238.2118
1239.00 230.6833
1239.10 225.3084
1239.20 223.8169
1239.30 222.6566
1239.40 222.1711
1239.50 225.2067
1239.60 228.5079
1239.70 232.1211
1239.80 234.4612
1239.90 236.6723
1240.00 238.9252
1240.10 238.1034
1240.20 235.7671
1240.30 233.0429
1240.40 230.881
1240.50 229.4349
1240.60 227.9928
1240.70 227.5123
1240.80 230.6447
1240.90 233.9145
1241.00 237.3063
1241.10 240.1417
1241.20 243.0235
1241.30 246.0536
1241.40 244.7628
1241.50 241.9271
1241.60 238.7365
1241.70 235.1034
1241.80 231.0451
1241.90 226.7146
1242.00 223.2127
1242.10 221.975
1242.20 220.7452
1242.30 219.4465
1242.40 216.7454
1242.50 214.1256
1242.60 211.6383
1242.70 204.3085
1242.80 195.8568
1242.90 187.071
1243.00 178.6125
1243.10 170.3815
1243.20 161.832
1243.30 156.6322
1243.40 157.4365
1243.50 158.5163
1243.60 160.6827
1243.70 169.2928
1243.80 178.3618
1243.90 187.9695
1244.00 196.7942
1244.10 205.6228
1244.20 214.7559
1244.30 221.596
1244.40 227.3067
1244.50 232.805
1244.60 238.0407
1244.70 242.9422
1244.80 247.6699
1244.90 252.0202
1245.00 255.1467
1245.10 258.2156
1245.20 261.2355
1245.30 261.8077
1245.40 262.2751
1245.50 262.6202
1245.60 261.0892
1245.70 258.9137
1245.80 256.518
1245.90 254.5824
1246.00 253.0715
1246.10 251.3264
1246.20 250.5039
1246.30 252.0413
1246.40 253.7188
1246.50 255.5761
1246.60 258.9052
1246.70 262.3714
1246.80 266.0519
1246.90 268.0351
1247.00 269.6812
1247.10 271.382
1247.20 271.4154
1247.30 270.3371
1247.40 268.8724
1247.50 267.2237
1247.60 265.311
1247.70 263.3451
1247.80 261.3882
1247.90 259.6263
1248.00 257.878
1248.10 256.1452
1248.20 255.8235
1248.30 255.6512
1248.40 255.5103
1248.50 256.1764
1248.60 257.2243
1248.70 258.3657
1248.80 259.2063
1248.90 259.6794
1249.00 260.231
1249.10 260.5015
1249.20 259.7015
1249.30 258.8477
1249.40 257.9515
1249.50 256.8157
1249.60 255.6415
1249.70 254.3944
1249.80 254.69
1249.90 255.4777
1250.00 256.3102
1250.10 256.5117
1250.20 256.1537
1250.30 255.8937
1250.40 255.3017
1250.50 253.9007
1250.60 252.3975
1250.70 250.746
1250.80 247.8893
1250.90 245.0017
1251.00 242.0698
1251.10 239.2424
1251.20 236.4135
1251.30 233.4865
1251.40 228.4474
1251.50 222.0578
1251.60 215.6371
1251.70 207.2433
1251.80 195.6331
1251.90 183.5976
1252.00 171.7309
1252.10 161.7584
1252.20 151.6581
1252.30 141.4248
1252.40 142.9439
1252.50 145.7093
1252.60 149.0812
1252.70 159.3841
1252.80 172.8584
1252.90 187.7099
1253.00 201.469
1253.10 213.9458
1253.20 226.6623
1253.30 237.8556
1253.40 243.761
1253.50 249.262
1253.60 254.4703
1253.70 257.6593
1253.80 260.7265
1253.90 263.5671
1254.00 264.6716
1254.10 265.2718
1254.20 265.7649
1254.30 265.916
1254.40 265.7873
1254.50 265.4255
1254.60 264.9873
1254.70 264.4481
1254.80 263.8246
1254.90 263.4832
1255.00 266.4319
1255.10 269.5185
1255.20 272.7878
1255.30 275.9899
1255.40 279.243
1255.50 282.7299
1255.60 285.5833
1255.70 288.0648
1255.80 290.3216
1255.90 290.8129
1256.00 288.6627
1256.10 286.3286
1256.20 283.9813
1256.30 281.8693
1256.40 279.6127
1256.50 277.2225
1256.60 276.8502
1256.70 276.6467
1256.80 276.5414
1256.90 277.13
1257.00 278.0117
1257.10 279.044
1257.20 279.5676
1257.30 279.5619
1257.40 279.65
1257.50 280.1663
1257.60 281.8509
1257.70 283.5212
1257.80 285.221
1257.90 288.1702
1258.00 291.1667
1258.10 294.2405
1258.20 295.0679
1258.30 295.338
1258.40 295.6324
1258.50 293.41
1258.60 289.289
1258.70 284.8424
1258.80 280.3593
1258.90 275.8604
1259.00 271.1001
1259.10 266.5926
1259.20 265.0384
1259.30 263.6082
1259.40 262.3181
1259.50 264.354
1259.60 266.8959
1259.70 269.7383
1259.80 272.3148
1259.90 274.7556
1260.00 277.3264
1260.10 279.7022
1260.20 281.8194
1260.30 283.7689
1260.40 285.7876
1260.50 288.2724
1260.60 290.806
1260.70 293.3778
1260.80 297.1611
1260.90 301.053
1261.00 305.0895
1261.10 305.9619
1261.20 305.7152
1261.30 305.4021
1261.40 303.5189
1261.50 300.1863
1261.60 296.4002
1261.70 292.7491
1261.80 289.5947
1261.90 286.2388
1262.00 283.0218
1262.10 283.7553
1262.20 284.6441
1262.30 285.7476
1262.40 287.252
1262.50 288.9067
1262.60 290.8521
1262.70 291.7157
1262.80 291.8581
1262.90 291.8355
1263.00 291.3869
1263.10 290.2544
1263.20 289.0163
1263.30 287.6641
1263.40 285.8852
1263.50 284.1342
1263.60 282.4098
1263.70 280.3296
1263.80 278.196
1263.90 276.0048
1264.00 273.6968
1264.10 271.3314
1264.20 268.8717
1264.30 267.7458
1264.40 268.1238
1264.50 268.5941
1264.60 269.6884
1264.70 272.695
1264.80 275.8864
1264.90 279.1913
1265.00 281.5288
1265.10 283.8953
1265.20 286.3112
1265.30 287.2124
1265.40 287.6779
1265.50 288.0911
1265.60 288.0935
1265.70 287.7598
1265.80 287.225
1265.90 286.9904
1266.00 287.4011
1266.10 287.7661
1266.20 288.0488
1266.30 287.7748
1266.40 287.5682
1266.50 287.4405
1266.60 288.7717
1266.70 290.3162
1266.80 291.8448
1266.90 293.6867
1267.00 295.7065
1267.10 297.8817
1267.20 299.9859
1267.30 301.992
1267.40 303.9373
1267.50 305.7183
1267.60 306.872
1267.70 308.0118
1267.80 309.1404
1267.90 308.7596
1268.00 308.2032
1268.10 307.4182
1268.20 305.7919
1268.30 303.8625
1268.40 302.0058
1268.50 300.1409
1268.60 298.2681
1268.70 296.585
1268.80 295.4079
1268.90 295.4592
1269.00 295.627
1269.10 295.8496
1269.20 295.8676
1269.30 295.7776
1269.40 295.5384
1269.50 294.2101
1269.60 292.6002
1269.70 290.8092
1269.80 289.0188
1269.90 287.2288
1270.00 285.4552
1270.10 283.8726
1270.20 282.6141
1270.30 281.4675
1270.40 280.9004
1270.50 283.6519
1270.60 286.4902
1270.70 289.4119
1270.80 293.0113
1270.90 296.7216
1271.00 300.5656
1271.10 303.6323
1271.20 306.35
1271.30 309.072
1271.40 310.0254
1271.50 308.9026
1271.60 307.6004
1271.70 306.3928
1271.80 305.6008
1271.90 304.69
1272.00 303.7103
1272.10 303.4395
1272.20 303.2109
1272.30 303.0514
1272.40 302.4848
1272.50 301.8082
1272.60 301.1582
1272.70 299.8047
1272.80 297.8756
1272.90 295.9492
1273.00 294.4342
1273.10 293.7541
1273.20 293.0192
1273.30 292.2167
1273.40 291.0168
1273.50 289.7893
1273.60 288.5305
1273.70 285.8259
1273.80 282.8788
1273.90 279.796
1274.00 278.3221
1274.10 277.7161
1274.20 277.1855
1274.30 278.7115
1274.40 283.0776
1274.50 287.7943
1274.60 292.2826
1274.70 295.4848
1274.80 298.8098
1274.90 302.2274
1275.00 301.3498
1275.10 300.2162
1275.20 298.8436
1275.30 298.5978
1275.40 298.7268
1275.50 298.7011
1275.60 300.5186
1275.70 304.0377
1275.80 307.7418
1275.90 310.624
1276.00 311.4375
1276.10 312.3359
1276.20 313.0755
1276.30 310.6419
1276.40 308.0209
1276.50 305.1612
1276.60 303.1798
1276.70 301.3798
1276.80 299.6327
1276.90 300.366
1277.00 302.6852
1277.10 305.2503
1277.20 307.215
1277.30 308.1919
1277.40 309.2783
1277.50 310.0749
1277.60 309.1686
1277.70 308.0261
1277.80 306.6741
1277.90 302.3283
1278.00 297.7219
1278.10 293.0371
1278.20 290.7324
1278.30 289.3965
1278.40 288.0233
1278.50 287.6175
1278.60 288.2597
1278.70 289.2503
1278.80 291.0335
1278.90 295.0241
1279.00 299.1072
1279.10 303.1965
1279.20 305.7301
1279.30 308.3177
1279.40 310.9862
1279.50 311.9529
1279.60 312.4367
1279.70 312.6587
1279.80 311.43
1279.90 309.1069
1280.00 306.7209
1280.10 304.3497
1280.20 302.0123
1280.30 299.546
1280.40 297.1709
1280.50 295.8152
1280.60 294.4506
1280.70 293.0773
1280.80 292.8566
1280.90 292.7672
1281.00 292.6862
1281.10 292.9812
1281.20 293.472
1281.30 294.1639
1281.40 294.8791
1281.50 295.624
1281.60 296.4146
1281.70 297.1254
1281.80 297.5195
1281.90 297.9584
1282.00 298.4269
1282.10 299.9908
1282.20 301.5515
1282.30 303.0889
1282.40 304.1294
1282.50 305.0199
1282.60 305.9013
1282.70 305.8479
1282.80 304.9982
1282.90 304.0568
1283.00 303.183
1283.10 302.4698
1283.20 301.7824
1283.30 301.1147
1283.40 300.5331
1283.50 299.9258
1283.60 299.2892
1283.70 298.6168
1283.80 297.9519
1283.90 297.3268
1284.00 296.4623
1284.10 295.4629
1284.20 294.4606
1284.30 294.3807
1284.40 295.6282
1284.50 296.8707
1284.60 298.1969
1284.70 299.8861
1284.80 301.6169
1284.90 303.3793
1285.00 303.1531
1285.10 302.841
1285.20 302.5231
1285.30 299.7192
1285.40 295.9979
1285.50 291.9561
1285.60 287.9006
1285.70 283.832
1285.80 279.6582
1285.90 276.3337
1286.00 275.1172
1286.10 274.0498
1286.20 273.268
1286.30 275.8088
1286.40 278.5161
1286.50 281.4268
1286.60 286.0025
1286.70 290.9377
1286.80 295.9383
1286.90 299.6259
1287.00 302.474
1287.10 305.5021
1287.20 306.7546
1287.30 305.1099
1287.40 303.1316
1287.50 300.5978
1287.60 295.671
1287.70 290.5022
1287.80 285.1353
1287.90 282.1362
1288.00 279.3188
1288.10 276.5085
1288.20 276.0112
1288.30 276.5053
1288.40 277.4195
1288.50 279.5325
1288.60 282.9444
1288.70 286.5112
1288.80 289.7957
1288.90 292.211
1289.00 294.6882
1289.10 297.1639
1289.20 298.5165
1289.30 299.82
1289.40 301.0558
1289.50 299.9584
1289.60 298.2777
1289.70 296.4528
1289.80 294.8575
1289.90 293.4285
1290.00 291.6634
1290.10 290.5833
1290.20 290.7334
1290.30 290.9935
1290.40 291.2821
1290.50 291.5157
1290.60 291.8165
1290.70 292.177
1290.80 292.3294
1290.90 292.509
1291.00 292.8
1291.10 292.2836
1291.20 291.3816
1291.30 290.4147
1291.40 290.1563
1291.50 290.7298
1291.60 291.2523
1291.70 292.0616
1291.80 293.8614
1291.90 295.6747
1292.00 297.4902
1292.10 298.7446
1292.20 300.0706
1292.30 301.5041
1292.40 300.4014
1292.50 298.5674
1292.60 296.6608
1292.70 293.9333
1292.80 290.5607
1292.90 286.8993
1293.00 284.6208
1293.10 285.1742
1293.20 285.6642
1293.30 286.2345
1293.40 287.6438
1293.50 289.2812
1293.60 291.1377
1293.70 292.9389
1293.80 294.7483
1293.90 296.5979
1294.00 297.1459
1294.10 297.0142
1294.20 296.7384
1294.30 296.9916
1294.40 297.9182
1294.50 298.7117
1294.60 299.5977
1294.70 300.9343
1294.80 302.4502
1294.90 304.0806
1295.00 302.6227
1295.10 301.0834
1295.20 299.4655
1295.30 295.9346
1295.40 291.7481
1295.50 287.2912
1295.60 283.9546
1295.70 281.5723
1295.80 278.993
1295.90 277.5977
1296.00 278.866
1296.10 280.4551
1296.20 282.1206
1296.30 283.2336
1296.40 284.4477
1296.50 285.7671
1296.60 286.5548
1296.70 287.251
1296.80 287.9337
1296.90 288.5349
1297.00 289.0817
1297.10 289.4263
1297.20 289.8867
1297.30 290.5069
1297.40 291.2112
1297.50 291.7536
1297.60 291.5279
1297.70 291.2861
1297.80 291.033
1297.90 292.0612
1298.00 293.1251
1298.10 294.1821
1298.20 296.6227
1298.30 299.5515
1298.40 302.4924
1298.50 304.8942
1298.60 306.7984
1298.70 308.9702
1298.80 310.2687
1298.90 309.3721
1299.00 308.3718
1299.10 307.2154
1299.20 304.577
1299.30 301.8587
1299.40 299.0503
1299.50 296.5688
1299.60 294.0652
1299.70 291.3222
1299.80 289.4046
1299.90 287.9925
