# Version 2.1 - nm, norm@500 to 1, cut digits
# Wavelength(nm)  Flambda(ergs/cm^s/s/nm)
300.00 1.289298e-95
300.10 1.289298e-95
300.20 1.289298e-95
300.30 1.289298e-95
300.40 1.289298e-95
300.50 1.289298e-95
300.60 1.289298e-95
300.70 1.289298e-95
300.80 1.289298e-95
300.90 1.289298e-95
301.00 1.289298e-95
301.10 1.289298e-95
301.20 1.289298e-95
301.30 1.289298e-95
301.40 1.289298e-95
301.50 1.289298e-95
301.60 1.289298e-95
301.70 1.289298e-95
301.80 1.289298e-95
301.90 1.289298e-95
302.00 1.289298e-95
302.10 1.289298e-95
302.20 1.289298e-95
302.30 1.289298e-95
302.40 1.289298e-95
302.50 1.289298e-95
302.60 1.289298e-95
302.70 1.289298e-95
302.80 1.289298e-95
302.90 1.289298e-95
303.00 1.289298e-95
303.10 1.289298e-95
303.20 1.289298e-95
303.30 1.289298e-95
303.40 1.289298e-95
303.50 1.289298e-95
303.60 1.289298e-95
303.70 1.289298e-95
303.80 1.289298e-95
303.90 1.289298e-95
304.00 1.289298e-95
304.10 1.289298e-95
304.20 1.289298e-95
304.30 1.289298e-95
304.40 1.289298e-95
304.50 1.289298e-95
304.60 1.289298e-95
304.70 1.289298e-95
304.80 1.289298e-95
304.90 1.289298e-95
305.00 1.289298e-95
305.10 1.289298e-95
305.20 1.289298e-95
305.30 1.289298e-95
305.40 1.289298e-95
305.50 1.289298e-95
305.60 1.289298e-95
305.70 1.289298e-95
305.80 1.289298e-95
305.90 1.289298e-95
306.00 1.289298e-95
306.10 1.289298e-95
306.20 1.289298e-95
306.30 1.289298e-95
306.40 1.289298e-95
306.50 1.289298e-95
306.60 1.289298e-95
306.70 1.289298e-95
306.80 1.289298e-95
306.90 1.289298e-95
307.00 1.289298e-95
307.10 1.289298e-95
307.20 1.289298e-95
307.30 1.289298e-95
307.40 1.289298e-95
307.50 1.289298e-95
307.60 1.289298e-95
307.70 1.289298e-95
307.80 1.289298e-95
307.90 1.289298e-95
308.00 1.289298e-95
308.10 1.289298e-95
308.20 1.289298e-95
308.30 1.289298e-95
308.40 1.289298e-95
308.50 1.289298e-95
308.60 1.289298e-95
308.70 1.289298e-95
308.80 1.289298e-95
308.90 1.289298e-95
309.00 1.289298e-95
309.10 1.289298e-95
309.20 1.289298e-95
309.30 1.289298e-95
309.40 1.289298e-95
309.50 1.289298e-95
309.60 1.289298e-95
309.70 1.289298e-95
309.80 1.289298e-95
309.90 1.289298e-95
310.00 1.289298e-95
310.10 1.289298e-95
310.20 1.289298e-95
310.30 1.289298e-95
310.40 1.289298e-95
310.50 1.289298e-95
310.60 1.289298e-95
310.70 1.289298e-95
310.80 1.289298e-95
310.90 1.289298e-95
311.00 1.289298e-95
311.10 1.289298e-95
311.20 1.289298e-95
311.30 1.289298e-95
311.40 1.289298e-95
311.50 1.289298e-95
311.60 1.289298e-95
311.70 1.289298e-95
311.80 1.289298e-95
311.90 1.289298e-95
312.00 1.289298e-95
312.10 1.289298e-95
312.20 1.289298e-95
312.30 1.289298e-95
312.40 1.289298e-95
312.50 1.289298e-95
312.60 1.289298e-95
312.70 1.289298e-95
312.80 1.289298e-95
312.90 1.289298e-95
313.00 1.289298e-95
313.10 1.289298e-95
313.20 1.289298e-95
313.30 1.289298e-95
313.40 1.289298e-95
313.50 1.289298e-95
313.60 1.289298e-95
313.70 1.289298e-95
313.80 1.289298e-95
313.90 1.289298e-95
314.00 1.289298e-95
314.10 1.289298e-95
314.20 1.289298e-95
314.30 1.289298e-95
314.40 1.289298e-95
314.50 1.289298e-95
314.60 1.289298e-95
314.70 1.289298e-95
314.80 1.289298e-95
314.90 1.289298e-95
315.00 1.289298e-95
315.10 1.289298e-95
315.20 1.289298e-95
315.30 1.289298e-95
315.40 1.289298e-95
315.50 1.289298e-95
315.60 1.289298e-95
315.70 1.289298e-95
315.80 1.289298e-95
315.90 1.289298e-95
316.00 1.289298e-95
316.10 1.289298e-95
316.20 1.289298e-95
316.30 1.289298e-95
316.40 1.289298e-95
316.50 1.289298e-95
316.60 1.289298e-95
316.70 1.289298e-95
316.80 1.289298e-95
316.90 1.289298e-95
317.00 1.289298e-95
317.10 1.289298e-95
317.20 1.289298e-95
317.30 1.289298e-95
317.40 1.289298e-95
317.50 1.289298e-95
317.60 1.289298e-95
317.70 1.289298e-95
317.80 1.289298e-95
317.90 1.289298e-95
318.00 1.289298e-95
318.10 1.289298e-95
318.20 1.289298e-95
318.30 1.289298e-95
318.40 1.289298e-95
318.50 1.289298e-95
318.60 1.289298e-95
318.70 1.289298e-95
318.80 1.289298e-95
318.90 1.289298e-95
319.00 1.289298e-95
319.10 1.289298e-95
319.20 1.289298e-95
319.30 1.289298e-95
319.40 1.289298e-95
319.50 1.289298e-95
319.60 1.289298e-95
319.70 1.289298e-95
319.80 1.289298e-95
319.90 1.289298e-95
320.00 1.289298e-95
320.10 1.289298e-95
320.20 1.289298e-95
320.30 1.289298e-95
320.40 1.289298e-95
320.50 1.289298e-95
320.60 1.289298e-95
320.70 1.289298e-95
320.80 1.289298e-95
320.90 1.289298e-95
321.00 1.289298e-95
321.10 1.289298e-95
321.20 1.289298e-95
321.30 1.289298e-95
321.40 1.289298e-95
321.50 1.289298e-95
321.60 1.289298e-95
321.70 1.289298e-95
321.80 1.289298e-95
321.90 1.289298e-95
322.00 1.289298e-95
322.10 1.289298e-95
322.20 1.289298e-95
322.30 1.289298e-95
322.40 1.289298e-95
322.50 1.289298e-95
322.60 1.289298e-95
322.70 1.289298e-95
322.80 1.289298e-95
322.90 1.289298e-95
323.00 1.289298e-95
323.10 1.289298e-95
323.20 1.289298e-95
323.30 1.289298e-95
323.40 1.289298e-95
323.50 1.289298e-95
323.60 1.289298e-95
323.70 1.289298e-95
323.80 1.289298e-95
323.90 1.289298e-95
324.00 1.289298e-95
324.10 1.289298e-95
324.20 1.289298e-95
324.30 1.289298e-95
324.40 1.289298e-95
324.50 1.289298e-95
324.60 1.289298e-95
324.70 1.289298e-95
324.80 1.289298e-95
324.90 1.289298e-95
325.00 1.289298e-95
325.10 1.289298e-95
325.20 1.289298e-95
325.30 1.289298e-95
325.40 1.289298e-95
325.50 1.289298e-95
325.60 1.289298e-95
325.70 1.289298e-95
325.80 1.289298e-95
325.90 1.289298e-95
326.00 1.289298e-95
326.10 1.289298e-95
326.20 1.289298e-95
326.30 1.289298e-95
326.40 1.289298e-95
326.50 1.289298e-95
326.60 1.289298e-95
326.70 1.289298e-95
326.80 1.289298e-95
326.90 1.289298e-95
327.00 1.289298e-95
327.10 1.289298e-95
327.20 1.289298e-95
327.30 1.289298e-95
327.40 1.289298e-95
327.50 1.289298e-95
327.60 1.289298e-95
327.70 1.289298e-95
327.80 1.289298e-95
327.90 1.289298e-95
328.00 1.289298e-95
328.10 1.289298e-95
328.20 1.289298e-95
328.30 1.289298e-95
328.40 1.289298e-95
328.50 1.289298e-95
328.60 1.289298e-95
328.70 1.289298e-95
328.80 1.289298e-95
328.90 1.289298e-95
329.00 1.289298e-95
329.10 1.289298e-95
329.20 1.289298e-95
329.30 1.289298e-95
329.40 1.289298e-95
329.50 1.289298e-95
329.60 1.289298e-95
329.70 1.289298e-95
329.80 1.289298e-95
329.90 1.289298e-95
330.00 1.289298e-95
330.10 1.289298e-95
330.20 1.289298e-95
330.30 1.289298e-95
330.40 1.289298e-95
330.50 1.289298e-95
330.60 1.289298e-95
330.70 1.289298e-95
330.80 1.289298e-95
330.90 1.289298e-95
331.00 1.289298e-95
331.10 1.289298e-95
331.20 1.289298e-95
331.30 1.289298e-95
331.40 1.289298e-95
331.50 1.289298e-95
331.60 1.289298e-95
331.70 1.289298e-95
331.80 1.289298e-95
331.90 1.289298e-95
332.00 1.289298e-95
332.10 1.289298e-95
332.20 1.289298e-95
332.30 1.289298e-95
332.40 1.289298e-95
332.50 1.289298e-95
332.60 1.289298e-95
332.70 1.289298e-95
332.80 1.289298e-95
332.90 1.289298e-95
333.00 1.289298e-95
333.10 1.289298e-95
333.20 1.289298e-95
333.30 1.289298e-95
333.40 1.289298e-95
333.50 1.289298e-95
333.60 1.289298e-95
333.70 1.289298e-95
333.80 1.289298e-95
333.90 1.289298e-95
334.00 1.289298e-95
334.10 1.289298e-95
334.20 1.289298e-95
334.30 1.289298e-95
334.40 1.289298e-95
334.50 1.289298e-95
334.60 1.289298e-95
334.70 1.289298e-95
334.80 1.289298e-95
334.90 1.289298e-95
335.00 1.289298e-95
335.10 1.289298e-95
335.20 1.289298e-95
335.30 1.289298e-95
335.40 1.289298e-95
335.50 1.289298e-95
335.60 1.289298e-95
335.70 1.289298e-95
335.80 1.289298e-95
335.90 1.289298e-95
336.00 1.289298e-95
336.10 1.289298e-95
336.20 1.289298e-95
336.30 1.289298e-95
336.40 1.289298e-95
336.50 1.289298e-95
336.60 1.289298e-95
336.70 1.289298e-95
336.80 1.289298e-95
336.90 1.289298e-95
337.00 1.289298e-95
337.10 1.289298e-95
337.20 1.289298e-95
337.30 1.289298e-95
337.40 1.289298e-95
337.50 1.289298e-95
337.60 1.289298e-95
337.70 1.289298e-95
337.80 1.289298e-95
337.90 1.289298e-95
338.00 1.289298e-95
338.10 1.289298e-95
338.20 1.289298e-95
338.30 1.289298e-95
338.40 1.289298e-95
338.50 1.289298e-95
338.60 1.289298e-95
338.70 1.289298e-95
338.80 1.289298e-95
338.90 1.289298e-95
339.00 1.289298e-95
339.10 1.289298e-95
339.20 1.289298e-95
339.30 1.289298e-95
339.40 1.289298e-95
339.50 1.289298e-95
339.60 1.289298e-95
339.70 1.289298e-95
339.80 1.289298e-95
339.90 1.289298e-95
340.00 1.289298e-95
340.10 1.289298e-95
340.20 1.289298e-95
340.30 1.289298e-95
340.40 1.289298e-95
340.50 1.289298e-95
340.60 1.289298e-95
340.70 1.289298e-95
340.80 1.289298e-95
340.90 1.289298e-95
341.00 1.289298e-95
341.10 1.289298e-95
341.20 1.289298e-95
341.30 1.289298e-95
341.40 1.289298e-95
341.50 1.289298e-95
341.60 1.289298e-95
341.70 1.289298e-95
341.80 1.289298e-95
341.90 1.289298e-95
342.00 1.289298e-95
342.10 1.289298e-95
342.20 1.289298e-95
342.30 1.289298e-95
342.40 1.289298e-95
342.50 1.289298e-95
342.60 1.289298e-95
342.70 1.289298e-95
342.80 1.289298e-95
342.90 1.289298e-95
343.00 1.289298e-95
343.10 1.289298e-95
343.20 1.289298e-95
343.30 1.289298e-95
343.40 1.289298e-95
343.50 1.289298e-95
343.60 1.289298e-95
343.70 1.289298e-95
343.80 1.289298e-95
343.90 1.289298e-95
344.00 1.289298e-95
344.10 1.289298e-95
344.20 1.289298e-95
344.30 1.289298e-95
344.40 1.289298e-95
344.50 1.289298e-95
344.60 1.289298e-95
344.70 1.289298e-95
344.80 1.289298e-95
344.90 1.289298e-95
345.00 1.289298e-95
345.10 1.289298e-95
345.20 1.289298e-95
345.30 1.289298e-95
345.40 1.289298e-95
345.50 1.289298e-95
345.60 1.289298e-95
345.70 1.289298e-95
345.80 1.289298e-95
345.90 1.289298e-95
346.00 1.289298e-95
346.10 1.289298e-95
346.20 1.289298e-95
346.30 1.289298e-95
346.40 1.289298e-95
346.50 1.289298e-95
346.60 1.289298e-95
346.70 1.289298e-95
346.80 1.289298e-95
346.90 1.289298e-95
347.00 1.289298e-95
347.10 1.289298e-95
347.20 1.289298e-95
347.30 1.289298e-95
347.40 1.289298e-95
347.50 1.289298e-95
347.60 1.289298e-95
347.70 1.289298e-95
347.80 1.289298e-95
347.90 1.289298e-95
348.00 1.289298e-95
348.10 1.289298e-95
348.20 1.289298e-95
348.30 1.289298e-95
348.40 1.289298e-95
348.50 1.289298e-95
348.60 1.289298e-95
348.70 1.289298e-95
348.80 1.289298e-95
348.90 1.289298e-95
349.00 1.289298e-95
349.10 1.289298e-95
349.20 1.289298e-95
349.30 1.289298e-95
349.40 1.289298e-95
349.50 1.289298e-95
349.60 1.289298e-95
349.70 1.289298e-95
349.80 1.289298e-95
349.90 1.289298e-95
350.00 1.289298e-95
350.10 1.289298e-95
350.20 1.289298e-95
350.30 1.289298e-95
350.40 1.289298e-95
350.50 1.289298e-95
350.60 1.289298e-95
350.70 1.289298e-95
350.80 1.289298e-95
350.90 1.289298e-95
351.00 1.289298e-95
351.10 1.289298e-95
351.20 1.289298e-95
351.30 1.289298e-95
351.40 1.289298e-95
351.50 1.289298e-95
351.60 1.289298e-95
351.70 1.289298e-95
351.80 1.289298e-95
351.90 1.289298e-95
352.00 1.289298e-95
352.10 1.289298e-95
352.20 1.289298e-95
352.30 1.289298e-95
352.40 1.289298e-95
352.50 1.289298e-95
352.60 1.289298e-95
352.70 1.289298e-95
352.80 1.289298e-95
352.90 1.289298e-95
353.00 1.289298e-95
353.10 1.289298e-95
353.20 1.289298e-95
353.30 1.289298e-95
353.40 1.289298e-95
353.50 1.289298e-95
353.60 1.289298e-95
353.70 1.289298e-95
353.80 1.289298e-95
353.90 1.289298e-95
354.00 1.289298e-95
354.10 1.289298e-95
354.20 1.289298e-95
354.30 1.289298e-95
354.40 1.289298e-95
354.50 1.289298e-95
354.60 1.289298e-95
354.70 1.289298e-95
354.80 1.289298e-95
354.90 1.289298e-95
355.00 1.289298e-95
355.10 1.289298e-95
355.20 1.289298e-95
355.30 1.289298e-95
355.40 1.289298e-95
355.50 1.289298e-95
355.60 1.289298e-95
355.70 1.289298e-95
355.80 1.289298e-95
355.90 1.289298e-95
356.00 1.289298e-95
356.10 1.289298e-95
356.20 1.289298e-95
356.30 1.289298e-95
356.40 1.289298e-95
356.50 1.289298e-95
356.60 1.289298e-95
356.70 1.289298e-95
356.80 1.289298e-95
356.90 1.289298e-95
357.00 1.289298e-95
357.10 1.289298e-95
357.20 1.289298e-95
357.30 1.289298e-95
357.40 1.289298e-95
357.50 1.289298e-95
357.60 1.289298e-95
357.70 1.289298e-95
357.80 1.289298e-95
357.90 1.289298e-95
358.00 1.289298e-95
358.10 1.289298e-95
358.20 1.289298e-95
358.30 1.289298e-95
358.40 1.289298e-95
358.50 1.289298e-95
358.60 1.289298e-95
358.70 1.289298e-95
358.80 1.289298e-95
358.90 1.289298e-95
359.00 1.289298e-95
359.10 1.289298e-95
359.20 1.289298e-95
359.30 1.289298e-95
359.40 1.289298e-95
359.50 1.289298e-95
359.60 1.289298e-95
359.70 1.289298e-95
359.80 1.289298e-95
359.90 1.289298e-95
360.00 1.289298e-95
360.10 1.289298e-95
360.20 1.289298e-95
360.30 1.289298e-95
360.40 1.289298e-95
360.50 1.289298e-95
360.60 1.289298e-95
360.70 1.289298e-95
360.80 1.289298e-95
360.90 1.289298e-95
361.00 1.289298e-95
361.10 1.289298e-95
361.20 1.289298e-95
361.30 1.289298e-95
361.40 1.289298e-95
361.50 1.289298e-95
361.60 1.289298e-95
361.70 1.289298e-95
361.80 1.289298e-95
361.90 1.289298e-95
362.00 1.289298e-95
362.10 1.289298e-95
362.20 1.289298e-95
362.30 1.289298e-95
362.40 1.289298e-95
362.50 1.289298e-95
362.60 1.289298e-95
362.70 1.289298e-95
362.80 1.289298e-95
362.90 1.289298e-95
363.00 1.289298e-95
363.10 1.289298e-95
363.20 1.289298e-95
363.30 1.289298e-95
363.40 1.289298e-95
363.50 1.289298e-95
363.60 1.289298e-95
363.70 1.289298e-95
363.80 1.289298e-95
363.90 1.289298e-95
364.00 1.289298e-95
364.10 1.289298e-95
364.20 1.289298e-95
364.30 1.289298e-95
364.40 1.289298e-95
364.50 1.289298e-95
364.60 1.289298e-95
364.70 1.289298e-95
364.80 1.289298e-95
364.90 1.289298e-95
365.00 1.289298e-95
365.10 1.289298e-95
365.20 1.289298e-95
365.30 1.289298e-95
365.40 1.289298e-95
365.50 1.289298e-95
365.60 1.289298e-95
365.70 1.289298e-95
365.80 1.289298e-95
365.90 1.289298e-95
366.00 1.289298e-95
366.10 1.289298e-95
366.20 1.289298e-95
366.30 1.289298e-95
366.40 1.289298e-95
366.50 1.289298e-95
366.60 1.289298e-95
366.70 1.289298e-95
366.80 1.289298e-95
366.90 1.289298e-95
367.00 1.289298e-95
367.10 1.289298e-95
367.20 1.289298e-95
367.30 1.289298e-95
367.40 1.289298e-95
367.50 1.289298e-95
367.60 1.289298e-95
367.70 1.289298e-95
367.80 1.289298e-95
367.90 1.289298e-95
368.00 1.289298e-95
368.10 1.289298e-95
368.20 1.289298e-95
368.30 1.289298e-95
368.40 1.289298e-95
368.50 1.289298e-95
368.60 1.289298e-95
368.70 1.289298e-95
368.80 1.289298e-95
368.90 1.289298e-95
369.00 1.289298e-95
369.10 1.289298e-95
369.20 1.289298e-95
369.30 1.289298e-95
369.40 1.289298e-95
369.50 1.289298e-95
369.60 1.289298e-95
369.70 1.289298e-95
369.80 1.289298e-95
369.90 1.289298e-95
370.00 1.289298e-95
370.10 1.289298e-95
370.20 1.289298e-95
370.30 1.289298e-95
370.40 1.289298e-95
370.50 1.289298e-95
370.60 1.289298e-95
370.70 1.289298e-95
370.80 1.289298e-95
370.90 1.289298e-95
371.00 1.289298e-95
371.10 1.289298e-95
371.20 1.289298e-95
371.30 1.289298e-95
371.40 1.289298e-95
371.50 1.289298e-95
371.60 1.289298e-95
371.70 1.289298e-95
371.80 1.289298e-95
371.90 1.289298e-95
372.00 1.289298e-95
372.10 1.289298e-95
372.20 1.289298e-95
372.30 1.289298e-95
372.40 1.289298e-95
372.50 1.289298e-95
372.60 1.289298e-95
372.70 1.289298e-95
372.80 1.289298e-95
372.90 1.289298e-95
373.00 1.289298e-95
373.10 1.289298e-95
373.20 1.289298e-95
373.30 1.289298e-95
373.40 1.289298e-95
373.50 1.289298e-95
373.60 1.289298e-95
373.70 1.289298e-95
373.80 1.289298e-95
373.90 1.289298e-95
374.00 1.289298e-95
374.10 1.289298e-95
374.20 1.289298e-95
374.30 1.289298e-95
374.40 1.289298e-95
374.50 1.289298e-95
374.60 1.289298e-95
374.70 1.289298e-95
374.80 1.289298e-95
374.90 1.289298e-95
375.00 1.289298e-95
375.10 1.289298e-95
375.20 1.289298e-95
375.30 1.289298e-95
375.40 1.289298e-95
375.50 1.289298e-95
375.60 1.289298e-95
375.70 1.289298e-95
375.80 1.289298e-95
375.90 1.289298e-95
376.00 1.289298e-95
376.10 1.289298e-95
376.20 1.289298e-95
376.30 1.289298e-95
376.40 1.289298e-95
376.50 1.289298e-95
376.60 1.289298e-95
376.70 1.289298e-95
376.80 1.289298e-95
376.90 1.289298e-95
377.00 1.289298e-95
377.10 1.289298e-95
377.20 1.289298e-95
377.30 1.289298e-95
377.40 1.289298e-95
377.50 1.289298e-95
377.60 1.289298e-95
377.70 1.289298e-95
377.80 1.289298e-95
377.90 1.289298e-95
378.00 1.289298e-95
378.10 1.289298e-95
378.20 1.289298e-95
378.30 1.289298e-95
378.40 1.289298e-95
378.50 1.289298e-95
378.60 1.289298e-95
378.70 1.289298e-95
378.80 1.289298e-95
378.90 1.289298e-95
379.00 1.289298e-95
379.10 1.289298e-95
379.20 1.289298e-95
379.30 1.289298e-95
379.40 1.289298e-95
379.50 1.289298e-95
379.60 1.289298e-95
379.70 1.289298e-95
379.80 1.289298e-95
379.90 1.289298e-95
380.00 1.289298e-95
380.10 1.289298e-95
380.20 1.289298e-95
380.30 1.289298e-95
380.40 1.289298e-95
380.50 1.289298e-95
380.60 1.289298e-95
380.70 1.289298e-95
380.80 1.289298e-95
380.90 1.289298e-95
381.00 1.289298e-95
381.10 1.289298e-95
381.20 1.289298e-95
381.30 1.289298e-95
381.40 1.289298e-95
381.50 1.289298e-95
381.60 1.289298e-95
381.70 1.289298e-95
381.80 1.289298e-95
381.90 1.289298e-95
382.00 1.289298e-95
382.10 1.289298e-95
382.20 1.289298e-95
382.30 1.289298e-95
382.40 1.289298e-95
382.50 1.289298e-95
382.60 1.289298e-95
382.70 1.289298e-95
382.80 1.289298e-95
382.90 1.289298e-95
383.00 1.289298e-95
383.10 1.289298e-95
383.20 1.289298e-95
383.30 1.289298e-95
383.40 1.289298e-95
383.50 1.289298e-95
383.60 1.289298e-95
383.70 1.289298e-95
383.80 1.289298e-95
383.90 1.289298e-95
384.00 1.289298e-95
384.10 1.289298e-95
384.20 1.289298e-95
384.30 1.289298e-95
384.40 1.289298e-95
384.50 1.289298e-95
384.60 1.289298e-95
384.70 1.289298e-95
384.80 1.289298e-95
384.90 1.289298e-95
385.00 1.289298e-95
385.10 1.289298e-95
385.20 1.289298e-95
385.30 1.289298e-95
385.40 1.289298e-95
385.50 1.289298e-95
385.60 1.289298e-95
385.70 1.289298e-95
385.80 1.289298e-95
385.90 1.289298e-95
386.00 1.289298e-95
386.10 1.289298e-95
386.20 1.289298e-95
386.30 1.289298e-95
386.40 1.289298e-95
386.50 1.289298e-95
386.60 1.289298e-95
386.70 1.289298e-95
386.80 1.289298e-95
386.90 1.289298e-95
387.00 1.289298e-95
387.10 1.289298e-95
387.20 1.289298e-95
387.30 1.289298e-95
387.40 1.289298e-95
387.50 1.289298e-95
387.60 1.289298e-95
387.70 1.289298e-95
387.80 1.289298e-95
387.90 1.289298e-95
388.00 1.289298e-95
388.10 1.289298e-95
388.20 1.289298e-95
388.30 1.289298e-95
388.40 1.289298e-95
388.50 1.289298e-95
388.60 1.289298e-95
388.70 1.289298e-95
388.80 1.289298e-95
388.90 1.289298e-95
389.00 1.289298e-95
389.10 1.289298e-95
389.20 1.289298e-95
389.30 1.289298e-95
389.40 1.289298e-95
389.50 1.289298e-95
389.60 1.289298e-95
389.70 1.289298e-95
389.80 1.289298e-95
389.90 1.289298e-95
390.00 1.289298e-95
390.10 1.289298e-95
390.20 1.289298e-95
390.30 1.289298e-95
390.40 1.289298e-95
390.50 1.289298e-95
390.60 1.289298e-95
390.70 1.289298e-95
390.80 1.289298e-95
390.90 1.289298e-95
391.00 1.289298e-95
391.10 1.289298e-95
391.20 1.289298e-95
391.30 1.289298e-95
391.40 1.289298e-95
391.50 1.289298e-95
391.60 1.289298e-95
391.70 1.289298e-95
391.80 1.289298e-95
391.90 1.289298e-95
392.00 1.289298e-95
392.10 1.289298e-95
392.20 1.289298e-95
392.30 1.289298e-95
392.40 1.289298e-95
392.50 1.289298e-95
392.60 1.289298e-95
392.70 1.289298e-95
392.80 1.289298e-95
392.90 1.289298e-95
393.00 1.289298e-95
393.10 1.289298e-95
393.20 1.289298e-95
393.30 1.289298e-95
393.40 1.289298e-95
393.50 1.289298e-95
393.60 1.289298e-95
393.70 1.289298e-95
393.80 1.289298e-95
393.90 1.289298e-95
394.00 1.289298e-95
394.10 1.289298e-95
394.20 1.289298e-95
394.30 1.289298e-95
394.40 1.289298e-95
394.50 1.289298e-95
394.60 1.289298e-95
394.70 1.289298e-95
394.80 1.289298e-95
394.90 1.289298e-95
395.00 0.00866079
395.10 0.01653522
395.20 0.02383383
395.30 0.03081563
395.40 0.03770623
395.50 0.04470416
395.60 0.0519703
395.70 0.05951042
395.80 0.06721335
395.90 0.0751567
396.00 0.08384976
396.10 0.09390562
396.20 0.1056062
396.30 0.1187358
396.40 0.1325968
396.50 0.1461134
396.60 0.1580609
396.70 0.1673791
396.80 0.1733929
396.90 0.175945
397.00 0.175945
397.10 0.175945
397.20 0.175945
397.30 0.175945
397.40 0.1760089
397.50 0.1778884
397.60 0.1814421
397.70 0.1860575
397.80 0.1909827
397.90 0.195642
398.00 0.199695
398.10 0.2031013
398.20 0.2062444
398.30 0.2098221
398.40 0.2144348
398.50 0.2203624
398.60 0.2274315
398.70 0.2350126
398.80 0.242275
398.90 0.2484718
399.00 0.2530532
399.10 0.2558626
399.20 0.2571906
399.30 0.2575378
399.40 0.2575378
399.50 0.2575378
399.60 0.2579354
399.70 0.258862
399.80 0.260105
399.90 0.2611761
400.00 0.2617173
400.10 0.261778
400.20 0.261778
400.30 0.261778
400.40 0.2618868
400.50 0.2628529
400.60 0.2649659
400.70 0.2683834
400.80 0.2731978
400.90 0.279259
401.00 0.286118
401.10 0.2931875
401.20 0.2999595
401.30 0.3061903
401.40 0.3115822
401.50 0.315663
401.60 0.3181103
401.70 0.3189535
401.80 0.3189535
401.90 0.3189535
402.00 0.3189535
402.10 0.3189535
402.20 0.3208065
402.30 0.3251296
402.40 0.331927
402.50 0.3407067
402.60 0.3506237
402.70 0.3607046
402.80 0.3703693
402.90 0.3796169
403.00 0.3884695
403.10 0.3965339
403.20 0.4032508
403.30 0.4083312
403.40 0.4117526
403.50 0.4136357
403.60 0.4140448
403.70 0.4140448
403.80 0.4140448
403.90 0.4140448
404.00 0.4141388
404.10 0.4162224
404.20 0.4204094
404.30 0.4263005
404.40 0.433324
404.50 0.4410204
404.60 0.4489983
404.70 0.4567816
404.80 0.4639782
404.90 0.4703611
405.00 0.4672324
405.10 0.4644354
405.20 0.4625505
405.30 0.4620923
405.40 0.4632196
405.50 0.4658854
405.60 0.4700168
405.70 0.4753102
405.80 0.4811731
405.90 0.4867061
406.00 0.4906486
406.10 0.4917951
406.20 0.489485
406.30 0.4840295
406.40 0.4767002
406.50 0.4692227
406.60 0.4632297
406.70 0.4601174
406.80 0.460933
406.90 0.4658845
407.00 0.4736928
407.10 0.4812827
407.20 0.4881933
407.30 0.494117
407.40 0.4987648
407.50 0.5002251
407.60 0.4986936
407.70 0.4950522
407.80 0.4904159
407.90 0.4857567
408.00 0.4817037
408.10 0.4782973
408.20 0.4757411
408.30 0.4736242
408.40 0.471625
408.50 0.4697032
408.60 0.4678061
408.70 0.4658369
408.80 0.4637676
408.90 0.4616418
409.00 0.4594899
409.10 0.4571287
409.20 0.4558007
409.30 0.4554535
409.40 0.4554535
409.50 0.4554535
409.60 0.4556465
409.70 0.4577452
409.80 0.4620119
409.90 0.4683897
410.00 0.4764715
410.10 0.485496
410.20 0.4945392
410.30 0.503227
410.40 0.5113738
410.50 0.5184919
410.60 0.5245781
410.70 0.5295318
410.80 0.5331496
410.90 0.5353289
411.00 0.5362215
411.10 0.5360898
411.20 0.5352437
411.30 0.5342833
411.40 0.5343611
411.50 0.5367777
411.60 0.5423237
411.70 0.5510701
411.80 0.5620917
411.90 0.5740674
412.00 0.5865078
412.10 0.5991351
412.20 0.6099298
412.30 0.6182748
412.40 0.6242383
412.50 0.6283263
412.60 0.6311823
412.70 0.6331732
412.80 0.6341005
412.90 0.6333777
413.00 0.6307748
413.10 0.6269343
413.20 0.6231139
413.30 0.6205114
413.40 0.6198521
413.50 0.6214479
413.60 0.6254361
413.70 0.6307433
413.80 0.6367815
413.90 0.6432389
414.00 0.6496524
414.10 0.6537537
414.20 0.6551606
414.30 0.6540887
414.40 0.6510098
414.50 0.6465022
414.60 0.6410364
414.70 0.6352262
414.80 0.629849
414.90 0.6255742
415.00 0.6228257
415.10 0.6213745
415.20 0.6204739
415.30 0.619365
415.40 0.6175293
415.50 0.6144177
415.60 0.6093977
415.70 0.6023719
415.80 0.5938664
415.90 0.5847612
416.00 0.5761251
416.10 0.5688078
416.20 0.5633045
416.30 0.5595696
416.40 0.5568991
416.50 0.5543616
416.60 0.5511502
416.70 0.5465397
416.80 0.5400159
416.90 0.5325122
417.00 0.5247039
417.10 0.5172866
417.20 0.5121998
417.30 0.5100301
417.40 0.5107825
417.50 0.5141741
417.60 0.5194896
417.70 0.5255777
417.80 0.5313371
417.90 0.5360554
418.00 0.5395967
418.10 0.5424525
418.20 0.5446916
418.30 0.5465788
418.40 0.5480566
418.50 0.5489327
418.60 0.5493541
418.70 0.549804
418.80 0.5508481
418.90 0.5529405
419.00 0.5564008
419.10 0.5614325
419.20 0.5664215
419.30 0.570762
419.40 0.5742594
419.50 0.5769055
419.60 0.5782844
419.70 0.5769315
419.80 0.5734343
419.90 0.5689113
420.00 0.5644514
420.10 0.5609003
420.20 0.5587717
420.30 0.5581743
420.40 0.558756
420.50 0.5597618
420.60 0.5604945
420.70 0.5609108
420.80 0.5614782
420.90 0.5627345
421.00 0.565101
421.10 0.5686361
421.20 0.5728382
421.30 0.5766897
421.40 0.5791272
421.50 0.5795842
421.60 0.5779737
421.70 0.5746027
421.80 0.5700675
421.90 0.5652214
422.00 0.5607656
422.10 0.5567141
422.20 0.552644
422.30 0.5480717
422.40 0.5425959
422.50 0.5361633
422.60 0.52926
422.70 0.5229336
422.80 0.5183421
422.90 0.5162302
423.00 0.5168337
423.10 0.5198596
423.20 0.5245039
423.30 0.5295888
423.40 0.5339322
423.50 0.5366454
423.60 0.5371271
423.70 0.5350386
423.80 0.5304555
423.90 0.5239981
424.00 0.5174906
424.10 0.5113056
424.20 0.5057302
424.30 0.5024538
424.40 0.5018212
424.50 0.5036208
424.60 0.5075119
424.70 0.5130029
424.80 0.5193233
424.90 0.5256854
425.00 0.531368
425.10 0.5358439
425.20 0.5386907
425.30 0.5397214
425.40 0.5391034
425.50 0.5372654
425.60 0.5349258
425.70 0.5329055
425.80 0.5316938
425.90 0.5311352
426.00 0.5306
426.10 0.5296142
426.20 0.5280334
426.30 0.5259401
426.40 0.5237529
426.50 0.5221499
426.60 0.5218708
426.70 0.523412
426.80 0.5267888
426.90 0.5307558
427.00 0.5346763
427.10 0.5380773
427.20 0.5393754
427.30 0.538445
427.40 0.535701
427.50 0.5316161
427.60 0.5268336
427.70 0.5222281
427.80 0.5185341
427.90 0.5160662
428.00 0.5147318
428.10 0.5141396
428.20 0.5136814
428.30 0.5129173
428.40 0.5116574
428.50 0.5096557
428.60 0.5067705
428.70 0.5032022
428.80 0.499423
428.90 0.4960089
429.00 0.4933213
429.10 0.4913901
429.20 0.4900959
429.30 0.4893579
429.40 0.489201
429.50 0.4895353
429.60 0.4900974
429.70 0.4903767
429.80 0.4897033
429.90 0.4877347
430.00 0.4845995
430.10 0.4806431
430.20 0.4762833
430.30 0.4718182
430.40 0.4674101
430.50 0.4632298
430.60 0.4592739
430.70 0.4551072
430.80 0.4500186
430.90 0.4435058
431.00 0.4354689
431.10 0.4265071
431.20 0.4177942
431.30 0.4104035
431.40 0.4048357
431.50 0.4009595
431.60 0.3982204
431.70 0.3959893
431.80 0.3936464
431.90 0.3905049
432.00 0.3860234
432.10 0.3802002
432.20 0.3736471
432.30 0.3671206
432.40 0.3613355
432.50 0.3567254
432.60 0.3533512
432.70 0.3509978
432.80 0.349237
432.90 0.3475842
433.00 0.3455282
433.10 0.342653
433.20 0.3388808
433.30 0.3345381
433.40 0.3302636
433.50 0.3266779
433.60 0.3242398
433.70 0.3233472
433.80 0.3241111
433.90 0.3260354
434.00 0.3273576
434.10 0.3278106
434.20 0.3277921
434.30 0.3262493
434.40 0.3229374
434.50 0.317949
434.60 0.3118338
434.70 0.3058228
434.80 0.3001351
434.90 0.2947063
435.00 0.2892481
435.10 0.2834216
435.20 0.2771713
435.30 0.2708245
435.40 0.2652603
435.50 0.2609732
435.60 0.2588288
435.70 0.2585355
435.80 0.2593666
435.90 0.2606871
436.00 0.2620116
436.10 0.262957
436.20 0.2631654
436.30 0.2623132
436.40 0.2606392
436.50 0.2587406
436.60 0.2562766
436.70 0.25314
436.80 0.2494577
436.90 0.2454907
437.00 0.2415702
437.10 0.2380835
437.20 0.2359616
437.30 0.2349449
437.40 0.2343779
437.50 0.2337091
437.60 0.2326064
437.70 0.2309947
437.80 0.229094
437.90 0.227391
438.00 0.2264539
438.10 0.2267402
438.20 0.2286185
438.30 0.2322315
438.40 0.2375271
438.50 0.2444245
438.60 0.2526928
438.70 0.2619429
438.80 0.2716944
438.90 0.2812048
439.00 0.2897718
439.10 0.2971077
439.20 0.303234
439.30 0.3082792
439.40 0.3123383
439.50 0.3155549
439.60 0.3181655
439.70 0.3205
439.80 0.3227887
439.90 0.3249849
440.00 0.3268702
440.10 0.3281554
440.20 0.3285261
440.30 0.3280823
440.40 0.327519
440.50 0.32769
440.60 0.3292824
440.70 0.3326748
440.80 0.3380029
440.90 0.3451463
441.00 0.3536722
441.10 0.3627348
441.20 0.3714064
441.30 0.379115
441.40 0.3856447
441.50 0.3911232
441.60 0.3960502
441.70 0.4007892
441.80 0.4053753
441.90 0.4097724
442.00 0.4140102
442.10 0.4182699
442.20 0.4226758
442.30 0.4272137
442.40 0.4316391
442.50 0.4356623
442.60 0.4391131
442.70 0.4419472
442.80 0.444331
442.90 0.4465258
443.00 0.4488793
443.10 0.4518422
443.20 0.4556244
443.30 0.4600645
443.40 0.4648736
443.50 0.469754
443.60 0.4744161
443.70 0.4785796
443.80 0.4822923
443.90 0.4860496
444.00 0.4904535
444.10 0.4958542
444.20 0.5015966
444.30 0.506837
444.40 0.5111709
444.50 0.5141729
444.60 0.5152792
444.70 0.5138261
444.80 0.511374
444.90 0.5083327
445.00 0.5053246
445.10 0.5030489
445.20 0.5028643
445.30 0.505539
445.40 0.5100562
445.50 0.5155121
445.60 0.5205446
445.70 0.5247851
445.80 0.5284617
445.90 0.5322538
446.00 0.5369458
446.10 0.5429926
446.20 0.550547
446.30 0.5595357
446.40 0.5690391
446.50 0.5774867
446.60 0.5842015
446.70 0.5887924
446.80 0.5915619
446.90 0.5932166
447.00 0.5943934
447.10 0.5956199
447.20 0.5965703
447.30 0.5976224
447.40 0.5993142
447.50 0.6021512
447.60 0.6064497
447.70 0.6120997
447.80 0.6186771
447.90 0.6256691
448.00 0.6325349
448.10 0.6385955
448.20 0.6429672
448.30 0.6451285
448.40 0.6452358
448.50 0.6437472
448.60 0.64123
448.70 0.638203
448.80 0.6350195
448.90 0.6320072
449.00 0.6293704
449.10 0.6271438
449.20 0.6253595
449.30 0.6241284
449.40 0.6236529
449.50 0.6242151
449.60 0.6259728
449.70 0.6287103
449.80 0.6320853
449.90 0.6359873
450.00 0.6405186
450.10 0.6458672
450.20 0.6521921
450.30 0.6594018
450.40 0.6670208
450.50 0.6743828
450.60 0.6808637
450.70 0.6860426
450.80 0.6898494
450.90 0.6925942
451.00 0.6949912
451.10 0.6980876
451.20 0.7027537
451.30 0.7092166
451.40 0.7170758
451.50 0.7255746
451.60 0.7338671
451.70 0.7413604
451.80 0.7479687
451.90 0.7539751
452.00 0.7597873
452.10 0.7657326
452.20 0.771965
452.30 0.7786647
452.40 0.7861594
452.50 0.7945917
452.60 0.8037558
452.70 0.8132245
452.80 0.8224482
452.90 0.8308193
453.00 0.8377514
453.10 0.8427175
453.20 0.8453442
453.30 0.8456787
453.40 0.8441986
453.50 0.8417978
453.60 0.8396963
453.70 0.8389541
453.80 0.8400305
453.90 0.8429392
454.00 0.8475095
454.10 0.8534833
454.20 0.8607364
454.30 0.8693317
454.40 0.8793181
454.50 0.8906326
454.60 0.9031088
454.70 0.9162425
454.80 0.9284531
454.90 0.939606
455.00 0.94965
455.10 0.9586836
455.20 0.9659164
455.30 0.970645
455.40 0.9734186
455.50 0.9750855
455.60 0.9761445
455.70 0.9766575
455.80 0.976477
455.90 0.9753799
456.00 0.9731844
456.10 0.9698789
456.20 0.965731
456.30 0.9612704
456.40 0.9572069
456.50 0.9544028
456.60 0.953837
456.70 0.9560941
456.80 0.9607706
456.90 0.9667422
457.00 0.9728683
457.10 0.9782815
457.20 0.9826603
457.30 0.9861607
457.40 0.9891892
457.50 0.9922559
457.60 0.995688
457.70 0.9996734
457.80 1.004274
457.90 1.009249
458.00 1.014079
458.10 1.018338
458.20 1.021967
458.30 1.025082
458.40 1.027877
458.50 1.030564
458.60 1.033138
458.70 1.035428
458.80 1.03715
458.90 1.038068
459.00 1.038282
459.10 1.038026
459.20 1.037389
459.30 1.036475
459.40 1.035573
459.50 1.035
459.60 1.035139
459.70 1.036513
459.80 1.039509
459.90 1.04408
460.00 1.049773
460.10 1.055914
460.20 1.061918
460.30 1.067492
460.40 1.072318
460.50 1.075959
460.60 1.078321
460.70 1.079652
460.80 1.080219
460.90 1.080193
461.00 1.079497
461.10 1.077929
461.20 1.075585
461.30 1.073055
461.40 1.071175
461.50 1.070677
461.60 1.071943
461.70 1.074705
461.80 1.078262
461.90 1.08197
462.00 1.085282
462.10 1.087806
462.20 1.089296
462.30 1.089508
462.40 1.088306
462.50 1.08581
462.60 1.082214
462.70 1.077527
462.80 1.071747
462.90 1.065214
463.00 1.058604
463.10 1.052912
463.20 1.049323
463.30 1.048717
463.40 1.051392
463.50 1.056804
463.60 1.063697
463.70 1.070616
463.80 1.076268
463.90 1.079622
464.00 1.080019
464.10 1.077489
464.20 1.072642
464.30 1.066217
464.40 1.058899
464.50 1.051356
464.60 1.044201
464.70 1.037857
464.80 1.032477
464.90 1.028134
465.00 1.024799
465.10 1.022291
465.20 1.020399
465.30 1.01878
465.40 1.016997
465.50 1.014843
465.60 1.01251
465.70 1.010528
465.80 1.009628
465.90 1.010335
466.00 1.012785
466.10 1.016784
466.20 1.021735
466.30 1.02682
466.40 1.03141
466.50 1.035282
466.60 1.038441
466.70 1.041138
466.80 1.043855
466.90 1.047239
467.00 1.051917
467.10 1.058015
467.20 1.065024
467.30 1.07218
467.40 1.078722
467.50 1.084048
467.60 1.087818
467.70 1.089785
467.80 1.089671
467.90 1.087268
468.00 1.082726
468.10 1.076644
468.20 1.069923
468.30 1.063158
468.40 1.056373
468.50 1.04971
468.60 1.043619
468.70 1.038499
468.80 1.034644
468.90 1.032233
469.00 1.031388
469.10 1.032242
469.20 1.034896
469.30 1.039273
469.40 1.044886
469.50 1.050983
469.60 1.05685
469.70 1.061917
469.80 1.065835
469.90 1.06838
470.00 1.069424
470.10 1.069034
470.20 1.067272
470.30 1.064083
470.40 1.059654
470.50 1.054576
470.60 1.049471
470.70 1.044816
470.80 1.040959
470.90 1.037913
471.00 1.035262
471.10 1.032387
471.20 1.028601
471.30 1.023203
471.40 1.015757
471.50 1.006228
471.60 0.9950232
471.70 0.9831294
471.80 0.9716416
471.90 0.9611889
472.00 0.9520225
472.10 0.9440578
472.20 0.9370354
472.30 0.930788
472.40 0.925246
472.50 0.9203848
472.60 0.9163106
472.70 0.9133944
472.80 0.9120501
472.90 0.912411
473.00 0.9141715
473.10 0.9164735
473.20 0.9182441
473.30 0.9187115
473.40 0.9174259
473.50 0.9142776
473.60 0.9095672
473.70 0.9039137
473.80 0.8981051
473.90 0.8929031
474.00 0.888897
474.10 0.8863209
474.20 0.8850011
474.30 0.884564
474.40 0.8847647
474.50 0.8855169
474.60 0.8866
474.70 0.8877584
474.80 0.8890631
474.90 0.8907881
475.00 0.8932438
475.10 0.8966598
475.20 0.9009506
475.30 0.9058044
475.40 0.9107013
475.50 0.9148371
475.60 0.9173964
475.70 0.9178289
475.80 0.915897
475.90 0.9118344
476.00 0.9062583
476.10 0.8999013
476.20 0.8935476
476.30 0.8879727
476.40 0.8836595
476.50 0.88054
476.60 0.8782359
476.70 0.8762805
476.80 0.8742321
476.90 0.871693
477.00 0.8682203
477.10 0.8635233
477.20 0.857527
477.30 0.8502623
477.40 0.8419623
477.50 0.8330241
477.60 0.8239422
477.70 0.8153809
477.80 0.8081315
477.90 0.8032119
478.00 0.8015597
478.10 0.8034287
478.20 0.8082743
478.30 0.8151157
478.40 0.8228722
478.50 0.8303456
478.60 0.8364267
478.70 0.8403731
478.80 0.8419718
478.90 0.841473
479.00 0.8392081
479.10 0.8355189
479.20 0.8308154
479.30 0.8252128
479.40 0.8184627
479.50 0.810325
479.60 0.8007487
479.70 0.7899152
479.80 0.7781254
479.90 0.7657831
480.00 0.7533473
480.10 0.7412567
480.20 0.7300347
480.30 0.7203557
480.40 0.7129084
480.50 0.7080365
480.60 0.7057627
480.70 0.7059409
480.80 0.7083086
480.90 0.7125711
481.00 0.7183718
481.10 0.7252464
481.20 0.7326983
481.30 0.740335
481.40 0.7478463
481.50 0.7549283
481.60 0.761207
481.70 0.7662891
481.80 0.7700022
481.90 0.7726012
482.00 0.7745673
482.10 0.776423
482.20 0.7786707
482.30 0.7816126
482.40 0.785411
482.50 0.790108
482.60 0.7955421
482.70 0.8012811
482.80 0.8068448
482.90 0.8120175
483.00 0.8168308
483.10 0.821334
483.20 0.8254322
483.30 0.82895
483.40 0.8318283
483.50 0.834214
483.60 0.8363351
483.70 0.8385277
483.80 0.8410335
483.90 0.8438937
484.00 0.8471215
484.10 0.8506932
484.20 0.8544672
484.30 0.858146
484.40 0.8612715
484.50 0.86349
484.60 0.8648166
484.70 0.8653645
484.80 0.8650034
484.90 0.8635902
485.00 0.861149
485.10 0.8577628
485.20 0.8538812
485.30 0.8503705
485.40 0.848172
485.50 0.8481241
485.60 0.8508203
485.70 0.8563587
485.80 0.8642842
485.90 0.8737533
486.00 0.8837877
486.10 0.8935417
486.20 0.9023037
486.30 0.9094207
486.40 0.914482
486.50 0.9175043
486.60 0.9187584
486.70 0.9185945
486.80 0.9175379
486.90 0.9162412
487.00 0.9154078
487.10 0.9158428
487.20 0.9182777
487.30 0.9229969
487.40 0.9296701
487.50 0.9375617
487.60 0.9459026
487.70 0.9541004
487.80 0.9617435
487.90 0.9682825
488.00 0.973026
488.10 0.9756954
488.20 0.9765326
488.30 0.9761644
488.40 0.9754223
488.50 0.9749876
488.60 0.9753558
488.70 0.9768831
488.80 0.979667
488.90 0.9835636
489.00 0.9882804
489.10 0.993294
489.20 0.9979151
489.30 1.001839
489.40 1.005505
489.50 1.009529
489.60 1.014154
489.70 1.019427
489.80 1.025348
489.90 1.031778
490.00 1.038392
490.10 1.044949
490.20 1.051304
490.30 1.05713
490.40 1.062024
490.50 1.065724
490.60 1.068087
490.70 1.068983
490.80 1.068034
490.90 1.064782
491.00 1.059164
491.10 1.051426
491.20 1.0419
491.30 1.031022
491.40 1.019437
491.50 1.007825
491.60 0.9968246
491.70 0.9871302
491.80 0.9793413
491.90 0.9737464
492.00 0.9702673
492.10 0.9684818
492.20 0.9676992
492.30 0.9670552
492.40 0.9654979
492.50 0.9620718
492.60 0.9564498
492.70 0.949116
492.80 0.9410443
492.90 0.9332098
493.00 0.9264029
493.10 0.9212141
493.20 0.9178707
493.30 0.9162048
493.40 0.9157809
493.50 0.9160398
493.60 0.9164165
493.70 0.9164597
493.80 0.9161629
493.90 0.9159611
494.00 0.916354
494.10 0.9176951
494.20 0.9200617
494.30 0.9233173
494.40 0.9272595
494.50 0.9315693
494.60 0.9358311
494.70 0.939704
494.80 0.9429836
494.90 0.9455534
495.00 0.9475368
495.10 0.9493484
495.20 0.9513719
495.30 0.9536696
495.40 0.9559456
495.50 0.9577385
495.60 0.9586662
495.70 0.9586126
495.80 0.9577478
495.90 0.9563089
496.00 0.9544835
496.10 0.9524883
496.20 0.9507683
496.30 0.9499079
496.40 0.9502798
496.50 0.9520485
496.60 0.9552169
496.70 0.9595722
496.80 0.9646738
496.90 0.9699755
497.00 0.9749304
497.10 0.9788745
497.20 0.9810799
497.30 0.981199
497.40 0.97949
497.50 0.9765771
497.60 0.9731291
497.70 0.9697223
497.80 0.966911
497.90 0.965148
498.00 0.9646918
498.10 0.9655157
498.20 0.9672585
498.30 0.9692831
498.40 0.97095
498.50 0.9720658
498.60 0.972847
498.70 0.9736464
498.80 0.9747797
498.90 0.9764622
499.00 0.9787843
499.10 0.9817332
499.20 0.985239
499.30 0.9891516
499.40 0.9930573
499.50 0.9964672
499.60 0.9991391
499.70 1.000952
499.80 1.00177
499.90 1.001442
500.00 1
500.10 0.9975348
500.20 0.9941723
500.30 0.9902335
500.40 0.9861024
500.50 0.9822086
500.60 0.9789355
500.70 0.9765177
500.80 0.9752558
500.90 0.9755574
501.00 0.9777752
501.10 0.9822267
501.20 0.9891521
501.30 0.9984861
501.40 1.009725
501.50 1.022198
501.60 1.035182
501.70 1.047809
501.80 1.059222
501.90 1.068696
502.00 1.075837
502.10 1.080746
502.20 1.083908
502.30 1.085981
502.40 1.087734
502.50 1.08987
502.60 1.09268
502.70 1.096022
502.80 1.099424
502.90 1.102329
503.00 1.104318
503.10 1.105203
503.20 1.105204
503.30 1.104893
503.40 1.104905
503.50 1.105801
503.60 1.108014
503.70 1.111707
503.80 1.116574
503.90 1.12185
504.00 1.126647
504.10 1.130251
504.20 1.132352
504.30 1.132953
504.40 1.132276
504.50 1.130837
504.60 1.12935
504.70 1.128569
504.80 1.129125
504.90 1.131254
505.00 1.13462
505.10 1.1385
505.20 1.141998
505.30 1.1443
505.40 1.144898
505.50 1.143587
505.60 1.140407
505.70 1.1357
505.80 1.130024
505.90 1.124073
506.00 1.11854
506.10 1.113963
506.20 1.110632
506.30 1.108512
506.40 1.107396
506.50 1.106907
506.60 1.106621
506.70 1.106289
506.80 1.10582
506.90 1.10523
507.00 1.104687
507.10 1.1045
507.20 1.104974
507.30 1.106172
507.40 1.107804
507.50 1.10939
507.60 1.110433
507.70 1.110633
507.80 1.109902
507.90 1.108453
508.00 1.106828
508.10 1.105592
508.20 1.105306
508.30 1.106537
508.40 1.109402
508.50 1.113307
508.60 1.117346
508.70 1.120758
508.80 1.123152
508.90 1.124534
509.00 1.125227
509.10 1.125744
509.20 1.126561
509.30 1.127934
509.40 1.129917
509.50 1.132449
509.60 1.13537
509.70 1.138419
509.80 1.141559
509.90 1.145089
510.00 1.149327
510.10 1.154438
510.20 1.160301
510.30 1.166493
510.40 1.172428
510.50 1.177497
510.60 1.181451
510.70 1.184372
510.80 1.186369
510.90 1.187605
511.00 1.188214
511.10 1.188189
511.20 1.18732
511.30 1.185375
511.40 1.182259
511.50 1.177938
511.60 1.172578
511.70 1.166635
511.80 1.160694
511.90 1.155377
512.00 1.151042
512.10 1.147726
512.20 1.145398
512.30 1.143992
512.40 1.143313
512.50 1.143049
512.60 1.142895
512.70 1.142557
512.80 1.141811
512.90 1.140526
513.00 1.138673
513.10 1.136322
513.20 1.133586
513.30 1.130582
513.40 1.127561
513.50 1.124902
513.60 1.122898
513.70 1.121618
513.80 1.120903
513.90 1.120584
514.00 1.120494
514.10 1.120397
514.20 1.120173
514.30 1.119984
514.40 1.120083
514.50 1.120637
514.60 1.121712
514.70 1.123185
514.80 1.124752
514.90 1.126103
515.00 1.126962
515.10 1.127115
515.20 1.126562
515.30 1.125446
515.40 1.124074
515.50 1.122826
515.60 1.121855
515.70 1.121129
515.80 1.120579
515.90 1.120029
516.00 1.119395
516.10 1.118826
516.20 1.118523
516.30 1.118806
516.40 1.120128
516.50 1.122852
516.60 1.127095
516.70 1.132593
516.80 1.138854
516.90 1.145535
517.00 1.152486
517.10 1.159528
517.20 1.166551
517.30 1.173739
517.40 1.181385
517.50 1.189655
517.60 1.198585
517.70 1.207877
517.80 1.216913
517.90 1.225066
518.00 1.231893
518.10 1.23732
518.20 1.241465
518.30 1.244478
518.40 1.246754
518.50 1.249019
518.60 1.25202
518.70 1.256155
518.80 1.261348
518.90 1.26703
519.00 1.272327
519.10 1.276375
519.20 1.278603
519.30 1.27885
519.40 1.277335
519.50 1.274668
519.60 1.271753
519.70 1.269546
519.80 1.268746
519.90 1.269682
520.00 1.272251
520.10 1.275895
520.20 1.279885
520.30 1.283714
520.40 1.28714
520.50 1.29006
520.60 1.292273
520.70 1.293551
520.80 1.293998
520.90 1.29394
521.00 1.29379
521.10 1.293987
521.20 1.294918
521.30 1.296673
521.40 1.299113
521.50 1.302173
521.60 1.30579
521.70 1.30982
521.80 1.314227
521.90 1.319141
522.00 1.32489
522.10 1.331835
522.20 1.340001
522.30 1.34904
522.40 1.358458
522.50 1.367723
522.60 1.376315
522.70 1.383884
522.80 1.390379
522.90 1.396107
523.00 1.40167
523.10 1.407752
523.20 1.414728
523.30 1.422469
523.40 1.430444
523.50 1.437913
523.60 1.444153
523.70 1.448657
523.80 1.451188
523.90 1.451743
524.00 1.450682
524.10 1.44876
524.20 1.446826
524.30 1.445656
524.40 1.445819
524.50 1.447355
524.60 1.449832
524.70 1.452786
524.80 1.455847
524.90 1.458633
525.00 1.460864
525.10 1.462495
525.20 1.463854
525.30 1.465626
525.40 1.468547
525.50 1.473313
525.60 1.480609
525.70 1.490598
525.80 1.502728
525.90 1.516125
526.00 1.5297
526.10 1.542161
526.20 1.552271
526.30 1.559114
526.40 1.562153
526.50 1.561322
526.60 1.557003
526.70 1.55005
526.80 1.541647
526.90 1.532757
527.00 1.523877
527.10 1.515359
527.20 1.507506
527.30 1.500487
527.40 1.494505
527.50 1.489797
527.60 1.486503
527.70 1.4846
527.80 1.48385
527.90 1.483719
528.00 1.483317
528.10 1.481572
528.20 1.477603
528.30 1.471073
528.40 1.462338
528.50 1.452226
528.60 1.441772
528.70 1.432064
528.80 1.423971
528.90 1.418038
529.00 1.414557
529.10 1.413478
529.20 1.414418
529.30 1.416845
529.40 1.420339
529.50 1.4245
529.60 1.428868
529.70 1.433126
529.80 1.437051
529.90 1.440436
530.00 1.443274
530.10 1.445891
530.20 1.448779
530.30 1.452256
530.40 1.456434
530.50 1.461448
530.60 1.467442
530.70 1.474419
530.80 1.482099
530.90 1.489978
531.00 1.497453
531.10 1.503876
531.20 1.50875
531.30 1.512039
531.40 1.514114
531.50 1.515462
531.60 1.516633
531.70 1.518108
531.80 1.519892
531.90 1.521431
532.00 1.521914
532.10 1.52055
532.20 1.516812
532.30 1.510781
532.40 1.503234
532.50 1.495437
532.60 1.48889
532.70 1.484917
532.80 1.484337
532.90 1.487217
533.00 1.492842
533.10 1.50011
533.20 1.508025
533.30 1.51602
533.40 1.523952
533.50 1.531946
533.60 1.540201
533.70 1.548823
533.80 1.557816
533.90 1.567163
534.00 1.576706
534.10 1.586095
534.20 1.594927
534.30 1.60278
534.40 1.609369
534.50 1.614808
534.60 1.619565
534.70 1.62412
534.80 1.628859
534.90 1.63418
535.00 1.640505
535.10 1.648052
535.20 1.656552
535.30 1.665387
535.40 1.673837
535.50 1.681165
535.60 1.686676
535.70 1.690113
535.80 1.691759
535.90 1.69219
536.00 1.692058
536.10 1.692005
536.20 1.692643
536.30 1.694447
536.40 1.697751
536.50 1.702841
536.60 1.710006
536.70 1.7192
536.80 1.729983
536.90 1.741806
537.00 1.754007
537.10 1.765794
537.20 1.776456
537.30 1.785457
537.40 1.792503
537.50 1.79761
537.60 1.800975
537.70 1.802954
537.80 1.804166
537.90 1.805384
538.00 1.807452
538.10 1.81128
538.20 1.817625
538.30 1.826786
538.40 1.838472
538.50 1.851802
538.60 1.865471
538.70 1.878054
538.80 1.888385
538.90 1.895763
539.00 1.900069
539.10 1.901961
539.20 1.902672
539.30 1.903551
539.40 1.905701
539.50 1.909788
539.60 1.915904
539.70 1.923514
539.80 1.931685
539.90 1.939435
540.00 1.945872
540.10 1.950304
540.20 1.952399
540.30 1.952275
540.40 1.950457
540.50 1.9474
540.60 1.943245
540.70 1.938162
540.80 1.932448
540.90 1.926407
541.00 1.920437
541.10 1.915099
541.20 1.911013
541.30 1.908625
541.40 1.908074
541.50 1.909179
541.60 1.911415
541.70 1.914119
541.80 1.916844
541.90 1.919618
542.00 1.922955
542.10 1.927521
542.20 1.933896
542.30 1.942183
542.40 1.951696
542.50 1.961279
542.60 1.969693
542.70 1.975867
542.80 1.979093
542.90 1.979142
543.00 1.976274
543.10 1.971106
543.20 1.964407
543.30 1.956762
543.40 1.948375
543.50 1.939249
543.60 1.929358
543.70 1.918935
543.80 1.908567
543.90 1.898792
544.00 1.889947
544.10 1.882231
544.20 1.875625
544.30 1.869814
544.40 1.864253
544.50 1.858295
544.60 1.851255
544.70 1.842661
544.80 1.832469
544.90 1.820983
545.00 1.808705
545.10 1.796216
545.20 1.784074
545.30 1.772646
545.40 1.761871
545.50 1.751309
545.60 1.740546
545.70 1.729395
545.80 1.717869
545.90 1.706161
546.00 1.69469
546.10 1.683993
546.20 1.674526
546.30 1.666415
546.40 1.659374
546.50 1.652818
546.60 1.645955
546.70 1.638152
546.80 1.629222
546.90 1.619439
547.00 1.60933
547.10 1.599256
547.20 1.589387
547.30 1.579836
547.40 1.570534
547.50 1.561338
547.60 1.552222
547.70 1.543323
547.80 1.534728
547.90 1.526407
548.00 1.518257
548.10 1.5101
548.20 1.50188
548.30 1.493607
548.40 1.485209
548.50 1.476718
548.60 1.468214
548.70 1.459692
548.80 1.451275
548.90 1.4433
549.00 1.436011
549.10 1.4293
549.20 1.422912
549.30 1.416608
549.40 1.410078
549.50 1.402892
549.60 1.39458
549.70 1.384848
549.80 1.373741
549.90 1.361688
550.00 1.186718
550.10 1.180758
550.20 1.175372
550.30 1.168933
550.40 1.160441
550.50 1.14979
550.60 1.13778
550.70 1.125234
550.80 1.112495
550.90 1.099872
551.00 1.087686
551.10 1.076129
551.20 1.065701
551.30 1.057238
551.40 1.051577
551.50 1.049522
551.60 1.051411
551.70 1.056618
551.80 1.064196
551.90 1.073141
552.00 1.082118
552.10 1.08989
552.20 1.095949
552.30 1.100565
552.40 1.104898
552.50 1.110542
552.60 1.118236
552.70 1.127413
552.80 1.136823
552.90 1.145216
553.00 1.151701
553.10 1.15599
553.20 1.158308
553.30 1.159093
553.40 1.159072
553.50 1.159071
553.60 1.159771
553.70 1.161745
553.80 1.165031
553.90 1.16917
554.00 1.173759
554.10 1.178706
554.20 1.184072
554.30 1.189914
554.40 1.196512
554.50 1.203957
554.60 1.211874
554.70 1.219924
554.80 1.228056
554.90 1.236224
555.00 1.243743
555.10 1.250852
555.20 1.26136
555.30 1.28265
555.40 1.323734
555.50 1.391281
555.60 1.487217
555.70 1.6085
555.80 1.746525
555.90 1.888821
556.00 2.022317
556.10 2.135991
556.20 2.222924
556.30 2.282096
556.40 2.319092
556.50 2.343249
556.60 2.363217
556.70 2.384721
556.80 2.409867
556.90 2.438706
557.00 2.470344
557.10 2.50306
557.20 2.535192
557.30 2.565476
557.40 2.592832
557.50 2.616558
557.60 2.636586
557.70 2.653185
557.80 2.666595
557.90 2.676997
558.00 2.685296
558.10 2.693359
558.20 2.702985
558.30 2.715043
558.40 2.729282
558.50 2.744624
558.60 2.75995
558.70 2.77449
558.80 2.788175
558.90 2.801849
559.00 2.81719
559.10 2.834566
559.20 2.850246
559.30 2.856747
559.40 2.844465
559.50 2.805183
559.60 2.73558
559.70 2.638524
559.80 2.523029
559.90 2.402023
560.00 2.289518
560.10 2.197965
560.20 2.134956
560.30 2.100828
560.40 2.088903
560.50 2.089338
560.60 2.093839
560.70 2.097254
560.80 2.097458
560.90 2.094022
561.00 2.087521
561.10 2.079263
561.20 2.070415
561.30 2.062487
561.40 2.057238
561.50 2.055577
561.60 2.057706
561.70 2.063866
561.80 2.07427
561.90 2.088396
562.00 2.104376
562.10 2.119679
562.20 2.132583
562.30 2.142647
562.40 2.150183
562.50 2.155924
562.60 2.16069
562.70 2.164672
562.80 2.167306
562.90 2.168045
563.00 2.166596
563.10 2.162724
563.20 2.156176
563.30 2.146785
563.40 2.135473
563.50 2.124484
563.60 2.116065
563.70 2.111363
563.80 2.110247
563.90 2.111707
564.00 2.114242
564.10 2.11619
564.20 2.116267
564.30 2.113925
564.40 2.10928
564.50 2.10284
564.60 2.095204
564.70 2.087378
564.80 2.080754
564.90 2.076351
565.00 2.07459
565.10 2.075479
565.20 2.079122
565.30 2.085607
565.40 2.094796
565.50 2.106525
565.60 2.120177
565.70 2.134441
565.80 2.147817
565.90 2.159183
566.00 2.167962
566.10 2.174146
566.20 2.177937
566.30 2.179593
566.40 2.179787
566.50 2.17958
566.60 2.180143
566.70 2.182775
566.80 2.188396
566.90 2.197034
567.00 2.208241
567.10 2.221046
567.20 2.233925
567.30 2.245413
567.40 2.25453
567.50 2.260714
567.60 2.263857
567.70 2.264769
567.80 2.264958
567.90 2.266019
568.00 2.26887
568.10 2.2733
568.20 2.278592
568.30 2.283936
568.40 2.288143
568.50 2.290535
568.60 2.291832
568.70 2.293469
568.80 2.297022
568.90 2.303867
569.00 2.314638
569.10 2.328862
569.20 2.344586
569.30 2.358801
569.40 2.368736
569.50 2.372757
569.60 2.370591
569.70 2.363215
569.80 2.352636
569.90 2.340944
570.00 2.329583
570.10 2.319316
570.20 2.310111
570.30 2.301283
570.40 2.292106
570.50 2.282221
570.60 2.27191
570.70 2.261892
570.80 2.252676
570.90 2.244072
571.00 2.235477
571.10 2.226692
571.20 2.218034
571.30 2.210083
571.40 2.202847
571.50 2.195402
571.60 2.186691
571.70 2.176025
571.80 2.163301
571.90 2.14865
572.00 2.132189
572.10 2.114595
572.20 2.097064
572.30 2.081131
572.40 2.068205
572.50 2.058557
572.60 2.051206
572.70 2.044594
572.80 2.03692
572.90 2.026556
573.00 2.012421
573.10 1.994106
573.20 1.9721
573.30 1.948098
573.40 1.92436
573.50 1.902787
573.60 1.884417
573.70 1.869134
573.80 1.856021
573.90 1.844187
574.00 1.833545
574.10 1.824621
574.20 1.818256
574.30 1.815558
574.40 1.817363
574.50 1.824007
574.60 1.835102
574.70 1.849059
574.80 1.863866
574.90 1.87811
575.00 1.891073
575.10 1.902836
575.20 1.91406
575.30 1.925188
575.40 1.936175
575.50 1.946974
575.60 1.95773
575.70 1.968454
575.80 1.978872
575.90 1.988839
576.00 1.9983
576.10 2.007151
576.20 2.015369
576.30 2.022883
576.40 2.029744
576.50 2.035847
576.60 2.040801
576.70 2.044549
576.80 2.047937
576.90 2.052353
577.00 2.058871
577.10 2.068072
577.20 2.079922
577.30 2.093183
577.40 2.105949
577.50 2.116546
577.60 2.123676
577.70 2.126497
577.80 2.124866
577.90 2.119846
578.00 2.113195
578.10 2.106569
578.20 2.101122
578.30 2.097236
578.40 2.094895
578.50 2.093499
578.60 2.091905
578.70 2.089523
578.80 2.086016
578.90 2.080759
579.00 2.073356
579.10 2.063736
579.20 2.051929
579.30 2.038347
579.40 2.024335
579.50 2.011397
579.60 1.999894
579.70 1.989129
579.80 1.978039
579.90 1.9657
580.00 1.95167
580.10 1.935828
580.20 1.918717
580.30 1.90148
580.40 1.885101
580.50 1.87046
580.60 1.858568
580.70 1.849912
580.80 1.843508
580.90 1.837577
581.00 1.830951
581.10 1.823353
581.20 1.815213
581.30 1.80772
581.40 1.802375
581.50 1.800209
581.60 1.801735
581.70 1.807272
581.80 1.816678
581.90 1.829033
582.00 1.842625
582.10 1.855387
582.20 1.866035
582.30 1.874422
582.40 1.880835
582.50 1.88561
582.60 1.888864
582.70 1.890268
582.80 1.889665
582.90 1.887225
583.00 1.882911
583.10 1.876431
583.20 1.867666
583.30 1.856477
583.40 1.842466
583.50 1.825922
583.60 1.808183
583.70 1.791159
583.80 1.776573
583.90 1.765588
584.00 1.759091
584.10 1.757352
584.20 1.759271
584.30 1.762886
584.40 1.766403
584.50 1.768504
584.60 1.767975
584.70 1.763696
584.80 1.755323
584.90 1.742846
585.00 1.726086
585.10 1.704909
585.20 1.679684
585.30 1.65113
585.40 1.620085
585.50 1.587927
585.60 1.556391
585.70 1.526912
585.80 1.500191
585.90 1.475755
586.00 1.452433
586.10 1.429016
586.20 1.403956
586.30 1.375726
586.40 1.343735
586.50 1.308794
586.60 1.273357
586.70 1.240958
586.80 1.214813
586.90 1.196836
587.00 1.187491
587.10 1.186032
587.20 1.19082
587.30 1.199842
587.40 1.210966
587.50 1.2221
587.60 1.231665
587.70 1.238416
587.80 1.241145
587.90 1.23883
588.00 1.230721
588.10 1.216756
588.20 1.197853
588.30 1.175854
588.40 1.153339
588.50 1.13286
588.60 1.115874
588.70 1.102605
588.80 1.092844
588.90 1.08637
589.00 1.082731
589.10 1.081118
589.20 1.080506
589.30 1.080105
589.40 1.079345
589.50 1.077767
589.60 1.075534
589.70 1.073286
589.80 1.071446
589.90 1.070215
590.00 1.069998
590.10 1.071255
590.20 1.073881
590.30 1.076883
590.40 1.078651
590.50 1.077617
590.60 1.072134
590.70 1.060826
590.80 1.043609
590.90 1.021987
591.00 0.9985109
591.10 0.9758185
591.20 0.9560352
591.30 0.9404976
591.40 0.9292917
591.50 0.9211519
591.60 0.9142797
591.70 0.9071075
591.80 0.8990485
591.90 0.8908433
592.00 0.8844218
592.10 0.8821107
592.20 0.8857096
592.30 0.8958351
592.40 0.9116715
592.50 0.9315427
592.60 0.9537713
592.70 0.976988
592.80 1.000061
592.90 1.022156
593.00 1.0426
593.10 1.061352
593.20 1.079057
593.30 1.096264
593.40 1.113324
593.50 1.130218
593.60 1.146472
593.70 1.161652
593.80 1.175607
593.90 1.188601
594.00 1.201272
594.10 1.214576
594.20 1.229843
594.30 1.248714
594.40 1.272453
594.50 1.300912
594.60 1.332661
594.70 1.365641
594.80 1.397659
594.90 1.426945
595.00 1.452187
595.10 1.472521
595.20 1.48795
595.30 1.499611
595.40 1.509424
595.50 1.519346
595.60 1.530538
595.70 1.543394
595.80 1.558057
595.90 1.574364
596.00 1.591311
596.10 1.607152
596.20 1.62029
596.30 1.629783
596.40 1.63527
596.50 1.636943
596.60 1.635432
596.70 1.631591
596.80 1.626299
596.90 1.620498
597.00 1.615622
597.10 1.613133
597.20 1.613548
597.30 1.616369
597.40 1.620776
597.50 1.626207
597.60 1.631942
597.70 1.636979
597.80 1.640925
597.90 1.644289
598.00 1.648246
598.10 1.65415
598.20 1.663085
598.30 1.675517
598.40 1.690948
598.50 1.708162
598.60 1.725928
598.70 1.74335
598.80 1.759355
598.90 1.772643
599.00 1.782175
599.10 1.787639
599.20 1.789286
599.30 1.787599
599.40 1.783412
599.50 1.778075
599.60 1.773545
599.70 1.771863
599.80 1.774534
599.90 1.782208
600.00 1.851821
600.10 1.99551
600.20 2.165211
600.30 2.337459
600.40 2.480601
600.50 2.556853
600.60 2.553721
600.70 2.488719
600.80 2.375972
600.90 2.229179
601.00 2.066637
601.10 1.904366
601.20 1.760597
601.30 1.65082
601.40 1.576969
601.50 1.532941
601.60 1.521047
601.70 1.544157
601.80 1.606609
601.90 1.707749
602.00 1.82699
602.10 1.931697
602.20 2.003229
602.30 2.026459
602.40 1.998092
602.50 1.932632
602.60 1.843176
602.70 1.749236
602.80 1.677789
602.90 1.655701
603.00 1.696606
603.10 1.790756
603.20 1.908797
603.30 2.016621
603.40 2.090095
603.50 2.135241
603.60 2.1704
603.70 2.205905
603.80 2.248558
603.90 2.297497
604.00 2.346273
604.10 2.3877
604.20 2.414789
604.30 2.419107
604.40 2.388152
604.50 2.315134
604.60 2.20499
604.70 2.082007
604.80 1.990773
604.90 1.957093
605.00 1.98218
605.10 2.06449
605.20 2.191794
605.30 2.347908
605.40 2.506163
605.50 2.621914
605.60 2.650973
605.70 2.579252
605.80 2.433234
605.90 2.256943
606.00 2.104728
606.10 2.017703
606.20 1.995973
606.30 2.015642
606.40 2.061102
606.50 2.128707
606.60 2.211764
606.70 2.300165
606.80 2.391254
606.90 2.486961
607.00 2.585923
607.10 2.67613
607.20 2.73835
607.30 2.754987
607.40 2.721179
607.50 2.649202
607.60 2.564348
607.70 2.504519
607.80 2.491815
607.90 2.523548
608.00 2.591268
608.10 2.674451
608.20 2.75056
608.30 2.813568
608.40 2.868442
608.50 2.905694
608.60 2.902123
608.70 2.852516
608.80 2.755423
608.90 2.609069
609.00 2.43062
609.10 2.247149
609.20 2.083054
609.30 1.955262
609.40 1.871065
609.50 1.82972
609.60 1.825443
609.70 1.848338
609.80 1.879786
609.90 1.909294
610.00 1.942643
610.10 1.97261
610.20 1.983301
610.30 1.974718
610.40 1.952233
610.50 1.91802
610.60 1.884642
610.70 1.877514
610.80 1.915101
610.90 1.997229
611.00 2.101887
611.10 2.195157
611.20 2.258629
611.30 2.29876
611.40 2.330494
611.50 2.373547
611.60 2.445611
611.70 2.542372
611.80 2.646173
611.90 2.741993
612.00 2.808862
612.10 2.816062
612.20 2.745728
612.30 2.613848
612.40 2.45675
612.50 2.306995
612.60 2.18915
612.70 2.108856
612.80 2.061183
612.90 2.047195
613.00 2.074514
613.10 2.145971
613.20 2.247434
613.30 2.351904
613.40 2.444313
613.50 2.530023
613.60 2.611206
613.70 2.672977
613.80 2.701477
613.90 2.696535
614.00 2.661944
614.10 2.608873
614.20 2.550446
614.30 2.481471
614.40 2.395802
614.50 2.302781
614.60 2.215166
614.70 2.148058
614.80 2.112166
614.90 2.10304
615.00 2.106898
615.10 2.121129
615.20 2.146285
615.30 2.173212
615.40 2.192119
615.50 2.190194
615.60 2.15484
615.70 2.091645
615.80 2.015322
615.90 1.942003
616.00 1.897593
616.10 1.89767
616.20 1.941683
616.30 2.027556
616.40 2.149409
616.50 2.278828
616.60 2.380593
616.70 2.440935
616.80 2.452089
616.90 2.408593
617.00 2.318953
617.10 2.21201
617.20 2.115742
617.30 2.041386
617.40 1.991164
617.50 1.963815
617.60 1.955781
617.70 1.955768
617.80 1.954254
617.90 1.953636
618.00 1.963254
618.10 1.980141
618.20 1.995646
618.30 2.019108
618.40 2.063067
618.50 2.118442
618.60 2.164851
618.70 2.19556
618.80 2.216122
618.90 2.229849
619.00 2.230696
619.10 2.207626
619.20 2.156774
619.30 2.087631
619.40 2.01677
619.50 1.957836
619.60 1.921459
619.70 1.909819
619.80 1.917086
619.90 1.939354
620.00 1.971217
620.10 1.997329
620.20 2.006414
620.30 1.997498
620.40 1.979188
620.50 1.969042
620.60 1.977825
620.70 2.010526
620.80 2.059071
620.90 2.108309
621.00 2.151771
621.10 2.179505
621.20 2.175738
621.30 2.129575
621.40 2.047781
621.50 1.947681
621.60 1.83889
621.70 1.72969
621.80 1.637402
621.90 1.584156
622.00 1.582222
622.10 1.619186
622.20 1.686181
622.30 1.786208
622.40 1.908874
622.50 2.03
622.60 2.12299
622.70 2.176056
622.80 2.190806
622.90 2.17924
623.00 2.156782
623.10 2.133744
623.20 2.108535
623.30 2.077576
623.40 2.048626
623.50 2.037466
623.60 2.054133
623.70 2.092623
623.80 2.142412
623.90 2.196006
624.00 2.251794
624.10 2.302687
624.20 2.333546
624.30 2.328019
624.40 2.279773
624.50 2.202536
624.60 2.12229
624.70 2.059089
624.80 2.023251
624.90 2.021672
625.00 2.050153
625.10 2.102261
625.20 2.167628
625.30 2.229481
625.40 2.275234
625.50 2.302122
625.60 2.321144
625.70 2.346956
625.80 2.386186
625.90 2.437768
626.00 2.494952
626.10 2.542064
626.20 2.556996
626.30 2.523168
626.40 2.441739
626.50 2.326991
626.60 2.203646
626.70 2.102219
626.80 2.04587
626.90 2.041166
627.00 2.076904
627.10 2.139582
627.20 2.218935
627.30 2.307739
627.40 2.396759
627.50 2.470891
627.60 2.532354
627.70 2.595725
627.80 2.662017
627.90 2.722268
628.00 2.769493
628.10 2.803494
628.20 2.829859
628.30 2.847922
628.40 2.852604
628.50 2.840609
628.60 2.808859
628.70 2.754177
628.80 2.680937
628.90 2.611393
629.00 2.560794
629.10 2.531555
629.20 2.527232
629.30 2.549828
629.40 2.595291
629.50 2.661273
629.60 2.720397
629.70 2.74233
629.80 2.731605
629.90 2.703792
630.00 2.681062
630.10 2.68343
630.20 2.71674
630.30 2.777906
630.40 2.863962
630.50 2.962295
630.60 3.05242
630.70 3.116666
630.80 3.153378
630.90 3.163939
631.00 3.169349
631.10 3.199649
631.20 3.258072
631.30 3.335063
631.40 3.411076
631.50 3.472215
631.60 3.518229
631.70 3.544436
631.80 3.535789
631.90 3.488526
632.00 3.417473
632.10 3.34467
632.20 3.284344
632.30 3.243185
632.40 3.233935
632.50 3.271752
632.60 3.354019
632.70 3.464433
632.80 3.588856
632.90 3.710067
633.00 3.81377
633.10 3.895861
633.20 3.958744
633.30 4.003748
633.40 4.030526
633.50 4.039265
633.60 4.028533
633.70 4.007199
633.80 3.987592
633.90 3.97264
634.00 3.969092
634.10 3.981013
634.20 4.001782
634.30 4.022311
634.40 4.032118
634.50 4.028843
634.60 4.022517
634.70 4.027348
634.80 4.046185
634.90 4.073293
635.00 4.111757
635.10 4.161561
635.20 4.2104
635.30 4.250925
635.40 4.283224
635.50 4.305792
635.60 4.308579
635.70 4.285553
635.80 4.248209
635.90 4.197104
636.00 4.120693
636.10 4.019202
636.20 3.918824
636.30 3.850269
636.40 3.819672
636.50 3.826515
636.60 3.867576
636.70 3.927038
636.80 3.984475
636.90 4.028035
637.00 4.064292
637.10 4.09845
637.20 4.11642
637.30 4.115343
637.40 4.110181
637.50 4.112839
637.60 4.121545
637.70 4.126026
637.80 4.118555
637.90 4.095077
638.00 4.068158
638.10 4.056702
638.20 4.06783
638.30 4.1008
638.40 4.146992
638.50 4.193837
638.60 4.23402
638.70 4.26591
638.80 4.288085
638.90 4.295795
639.00 4.279078
639.10 4.243605
639.20 4.212568
639.30 4.199904
639.40 4.200489
639.50 4.208521
639.60 4.230566
639.70 4.272912
639.80 4.337775
639.90 4.426152
640.00 4.530419
640.10 4.634114
640.20 4.721524
640.30 4.775715
640.40 4.787397
640.50 4.754658
640.60 4.679002
640.70 4.565716
640.80 4.424963
640.90 4.274691
641.00 4.13302
641.10 4.019005
641.20 3.950585
641.30 3.936733
641.40 3.980457
641.50 4.078131
641.60 4.217434
641.70 4.387265
641.80 4.571465
641.90 4.738634
642.00 4.852525
642.10 4.891168
642.20 4.855176
642.30 4.758191
642.40 4.621966
642.50 4.474275
642.60 4.342495
642.70 4.251387
642.80 4.218615
642.90 4.244865
643.00 4.310198
643.10 4.380729
643.20 4.427474
643.30 4.442352
643.40 4.43329
643.50 4.415673
643.60 4.399777
643.70 4.385993
643.80 4.369081
643.90 4.346551
644.00 4.323804
644.10 4.302324
644.20 4.276663
644.30 4.250624
644.40 4.236029
644.50 4.244243
644.60 4.28525
644.70 4.361163
644.80 4.463794
644.90 4.574836
645.00 4.672617
645.10 4.739076
645.20 4.771354
645.30 4.776
645.40 4.754755
645.50 4.707169
645.60 4.638573
645.70 4.558735
645.80 4.484352
645.90 4.433291
646.00 4.414312
646.10 4.428277
646.20 4.470854
646.30 4.53968
646.40 4.637362
646.50 4.763894
646.60 4.897729
646.70 5.000218
646.80 5.044416
646.90 5.029208
647.00 4.967405
647.10 4.876336
647.20 4.775063
647.30 4.683298
647.40 4.619591
647.50 4.597381
647.60 4.620326
647.70 4.674526
647.80 4.732697
647.90 4.773174
648.00 4.78846
648.10 4.784627
648.20 4.771973
648.30 4.759546
648.40 4.761547
648.50 4.787741
648.60 4.837475
648.70 4.906426
648.80 4.986152
648.90 5.064287
649.00 5.128732
649.10 5.178641
649.20 5.219468
649.30 5.252123
649.40 5.280136
649.50 5.309248
649.60 5.342013
649.70 5.372474
649.80 5.393116
649.90 5.40437
650.00 5.407273
650.10 5.398671
650.20 5.383166
650.30 5.371869
650.40 5.376372
650.50 5.404145
650.60 5.457772
650.70 5.533358
650.80 5.62037
650.90 5.711059
651.00 5.799801
651.10 5.88499
651.20 5.961198
651.30 6.022248
651.40 6.067898
651.50 6.101533
651.60 6.127242
651.70 6.147403
651.80 6.16349
651.90 6.175692
652.00 6.187787
652.10 6.210953
652.20 6.253629
652.30 6.313765
652.40 6.387362
652.50 6.474067
652.60 6.582956
652.70 6.720912
652.80 6.88244
652.90 7.056473
653.00 7.224251
653.10 7.364673
653.20 7.46365
653.30 7.527393
653.40 7.571813
653.50 7.606832
653.60 7.644045
653.70 7.69355
653.80 7.761449
653.90 7.850349
654.00 7.956667
654.10 8.068778
654.20 8.175125
654.30 8.268291
654.40 8.343199
654.50 8.392933
654.60 8.414572
654.70 8.406494
654.80 8.371816
654.90 8.312843
655.00 8.224483
655.10 8.116681
655.20 8.005552
655.30 7.902475
655.40 7.820103
655.50 7.766081
655.60 7.750959
655.70 7.800477
655.80 7.934028
655.90 8.155937
656.00 8.458165
656.10 8.804253
656.20 9.127939
656.30 9.373967
656.40 9.510309
656.50 9.516598
656.60 9.399797
656.70 9.18714
656.80 8.905943
656.90 8.594023
657.00 8.293351
657.10 8.024393
657.20 7.788853
657.30 7.584766
657.40 7.409718
657.50 7.261355
657.60 7.141995
657.70 7.04941
657.80 6.98742
657.90 6.961979
658.00 6.960154
658.10 6.965368
658.20 6.965848
658.30 6.955904
658.40 6.932695
658.50 6.89583
658.60 6.860102
658.70 6.844702
658.80 6.851341
658.90 6.868871
659.00 6.898563
659.10 6.956524
659.20 7.049895
659.30 7.170732
659.40 7.311314
659.50 7.467164
659.60 7.630073
659.70 7.781184
659.80 7.893723
659.90 7.945387
660.00 7.925561
660.10 7.841335
660.20 7.716331
660.30 7.584168
660.40 7.474023
660.50 7.398113
660.60 7.363955
660.70 7.387377
660.80 7.474342
660.90 7.60516
661.00 7.749114
661.10 7.880395
661.20 7.986712
661.30 8.061671
661.40 8.101037
661.50 8.103069
661.60 8.078863
661.70 8.055789
661.80 8.055313
661.90 8.082763
662.00 8.125172
662.10 8.149764
662.20 8.127237
662.30 8.047317
662.40 7.913522
662.50 7.745551
662.60 7.573618
662.70 7.430996
662.80 7.349396
662.90 7.354703
663.00 7.45537
663.10 7.629772
663.20 7.835993
663.30 8.034388
663.40 8.19825
663.50 8.315163
663.60 8.377793
663.70 8.385455
663.80 8.354619
663.90 8.307256
664.00 8.266555
664.10 8.260847
664.20 8.310829
664.30 8.415216
664.40 8.551897
664.50 8.692447
664.60 8.811875
664.70 8.892443
664.80 8.91693
664.90 8.87209
665.00 8.76512
665.10 8.620373
665.20 8.467068
665.30 8.331983
665.40 8.235493
665.50 8.186611
665.60 8.182184
665.70 8.20884
665.80 8.245799
665.90 8.277881
666.00 8.299769
666.10 8.311331
666.20 8.320406
666.30 8.337993
666.40 8.371604
666.50 8.428013
666.60 8.511004
666.70 8.619901
666.80 8.7439
666.90 8.858145
667.00 8.931814
667.10 8.951436
667.20 8.930563
667.30 8.894413
667.40 8.866616
667.50 8.85883
667.60 8.87364
667.70 8.908475
667.80 8.958072
667.90 9.012175
668.00 9.05164
668.10 9.057089
668.20 9.021703
668.30 8.958251
668.40 8.893015
668.50 8.840413
668.60 8.794139
668.70 8.746238
668.80 8.69565
668.90 8.645373
669.00 8.600021
669.10 8.566468
669.20 8.548988
669.30 8.54823
669.40 8.566642
669.50 8.602702
669.60 8.647397
669.70 8.687586
669.80 8.713834
669.90 8.732462
670.00 8.755664
670.10 8.781446
670.20 8.807844
670.30 8.839389
670.40 8.878734
670.50 8.927604
670.60 8.981733
670.70 9.037363
670.80 9.094595
670.90 9.159448
671.00 9.236245
671.10 9.318853
671.20 9.398351
671.30 9.464983
671.40 9.507749
671.50 9.521187
671.60 9.501019
671.70 9.450103
671.80 9.383365
671.90 9.30971
672.00 9.238798
672.10 9.182545
672.20 9.146993
672.30 9.12885
672.40 9.119532
672.50 9.112368
672.60 9.096117
672.70 9.054994
672.80 8.985296
672.90 8.899996
673.00 8.815552
673.10 8.747901
673.20 8.710804
673.30 8.718908
673.40 8.775925
673.50 8.869204
673.60 8.981802
673.70 9.101079
673.80 9.219857
673.90 9.333501
674.00 9.439355
674.10 9.538127
674.20 9.634045
674.30 9.722126
674.40 9.788227
674.50 9.823899
674.60 9.833761
674.70 9.83108
674.80 9.829943
674.90 9.835956
675.00 9.842489
675.10 9.843949
675.20 9.844692
675.30 9.845353
675.40 9.836689
675.50 9.806415
675.60 9.748787
675.70 9.680042
675.80 9.631416
675.90 9.617887
676.00 9.629025
676.10 9.648432
676.20 9.674762
676.30 9.723312
676.40 9.809104
676.50 9.925877
676.60 10.04543
676.70 10.14332
676.80 10.21064
676.90 10.24381
677.00 10.23653
677.10 10.1837
677.20 10.09798
677.30 10.01384
677.40 9.971061
677.50 9.994058
677.60 10.07955
677.70 10.19797
677.80 10.30661
677.90 10.37161
678.00 10.37636
678.10 10.31326
678.20 10.18379
678.30 10.00402
678.40 9.806127
678.50 9.627193
678.60 9.484858
678.70 9.385429
678.80 9.337904
678.90 9.343441
679.00 9.391379
679.10 9.465128
679.20 9.551295
679.30 9.634462
679.40 9.689329
679.50 9.695208
679.60 9.648847
679.70 9.57163
679.80 9.492237
679.90 9.428576
680.00 9.398627
680.10 9.410558
680.20 9.452278
680.30 9.507187
680.40 9.557436
680.50 9.58935
680.60 9.597644
680.70 9.580736
680.80 9.546863
680.90 9.509012
681.00 9.477413
681.10 9.455637
681.20 9.446478
681.30 9.449574
681.40 9.457384
681.50 9.467344
681.60 9.482223
681.70 9.501969
681.80 9.528838
681.90 9.564691
682.00 9.60249
682.10 9.635782
682.20 9.664813
682.30 9.692171
682.40 9.714407
682.50 9.722496
682.60 9.709377
682.70 9.676196
682.80 9.633333
682.90 9.591559
683.00 9.549441
683.10 9.50015
683.20 9.437246
683.30 9.355289
683.40 9.259202
683.50 9.154087
683.60 9.046575
683.70 8.95104
683.80 8.881658
683.90 8.844966
684.00 8.838594
684.10 8.858117
684.20 8.890966
684.30 8.913772
684.40 8.914227
684.50 8.890202
684.60 8.843198
684.70 8.78072
684.80 8.708933
684.90 8.64103
685.00 8.586228
685.10 8.542032
685.20 8.50759
685.30 8.490184
685.40 8.500201
685.50 8.534629
685.60 8.577872
685.70 8.616585
685.80 8.645
685.90 8.673268
686.00 8.710693
686.10 8.756619
686.20 8.811698
686.30 8.87099
686.40 8.928042
686.50 8.980708
686.60 9.023956
686.70 9.043363
686.80 9.020264
686.90 8.941201
687.00 8.813479
687.10 8.664998
687.20 8.526026
687.30 8.417839
687.40 8.360792
687.50 8.36435
687.60 8.411862
687.70 8.473115
687.80 8.517065
687.90 8.525474
688.00 8.491661
688.10 8.416899
688.20 8.319123
688.30 8.234127
688.40 8.190197
688.50 8.190635
688.60 8.226032
688.70 8.278653
688.80 8.321195
688.90 8.332144
689.00 8.313131
689.10 8.275338
689.20 8.222105
689.30 8.152515
689.40 8.07617
689.50 8.008072
689.60 7.955222
689.70 7.916073
689.80 7.881914
689.90 7.84829
690.00 7.818587
690.10 7.801504
690.20 7.809821
690.30 7.852192
690.40 7.925093
690.50 8.021364
690.60 8.138508
690.70 8.270192
690.80 8.402412
690.90 8.52199
691.00 8.615049
691.10 8.671374
691.20 8.695028
691.30 8.688824
691.40 8.640576
691.50 8.536333
691.60 8.385104
691.70 8.217946
691.80 8.069985
691.90 7.975382
692.00 7.9677
692.10 8.062802
692.20 8.240691
692.30 8.457948
692.40 8.672688
692.50 8.851917
692.60 8.97424
692.70 9.039491
692.80 9.066615
692.90 9.07876
693.00 9.093841
693.10 9.125645
693.20 9.185582
693.30 9.277545
693.40 9.383201
693.50 9.46986
693.60 9.523627
693.70 9.549063
693.80 9.552961
693.90 9.55432
694.00 9.578945
694.10 9.645399
694.20 9.772503
694.30 9.979232
694.40 10.26459
694.50 10.60468
694.60 10.95908
694.70 11.27282
694.80 11.49154
694.90 11.58298
695.00 11.53763
695.10 11.36781
695.20 11.11313
695.30 10.81986
695.40 10.53388
695.50 10.30406
695.60 10.16397
695.70 10.1228
695.80 10.17184
695.90 10.28244
696.00 10.41885
696.10 10.55632
696.20 10.68461
696.30 10.80141
696.40 10.90566
696.50 10.99643
696.60 11.06595
696.70 11.10508
696.80 11.10624
696.90 11.06435
697.00 10.99285
697.10 10.90968
697.20 10.82797
697.30 10.7761
697.40 10.77833
697.50 10.83379
697.60 10.9298
697.70 11.04611
697.80 11.15413
697.90 11.22684
698.00 11.24725
698.10 11.21722
698.20 11.15799
698.30 11.09147
698.40 11.0327
698.50 11.00271
698.60 11.02013
698.70 11.07424
698.80 11.13685
698.90 11.18917
699.00 11.21388
699.10 11.19397
699.20 11.1271
699.30 11.0268
699.40 10.91743
699.50 10.82003
699.60 10.74569
699.70 10.70709
699.80 10.70806
699.90 10.73672
700.00 10.78123
700.10 10.83664
700.20 10.91163
700.30 11.0189
700.40 11.16203
700.50 11.34003
700.60 11.54511
700.70 11.76061
700.80 11.96444
700.90 12.13378
701.00 12.25484
701.10 12.32478
701.20 12.3458
701.30 12.33062
701.40 12.30471
701.50 12.29349
701.60 12.3104
701.70 12.35741
701.80 12.43578
701.90 12.54435
702.00 12.67463
702.10 12.81089
702.20 12.93503
702.30 13.04213
702.40 13.14177
702.50 13.24561
702.60 13.36804
702.70 13.51969
702.80 13.69713
702.90 13.88975
703.00 14.0812
703.10 14.25855
703.20 14.41758
703.30 14.55856
703.40 14.68436
703.50 14.8055
703.60 14.94507
703.70 15.11942
703.80 15.32559
703.90 15.54945
704.00 15.7734
704.10 15.97178
704.20 16.11687
704.30 16.19708
704.40 16.22029
704.50 16.20066
704.60 16.15264
704.70 16.09416
704.80 16.04645
704.90 16.01718
705.00 15.98733
705.10 15.92507
705.20 15.79994
705.30 15.59031
705.40 15.29587
705.50 14.94332
705.60 14.57375
705.70 14.22042
705.80 13.90661
705.90 13.65196
706.00 13.46326
706.10 13.33568
706.20 13.25787
706.30 13.21683
706.40 13.20577
706.50 13.22163
706.60 13.26792
706.70 13.35793
706.80 13.48842
706.90 13.63289
707.00 13.76327
707.10 13.86574
707.20 13.93514
707.30 13.97374
707.40 14.00344
707.50 14.04134
707.60 14.08968
707.70 14.1445
707.80 14.19608
707.90 14.23352
708.00 14.24553
708.10 14.21788
708.20 14.14038
708.30 14.01353
708.40 13.84489
708.50 13.64792
708.60 13.45158
708.70 13.28502
708.80 13.15535
708.90 13.06611
709.00 13.0193
709.10 13.01576
709.20 13.05501
709.30 13.12615
709.40 13.20935
709.50 13.27908
709.60 13.31825
709.70 13.33069
709.80 13.3338
709.90 13.3496
710.00 13.39108
710.10 13.45676
710.20 13.5436
710.30 13.64839
710.40 13.77147
710.50 13.90995
710.60 14.05336
710.70 14.18794
710.80 14.29409
710.90 14.35843
711.00 14.3818
711.10 14.36817
711.20 14.32238
711.30 14.25512
711.40 14.18247
711.50 14.12863
711.60 14.12049
711.70 14.17303
711.80 14.28006
711.90 14.42195
712.00 14.5741
712.10 14.71039
712.20 14.80481
712.30 14.83147
712.40 14.78639
712.50 14.68459
712.60 14.5415
712.70 14.37936
712.80 14.2302
712.90 14.12095
713.00 14.05944
713.10 14.03887
713.20 14.04961
713.30 14.07664
713.40 14.09844
713.50 14.09683
713.60 14.0713
713.70 14.03657
713.80 13.99756
713.90 13.95593
714.00 13.92722
714.10 13.92567
714.20 13.94942
714.30 13.99006
714.40 14.04446
714.50 14.11254
714.60 14.19137
714.70 14.27682
714.80 14.36546
714.90 14.45544
715.00 14.54094
715.10 14.61553
715.20 14.68987
715.30 14.77752
715.40 14.87201
715.50 14.95716
715.60 15.01717
715.70 15.03698
715.80 15.01022
715.90 14.94214
716.00 14.84444
716.10 14.73905
716.20 14.6611
716.30 14.64288
716.40 14.70348
716.50 14.84083
716.60 15.01873
716.70 15.18902
716.80 15.32301
716.90 15.41493
717.00 15.4713
717.10 15.50466
717.20 15.52752
717.30 15.54764
717.40 15.57226
717.50 15.60212
717.60 15.62443
717.70 15.62727
717.80 15.61389
717.90 15.60388
718.00 15.62285
718.10 15.6898
718.20 15.805
718.30 15.94674
718.40 16.09282
718.50 16.22847
718.60 16.34216
718.70 16.42972
718.80 16.49582
718.90 16.55495
719.00 16.62523
719.10 16.71632
719.20 16.82152
719.30 16.91499
719.40 16.96613
719.50 16.96647
719.60 16.92943
719.70 16.87223
719.80 16.8083
719.90 16.74971
720.00 16.71376
720.10 16.71418
720.20 16.74845
720.30 16.79979
720.40 16.84939
720.50 16.88185
720.60 16.88931
720.70 16.88097
720.80 16.87485
720.90 16.87823
721.00 16.88986
721.10 16.91319
721.20 16.95507
721.30 17.019
721.40 17.0978
721.50 17.17401
721.60 17.23856
721.70 17.29099
721.80 17.33091
721.90 17.36124
722.00 17.38954
722.10 17.4266
722.20 17.48505
722.30 17.56701
722.40 17.66722
722.50 17.78141
722.60 17.90128
722.70 18.01966
722.80 18.1297
722.90 18.2327
723.00 18.33013
723.10 18.42223
723.20 18.52107
723.30 18.63178
723.40 18.75395
723.50 18.89938
723.60 19.0666
723.70 19.23892
723.80 19.39511
723.90 19.51831
724.00 19.61107
724.10 19.67532
724.20 19.70941
724.30 19.71375
724.40 19.69847
724.50 19.67481
724.60 19.6402
724.70 19.60464
724.80 19.58714
724.90 19.58737
725.00 19.60668
725.10 19.66534
725.20 19.78401
725.30 19.96384
725.40 20.18203
725.50 20.40646
725.60 20.60914
725.70 20.77256
725.80 20.88965
725.90 20.9659
726.00 21.01095
726.10 21.03324
726.20 21.0426
726.30 21.04972
726.40 21.06563
726.50 21.08536
726.60 21.09516
726.70 21.09004
726.80 21.07074
726.90 21.05432
727.00 21.08655
727.10 21.20202
727.20 21.39817
727.30 21.64622
727.40 21.89452
727.50 22.08326
727.60 22.16356
727.70 22.11522
727.80 21.96315
727.90 21.77433
728.00 21.63062
728.10 21.59718
728.20 21.71323
728.30 21.96245
728.40 22.25902
728.50 22.5166
728.60 22.67593
728.70 22.70031
728.80 22.59855
728.90 22.41924
729.00 22.24123
729.10 22.14786
729.20 22.18093
729.30 22.33399
729.40 22.57855
729.50 22.86426
729.60 23.11713
729.70 23.28726
729.80 23.36649
729.90 23.36506
730.00 23.30574
730.10 23.22386
730.20 23.16663
730.30 23.17567
730.40 23.26518
730.50 23.43001
730.60 23.65643
730.70 23.92
730.80 24.18756
730.90 24.44824
731.00 24.71701
731.10 25.00259
731.20 25.29392
731.30 25.56855
731.40 25.80506
731.50 25.99628
731.60 26.14224
731.70 26.24186
731.80 26.30297
731.90 26.33072
732.00 26.33522
732.10 26.3397
732.20 26.36643
732.30 26.42418
732.40 26.50849
732.50 26.59336
732.60 26.62348
732.70 26.54836
732.80 26.35575
732.90 26.06355
733.00 25.71726
733.10 25.38813
733.20 25.14331
733.30 25.0426
733.40 25.14038
733.50 25.46723
733.60 26.00721
733.70 26.68484
733.80 27.39357
733.90 28.03409
734.00 28.53372
734.10 28.8315
734.20 28.88277
734.30 28.69295
734.40 28.30795
734.50 27.80082
734.60 27.26706
734.70 26.79548
734.80 26.43533
734.90 26.19896
735.00 26.07899
735.10 26.05604
735.20 26.08808
735.30 26.11874
735.40 26.12873
735.50 26.1356
735.60 26.15508
735.70 26.18609
735.80 26.22719
735.90 26.28293
736.00 26.36179
736.10 26.48227
736.20 26.66825
736.30 26.92961
736.40 27.25573
736.50 27.60922
736.60 27.93603
736.70 28.20316
736.80 28.38291
736.90 28.44723
737.00 28.38646
737.10 28.20923
737.20 27.93864
737.30 27.61157
737.40 27.27155
737.50 26.96074
737.60 26.71075
737.70 26.53652
737.80 26.43151
737.90 26.38279
738.00 26.38271
738.10 26.41039
738.20 26.43353
738.30 26.42875
738.40 26.40161
738.50 26.38399
738.60 26.42224
738.70 26.5582
738.80 26.79132
738.90 27.06433
739.00 27.29204
739.10 27.39816
739.20 27.33384
739.30 27.0872
739.40 26.69331
739.50 26.23454
739.60 25.81186
739.70 25.50092
739.80 25.33835
739.90 25.326
740.00 25.43572
740.10 25.61021
740.20 25.77388
740.30 25.87671
740.40 25.90919
740.50 25.88664
740.60 25.84168
740.70 25.80762
740.80 25.80762
740.90 25.84515
741.00 25.90599
741.10 25.98617
741.20 26.08651
741.30 26.18825
741.40 26.2438
741.50 26.20712
741.60 26.07614
741.70 25.88035
741.80 25.65202
741.90 25.42137
742.00 25.21618
742.10 25.06284
742.20 24.9736
742.30 24.94175
742.40 24.96256
742.50 25.02837
742.60 25.11684
742.70 25.21187
742.80 25.31543
742.90 25.42486
743.00 25.52346
743.10 25.58644
743.20 25.59827
743.30 25.55464
743.40 25.4576
743.50 25.32391
743.60 25.19457
743.70 25.11609
743.80 25.09913
743.90 25.12914
744.00 25.18138
744.10 25.21176
744.20 25.16804
744.30 25.01577
744.40 24.75943
744.50 24.44137
744.60 24.11434
744.70 23.83417
744.80 23.66215
744.90 23.63671
745.00 23.74588
745.10 23.93515
745.20 24.13997
745.30 24.29819
745.40 24.36592
745.50 24.33559
745.60 24.22642
745.70 24.07621
745.80 23.93055
745.90 23.83508
746.00 23.8337
746.10 23.94909
746.20 24.16663
746.30 24.43804
746.40 24.69919
746.50 24.90362
746.60 25.03433
746.70 25.09477
746.80 25.09693
746.90 25.05166
747.00 24.97731
747.10 24.89769
747.20 24.82969
747.30 24.77868
747.40 24.73937
747.50 24.69703
747.60 24.64385
747.70 24.60257
747.80 24.61542
747.90 24.70709
748.00 24.88092
748.10 25.12271
748.20 25.39539
748.30 25.65489
748.40 25.86462
748.50 26.00498
748.60 26.06724
748.70 26.04812
748.80 25.95178
748.90 25.8012
749.00 25.62861
749.10 25.4442
749.20 25.24941
749.30 25.05703
749.40 24.881
749.50 24.73536
749.60 24.6452
749.70 24.63476
749.80 24.70524
749.90 24.838
750.00 25.01086
750.10 25.19342
750.20 25.35079
750.30 25.45464
750.40 25.49556
750.50 25.49513
750.60 25.48213
750.70 25.47493
750.80 25.4871
750.90 25.52683
751.00 25.5812
751.10 25.63143
751.20 25.68513
751.30 25.74506
751.40 25.79204
751.50 25.80701
751.60 25.7826
751.70 25.73596
751.80 25.69787
751.90 25.69353
752.00 25.72791
752.10 25.78356
752.20 25.84217
752.30 25.89185
752.40 25.92935
752.50 25.95237
752.60 25.95311
752.70 25.93261
752.80 25.90839
752.90 25.8993
753.00 25.91113
753.10 25.93983
753.20 25.97366
753.30 25.9993
753.40 26.01694
753.50 26.04541
753.60 26.10333
753.70 26.1915
753.80 26.31044
753.90 26.4647
754.00 26.64308
754.10 26.82559
754.20 26.9837
754.30 27.08652
754.40 27.11676
754.50 27.06
754.60 26.90956
754.70 26.67895
754.80 26.39953
754.90 26.11688
755.00 25.88065
755.10 25.73729
755.20 25.70443
755.30 25.76204
755.40 25.87066
755.50 25.99213
755.60 26.10079
755.70 26.18727
755.80 26.26022
755.90 26.3332
756.00 26.40947
756.10 26.47578
756.20 26.51021
756.30 26.49275
756.40 26.4074
756.50 26.25961
756.60 26.09412
756.70 25.95808
756.80 25.87647
756.90 25.86197
757.00 25.92301
757.10 26.04008
757.20 26.16357
757.30 26.24786
757.40 26.26277
757.50 26.20444
757.60 26.10629
757.70 26.02318
757.80 26.005
757.90 26.07412
758.00 26.21465
758.10 26.3876
758.20 26.54143
758.30 26.61404
758.40 26.54025
758.50 26.28343
758.60 25.8447
758.70 25.25633
758.80 24.57576
758.90 23.87126
759.00 23.20365
759.10 22.62154
759.20 22.1659
759.30 21.84351
759.40 21.61366
759.50 21.43931
759.60 21.31447
759.70 21.21862
759.80 21.12814
759.90 21.05403
760.00 20.99586
760.10 20.9226
760.20 20.83498
760.30 20.76473
760.40 20.74606
760.50 20.79487
760.60 20.88825
760.70 20.9936
760.80 21.09502
760.90 21.18021
761.00 21.23465
761.10 21.27109
761.20 21.30443
761.30 21.31797
761.40 21.31132
761.50 21.3128
761.60 21.33031
761.70 21.34788
761.80 21.32764
761.90 21.22355
762.00 21.03228
762.10 20.77747
762.20 20.47686
762.30 20.13959
762.40 19.76521
762.50 19.34277
762.60 18.86395
762.70 18.33848
762.80 17.79416
762.90 17.26976
763.00 16.79829
763.10 16.39948
763.20 16.0754
763.30 15.81893
763.40 15.60824
763.50 15.41405
763.60 15.22316
763.70 15.0187
763.80 14.76773
763.90 14.44334
764.00 14.04342
764.10 13.59568
764.20 13.14229
764.30 12.71456
764.40 12.3179
764.50 11.93812
764.60 11.56911
764.70 11.2121
764.80 10.84947
764.90 10.45001
765.00 9.988497
765.10 9.459467
765.20 8.883092
765.30 8.299784
765.40 7.750759
765.50 7.249464
765.60 6.789093
765.70 6.367564
765.80 5.985644
765.90 5.626889
766.00 5.274292
766.10 4.919601
766.20 4.562729
766.30 4.223734
766.40 3.930484
766.50 3.713486
766.60 3.599608
766.70 3.599668
766.80 3.711903
766.90 3.935028
767.00 4.261595
767.10 4.660624
767.20 5.094109
767.30 5.540977
767.40 5.984446
767.50 6.407024
767.60 6.798166
767.70 7.150558
767.80 7.467386
767.90 7.759376
768.00 8.046633
768.10 8.342588
768.20 8.640425
768.30 8.915511
768.40 9.127229
768.50 9.244356
768.60 9.25626
768.70 9.180412
768.80 9.04682
768.90 8.872443
769.00 8.662398
769.10 8.416202
769.20 8.123941
769.30 7.77805
769.40 7.377085
769.50 6.926087
769.60 6.44031
769.70 5.94868
769.80 5.500179
769.90 5.145157
770.00 4.918757
770.10 4.829692
770.20 4.871449
770.30 5.043414
770.40 5.344596
770.50 5.760164
770.60 6.277595
770.70 6.888805
770.80 7.564317
770.90 8.258899
771.00 8.931209
771.10 9.555022
771.20 10.11471
771.30 10.58927
771.40 10.96474
771.50 11.24936
771.60 11.46648
771.70 11.64226
771.80 11.81527
771.90 12.0341
772.00 12.32689
772.10 12.6964
772.20 13.13878
772.30 13.66002
772.40 14.26008
772.50 14.90776
772.60 15.54921
772.70 16.13968
772.80 16.6557
772.90 17.07527
773.00 17.38521
773.10 17.60014
773.20 17.74814
773.30 17.87145
773.40 18.01488
773.50 18.20296
773.60 18.44185
773.70 18.72049
773.80 19.01632
773.90 19.30063
774.00 19.5487
774.10 19.74581
774.20 19.87573
774.30 19.938
774.40 19.96115
774.50 19.98811
774.60 20.05824
774.70 20.19415
774.80 20.38978
774.90 20.62284
775.00 20.8617
775.10 21.04985
775.20 21.14748
775.30 21.16271
775.40 21.12544
775.50 21.06788
775.60 21.0154
775.70 20.98616
775.80 20.98854
775.90 21.0105
776.00 21.0405
776.10 21.06774
776.20 21.08327
776.30 21.08699
776.40 21.0941
776.50 21.14861
776.60 21.29371
776.70 21.54895
776.80 21.91667
776.90 22.37584
777.00 22.88918
777.10 23.40749
777.20 23.85844
777.30 24.1702
777.40 24.28617
777.50 24.18729
777.60 23.92508
777.70 23.58711
777.80 23.25887
777.90 23.0188
778.00 22.90357
778.10 22.89242
778.20 22.93499
778.30 22.98382
778.40 23.00627
778.50 22.98345
778.60 22.92545
778.70 22.87745
778.80 22.90449
778.90 23.06963
779.00 23.3831
779.10 23.79342
779.20 24.21384
779.30 24.53195
779.40 24.62892
779.50 24.40095
779.60 23.77516
779.70 22.74759
779.80 21.41875
779.90 19.98587
780.00 18.70236
780.10 17.80758
780.20 17.47026
780.30 17.76365
780.40 18.64761
780.50 19.96671
780.60 21.49632
780.70 22.98237
780.80 24.20576
780.90 25.04583
781.00 25.50356
781.10 25.67116
781.20 25.67776
781.30 25.65339
781.40 25.68789
781.50 25.83511
781.60 26.11364
781.70 26.47509
781.80 26.82775
781.90 27.10687
782.00 27.27793
782.10 27.31818
782.20 27.22279
782.30 27.00424
782.40 26.68911
782.50 26.31405
782.60 25.92101
782.70 25.55002
782.80 25.24801
782.90 25.04654
783.00 24.95344
783.10 24.97473
783.20 25.12541
783.30 25.39731
783.40 25.73853
783.50 26.1154
783.60 26.51952
783.70 26.93885
783.80 27.3473
783.90 27.71996
784.00 28.05257
784.10 28.3519
784.20 28.62939
784.30 28.90052
784.40 29.16551
784.50 29.39635
784.60 29.54602
784.70 29.59444
784.80 29.57794
784.90 29.52626
785.00 29.42731
785.10 29.2712
785.20 29.08404
785.30 28.9218
785.40 28.82195
785.50 28.79326
785.60 28.83775
785.70 28.9474
785.80 29.11124
785.90 29.32075
786.00 29.57191
786.10 29.83658
786.20 30.04432
786.30 30.13047
786.40 30.09259
786.50 29.96794
786.60 29.8006
786.70 29.60736
786.80 29.39396
786.90 29.18445
787.00 28.97779
787.10 28.75784
787.20 28.5276
787.30 28.30463
787.40 28.10993
787.50 27.97681
787.60 27.95497
787.70 28.08801
787.80 28.3744
787.90 28.77596
788.00 29.22624
788.10 29.65159
788.20 30.00096
788.30 30.23682
788.40 30.37465
788.50 30.46584
788.60 30.53156
788.70 30.5901
788.80 30.6786
788.90 30.82239
789.00 31.01033
789.10 31.19575
789.20 31.33235
789.30 31.37993
789.40 31.31369
789.50 31.1313
789.60 30.84576
789.70 30.48878
789.80 30.09373
789.90 29.7016
790.00 29.38637
790.10 29.21695
790.20 29.20873
790.30 29.32855
790.40 29.52127
790.50 29.73315
790.60 29.92034
790.70 30.052
790.80 30.11917
790.90 30.14881
791.00 30.18326
791.10 30.27063
791.20 30.43424
791.30 30.65629
791.40 30.89139
791.50 31.07193
791.60 31.15604
791.70 31.13797
791.80 31.03935
791.90 30.90866
792.00 30.78268
792.10 30.66747
792.20 30.55139
792.30 30.41669
792.40 30.25406
792.50 30.06592
792.60 29.88521
792.70 29.7685
792.80 29.77344
792.90 29.9588
793.00 30.35657
793.10 30.94792
793.20 31.6567
793.30 32.35938
793.40 32.92709
793.50 33.26749
793.60 33.33413
793.70 33.12564
793.80 32.68268
793.90 32.07544
794.00 31.37678
794.10 30.65018
794.20 29.93506
794.30 29.21511
794.40 28.42474
794.50 27.51472
794.60 26.50918
794.70 25.50624
794.80 24.66427
794.90 24.16445
795.00 24.15363
795.10 24.695
795.20 25.74451
795.30 27.16089
795.40 28.74283
795.50 30.25943
795.60 31.49789
795.70 32.34096
795.80 32.79615
795.90 32.96561
796.00 32.96421
796.10 32.87913
796.20 32.79464
796.30 32.7801
796.40 32.85977
796.50 33.01633
796.60 33.21974
796.70 33.4467
796.80 33.67405
796.90 33.8807
797.00 34.05558
797.10 34.19114
797.20 34.26697
797.30 34.26048
797.40 34.19672
797.50 34.13496
797.60 34.09251
797.70 34.0558
797.80 34.02557
797.90 33.99997
798.00 33.95917
798.10 33.86967
798.20 33.70296
798.30 33.45927
798.40 33.16155
798.50 32.84405
798.60 32.55948
798.70 32.36901
798.80 32.30709
798.90 32.37604
799.00 32.56499
799.10 32.83705
799.20 33.12838
799.30 33.38783
799.40 33.58994
799.50 33.73127
799.60 33.83073
799.70 33.90927
799.80 33.98789
799.90 34.08914
800.00 34.236
800.10 34.434
800.20 34.66828
800.30 34.9072
800.40 35.11394
800.50 35.28028
800.60 35.41272
800.70 35.52146
800.80 35.63388
800.90 35.78466
801.00 35.9991
801.10 36.28918
801.20 36.64825
801.30 37.04749
801.40 37.43753
801.50 37.76542
801.60 37.98369
801.70 38.0799
801.80 38.08667
801.90 38.04566
802.00 38.02981
802.10 38.11309
802.20 38.32945
802.30 38.69787
802.40 39.20664
802.50 39.8091
802.60 40.44923
802.70 41.06137
802.80 41.57313
802.90 41.93908
803.00 42.15402
803.10 42.2317
803.20 42.18743
803.30 42.04308
803.40 41.80892
803.50 41.50992
803.60 41.19903
803.70 40.91782
803.80 40.69732
803.90 40.56138
804.00 40.53788
804.10 40.65728
804.20 40.92194
804.30 41.28904
804.40 41.68857
804.50 42.06203
804.60 42.38851
804.70 42.69016
804.80 43.02919
804.90 43.47117
805.00 44.05196
805.10 44.7556
805.20 45.53112
805.30 46.33034
805.40 47.08859
805.50 47.73434
805.60 48.2294
805.70 48.55326
805.80 48.71681
805.90 48.77395
806.00 48.78147
806.10 48.7759
806.20 48.75831
806.30 48.71794
806.40 48.65397
806.50 48.57967
806.60 48.52568
806.70 48.51712
806.80 48.56313
806.90 48.66561
807.00 48.82787
807.10 49.08096
807.20 49.46166
807.30 49.96929
807.40 50.56881
807.50 51.20907
807.60 51.83518
807.70 52.3995
807.80 52.87375
807.90 53.26976
808.00 53.6256
808.10 53.97218
808.20 54.32527
808.30 54.67966
808.40 55.00812
808.50 55.25169
808.60 55.34673
808.70 55.27516
808.80 55.07152
808.90 54.80387
809.00 54.55317
809.10 54.38059
809.20 54.3226
809.30 54.37806
809.40 54.48872
809.50 54.58369
809.60 54.61183
809.70 54.54995
809.80 54.42319
809.90 54.29641
810.00 54.23785
810.10 54.28016
810.20 54.42445
810.30 54.66572
810.40 54.9999
810.50 55.41102
810.60 55.85516
810.70 56.27805
810.80 56.65012
810.90 56.97326
811.00 57.25971
811.10 57.50461
811.20 57.67956
811.30 57.77379
811.40 57.81998
811.50 57.89341
811.60 58.0794
811.70 58.42076
811.80 58.89878
811.90 59.46317
812.00 60.04919
812.10 60.57946
812.20 61.00855
812.30 61.32325
812.40 61.54735
812.50 61.76121
812.60 62.05363
812.70 62.47347
812.80 62.99996
812.90 63.55862
813.00 64.07012
813.10 64.47326
813.20 64.74663
813.30 64.93068
813.40 65.11077
813.50 65.37096
813.60 65.7364
813.70 66.16153
813.80 66.54667
813.90 66.74555
814.00 66.63103
814.10 66.17265
814.20 65.44195
814.30 64.56804
814.40 63.67695
814.50 62.87212
814.60 62.256
814.70 61.90101
814.80 61.81383
814.90 61.95156
815.00 62.25761
815.10 62.67774
815.20 63.16578
815.30 63.70225
815.40 64.27522
815.50 64.83563
815.60 65.3121
815.70 65.64893
815.80 65.85256
815.90 65.9957
816.00 66.16199
816.10 66.41262
816.20 66.78619
816.30 67.28139
816.40 67.85321
816.50 68.45352
816.60 69.04677
816.70 69.60495
816.80 70.10343
816.90 70.53708
817.00 70.92932
817.10 71.31394
817.20 71.69592
817.30 72.033
817.40 72.23537
817.50 72.18584
817.60 71.77681
817.70 70.93609
817.80 69.61478
817.90 67.76387
818.00 65.39426
818.10 62.63997
818.20 59.76019
818.30 57.107
818.40 55.04352
818.50 53.83392
818.60 53.5752
818.70 54.17309
818.80 55.34957
818.90 56.68478
819.00 57.70633
819.10 58.01578
819.20 57.40521
819.30 55.94785
819.40 53.95977
819.50 51.88831
819.60 50.20473
819.70 49.27506
819.80 49.28334
819.90 50.24398
820.00 52.03167
820.10 54.38827
820.20 56.97004
820.30 59.43102
820.40 61.50324
820.50 63.04939
820.60 64.07432
820.70 64.67358
820.80 64.98192
820.90 65.14442
821.00 65.26848
821.10 65.41201
821.20 65.61146
821.30 65.86717
821.40 66.13547
821.50 66.37117
821.60 66.56498
821.70 66.75537
821.80 66.99716
821.90 67.3369
822.00 67.78319
822.10 68.29317
822.20 68.79434
822.30 69.22435
822.40 69.58764
822.50 69.92547
822.60 70.26721
822.70 70.62608
822.80 71.00479
822.90 71.40317
823.00 71.80121
823.10 72.14931
823.20 72.39266
823.30 72.50286
823.40 72.50108
823.50 72.45415
823.60 72.4504
823.70 72.56994
823.80 72.84376
823.90 73.2639
824.00 73.79743
824.10 74.40108
824.20 75.02511
824.30 75.61251
824.40 76.1317
824.50 76.58892
824.60 77.00422
824.70 77.34862
824.80 77.54319
824.90 77.50357
825.00 77.18095
825.10 76.57381
825.20 75.72138
825.30 74.70576
825.40 73.66029
825.50 72.74976
825.60 72.14372
825.70 71.96663
825.80 72.22409
825.90 72.81543
826.00 73.58725
826.10 74.39101
826.20 75.11751
826.30 75.69508
826.40 76.06734
826.50 76.19799
826.60 76.1117
826.70 75.87896
826.80 75.56212
826.90 75.19456
827.00 74.78428
827.10 74.34988
827.20 73.95763
827.30 73.70332
827.40 73.66827
827.50 73.88927
827.60 74.33741
827.70 74.92517
827.80 75.53754
827.90 76.04733
828.00 76.32931
828.10 76.31707
828.20 76.01133
828.30 75.46619
828.40 74.79438
828.50 74.10661
828.60 73.46594
828.70 72.86444
828.80 72.24924
828.90 71.58274
829.00 70.86564
829.10 70.13691
829.20 69.46595
829.30 68.93357
829.40 68.59917
829.50 68.46511
829.60 68.49601
829.70 68.6323
829.80 68.75671
829.90 68.73694
830.00 68.50521
830.10 68.08634
830.20 67.57104
830.30 67.05874
830.40 66.62011
830.50 66.30108
830.60 66.13827
830.70 66.1507
830.80 66.32564
830.90 66.62345
831.00 66.987
831.10 67.35932
831.20 67.70519
831.30 68.03055
831.40 68.3689
831.50 68.75578
831.60 69.21462
831.70 69.75414
831.80 70.37662
831.90 71.06847
832.00 71.77628
832.10 72.42764
832.20 72.94733
832.30 73.26066
832.40 73.31352
832.50 73.09887
832.60 72.68167
832.70 72.18331
832.80 71.73698
832.90 71.45526
833.00 71.40061
833.10 71.56279
833.20 71.87948
833.30 72.25586
833.40 72.58702
833.50 72.79066
833.60 72.85855
833.70 72.85184
833.80 72.85597
833.90 72.94745
834.00 73.1558
834.10 73.4701
834.20 73.88494
834.30 74.37062
834.40 74.8676
834.50 75.32203
834.60 75.68085
834.70 75.9042
834.80 75.97856
834.90 75.91362
835.00 75.69599
835.10 75.32242
835.20 74.84718
835.30 74.34685
835.40 73.90147
835.50 73.57643
835.60 73.38156
835.70 73.29868
835.80 73.30997
835.90 73.39944
836.00 73.55389
836.10 73.75585
836.20 73.98299
836.30 74.22204
836.40 74.50639
836.50 74.87628
836.60 75.32964
836.70 75.83614
836.80 76.34628
836.90 76.78571
837.00 77.04356
837.10 77.01498
837.20 76.6597
837.30 76.01506
837.40 75.18912
837.50 74.33938
837.60 73.66626
837.70 73.36632
837.80 73.52375
837.90 74.07195
838.00 74.84328
838.10 75.6391
838.20 76.25963
838.30 76.51105
838.40 76.2769
838.50 75.55679
838.60 74.46023
838.70 73.18175
838.80 71.94689
838.90 70.96829
839.00 70.36143
839.10 70.11459
839.20 70.19584
839.30 70.59881
839.40 71.30837
839.50 72.26315
839.60 73.38756
839.70 74.63888
839.80 75.97134
839.90 77.31625
840.00 78.53873
840.10 79.46164
840.20 79.97275
840.30 80.05401
840.40 79.80874
840.50 79.42175
840.60 79.03978
840.70 78.75064
840.80 78.58379
840.90 78.54478
841.00 78.64939
841.10 78.89362
841.20 79.25858
841.30 79.68479
841.40 80.10262
841.50 80.46622
841.60 80.70356
841.70 80.72518
841.80 80.45309
841.90 79.87203
842.00 79.06476
842.10 78.18814
842.20 77.42482
842.30 76.91285
842.40 76.70615
842.50 76.7813
842.60 77.06419
842.70 77.49432
842.80 77.98658
842.90 78.40003
843.00 78.58081
843.10 78.34788
843.20 77.54151
843.30 76.11158
843.40 74.15201
843.50 71.86705
843.60 69.53519
843.70 67.44576
843.80 65.80599
843.90 64.69885
844.00 64.0751
844.10 63.74619
844.20 63.489
844.30 63.14053
844.40 62.62167
844.50 61.98843
844.60 61.38068
844.70 60.90896
844.80 60.57912
844.90 60.31826
845.00 60.04528
845.10 59.69036
845.20 59.20566
845.30 58.57766
845.40 57.83864
845.50 57.07965
845.60 56.41843
845.70 55.95142
845.80 55.73075
845.90 55.73668
846.00 55.90418
846.10 56.15696
846.20 56.42901
846.30 56.66903
846.40 56.8601
846.50 57.01073
846.60 57.10955
846.70 57.16067
846.80 57.16861
846.90 57.1252
847.00 57.03388
847.10 56.91009
847.20 56.76631
847.30 56.62336
847.40 56.50094
847.50 56.40115
847.60 56.34247
847.70 56.3401
847.80 56.33403
847.90 56.23034
848.00 56.00645
848.10 55.69095
848.20 55.3436
848.30 55.05509
848.40 54.90369
848.50 54.93314
848.60 55.17041
848.70 55.63797
848.80 56.33616
848.90 57.2229
849.00 58.21028
849.10 59.19036
849.20 60.07601
849.30 60.80837
849.40 61.31804
849.50 61.53448
849.60 61.43588
849.70 61.06077
849.80 60.51129
849.90 59.96656
850.00 59.60626
850.10 59.51124
850.20 59.66118
850.30 59.98613
850.40 60.40187
850.50 60.81707
850.60 61.12981
850.70 61.26463
850.80 61.22032
850.90 61.06126
851.00 60.86919
851.10 60.69378
851.20 60.54226
851.30 60.35303
851.40 60.03123
851.50 59.51216
851.60 58.74527
851.70 57.67045
851.80 56.25561
851.90 54.55724
852.00 52.75423
852.10 51.13515
852.20 49.99621
852.30 49.5454
852.40 49.8671
852.50 50.92554
852.60 52.57655
852.70 54.58612
852.80 56.66112
852.90 58.52096
853.00 59.98233
853.10 61.01287
853.20 61.68576
853.30 62.09808
853.40 62.32835
853.50 62.40362
853.60 62.36258
853.70 62.30386
853.80 62.32884
853.90 62.48743
854.00 62.7817
854.10 63.19129
854.20 63.69492
854.30 64.26127
854.40 64.85761
854.50 65.45728
854.60 66.05449
854.70 66.66801
854.80 67.32139
854.90 68.01984
855.00 68.7198
855.10 69.33643
855.20 69.78866
855.30 70.04268
855.40 70.1113
855.50 70.02624
855.60 69.81251
855.70 69.49828
855.80 69.12736
855.90 68.74631
856.00 68.37772
856.10 68.03638
856.20 67.74996
856.30 67.56107
856.40 67.51783
856.50 67.63809
856.60 67.90044
856.70 68.25248
856.80 68.61142
856.90 68.88677
857.00 69.02911
857.10 69.04008
857.20 68.93868
857.30 68.75142
857.40 68.53588
857.50 68.37208
857.60 68.33879
857.70 68.48067
857.80 68.7597
857.90 69.09822
858.00 69.44366
858.10 69.75777
858.20 70.01767
858.30 70.23308
858.40 70.4412
858.50 70.66542
858.60 70.90118
858.70 71.12416
858.80 71.29438
858.90 71.37353
859.00 71.32764
859.10 71.15639
859.20 70.93472
859.30 70.76355
859.40 70.71806
859.50 70.84145
859.60 71.12369
859.70 71.51934
859.80 71.95802
859.90 72.36671
860.00 72.68978
860.10 72.90523
860.20 73.01656
860.30 73.03296
860.40 72.97311
860.50 72.82689
860.60 72.54493
860.70 72.06763
860.80 71.31216
860.90 70.21103
861.00 68.78611
861.10 67.09461
861.20 65.18918
861.30 63.15398
861.40 61.11692
861.50 59.21457
861.60 57.56551
861.70 56.24645
861.80 55.26967
861.90 54.60737
862.00 54.18577
862.10 53.89946
862.20 53.67384
862.30 53.45333
862.40 53.17137
862.50 52.77952
862.60 52.27847
862.70 51.71625
862.80 51.16334
862.90 50.67723
863.00 50.29579
863.10 50.06914
863.20 50.05248
863.30 50.25868
863.40 50.65379
863.50 51.18381
863.60 51.78075
863.70 52.37215
863.80 52.89722
863.90 53.33248
864.00 53.69889
864.10 54.01665
864.20 54.28241
864.30 54.50587
864.40 54.72173
864.50 54.95289
864.60 55.20153
864.70 55.48244
864.80 55.84376
864.90 56.34957
865.00 57.03973
865.10 57.89748
865.20 58.85152
865.30 59.81418
865.40 60.71418
865.50 61.50183
865.60 62.15981
865.70 62.7195
865.80 63.21465
865.90 63.63817
866.00 63.94876
866.10 64.10827
866.20 64.11876
866.30 64.00458
866.40 63.77721
866.50 63.44487
866.60 63.0069
866.70 62.4702
866.80 61.85827
866.90 61.20814
867.00 60.58311
867.10 60.04252
867.20 59.64272
867.30 59.47543
867.40 59.65759
867.50 60.23709
867.60 61.13271
867.70 62.15129
867.80 63.06648
867.90 63.70623
868.00 64.01215
868.10 63.99837
868.20 63.7254
868.30 63.31078
868.40 62.88343
868.50 62.5274
868.60 62.26577
868.70 62.0403
868.80 61.71127
868.90 61.12083
869.00 60.13319
869.10 58.68324
869.20 56.80432
869.30 54.61738
869.40 52.30876
869.50 50.12468
869.60 48.31224
869.70 47.0319
869.80 46.34198
869.90 46.22638
870.00 46.59878
870.10 47.31531
870.20 48.208
870.30 49.1084
870.40 49.87453
870.50 50.40676
870.60 50.6568
870.70 50.6256
870.80 50.34123
870.90 49.83078
871.00 49.12035
871.10 48.28262
871.20 47.43392
871.30 46.68618
871.40 46.12691
871.50 45.80198
871.60 45.70415
871.70 45.7948
871.80 46.03478
871.90 46.38483
872.00 46.8082
872.10 47.29058
872.20 47.85369
872.30 48.53952
872.40 49.39695
872.50 50.44605
872.60 51.64598
872.70 52.88458
872.80 54.00361
872.90 54.86258
873.00 55.37118
873.10 55.48272
873.20 55.19539
873.30 54.58274
873.40 53.78922
873.50 52.99861
873.60 52.39508
873.70 52.10767
873.80 52.18521
873.90 52.62607
874.00 53.39188
874.10 54.42411
874.20 55.63923
874.30 56.89015
874.40 57.98558
874.50 58.76186
874.60 59.13778
874.70 59.11723
874.80 58.79893
874.90 58.33992
875.00 57.89639
875.10 57.61147
875.20 57.58654
875.30 57.84194
875.40 58.35494
875.50 59.08951
875.60 59.99066
875.70 61.01982
875.80 62.17456
875.90 63.40588
876.00 64.57048
876.10 65.49294
876.20 66.0249
876.30 66.07695
876.40 65.60554
876.50 64.68088
876.60 63.55876
876.70 62.60197
876.80 62.1388
876.90 62.3782
877.00 63.41384
877.10 65.21678
877.20 67.6176
877.30 70.3323
877.40 72.9632
877.50 75.11252
877.60 76.47557
877.70 76.86518
877.80 76.29625
877.90 74.95722
878.00 73.1157
878.10 71.08526
878.20 69.21762
878.30 67.82523
878.40 67.06759
878.50 66.91421
878.60 67.19458
878.70 67.71575
878.80 68.40019
878.90 69.20568
879.00 70.03897
879.10 70.84111
879.20 71.63028
879.30 72.44923
879.40 73.30647
879.50 74.15697
879.60 74.8398
879.70 75.12193
879.80 74.81122
879.90 73.81115
880.00 72.16193
880.10 70.04917
880.20 67.73963
880.30 65.52216
880.40 63.68006
880.50 62.43616
880.60 61.93169
880.70 62.23609
880.80 63.3235
880.90 65.07823
881.00 67.38245
881.10 70.13957
881.20 73.23741
881.30 76.53299
881.40 79.82945
881.50 82.87327
881.60 85.39589
881.70 87.18332
881.80 88.12214
881.90 88.18618
882.00 87.41634
882.10 85.91426
882.20 83.86349
882.30 81.56316
882.40 79.32786
882.50 77.42591
882.60 76.10455
882.70 75.51441
882.80 75.64361
882.90 76.36291
883.00 77.48198
883.10 78.79221
883.20 80.118
883.30 81.34899
883.40 82.44408
883.50 83.44006
883.60 84.44885
883.70 85.56904
883.80 86.82932
883.90 88.13834
884.00 89.24475
884.10 89.82759
884.20 89.62546
884.30 88.47005
884.40 86.34324
884.50 83.42365
884.60 80.09243
884.70 76.91381
884.80 74.49908
884.90 73.34616
885.00 73.68421
885.10 75.39223
885.20 78.05313
885.30 81.05372
885.40 83.72109
885.50 85.50051
885.60 86.05921
885.70 85.32969
885.80 83.5048
885.90 80.98461
886.00 78.283
886.10 75.89329
886.20 74.17966
886.30 73.29315
886.40 73.17798
886.50 73.63605
886.60 74.37494
886.70 75.02119
886.80 75.16749
886.90 74.51302
887.00 72.98214
887.10 70.73879
887.20 68.13734
887.30 65.6778
887.40 63.89615
887.50 63.18784
887.60 63.7199
887.70 65.3936
887.80 67.85505
887.90 70.59219
888.00 73.07461
888.10 74.89096
888.20 75.79077
888.30 75.80187
888.40 75.29498
888.50 74.78576
888.60 74.68126
888.70 75.17085
888.80 76.21009
888.90 77.54965
889.00 78.81258
889.10 79.60051
889.20 79.58839
889.30 78.60774
889.40 76.71712
889.50 74.24163
889.60 71.76713
889.70 69.87236
889.80 68.88372
889.90 68.95422
890.00 70.15307
890.10 72.38126
890.20 75.31158
890.30 78.48503
890.40 81.39509
890.50 83.57367
890.60 84.71316
890.70 84.71294
890.80 83.69407
890.90 81.99007
891.00 80.05226
891.10 78.337
891.20 77.22795
891.30 76.94128
891.40 77.51202
891.50 78.84784
891.60 80.75234
891.70 82.97081
891.80 85.21222
891.90 87.16862
892.00 88.56392
892.10 89.17745
892.20 88.90032
892.30 87.77202
892.40 85.96846
892.50 83.7887
892.60 81.62121
892.70 79.88098
892.80 78.94796
892.90 79.08658
893.00 80.36053
893.10 82.56984
893.20 85.29714
893.30 88.01639
893.40 90.19059
893.50 91.40957
893.60 91.42482
893.70 90.16519
893.80 87.7762
893.90 84.54421
894.00 80.82036
894.10 77.0425
894.20 73.65915
894.30 71.01412
894.40 69.33467
894.50 68.72132
894.60 69.13212
894.70 70.3797
894.80 72.14719
894.90 74.04823
895.00 75.74611
895.10 77.06927
895.20 78.04742
895.30 78.91634
895.40 80.02137
895.50 81.61258
895.60 83.71629
895.70 86.18216
895.80 88.71576
895.90 90.88106
896.00 92.26187
896.10 92.59734
896.20 91.85463
896.30 90.24481
896.40 88.13926
896.50 85.95075
896.60 84.06152
896.70 82.75908
896.80 82.17392
896.90 82.31556
897.00 83.11385
897.10 84.39255
897.20 85.93196
897.30 87.58782
897.40 89.26228
897.50 90.85847
897.60 92.25288
897.70 93.31742
897.80 93.98675
897.90 94.29029
898.00 94.35417
898.10 94.38073
898.20 94.63979
898.30 95.37376
898.40 96.68661
898.50 98.50381
898.60 100.545
898.70 102.3512
898.80 103.4618
898.90 103.6279
899.00 102.8599
899.10 101.3591
899.20 99.43205
899.30 97.37999
899.40 95.45719
899.50 93.86213
899.60 92.66203
899.70 91.79042
899.80 91.21078
899.90 91.03901
900.00 89.87039
900.10 89.8109
900.20 92.00328
900.30 94.25613
900.40 99.47173
900.50 104.6873
900.60 103.5603
900.70 99.84255
900.80 96.66437
900.90 94.29552
901.00 91.91223
901.10 89.36285
901.20 86.81347
901.30 89.39616
901.40 93.5118
901.50 96.52427
901.60 98.2417
901.70 100.0046
901.80 102.0248
901.90 104.0451
902.00 102.7332
902.10 100.7387
902.20 98.32934
902.30 95.5369
902.40 92.90393
902.50 90.87089
902.60 88.83786
902.70 85.10105
902.80 81.17494
902.90 80.76132
903.00 82.78857
903.10 85.19669
903.20 88.63457
903.30 92.07245
903.40 99.01279
903.50 106.0991
903.60 109.3696
903.70 110.5855
903.80 111.3372
903.90 111.188
904.00 110.9537
904.10 107.9655
904.20 104.9774
904.30 103.0841
904.40 101.6166
904.50 100.8452
904.60 101.1178
904.70 101.3361
904.80 101.0058
904.90 100.6754
905.00 98.49105
905.10 95.78374
905.20 93.45619
905.30 91.55691
905.40 90.11364
905.50 91.06445
905.60 92.01527
905.70 94.44763
905.80 97.14144
905.90 97.73747
906.00 96.47322
906.10 94.83704
906.20 91.8822
906.30 88.92737
906.40 89.50718
906.50 90.43656
906.60 91.83698
906.70 93.55142
906.80 95.29818
906.90 97.12407
907.00 98.94995
907.10 95.47573
907.20 91.89334
907.30 93.05623
907.40 96.55634
907.50 100.1058
907.60 103.7471
907.70 107.3838
907.80 110.9124
907.90 114.4411
908.00 113.783
908.10 111.5763
908.20 109.578
908.30 107.8673
908.40 106.1298
908.50 104.1755
908.60 102.2212
908.70 100.1352
908.80 98.01616
908.90 97.64616
909.00 99.09655
909.10 100.5492
909.20 102.0122
909.30 103.4752
909.40 104.8258
909.50 106.1596
909.60 105.9063
909.70 104.3545
909.80 103.0461
909.90 102.5082
910.00 101.9703
910.10 101.8885
910.20 101.841
910.30 101.7248
910.40 101.5665
910.50 101.0209
910.60 99.61334
910.70 98.20575
910.80 101.3639
910.90 104.522
911.00 107.4033
911.10 110.1602
911.20 111.8244
911.30 111.706
911.40 111.3094
911.50 107.2167
911.60 103.1241
911.70 105.4115
911.80 109.7138
911.90 112.6043
912.00 113.7694
912.10 115.1555
912.20 118.0202
912.30 120.8849
912.40 121.4535
912.50 121.518
912.60 121.9335
912.70 122.6862
912.80 122.6948
912.90 119.7269
913.00 116.759
913.10 116.1547
913.20 115.8425
913.30 116.4652
913.40 117.765
913.50 118.6386
913.60 118.3601
913.70 118.0816
913.80 115.1208
913.90 112.0483
914.00 109.936
914.10 108.3408
914.20 106.6628
914.30 104.824
914.40 103.1132
914.50 105.5409
914.60 107.9686
914.70 108.7032
914.80 108.7794
914.90 109.5294
915.00 111.2489
915.10 112.8066
915.20 112.9086
915.30 113.0106
915.40 115.8558
915.50 119.4302
915.60 123.7164
915.70 128.7737
915.80 132.9312
915.90 132.6959
916.00 132.4605
916.10 127.1649
916.20 121.0456
916.30 115.6039
916.40 110.7166
916.50 107.9913
916.60 112.1124
916.70 116.2334
916.80 121.4907
916.90 126.8336
917.00 128.6065
917.10 128.1914
917.20 126.9802
917.30 123.9967
917.40 121.0133
917.50 117.6312
917.60 114.2491
917.70 114.0817
917.80 115.3585
917.90 116.6729
918.00 118.0486
918.10 119.4049
918.20 120.505
918.30 121.6051
918.40 120.7323
918.50 119.2365
918.60 119.304
918.70 121.2823
918.80 123.4673
918.90 126.9218
919.00 130.3763
919.10 133.4956
919.20 136.5461
919.30 136.2023
919.40 132.7253
919.50 129.114
919.60 124.9979
919.70 120.8818
919.80 121.9766
919.90 123.6503
920.00 126.4239
920.10 129.9616
920.20 132.7178
920.30 133.4644
920.40 134.211
920.50 131.23
920.60 128.1337
920.70 125.1783
920.80 122.2953
920.90 118.9441
921.00 114.7231
921.10 110.6628
921.20 110.4599
921.30 110.2571
921.40 112.5666
921.50 115.8054
921.60 119.0243
921.70 122.2159
921.80 125.2979
921.90 127.4934
922.00 129.6889
922.10 129.4283
922.20 128.5536
922.30 127.8053
922.40 127.1885
922.50 126.3566
922.60 124.5445
922.70 122.7324
922.80 120.9422
922.90 119.1553
923.00 116.0639
923.10 111.9476
923.20 109.1965
923.30 110.5413
923.40 111.8861
923.50 114.2324
923.60 116.6313
923.70 118.6778
923.80 120.5259
923.90 122.4411
924.00 124.4924
924.10 126.5819
924.20 130.5403
924.30 134.4986
924.40 134.8232
924.50 133.6636
924.60 130.5585
924.70 124.535
924.80 118.7277
924.90 115.1055
925.00 111.4833
925.10 110.1053
925.20 109.3601
925.30 110.618
925.40 114.1347
925.50 117.6588
925.60 121.222
925.70 124.7853
925.80 127.3419
925.90 129.7209
926.00 127.9532
926.10 122.6531
926.20 118.5681
926.30 118.3306
926.40 118.0932
926.50 121.8732
926.60 125.9556
926.70 129.1916
926.80 131.9089
926.90 132.3824
927.00 127.8618
927.10 123.3412
927.20 120.0248
927.30 116.7083
927.40 114.7005
927.50 113.2806
927.60 111.5539
927.70 109.3268
927.80 107.0892
927.90 104.714
928.00 102.3388
928.10 102.2613
928.20 102.9094
928.30 105.0277
928.40 108.943
928.50 112.3893
928.60 113.1787
928.70 113.9681
928.80 110.892
928.90 107.0796
929.00 105.3345
929.10 105.4228
929.20 106.08
929.30 108.7545
929.40 111.429
929.50 111.6827
929.60 111.6971
929.70 111.6042
929.80 111.4397
929.90 111.9787
930.00 114.2399
930.10 116.5011
930.20 115.0818
930.30 113.5874
930.40 111.823
930.50 109.9314
930.60 108.0483
930.70 106.1796
930.80 104.3951
930.90 103.9294
931.00 103.4636
931.10 104.8258
931.20 106.7974
931.30 110.2459
931.40 115.574
931.50 120.1466
931.60 119.8234
931.70 119.5904
931.80 119.3574
931.90 121.6636
932.00 124.1906
932.10 126.2453
932.20 126.4106
932.30 126.5759
932.40 124.3256
932.50 119.4586
932.60 114.5915
932.70 112.5329
932.80 111.3611
932.90 110.298
933.00 111.8426
933.10 113.3872
933.20 114.0477
933.30 112.913
933.40 111.7784
933.50 110.8631
933.60 110.0882
933.70 109.3132
933.80 109.8596
933.90 110.5693
934.00 111.6181
934.10 114.3218
934.20 117.0256
934.30 118.6011
934.40 118.7978
934.50 118.9944
934.60 119.4611
934.70 120.0228
934.80 120.5825
934.90 121.0487
935.00 121.515
935.10 121.4104
935.20 119.9738
935.30 118.5371
935.40 115.9011
935.50 112.3965
935.60 108.892
935.70 108.6939
935.80 108.9899
935.90 109.9439
936.00 114.6268
936.10 119.3096
936.20 123.0368
936.30 125.4971
936.40 127.9574
936.50 127.415
936.60 125.6463
936.70 123.8775
936.80 120.7314
936.90 117.5852
937.00 115.1884
937.10 114.7184
937.20 114.2484
937.30 114.7893
937.40 116.1243
937.50 117.4594
937.60 118.1375
937.70 118.6904
937.80 118.984
937.90 117.5416
938.00 116.0992
938.10 115.4721
938.20 116.018
938.30 116.5639
938.40 117.072
938.50 117.5629
938.60 118.0539
938.70 116.6209
938.80 115.1487
938.90 114.4926
939.00 116.1592
939.10 117.8259
939.20 119.4495
939.30 121.0363
939.40 122.6232
939.50 123.4957
939.60 124.2218
939.70 124.4653
939.80 120.8028
939.90 117.1404
940.00 114.5144
940.10 113.5094
940.20 112.5045
940.30 114.1022
940.40 116.9247
940.50 119.7472
940.60 123.6356
940.70 127.5684
940.80 130.1156
940.90 128.5057
941.00 126.8957
941.10 125.7641
941.20 125.0566
941.30 124.3491
941.40 124.3278
941.50 124.4675
941.60 124.594
941.70 124.6017
941.80 124.6094
941.90 123.6191
942.00 121.0003
942.10 118.3815
942.20 118.0977
942.30 118.964
942.40 119.8304
942.50 119.7181
942.60 119.5543
942.70 120.2953
942.80 124.0654
942.90 127.8356
943.00 131.3478
943.10 134.6218
943.20 137.8959
943.30 141.0883
943.40 144.2603
943.50 146.82
943.60 143.1884
943.70 139.5568
943.80 136.6848
943.90 135.1059
944.00 133.527
944.10 132.2287
944.20 131.0748
944.30 129.921
944.40 129.2596
944.50 128.6297
944.60 127.7786
944.70 126.1866
944.80 124.5946
944.90 124.365
945.00 125.4444
945.10 126.5238
945.20 128.9652
945.30 131.7472
945.40 134.3484
945.50 134.8711
945.60 135.3938
945.70 135.2508
945.80 133.9745
945.90 132.6982
946.00 130.4107
946.10 127.5788
946.20 124.7469
946.30 123.9058
946.40 123.1919
946.50 123.1009
946.60 125.2187
946.70 127.3365
946.80 129.3921
946.90 131.3879
947.00 133.3836
947.10 134.1786
947.20 134.6543
947.30 135.1775
947.40 136.2464
947.50 137.3153
947.60 137.8037
947.70 137.3036
947.80 136.8034
947.90 135.856
948.00 134.6676
948.10 133.4793
948.20 133.3965
948.30 133.3843
948.40 134.2103
948.50 138.0079
948.60 141.8056
948.70 145.5501
948.80 149.2435
948.90 152.9369
949.00 154.0212
949.10 154.4531
949.20 154.5362
949.30 150.6076
949.40 146.679
949.50 143.8363
949.60 142.8426
949.70 141.8488
949.80 141.7218
949.90 142.0617
950.00 142.4015
950.10 143.4456
950.20 144.5348
950.30 145.1235
950.40 144.0369
950.50 142.9502
950.60 143.6033
950.70 145.9277
950.80 148.2522
950.90 148.1344
951.00 147.406
951.10 146.8015
951.20 147.4485
951.30 148.0955
951.40 147.3376
951.50 144.1876
951.60 141.0376
951.70 138.3759
951.80 135.9657
951.90 133.5556
952.00 132.8639
952.10 132.2628
952.20 133.2088
952.30 139.3349
952.40 145.461
952.50 151.2571
952.60 156.7485
952.70 162.24
952.80 160.8191
952.90 157.7768
953.00 154.5406
953.10 149.56
953.20 144.5795
953.30 140.8079
953.40 139.0089
953.50 137.2099
953.60 138.7049
953.70 141.8225
953.80 144.94
953.90 144.4268
954.00 143.7624
954.10 143.2099
954.20 143.012
954.30 142.8142
954.40 143.8217
954.50 145.8983
954.60 147.9749
954.70 152.3114
954.80 157.144
954.90 161.543
955.00 162.4342
955.10 163.3255
955.20 162.9728
955.30 160.7542
955.40 158.5357
955.50 156.4126
955.60 154.3345
955.70 152.2564
955.80 151.1638
955.90 150.1016
956.00 149.2374
956.10 148.9363
956.20 148.6352
956.30 149.0807
956.40 150.1371
956.50 151.1936
956.60 151.8975
956.70 152.5343
956.80 153.1419
956.90 153.5351
957.00 153.9284
957.10 154.1736
957.20 154.2055
957.30 154.2375
957.40 154.1511
957.50 154.0139
957.60 153.8768
957.70 152.4323
957.80 150.9746
957.90 149.6519
958.00 148.6765
958.10 147.701
958.20 146.9009
958.30 146.2329
958.40 145.565
958.50 143.3882
958.60 140.945
958.70 138.5888
958.80 136.766
958.90 134.9433
959.00 132.6519
959.10 129.7393
959.20 126.8266
959.30 126.1538
959.40 126.3519
959.50 126.5507
959.60 126.8118
959.70 127.0729
959.80 127.6334
959.90 128.8924
960.00 130.1515
960.10 131.7205
960.20 133.505
960.30 135.2896
960.40 136.4095
960.50 137.4389
960.60 138.2509
960.70 137.9213
960.80 137.5917
960.90 136.1277
961.00 133.277
961.10 130.4264
961.20 128.8788
961.30 127.7892
961.40 126.8026
961.50 129.1481
961.60 131.4935
961.70 134.1035
961.80 137.2757
961.90 140.448
962.00 142.3337
962.10 143.3968
962.20 144.46
962.30 143.2434
962.40 141.7734
962.50 140.2642
962.60 138.5874
962.70 136.9106
962.80 135.8409
962.90 135.4288
963.00 135.0168
963.10 136.2057
963.20 137.8728
963.30 139.3366
963.40 137.6174
963.50 135.8981
963.60 133.5308
963.70 129.96
963.80 126.3892
963.90 123.7356
964.00 121.5978
964.10 119.46
964.20 121.3317
964.30 123.5052
964.40 125.2638
964.50 125.5508
964.60 125.8379
964.70 126.9698
964.80 128.9132
964.90 130.8566
965.00 131.059
965.10 130.8261
965.20 130.5971
965.30 130.4075
965.40 130.2178
965.50 130.3206
965.60 130.9006
965.70 131.4805
965.80 134.5102
965.90 138.7466
966.00 142.983
966.10 143.5737
966.20 144.0124
966.30 144.4173
966.40 144.7203
966.50 145.0234
966.60 145.2041
966.70 145.2806
966.80 145.357
966.90 146.4339
967.00 147.7157
967.10 148.423
967.20 144.9175
967.30 141.412
967.40 138.533
967.50 136.5192
967.60 134.5053
967.70 134.9626
967.80 136.4293
967.90 137.896
968.00 139.9593
968.10 142.0227
968.20 143.6725
968.30 144.3099
968.40 144.9473
968.50 144.2149
968.60 142.4906
968.70 140.7663
968.80 140.2237
968.90 139.8577
969.00 139.7248
969.10 140.8162
969.20 141.9076
969.30 143.4472
969.40 145.5345
969.50 147.6218
969.60 148.774
969.70 149.5976
969.80 150.3875
969.90 150.3692
970.00 150.351
970.10 149.9333
970.20 148.7044
970.30 147.4756
970.40 145.7915
970.50 143.8284
970.60 141.8652
970.70 142.174
970.80 142.7074
970.90 143.9159
971.00 147.8245
971.10 151.733
971.20 155.467
971.30 159.0191
971.40 162.5712
971.50 162.9668
971.60 162.5233
971.70 161.8802
971.80 158.9416
971.90 156.003
972.00 153.9481
972.10 153.3979
972.20 152.8477
972.30 153.2921
972.40 154.2488
972.50 155.2055
972.60 154.0642
972.70 152.8126
972.80 151.3711
972.90 149.3602
973.00 147.3493
973.10 146.386
973.20 146.315
973.30 146.2441
973.40 146.3871
973.50 146.574
973.60 146.7054
973.70 146.4295
973.80 146.1537
973.90 146.1575
974.00 146.5475
974.10 146.9376
974.20 146.7017
974.30 146.2102
974.40 145.7188
974.50 145.3467
974.60 144.9747
974.70 144.7752
974.80 144.9981
974.90 145.2211
975.00 146.3858
975.10 148.2051
975.20 150.0243
975.30 150.8235
975.40 151.4837
975.50 152.1582
975.60 152.903
975.70 153.6479
975.80 154.1042
975.90 154.2218
976.00 154.3394
976.10 155.0782
976.20 156.0132
976.30 156.9135
976.40 157.1538
976.50 157.3942
976.60 157.5192
976.70 157.4204
976.80 157.3216
976.90 156.5305
977.00 155.3499
977.10 154.1693
977.20 154.2472
977.30 154.4199
977.40 154.9301
977.50 156.6372
977.60 158.3443
977.70 158.9827
977.80 158.6347
977.90 158.2866
978.00 156.7629
978.10 154.9634
978.20 153.1503
978.30 151.2153
978.40 149.2802
978.50 148.1093
978.60 148.0845
978.70 148.0598
978.80 148.5862
978.90 149.3603
979.00 150.1344
979.10 153.7951
979.20 157.5148
979.30 160.7989
979.40 162.9629
979.50 165.127
979.60 165.955
979.70 165.7751
979.80 165.5952
979.90 164.91
980.00 164.1426
980.10 163.3662
980.20 162.543
980.30 161.7197
980.40 161.1078
980.50 160.7545
980.60 160.4011
980.70 159.6498
980.80 158.7658
980.90 157.903
981.00 157.5505
981.10 157.1979
981.20 156.4234
981.30 154.7923
981.40 153.1612
981.50 153.6867
981.60 155.4787
981.70 157.2707
981.80 158.3053
981.90 159.2741
982.00 160.1037
982.10 160.4401
982.20 160.7764
982.30 161.0511
982.40 161.2668
982.50 161.4824
982.60 162.2056
982.70 163.0558
982.80 163.6565
982.90 162.0114
983.00 160.3663
983.10 158.7146
983.20 157.0527
983.30 155.3907
983.40 154.7633
983.50 154.6006
983.60 154.4379
983.70 155.315
983.80 156.2134
983.90 157.3272
984.00 158.9953
984.10 160.6633
984.20 161.7293
984.30 162.3409
984.40 162.9526
984.50 160.9907
984.60 158.6443
984.70 156.0682
984.80 152.2866
984.90 148.505
985.00 146.5946
985.10 146.881
985.20 147.1673
985.30 149.3186
985.40 152.0916
985.50 154.8164
985.60 156.6282
985.70 158.4399
985.80 159.5281
985.90 159.2119
986.00 158.8957
986.10 159.381
986.20 160.3172
986.30 161.2535
986.40 161.6301
986.50 161.9647
986.60 161.8871
986.70 160.4299
986.80 158.9727
986.90 158.9499
987.00 160.2509
987.10 161.552
987.20 164.9216
987.30 168.7452
987.40 172.0976
987.50 171.6371
987.60 171.1767
987.70 169.2217
987.80 165.1161
987.90 161.0105
988.00 159.5992
988.10 159.2883
988.20 158.9775
988.30 163.1907
988.40 167.4039
988.50 170.801
988.60 172.294
988.70 173.7869
988.80 173.4514
988.90 171.8454
989.00 170.2393
989.10 166.0286
989.20 161.4958
989.30 156.2668
989.40 147.8654
989.50 139.4641
989.60 131.0065
989.70 122.4881
989.80 113.9696
989.90 108.6493
990.00 104.231
990.10 99.93408
990.20 97.24941
990.30 94.56475
990.40 91.39832
990.50 87.41159
990.60 83.42486
990.70 81.18123
990.80 79.83556
990.90 78.4899
991.00 79.69151
991.10 80.99926
991.20 81.67453
991.30 80.54968
991.40 79.42484
991.50 78.68814
991.60 78.26903
991.70 77.84991
991.80 78.18876
991.90 78.66137
992.00 79.13542
992.10 79.61768
992.20 80.09994
992.30 79.85369
992.40 78.68026
992.50 77.50683
992.60 79.26331
992.70 82.04922
992.80 84.86176
992.90 88.31328
993.00 91.76481
993.10 94.42716
993.20 95.48723
993.30 96.5473
993.40 97.10179
993.50 97.35935
993.60 97.6169
993.70 100.0407
993.80 102.6275
993.90 105.3563
994.00 108.5884
994.10 111.8205
994.20 114.0029
994.30 115.2162
994.40 116.4295
994.50 116.8364
994.60 117.0662
994.70 117.3656
994.80 118.2273
994.90 119.089
995.00 120.5339
995.10 122.8181
995.20 125.1022
995.30 125.4285
995.40 124.955
995.50 124.4535
995.60 121.1783
995.70 117.9031
995.80 114.992
995.90 112.9303
996.00 110.8686
996.10 112.3887
996.20 116.2967
996.30 120.2047
996.40 124.2304
996.50 128.2691
996.60 130.8369
996.70 127.1338
996.80 123.4307
996.90 118.1441
997.00 111.2093
997.10 104.2746
997.20 100.8692
997.30 98.40196
997.40 96.4568
997.50 99.79044
997.60 103.1241
997.70 106.1169
997.80 108.5535
997.90 110.9901
998.00 112.1566
998.10 112.7254
998.20 113.2942
998.30 110.8616
998.40 108.3678
998.50 106.2527
998.60 105.1114
998.70 103.97
998.80 103.2606
998.90 102.8638
999.00 102.467
999.10 103.0667
999.20 103.8153
999.30 104.1827
999.40 102.6887
999.50 101.1948
999.60 101.7906
999.70 104.7428
999.80 107.6951
999.90 112.1816
1000.00 117.1263
1000.10 122.0251
1000.20 126.3137
1000.30 130.6023
1000.40 132.7117
1000.50 130.947
1000.60 129.1822
1000.70 126.3387
1000.80 122.9395
1000.90 119.5404
1001.00 117.0029
1001.10 114.5013
1001.20 113.1282
1001.30 114.967
1001.40 116.8057
1001.50 119.1088
1001.60 121.7767
1001.70 124.4445
1001.80 125.5967
1001.90 126.5022
1002.00 127.2985
1002.10 127.4755
1002.20 127.6526
1002.30 128.409
1002.40 129.8736
1002.50 131.3382
1002.60 132.3928
1002.70 133.3106
1002.80 134.0692
1002.90 131.8006
1003.00 129.532
1003.10 127.4096
1003.20 125.5588
1003.30 123.708
1003.40 122.0165
1003.50 120.4107
1003.60 118.8049
1003.70 119.8355
1003.80 121.005
1003.90 122.5232
1004.00 125.088
1004.10 127.6529
1004.20 131.3792
1004.30 136.095
1004.40 140.8108
1004.50 141.1964
1004.60 140.7573
1004.70 139.6238
1004.80 134.2252
1004.90 128.8265
1005.00 122.364
1005.10 114.5475
1005.20 106.731
1005.30 102.8818
1005.40 100.4266
1005.50 98.09407
1005.60 98.70474
1005.70 99.3154
1005.80 100.3328
1005.90 102.1397
1006.00 103.9466
1006.10 105.4081
1006.20 106.6754
1006.30 107.9426
1006.40 112.0108
1006.50 116.2579
1006.60 120.416
1006.70 124.2921
1006.80 128.1683
1006.90 130.3687
1007.00 131.1416
1007.10 131.9145
1007.20 131.3599
1007.30 130.5523
1007.40 130.1319
1007.50 132.0896
1007.60 134.0472
1007.70 137.1326
1007.80 141.6532
1007.90 146.1739
1008.00 148.4876
1008.10 150.026
1008.20 151.4433
1008.30 149.9561
1008.40 148.4689
1008.50 146.5462
1008.60 143.7781
1008.70 141.0099
1008.80 138.376
1008.90 135.8177
1009.00 133.2594
1009.10 132.1812
1009.20 131.2144
1009.30 130.9972
1009.40 133.2897
1009.50 135.5821
1009.60 140.3149
1009.70 147.2118
1009.80 154.1086
1009.90 159.0006
1010.00 163.4819
1010.10 167.5408
1010.20 168.7732
1010.30 170.0055
1010.40 168.86
1010.50 164.5622
1010.60 160.2645
1010.70 155.7427
1010.80 151.138
1010.90 146.5139
1011.00 141.2618
1011.10 136.0097
1011.20 131.3614
1011.30 127.8853
1011.40 124.4091
1011.50 122.2971
1011.60 120.9524
1011.70 119.6077
1011.80 122.9542
1011.90 126.6001
1012.00 131.0166
1012.10 137.8734
1012.20 144.7301
1012.30 149.8582
1012.40 153.5136
1012.50 157.1691
1012.60 157.7883
1012.70 157.8292
1012.80 157.7115
1012.90 156.6201
1013.00 155.5287
1013.10 152.7081
1013.20 147.6869
1013.30 142.6656
1013.40 136.033
1013.50 128.8342
1013.60 121.8385
1013.70 119.7171
1013.80 117.5957
1013.90 118.0474
1014.00 123.494
1014.10 128.9405
1014.20 132.5837
1014.30 135.2124
1014.40 137.8412
1014.50 136.1846
1014.60 134.2546
1014.70 133.1179
1014.80 134.4935
1014.90 135.869
1015.00 138.6348
1015.10 142.5847
1015.20 146.5347
1015.30 145.9567
1015.40 144.5796
1015.50 142.6526
1015.60 137.6093
1015.70 132.566
1015.80 128.8888
1015.90 126.8812
1016.00 124.8737
1016.10 126.7348
1016.20 129.8854
1016.30 132.9859
1016.40 135.1341
1016.50 137.2824
1016.60 138.7562
1016.70 138.9777
1016.80 139.1991
1016.90 138.7511
1017.00 137.9425
1017.10 137.134
1017.20 141.9566
1017.30 147.0755
1017.40 151.5861
1017.50 154.3654
1017.60 157.1446
1017.70 156.2504
1017.80 152.4701
1017.90 148.6897
1018.00 142.736
1018.10 136.4285
1018.20 130.7734
1018.30 128.5434
1018.40 126.3134
1018.50 126.0107
1018.60 127.9706
1018.70 129.9305
1018.80 132.3905
1018.90 135.0084
1019.00 137.5081
1019.10 138.4383
1019.20 139.3684
1019.30 139.6856
1019.40 138.9591
1019.50 138.2326
1019.60 138.186
1019.70 138.4744
1019.80 138.7628
1019.90 140.2243
1020.00 141.7219
1020.10 143.366
1020.20 145.4056
1020.30 147.4453
1020.40 149.599
1020.50 151.8388
1020.60 154.0786
1020.70 152.8495
1020.80 151.1474
1020.90 149.0839
1021.00 145.3738
1021.10 141.6636
1021.20 137.648
1021.30 133.3013
1021.40 128.9547
1021.50 125.6028
1021.60 122.5314
1021.70 119.5733
1021.80 117.9175
1021.90 116.2617
1022.00 116.2806
1022.10 118.9188
1022.20 121.5571
1022.30 125.0045
1022.40 128.8155
1022.50 132.6264
1022.60 134.9596
1022.70 137.2779
1022.80 138.6155
1022.90 137.5522
1023.00 136.489
1023.10 135.3634
1023.20 134.1962
1023.30 133.0291
1023.40 135.2319
1023.50 137.8093
1023.60 140.7054
1023.70 144.8767
1023.80 149.0481
1023.90 152.8265
1024.00 156.2121
1024.10 159.5977
1024.20 159.1689
1024.30 157.8452
1024.40 156.3913
1024.50 153.8834
1024.60 151.3756
1024.70 148.2219
1024.80 144.1388
1024.90 140.0558
1025.00 137.5586
1025.10 135.7093
1025.20 133.8958
1025.30 133.8403
1025.40 133.7849
1025.50 133.9167
1025.60 134.4464
1025.70 134.976
1025.80 132.7745
1025.90 128.8991
1026.00 125.0236
1026.10 121.0386
1026.20 117.0453
1026.30 114.7678
1026.40 118.2341
1026.50 121.7005
1026.60 126.6344
1026.70 132.8697
1026.80 139.1051
1026.90 142.2386
1027.00 144.7813
1027.10 146.5717
1027.20 143.7403
1027.30 140.9089
1027.40 138.6509
1027.50 137.1226
1027.60 135.5943
1027.70 133.3521
1027.80 130.8591
1027.90 128.3215
1028.00 124.9358
1028.10 121.5502
1028.20 119.266
1028.30 119.0273
1028.40 118.7885
1028.50 122.0031
1028.60 127.0773
1028.70 132.1514
1028.80 136.363
1028.90 140.5386
1029.00 143.4533
1029.10 142.7794
1029.20 142.1056
1029.30 141.1192
1029.40 139.8873
1029.50 138.6554
1029.60 137.9179
1029.70 137.2543
1029.80 136.6378
1029.90 136.2511
1030.00 135.8644
1030.10 136.1304
1030.20 137.1325
1030.30 138.1346
1030.40 140.1592
1030.50 142.4722
1030.60 144.6272
1030.70 144.9647
1030.80 145.3023
1030.90 145.3494
1031.00 144.9424
1031.10 144.5354
1031.20 143.6854
1031.30 142.6363
1031.40 141.5873
1031.50 140.4128
1031.60 139.237
1031.70 138.1245
1031.80 137.1598
1031.90 136.195
1032.00 135.0978
1032.10 133.9123
1032.20 132.7269
1032.30 132.5641
1032.40 132.5151
1032.50 133.4356
1032.60 138.0039
1032.70 142.5723
1032.80 148.4331
1032.90 155.5359
1033.00 162.6386
1033.10 165.2972
1033.20 166.9802
1033.30 167.7424
1033.40 161.7513
1033.50 155.7603
1033.60 149.8365
1033.70 144.0054
1033.80 138.1743
1033.90 136.1998
1034.00 135.6515
1034.10 135.2233
1034.20 138.6736
1034.30 142.1239
1034.40 145.0148
1034.50 146.82
1034.60 148.6252
1034.70 148.1014
1034.80 146.2676
1034.90 144.4339
1035.00 142.1315
1035.10 139.8044
1035.20 138.1425
1035.30 138.4761
1035.40 138.8096
1035.50 140.7901
1035.60 144.0646
1035.70 147.3391
1035.80 150.6891
1035.90 154.0514
1036.00 157.1818
1036.10 159.0952
1036.20 161.0085
1036.30 162.4065
1036.40 163.2236
1036.50 164.0407
1036.60 164.7223
1036.70 165.3634
1036.80 166.2423
1036.90 169.8559
1037.00 173.4695
1037.10 176.4875
1037.20 178.534
1037.30 180.5805
1037.40 178.3073
1037.50 174.0933
1037.60 169.8793
1037.70 160.7992
1037.80 151.6698
1037.90 144.2001
1038.00 140.6025
1038.10 137.005
1038.20 137.4637
1038.30 140.6265
1038.40 143.7894
1038.50 146.2711
1038.60 148.6854
1038.70 150.2761
1038.80 148.7686
1038.90 147.261
1039.00 145.8852
1039.10 144.6311
1039.20 143.3769
1039.30 144.4065
1039.40 145.9374
1039.50 147.6008
1039.60 150.1506
1039.70 152.7003
1039.80 154.8678
1039.90 156.5287
1040.00 158.1895
1040.10 159.8573
1040.20 161.5275
1040.30 163.2027
1040.40 164.9959
1040.50 166.7892
1040.60 168.4179
1040.70 169.741
1040.80 171.0642
1040.90 169.2131
1041.00 165.6528
1041.10 162.0925
1041.20 158.1023
1041.30 154.0943
1041.40 151.4398
1041.50 152.6377
1041.60 153.8356
1041.70 157.0607
1041.80 161.8151
1041.90 166.5695
1042.00 166.2302
1042.10 165.1297
1042.20 163.1656
1042.30 157.2673
1042.40 151.3691
1042.50 145.6919
1042.60 140.2543
1042.70 134.8167
1042.80 136.009
1042.90 138.9636
1043.00 142.2699
1043.10 148.7404
1043.20 155.211
1043.30 161.5091
1043.40 167.5486
1043.50 173.588
1043.60 175.8956
1043.70 176.6788
1043.80 177.4544
1043.90 177.4768
1044.00 177.4992
1044.10 177.253
1044.20 176.4362
1044.30 175.6194
1044.40 174.8666
1044.50 174.153
1044.60 173.4393
1044.70 174.2459
1044.80 175.167
1044.90 177.0969
1045.00 182.2214
1045.10 187.346
1045.20 192.1102
1045.30 196.5674
1045.40 201.0245
1045.50 199.4088
1045.60 196.7214
1045.70 193.434
1045.80 186.7471
1045.90 180.0602
1046.00 174.4262
1046.10 170.0282
1046.20 165.6301
1046.30 161.9093
1046.40 158.4024
1046.50 154.8477
1046.60 150.6594
1046.70 146.4711
1046.80 143.3558
1046.90 141.9912
1047.00 140.6267
1047.10 141.7843
1047.20 144.1288
1047.30 146.4733
1047.40 147.6685
1047.50 148.8521
1047.60 149.5648
1047.70 149.1789
1047.80 148.7929
1047.90 149.6016
1048.00 151.2069
1048.10 152.8121
1048.20 156.9188
1048.30 161.273
1048.40 165.3347
1048.50 168.2964
1048.60 171.2581
1048.70 173.0215
1048.80 173.6788
1048.90 174.336
1049.00 174.3686
1049.10 174.2733
1049.20 173.8154
1049.30 170.931
1049.40 168.0466
1049.50 164.8878
1049.60 161.3798
1049.70 157.8719
1049.80 157.9096
1049.90 159.1291
1050.00 160.4845
1050.10 164.4201
1050.20 168.3558
1050.30 171.0163
1050.40 171.41
1050.50 171.8037
1050.60 169.9582
1050.70 167.01
1050.80 164.0618
1050.90 160.2329
1051.00 156.3768
1051.10 152.5495
1051.20 148.7962
1051.30 145.0428
1051.40 142.6096
1051.50 141.0939
1051.60 139.5781
1051.70 139.4931
1051.80 139.585
1051.90 140.1149
1052.00 142.397
1052.10 144.6791
1052.20 147.609
1052.30 151.1614
1052.40 154.7138
1052.50 158.9679
1052.60 163.3865
1052.70 167.4373
1052.80 168.7903
1052.90 170.1433
1053.00 170.7825
1053.10 170.4755
1053.20 170.1686
1053.30 169.9644
1053.40 169.7983
1053.50 169.6067
1053.60 168.8037
1053.70 168.0007
1053.80 167.433
1053.90 167.3021
1054.00 167.1712
1054.10 166.6616
1054.20 165.9569
1054.30 165.2521
1054.40 162.284
1054.50 159.2216
1054.60 156.1929
1054.70 153.2551
1054.80 150.3173
1054.90 150.2575
1055.00 152.2819
1055.10 154.3062
1055.20 156.7166
1055.30 159.1797
1055.40 160.5691
1055.50 157.3813
1055.60 154.1936
1055.70 150.077
1055.80 145.0317
1055.90 139.9864
1056.00 137.9866
1056.10 136.7481
1056.20 135.8071
1056.30 137.2726
1056.40 138.7381
1056.50 140.4167
1056.60 142.3897
1056.70 144.3627
1056.80 145.2973
1056.90 145.8478
1057.00 146.3872
1057.10 146.6613
1057.20 146.9354
1057.30 147.692
1057.40 149.385
1057.50 151.0781
1057.60 152.4704
1057.70 153.7008
1057.80 154.9312
1057.90 155.5539
1058.00 156.1513
1058.10 156.2664
1058.20 155.0088
1058.30 153.7512
1058.40 152.8223
1058.50 152.1414
1058.60 151.4605
1058.70 150.4835
1058.80 149.466
1058.90 148.7401
1059.00 149.2569
1059.10 149.7736
1059.20 150.1604
1059.30 150.4172
1059.40 150.674
1059.50 151.1104
1059.60 151.5917
1059.70 151.9279
1059.80 151.0905
1059.90 150.253
1060.00 149.1962
1060.10 147.8364
1060.20 146.4766
1060.30 145.0319
1060.40 143.5558
1060.50 142.0911
1060.60 140.9966
1060.70 139.9021
1060.80 139.3804
1060.90 139.9704
1061.00 140.5605
1061.10 142.1404
1061.20 144.2533
1061.30 146.3662
1061.40 146.987
1061.50 147.5455
1061.60 147.9814
1061.70 148.0854
1061.80 148.1895
1061.90 148.3577
1062.00 148.5741
1062.10 148.7906
1062.20 150.9225
1062.30 153.3156
1062.40 155.8105
1062.50 158.7395
1062.60 161.6685
1062.70 164.0892
1062.80 166.0015
1062.90 167.9138
1063.00 167.326
1063.10 166.1518
1063.20 165.1149
1063.30 165.1884
1063.40 165.2619
1063.50 166.2721
1063.60 168.5758
1063.70 170.8796
1063.80 172.9337
1063.90 174.8956
1064.00 176.7595
1064.10 176.2717
1064.20 175.7839
1064.30 175.1213
1064.40 174.1344
1064.50 173.1474
1064.60 172.8548
1064.70 172.92
1064.80 172.9852
1064.90 172.346
1065.00 171.6775
1065.10 170.1137
1065.20 166.1295
1065.30 162.1453
1065.40 158.2811
1065.50 154.5038
1065.60 150.7265
1065.70 150.5906
1065.80 150.9047
1065.90 150.9134
1066.00 149.7001
1066.10 148.4868
1066.20 146.6476
1066.30 144.2069
1066.40 141.7663
1066.50 140.6984
1066.60 139.9526
1066.70 139.5701
1066.80 141.8522
1066.90 144.1343
1067.00 145.8593
1067.10 146.8461
1067.20 147.8328
1067.30 150.8574
1067.40 154.5979
1067.50 158.3115
1067.60 161.5126
1067.70 164.7137
1067.80 167.5918
1067.90 169.8958
1068.00 172.1998
1068.10 174.0867
1068.20 175.7682
1068.30 177.4496
1068.40 178.6475
1068.50 179.8355
1068.60 180.6718
1068.70 180.6041
1068.80 180.5364
1068.90 179.6425
1069.00 178.1745
1069.10 176.7065
1069.20 175.0602
1069.30 173.394
1069.40 171.163
1069.50 166.807
1069.60 162.4511
1069.70 159.767
1069.80 158.6262
1069.90 157.4854
1070.00 158.1692
1070.10 159.2266
1070.20 160.3206
1070.30 161.6386
1070.40 162.9566
1070.50 163.0718
1070.60 161.7171
1070.70 160.3623
1070.80 160.7964
1070.90 161.7952
1071.00 162.8799
1071.10 165.309
1071.20 167.7381
1071.30 170.0175
1071.40 172.0421
1071.50 174.0666
1071.60 175.5313
1071.70 176.7325
1071.80 177.9337
1071.90 177.631
1072.00 177.3131
1072.10 176.7364
1072.20 175.5561
1072.30 174.3758
1072.40 173.6276
1072.50 173.1556
1072.60 172.6837
1072.70 174.1401
1072.80 175.7641
1072.90 176.9663
1073.00 176.7559
1073.10 176.5454
1073.20 176.5126
1073.30 176.6312
1073.40 176.7498
1073.50 176.87
1073.60 176.9906
1073.70 177.3403
1073.80 178.8929
1073.90 180.4455
1074.00 181.4787
1074.10 181.9263
1074.20 182.3738
1074.30 183.8805
1074.40 185.6859
1074.50 187.4304
1074.60 188.4735
1074.70 189.5166
1074.80 189.3377
1074.90 187.2474
1075.00 185.1572
1075.10 181.1974
1075.20 176.4364
1075.30 171.711
1075.40 170.5151
1075.50 169.3192
1075.60 169.7592
1075.70 173.6757
1075.80 177.5922
1075.90 180.1746
1076.00 181.9733
1076.10 183.7721
1076.20 182.1201
1076.30 180.2478
1076.40 178.8272
1076.50 178.7618
1076.60 178.6963
1076.70 179.6691
1076.80 181.4575
1076.90 183.246
1077.00 184.3089
1077.10 185.2635
1077.20 185.7414
1077.30 184.0481
1077.40 182.3547
1077.50 181.4342
1077.60 181.3179
1077.70 181.2016
1077.80 182.2635
1077.90 183.62
1078.00 184.922
1078.10 185.7824
1078.20 186.6427
1078.30 186.4238
1078.40 184.7144
1078.50 183.0049
1078.60 180.7538
1078.70 178.3023
1078.80 175.8275
1078.90 172.7918
1079.00 169.756
1079.10 166.7337
1079.20 163.7362
1079.30 160.7388
1079.40 160.0328
1079.50 160.5073
1079.60 160.9818
1079.70 163.8701
1079.80 166.8331
1079.90 169.4687
1080.00 171.2624
1080.10 173.0562
1080.20 174.057
1080.30 174.5068
1080.40 174.9566
1080.50 176.8217
1080.60 178.844
1080.70 180.5813
1080.80 181.2466
1080.90 181.9119
1081.00 182.6296
1081.10 183.3955
1081.20 184.1615
1081.30 185.3433
1081.40 186.6102
1081.50 188.1084
1081.60 191.0278
1081.70 193.9473
1081.80 194.8916
1081.90 193.4218
1082.00 191.952
1082.10 189.3703
1082.20 186.4376
1082.30 183.5309
1082.40 180.9704
1082.50 178.4099
1082.60 177.5517
1082.70 179.4708
1082.80 181.3899
1082.90 184.0541
1083.00 187.053
1083.10 190.052
1083.20 192.9614
1083.30 195.8707
1083.40 198.0146
1083.50 198.4546
1083.60 198.8946
1083.70 197.9764
1083.80 196.2257
1083.90 194.475
1084.00 193.3353
1084.10 192.2415
1084.20 190.5829
1084.30 187.1354
1084.40 183.6878
1084.50 181.7438
1084.60 181.0299
1084.70 180.3161
1084.80 180.0438
1084.90 179.8434
1085.00 179.9696
1085.10 181.6901
1085.20 183.4106
1085.30 183.9014
1085.40 183.0599
1085.50 182.2184
1085.60 184.2681
1085.70 187.0863
1085.80 189.9495
1085.90 193.217
1086.00 196.4846
1086.10 199.0417
1086.20 200.5764
1086.30 202.1111
1086.40 201.0011
1086.50 198.8627
1086.60 196.8378
1086.70 197.5403
1086.80 198.2429
1086.90 198.9755
1087.00 199.7639
1087.10 200.5522
1087.20 200.4741
1087.30 199.9495
1087.40 199.4249
1087.50 197.02
1087.60 194.5569
1087.70 192.4365
1087.80 191.197
1087.90 189.9576
1088.00 189.5655
1088.10 189.7624
1088.20 189.9592
1088.30 190.0838
1088.40 190.2003
1088.50 190.3831
1088.60 190.8147
1088.70 191.2464
1088.80 190.6653
1088.90 189.1492
1089.00 187.6331
1089.10 186.74
1089.20 185.9745
1089.30 185.6512
1089.40 188.0441
1089.50 190.4369
1089.60 193.0226
1089.70 195.8441
1089.80 198.6657
1089.90 202.0196
1090.00 205.5416
1090.10 208.827
1090.20 208.9685
1090.30 209.11
1090.40 207.8899
1090.50 204.54
1090.60 201.1901
1090.70 196.0083
1090.80 190.0413
1090.90 184.1334
1091.00 184.0747
1091.10 184.0161
1091.20 185.3979
1091.30 189.8407
1091.40 194.2836
1091.50 198.6092
1091.60 202.866
1091.70 207.1228
1091.80 207.2729
1091.90 207.1609
1092.00 206.5518
1092.10 204.4512
1092.20 202.3506
1092.30 199.9585
1092.40 197.3373
1092.50 194.7162
1092.60 193.1631
1092.70 191.7696
1092.80 190.7953
1092.90 191.7309
1093.00 192.6665
1093.10 193.9101
1093.20 195.4617
1093.30 197.0133
1093.40 197.0648
1093.50 196.7645
1093.60 196.5005
1093.70 196.5028
1093.80 196.5051
1093.90 196.6261
1094.00 196.9045
1094.10 197.1829
1094.20 196.1056
1094.30 194.552
1094.40 192.9443
1094.50 190.309
1094.60 187.6738
1094.70 187.3218
1094.80 191.0288
1094.90 194.7359
1095.00 200.631
1095.10 207.6039
1095.20 214.5767
1095.30 217.7759
1095.40 220.8979
1095.50 222.3902
1095.60 220.0794
1095.70 217.7686
1095.80 215.5612
1095.90 213.4198
1096.00 211.2785
1096.10 212.3276
1096.20 213.6541
1096.30 214.6678
1096.40 214.6341
1096.50 214.6004
1096.60 211.7053
1096.70 206.3729
1096.80 201.0405
1096.90 195.7069
1097.00 190.3729
1097.10 185.78
1097.20 185.0772
1097.30 184.3744
1097.40 185.8539
1097.50 189.7944
1097.60 193.7348
1097.70 196.9063
1097.80 199.8733
1097.90 202.5351
1098.00 202.4505
1098.10 202.366
1098.20 200.9704
1098.30 197.6882
1098.40 194.4061
1098.50 192.2958
1098.60 190.6412
1098.70 189.086
1098.80 190.7416
1098.90 192.3971
1099.00 194.8544
1099.10 198.8681
1099.20 202.8817
1099.30 205.2388
1099.40 206.704
1099.50 208.1692
1099.60 208.981
1099.70 209.7727
1099.80 209.9961
1099.90 208.7584
1100.00 207.5207
1100.10 206.2875
1100.20 205.0573
1100.30 203.8272
1100.40 202.1904
1100.50 200.5084
1100.60 199.076
1100.70 198.5823
1100.80 198.0887
1100.90 197.9604
1101.00 198.1694
1101.10 198.3783
1101.20 198.5966
1101.30 198.8166
1101.40 198.9389
1101.50 198.508
1101.60 198.0771
1101.70 197.1681
1101.80 195.6981
1101.90 194.2281
1102.00 191.5631
1102.10 188.5412
1102.20 185.9173
1102.30 187.8704
1102.40 189.8235
1102.50 192.2594
1102.60 195.4505
1102.70 198.6415
1102.80 199.7351
1102.90 199.972
1103.00 200.1127
1103.10 195.5425
1103.20 190.9723
1103.30 187.0671
1103.40 184.5122
1103.50 181.9573
1103.60 181.3323
1103.70 181.7929
1103.80 182.2536
1103.90 184.6199
1104.00 187.0865
1104.10 189.4074
1104.20 191.314
1104.30 193.2206
1104.40 194.5342
1104.50 195.4185
1104.60 196.3028
1104.70 195.4916
1104.80 194.4709
1104.90 193.1547
1105.00 190.6566
1105.10 188.1586
1105.20 184.5437
1105.30 179.8557
1105.40 175.1677
1105.50 173.9612
1105.60 173.5191
1105.70 173.4731
1105.80 175.8609
1105.90 178.2487
1106.00 180.3386
1106.10 182.0644
1106.20 183.7902
1106.30 183.8866
1106.40 183.4685
1106.50 182.8674
1106.60 179.8352
1106.70 176.803
1106.80 174.9656
1106.90 175.0775
1107.00 175.1895
1107.10 176.4526
1107.20 178.2091
1107.30 179.961
1107.40 181.2652
1107.50 182.5693
1107.60 182.8312
1107.70 180.8781
1107.80 178.925
1107.90 179.6531
1108.00 181.9558
1108.10 184.2585
1108.20 188.0131
1108.30 191.8603
1108.40 195.0667
1108.50 196.4494
1108.60 197.8321
1108.70 197.7525
1108.80 196.5696
1108.90 195.3868
1109.00 194.6144
1109.10 193.8981
1109.20 193.8826
1109.30 196.8554
1109.40 199.8282
1109.50 202.3032
1109.60 204.2805
1109.70 206.2578
1109.80 204.3086
1109.90 201.4974
1110.00 198.1819
1110.10 191.4912
1110.20 184.8005
1110.30 180.1627
1110.40 178.1376
1110.50 176.1125
1110.60 176.5041
1110.70 177.7012
1110.80 178.7465
1110.90 177.7748
1111.00 176.8032
1111.10 175.1087
1111.20 172.2349
1111.30 169.361
1111.40 168.8027
1111.50 169.2847
1111.60 169.7668
1111.70 171.3707
1111.80 172.9747
1111.90 173.7338
1112.00 172.6125
1112.10 171.4912
1112.20 172.4999
1112.30 174.7596
1112.40 177.0193
1112.50 180.649
1112.60 184.3661
1112.70 187.9407
1112.80 191.0877
1112.90 194.2346
1113.00 195.0306
1113.10 193.9793
1113.20 192.928
1113.30 190.2083
1113.40 187.2612
1113.50 184.0339
1113.60 179.612
1113.70 175.19
1113.80 173.9075
1113.90 175.7644
1114.00 177.6214
1114.10 183.0383
1114.20 189.2903
1114.30 195.3522
1114.40 200.1417
1114.50 204.9311
1114.60 206.5086
1114.70 203.9982
1114.80 201.4878
1114.90 197.8274
1115.00 193.7835
1115.10 189.8144
1115.20 187.0163
1115.30 184.2182
1115.40 183.3263
1115.50 185.68
1115.60 188.0338
1115.70 189.8695
1115.80 191.4724
1115.90 193.0754
1116.00 192.7494
1116.10 192.4234
1116.20 191.9685
1116.30 191.2264
1116.40 190.4843
1116.50 189.848
1116.60 189.2765
1116.70 188.705
1116.80 186.4008
1116.90 183.9861
1117.00 181.036
1117.10 176.4799
1117.20 171.9238
1117.30 168.9332
1117.40 167.1727
1117.50 165.4122
1117.60 167.223
1117.70 169.5674
1117.80 172.2831
1117.90 176.5817
1118.00 180.8803
1118.10 184.9434
1118.20 188.771
1118.30 192.5987
1118.40 194.4355
1118.50 195.8053
1118.60 196.7444
1118.70 194.5243
1118.80 192.0921
1118.90 189.3786
1119.00 186.6651
1119.10 184.3659
1119.20 184.0895
1119.30 183.813
1119.40 183.5365
1119.50 183.5547
1119.60 183.5985
1119.70 183.6424
1119.80 184.4409
1119.90 185.6281
1120.00 186.8154
1120.10 187.9719
1120.20 189.0826
1120.30 190.1932
1120.40 191.4703
1120.50 193.7702
1120.60 196.0701
1120.70 198.37
1120.80 198.0916
1120.90 197.4944
1121.00 196.8973
1121.10 195.9319
1121.20 194.7504
1121.30 193.5689
1121.40 192.2687
1121.50 190.7749
1121.60 189.281
1121.70 187.7801
1121.80 186.2266
1121.90 184.6732
1122.00 183.1198
1122.10 182.376
1122.20 181.7641
1122.30 181.1522
1122.40 182.5039
1122.50 185.111
1122.60 187.7182
1122.70 190.1572
1122.80 192.284
1122.90 194.4108
1123.00 196.139
1123.10 194.28
1123.20 192.421
1123.30 190.5621
1123.40 189.6897
1123.50 189.0053
1123.60 188.321
1123.70 189.7519
1123.80 192.7145
1123.90 195.6772
1124.00 198.6494
1124.10 201.6407
1124.20 204.6321
1124.30 207.3164
1124.40 205.92
1124.50 204.5237
1124.60 203.1274
1124.70 199.4155
1124.80 195.1953
1124.90 190.9751
1125.00 187.4775
1125.10 184.5475
1125.20 181.6176
1125.30 180.2048
1125.40 182.1691
1125.50 184.1334
1125.60 186.1664
1125.70 189.5055
1125.80 192.8447
1125.90 196.1839
1126.00 196.9592
1126.10 197.0936
1126.20 197.228
1126.30 197.5951
1126.40 198.1606
1126.50 198.726
1126.60 199.8898
1126.70 202.5186
1126.80 205.1473
1126.90 207.6969
1127.00 207.6873
1127.10 207.6777
1127.20 207.6681
1127.30 204.1742
1127.40 199.6975
1127.50 195.2208
1127.60 192.4243
1127.70 191.1788
1127.80 189.9333
1127.90 189.2998
1128.00 190.3207
1128.10 191.3415
1128.20 192.3658
1128.30 193.7252
1128.40 195.0847
1128.50 196.4442
1128.60 196.5698
1128.70 196.3058
1128.80 196.0419
1128.90 196.3277
1129.00 197.1417
1129.10 197.9557
1129.20 198.5281
1129.30 198.3758
1129.40 198.2235
1129.50 198.0712
1129.60 197.657
1129.70 197.2428
1129.80 196.8287
1129.90 195.9588
1130.00 194.9287
1130.10 193.8986
1130.20 192.2516
1130.30 189.9626
1130.40 187.6735
1130.50 185.7953
1130.60 185.2183
1130.70 184.6413
1130.80 184.0642
1130.90 185.4423
1131.00 186.8603
1131.10 188.2783
1131.20 190.9663
1131.30 194.124
1131.40 197.2817
1131.50 199.2007
1131.60 199.778
1131.70 200.3552
1131.80 200.773
1131.90 200.6259
1132.00 200.4789
1132.10 200.3318
1132.20 198.9104
1132.30 197.4496
1132.40 195.9888
1132.50 195.9727
1132.60 196.5467
1132.70 197.1207
1132.80 196.712
1132.90 195.1498
1133.00 193.5877
1133.10 191.7696
1133.20 188.9888
1133.30 186.208
1133.40 183.4272
1133.50 180.8776
1133.60 178.3375
1133.70 175.7975
1133.80 173.7738
1133.90 171.9714
1134.00 170.169
1134.10 168.3693
1134.20 166.573
1134.30 164.7766
1134.40 163.6058
1134.50 164.9372
1134.60 166.2686
1134.70 167.6
1134.80 171.3559
1134.90 175.2665
1135.00 179.1772
1135.10 181.6763
1135.20 183.5412
1135.30 185.4061
1135.40 185.7991
1135.50 184.3188
1135.60 182.8385
1135.70 181.5945
1135.80 181.358
1135.90 181.1216
1136.00 180.8851
1136.10 181.5222
1136.20 182.2152
1136.30 182.9081
1136.40 182.6888
1136.50 182.0402
1136.60 181.3916
1136.70 180.3134
1136.80 178.6655
1136.90 177.0177
1137.00 175.3776
1137.10 173.772
1137.20 172.1665
1137.30 170.561
1137.40 167.3686
1137.50 164.0567
1137.60 160.7448
1137.70 154.3127
1137.80 146.3437
1137.90 138.3747
1138.00 132.2794
1138.10 128.7717
1138.20 125.264
1138.30 123.1601
1138.40 127.9097
1138.50 132.6594
1138.60 137.409
1138.70 145.5222
1138.80 153.9279
1138.90 162.3336
1139.00 167.1934
1139.10 170.3067
1139.20 173.42
1139.30 174.0879
1139.40 171.3788
1139.50 168.6697
1139.60 165.5098
1139.70 159.9834
1139.80 154.4571
1139.90 148.9307
1140.00 141.6838
1140.10 134.2667
1140.20 126.8496
1140.30 121.5296
1140.40 117.29
1140.50 113.0504
1140.60 112.2313
1140.70 116.3345
1140.80 120.4376
1140.90 125.4273
1141.00 135.0714
1141.10 144.7155
1141.20 154.3596
1141.30 162.2437
1141.40 169.9538
1141.50 177.6638
1141.60 181.2486
1141.70 182.7082
1141.80 184.1679
1141.90 185.2887
1142.00 185.9219
1142.10 186.555
1142.20 187.0948
1142.30 187.1444
1142.40 187.194
1142.50 187.2436
1142.60 188.471
1142.70 189.8148
1142.80 191.1587
1142.90 191.4734
1143.00 191.234
1143.10 190.9947
1143.20 190.3352
1143.30 189.0458
1143.40 187.7563
1143.50 186.5518
1143.60 185.8282
1143.70 185.1046
1143.80 184.381
1143.90 183.5436
1144.00 182.6936
1144.10 181.8435
1144.20 181.2806
1144.30 180.8722
1144.40 180.4639
1144.50 180.0878
1144.60 179.7603
1144.70 179.4328
1144.80 179.3544
1144.90 180.6881
1145.00 182.0217
1145.10 183.3553
1145.20 183.5807
1145.30 183.683
1145.40 183.7853
1145.50 184.154
1145.60 184.6661
1145.70 185.1782
1145.80 186.1164
1145.90 187.6935
1146.00 189.2707
1146.10 190.8987
1146.20 192.8144
1146.30 194.7302
1146.40 196.6459
1146.50 198.1662
1146.60 199.6425
1146.70 201.1188
1146.80 201.3822
1146.90 200.9924
1147.00 200.6025
1147.10 199.9123
1147.20 198.7714
1147.30 197.6305
1147.40 196.7093
1147.50 197.033
1147.60 197.3567
1147.70 197.6805
1147.80 199.557
1147.90 201.5871
1148.00 203.6172
1148.10 204.5065
1148.20 204.8079
1148.30 205.1094
1148.40 204.9103
1148.50 203.9909
1148.60 203.0715
1148.70 202.4536
1148.80 203.4193
1148.90 204.385
1149.00 205.3507
1149.10 205.6778
1149.20 205.9418
1149.30 206.2058
1149.40 205.1421
1149.50 203.3945
1149.60 201.6469
1149.70 200.5141
1149.80 200.2659
1149.90 200.0178
1150.00 200.0446
1150.10 201.5147
1150.20 202.9847
1150.30 204.4548
1150.40 206.1651
1150.50 207.8992
1150.60 209.6332
1150.70 209.8853
1150.80 209.3739
1150.90 208.8625
1151.00 208.4887
1151.10 208.305
1151.20 208.1212
1151.30 207.7798
1151.40 206.6684
1151.50 205.5571
1151.60 204.4458
1151.70 203.4783
1151.80 202.5232
1151.90 201.5681
1152.00 199.3961
1152.10 196.6247
1152.20 193.8533
1152.30 191.4664
1152.40 189.6105
1152.50 187.7545
1152.60 186.3177
1152.70 186.9273
1152.80 187.537
1152.90 188.1466
1153.00 190.2584
1153.10 192.4833
1153.20 194.7083
1153.30 195.5619
1153.40 195.7703
1153.50 195.9786
1153.60 196.2585
1153.70 196.6333
1153.80 197.0082
1153.90 197.4444
1154.00 198.1602
1154.10 198.8761
1154.20 199.592
1154.30 200.0151
1154.40 200.4161
1154.50 200.8172
1154.60 201.0112
1154.70 201.1123
1154.80 201.2133
1154.90 201.5033
1155.00 202.0338
1155.10 202.5642
1155.20 202.9909
1155.30 202.975
1155.40 202.9592
1155.50 202.9433
1155.60 202.4493
1155.70 201.9248
1155.80 201.4002
1155.90 201.8853
1156.00 202.803
1156.10 203.7208
1156.20 204.5151
1156.30 205.1584
1156.40 205.8018
1156.50 206.2312
1156.60 205.8049
1156.70 205.3786
1156.80 204.9522
1156.90 203.9451
1157.00 202.9138
1157.10 201.8825
1157.20 200.4542
1157.30 198.8636
1157.40 197.2731
1157.50 196.1262
1157.60 195.4999
1157.70 194.8736
1157.80 194.7474
1157.90 196.5027
1158.00 198.258
1158.10 200.0133
1158.20 201.5718
1158.30 203.1242
1158.40 204.6766
1158.50 203.59
1158.60 201.4772
1158.70 199.3643
1158.80 197.002
1158.90 194.3583
1159.00 191.7146
1159.10 189.1242
1159.20 186.7124
1159.30 184.3006
1159.40 181.8888
1159.50 181.6652
1159.60 181.4862
1159.70 181.3072
1159.80 181.552
1159.90 181.9534
1160.00 182.3549
1160.10 183.3407
1160.20 184.9348
1160.30 186.5288
1160.40 187.8954
1160.50 188.5413
1160.60 189.1873
1160.70 189.8333
1160.80 191.5311
1160.90 193.2289
1161.00 194.9267
1161.10 196.9252
1161.20 199.0238
1161.30 201.1225
1161.40 202.2099
1161.50 202.2859
1161.60 202.362
1161.70 202.0469
1161.80 200.6185
1161.90 199.1901
1162.00 197.7752
1162.10 197.7023
1162.20 197.6293
1162.30 197.5564
1162.40 199.0011
1162.50 200.8991
1162.60 202.7972
1162.70 204.8234
1162.80 206.9679
1162.90 209.1124
1163.00 210.5408
1163.10 210.0334
1163.20 209.526
1163.30 208.9473
1163.40 206.0642
1163.50 203.1811
1163.60 200.298
1163.70 197.9435
1163.80 195.7381
1163.90 193.5326
1164.00 193.2824
1164.10 194.6976
1164.20 196.1129
1164.30 197.8518
1164.40 200.3829
1164.50 202.9139
1164.60 205.2545
1164.70 203.9765
1164.80 202.6985
1164.90 201.4205
1165.00 198.7094
1165.10 195.64
1165.20 192.5706
1165.30 190.5565
1165.40 189.3717
1165.50 188.1868
1165.60 188.075
1165.70 190.3518
1165.80 192.6285
1165.90 194.8723
1166.00 196.6789
1166.10 198.4854
1166.20 200.292
1166.30 200.0571
1166.40 199.3741
1166.50 198.6912
1166.60 197.4103
1166.70 195.6964
1166.80 193.9826
1166.90 192.4073
1167.00 191.1132
1167.10 189.8192
1167.20 188.5854
1167.30 187.9607
1167.40 187.3361
1167.50 186.7115
1167.60 185.5079
1167.70 184.194
1167.80 182.88
1167.90 181.0232
1168.00 178.8043
1168.10 176.5854
1168.20 173.1209
1168.30 167.3432
1168.40 161.5655
1168.50 155.4247
1168.60 146.3456
1168.70 137.2666
1168.80 128.1875
1168.90 121.7882
1169.00 115.8251
1169.10 109.8621
1169.20 109.6059
1169.30 112.8476
1169.40 116.0892
1169.50 121.4255
1169.60 130.3284
1169.70 139.2313
1169.80 147.995
1169.90 155.8266
1170.00 163.6582
1170.10 171.4899
1170.20 176.3141
1170.30 180.7667
1170.40 185.2192
1170.50 188.0537
1170.60 189.9781
1170.70 191.9025
1170.80 193.0655
1170.90 193.0865
1171.00 193.1076
1171.10 193.0718
1171.20 192.7138
1171.30 192.3558
1171.40 191.9978
1171.50 192.0646
1171.60 192.1735
1171.70 192.2824
1171.80 192.2547
1171.90 192.1597
1172.00 192.0647
1172.10 192.1397
1172.20 192.4497
1172.30 192.7596
1172.40 193.2152
1172.50 194.3341
1172.60 195.453
1172.70 196.5719
1172.80 197.2562
1172.90 197.9127
1173.00 198.5692
1173.10 198.2913
1173.20 197.5937
1173.30 196.8961
1173.40 195.797
1173.50 194.2073
1173.60 192.6175
1173.70 191.3058
1173.80 191.0404
1173.90 190.775
1174.00 190.5095
1174.10 191.7408
1174.20 193.0344
1174.30 194.3281
1174.40 195.4708
1174.50 196.5548
1174.60 197.6388
1174.70 197.4685
1174.80 195.9392
1174.90 194.41
1175.00 192.5853
1175.10 189.7715
1175.20 186.9576
1175.30 184.1438
1175.40 182.9703
1175.50 181.8133
1175.60 180.6564
1175.70 179.7429
1175.80 178.9105
1175.90 178.0782
1176.00 176.6052
1176.10 174.4915
1176.20 172.3778
1176.30 169.2777
1176.40 163.3702
1176.50 157.4627
1176.60 151.4817
1176.70 141.8951
1176.80 132.3086
1176.90 122.7221
1177.00 113.8792
1177.10 105.2461
1177.20 96.61294
1177.30 92.58928
1177.40 92.65327
1177.50 92.71726
1177.60 94.88069
1177.70 102.1841
1177.80 109.4875
1177.90 116.8997
1178.00 126.3784
1178.10 135.857
1178.20 145.3357
1178.30 152.1517
1178.40 158.3431
1178.50 164.5345
1178.60 169.2924
1178.70 172.924
1178.80 176.5556
1178.90 179.3723
1179.00 180.4574
1179.10 181.5424
1179.20 182.5488
1179.30 182.6502
1179.40 182.7515
1179.50 182.8529
1179.60 183.3431
1179.70 183.9074
1179.80 184.4716
1179.90 185.7509
1180.00 187.5068
1180.10 189.2628
1180.20 190.8875
1180.30 192.2685
1180.40 193.6495
1180.50 194.8241
1180.60 194.329
1180.70 193.8339
1180.80 193.3388
1180.90 192.2643
1181.00 191.1031
1181.10 189.942
1181.20 189.0066
1181.30 188.2039
1181.40 187.4012
1181.50 187.0376
1181.60 187.3609
1181.70 187.6842
1181.80 188.1304
1181.90 189.2725
1182.00 190.4147
1182.10 191.5568
1182.20 192.1091
1182.30 192.5958
1182.40 193.0825
1182.50 193.3032
1182.60 193.3868
1182.70 193.4704
1182.80 193.5132
1182.90 193.4996
1183.00 193.486
1183.10 193.1653
1183.20 191.4455
1183.30 189.7258
1183.40 188.006
1183.50 186.4466
1183.60 184.8973
1183.70 183.3481
1183.80 183.8933
1183.90 185.3362
1184.00 186.779
1184.10 188.525
1184.20 190.6268
1184.30 192.7286
1184.40 194.0542
1184.50 192.6281
1184.60 191.202
1184.70 189.7759
1184.80 187.6463
1184.90 185.495
1185.00 183.3436
1185.10 183.4289
1185.20 184.3413
1185.30 185.2538
1185.40 186.7703
1185.50 188.9156
1185.60 191.0608
1185.70 192.9365
1185.80 194.0036
1185.90 195.0707
1186.00 196.1209
1186.10 195.4916
1186.20 194.8623
1186.30 194.2331
1186.40 193.1238
1186.50 191.8711
1186.60 190.6184
1186.70 189.6498
1186.80 188.9329
1186.90 188.2161
1187.00 187.9011
1187.10 188.5701
1187.20 189.2391
1187.30 189.9168
1187.40 190.7616
1187.50 191.6063
1187.60 192.451
1187.70 191.0619
1187.80 189.1489
1187.90 187.2358
1188.00 184.3241
1188.10 180.6591
1188.20 176.994
1188.30 174.2813
1188.40 173.502
1188.50 172.7226
1188.60 172.218
1188.70 174.4905
1188.80 176.7631
1188.90 179.0356
1189.00 181.3694
1189.10 183.7141
1189.20 186.0587
1189.30 187.4438
1189.40 188.2154
1189.50 188.987
1189.60 189.8463
1189.70 190.8551
1189.80 191.8639
1189.90 192.6698
1190.00 192.1181
1190.10 191.5664
1190.20 191.0146
1190.30 190.2856
1190.40 189.5347
1190.50 188.7839
1190.60 188.4015
1190.70 188.2176
1190.80 188.0337
1190.90 188.4602
1191.00 189.7651
1191.10 191.07
1191.20 192.3156
1191.30 193.2715
1191.40 194.2275
1191.50 195.1834
1191.60 195.4952
1191.70 195.7585
1191.80 196.0218
1191.90 195.5846
1192.00 194.8327
1192.10 194.0807
1192.20 193.7643
1192.30 193.9802
1192.40 194.1961
1192.50 194.4562
1192.60 194.8828
1192.70 195.3093
1192.80 195.7359
1192.90 196.1622
1193.00 196.5885
1193.10 197.0149
1193.20 195.5935
1193.30 193.4888
1193.40 191.3841
1193.50 189.1147
1193.60 186.6739
1193.70 184.2331
1193.80 182.0063
1193.90 180.3883
1194.00 178.7703
1194.10 177.1708
1194.20 176.4795
1194.30 175.7882
1194.40 175.0968
1194.50 173.2995
1194.60 171.1901
1194.70 169.0808
1194.80 167.978
1194.90 167.7327
1195.00 167.4873
1195.10 167.97
1195.20 170.1514
1195.30 172.3329
1195.40 174.4536
1195.50 175.6242
1195.60 176.7947
1195.70 177.9653
1195.80 176.7618
1195.90 175.0372
1196.00 173.3127
1196.10 171.7502
1196.20 170.305
1196.30 168.8598
1196.40 167.9127
1196.50 167.9322
1196.60 167.9517
1196.70 167.8122
1196.80 166.3865
1196.90 164.9607
1197.00 163.535
1197.10 160.544
1197.20 157.3191
1197.30 154.0942
1197.40 151.5698
1197.50 149.4567
1197.60 147.3436
1197.70 146.481
1197.80 147.5742
1197.90 148.6674
1198.00 150.1321
1198.10 153.7016
1198.20 157.2711
1198.30 160.8406
1198.40 162.8573
1198.50 164.7203
1198.60 166.5833
1198.70 165.9225
1198.80 164.074
1198.90 162.2255
1199.00 159.6022
1199.10 155.9927
1199.20 152.3833
1199.30 149.4472
1199.40 149.2046
1199.50 148.962
1199.60 148.7193
1199.70 149.5362
1199.80 150.3972
1199.90 151.2583
1200.00 152.0154
1200.10 152.7322
1200.20 153.4489
1200.30 154.208
1200.40 155.0111
1200.50 155.8143
1200.60 156.7996
1200.70 158.3317
1200.80 159.8638
1200.90 161.3859
1201.00 161.9111
1201.10 162.4362
1201.20 162.9614
1201.30 162.263
1201.40 161.1991
1201.50 160.1352
1201.60 159.3228
1201.70 158.7247
1201.80 158.1266
1201.90 157.8197
1202.00 158.1923
1202.10 158.5649
1202.20 158.9497
1202.30 159.5251
1202.40 160.1004
1202.50 160.6758
1202.60 159.7828
1202.70 158.5676
1202.80 157.3523
1202.90 156.9172
1203.00 157.0242
1203.10 157.1312
1203.20 158.209
1203.30 161.0897
1203.40 163.9704
1203.50 166.9514
1203.60 170.7446
1203.70 174.5377
1203.80 178.3309
1203.90 179.5446
1204.00 180.3728
1204.10 181.2011
1204.20 180.2294
1204.30 178.2453
1204.40 176.2612
1204.50 174.6918
1204.60 173.7447
1204.70 172.7976
1204.80 172.2626
1204.90 173.8919
1205.00 175.5212
1205.10 177.1505
1205.20 179.5042
1205.30 181.9123
1205.40 184.3205
1205.50 186.0838
1205.60 187.5574
1205.70 189.031
1205.80 189.8825
1205.90 189.9737
1206.00 190.0648
1206.10 189.7301
1206.20 187.8854
1206.30 186.0407
1206.40 184.1959
1206.50 182.1709
1206.60 180.1423
1206.70 178.1136
1206.80 178.3282
1206.90 179.3309
1207.00 180.3335
1207.10 182.3357
1207.20 185.2981
1207.30 188.2605
1207.40 191.0085
1207.50 193.1765
1207.60 195.3445
1207.70 197.458
1207.80 197.8047
1207.90 198.1514
1208.00 198.4982
1208.10 197.5702
1208.20 196.3236
1208.30 195.077
1208.40 192.3137
1208.50 188.3588
1208.60 184.4039
1208.70 180.6849
1208.80 177.4672
1208.90 174.2496
1209.00 171.4749
1209.10 173.1796
1209.20 174.8843
1209.30 176.589
1209.40 180.9727
1209.50 185.8291
1209.60 190.6855
1209.70 192.9132
1209.80 193.5297
1209.90 194.1462
1210.00 192.6615
1210.10 187.7484
1210.20 182.8353
1210.30 177.8305
1210.40 172.2626
1210.50 166.6947
1210.60 161.1267
1210.70 159.285
1210.80 157.8119
1210.90 156.3387
1211.00 157.1691
1211.10 159.134
1211.20 161.0989
1211.30 163.1952
1211.40 165.4658
1211.50 167.7364
1211.60 170.0113
1211.70 172.3039
1211.80 174.5965
1211.90 176.8891
1212.00 180.0123
1212.10 183.17
1212.20 186.3277
1212.30 187.5428
1212.40 188.0394
1212.50 188.5359
1212.60 187.0198
1212.70 183.4088
1212.80 179.7979
1212.90 176.4209
1213.00 173.7099
1213.10 170.9989
1213.20 168.4067
1213.30 171.637
1213.40 174.8673
1213.50 178.0975
1213.60 182.8846
1213.70 188.0855
1213.80 193.2864
1213.90 196.5775
1214.00 198.3062
1214.10 200.0348
1214.20 200.8505
1214.30 199.7262
1214.40 198.6018
1214.50 197.5583
1214.60 197.4442
1214.70 197.3302
1214.80 197.2162
1214.90 197.7053
1215.00 198.3009
1215.10 198.8966
1215.20 198.3823
1215.30 197.1584
1215.40 195.9346
1215.50 194.3464
1215.60 192.1637
1215.70 189.981
1215.80 188.0373
1215.90 187.561
1216.00 187.0847
1216.10 186.6084
1216.20 187.5604
1216.30 188.671
1216.40 189.7817
1216.50 191.3375
1216.60 193.1127
1216.70 194.8879
1216.80 196.1734
1216.90 196.8354
1217.00 197.4975
1217.10 197.9046
1217.20 197.2918
1217.30 196.6791
1217.40 196.0663
1217.50 196.4635
1217.60 196.8919
1217.70 197.3204
1217.80 198.6196
1217.90 200.2409
1218.00 201.8622
1218.10 203.4633
1218.20 205.0441
1218.30 206.6249
1218.40 207.3902
1218.50 205.8345
1218.60 204.2788
1218.70 202.7391
1218.80 201.718
1218.90 200.6969
1219.00 199.6757
1219.10 199.0473
1219.20 198.5232
1219.30 197.9991
1219.40 197.7313
1219.50 197.6648
1219.60 197.5984
1219.70 197.3895
1219.80 196.878
1219.90 196.3665
1220.00 195.9359
1220.10 196.3242
1220.20 196.7124
1220.30 197.1007
1220.40 197.272
1220.50 197.4081
1220.60 197.5441
1220.70 196.4246
1220.80 194.5356
1220.90 192.6466
1221.00 190.7267
1221.10 188.7584
1221.20 186.7902
1221.30 184.9998
1221.40 184.2174
1221.50 183.4351
1221.60 182.6527
1221.70 182.8634
1221.80 183.1605
1221.90 183.4575
1222.00 183.4539
1222.10 183.3151
1222.20 183.1763
1222.30 183.3467
1222.40 183.8949
1222.50 184.4431
1222.60 185.6576
1222.70 189.2347
1222.80 192.8117
1222.90 196.3888
1223.00 200.7323
1223.10 205.0914
1223.20 209.4506
1223.30 211.7864
1223.40 213.4478
1223.50 215.1091
1223.60 215.1533
1223.70 213.7046
1223.80 212.2558
1223.90 210.7687
1224.00 209.1828
1224.10 207.5969
1224.20 206.0879
1224.30 206.0384
1224.40 205.9889
1224.50 205.9394
1224.60 206.9978
1224.70 208.2994
1224.80 209.601
1224.90 210.6454
1225.00 211.5037
1225.10 212.3619
1225.20 212.2762
1225.30 210.4373
1225.40 208.5983
1225.50 206.7498
1225.60 204.8304
1225.70 202.9111
1225.80 200.9917
1225.90 201.5962
1226.00 202.5448
1226.10 203.4934
1226.20 205.6807
1226.30 208.5351
1226.40 211.3895
1226.50 213.2981
1226.60 213.9006
1226.70 214.5032
1226.80 214.6078
1226.90 212.4446
1227.00 210.2814
1227.10 208.1181
1227.20 207.2422
1227.30 206.4341
1227.40 205.626
1227.50 206.5836
1227.60 208.2279
1227.70 209.8722
1227.80 211.3401
1227.90 212.6168
1228.00 213.8934
1228.10 214.7642
1228.20 214.4173
1228.30 214.0703
1228.40 213.6922
1228.50 211.7873
1228.60 209.8823
1228.70 207.9773
1228.80 206.3493
1228.90 204.7948
1229.00 203.2404
1229.10 201.1795
1229.20 198.7044
1229.30 196.2292
1229.40 194.2887
1229.50 193.4846
1229.60 192.6804
1229.70 192.0965
1229.80 193.7398
1229.90 195.3831
1230.00 197.0264
1230.10 200.3062
1230.20 203.8748
1230.30 207.4434
1230.40 209.5901
1230.50 210.8654
1230.60 212.1406
1230.70 212.3107
1230.80 210.7525
1230.90 209.1943
1231.00 207.6789
1231.10 206.3884
1231.20 205.0979
1231.30 203.8074
1231.40 203.3693
1231.50 203.0054
1231.60 202.6415
1231.70 202.3966
1231.80 202.2052
1231.90 202.0138
1232.00 201.7274
1232.10 201.3295
1232.20 200.9317
1232.30 200.5962
1232.40 200.4695
1232.50 200.3429
1232.60 200.2163
1232.70 198.9459
1232.80 197.6754
1232.90 196.405
1233.00 195.354
1233.10 194.3722
1233.20 193.3905
1233.30 193.4948
1233.40 194.562
1233.50 195.6293
1233.60 196.8608
1233.70 198.4756
1233.80 200.0904
1233.90 201.508
1234.00 200.3044
1234.10 199.1008
1234.20 197.8973
1234.30 196.683
1234.40 195.4664
1234.50 194.2499
1234.60 194.4386
1234.70 195.5642
1234.80 196.6897
1234.90 198.1506
1235.00 200.1826
1235.10 202.2146
1235.20 203.8328
1235.30 202.9087
1235.40 201.9846
1235.50 201.0606
1235.60 199.3826
1235.70 197.63
1235.80 195.8775
1235.90 195.2392
1236.00 195.1253
1236.10 195.0114
1236.20 196.2698
1236.30 199.2747
1236.40 202.2796
1236.50 204.9637
1236.60 206.4408
1236.70 207.9179
1236.80 209.395
1236.90 207.543
1237.00 205.6232
1237.10 203.7034
1237.20 200.9732
1237.30 197.9729
1237.40 194.9726
1237.50 193.8024
1237.60 194.3217
1237.70 194.841
1237.80 195.9241
1237.90 198.3875
1238.00 200.8509
1238.10 203.1338
1238.20 202.5879
1238.30 202.042
1238.40 201.4961
1238.50 197.2418
1238.60 192.1735
1238.70 187.1051
1238.80 182.2047
1238.90 177.421
1239.00 172.6374
1239.10 169.4106
1239.20 168.9514
1239.30 168.4923
1239.40 168.4082
1239.50 170.8335
1239.60 173.2588
1239.70 175.684
1239.80 177.202
1239.90 178.6191
1240.00 180.0363
1240.10 179.262
1240.20 177.4084
1240.30 175.5548
1240.40 174.102
1240.50 173.1593
1240.60 172.2165
1240.70 171.9583
1240.80 174.2749
1240.90 176.5915
1241.00 178.9082
1241.10 180.8283
1241.20 182.7362
1241.30 184.6441
1241.40 183.4725
1241.50 181.2189
1241.60 178.9654
1241.70 176.3964
1241.80 173.5244
1241.90 170.6524
1242.00 168.4079
1242.10 167.7771
1242.20 167.1463
1242.30 166.4629
1242.40 164.78
1242.50 163.097
1242.60 161.414
1242.70 156.2798
1242.80 150.388
1242.90 144.4962
1243.00 138.8377
1243.10 133.3413
1243.20 127.8448
1243.30 124.7554
1243.40 125.9451
1243.50 127.1348
1243.60 129.0107
1243.70 135.479
1243.80 141.9473
1243.90 148.4156
1244.00 154.3258
1244.10 160.174
1244.20 166.0222
1244.30 170.2362
1244.40 173.6453
1244.50 177.0544
1244.60 180.2763
1244.70 183.26
1244.80 186.2438
1244.90 188.9957
1245.00 190.8752
1245.10 192.7548
1245.20 194.6344
1245.30 194.7696
1245.40 194.8692
1245.50 194.9688
1245.60 193.7313
1245.70 192.0481
1245.80 190.365
1245.90 189.0097
1246.00 187.9571
1246.10 186.9045
1246.20 186.5389
1246.30 187.8552
1246.40 189.1715
1246.50 190.5548
1246.60 192.987
1246.70 195.4192
1246.80 197.8514
1246.90 199.0739
1247.00 200.0487
1247.10 201.0235
1247.20 200.81
1247.30 199.8041
1247.40 198.7983
1247.50 197.682
1247.60 196.3777
1247.70 195.0733
1247.80 193.7916
1247.90 192.6489
1248.00 191.5061
1248.10 190.3634
1248.20 190.2264
1248.30 190.1889
1248.40 190.1514
1248.50 190.689
1248.60 191.4974
1248.70 192.3058
1248.80 192.8998
1248.90 193.2318
1249.00 193.5639
1249.10 193.6808
1249.20 193.0347
1249.30 192.3886
1249.40 191.7425
1249.50 190.9256
1249.60 190.107
1249.70 189.2883
1249.80 189.5692
1249.90 190.1973
1250.00 190.8253
1250.10 191.0037
1250.20 190.7834
1250.30 190.5631
1250.40 190.0957
1250.50 189.0517
1250.60 188.0077
1250.70 186.8991
1250.80 184.9314
1250.90 182.9638
1251.00 180.9961
1251.10 179.103
1251.20 177.224
1251.30 175.3451
1251.40 171.9607
1251.50 167.6139
1251.60 163.2671
1251.70 157.5154
1251.80 149.4712
1251.90 141.4271
1252.00 133.6212
1252.10 127.1653
1252.20 120.7093
1252.30 114.2534
1252.40 116.1734
1252.50 118.8217
1252.60 121.47
1252.70 129.0581
1252.80 138.8655
1252.90 148.6728
1253.00 157.7017
1253.10 165.8167
1253.20 173.9317
1253.30 180.921
1253.40 184.1416
1253.50 187.3622
1253.60 190.5829
1253.70 192.3644
1253.80 194.146
1253.90 195.9275
1254.00 196.4717
1254.10 196.6669
1254.20 196.862
1254.30 196.8135
1254.40 196.5655
1254.50 196.3175
1254.60 196.0356
1254.70 195.6817
1254.80 195.3279
1254.90 195.2059
1255.00 197.4289
1255.10 199.6519
1255.20 201.8748
1255.30 204.0499
1255.40 206.2171
1255.50 208.3843
1255.60 210.1001
1255.70 211.5508
1255.80 213.0014
1255.90 213.1971
1256.00 211.5101
1256.10 209.8232
1256.20 208.1706
1256.30 206.6858
1256.40 205.2009
1256.50 203.7161
1256.60 203.6693
1256.70 203.7144
1256.80 203.7595
1256.90 204.2991
1257.00 205.0408
1257.10 205.7825
1257.20 206.1617
1257.30 206.1636
1257.40 206.1655
1257.50 206.4599
1257.60 207.5869
1257.70 208.7139
1257.80 209.8684
1257.90 211.9134
1258.00 213.9584
1258.10 216.0034
1258.20 216.4475
1258.30 216.4913
1258.40 216.5351
1258.50 214.7852
1258.60 211.6822
1258.70 208.5791
1258.80 205.4703
1258.90 202.3503
1259.00 199.2303
1259.10 196.3705
1259.20 195.6153
1259.30 194.8602
1259.40 194.1051
1259.50 195.7204
1259.60 197.6287
1259.70 199.537
1259.80 201.2558
1259.90 202.8769
1260.00 204.498
1260.10 205.9801
1260.20 207.278
1260.30 208.5758
1260.40 209.9567
1260.50 211.6699
1260.60 213.383
1260.70 215.0961
1260.80 217.6727
1260.90 220.2759
1261.00 222.8792
1261.10 223.2274
1261.20 222.7833
1261.30 222.3391
1261.40 220.776
1261.50 218.1798
1261.60 215.5837
1261.70 213.1322
1261.80 211.0346
1261.90 208.9369
1262.00 207.019
1262.10 207.9167
1262.20 208.8144
1262.30 209.712
1262.40 210.8954
1262.50 212.1373
1262.60 213.3791
1262.70 213.85
1262.80 213.8069
1262.90 213.7638
1263.00 213.4219
1263.10 212.5926
1263.20 211.7633
1263.30 210.8803
1263.40 209.6934
1263.50 208.5064
1263.60 207.3195
1263.70 205.8789
1263.80 204.4163
1263.90 202.9537
1264.00 201.4078
1264.10 199.8245
1264.20 198.2413
1264.30 197.6086
1264.40 198.0478
1264.50 198.487
1264.60 199.3565
1264.70 201.5889
1264.80 203.8213
1264.90 206.0468
1265.00 207.5828
1265.10 209.1188
1265.20 210.6548
1265.30 211.1113
1265.40 211.2632
1265.50 211.4152
1265.60 211.2744
1265.70 210.894
1265.80 210.5136
1265.90 210.3596
1266.00 210.6655
1266.10 210.9714
1266.20 211.2331
1266.30 211.0981
1266.40 210.9631
1266.50 210.8281
1266.60 211.7329
1266.70 212.793
1266.80 213.8531
1266.90 215.1366
1267.00 216.5457
1267.10 217.9549
1267.20 219.3134
1267.30 220.602
1267.40 221.8907
1267.50 223.0744
1267.60 223.8111
1267.70 224.5477
1267.80 225.2844
1267.90 224.9454
1268.00 224.5615
1268.10 224.1777
1268.20 223.1943
1268.30 221.9891
1268.40 220.784
1268.50 219.573
1268.60 218.3565
1268.70 217.14
1268.80 216.2639
1268.90 216.2633
1269.00 216.2627
1269.10 216.2544
1269.20 216.1003
1269.30 215.9462
1269.40 215.7921
1269.50 214.8619
1269.60 213.7612
1269.70 212.6606
1269.80 211.5604
1269.90 210.4604
1270.00 209.3604
1270.10 208.3961
1270.20 207.6628
1270.30 206.9295
1270.40 206.5813
1270.50 208.5981
1270.60 210.615
1270.70 212.6318
1270.80 215.1317
1270.90 217.6735
1271.00 220.2153
1271.10 222.2031
1271.20 223.9421
1271.30 225.681
1271.40 226.1595
1271.50 225.1583
1271.60 224.1571
1271.70 223.2495
1271.80 222.6382
1271.90 222.0269
1272.00 221.4207
1272.10 221.3197
1272.20 221.2187
1272.30 221.1176
1272.40 220.7265
1272.50 220.2536
1272.60 219.7806
1272.70 218.8063
1272.80 217.4218
1272.90 216.0372
1273.00 214.9458
1273.10 214.4494
1273.20 213.953
1273.30 213.4251
1273.40 212.614
1273.50 211.8029
1273.60 210.9919
1273.70 209.1503
1273.80 207.1682
1273.90 205.1861
1274.00 204.3506
1274.10 204.1326
1274.20 203.9146
1274.30 205.1623
1274.40 208.4341
1274.50 211.706
1274.60 214.7487
1274.70 216.8748
1274.80 219.0009
1274.90 221.1271
1275.00 220.192
1275.10 219.1623
1275.20 218.1326
1275.30 217.9059
1275.40 217.9614
1275.50 218.0169
1275.60 219.3862
1275.70 221.968
1275.80 224.5499
1275.90 226.5296
1276.00 227.035
1276.10 227.5405
1276.20 227.9016
1276.30 226.0012
1276.40 224.1008
1276.50 222.2005
1276.60 220.9261
1276.70 219.771
1276.80 218.616
1276.90 219.2286
1277.00 220.9716
1277.10 222.7145
1277.20 224.0259
1277.30 224.6334
1277.40 225.241
1277.50 225.6173
1277.60 224.78
1277.70 223.9427
1277.80 223.1055
1277.90 220.1345
1278.00 217.0029
1278.10 213.8713
1278.20 212.4359
1278.30 211.6934
1278.40 210.9509
1278.50 210.8978
1278.60 211.5917
1278.70 212.2856
1278.80 213.5039
1278.90 216.2955
1279.00 219.087
1279.10 221.8443
1279.20 223.4929
1279.30 225.1415
1279.40 226.79
1279.50 227.2257
1279.60 227.3582
1279.70 227.4907
1279.80 226.5893
1279.90 224.9078
1280.00 223.2264
1280.10 221.5579
1280.20 219.9135
1280.30 218.2691
1280.40 216.7238
1280.50 215.9049
1280.60 215.0861
1280.70 214.2672
1280.80 214.2699
1280.90 214.3638
1281.00 214.4577
1281.10 214.8196
1281.20 215.3135
1281.30 215.8074
1281.40 216.3179
1281.50 216.8495
1281.60 217.3811
1281.70 217.8491
1281.80 218.0914
1281.90 218.3338
1282.00 218.5761
1282.10 219.599
1282.20 220.6299
1282.30 221.6607
1282.40 222.3373
1282.50 222.9082
1282.60 223.479
1282.70 223.3835
1282.80 222.7205
1282.90 222.0575
1283.00 221.4483
1283.10 220.9536
1283.20 220.4588
1283.30 219.9701
1283.40 219.5429
1283.50 219.1157
1283.60 218.6884
1283.70 218.2356
1283.80 217.7787
1283.90 217.3217
1284.00 216.6941
1284.10 215.9704
1284.20 215.2468
1284.30 215.1805
1284.40 216.0604
1284.50 216.9402
1284.60 217.8807
1284.70 219.0798
1284.80 220.2789
1284.90 221.4781
1285.00 221.26
1285.10 220.9828
1285.20 220.7056
1285.30 218.6566
1285.40 215.985
1285.50 213.3134
1285.60 210.6321
1285.70 207.9415
1285.80 205.2509
1285.90 203.1739
1286.00 202.5993
1286.10 202.0247
1286.20 201.6012
1286.30 203.5458
1286.40 205.4904
1286.50 207.435
1286.60 210.5662
1286.70 213.9404
1286.80 217.3147
1286.90 219.7532
1287.00 221.5933
1287.10 223.4335
1287.20 224.0082
1287.30 222.5181
1287.40 221.028
1287.50 219.2131
1287.60 215.6927
1287.70 212.1723
1287.80 208.6519
1287.90 206.819
1288.00 205.1131
1288.10 203.4073
1288.20 203.3499
1288.30 203.9658
1288.40 204.5817
1288.50 206.0521
1288.60 208.4481
1288.70 210.8441
1288.80 213.0224
1288.90 214.5813
1289.00 216.1401
1289.10 217.6742
1289.20 218.4079
1289.30 219.1416
1289.40 219.8753
1289.50 218.9461
1289.60 217.6269
1289.70 216.3076
1289.80 215.152
1289.90 214.1149
1290.00 213.0778
1290.10 212.5338
1290.20 212.8665
1290.30 213.1991
1290.40 213.526
1290.50 213.8137
1290.60 214.1013
1290.70 214.389
1290.80 214.5284
1290.90 214.6531
1291.00 214.7779
1291.10 214.3272
1291.20 213.6057
1291.30 212.8842
1291.40 212.6677
1291.50 213.044
1291.60 213.4203
1291.70 214.0074
1291.80 215.3005
1291.90 216.5935
1292.00 217.8825
1292.10 218.7716
1292.20 219.6606
1292.30 220.5497
1292.40 219.6313
1292.50 218.203
1292.60 216.7747
1292.70 214.7614
1292.80 212.2883
1292.90 209.8152
1293.00 208.3363
1293.10 208.8757
1293.20 209.415
1293.30 210.0283
1293.40 211.2396
1293.50 212.4509
1293.60 213.6622
1293.70 214.834
1293.80 216.0005
1293.90 217.1669
1294.00 217.4057
1294.10 217.1666
1294.20 216.9275
1294.30 217.0654
1294.40 217.6832
1294.50 218.301
1294.60 219.0042
1294.70 220.0285
1294.80 221.0528
1294.90 222.0771
1295.00 220.9004
1295.10 219.7015
1295.20 218.5026
1295.30 215.9404
1295.40 212.9476
1295.50 209.9548
1295.60 207.7604
1295.70 206.2462
1295.80 204.732
1295.90 204.0707
1296.00 205.3076
1296.10 206.5445
1296.20 207.7424
1296.30 208.5466
1296.40 209.3508
1296.50 210.1549
1296.60 210.5802
1296.70 210.9438
1296.80 211.3074
1296.90 211.6128
1297.00 211.8856
1297.10 212.1583
1297.20 212.5135
1297.30 212.9827
1297.40 213.4519
1297.50 213.7926
1297.60 213.5859
1297.70 213.3792
1297.80 213.1725
1297.90 213.879
1298.00 214.6138
1298.10 215.3485
1298.20 217.0694
1298.30 219.1367
1298.40 221.2041
1298.50 222.8872
1298.60 224.2156
1298.70 225.5441
1298.80 226.2336
1298.90 225.3586
1299.00 224.4836
1299.10 223.529
1299.20 221.5183
1299.30 219.5075
1299.40 217.4968
1299.50 215.719
1299.60 213.9824
1299.70 212.2458
1299.80 211.0975
1299.90 210.3097
