# Version 2.1 - nm, norm@500 to 1, cut digits
# Wavelength(nm)  Flambda(ergs/cm^s/s/nm)
300.00 1.157869e-95
300.10 1.157869e-95
300.20 1.157869e-95
300.30 1.157869e-95
300.40 1.157869e-95
300.50 1.157869e-95
300.60 1.157869e-95
300.70 1.157869e-95
300.80 1.157869e-95
300.90 1.157869e-95
301.00 1.157869e-95
301.10 1.157869e-95
301.20 1.157869e-95
301.30 1.157869e-95
301.40 1.157869e-95
301.50 1.157869e-95
301.60 1.157869e-95
301.70 1.157869e-95
301.80 1.157869e-95
301.90 1.157869e-95
302.00 1.157869e-95
302.10 1.157869e-95
302.20 1.157869e-95
302.30 1.157869e-95
302.40 1.157869e-95
302.50 1.157869e-95
302.60 1.157869e-95
302.70 1.157869e-95
302.80 1.157869e-95
302.90 1.157869e-95
303.00 1.157869e-95
303.10 1.157869e-95
303.20 1.157869e-95
303.30 1.157869e-95
303.40 1.157869e-95
303.50 1.157869e-95
303.60 1.157869e-95
303.70 1.157869e-95
303.80 1.157869e-95
303.90 1.157869e-95
304.00 1.157869e-95
304.10 1.157869e-95
304.20 1.157869e-95
304.30 1.157869e-95
304.40 1.157869e-95
304.50 1.157869e-95
304.60 1.157869e-95
304.70 1.157869e-95
304.80 1.157869e-95
304.90 1.157869e-95
305.00 1.157869e-95
305.10 1.157869e-95
305.20 1.157869e-95
305.30 1.157869e-95
305.40 1.157869e-95
305.50 1.157869e-95
305.60 1.157869e-95
305.70 1.157869e-95
305.80 1.157869e-95
305.90 1.157869e-95
306.00 1.157869e-95
306.10 1.157869e-95
306.20 1.157869e-95
306.30 1.157869e-95
306.40 1.157869e-95
306.50 1.157869e-95
306.60 1.157869e-95
306.70 1.157869e-95
306.80 1.157869e-95
306.90 1.157869e-95
307.00 1.157869e-95
307.10 1.157869e-95
307.20 1.157869e-95
307.30 1.157869e-95
307.40 1.157869e-95
307.50 1.157869e-95
307.60 1.157869e-95
307.70 1.157869e-95
307.80 1.157869e-95
307.90 1.157869e-95
308.00 1.157869e-95
308.10 1.157869e-95
308.20 1.157869e-95
308.30 1.157869e-95
308.40 1.157869e-95
308.50 1.157869e-95
308.60 1.157869e-95
308.70 1.157869e-95
308.80 1.157869e-95
308.90 1.157869e-95
309.00 1.157869e-95
309.10 1.157869e-95
309.20 1.157869e-95
309.30 1.157869e-95
309.40 1.157869e-95
309.50 1.157869e-95
309.60 1.157869e-95
309.70 1.157869e-95
309.80 1.157869e-95
309.90 1.157869e-95
310.00 1.157869e-95
310.10 1.157869e-95
310.20 1.157869e-95
310.30 1.157869e-95
310.40 1.157869e-95
310.50 1.157869e-95
310.60 1.157869e-95
310.70 1.157869e-95
310.80 1.157869e-95
310.90 1.157869e-95
311.00 1.157869e-95
311.10 1.157869e-95
311.20 1.157869e-95
311.30 1.157869e-95
311.40 1.157869e-95
311.50 1.157869e-95
311.60 1.157869e-95
311.70 1.157869e-95
311.80 1.157869e-95
311.90 1.157869e-95
312.00 1.157869e-95
312.10 1.157869e-95
312.20 1.157869e-95
312.30 1.157869e-95
312.40 1.157869e-95
312.50 1.157869e-95
312.60 1.157869e-95
312.70 1.157869e-95
312.80 1.157869e-95
312.90 1.157869e-95
313.00 1.157869e-95
313.10 1.157869e-95
313.20 1.157869e-95
313.30 1.157869e-95
313.40 1.157869e-95
313.50 1.157869e-95
313.60 1.157869e-95
313.70 1.157869e-95
313.80 1.157869e-95
313.90 1.157869e-95
314.00 1.157869e-95
314.10 1.157869e-95
314.20 1.157869e-95
314.30 1.157869e-95
314.40 1.157869e-95
314.50 1.157869e-95
314.60 1.157869e-95
314.70 1.157869e-95
314.80 1.157869e-95
314.90 1.157869e-95
315.00 1.157869e-95
315.10 1.157869e-95
315.20 1.157869e-95
315.30 1.157869e-95
315.40 1.157869e-95
315.50 1.157869e-95
315.60 1.157869e-95
315.70 1.157869e-95
315.80 1.157869e-95
315.90 1.157869e-95
316.00 1.157869e-95
316.10 1.157869e-95
316.20 1.157869e-95
316.30 1.157869e-95
316.40 1.157869e-95
316.50 1.157869e-95
316.60 1.157869e-95
316.70 1.157869e-95
316.80 1.157869e-95
316.90 1.157869e-95
317.00 1.157869e-95
317.10 1.157869e-95
317.20 1.157869e-95
317.30 1.157869e-95
317.40 1.157869e-95
317.50 1.157869e-95
317.60 1.157869e-95
317.70 1.157869e-95
317.80 1.157869e-95
317.90 1.157869e-95
318.00 1.157869e-95
318.10 1.157869e-95
318.20 1.157869e-95
318.30 1.157869e-95
318.40 1.157869e-95
318.50 1.157869e-95
318.60 1.157869e-95
318.70 1.157869e-95
318.80 1.157869e-95
318.90 1.157869e-95
319.00 1.157869e-95
319.10 1.157869e-95
319.20 1.157869e-95
319.30 1.157869e-95
319.40 1.157869e-95
319.50 1.157869e-95
319.60 1.157869e-95
319.70 1.157869e-95
319.80 1.157869e-95
319.90 1.157869e-95
320.00 1.157869e-95
320.10 1.157869e-95
320.20 1.157869e-95
320.30 1.157869e-95
320.40 1.157869e-95
320.50 1.157869e-95
320.60 1.157869e-95
320.70 1.157869e-95
320.80 1.157869e-95
320.90 1.157869e-95
321.00 1.157869e-95
321.10 1.157869e-95
321.20 1.157869e-95
321.30 1.157869e-95
321.40 1.157869e-95
321.50 1.157869e-95
321.60 1.157869e-95
321.70 1.157869e-95
321.80 1.157869e-95
321.90 1.157869e-95
322.00 1.157869e-95
322.10 1.157869e-95
322.20 1.157869e-95
322.30 1.157869e-95
322.40 1.157869e-95
322.50 1.157869e-95
322.60 1.157869e-95
322.70 1.157869e-95
322.80 1.157869e-95
322.90 1.157869e-95
323.00 1.157869e-95
323.10 1.157869e-95
323.20 1.157869e-95
323.30 1.157869e-95
323.40 1.157869e-95
323.50 1.157869e-95
323.60 1.157869e-95
323.70 1.157869e-95
323.80 1.157869e-95
323.90 1.157869e-95
324.00 1.157869e-95
324.10 1.157869e-95
324.20 1.157869e-95
324.30 1.157869e-95
324.40 1.157869e-95
324.50 1.157869e-95
324.60 1.157869e-95
324.70 1.157869e-95
324.80 1.157869e-95
324.90 1.157869e-95
325.00 1.157869e-95
325.10 1.157869e-95
325.20 1.157869e-95
325.30 1.157869e-95
325.40 1.157869e-95
325.50 1.157869e-95
325.60 1.157869e-95
325.70 1.157869e-95
325.80 1.157869e-95
325.90 1.157869e-95
326.00 1.157869e-95
326.10 1.157869e-95
326.20 1.157869e-95
326.30 1.157869e-95
326.40 1.157869e-95
326.50 1.157869e-95
326.60 1.157869e-95
326.70 1.157869e-95
326.80 1.157869e-95
326.90 1.157869e-95
327.00 1.157869e-95
327.10 1.157869e-95
327.20 1.157869e-95
327.30 1.157869e-95
327.40 1.157869e-95
327.50 1.157869e-95
327.60 1.157869e-95
327.70 1.157869e-95
327.80 1.157869e-95
327.90 1.157869e-95
328.00 1.157869e-95
328.10 1.157869e-95
328.20 1.157869e-95
328.30 1.157869e-95
328.40 1.157869e-95
328.50 1.157869e-95
328.60 1.157869e-95
328.70 1.157869e-95
328.80 1.157869e-95
328.90 1.157869e-95
329.00 1.157869e-95
329.10 1.157869e-95
329.20 1.157869e-95
329.30 1.157869e-95
329.40 1.157869e-95
329.50 1.157869e-95
329.60 1.157869e-95
329.70 1.157869e-95
329.80 1.157869e-95
329.90 1.157869e-95
330.00 1.157869e-95
330.10 1.157869e-95
330.20 1.157869e-95
330.30 1.157869e-95
330.40 1.157869e-95
330.50 1.157869e-95
330.60 1.157869e-95
330.70 1.157869e-95
330.80 1.157869e-95
330.90 1.157869e-95
331.00 1.157869e-95
331.10 1.157869e-95
331.20 1.157869e-95
331.30 1.157869e-95
331.40 1.157869e-95
331.50 1.157869e-95
331.60 1.157869e-95
331.70 1.157869e-95
331.80 1.157869e-95
331.90 1.157869e-95
332.00 1.157869e-95
332.10 1.157869e-95
332.20 1.157869e-95
332.30 1.157869e-95
332.40 1.157869e-95
332.50 1.157869e-95
332.60 1.157869e-95
332.70 1.157869e-95
332.80 1.157869e-95
332.90 1.157869e-95
333.00 1.157869e-95
333.10 1.157869e-95
333.20 1.157869e-95
333.30 1.157869e-95
333.40 1.157869e-95
333.50 1.157869e-95
333.60 1.157869e-95
333.70 1.157869e-95
333.80 1.157869e-95
333.90 1.157869e-95
334.00 1.157869e-95
334.10 1.157869e-95
334.20 1.157869e-95
334.30 1.157869e-95
334.40 1.157869e-95
334.50 1.157869e-95
334.60 1.157869e-95
334.70 1.157869e-95
334.80 1.157869e-95
334.90 1.157869e-95
335.00 1.157869e-95
335.10 1.157869e-95
335.20 1.157869e-95
335.30 1.157869e-95
335.40 1.157869e-95
335.50 1.157869e-95
335.60 1.157869e-95
335.70 1.157869e-95
335.80 1.157869e-95
335.90 1.157869e-95
336.00 1.157869e-95
336.10 1.157869e-95
336.20 1.157869e-95
336.30 1.157869e-95
336.40 1.157869e-95
336.50 1.157869e-95
336.60 1.157869e-95
336.70 1.157869e-95
336.80 1.157869e-95
336.90 1.157869e-95
337.00 1.157869e-95
337.10 1.157869e-95
337.20 1.157869e-95
337.30 1.157869e-95
337.40 1.157869e-95
337.50 1.157869e-95
337.60 1.157869e-95
337.70 1.157869e-95
337.80 1.157869e-95
337.90 1.157869e-95
338.00 1.157869e-95
338.10 1.157869e-95
338.20 1.157869e-95
338.30 1.157869e-95
338.40 1.157869e-95
338.50 1.157869e-95
338.60 1.157869e-95
338.70 1.157869e-95
338.80 1.157869e-95
338.90 1.157869e-95
339.00 1.157869e-95
339.10 1.157869e-95
339.20 1.157869e-95
339.30 1.157869e-95
339.40 1.157869e-95
339.50 1.157869e-95
339.60 1.157869e-95
339.70 1.157869e-95
339.80 1.157869e-95
339.90 1.157869e-95
340.00 1.157869e-95
340.10 1.157869e-95
340.20 1.157869e-95
340.30 1.157869e-95
340.40 1.157869e-95
340.50 1.157869e-95
340.60 1.157869e-95
340.70 1.157869e-95
340.80 1.157869e-95
340.90 1.157869e-95
341.00 1.157869e-95
341.10 1.157869e-95
341.20 1.157869e-95
341.30 1.157869e-95
341.40 1.157869e-95
341.50 1.157869e-95
341.60 1.157869e-95
341.70 1.157869e-95
341.80 1.157869e-95
341.90 1.157869e-95
342.00 1.157869e-95
342.10 1.157869e-95
342.20 1.157869e-95
342.30 1.157869e-95
342.40 1.157869e-95
342.50 1.157869e-95
342.60 1.157869e-95
342.70 1.157869e-95
342.80 1.157869e-95
342.90 1.157869e-95
343.00 1.157869e-95
343.10 1.157869e-95
343.20 1.157869e-95
343.30 1.157869e-95
343.40 1.157869e-95
343.50 1.157869e-95
343.60 1.157869e-95
343.70 1.157869e-95
343.80 1.157869e-95
343.90 1.157869e-95
344.00 1.157869e-95
344.10 1.157869e-95
344.20 1.157869e-95
344.30 1.157869e-95
344.40 1.157869e-95
344.50 1.157869e-95
344.60 1.157869e-95
344.70 1.157869e-95
344.80 1.157869e-95
344.90 1.157869e-95
345.00 1.157869e-95
345.10 1.157869e-95
345.20 1.157869e-95
345.30 1.157869e-95
345.40 1.157869e-95
345.50 1.157869e-95
345.60 1.157869e-95
345.70 1.157869e-95
345.80 1.157869e-95
345.90 1.157869e-95
346.00 1.157869e-95
346.10 1.157869e-95
346.20 1.157869e-95
346.30 1.157869e-95
346.40 1.157869e-95
346.50 1.157869e-95
346.60 1.157869e-95
346.70 1.157869e-95
346.80 1.157869e-95
346.90 1.157869e-95
347.00 1.157869e-95
347.10 1.157869e-95
347.20 1.157869e-95
347.30 1.157869e-95
347.40 1.157869e-95
347.50 1.157869e-95
347.60 1.157869e-95
347.70 1.157869e-95
347.80 1.157869e-95
347.90 1.157869e-95
348.00 1.157869e-95
348.10 1.157869e-95
348.20 1.157869e-95
348.30 1.157869e-95
348.40 1.157869e-95
348.50 1.157869e-95
348.60 1.157869e-95
348.70 1.157869e-95
348.80 1.157869e-95
348.90 1.157869e-95
349.00 1.157869e-95
349.10 1.157869e-95
349.20 1.157869e-95
349.30 1.157869e-95
349.40 1.157869e-95
349.50 1.157869e-95
349.60 1.157869e-95
349.70 1.157869e-95
349.80 1.157869e-95
349.90 1.157869e-95
350.00 1.157869e-95
350.10 1.157869e-95
350.20 1.157869e-95
350.30 1.157869e-95
350.40 1.157869e-95
350.50 1.157869e-95
350.60 1.157869e-95
350.70 1.157869e-95
350.80 1.157869e-95
350.90 1.157869e-95
351.00 1.157869e-95
351.10 1.157869e-95
351.20 1.157869e-95
351.30 1.157869e-95
351.40 1.157869e-95
351.50 1.157869e-95
351.60 1.157869e-95
351.70 1.157869e-95
351.80 1.157869e-95
351.90 1.157869e-95
352.00 1.157869e-95
352.10 1.157869e-95
352.20 1.157869e-95
352.30 1.157869e-95
352.40 1.157869e-95
352.50 1.157869e-95
352.60 1.157869e-95
352.70 1.157869e-95
352.80 1.157869e-95
352.90 1.157869e-95
353.00 1.157869e-95
353.10 1.157869e-95
353.20 1.157869e-95
353.30 1.157869e-95
353.40 1.157869e-95
353.50 1.157869e-95
353.60 1.157869e-95
353.70 1.157869e-95
353.80 1.157869e-95
353.90 1.157869e-95
354.00 1.157869e-95
354.10 1.157869e-95
354.20 1.157869e-95
354.30 1.157869e-95
354.40 1.157869e-95
354.50 1.157869e-95
354.60 1.157869e-95
354.70 1.157869e-95
354.80 1.157869e-95
354.90 1.157869e-95
355.00 1.157869e-95
355.10 1.157869e-95
355.20 1.157869e-95
355.30 1.157869e-95
355.40 1.157869e-95
355.50 1.157869e-95
355.60 1.157869e-95
355.70 1.157869e-95
355.80 1.157869e-95
355.90 1.157869e-95
356.00 1.157869e-95
356.10 1.157869e-95
356.20 1.157869e-95
356.30 1.157869e-95
356.40 1.157869e-95
356.50 1.157869e-95
356.60 1.157869e-95
356.70 1.157869e-95
356.80 1.157869e-95
356.90 1.157869e-95
357.00 1.157869e-95
357.10 1.157869e-95
357.20 1.157869e-95
357.30 1.157869e-95
357.40 1.157869e-95
357.50 1.157869e-95
357.60 1.157869e-95
357.70 1.157869e-95
357.80 1.157869e-95
357.90 1.157869e-95
358.00 1.157869e-95
358.10 1.157869e-95
358.20 1.157869e-95
358.30 1.157869e-95
358.40 1.157869e-95
358.50 1.157869e-95
358.60 1.157869e-95
358.70 1.157869e-95
358.80 1.157869e-95
358.90 1.157869e-95
359.00 1.157869e-95
359.10 1.157869e-95
359.20 1.157869e-95
359.30 1.157869e-95
359.40 1.157869e-95
359.50 1.157869e-95
359.60 1.157869e-95
359.70 1.157869e-95
359.80 1.157869e-95
359.90 1.157869e-95
360.00 1.157869e-95
360.10 1.157869e-95
360.20 1.157869e-95
360.30 1.157869e-95
360.40 1.157869e-95
360.50 1.157869e-95
360.60 1.157869e-95
360.70 1.157869e-95
360.80 1.157869e-95
360.90 1.157869e-95
361.00 1.157869e-95
361.10 1.157869e-95
361.20 1.157869e-95
361.30 1.157869e-95
361.40 1.157869e-95
361.50 1.157869e-95
361.60 1.157869e-95
361.70 1.157869e-95
361.80 1.157869e-95
361.90 1.157869e-95
362.00 1.157869e-95
362.10 1.157869e-95
362.20 1.157869e-95
362.30 1.157869e-95
362.40 1.157869e-95
362.50 1.157869e-95
362.60 1.157869e-95
362.70 1.157869e-95
362.80 1.157869e-95
362.90 1.157869e-95
363.00 1.157869e-95
363.10 1.157869e-95
363.20 1.157869e-95
363.30 1.157869e-95
363.40 1.157869e-95
363.50 1.157869e-95
363.60 1.157869e-95
363.70 1.157869e-95
363.80 1.157869e-95
363.90 1.157869e-95
364.00 1.157869e-95
364.10 1.157869e-95
364.20 1.157869e-95
364.30 1.157869e-95
364.40 1.157869e-95
364.50 1.157869e-95
364.60 1.157869e-95
364.70 1.157869e-95
364.80 1.157869e-95
364.90 1.157869e-95
365.00 1.157869e-95
365.10 1.157869e-95
365.20 1.157869e-95
365.30 1.157869e-95
365.40 1.157869e-95
365.50 1.157869e-95
365.60 1.157869e-95
365.70 1.157869e-95
365.80 1.157869e-95
365.90 1.157869e-95
366.00 1.157869e-95
366.10 1.157869e-95
366.20 1.157869e-95
366.30 1.157869e-95
366.40 1.157869e-95
366.50 1.157869e-95
366.60 1.157869e-95
366.70 1.157869e-95
366.80 1.157869e-95
366.90 1.157869e-95
367.00 1.157869e-95
367.10 1.157869e-95
367.20 1.157869e-95
367.30 1.157869e-95
367.40 1.157869e-95
367.50 1.157869e-95
367.60 1.157869e-95
367.70 1.157869e-95
367.80 1.157869e-95
367.90 1.157869e-95
368.00 1.157869e-95
368.10 1.157869e-95
368.20 1.157869e-95
368.30 1.157869e-95
368.40 1.157869e-95
368.50 1.157869e-95
368.60 1.157869e-95
368.70 1.157869e-95
368.80 1.157869e-95
368.90 1.157869e-95
369.00 1.157869e-95
369.10 1.157869e-95
369.20 1.157869e-95
369.30 1.157869e-95
369.40 1.157869e-95
369.50 1.157869e-95
369.60 1.157869e-95
369.70 1.157869e-95
369.80 1.157869e-95
369.90 1.157869e-95
370.00 1.157869e-95
370.10 1.157869e-95
370.20 1.157869e-95
370.30 1.157869e-95
370.40 1.157869e-95
370.50 1.157869e-95
370.60 1.157869e-95
370.70 1.157869e-95
370.80 1.157869e-95
370.90 1.157869e-95
371.00 1.157869e-95
371.10 1.157869e-95
371.20 1.157869e-95
371.30 1.157869e-95
371.40 1.157869e-95
371.50 1.157869e-95
371.60 1.157869e-95
371.70 1.157869e-95
371.80 1.157869e-95
371.90 1.157869e-95
372.00 1.157869e-95
372.10 1.157869e-95
372.20 1.157869e-95
372.30 1.157869e-95
372.40 1.157869e-95
372.50 1.157869e-95
372.60 1.157869e-95
372.70 1.157869e-95
372.80 1.157869e-95
372.90 1.157869e-95
373.00 1.157869e-95
373.10 1.157869e-95
373.20 1.157869e-95
373.30 1.157869e-95
373.40 1.157869e-95
373.50 1.157869e-95
373.60 1.157869e-95
373.70 1.157869e-95
373.80 1.157869e-95
373.90 1.157869e-95
374.00 1.157869e-95
374.10 1.157869e-95
374.20 1.157869e-95
374.30 1.157869e-95
374.40 1.157869e-95
374.50 1.157869e-95
374.60 1.157869e-95
374.70 1.157869e-95
374.80 1.157869e-95
374.90 1.157869e-95
375.00 1.157869e-95
375.10 1.157869e-95
375.20 1.157869e-95
375.30 1.157869e-95
375.40 1.157869e-95
375.50 1.157869e-95
375.60 1.157869e-95
375.70 1.157869e-95
375.80 1.157869e-95
375.90 1.157869e-95
376.00 1.157869e-95
376.10 1.157869e-95
376.20 1.157869e-95
376.30 1.157869e-95
376.40 1.157869e-95
376.50 1.157869e-95
376.60 1.157869e-95
376.70 1.157869e-95
376.80 1.157869e-95
376.90 1.157869e-95
377.00 1.157869e-95
377.10 1.157869e-95
377.20 1.157869e-95
377.30 1.157869e-95
377.40 1.157869e-95
377.50 1.157869e-95
377.60 1.157869e-95
377.70 1.157869e-95
377.80 1.157869e-95
377.90 1.157869e-95
378.00 1.157869e-95
378.10 1.157869e-95
378.20 1.157869e-95
378.30 1.157869e-95
378.40 1.157869e-95
378.50 1.157869e-95
378.60 1.157869e-95
378.70 1.157869e-95
378.80 1.157869e-95
378.90 1.157869e-95
379.00 1.157869e-95
379.10 1.157869e-95
379.20 1.157869e-95
379.30 1.157869e-95
379.40 1.157869e-95
379.50 1.157869e-95
379.60 1.157869e-95
379.70 1.157869e-95
379.80 1.157869e-95
379.90 1.157869e-95
380.00 1.157869e-95
380.10 1.157869e-95
380.20 1.157869e-95
380.30 1.157869e-95
380.40 1.157869e-95
380.50 1.157869e-95
380.60 1.157869e-95
380.70 1.157869e-95
380.80 1.157869e-95
380.90 1.157869e-95
381.00 1.157869e-95
381.10 1.157869e-95
381.20 1.157869e-95
381.30 1.157869e-95
381.40 1.157869e-95
381.50 1.157869e-95
381.60 1.157869e-95
381.70 1.157869e-95
381.80 1.157869e-95
381.90 1.157869e-95
382.00 1.157869e-95
382.10 1.157869e-95
382.20 1.157869e-95
382.30 1.157869e-95
382.40 1.157869e-95
382.50 1.157869e-95
382.60 1.157869e-95
382.70 1.157869e-95
382.80 1.157869e-95
382.90 1.157869e-95
383.00 1.157869e-95
383.10 1.157869e-95
383.20 1.157869e-95
383.30 1.157869e-95
383.40 1.157869e-95
383.50 1.157869e-95
383.60 1.157869e-95
383.70 1.157869e-95
383.80 1.157869e-95
383.90 1.157869e-95
384.00 1.157869e-95
384.10 1.157869e-95
384.20 1.157869e-95
384.30 1.157869e-95
384.40 1.157869e-95
384.50 1.157869e-95
384.60 1.157869e-95
384.70 1.157869e-95
384.80 1.157869e-95
384.90 1.157869e-95
385.00 1.157869e-95
385.10 1.157869e-95
385.20 1.157869e-95
385.30 1.157869e-95
385.40 1.157869e-95
385.50 1.157869e-95
385.60 1.157869e-95
385.70 1.157869e-95
385.80 1.157869e-95
385.90 1.157869e-95
386.00 1.157869e-95
386.10 1.157869e-95
386.20 1.157869e-95
386.30 1.157869e-95
386.40 1.157869e-95
386.50 1.157869e-95
386.60 1.157869e-95
386.70 1.157869e-95
386.80 1.157869e-95
386.90 1.157869e-95
387.00 1.157869e-95
387.10 1.157869e-95
387.20 1.157869e-95
387.30 1.157869e-95
387.40 1.157869e-95
387.50 1.157869e-95
387.60 1.157869e-95
387.70 1.157869e-95
387.80 1.157869e-95
387.90 1.157869e-95
388.00 1.157869e-95
388.10 1.157869e-95
388.20 1.157869e-95
388.30 1.157869e-95
388.40 1.157869e-95
388.50 1.157869e-95
388.60 1.157869e-95
388.70 1.157869e-95
388.80 1.157869e-95
388.90 1.157869e-95
389.00 1.157869e-95
389.10 1.157869e-95
389.20 1.157869e-95
389.30 1.157869e-95
389.40 1.157869e-95
389.50 1.157869e-95
389.60 1.157869e-95
389.70 1.157869e-95
389.80 1.157869e-95
389.90 1.157869e-95
390.00 1.157869e-95
390.10 1.157869e-95
390.20 1.157869e-95
390.30 1.157869e-95
390.40 1.157869e-95
390.50 1.157869e-95
390.60 1.157869e-95
390.70 1.157869e-95
390.80 1.157869e-95
390.90 1.157869e-95
391.00 1.157869e-95
391.10 1.157869e-95
391.20 1.157869e-95
391.30 1.157869e-95
391.40 1.157869e-95
391.50 1.157869e-95
391.60 1.157869e-95
391.70 1.157869e-95
391.80 1.157869e-95
391.90 1.157869e-95
392.00 1.157869e-95
392.10 1.157869e-95
392.20 1.157869e-95
392.30 1.157869e-95
392.40 1.157869e-95
392.50 1.157869e-95
392.60 1.157869e-95
392.70 1.157869e-95
392.80 1.157869e-95
392.90 1.157869e-95
393.00 1.157869e-95
393.10 1.157869e-95
393.20 1.157869e-95
393.30 1.157869e-95
393.40 1.157869e-95
393.50 1.157869e-95
393.60 1.157869e-95
393.70 1.157869e-95
393.80 1.157869e-95
393.90 1.157869e-95
394.00 1.157869e-95
394.10 1.157869e-95
394.20 1.157869e-95
394.30 1.157869e-95
394.40 1.157869e-95
394.50 1.157869e-95
394.60 1.157869e-95
394.70 1.157869e-95
394.80 1.157869e-95
394.90 1.157869e-95
395.00 0.01375919
395.10 0.02650526
395.20 0.03803289
395.30 0.04822984
395.40 0.05692374
395.50 0.06393598
395.60 0.06946499
395.70 0.0738454
395.80 0.0774297
395.90 0.08086351
396.00 0.08539711
396.10 0.09260203
396.20 0.103599
396.30 0.1186667
396.40 0.137079
396.50 0.1571689
396.60 0.1767492
396.70 0.1936513
396.80 0.2062711
396.90 0.2138402
397.00 0.2164117
397.10 0.2164117
397.20 0.2164117
397.30 0.2164117
397.40 0.2164117
397.50 0.2164117
397.60 0.2176848
397.70 0.2206172
397.80 0.2242015
397.90 0.2276375
398.00 0.2305234
398.10 0.2329355
398.20 0.2353921
398.30 0.2386278
398.40 0.2432388
398.50 0.2494461
398.60 0.2567669
398.70 0.2642046
398.80 0.2707979
398.90 0.2757789
399.00 0.278535
399.10 0.2789292
399.20 0.2789292
399.30 0.2789292
399.40 0.2789292
399.50 0.2789292
399.60 0.2789292
399.70 0.2789292
399.80 0.2789292
399.90 0.2789292
400.00 0.2789292
400.10 0.2789292
400.20 0.2789292
400.30 0.2789292
400.40 0.2789292
400.50 0.2789292
400.60 0.2789292
400.70 0.279428
400.80 0.2818698
400.90 0.2867871
401.00 0.2941783
401.10 0.3035035
401.20 0.3139854
401.30 0.3250137
401.40 0.3360182
401.50 0.3463516
401.60 0.3553566
401.70 0.3624958
401.80 0.3675071
401.90 0.3706563
402.00 0.3728979
402.10 0.3754716
402.20 0.3796159
402.30 0.3861662
402.40 0.3952745
402.50 0.4065098
402.60 0.419044
402.70 0.4318757
402.80 0.4442229
402.90 0.4558321
403.00 0.4666237
403.10 0.4761549
403.20 0.4838196
403.30 0.489268
403.40 0.4923415
403.50 0.4930922
403.60 0.4930922
403.70 0.4930922
403.80 0.4930922
403.90 0.4930922
404.00 0.4930922
404.10 0.4952122
404.20 0.5001706
404.30 0.507053
404.40 0.5147844
404.50 0.5226997
404.60 0.5305058
404.70 0.5379177
404.80 0.5447098
404.90 0.5508005
405.00 0.5426306
405.10 0.5357939
405.20 0.5318071
405.30 0.5319426
405.40 0.5368969
405.50 0.5470992
405.60 0.5625207
405.70 0.5822787
405.80 0.604662
405.90 0.6273103
406.00 0.6473364
406.10 0.6618593
406.20 0.6689547
406.30 0.668371
406.40 0.6616667
406.50 0.6516766
406.60 0.641426
406.70 0.6336786
406.80 0.630752
406.90 0.6338085
407.00 0.6425465
407.10 0.6540059
407.20 0.6651212
407.30 0.6754353
407.40 0.6842868
407.50 0.6910153
407.60 0.6942014
407.70 0.6939655
407.80 0.6921547
407.90 0.690298
408.00 0.6896585
408.10 0.6911807
408.20 0.6950149
408.30 0.7003785
408.40 0.70631
408.50 0.7120635
408.60 0.7169666
408.70 0.7205801
408.80 0.7228265
408.90 0.724098
409.00 0.72508
409.10 0.7262339
409.20 0.7264257
409.30 0.7266572
409.40 0.7284419
409.50 0.7329604
409.60 0.7409095
409.70 0.7525272
409.80 0.7672421
409.90 0.7838788
410.00 0.8013674
410.10 0.8188087
410.20 0.8354877
410.30 0.8509502
410.40 0.8651318
410.50 0.8784621
410.60 0.8914263
410.70 0.9037249
410.80 0.9140075
410.90 0.9218558
411.00 0.9274173
411.10 0.9312126
411.20 0.9337984
411.30 0.935956
411.40 0.9387954
411.50 0.9433288
411.60 0.9502282
411.70 0.9596404
411.80 0.9711288
411.90 0.9835353
412.00 0.9952464
412.10 1.004843
412.20 1.011245
412.30 1.014092
412.40 1.0139
412.50 1.011788
412.60 1.008887
412.70 1.005661
412.80 1.001859
412.90 0.9968272
413.00 0.9902048
413.10 0.9826411
413.20 0.9757212
413.30 0.9711292
413.40 0.9700611
413.50 0.9732042
413.60 0.9793144
413.70 0.9873266
413.80 0.9963591
413.90 1.005315
414.00 1.013326
414.10 1.017736
414.20 1.017715
414.30 1.014494
414.40 1.009725
414.50 1.005
414.60 1.00139
414.70 0.999788
414.80 1.001012
414.90 1.005302
415.00 1.012128
415.10 1.019969
415.20 1.026734
415.30 1.030628
415.40 1.030709
415.50 1.026363
415.60 1.017072
415.70 1.003295
415.80 0.9864947
415.90 0.9684905
416.00 0.9511206
416.10 0.9357856
416.20 0.9232908
416.30 0.9137477
416.40 0.9065587
416.50 0.900814
416.60 0.8957468
416.70 0.8906003
416.80 0.8843684
416.90 0.8765616
417.00 0.8677075
417.10 0.8586641
417.20 0.8501905
417.30 0.8428983
417.40 0.8374607
417.50 0.8346146
417.60 0.8345989
417.70 0.8367784
417.80 0.8399478
417.90 0.8429525
418.00 0.8447406
418.10 0.8443402
418.20 0.8412712
418.30 0.835671
418.40 0.8276773
418.50 0.8176524
418.60 0.8067538
418.70 0.7964252
418.80 0.7878119
418.90 0.7815654
419.00 0.7778724
419.10 0.7766141
419.20 0.7773002
419.30 0.7787961
419.40 0.779503
419.50 0.778015
419.60 0.7733803
419.70 0.7652163
419.80 0.7543505
419.90 0.7424024
420.00 0.7308853
420.10 0.7211533
420.20 0.7142153
420.30 0.7104149
420.40 0.7093301
420.50 0.7098701
420.60 0.7107424
420.70 0.7111994
420.80 0.7111058
420.90 0.7103528
421.00 0.7086838
421.10 0.7059304
421.20 0.7019463
421.30 0.6961878
421.40 0.6880675
421.50 0.6775894
421.60 0.665269
421.70 0.652071
421.80 0.6392654
421.90 0.6281583
422.00 0.619547
422.10 0.6132541
422.20 0.608459
422.30 0.604326
422.40 0.6002449
422.50 0.5958106
422.60 0.5910966
422.70 0.587107
422.80 0.58538
422.90 0.5871059
423.00 0.5927233
423.10 0.601741
423.20 0.6126991
423.30 0.6236814
423.40 0.6329295
423.50 0.6390078
423.60 0.6408829
423.70 0.6381336
423.80 0.6312056
423.90 0.6222497
424.00 0.6142383
424.10 0.607709
424.20 0.6027714
424.30 0.6008386
424.40 0.6029904
424.50 0.6082088
424.60 0.6152426
424.70 0.6227171
424.80 0.6291617
424.90 0.633527
425.00 0.6352448
425.10 0.6341739
425.20 0.6304289
425.30 0.6245301
425.40 0.6171291
425.50 0.60871
425.60 0.5998889
425.70 0.5914701
425.80 0.5841136
425.90 0.5779436
426.00 0.5725915
426.10 0.5678491
426.20 0.5637135
426.30 0.5601181
426.40 0.5570687
426.50 0.5547394
426.60 0.5533976
426.70 0.5530351
426.80 0.5534524
426.90 0.5542941
427.00 0.5549302
427.10 0.5548475
427.20 0.5538714
427.30 0.5523238
427.40 0.5507066
427.50 0.5490298
427.60 0.5470362
427.70 0.5446818
427.80 0.542125
427.90 0.5395638
428.00 0.5372068
428.10 0.5353499
428.20 0.5341231
428.30 0.533609
428.40 0.5339884
428.50 0.5351363
428.60 0.5368466
428.70 0.5392023
428.80 0.5424472
428.90 0.5466353
429.00 0.5514254
429.10 0.5562675
429.20 0.5605809
429.30 0.5640037
429.40 0.5665462
429.50 0.568312
429.60 0.5695478
429.70 0.5704751
429.80 0.570981
429.90 0.5708788
430.00 0.5699275
430.10 0.5677675
430.20 0.5642264
430.30 0.5594884
430.40 0.5541482
430.50 0.5490853
430.60 0.5450935
430.70 0.5423899
430.80 0.5405043
430.90 0.5388341
431.00 0.5368046
431.10 0.5341349
431.20 0.5310259
431.30 0.527891
431.40 0.5251926
431.50 0.5231957
431.60 0.5218867
431.70 0.521256
431.80 0.5211343
431.90 0.5210145
432.00 0.5203418
432.10 0.5188894
432.20 0.5170012
432.30 0.5151373
432.40 0.5135824
432.50 0.5124128
432.60 0.5115356
432.70 0.5106673
432.80 0.5092192
432.90 0.5065631
433.00 0.5021533
433.10 0.4957246
433.20 0.487582
433.30 0.4784328
433.40 0.4692021
433.50 0.4607713
433.60 0.4538365
433.70 0.4490755
433.80 0.4470036
433.90 0.4470036
434.00 0.4470036
434.10 0.4470036
434.20 0.4470036
434.30 0.4452753
434.40 0.4401612
434.50 0.431982
434.60 0.4225879
434.70 0.4127826
434.80 0.4031407
434.90 0.3940491
435.00 0.3855725
435.10 0.3774608
435.20 0.3695247
435.30 0.3618292
435.40 0.3555019
435.50 0.3510517
435.60 0.3490867
435.70 0.3499217
435.80 0.3526086
435.90 0.3562948
436.00 0.3603129
436.10 0.3640632
436.20 0.3669654
436.30 0.3685425
436.40 0.3686481
436.50 0.3674392
436.60 0.3652072
436.70 0.3624005
436.80 0.3595169
436.90 0.3568884
437.00 0.354909
437.10 0.3541673
437.20 0.355042
437.30 0.3573122
437.40 0.3604307
437.50 0.3641493
437.60 0.3684606
437.70 0.3733147
437.80 0.3787088
437.90 0.3848151
438.00 0.3916801
438.10 0.3991727
438.20 0.4073883
438.30 0.4165299
438.40 0.4267839
438.50 0.438394
438.60 0.4513646
438.70 0.4653544
438.80 0.4797994
438.90 0.493952
439.00 0.5072762
439.10 0.5196836
439.20 0.5311285
439.30 0.5412827
439.40 0.5498285
439.50 0.5566898
439.60 0.5617006
439.70 0.5647298
439.80 0.5657639
439.90 0.5648331
440.00 0.5621998
440.10 0.5583008
440.20 0.5534893
440.30 0.5482654
440.40 0.5435221
440.50 0.5401883
440.60 0.5388941
440.70 0.5399025
440.80 0.5431537
440.90 0.548378
441.00 0.555299
441.10 0.5632974
441.20 0.5715705
441.30 0.5795277
441.40 0.5866825
441.50 0.5928023
441.60 0.5980132
441.70 0.6023057
441.80 0.6054216
441.90 0.6072503
442.00 0.6080155
442.10 0.6083812
442.20 0.608959
442.30 0.6099137
442.40 0.6109813
442.50 0.6118453
442.60 0.612397
442.70 0.6127397
442.80 0.6131711
442.90 0.6139514
443.00 0.6154492
443.10 0.6181427
443.20 0.6221262
443.30 0.6270216
443.40 0.6324119
443.50 0.6379543
443.60 0.6434712
443.70 0.6489057
443.80 0.6543952
443.90 0.6600946
444.00 0.6666173
444.10 0.674323
444.20 0.6830506
444.30 0.6921981
444.40 0.7008738
444.50 0.7078776
444.60 0.7111028
444.70 0.7102232
444.80 0.7056772
444.90 0.7000227
445.00 0.6943661
445.10 0.6897986
445.20 0.6871743
445.30 0.6879573
445.40 0.6913104
445.50 0.6961814
445.60 0.7014012
445.70 0.7058864
445.80 0.7099251
445.90 0.7143456
446.00 0.7200198
446.10 0.727414
446.20 0.7367114
446.30 0.7477532
446.40 0.7594885
446.50 0.7700316
446.60 0.7774521
446.70 0.780831
446.80 0.780724
446.90 0.7796921
447.00 0.7785799
447.10 0.7769882
447.20 0.7755048
447.30 0.7753588
447.40 0.7765516
447.50 0.7788656
447.60 0.7818542
447.70 0.7849173
447.80 0.7876213
447.90 0.7898172
448.00 0.7916017
448.10 0.7928601
448.20 0.7929851
448.30 0.7917099
448.40 0.7893289
448.50 0.7860557
448.60 0.7820085
448.70 0.7772832
448.80 0.7718672
448.90 0.7657624
449.00 0.7589073
449.10 0.7511606
449.20 0.7427375
449.30 0.7344103
449.40 0.7271575
449.50 0.7218819
449.60 0.7192291
449.70 0.7192663
449.80 0.7217209
449.90 0.7265053
450.00 0.7336827
450.10 0.7431233
450.20 0.7544791
450.30 0.7670465
450.40 0.779478
450.50 0.7901244
450.60 0.7976507
450.70 0.8014503
450.80 0.8017846
450.90 0.7996292
451.00 0.7965616
451.10 0.7946376
451.20 0.7957032
451.30 0.800618
451.40 0.8091217
451.50 0.8202424
451.60 0.8326581
451.70 0.8451247
451.80 0.8571254
451.90 0.8687827
452.00 0.8803706
452.10 0.8919908
452.20 0.90362
452.30 0.9155798
452.40 0.9284518
452.50 0.9424569
452.60 0.957228
452.70 0.972064
452.80 0.9861566
452.90 0.9986463
453.00 1.00877
453.10 1.015963
453.20 1.019883
453.30 1.020759
453.40 1.019295
453.50 1.016485
453.60 1.013474
453.70 1.011124
453.80 1.009789
453.90 1.009503
454.00 1.010137
454.10 1.011483
454.20 1.013604
454.30 1.017083
454.40 1.022765
454.50 1.0313
454.60 1.042892
454.70 1.057182
454.80 1.073439
454.90 1.089282
455.00 1.104467
455.10 1.119241
455.20 1.133815
455.30 1.146876
455.40 1.158084
455.50 1.167988
455.60 1.176684
455.70 1.183726
455.80 1.188381
455.90 1.190043
456.00 1.18861
456.10 1.184461
456.20 1.178362
456.30 1.171407
456.40 1.16503
456.50 1.160951
456.60 1.160851
456.70 1.165542
456.80 1.174206
456.90 1.183628
457.00 1.191795
457.10 1.197702
457.20 1.20008
457.30 1.198014
457.40 1.192518
457.50 1.185222
457.60 1.177897
457.70 1.172202
457.80 1.169314
457.90 1.16945
458.00 1.171864
458.10 1.175481
458.20 1.17938
458.30 1.182753
458.40 1.185205
458.50 1.186851
458.60 1.1877
458.70 1.187598
458.80 1.186441
458.90 1.184356
459.00 1.181966
459.10 1.179954
459.20 1.178419
459.30 1.177097
459.40 1.175789
459.50 1.174467
459.60 1.173527
459.70 1.17379
459.80 1.175981
459.90 1.180239
460.00 1.186094
460.10 1.192714
460.20 1.199261
460.30 1.205223
460.40 1.210187
460.50 1.213721
460.60 1.215975
460.70 1.217648
460.80 1.219492
460.90 1.221983
461.00 1.2249
461.10 1.227496
461.20 1.229237
461.30 1.230364
461.40 1.231671
461.50 1.233973
461.60 1.237873
461.70 1.24328
461.80 1.249342
461.90 1.25509
462.00 1.259603
462.10 1.262127
462.20 1.262044
462.30 1.258761
462.40 1.252201
462.50 1.243045
462.60 1.232273
462.70 1.220702
462.80 1.209117
462.90 1.198596
463.00 1.190171
463.10 1.184909
463.20 1.183925
463.30 1.187628
463.40 1.195458
463.50 1.205984
463.60 1.217314
463.70 1.227654
463.80 1.235582
463.90 1.240096
464.00 1.240795
464.10 1.23813
464.20 1.233129
464.30 1.226773
464.40 1.219734
464.50 1.212366
464.60 1.204866
464.70 1.197455
464.80 1.190189
464.90 1.1829
465.00 1.175227
465.10 1.166787
465.20 1.157331
465.30 1.146735
465.40 1.135009
465.50 1.122526
465.60 1.1101
465.70 1.09885
465.80 1.090104
465.90 1.084655
466.00 1.082452
466.10 1.082865
466.20 1.084751
466.30 1.086813
466.40 1.088256
466.50 1.088999
466.60 1.089253
466.70 1.089409
466.80 1.090217
466.90 1.092862
467.00 1.09864
467.10 1.108236
467.20 1.121227
467.30 1.136519
467.40 1.152779
467.50 1.168603
467.60 1.182821
467.70 1.194348
467.80 1.202011
467.90 1.204856
468.00 1.202763
468.10 1.196643
468.20 1.188115
468.30 1.178502
468.40 1.168318
468.50 1.158084
468.60 1.148744
468.70 1.141274
468.80 1.136413
468.90 1.134568
469.00 1.135802
469.10 1.139962
469.20 1.14689
469.30 1.156323
469.40 1.167504
469.50 1.179235
469.60 1.190158
469.70 1.19898
469.80 1.204812
469.90 1.207078
470.00 1.205545
470.10 1.200558
470.20 1.19278
470.30 1.182908
470.40 1.171951
470.50 1.161424
470.60 1.152591
470.70 1.146052
470.80 1.141859
470.90 1.139473
471.00 1.13783
471.10 1.135726
471.20 1.131994
471.30 1.125511
471.40 1.115628
471.50 1.102396
471.60 1.086538
471.70 1.069637
471.80 1.053574
471.90 1.03964
472.00 1.028518
472.10 1.02034
472.20 1.014942
472.30 1.012106
472.40 1.011388
472.50 1.012138
472.60 1.01379
472.70 1.016088
472.80 1.018799
472.90 1.021498
473.00 1.023632
473.10 1.024298
473.20 1.022558
473.30 1.018225
473.40 1.011925
473.50 1.004825
473.60 0.9983748
473.70 0.9939437
473.80 0.9924393
473.90 0.9940986
474.00 0.9984438
474.10 1.004374
474.20 1.010462
474.30 1.015332
474.40 1.018098
474.50 1.018623
474.60 1.017348
474.70 1.01505
474.80 1.01298
474.90 1.012636
475.00 1.015103
475.10 1.020751
475.20 1.029213
475.30 1.039558
475.40 1.050455
475.50 1.060281
475.60 1.067513
475.70 1.071088
475.80 1.070607
475.90 1.066614
476.00 1.060291
476.10 1.052956
476.20 1.045918
476.30 1.040283
476.40 1.036582
476.50 1.034506
476.60 1.033449
476.70 1.032844
476.80 1.032054
476.90 1.030385
477.00 1.027181
477.10 1.022091
477.20 1.015001
477.30 1.005859
477.40 0.9948314
477.50 0.9823714
477.60 0.9691184
477.70 0.9560025
477.80 0.9442805
477.90 0.9356499
478.00 0.9315242
478.10 0.9321275
478.20 0.9365546
478.30 0.9433864
478.40 0.9511705
478.50 0.9583947
478.60 0.9637818
478.70 0.9665641
478.80 0.9665548
478.90 0.9639888
479.00 0.9591203
479.10 0.9522189
479.20 0.9437282
479.30 0.9338772
479.40 0.922632
479.50 0.910197
479.60 0.8971934
479.70 0.8844031
479.80 0.8722982
479.90 0.8611946
480.00 0.8513585
480.10 0.8429268
480.20 0.8362487
480.30 0.831981
480.40 0.8306771
480.50 0.8323416
480.60 0.8365177
480.70 0.8424108
480.80 0.8490129
480.90 0.8553645
481.00 0.8606587
481.10 0.8643713
481.20 0.8664912
481.30 0.8675163
481.40 0.867991
481.50 0.8682555
481.60 0.8683264
481.70 0.8678993
481.80 0.866729
481.90 0.8649201
482.00 0.8627952
482.10 0.8607924
482.20 0.8593832
482.30 0.8588668
482.40 0.8595245
482.50 0.8616027
482.60 0.8650976
482.70 0.8696156
482.80 0.8747512
482.90 0.8804162
483.00 0.8865812
483.10 0.8930324
483.20 0.8992989
483.30 0.9046968
483.40 0.9086321
483.50 0.910882
483.60 0.9114808
483.70 0.9108637
483.80 0.909606
483.90 0.9081523
484.00 0.9070008
484.10 0.9067077
484.20 0.9076587
484.30 0.909918
484.40 0.9132831
484.50 0.9175147
484.60 0.9223844
484.70 0.9274116
484.80 0.9315333
484.90 0.9334043
485.00 0.9321612
485.10 0.9274592
485.20 0.9197627
485.30 0.9105415
485.40 0.9017723
485.50 0.8954769
485.60 0.8933253
485.70 0.8961176
485.80 0.9035492
485.90 0.9144936
486.00 0.9275246
486.10 0.9412743
486.20 0.9544999
486.30 0.9661291
486.40 0.975318
486.50 0.9816325
486.60 0.984957
486.70 0.9854016
486.80 0.9835145
486.90 0.9802198
487.00 0.9767945
487.10 0.9748643
487.20 0.9759367
487.30 0.9807277
487.40 0.9889801
487.50 0.9997486
487.60 1.01179
487.70 1.024011
487.80 1.035646
487.90 1.04587
488.00 1.05387
488.10 1.059427
488.20 1.062935
488.30 1.065172
488.40 1.066957
488.50 1.06885
488.60 1.07125
488.70 1.074447
488.80 1.07844
488.90 1.083053
489.00 1.088214
489.10 1.093668
489.20 1.098856
489.30 1.103581
489.40 1.108355
489.50 1.113719
489.60 1.119576
489.70 1.125526
489.80 1.131385
489.90 1.137015
490.00 1.14216
490.10 1.146767
490.20 1.150801
490.30 1.153888
490.40 1.15563
490.50 1.155892
490.60 1.154772
490.70 1.152485
490.80 1.149016
490.90 1.144316
491.00 1.138909
491.10 1.133677
491.20 1.129137
491.30 1.125371
491.40 1.122413
491.50 1.120168
491.60 1.118471
491.70 1.117315
491.80 1.116642
491.90 1.116261
492.00 1.115978
492.10 1.11554
492.20 1.114648
492.30 1.112917
492.40 1.109632
492.50 1.103932
492.60 1.095633
492.70 1.085521
492.80 1.074841
492.90 1.064741
493.00 1.056162
493.10 1.049782
493.20 1.045807
493.30 1.043999
493.40 1.043759
493.50 1.044302
493.60 1.044825
493.70 1.044595
493.80 1.043449
493.90 1.04187
494.00 1.040465
494.10 1.039642
494.20 1.039418
494.30 1.039543
494.40 1.039783
494.50 1.040037
494.60 1.040304
494.70 1.040647
494.80 1.041252
494.90 1.042523
495.00 1.045109
495.10 1.049737
495.20 1.056705
495.30 1.065588
495.40 1.07526
495.50 1.084239
495.60 1.09129
495.70 1.095795
495.80 1.097662
495.90 1.096906
496.00 1.093618
496.10 1.088196
496.20 1.081432
496.30 1.07422
496.40 1.067266
496.50 1.061205
496.60 1.05655
496.70 1.05344
496.80 1.051616
496.90 1.050569
497.00 1.049556
497.10 1.047548
497.20 1.043574
497.30 1.037327
497.40 1.029236
497.50 1.020095
497.60 1.010772
497.70 1.001876
497.80 0.9938105
497.90 0.9869051
498.00 0.9814612
498.10 0.9776663
498.20 0.9753881
498.30 0.974218
498.40 0.9737812
498.50 0.9741211
498.60 0.9754651
498.70 0.9779138
498.80 0.9814702
498.90 0.9860136
499.00 0.991179
499.10 0.9965599
499.20 1.001758
499.30 1.006299
499.40 1.009556
499.50 1.011003
499.60 1.010714
499.70 1.009179
499.80 1.006829
499.90 1.003778
500.00 1
500.10 0.9953075
500.20 0.9894072
500.30 0.9822079
500.40 0.9737738
500.50 0.9643709
500.60 0.9545366
500.70 0.9449447
500.80 0.9365175
500.90 0.9303392
501.00 0.9271789
501.10 0.9273132
501.20 0.9306987
501.30 0.9370303
501.40 0.9457077
501.50 0.9560664
501.60 0.9674083
501.70 0.978879
501.80 0.9897111
501.90 0.9992997
502.00 1.007239
502.10 1.01348
502.20 1.018188
502.30 1.02158
502.40 1.02406
502.50 1.026162
502.60 1.028043
502.70 1.029459
502.80 1.030043
502.90 1.029524
503.00 1.027914
503.10 1.025607
503.20 1.023491
503.30 1.022662
503.40 1.023977
503.50 1.027926
503.60 1.034545
503.70 1.043296
503.80 1.053011
503.90 1.062153
504.00 1.069499
504.10 1.07464
504.20 1.077988
504.30 1.080297
504.40 1.082373
504.50 1.084908
504.60 1.088304
504.70 1.092767
504.80 1.09837
504.90 1.104786
505.00 1.111273
505.10 1.117138
505.20 1.121942
505.30 1.125495
505.40 1.127831
505.50 1.128946
505.60 1.128699
505.70 1.127053
505.80 1.124121
505.90 1.120305
506.00 1.116157
506.10 1.112238
506.20 1.109034
506.30 1.106836
506.40 1.105817
506.50 1.105829
506.60 1.106481
506.70 1.107634
506.80 1.109341
506.90 1.111452
507.00 1.113681
507.10 1.115857
507.20 1.117916
507.30 1.119682
507.40 1.120848
507.50 1.121133
507.60 1.120291
507.70 1.118326
507.80 1.115454
507.90 1.112103
508.00 1.108966
508.10 1.106646
508.20 1.105593
508.30 1.106314
508.40 1.108936
508.50 1.112823
508.60 1.116949
508.70 1.120313
508.80 1.122259
508.90 1.122561
509.00 1.121315
509.10 1.118929
509.20 1.116066
509.30 1.113546
509.40 1.112175
509.50 1.112492
509.60 1.114629
509.70 1.11825
509.80 1.123017
509.90 1.128911
510.00 1.135949
510.10 1.14413
510.20 1.153249
510.30 1.162831
510.40 1.1724
510.50 1.181465
510.60 1.189625
510.70 1.196538
510.80 1.201736
510.90 1.20469
511.00 1.205004
511.10 1.202598
511.20 1.197608
511.30 1.19032
511.40 1.181146
511.50 1.170486
511.60 1.158829
511.70 1.146851
511.80 1.135203
511.90 1.124483
512.00 1.115194
512.10 1.107741
512.20 1.102598
512.30 1.100228
512.40 1.100715
512.50 1.103699
512.60 1.108498
512.70 1.114091
512.80 1.119328
512.90 1.123158
513.00 1.124834
513.10 1.123968
513.20 1.120542
513.30 1.114951
513.40 1.107996
513.50 1.100564
513.60 1.093368
513.70 1.086949
513.80 1.081625
513.90 1.077539
514.00 1.074529
514.10 1.071997
514.20 1.069305
514.30 1.066249
514.40 1.06286
514.50 1.059314
514.60 1.055971
514.70 1.053157
514.80 1.050987
514.90 1.049431
515.00 1.048182
515.10 1.046661
515.20 1.04441
515.30 1.041149
515.40 1.036925
515.50 1.032227
515.60 1.027611
515.70 1.023523
515.80 1.020354
515.90 1.018228
516.00 1.017156
516.10 1.017184
516.20 1.018266
516.30 1.020408
516.40 1.02376
516.50 1.028512
516.60 1.034715
516.70 1.041977
516.80 1.049621
516.90 1.057459
517.00 1.065838
517.10 1.075044
517.20 1.085335
517.30 1.097091
517.40 1.110464
517.50 1.125203
517.60 1.140804
517.70 1.156497
517.80 1.171343
517.90 1.184447
518.00 1.19507
518.10 1.202951
518.20 1.208354
518.30 1.211616
518.40 1.213229
518.50 1.214032
518.60 1.214894
518.70 1.216419
518.80 1.218741
518.90 1.221478
519.00 1.223967
519.10 1.225455
519.20 1.225307
519.30 1.223137
519.40 1.218912
519.50 1.213181
519.60 1.206933
519.70 1.201345
519.80 1.197468
519.90 1.195984
520.00 1.19697
520.10 1.199762
520.20 1.203402
520.30 1.207067
520.40 1.209906
520.50 1.211147
520.60 1.210229
520.70 1.207062
520.80 1.202482
520.90 1.197917
521.00 1.194756
521.10 1.193889
521.20 1.195478
521.30 1.199003
521.40 1.20365
521.50 1.208718
521.60 1.21365
521.70 1.218066
521.80 1.222211
521.90 1.226988
522.00 1.233468
522.10 1.242321
522.20 1.253314
522.30 1.265411
522.40 1.277374
522.50 1.288149
522.60 1.297023
522.70 1.303701
522.80 1.308248
522.90 1.311168
523.00 1.313399
523.10 1.316019
523.20 1.319631
523.30 1.324004
523.40 1.328314
523.50 1.331635
523.60 1.333346
523.70 1.333223
523.80 1.331347
523.90 1.32796
524.00 1.323633
524.10 1.319296
524.20 1.315785
524.30 1.31369
524.40 1.313275
524.50 1.314085
524.60 1.315115
524.70 1.315538
524.80 1.314997
524.90 1.313458
525.00 1.311123
525.10 1.308426
525.20 1.306075
525.30 1.304961
525.40 1.305841
525.50 1.309299
525.60 1.315954
525.70 1.325892
525.80 1.338445
525.90 1.352712
526.00 1.36767
526.10 1.382071
526.20 1.39469
526.30 1.404645
526.40 1.411329
526.50 1.414443
526.60 1.414072
526.70 1.410779
526.80 1.405524
526.90 1.399037
527.00 1.391587
527.10 1.383456
527.20 1.37494
527.30 1.366314
527.40 1.358184
527.50 1.351353
527.60 1.346449
527.70 1.343628
527.80 1.342614
527.90 1.342825
528.00 1.343341
528.10 1.343072
528.20 1.340951
528.30 1.336295
528.40 1.329137
528.50 1.320112
528.60 1.310247
528.70 1.300796
528.80 1.292901
528.90 1.287407
529.00 1.284913
529.10 1.285692
529.20 1.289607
529.30 1.296132
529.40 1.304573
529.50 1.31405
529.60 1.3236
529.70 1.332597
529.80 1.340704
529.90 1.347822
530.00 1.354358
530.10 1.361153
530.20 1.368991
530.30 1.378261
530.40 1.389141
530.50 1.401747
530.60 1.415979
530.70 1.431367
530.80 1.446864
530.90 1.46115
531.00 1.47319
531.10 1.482458
531.20 1.489083
531.30 1.493822
531.40 1.497592
531.50 1.501197
531.60 1.505353
531.70 1.510435
531.80 1.515888
531.90 1.52024
532.00 1.521842
532.10 1.519577
532.20 1.51331
532.30 1.50406
532.40 1.493615
532.50 1.483941
532.60 1.476837
532.70 1.473679
532.80 1.475363
532.90 1.481893
533.00 1.49217
533.10 1.504522
533.20 1.517387
533.30 1.529858
533.40 1.541723
533.50 1.553085
533.60 1.564079
533.70 1.574778
533.80 1.585303
533.90 1.59584
534.00 1.606322
534.10 1.616403
534.20 1.625669
534.30 1.633643
534.40 1.639922
534.50 1.644507
534.60 1.64778
534.70 1.65013
534.80 1.651801
534.90 1.653
535.00 1.654086
535.10 1.655396
535.20 1.656903
535.30 1.658477
535.40 1.660114
535.50 1.661632
535.60 1.662373
535.70 1.661709
535.80 1.659427
535.90 1.655665
536.00 1.650813
536.10 1.64535
536.20 1.639806
536.30 1.634849
536.40 1.631384
536.50 1.630429
536.60 1.632924
536.70 1.639153
536.80 1.64862
536.90 1.66046
537.00 1.673543
537.10 1.686564
537.20 1.698341
537.30 1.707947
537.40 1.714747
537.50 1.718603
537.60 1.719867
537.70 1.719205
537.80 1.71742
537.90 1.715256
538.00 1.713484
538.10 1.71299
538.20 1.714652
538.30 1.719132
538.40 1.7266
538.50 1.736567
538.60 1.747983
538.70 1.759411
538.80 1.769453
538.90 1.777066
539.00 1.781721
539.10 1.783785
539.20 1.784438
539.30 1.78516
539.40 1.787277
539.50 1.791694
539.60 1.798556
539.70 1.807095
539.80 1.816005
539.90 1.823915
540.00 1.829567
540.10 1.832003
540.20 1.830836
540.30 1.82628
540.40 1.819003
540.50 1.80962
540.60 1.79844
540.70 1.785968
540.80 1.772954
540.90 1.760046
541.00 1.747831
541.10 1.736895
541.20 1.727825
541.30 1.721085
541.40 1.716944
541.50 1.715352
541.60 1.715791
541.70 1.717618
541.80 1.720534
541.90 1.724724
542.00 1.730697
542.10 1.738817
542.20 1.749111
542.30 1.761175
542.40 1.77397
542.50 1.786115
542.60 1.796207
542.70 1.803101
542.80 1.806022
542.90 1.804827
543.00 1.800205
543.10 1.793379
543.20 1.785765
543.30 1.778489
543.40 1.772083
543.50 1.766645
543.60 1.761985
543.70 1.757842
543.80 1.754063
543.90 1.750502
544.00 1.7471
544.10 1.743805
544.20 1.740513
544.30 1.737065
544.40 1.733209
544.50 1.728755
544.60 1.723546
544.70 1.717492
544.80 1.710729
544.90 1.70361
545.00 1.696579
545.10 1.690001
545.20 1.684089
545.30 1.678766
545.40 1.673492
545.50 1.667581
545.60 1.660752
545.70 1.653171
545.80 1.645279
545.90 1.637644
546.00 1.630835
546.10 1.625367
546.20 1.621615
546.30 1.61943
546.40 1.618046
546.50 1.616456
546.60 1.613744
546.70 1.609501
546.80 1.603974
546.90 1.597902
547.00 1.592133
547.10 1.587196
547.20 1.583305
547.30 1.580358
547.40 1.577855
547.50 1.57512
547.60 1.571665
547.70 1.567482
547.80 1.562826
547.90 1.55801
548.00 1.553294
548.10 1.548756
548.20 1.544479
548.30 1.540374
548.40 1.536113
548.50 1.531497
548.60 1.526385
548.70 1.520673
548.80 1.514577
548.90 1.508724
549.00 1.503692
549.10 1.499516
549.20 1.495884
549.30 1.492432
549.40 1.488601
549.50 1.483481
549.60 1.476127
549.70 1.465984
549.80 1.453155
549.90 1.438376
550.00 1.262104
550.10 1.269398
550.20 1.278901
550.30 1.286935
550.40 1.290461
550.50 1.287938
550.60 1.279803
550.70 1.267627
550.80 1.253019
550.90 1.237471
551.00 1.222115
551.10 1.207846
551.20 1.195832
551.30 1.18709
551.40 1.182345
551.50 1.182259
551.60 1.186917
551.70 1.195496
551.80 1.207053
551.90 1.220684
552.00 1.234935
552.10 1.248325
552.20 1.260271
552.30 1.270998
552.40 1.281316
552.50 1.291926
552.60 1.302435
552.70 1.311673
552.80 1.318693
552.90 1.323069
553.00 1.324895
553.10 1.324932
553.20 1.324307
553.30 1.324256
553.40 1.32622
553.50 1.331092
553.60 1.338547
553.70 1.34737
553.80 1.355842
553.90 1.362207
554.00 1.365525
554.10 1.365735
554.20 1.363198
554.30 1.358765
554.40 1.353988
554.50 1.350417
554.60 1.348659
554.70 1.348495
554.80 1.349389
554.90 1.350544
555.00 1.350284
555.10 1.349337
555.20 1.352085
555.30 1.365033
555.40 1.396772
555.50 1.45393
555.60 1.538919
555.70 1.649843
555.80 1.779292
555.90 1.915476
556.00 2.045625
556.10 2.158865
556.20 2.247841
556.30 2.310479
556.40 2.351632
556.50 2.379093
556.60 2.400416
556.70 2.422224
556.80 2.447299
556.90 2.475982
557.00 2.507237
557.10 2.538653
557.20 2.567936
557.30 2.593499
557.40 2.614135
557.50 2.629189
557.60 2.639218
557.70 2.645876
557.80 2.650956
557.90 2.655651
558.00 2.661318
558.10 2.669711
558.20 2.68177
558.30 2.696983
558.40 2.71366
558.50 2.72968
558.60 2.743705
558.70 2.755609
558.80 2.766788
558.90 2.780151
559.00 2.799494
559.10 2.825082
559.20 2.852027
559.30 2.872495
559.40 2.875623
559.50 2.851227
559.60 2.794288
559.70 2.706564
559.80 2.596528
559.90 2.477073
560.00 2.36279
560.10 2.267541
560.20 2.200822
560.30 2.16459
560.40 2.152805
560.50 2.1567
560.60 2.1683
560.70 2.180419
560.80 2.188794
560.90 2.191309
561.00 2.187581
561.10 2.179081
561.20 2.16794
561.30 2.157126
561.40 2.149737
561.50 2.147316
561.60 2.149981
561.70 2.157357
561.80 2.168897
561.90 2.183617
562.00 2.199365
562.10 2.213573
562.20 2.224854
562.30 2.233331
562.40 2.239816
562.50 2.245189
562.60 2.249906
562.70 2.253449
562.80 2.254632
562.90 2.252754
563.00 2.247769
563.10 2.239726
563.20 2.228733
563.30 2.215104
563.40 2.200323
563.50 2.187165
563.60 2.17787
563.70 2.172955
563.80 2.171672
563.90 2.172587
564.00 2.173932
564.10 2.173607
564.20 2.16958
564.30 2.16053
564.40 2.146105
564.50 2.127116
564.60 2.105191
564.70 2.082618
564.80 2.062087
564.90 2.045688
565.00 2.034763
565.10 2.029994
565.20 2.031121
565.30 2.036613
565.40 2.04426
565.50 2.052274
565.60 2.059289
565.70 2.064411
565.80 2.067537
565.90 2.069214
566.00 2.0701
566.10 2.071056
566.20 2.073297
566.30 2.078109
566.40 2.086793
566.50 2.100315
566.60 2.119332
566.70 2.144385
566.80 2.174991
566.90 2.209111
567.00 2.244184
567.10 2.277339
567.20 2.305562
567.30 2.326895
567.40 2.341346
567.50 2.350265
567.60 2.355261
567.70 2.358289
567.80 2.361164
567.90 2.365139
568.00 2.370439
568.10 2.376221
568.20 2.381827
568.30 2.387123
568.40 2.391739
568.50 2.3957
568.60 2.400606
568.70 2.409097
568.80 2.423646
568.90 2.445868
569.00 2.475756
569.10 2.511234
569.20 2.548642
569.30 2.583616
569.40 2.612209
569.50 2.631984
569.60 2.642061
569.70 2.642384
569.80 2.633579
569.90 2.616873
570.00 2.593868
570.10 2.566102
570.20 2.534622
570.30 2.500239
570.40 2.464071
570.50 2.427754
570.60 2.393287
570.70 2.362489
570.80 2.33625
570.90 2.313856
571.00 2.293795
571.10 2.275559
571.20 2.259857
571.30 2.247624
571.40 2.23848
571.50 2.230647
571.60 2.222324
571.70 2.212205
571.80 2.199839
571.90 2.185502
572.00 2.16945
572.10 2.152026
572.20 2.13389
572.30 2.116128
572.40 2.099778
572.50 2.084698
572.60 2.069214
572.70 2.050952
572.80 2.027745
572.90 1.998214
573.00 1.962339
573.10 1.921561
573.20 1.87829
573.30 1.83548
573.40 1.796267
573.50 1.763064
573.60 1.736734
573.70 1.71675
573.80 1.701932
573.90 1.691156
574.00 1.684215
574.10 1.681331
574.20 1.682287
574.30 1.686526
574.40 1.693112
574.50 1.700987
574.60 1.709075
574.70 1.715977
574.80 1.720718
574.90 1.723795
575.00 1.726807
575.10 1.731616
575.20 1.739579
575.30 1.750718
575.40 1.763746
575.50 1.777207
575.60 1.79022
575.70 1.802163
575.80 1.812397
575.90 1.820529
576.00 1.826552
576.10 1.830905
576.20 1.83432
576.30 1.837677
576.40 1.842141
576.50 1.848569
576.60 1.857189
576.70 1.868217
576.80 1.88263
576.90 1.901545
577.00 1.924884
577.10 1.95137
577.20 1.978981
577.30 2.00489
577.40 2.026269
577.50 2.041349
577.60 2.049706
577.70 2.052161
577.80 2.050478
577.90 2.047336
578.00 2.045467
578.10 2.046956
578.20 2.05263
578.30 2.061698
578.40 2.07274
578.50 2.084078
578.60 2.094038
578.70 2.101841
578.80 2.107064
578.90 2.109065
579.00 2.107204
579.10 2.10067
579.20 2.088889
579.30 2.072571
579.40 2.054263
579.50 2.037123
579.60 2.023328
579.70 2.013848
579.80 2.008817
579.90 2.007795
580.00 2.00979
580.10 2.01316
580.20 2.016321
580.30 2.017857
580.40 2.016418
580.50 2.011401
580.60 2.003179
580.70 1.992374
580.80 1.97851
580.90 1.96047
581.00 1.93827
581.10 1.913467
581.20 1.8886
581.30 1.866847
581.40 1.851064
581.50 1.842973
581.60 1.843103
581.70 1.850899
581.80 1.864406
581.90 1.88077
582.00 1.896975
582.10 1.910171
582.20 1.919213
582.30 1.925138
582.40 1.929479
582.50 1.933178
582.60 1.936355
582.70 1.938251
582.80 1.938049
582.90 1.93492
583.00 1.928089
583.10 1.917459
583.20 1.903712
583.30 1.887228
583.40 1.867294
583.50 1.843165
583.60 1.814931
583.70 1.783843
583.80 1.751812
583.90 1.720954
584.00 1.693702
584.10 1.672069
584.20 1.656896
584.30 1.648187
584.40 1.645342
584.50 1.647479
584.60 1.653431
584.70 1.661338
584.80 1.669391
584.90 1.676001
585.00 1.679028
585.10 1.67557
585.20 1.663286
585.30 1.641295
585.40 1.610284
585.50 1.572912
585.60 1.533054
585.70 1.494651
585.80 1.461015
585.90 1.433274
586.00 1.410271
586.10 1.390051
586.20 1.369837
586.30 1.346288
586.40 1.317846
586.50 1.285552
586.60 1.252252
586.70 1.222033
586.80 1.198906
586.90 1.185493
587.00 1.182423
587.10 1.189005
587.20 1.203471
587.30 1.223733
587.40 1.24828
587.50 1.275773
587.60 1.304868
587.70 1.333972
587.80 1.360564
587.90 1.381673
588.00 1.394749
588.10 1.398325
588.20 1.392269
588.30 1.37789
588.40 1.35813
588.50 1.33613
588.60 1.314025
588.70 1.292904
588.80 1.273294
588.90 1.255835
589.00 1.241418
589.10 1.231228
589.20 1.22619
589.30 1.226691
589.40 1.232534
589.50 1.242329
589.60 1.25407
589.70 1.265674
589.80 1.27489
589.90 1.28008
590.00 1.281093
590.10 1.278998
590.20 1.275208
590.30 1.270959
590.40 1.266405
590.50 1.260485
590.60 1.251402
590.70 1.237407
590.80 1.217808
590.90 1.193636
591.00 1.167408
591.10 1.141608
591.20 1.118255
591.30 1.098544
591.40 1.08201
591.50 1.066816
591.60 1.05081
591.70 1.031733
591.80 1.008565
591.90 0.9825591
592.00 0.9568864
592.10 0.9354316
592.20 0.9215139
592.30 0.9170745
592.40 0.9221469
592.50 0.9355644
592.60 0.9551736
592.70 0.9782636
592.80 1.00243
592.90 1.025647
593.00 1.046034
593.10 1.062715
593.20 1.076424
593.30 1.088471
593.40 1.099751
593.50 1.110936
593.60 1.122685
593.70 1.135491
593.80 1.149538
593.90 1.164712
594.00 1.180888
594.10 1.198359
594.20 1.21808
594.30 1.241627
594.40 1.270364
594.50 1.304536
594.60 1.34294
594.70 1.383175
594.80 1.42261
594.90 1.458767
595.00 1.489052
595.10 1.511336
595.20 1.524895
595.30 1.530901
595.40 1.532016
595.50 1.531066
595.60 1.529709
595.70 1.528764
595.80 1.52916
595.90 1.531647
596.00 1.53613
596.10 1.541742
596.20 1.547416
596.30 1.552028
596.40 1.554569
596.50 1.554244
596.60 1.550706
596.70 1.54407
596.80 1.534474
596.90 1.522527
597.00 1.510185
597.10 1.499651
597.20 1.491604
597.30 1.485139
597.40 1.478987
597.50 1.471951
597.60 1.462603
597.70 1.44973
597.80 1.433419
597.90 1.415467
598.00 1.398741
598.10 1.386197
598.20 1.380163
598.30 1.381418
598.40 1.388598
598.50 1.398994
598.60 1.409903
598.70 1.419445
598.80 1.4261
598.90 1.428805
599.00 1.427624
599.10 1.423892
599.20 1.419396
599.30 1.415568
599.40 1.413486
599.50 1.414204
599.60 1.419102
599.70 1.429575
599.80 1.446449
599.90 1.469441
600.00 1.176432
600.10 1.397375
600.20 1.692278
600.30 2.015018
600.40 2.302884
600.50 2.496366
600.60 2.564776
600.70 2.522407
600.80 2.392371
600.90 2.201615
601.00 1.988621
601.10 1.794831
601.20 1.651196
601.30 1.569256
601.40 1.537584
601.50 1.528688
601.60 1.524096
601.70 1.5202
601.80 1.534294
601.90 1.585387
602.00 1.669554
602.10 1.754076
602.20 1.809884
602.30 1.820264
602.40 1.777706
602.50 1.692237
602.60 1.582907
602.70 1.469873
602.80 1.371893
602.90 1.314546
603.00 1.321676
603.10 1.386079
603.20 1.468995
603.30 1.535884
603.40 1.577325
603.50 1.609745
603.60 1.651776
603.70 1.704975
603.80 1.768176
603.90 1.839682
604.00 1.907633
604.10 1.960364
604.20 1.996305
604.30 2.011185
604.40 1.990657
604.50 1.938183
604.60 1.871613
604.70 1.81379
604.80 1.799823
604.90 1.845747
605.00 1.94828
605.10 2.108208
605.20 2.311558
605.30 2.52751
605.40 2.715258
605.50 2.832685
605.60 2.850973
605.70 2.765836
605.80 2.601415
605.90 2.391171
606.00 2.182571
606.10 2.015573
606.20 1.892355
606.30 1.80587
606.40 1.756498
606.50 1.742271
606.60 1.757003
606.70 1.801499
606.80 1.887471
606.90 2.013058
607.00 2.153624
607.10 2.280991
607.20 2.378131
607.30 2.431418
607.40 2.431841
607.50 2.382598
607.60 2.302983
607.70 2.232295
607.80 2.202481
607.90 2.223608
608.00 2.297603
608.10 2.405387
608.20 2.516419
608.30 2.620795
608.40 2.727236
608.50 2.820029
608.60 2.855339
608.70 2.812255
608.80 2.695007
608.90 2.518461
609.00 2.30688
609.10 2.085632
609.20 1.876977
609.30 1.701906
609.40 1.570993
609.50 1.480627
609.60 1.429966
609.70 1.415167
609.80 1.415535
609.90 1.424732
610.00 1.464471
610.10 1.541603
610.20 1.62611
610.30 1.692674
610.40 1.735354
610.50 1.752744
610.60 1.754825
610.70 1.760494
610.80 1.788461
610.90 1.847847
611.00 1.919918
611.10 1.970371
611.20 1.987844
611.30 1.993539
611.40 2.010517
611.50 2.055018
611.60 2.149485
611.70 2.294481
611.80 2.462428
611.90 2.614473
612.00 2.707432
612.10 2.700812
612.20 2.573203
612.30 2.348941
612.40 2.090911
612.50 1.868181
612.60 1.72942
612.70 1.67983
612.80 1.703532
612.90 1.789359
613.00 1.920498
613.10 2.071836
613.20 2.211455
613.30 2.311746
613.40 2.376544
613.50 2.43916
613.60 2.518074
613.70 2.590054
613.80 2.624534
613.90 2.610184
614.00 2.55022
614.10 2.465072
614.20 2.378359
614.30 2.288094
614.40 2.187028
614.50 2.084401
614.60 1.992743
614.70 1.925974
614.80 1.881135
614.90 1.838635
615.00 1.786778
615.10 1.742868
615.20 1.731205
615.30 1.756864
615.40 1.811708
615.50 1.873009
615.60 1.912732
615.70 1.917954
615.80 1.889021
615.90 1.838431
616.00 1.797536
616.10 1.786506
616.20 1.81314
616.30 1.887142
616.40 2.003412
616.50 2.125367
616.60 2.21041
616.70 2.247577
616.80 2.244154
616.90 2.206211
617.00 2.138921
617.10 2.066098
617.20 2.011257
617.30 1.973632
617.40 1.936731
617.50 1.886413
617.60 1.821445
617.70 1.744611
617.80 1.671246
617.90 1.629491
618.00 1.645122
618.10 1.716652
618.20 1.81858
618.30 1.932941
618.40 2.055808
618.50 2.173966
618.60 2.266903
618.70 2.32711
618.80 2.362675
618.90 2.385109
619.00 2.382839
619.10 2.334634
619.20 2.237567
619.30 2.115291
619.40 1.998801
619.50 1.903969
619.60 1.841089
619.70 1.817833
619.80 1.83087
619.90 1.869739
620.00 1.917201
620.10 1.949696
620.20 1.957663
620.30 1.941163
620.40 1.921554
620.50 1.93463
620.60 1.994256
620.70 2.092515
620.80 2.202409
620.90 2.292923
621.00 2.343079
621.10 2.332188
621.20 2.238932
621.30 2.05713
621.40 1.815652
621.50 1.563739
621.60 1.331141
621.70 1.147395
621.80 1.043392
621.90 1.027386
622.00 1.091953
622.10 1.210188
622.20 1.362434
622.30 1.544428
622.40 1.742643
622.50 1.929346
622.60 2.076043
622.70 2.17267
622.80 2.212179
622.90 2.196006
623.00 2.14894
623.10 2.088019
623.20 2.009402
623.30 1.916794
623.40 1.827654
623.50 1.766419
623.60 1.755471
623.70 1.797599
623.80 1.879839
623.90 1.989708
624.00 2.114748
624.10 2.231094
624.20 2.31255
624.30 2.332358
624.40 2.272247
624.50 2.14512
624.60 1.992803
624.70 1.856927
624.80 1.76637
624.90 1.740487
625.00 1.778357
625.10 1.872352
625.20 2.01068
625.30 2.171479
625.40 2.331469
625.50 2.472552
625.60 2.600345
625.70 2.725361
625.80 2.836405
625.90 2.914672
626.00 2.943082
626.10 2.904394
626.20 2.789848
626.30 2.605205
626.40 2.372802
626.50 2.129228
626.60 1.923953
626.70 1.800013
626.80 1.77654
626.90 1.844789
627.00 1.965042
627.10 2.102422
627.20 2.241005
627.30 2.372532
627.40 2.488248
627.50 2.574472
627.60 2.631376
627.70 2.668374
627.80 2.681663
627.90 2.664843
628.00 2.620489
628.10 2.561535
628.20 2.514155
628.30 2.498126
628.40 2.512481
628.50 2.540082
628.60 2.554384
628.70 2.529994
628.80 2.457496
628.90 2.357038
629.00 2.252872
629.10 2.164989
629.20 2.122225
629.30 2.150776
629.40 2.247994
629.50 2.38173
629.60 2.484123
629.70 2.505461
629.80 2.458979
629.90 2.378584
630.00 2.309456
630.10 2.294578
630.20 2.355924
630.30 2.492326
630.40 2.69117
630.50 2.92402
630.60 3.148191
630.70 3.317336
630.80 3.412696
630.90 3.44253
631.00 3.444654
631.10 3.45571
631.20 3.481348
631.30 3.515594
631.40 3.53995
631.50 3.539646
631.60 3.513664
631.70 3.466308
631.80 3.392132
631.90 3.293414
632.00 3.187342
632.10 3.095264
632.20 3.027046
632.30 2.989954
632.40 3.003322
632.50 3.079097
632.60 3.195054
632.70 3.319453
632.80 3.43395
632.90 3.520407
633.00 3.569219
633.10 3.581304
633.20 3.56705
633.30 3.534913
633.40 3.492044
633.50 3.447645
633.60 3.409037
633.70 3.391341
633.80 3.408874
633.90 3.465693
634.00 3.561487
634.10 3.683822
634.20 3.810337
634.30 3.918642
634.40 3.984264
634.50 3.999613
634.60 3.981546
634.70 3.955604
634.80 3.940633
634.90 3.952326
635.00 4.008576
635.10 4.115089
635.20 4.248398
635.30 4.373798
635.40 4.470586
635.50 4.519553
635.60 4.489397
635.70 4.366256
635.80 4.183955
635.90 3.965413
636.00 3.713143
636.10 3.45195
636.20 3.235855
636.30 3.107784
636.40 3.06969
636.50 3.112497
636.60 3.22364
636.70 3.376592
636.80 3.532198
636.90 3.659301
637.00 3.75556
637.10 3.822428
637.20 3.830367
637.30 3.771222
637.40 3.677321
637.50 3.589216
637.60 3.53014
637.70 3.506566
637.80 3.517481
637.90 3.552949
638.00 3.62056
638.10 3.726839
638.20 3.866009
638.30 4.02978
638.40 4.201372
638.50 4.356414
638.60 4.478168
638.70 4.56655
638.80 4.624216
638.90 4.644382
639.00 4.613476
639.10 4.535943
639.20 4.44053
639.30 4.34934
639.40 4.260809
639.50 4.181142
639.60 4.130481
639.70 4.120346
639.80 4.151197
639.90 4.226702
640.00 4.341998
640.10 4.472002
640.20 4.589918
640.30 4.667899
640.40 4.688128
640.50 4.647562
640.60 4.552741
640.70 4.417432
640.80 4.259262
640.90 4.09625
641.00 3.940466
641.10 3.805215
641.20 3.710857
641.30 3.668886
641.40 3.684653
641.50 3.764933
641.60 3.906914
641.70 4.102815
641.80 4.331295
641.90 4.546608
642.00 4.695515
642.10 4.741246
642.20 4.675667
642.30 4.520444
642.40 4.325419
642.50 4.144679
642.60 4.018142
642.70 3.975466
642.80 4.028192
642.90 4.155297
643.00 4.313815
643.10 4.452795
643.20 4.531741
643.30 4.544751
643.40 4.507148
643.50 4.442274
643.60 4.374968
643.70 4.314987
643.80 4.255606
643.90 4.199098
644.00 4.155799
644.10 4.120682
644.20 4.080619
644.30 4.038655
644.40 4.005964
644.50 3.992774
644.60 4.009632
644.70 4.060339
644.80 4.147005
644.90 4.26099
645.00 4.377684
645.10 4.471718
645.20 4.53093
645.30 4.545281
645.40 4.50408
645.50 4.411983
645.60 4.292318
645.70 4.169078
645.80 4.065881
645.90 4.002238
646.00 3.989294
646.10 4.028373
646.20 4.112504
646.30 4.240411
646.40 4.414633
646.50 4.630272
646.60 4.856913
646.70 5.049152
646.80 5.17543
646.90 5.226051
647.00 5.204384
647.10 5.12847
647.20 5.02318
647.30 4.912889
647.40 4.821504
647.50 4.768942
647.60 4.764095
647.70 4.791063
647.80 4.818687
647.90 4.821554
648.00 4.789375
648.10 4.732261
648.20 4.669183
648.30 4.617396
648.40 4.595516
648.50 4.609839
648.60 4.655706
648.70 4.729974
648.80 4.822333
648.90 4.915996
649.00 4.991764
649.10 5.045235
649.20 5.082045
649.30 5.106684
649.40 5.129558
649.50 5.151771
649.60 5.16478
649.70 5.152689
649.80 5.107743
649.90 5.044334
650.00 4.976937
650.10 4.917606
650.20 4.889561
650.30 4.908808
650.40 4.977861
650.50 5.083858
650.60 5.204196
650.70 5.317928
650.80 5.409254
650.90 5.483451
651.00 5.551284
651.10 5.62072
651.20 5.692896
651.30 5.763032
651.40 5.832444
651.50 5.902287
651.60 5.963531
651.70 6.003022
651.80 6.014716
651.90 5.998923
652.00 5.965226
652.10 5.932106
652.20 5.919017
652.30 5.930651
652.40 5.962047
652.50 6.018276
652.60 6.11511
652.70 6.259557
652.80 6.441356
652.90 6.63489
653.00 6.799303
653.10 6.904662
653.20 6.938954
653.30 6.910877
653.40 6.845349
653.50 6.767564
653.60 6.700512
653.70 6.66032
653.80 6.664395
653.90 6.731709
654.00 6.86674
654.10 7.051597
654.20 7.26055
654.30 7.47371
654.40 7.679642
654.50 7.858096
654.60 7.986742
654.70 8.054914
654.80 8.063012
654.90 8.012037
655.00 7.898393
655.10 7.736309
655.20 7.551399
655.30 7.360516
655.40 7.178727
655.50 7.02745
655.60 6.940438
655.70 6.966752
655.80 7.126573
655.90 7.398441
656.00 7.74805
656.10 8.129664
656.20 8.484509
656.30 8.75733
656.40 8.910285
656.50 8.928794
656.60 8.823988
656.70 8.626496
656.80 8.369602
656.90 8.087921
657.00 7.808744
657.10 7.538253
657.20 7.287811
657.30 7.078168
657.40 6.915627
657.50 6.789473
657.60 6.682193
657.70 6.578546
657.80 6.481533
657.90 6.408508
658.00 6.372264
658.10 6.374802
658.20 6.408839
658.30 6.467356
658.40 6.542963
658.50 6.617503
658.60 6.674346
658.70 6.706343
658.80 6.710446
658.90 6.68338
659.00 6.63711
659.10 6.611275
659.20 6.637939
659.30 6.715107
659.40 6.825275
659.50 6.955563
659.60 7.097135
659.70 7.235264
659.80 7.337395
659.90 7.373654
660.00 7.338259
660.10 7.253315
660.20 7.1559
660.30 7.079911
660.40 7.046056
660.50 7.053252
660.60 7.091673
660.70 7.167763
660.80 7.288997
660.90 7.437457
661.00 7.579327
661.10 7.678067
661.20 7.71656
661.30 7.698335
661.40 7.634154
661.50 7.536281
661.60 7.425022
661.70 7.337069
661.80 7.303733
661.90 7.329027
662.00 7.397489
662.10 7.467478
662.20 7.492582
662.30 7.44993
662.40 7.337119
662.50 7.182123
662.60 7.030956
662.70 6.919757
662.80 6.87473
662.90 6.9204
663.00 7.064098
663.10 7.274565
663.20 7.495963
663.30 7.683689
663.40 7.810821
663.50 7.870355
663.60 7.868123
663.70 7.820306
663.80 7.760733
663.90 7.713293
664.00 7.693948
664.10 7.728694
664.20 7.830959
664.30 7.983234
664.40 8.144692
664.50 8.284513
664.60 8.392719
664.70 8.469017
664.80 8.507915
664.90 8.500788
665.00 8.454181
665.10 8.382446
665.20 8.29582
665.30 8.207307
665.40 8.13041
665.50 8.068938
665.60 8.020652
665.70 7.977493
665.80 7.931916
665.90 7.885002
666.00 7.838627
666.10 7.791416
666.20 7.750723
666.30 7.729598
666.40 7.733056
666.50 7.76598
666.60 7.840309
666.70 7.964982
666.80 8.13211
666.90 8.312733
667.00 8.46635
667.10 8.56902
667.20 8.620254
667.30 8.630816
667.40 8.616213
667.50 8.587858
667.60 8.550419
667.70 8.507942
667.80 8.474957
667.90 8.465536
668.00 8.471581
668.10 8.473121
668.20 8.460632
668.30 8.441675
668.40 8.43495
668.50 8.447241
668.60 8.465727
668.70 8.473252
668.80 8.459606
668.90 8.418909
669.00 8.353686
669.10 8.273716
669.20 8.186973
669.30 8.106388
669.40 8.051548
669.50 8.038749
669.60 8.074301
669.70 8.147236
669.80 8.233333
669.90 8.315828
670.00 8.38206
670.10 8.409393
670.20 8.389499
670.30 8.336774
670.40 8.27054
670.50 8.215515
670.60 8.193253
670.70 8.217672
670.80 8.293678
670.90 8.420026
671.00 8.584659
671.10 8.764941
671.20 8.94001
671.30 9.088602
671.40 9.193813
671.50 9.247624
671.60 9.241746
671.70 9.181116
671.80 9.092469
671.90 8.993912
672.00 8.89866
672.10 8.820632
672.20 8.767867
672.30 8.739247
672.40 8.724977
672.50 8.714808
672.60 8.697894
672.70 8.658457
672.80 8.587565
672.90 8.494821
673.00 8.39598
673.10 8.308116
673.20 8.24673
673.30 8.23291
673.40 8.279424
673.50 8.377793
673.60 8.511323
673.70 8.665143
673.80 8.825392
673.90 8.979219
674.00 9.114563
674.10 9.224794
674.20 9.313355
674.30 9.378628
674.40 9.407712
674.50 9.392764
674.60 9.344033
674.70 9.28541
674.80 9.240383
674.90 9.220891
675.00 9.226617
675.10 9.257522
675.20 9.320237
675.30 9.404421
675.40 9.477666
675.50 9.504949
675.60 9.462842
675.70 9.359437
675.80 9.238043
675.90 9.135951
676.00 9.061322
676.10 9.011742
676.20 8.997283
676.30 9.038764
676.40 9.15236
676.50 9.324557
676.60 9.507435
676.70 9.663034
676.80 9.783619
676.90 9.871629
677.00 9.92026
677.10 9.91306
677.20 9.851451
677.30 9.768108
677.40 9.708137
677.50 9.69972
677.60 9.737363
677.70 9.79201
677.80 9.830655
677.90 9.837083
678.00 9.812657
678.10 9.757177
678.20 9.664174
678.30 9.533523
678.40 9.386798
678.50 9.259093
678.60 9.161824
678.70 9.085923
678.80 9.029069
678.90 8.999637
679.00 9.006455
679.10 9.046723
679.20 9.108619
679.30 9.17449
679.40 9.224226
679.50 9.242688
679.60 9.223978
679.70 9.181793
679.80 9.133282
679.90 9.084859
680.00 9.043388
680.10 9.013326
680.20 8.990438
680.30 8.968239
680.40 8.945579
680.50 8.93484
680.60 8.954105
680.70 9.005734
680.80 9.075133
680.90 9.14166
681.00 9.189421
681.10 9.204543
681.20 9.186064
681.30 9.143867
681.40 9.088237
681.50 9.035289
681.60 8.999486
681.70 8.987167
681.80 9.000765
681.90 9.037121
682.00 9.079392
682.10 9.114453
682.20 9.152266
682.30 9.211214
682.40 9.293214
682.50 9.381274
682.60 9.451417
682.70 9.485275
682.80 9.480476
682.90 9.446473
683.00 9.385785
683.10 9.298329
683.20 9.188692
683.30 9.058353
683.40 8.917476
683.50 8.782488
683.60 8.663967
683.70 8.570563
683.80 8.509983
683.90 8.487133
684.00 8.502988
684.10 8.55192
684.20 8.617752
684.30 8.674943
684.40 8.706295
684.50 8.701119
684.60 8.653466
684.70 8.57194
684.80 8.468878
684.90 8.352508
685.00 8.224217
685.10 8.090735
685.20 7.971243
685.30 7.887616
685.40 7.849237
685.50 7.8519
685.60 7.882058
685.70 7.920008
685.80 7.95908
685.90 8.010371
686.00 8.074629
686.10 8.138714
686.20 8.196146
686.30 8.244403
686.40 8.283419
686.50 8.312051
686.60 8.329729
686.70 8.336364
686.80 8.327464
686.90 8.300296
687.00 8.264116
687.10 8.236513
687.20 8.225305
687.30 8.228138
687.40 8.248621
687.50 8.290191
687.60 8.334828
687.70 8.357774
687.80 8.339008
687.90 8.271825
688.00 8.16271
688.10 8.028471
688.20 7.904223
688.30 7.832435
688.40 7.840617
688.50 7.931375
688.60 8.088784
688.70 8.276656
688.80 8.438174
688.90 8.519547
689.00 8.499603
689.10 8.37863
689.20 8.171969
689.30 7.912202
689.40 7.646845
689.50 7.419488
689.60 7.262443
689.70 7.194624
689.80 7.203233
689.90 7.261487
690.00 7.342976
690.10 7.425092
690.20 7.500116
690.30 7.567252
690.40 7.625317
690.50 7.677979
690.60 7.731884
690.70 7.789245
690.80 7.843575
690.90 7.89223
691.00 7.924943
691.10 7.924885
691.20 7.902071
691.30 7.871273
691.40 7.826476
691.50 7.758771
691.60 7.675424
691.70 7.596452
691.80 7.544349
691.90 7.549452
692.00 7.644373
692.10 7.833391
692.20 8.074766
692.30 8.308735
692.40 8.495916
692.50 8.625476
692.60 8.695264
692.70 8.7124
692.80 8.703738
692.90 8.695617
693.00 8.707145
693.10 8.750909
693.20 8.824979
693.30 8.916682
693.40 8.997071
693.50 9.036581
693.60 9.045957
693.70 9.052972
693.80 9.066456
693.90 9.090316
694.00 9.136374
694.10 9.220989
694.20 9.362667
694.30 9.585223
694.40 9.899387
694.50 10.2833
694.60 10.68727
694.70 11.03783
694.80 11.25853
694.90 11.30604
695.00 11.16656
695.10 10.8597
695.20 10.45497
695.30 10.03662
695.40 9.675992
695.50 9.431127
695.60 9.329824
695.70 9.360927
695.80 9.486314
695.90 9.657387
696.00 9.826822
696.10 9.967816
696.20 10.08683
696.30 10.2031
696.40 10.3321
696.50 10.47332
696.60 10.60378
696.70 10.69806
696.80 10.73671
696.90 10.70937
697.00 10.63204
697.10 10.52686
697.20 10.40403
697.30 10.28599
697.40 10.20389
697.50 10.17103
697.60 10.1783
697.70 10.20239
697.80 10.21552
697.90 10.20218
698.00 10.16142
698.10 10.10556
698.20 10.0607
698.30 10.04338
698.40 10.05189
698.50 10.08766
698.60 10.15737
698.70 10.24778
698.80 10.32777
698.90 10.37464
699.00 10.37142
699.10 10.30667
699.20 10.19331
699.30 10.0672
699.40 9.96548
699.50 9.908695
699.60 9.901124
699.70 9.946006
699.80 10.03925
699.90 10.1573
700.00 10.27436
700.10 10.37558
700.20 10.46141
700.30 10.53974
700.40 10.62005
700.50 10.71744
700.60 10.8365
700.70 10.96237
700.80 11.07649
700.90 11.16389
701.00 11.21436
701.10 11.22606
701.20 11.2002
701.30 11.15188
701.40 11.11164
701.50 11.10128
701.60 11.13243
701.70 11.20973
701.80 11.33309
701.90 11.49605
702.00 11.67946
702.10 11.85582
702.20 11.9986
702.30 12.09785
702.40 12.16113
702.50 12.19882
702.60 12.23415
702.70 12.29625
702.80 12.38788
702.90 12.50663
703.00 12.65247
703.10 12.81788
703.20 12.9902
703.30 13.14999
703.40 13.28485
703.50 13.40261
703.60 13.53119
703.70 13.69576
703.80 13.90166
703.90 14.14181
704.00 14.39324
704.10 14.61565
704.20 14.77702
704.30 14.8629
704.40 14.87739
704.50 14.83889
704.60 14.76854
704.70 14.68956
704.80 14.62259
704.90 14.57173
705.00 14.52101
705.10 14.44288
705.20 14.31265
705.30 14.11451
705.40 13.85435
705.50 13.56632
705.60 13.29486
705.70 13.07414
705.80 12.91788
705.90 12.82235
706.00 12.77665
706.10 12.77598
706.20 12.81438
706.30 12.87629
706.40 12.93994
706.50 12.98717
706.60 13.01571
706.70 13.04723
706.80 13.09619
706.90 13.15641
707.00 13.22052
707.10 13.28017
707.20 13.32588
707.30 13.35691
707.40 13.38633
707.50 13.41488
707.60 13.43381
707.70 13.43606
707.80 13.41212
707.90 13.35776
708.00 13.27927
708.10 13.1796
708.20 13.0543
708.30 12.90315
708.40 12.72935
708.50 12.5514
708.60 12.40285
708.70 12.30709
708.80 12.26111
708.90 12.256
709.00 12.28234
709.10 12.33286
709.20 12.40748
709.30 12.49773
709.40 12.58332
709.50 12.63829
709.60 12.64848
709.70 12.62679
709.80 12.60715
709.90 12.62162
710.00 12.68065
710.10 12.7756
710.20 12.89671
710.30 13.03255
710.40 13.17115
710.50 13.30211
710.60 13.40956
710.70 13.47944
710.80 13.49815
710.90 13.4732
711.00 13.43836
711.10 13.41182
711.20 13.39039
711.30 13.3736
711.40 13.36823
711.50 13.3853
711.60 13.43379
711.70 13.51617
711.80 13.62249
711.90 13.73353
712.00 13.83583
712.10 13.92471
712.20 13.99289
712.30 14.01687
712.40 13.98744
712.50 13.92253
712.60 13.83895
712.70 13.74719
712.80 13.66462
712.90 13.60706
713.00 13.57561
713.10 13.56242
713.20 13.56121
713.30 13.56633
713.40 13.56562
713.50 13.54345
713.60 13.49937
713.70 13.45001
713.80 13.402
713.90 13.35733
714.00 13.33252
714.10 13.34654
714.20 13.39987
714.30 13.48285
714.40 13.58942
714.50 13.70954
714.60 13.82534
714.70 13.92313
714.80 14.00103
714.90 14.06771
715.00 14.12828
715.10 14.18225
715.20 14.23877
715.30 14.30522
715.40 14.37058
715.50 14.41964
715.60 14.44369
715.70 14.43841
715.80 14.41002
715.90 14.37347
716.00 14.3424
716.10 14.32722
716.20 14.34342
716.30 14.4055
716.40 14.52037
716.50 14.67731
716.60 14.83598
716.70 14.95736
716.80 15.03191
716.90 15.07204
717.00 15.09413
717.10 15.11016
717.20 15.12679
717.30 15.14124
717.40 15.15063
717.50 15.15604
717.60 15.14458
717.70 15.09784
717.80 15.01725
717.90 14.93157
718.00 14.88086
718.10 14.89305
718.20 14.9685
718.30 15.08007
718.40 15.20103
718.50 15.31908
718.60 15.42638
718.70 15.51909
718.80 15.59984
718.90 15.67418
719.00 15.75207
719.10 15.83939
719.20 15.92825
719.30 15.99606
719.40 16.01664
719.50 15.99099
719.60 15.94496
719.70 15.90323
719.80 15.88547
719.90 15.90681
720.00 15.9763
720.10 16.08842
720.20 16.21807
720.30 16.33154
720.40 16.40269
720.50 16.42455
720.60 16.40223
720.70 16.3525
720.80 16.30771
720.90 16.28496
721.00 16.2807
721.10 16.29691
721.20 16.34249
721.30 16.41599
721.40 16.50087
721.50 16.58114
721.60 16.65328
721.70 16.72051
721.80 16.78345
721.90 16.83834
722.00 16.88509
722.10 16.92951
722.20 16.96865
722.30 16.99352
722.40 17.01011
722.50 17.03509
722.60 17.07832
722.70 17.14622
722.80 17.24421
722.90 17.3724
723.00 17.5144
723.10 17.64596
723.20 17.75556
723.30 17.83604
723.40 17.89338
723.50 17.95994
723.60 18.07141
723.70 18.245
723.80 18.45367
723.90 18.65084
724.00 18.82917
724.10 18.98444
724.20 19.08541
724.30 19.10604
724.40 19.05393
724.50 18.95447
724.60 18.82391
724.70 18.69165
724.80 18.591
724.90 18.52997
725.00 18.50348
725.10 18.51448
725.20 18.58946
725.30 18.74277
725.40 18.93232
725.50 19.11461
725.60 19.27642
725.70 19.4226
725.80 19.55743
725.90 19.67609
726.00 19.77066
726.10 19.82724
726.20 19.83341
726.30 19.78371
726.40 19.68897
726.50 19.56695
726.60 19.43602
726.70 19.32144
726.80 19.2494
726.90 19.24753
727.00 19.34449
727.10 19.54207
727.20 19.8225
727.30 20.14556
727.40 20.44406
727.50 20.65437
727.60 20.73932
727.70 20.69561
727.80 20.55952
727.90 20.40681
728.00 20.3115
728.10 20.31731
728.20 20.43643
728.30 20.62929
728.40 20.82239
728.50 20.95125
728.60 20.96123
728.70 20.83239
728.80 20.60297
728.90 20.34414
729.00 20.13664
729.10 20.05588
729.20 20.13372
729.30 20.3359
729.40 20.60677
729.50 20.89227
729.60 21.13306
729.70 21.30057
729.80 21.39579
729.90 21.42698
730.00 21.41535
730.10 21.3857
730.20 21.36812
730.30 21.38793
730.40 21.44505
730.50 21.53912
730.60 21.68406
730.70 21.8879
730.80 22.14343
730.90 22.44177
731.00 22.7748
731.10 23.12779
731.20 23.48865
731.30 23.82676
731.40 24.08456
731.50 24.23509
731.60 24.28425
731.70 24.25262
731.80 24.17843
731.90 24.0854
732.00 23.98101
732.10 23.8784
732.20 23.79864
732.30 23.76936
732.40 23.81408
732.50 23.91409
732.60 23.98927
732.70 23.97009
732.80 23.84045
732.90 23.61427
733.00 23.32839
733.10 23.03429
733.20 22.79158
733.30 22.66942
733.40 22.73952
733.50 23.05287
733.60 23.61025
733.70 24.32661
733.80 25.06495
733.90 25.70099
734.00 26.14843
734.10 26.35248
734.20 26.29321
734.30 25.99823
734.40 25.52139
734.50 24.94456
734.60 24.37229
734.70 23.88876
734.80 23.52856
734.90 23.29366
735.00 23.17021
735.10 23.149
735.20 23.21086
735.30 23.31166
735.40 23.42889
735.50 23.56116
735.60 23.69471
735.70 23.80126
735.80 23.87088
735.90 23.90325
736.00 23.90308
736.10 23.90339
736.20 23.95073
736.30 24.07009
736.40 24.27334
736.50 24.54861
736.60 24.84594
736.70 25.1256
736.80 25.34548
736.90 25.45125
737.00 25.41648
737.10 25.25047
737.20 24.97922
737.30 24.64017
737.40 24.2744
737.50 23.91867
737.60 23.61216
737.70 23.39752
737.80 23.28191
737.90 23.24553
738.00 23.27869
738.10 23.35654
738.20 23.44455
738.30 23.51948
738.40 23.5767
738.50 23.62027
738.60 23.66875
738.70 23.76372
738.80 23.9221
738.90 24.11118
739.00 24.27735
739.10 24.36418
739.20 24.31868
739.30 24.11704
739.40 23.77897
739.50 23.371
739.60 22.98704
739.70 22.71457
739.80 22.60748
739.90 22.67471
740.00 22.88413
740.10 23.15929
740.20 23.41037
740.30 23.58132
740.40 23.65021
740.50 23.62134
740.60 23.52735
740.70 23.40235
740.80 23.27719
740.90 23.17469
741.00 23.09398
741.10 23.03163
741.20 22.99594
741.30 22.9915
741.40 23.00158
741.50 23.00757
741.60 23.00275
741.70 22.9834
741.80 22.94176
741.90 22.87175
742.00 22.77329
742.10 22.65825
742.20 22.54761
742.30 22.45794
742.40 22.41284
742.50 22.43693
742.60 22.52399
742.70 22.64998
742.80 22.79681
742.90 22.93697
743.00 23.03849
743.10 23.07817
743.20 23.04647
743.30 22.94324
743.40 22.78044
743.50 22.59371
743.60 22.43923
743.70 22.36514
743.80 22.37949
743.90 22.46032
744.00 22.57425
744.10 22.67453
744.20 22.7005
744.30 22.60973
744.40 22.39785
744.50 22.08778
744.60 21.72265
744.70 21.36711
744.80 21.09816
744.90 20.97195
745.00 20.99137
745.10 21.11445
745.20 21.28474
745.30 21.43343
745.40 21.50346
745.50 21.48332
745.60 21.39263
745.70 21.26553
745.80 21.14862
745.90 21.09276
746.00 21.13481
746.10 21.28177
746.20 21.5053
746.30 21.74981
746.40 21.95779
746.50 22.09994
746.60 22.1793
746.70 22.22331
746.80 22.25922
746.90 22.29017
747.00 22.32176
747.10 22.36545
747.20 22.41509
747.30 22.45299
747.40 22.46576
747.50 22.43835
747.60 22.37473
747.70 22.32092
747.80 22.33216
747.90 22.43324
748.00 22.62285
748.10 22.88035
748.20 23.15198
748.30 23.36884
748.40 23.48478
748.50 23.49148
748.60 23.39892
748.70 23.22343
748.80 22.98914
748.90 22.74331
749.00 22.5407
749.10 22.4011
749.20 22.31799
749.30 22.2777
749.40 22.25497
749.50 22.22648
749.60 22.20274
749.70 22.21513
749.80 22.27016
749.90 22.35537
750.00 22.47057
750.10 22.61377
750.20 22.76695
750.30 22.90677
750.40 23.01107
750.50 23.06866
750.60 23.07956
750.70 23.04889
750.80 22.99209
750.90 22.93234
751.00 22.88111
751.10 22.84926
751.20 22.8676
751.30 22.94665
751.40 23.06064
751.50 23.1694
751.60 23.23896
751.70 23.26629
751.80 23.27384
751.90 23.29476
752.00 23.34885
752.10 23.42905
752.20 23.52399
752.30 23.62541
752.40 23.72854
752.50 23.81879
752.60 23.86629
752.70 23.84874
752.80 23.76404
752.90 23.63114
753.00 23.48177
753.10 23.34398
753.20 23.23334
753.30 23.1529
753.40 23.10477
753.50 23.10598
753.60 23.16172
753.70 23.24681
753.80 23.33072
753.90 23.3979
754.00 23.43878
754.10 23.452
754.20 23.44639
754.30 23.42832
754.40 23.39728
754.50 23.33919
754.60 23.23956
754.70 23.0959
754.80 22.92215
754.90 22.75122
755.00 22.62307
755.10 22.57796
755.20 22.63618
755.30 22.77585
755.40 22.94901
755.50 23.1154
755.60 23.24662
755.70 23.32915
755.80 23.37206
755.90 23.39165
756.00 23.39444
756.10 23.37856
756.20 23.33925
756.30 23.27049
756.40 23.16205
756.50 23.02262
756.60 22.9012
756.70 22.84394
756.80 22.86697
756.90 22.96032
757.00 23.10616
757.10 23.26748
757.20 23.38896
757.30 23.43726
757.40 23.4085
757.50 23.3247
757.60 23.22457
757.70 23.15046
757.80 23.14339
757.90 23.21293
758.00 23.32618
758.10 23.44296
758.20 23.52301
758.30 23.52149
758.40 23.39566
758.50 23.12895
758.60 22.73454
758.70 22.2438
758.80 21.69776
758.90 21.13561
759.00 20.59999
759.10 20.1341
759.20 19.77574
759.30 19.55299
759.40 19.4605
759.50 19.46645
759.60 19.54529
759.70 19.66937
759.80 19.80991
759.90 19.94726
760.00 20.0426
760.10 20.05161
760.20 19.96982
760.30 19.82275
760.40 19.65163
760.50 19.49737
760.60 19.37375
760.70 19.26217
760.80 19.13714
760.90 18.99603
761.00 18.85233
761.10 18.72848
761.20 18.63852
761.30 18.58466
761.40 18.58568
761.50 18.64815
761.60 18.7484
761.70 18.85707
761.80 18.92096
761.90 18.87592
762.00 18.70235
762.10 18.42716
762.20 18.09981
762.30 17.76638
762.40 17.44731
762.50 17.13369
762.60 16.79939
762.70 16.42585
762.80 16.00913
762.90 15.56404
763.00 15.11428
763.10 14.68393
763.20 14.29038
763.30 13.9443
763.40 13.6478
763.50 13.39325
763.60 13.17818
763.70 12.98484
763.80 12.77627
763.90 12.52018
764.00 12.20508
764.10 11.83796
764.20 11.43969
764.30 11.03534
764.40 10.63735
764.50 10.24325
764.60 9.860133
764.70 9.510476
764.80 9.194432
764.90 8.887594
765.00 8.560981
765.10 8.195761
765.20 7.7901
765.30 7.352732
765.40 6.896051
765.50 6.431201
765.60 5.968048
765.70 5.521589
765.80 5.109218
765.90 4.735403
766.00 4.403759
766.10 4.111613
766.20 3.85306
766.30 3.633875
766.40 3.452974
766.50 3.315954
766.60 3.243849
766.70 3.256853
766.80 3.366872
766.90 3.573706
767.00 3.864359
767.10 4.212289
767.20 4.588223
767.30 4.976282
767.40 5.362519
767.50 5.72824
767.60 6.063919
767.70 6.367435
767.80 6.646805
767.90 6.917743
768.00 7.196115
768.10 7.486433
768.20 7.776249
768.30 8.043045
768.40 8.254036
768.50 8.375523
768.60 8.388136
768.70 8.299836
768.80 8.139979
768.90 7.942024
769.00 7.726292
769.10 7.492754
769.20 7.233199
769.30 6.939386
769.40 6.607004
769.50 6.239466
769.60 5.84693
769.70 5.446647
769.80 5.072
769.90 4.766728
770.00 4.566262
770.10 4.481795
770.20 4.50353
770.30 4.623028
770.40 4.832396
770.50 5.123436
770.60 5.503857
770.70 6.002214
770.80 6.624421
770.90 7.329517
771.00 8.073719
771.10 8.820305
771.20 9.528135
771.30 10.1341
771.40 10.57221
771.50 10.81094
771.60 10.85801
771.70 10.7618
771.80 10.62121
771.90 10.56633
772.00 10.69086
772.10 11.01298
772.20 11.51081
772.30 12.16877
772.40 12.93942
772.50 13.73099
772.60 14.43809
772.70 14.99661
772.80 15.40158
772.90 15.66967
773.00 15.83276
773.10 15.93016
773.20 15.99144
773.30 16.04689
773.40 16.12784
773.50 16.25718
773.60 16.4425
773.70 16.66805
773.80 16.91318
773.90 17.16094
774.00 17.40183
774.10 17.63025
774.20 17.8276
774.30 17.97997
774.40 18.10071
774.50 18.21713
774.60 18.34962
774.70 18.51444
774.80 18.71335
774.90 18.92736
775.00 19.13662
775.10 19.30118
775.20 19.38801
775.30 19.40517
775.40 19.38001
775.50 19.34019
775.60 19.31265
775.70 19.32068
775.80 19.36349
775.90 19.4163
776.00 19.46493
776.10 19.4972
776.20 19.50116
776.30 19.48213
776.40 19.45614
776.50 19.47087
776.60 19.57469
776.70 19.78351
776.80 20.09285
776.90 20.47917
777.00 20.90205
777.10 21.30561
777.20 21.62414
777.30 21.80887
777.40 21.82594
777.50 21.66607
777.60 21.39068
777.70 21.09324
777.80 20.85208
777.90 20.7302
778.00 20.74526
778.10 20.86124
778.20 21.01705
778.30 21.15315
778.40 21.22704
778.50 21.22343
778.60 21.16447
778.70 21.10708
778.80 21.12937
778.90 21.29552
779.00 21.59762
779.10 21.9709
779.20 22.32426
779.30 22.54973
779.40 22.54198
779.50 22.21777
779.60 21.52497
779.70 20.47367
779.80 19.17356
779.90 17.81478
780.00 16.6306
780.10 15.83226
780.20 15.56224
780.30 15.87172
780.40 16.70712
780.50 17.9186
780.60 19.29826
780.70 20.60594
780.80 21.64524
780.90 22.31838
781.00 22.63523
781.10 22.69147
781.20 22.60895
781.30 22.51637
781.40 22.51871
781.50 22.68591
781.60 23.03853
781.70 23.51853
781.80 24.0234
781.90 24.46464
782.00 24.78832
782.10 24.96327
782.20 24.97159
782.30 24.83034
782.40 24.57905
782.50 24.25878
782.60 23.91341
782.70 23.58048
782.80 23.29724
782.90 23.08407
783.00 22.93594
783.10 22.87022
783.20 22.92866
783.30 23.11867
783.40 23.38691
783.50 23.69518
783.60 24.03964
783.70 24.4058
783.80 24.77304
783.90 25.12741
784.00 25.4779
784.10 25.83948
784.20 26.21214
784.30 26.59274
784.40 26.97317
784.50 27.31276
784.60 27.5298
784.70 27.57916
784.80 27.5158
784.90 27.41678
785.00 27.28895
785.10 27.12175
785.20 26.95009
785.30 26.83111
785.40 26.78965
785.50 26.81322
785.60 26.89178
785.70 27.01237
785.80 27.15991
785.90 27.32155
786.00 27.4986
786.10 27.6798
786.20 27.79318
786.30 27.76085
786.40 27.61263
786.50 27.43533
786.60 27.28435
786.70 27.16751
786.80 27.06777
786.90 26.97408
787.00 26.84595
787.10 26.6362
787.20 26.3358
787.30 25.97805
787.40 25.62475
787.50 25.34695
787.60 25.22414
787.70 25.3308
787.80 25.67238
787.90 26.18634
788.00 26.77323
788.10 27.32153
788.20 27.74979
788.30 28.01264
788.40 28.13192
788.50 28.16802
788.60 28.14768
788.70 28.0974
788.80 28.06247
788.90 28.0842
789.00 28.1771
789.10 28.30092
789.20 28.40428
789.30 28.44582
789.40 28.40718
789.50 28.29173
789.60 28.10041
789.70 27.84134
789.80 27.52054
789.90 27.1568
790.00 26.81347
790.10 26.55764
790.20 26.42131
790.30 26.40359
790.40 26.48694
790.50 26.65637
790.60 26.87856
790.70 27.09473
790.80 27.26127
790.90 27.38723
791.00 27.49995
791.10 27.62848
791.20 27.76587
791.30 27.88885
791.40 27.9861
791.50 28.03276
791.60 28.02543
791.70 27.96727
791.80 27.85757
791.90 27.71042
792.00 27.55222
792.10 27.41366
792.20 27.29827
792.30 27.17821
792.40 27.03399
792.50 26.86508
792.60 26.72089
792.70 26.67123
792.80 26.76986
792.90 27.05718
793.00 27.531
793.10 28.15587
793.20 28.86859
793.30 29.56661
793.40 30.1313
793.50 30.46626
793.60 30.52063
793.70 30.30292
793.80 29.87078
793.90 29.29871
794.00 28.65433
794.10 27.99123
794.20 27.32864
794.30 26.64414
794.40 25.89452
794.50 25.06568
794.60 24.20172
794.70 23.4016
794.80 22.8022
794.90 22.54495
795.00 22.73258
795.10 23.38025
795.20 24.40601
795.30 25.66335
795.40 26.98026
795.50 28.16984
795.60 29.07925
795.70 29.64249
795.80 29.89684
795.90 29.96767
796.00 29.96245
796.10 29.92416
796.20 29.89784
796.30 29.93467
796.40 30.04675
796.50 30.20602
796.60 30.37351
796.70 30.52016
796.80 30.62651
796.90 30.68941
797.00 30.71408
797.10 30.71479
797.20 30.68884
797.30 30.60335
797.40 30.47921
797.50 30.39422
797.60 30.38495
797.70 30.42557
797.80 30.48987
797.90 30.56369
798.00 30.62802
798.10 30.65279
798.20 30.6031
798.30 30.46677
798.40 30.26027
798.50 30.01577
798.60 29.78316
798.70 29.63216
798.80 29.59957
798.90 29.66521
799.00 29.81217
799.10 30.03707
799.20 30.30555
799.30 30.57744
799.40 30.81512
799.50 30.99005
799.60 31.10692
799.70 31.18404
799.80 31.25554
799.90 31.35358
800.00 31.49688
800.10 31.67983
800.20 31.88511
800.30 32.10265
800.40 32.29283
800.50 32.41977
800.60 32.47912
800.70 32.47664
800.80 32.45111
800.90 32.46519
801.00 32.5701
801.10 32.79511
801.20 33.11765
801.30 33.47378
801.40 33.79821
801.50 34.03369
801.60 34.13893
801.70 34.11339
801.80 34.00196
801.90 33.85355
802.00 33.73184
802.10 33.71126
802.20 33.83091
802.30 34.11515
802.40 34.5714
802.50 35.16134
802.60 35.83313
802.70 36.52553
802.80 37.15632
802.90 37.66098
803.00 38.01427
803.10 38.20788
803.20 38.23732
803.30 38.11378
803.40 37.85998
803.50 37.52133
803.60 37.17211
803.70 36.86792
803.80 36.63331
803.90 36.48649
804.00 36.45181
804.10 36.56392
804.20 36.82538
804.30 37.17947
804.40 37.53783
804.50 37.83231
804.60 38.03297
804.70 38.16314
804.80 38.31459
804.90 38.58522
805.00 39.02671
805.10 39.63918
805.20 40.38283
805.30 41.19929
805.40 41.99893
805.50 42.67611
805.60 43.16814
805.70 43.43719
805.80 43.48311
805.90 43.37099
806.00 43.19446
806.10 43.02527
806.20 42.87123
806.30 42.71964
806.40 42.58569
806.50 42.49506
806.60 42.47246
806.70 42.53213
806.80 42.67886
806.90 42.91271
807.00 43.21278
807.10 43.57937
807.20 44.03936
807.30 44.58367
807.40 45.16296
807.50 45.72361
807.60 46.21968
807.70 46.62161
807.80 46.92087
807.90 47.14521
808.00 47.34465
808.10 47.55889
808.20 47.80301
808.30 48.06526
808.40 48.32585
808.50 48.53893
808.60 48.6305
808.70 48.55511
808.80 48.32391
808.90 47.99294
809.00 47.64825
809.10 47.36679
809.20 47.20189
809.30 47.17268
809.40 47.24303
809.50 47.35095
809.60 47.44033
809.70 47.47084
809.80 47.43989
809.90 47.39266
810.00 47.39499
810.10 47.48743
810.20 47.68669
810.30 47.99132
810.40 48.3761
810.50 48.79755
810.60 49.19406
810.70 49.50437
810.80 49.70276
810.90 49.81429
811.00 49.89145
811.10 49.97611
811.20 50.08007
811.30 50.21038
811.40 50.38566
811.50 50.64024
811.60 51.01228
811.70 51.50748
811.80 52.07201
811.90 52.61603
812.00 53.0535
812.10 53.31594
812.20 53.39689
812.30 53.34029
812.40 53.22017
812.50 53.14914
812.60 53.23167
812.70 53.51651
812.80 53.97682
812.90 54.5288
813.00 55.06024
813.10 55.46859
813.20 55.72015
813.30 55.8765
813.40 56.0476
813.50 56.33265
813.60 56.7589
813.70 57.2642
813.80 57.72873
813.90 57.99731
814.00 57.93697
814.10 57.50445
814.20 56.7566
814.30 55.83219
814.40 54.88214
814.50 54.03706
814.60 53.42631
814.70 53.13363
814.80 53.15639
814.90 53.41618
815.00 53.81469
815.10 54.2763
815.20 54.75709
815.30 55.24328
815.40 55.73327
815.50 56.20533
815.60 56.62477
815.70 56.94403
815.80 57.14555
815.90 57.27418
816.00 57.39548
816.10 57.56606
816.20 57.82904
816.30 58.18491
816.40 58.5873
816.50 58.99379
816.60 59.38318
816.70 59.74172
816.80 60.05725
816.90 60.3445
817.00 60.63447
817.10 60.96812
817.20 61.37474
817.30 61.82706
817.40 62.21768
817.50 62.38532
817.60 62.18046
817.70 61.5309
817.80 60.41825
817.90 58.83231
818.00 56.80288
818.10 54.45809
818.20 52.03427
818.30 49.83894
818.40 48.18018
818.50 47.26387
818.60 47.14931
818.70 47.73769
818.80 48.7919
818.90 49.96286
819.00 50.85464
819.10 51.13583
819.20 50.64701
819.30 49.4556
819.40 47.81981
819.50 46.12148
819.60 44.76529
819.70 44.05278
819.80 44.12376
819.90 44.9901
820.00 46.5501
820.10 48.57912
820.20 50.77361
820.30 52.83772
820.40 54.56583
820.50 55.87233
820.60 56.77054
820.70 57.33328
820.80 57.67094
820.90 57.89224
821.00 58.05736
821.10 58.18337
821.20 58.29114
821.30 58.38863
821.40 58.45273
821.50 58.46548
821.60 58.44657
821.70 58.46476
821.80 58.58464
821.90 58.83797
822.00 59.21242
822.10 59.64983
822.20 60.07211
822.30 60.41715
822.40 60.69635
822.50 60.96516
822.60 61.25772
822.70 61.5698
822.80 61.89274
822.90 62.23588
823.00 62.58271
823.10 62.88585
823.20 63.09431
823.30 63.18061
823.40 63.17239
823.50 63.14404
823.60 63.1704
823.70 63.29679
823.80 63.52275
823.90 63.81457
824.00 64.13447
824.10 64.46963
824.20 64.81252
824.30 65.16492
824.40 65.56345
824.50 66.05024
824.60 66.64255
824.70 67.26955
824.80 67.78268
824.90 68.03528
825.00 67.95121
825.10 67.53117
825.20 66.82408
825.30 65.93225
825.40 65.01241
825.50 64.23393
825.60 63.75578
825.70 63.67145
825.80 63.94668
825.90 64.45115
826.00 65.03152
826.10 65.57769
826.20 66.03365
826.30 66.3727
826.40 66.57393
826.50 66.63601
826.60 66.61082
826.70 66.56964
826.80 66.54223
826.90 66.51228
827.00 66.42861
827.10 66.26304
827.20 66.05962
827.30 65.90952
827.40 65.89508
827.50 66.05835
827.60 66.39379
827.70 66.83777
827.80 67.28784
827.90 67.63083
828.00 67.75913
828.10 67.62913
828.20 67.25268
828.30 66.68701
828.40 66.06061
828.50 65.49644
828.60 65.04575
828.70 64.6833
828.80 64.34204
828.90 63.95751
829.00 63.50171
829.10 63.0004
829.20 62.52102
829.30 62.13348
829.40 61.89852
829.50 61.83506
829.60 61.92741
829.70 62.13502
829.80 62.35005
829.90 62.42579
830.00 62.27425
830.10 61.89602
830.20 61.34888
830.30 60.73012
830.40 60.12768
830.50 59.61095
830.60 59.24431
830.70 59.08302
830.80 59.14604
830.90 59.40477
831.00 59.81436
831.10 60.31142
831.20 60.81954
831.30 61.29814
831.40 61.73615
831.50 62.12805
831.60 62.47356
831.70 62.78766
831.80 63.10724
831.90 63.45751
832.00 63.82108
832.10 64.16458
832.20 64.44169
832.30 64.59329
832.40 64.56344
832.50 64.34291
832.60 63.99062
832.70 63.59886
832.80 63.26603
832.90 63.0809
833.00 63.10768
833.10 63.34038
833.20 63.70009
833.30 64.09284
833.40 64.44229
833.50 64.69804
833.60 64.86519
833.70 64.9977
833.80 65.15245
833.90 65.33759
834.00 65.51087
834.10 65.63186
834.20 65.75441
834.30 65.95988
834.40 66.25467
834.50 66.60977
834.60 66.98594
834.70 67.33757
834.80 67.60343
834.90 67.71339
835.00 67.59565
835.10 67.22505
835.20 66.66817
835.30 66.05937
835.40 65.55042
835.50 65.26022
835.60 65.17842
835.70 65.20713
835.80 65.28595
835.90 65.39762
836.00 65.54234
836.10 65.72829
836.20 65.97062
836.30 66.29165
836.40 66.72718
836.50 67.28015
836.60 67.89553
836.70 68.49566
836.80 69.00818
836.90 69.35606
837.00 69.44839
837.10 69.23637
837.20 68.7325
837.30 67.99302
837.40 67.12887
837.50 66.28952
837.60 65.63602
837.70 65.31726
837.80 65.40012
837.90 65.83149
838.00 66.47722
838.10 67.16294
838.20 67.70856
838.30 67.95547
838.40 67.79992
838.50 67.22269
838.60 66.30757
838.70 65.21564
838.80 64.12977
838.90 63.22574
839.00 62.63303
839.10 62.38508
839.20 62.47118
839.30 62.89198
839.40 63.59915
839.50 64.49975
839.60 65.55162
839.70 66.73805
839.80 68.01911
839.90 69.33913
840.00 70.56856
840.10 71.52955
840.20 72.11173
840.30 72.29126
840.40 72.14264
840.50 71.81005
840.60 71.41884
840.70 71.05033
840.80 70.75743
840.90 70.5886
841.00 70.53372
841.10 70.53822
841.20 70.57715
841.30 70.63326
841.40 70.72128
841.50 70.88284
841.60 71.097
841.70 71.27964
841.80 71.32693
841.90 71.16225
842.00 70.77066
842.10 70.21619
842.20 69.62062
842.30 69.09148
842.40 68.69842
842.50 68.4576
842.60 68.33628
842.70 68.35932
842.80 68.55121
842.90 68.84773
843.00 69.14261
843.10 69.27435
843.20 69.05101
843.30 68.34023
843.40 67.13403
843.50 65.52125
843.60 63.67794
843.70 61.82494
843.80 60.16273
843.90 58.86859
844.00 58.04017
844.10 57.57165
844.20 57.24919
844.30 56.9155
844.40 56.48489
844.50 55.97265
844.60 55.46129
844.70 55.02019
844.80 54.60804
844.90 54.12872
845.00 53.56716
845.10 52.98322
845.20 52.44432
845.30 51.98547
845.40 51.61291
845.50 51.33597
845.60 51.18767
845.70 51.17762
845.80 51.26896
845.90 51.39331
846.00 51.50047
846.10 51.58323
846.20 51.67858
846.30 51.82447
846.40 52.03744
846.50 52.31072
846.60 52.58963
846.70 52.82238
846.80 52.97994
846.90 53.05263
847.00 53.036
847.10 52.94036
847.20 52.79632
847.30 52.6422
847.40 52.49245
847.50 52.33266
847.60 52.20073
847.70 52.16041
847.80 52.16974
847.90 52.11245
848.00 51.92151
848.10 51.58978
848.20 51.18218
848.30 50.80283
848.40 50.52685
848.50 50.39566
848.60 50.43522
848.70 50.67086
848.80 51.10837
848.90 51.73422
849.00 52.49832
849.10 53.31742
849.20 54.13094
849.30 54.89574
849.40 55.5458
849.50 55.99026
849.60 56.13872
849.70 55.96563
849.80 55.54394
849.90 55.02241
850.00 54.55555
850.10 54.24476
850.20 54.15707
850.30 54.31071
850.40 54.68005
850.50 55.20571
850.60 55.76972
850.70 56.24719
850.80 56.56901
850.90 56.72802
851.00 56.74379
851.10 56.62178
851.20 56.35191
851.30 55.92244
851.40 55.34235
851.50 54.63694
851.60 53.80216
851.70 52.78573
851.80 51.52355
851.90 50.01022
852.00 48.36113
852.10 46.82046
852.20 45.67198
852.30 45.14038
852.40 45.34613
852.50 46.28543
852.60 47.83451
852.70 49.76339
852.80 51.77347
852.90 53.57689
853.00 54.96891
853.10 55.9023
853.20 56.44128
853.30 56.66149
853.40 56.64001
853.50 56.4392
853.60 56.14237
853.70 55.88173
853.80 55.76748
853.90 55.84018
854.00 56.10095
854.10 56.52346
854.20 57.04463
854.30 57.56331
854.40 57.99759
854.50 58.31185
854.60 58.54982
854.70 58.84581
854.80 59.32557
854.90 60.03516
855.00 60.91994
855.10 61.83908
855.20 62.65092
855.30 63.26891
855.40 63.63843
855.50 63.73528
855.60 63.58474
855.70 63.27015
855.80 62.89763
855.90 62.54831
856.00 62.23453
856.10 61.93368
856.20 61.64494
856.30 61.39583
856.40 61.22868
856.50 61.1795
856.60 61.2551
856.70 61.43514
856.80 61.67245
856.90 61.88737
857.00 62.01397
857.10 62.02282
857.20 61.90278
857.30 61.66399
857.40 61.36358
857.50 61.08896
857.60 60.92317
857.70 60.9161
857.80 61.0554
857.90 61.29601
858.00 61.60035
858.10 61.92762
858.20 62.24053
858.30 62.53107
858.40 62.82296
858.50 63.12613
858.60 63.41667
858.70 63.64814
858.80 63.77451
858.90 63.75673
859.00 63.5694
859.10 63.24886
859.20 62.90569
859.30 62.65666
859.40 62.59116
859.50 62.75415
859.60 63.10505
859.70 63.56639
859.80 64.04023
859.90 64.42201
860.00 64.64246
860.10 64.68789
860.20 64.58641
860.30 64.40283
860.40 64.21823
860.50 64.05328
860.60 63.85306
860.70 63.53794
860.80 62.99841
860.90 62.14181
861.00 60.99087
861.10 59.59847
861.20 57.98769
861.30 56.21763
861.40 54.39961
861.50 52.67209
861.60 51.16987
861.70 49.97527
861.80 49.09862
861.90 48.51066
862.00 48.1508
862.10 47.92386
862.20 47.74243
862.30 47.53994
862.40 47.24833
862.50 46.81941
862.60 46.2777
862.70 45.71436
862.80 45.2437
862.90 44.94178
863.00 44.82484
863.10 44.88642
863.20 45.10637
863.30 45.43289
863.40 45.78539
863.50 46.10092
863.60 46.35367
863.70 46.54576
863.80 46.69871
863.90 46.86334
864.00 47.10253
864.10 47.43991
864.20 47.85189
864.30 48.30659
864.40 48.7878
864.50 49.29639
864.60 49.83561
864.70 50.39975
864.80 50.9962
864.90 51.65329
865.00 52.39464
865.10 53.19073
865.20 53.95305
865.30 54.60545
865.40 55.11447
865.50 55.48583
865.60 55.77146
865.70 56.0605
865.80 56.41428
865.90 56.80184
866.00 57.13898
866.10 57.35757
866.20 57.43993
866.30 57.39472
866.40 57.21
866.50 56.89624
866.60 56.50159
866.70 56.07117
866.80 55.63901
866.90 55.23582
867.00 54.88361
867.10 54.56641
867.20 54.25149
867.30 53.98827
867.40 53.90432
867.50 54.08333
867.60 54.50367
867.70 55.05879
867.80 55.61922
867.90 56.07275
868.00 56.37014
868.10 56.49564
868.20 56.44224
868.30 56.24416
868.40 55.96471
868.50 55.66847
868.60 55.41259
868.70 55.17978
868.80 54.84931
868.90 54.28982
869.00 53.40567
869.10 52.14692
869.20 50.53599
869.30 48.65602
869.40 46.62008
869.50 44.62403
869.60 42.91684
869.70 41.66704
869.80 40.93649
869.90 40.73115
870.00 41.00529
870.10 41.64973
870.20 42.51485
870.30 43.42691
870.40 44.21881
870.50 44.78349
870.60 45.07351
870.70 45.08531
870.80 44.84251
870.90 44.37022
871.00 43.70549
871.10 42.94196
871.20 42.20315
871.30 41.58301
871.40 41.13926
871.50 40.88642
871.60 40.80451
871.70 40.87153
871.80 41.0708
871.90 41.36455
872.00 41.70958
872.10 42.09432
872.20 42.56273
872.30 43.17111
872.40 43.93961
872.50 44.84661
872.60 45.83107
872.70 46.78571
872.80 47.57771
872.90 48.11891
873.00 48.37951
873.10 48.35231
873.20 48.05123
873.30 47.53636
873.40 46.90531
873.50 46.28778
873.60 45.82155
873.70 45.59938
873.80 45.66269
873.90 46.02339
874.00 46.66086
874.10 47.55147
874.20 48.65261
874.30 49.83132
874.40 50.88789
874.50 51.63943
874.60 51.98893
874.70 51.93383
874.80 51.57258
874.90 51.05675
875.00 50.52051
875.10 50.0913
875.20 49.88085
875.30 49.93766
875.40 50.26753
875.50 50.82517
875.60 51.50921
875.70 52.25568
875.80 53.06035
875.90 53.94372
876.00 54.88089
876.10 55.77035
876.20 56.48114
876.30 56.88646
876.40 56.87215
876.50 56.43624
876.60 55.75345
876.70 55.0983
876.80 54.75259
876.90 54.92462
877.00 55.74453
877.10 57.22165
877.20 59.22367
877.30 61.47998
877.40 63.58939
877.50 65.21494
877.60 66.16395
877.70 66.38112
877.80 65.99892
877.90 65.22142
878.00 64.20484
878.10 63.09119
878.20 62.04011
878.30 61.19939
878.40 60.6333
878.50 60.29982
878.60 60.09852
878.70 59.95857
878.80 59.95793
878.90 60.1825
879.00 60.61632
879.10 61.21433
879.20 61.92479
879.30 62.70354
879.40 63.50068
879.50 64.24501
879.60 64.7854
879.70 64.93048
879.80 64.54123
879.90 63.58307
880.00 62.15468
880.10 60.45334
880.20 58.68526
880.30 57.04056
880.40 55.70557
880.50 54.82327
880.60 54.49246
880.70 54.77652
880.80 55.67847
880.90 57.12773
881.00 59.03727
881.10 61.33717
881.20 63.94911
881.30 66.76249
881.40 69.60816
881.50 72.25711
881.60 74.47035
881.70 76.04922
881.80 76.8614
881.90 76.86668
882.00 76.09094
882.10 74.58485
882.20 72.50231
882.30 70.13255
882.40 67.79935
882.50 65.81291
882.60 64.51154
882.70 64.16586
882.80 64.79874
882.90 66.21668
883.00 68.08406
883.10 69.99866
883.20 71.63559
883.30 72.80096
883.40 73.45482
883.50 73.75513
883.60 73.9666
883.70 74.34031
883.80 75.04642
883.90 76.07987
884.00 77.17181
884.10 77.89741
884.20 77.90142
884.30 76.95242
884.40 75.01391
884.50 72.30719
884.60 69.2335
884.70 66.31465
884.80 64.09538
884.90 62.97654
885.00 63.1218
885.10 64.43623
885.20 66.59294
885.30 69.09263
885.40 71.37169
885.50 72.95935
885.60 73.57301
885.70 73.15364
885.80 71.84772
885.90 69.9722
886.00 67.95947
886.10 66.22218
886.20 65.02221
886.30 64.43631
886.40 64.38809
886.50 64.70315
886.60 65.16711
886.70 65.51848
886.80 65.4817
886.90 64.85444
887.00 63.58778
887.10 61.82443
887.20 59.85034
887.30 58.03741
887.40 56.76305
887.50 56.3137
887.60 56.83911
887.70 58.29443
887.80 60.43838
887.90 62.88597
888.00 65.19561
888.10 67.00652
888.20 68.05345
888.30 68.32485
888.40 68.18862
888.50 68.14353
888.60 68.5656
888.70 69.59516
888.80 71.09266
888.90 72.6978
889.00 73.98032
889.10 74.5645
889.20 74.16542
889.30 72.66232
889.40 70.1922
889.50 67.17592
889.60 64.28399
889.70 62.11568
889.80 60.91174
889.90 60.73186
890.00 61.60201
890.10 63.43664
890.20 65.98773
890.30 68.89721
890.40 71.71565
890.50 73.98273
890.60 75.37744
890.70 75.75165
890.80 75.13805
890.90 73.76388
891.00 72.0122
891.10 70.33019
891.20 69.15158
891.30 68.73306
891.40 69.08581
891.50 70.06827
891.60 71.46996
891.70 73.05976
891.80 74.64738
891.90 76.08542
892.00 77.22841
892.10 77.9189
892.20 78.03065
892.30 77.52024
892.40 76.42868
892.50 74.91035
892.60 73.22497
892.70 71.67654
892.80 70.59792
892.90 70.29823
893.00 70.93432
893.10 72.4394
893.20 74.51373
893.30 76.69716
893.40 78.50516
893.50 79.58196
893.60 79.71016
893.70 78.79277
893.80 76.91392
893.90 74.28047
894.00 71.16226
894.10 67.94195
894.20 65.042
894.30 62.80284
894.40 61.461
894.50 61.10886
894.60 61.66498
894.70 62.90287
894.80 64.48352
894.90 66.00248
895.00 67.13825
895.10 67.80837
895.20 68.14377
895.30 68.40866
895.40 68.92322
895.50 69.94088
895.60 71.57332
895.70 73.77919
895.80 76.32649
895.90 78.79797
896.00 80.73228
896.10 81.76871
896.20 81.75335
896.30 80.76969
896.40 79.06417
896.50 76.93857
896.60 74.74999
896.70 72.88712
896.80 71.66176
896.90 71.26476
897.00 71.7036
897.10 72.78898
897.20 74.26676
897.30 75.93869
897.40 77.67524
897.50 79.34833
897.60 80.79329
897.70 81.88629
897.80 82.60334
897.90 83.00733
898.00 83.20179
898.10 83.32855
898.20 83.60858
898.30 84.2524
898.40 85.35181
898.50 86.84904
898.60 88.51932
898.70 90.00132
898.80 90.92955
898.90 91.11475
899.00 90.57954
899.10 89.46509
899.20 87.96675
899.30 86.27074
899.40 84.55476
899.50 82.99699
899.60 81.69225
899.70 80.63543
899.80 79.87544
899.90 79.59952
900.00 79.14974
900.10 79.12685
900.20 79.97066
900.30 80.83774
900.40 82.84514
900.50 84.85254
900.60 84.41875
900.70 82.98786
900.80 81.76463
900.90 80.8529
901.00 79.93561
901.10 78.9544
901.20 77.97319
901.30 78.96722
901.40 80.55126
901.50 81.71071
901.60 82.37172
901.70 83.05021
901.80 83.82779
901.90 84.60536
902.00 84.10042
902.10 83.33279
902.20 82.40545
902.30 81.33069
902.40 80.3173
902.50 79.53482
902.60 78.75234
902.70 77.31411
902.80 75.80301
902.90 75.64381
903.00 76.42407
903.10 77.35092
903.20 78.6741
903.30 79.99728
903.40 82.6685
903.50 85.39589
903.60 86.65466
903.70 87.12264
903.80 87.41198
903.90 87.35455
904.00 87.26435
904.10 86.11426
904.20 84.96418
904.30 84.23549
904.40 83.67068
904.50 83.37376
904.60 83.47869
904.70 83.56272
904.80 83.43558
904.90 83.30843
905.00 82.46769
905.10 81.42569
905.20 80.52986
905.30 79.79886
905.40 79.24337
905.50 79.60932
905.60 79.97527
905.70 80.91145
905.80 81.94825
905.90 82.17765
906.00 81.69106
906.10 81.06132
906.20 79.92406
906.30 78.78679
906.40 79.00995
906.50 79.36765
906.60 79.90665
906.70 80.56651
906.80 81.23881
906.90 81.94156
907.00 82.64432
907.10 81.30715
907.20 79.92834
907.30 80.37592
907.40 81.72305
907.50 83.0892
907.60 84.49064
907.70 85.89035
907.80 87.24848
907.90 88.6066
908.00 88.3533
908.10 87.50399
908.20 86.73486
908.30 86.07644
908.40 85.40772
908.50 84.65555
908.60 83.90338
908.70 83.10049
908.80 82.28492
908.90 82.14251
909.00 82.70074
909.10 83.25984
909.20 83.82293
909.30 84.38601
909.40 84.90583
909.50 85.4192
909.60 85.32171
909.70 84.72445
909.80 84.22084
909.90 84.01382
910.00 83.80679
910.10 83.7753
910.20 83.75703
910.30 83.71231
910.40 83.65139
910.50 83.4414
910.60 82.89964
910.70 82.35788
910.80 83.5734
910.90 84.78892
911.00 85.89787
911.10 86.95894
911.20 87.59948
911.30 87.5539
911.40 87.40125
911.50 85.82606
911.60 84.25087
911.70 85.13128
911.80 86.78713
911.90 87.89964
912.00 88.34808
912.10 88.88155
912.20 89.98414
912.30 91.08672
912.40 91.30554
912.50 91.33036
912.60 91.49028
912.70 91.78
912.80 91.78332
912.90 90.64102
913.00 89.49872
913.10 89.26613
913.20 89.14598
913.30 89.38566
913.40 89.8859
913.50 90.22214
913.60 90.11496
913.70 90.00778
913.80 88.86822
913.90 87.68565
914.00 86.87267
914.10 86.25871
914.20 85.61287
914.30 84.90515
914.40 84.24669
914.50 85.18107
914.60 86.11544
914.70 86.39818
914.80 86.42751
914.90 86.71616
915.00 87.37796
915.10 87.9775
915.20 88.01677
915.30 88.05603
915.40 89.15109
915.50 90.52681
915.60 92.1765
915.70 94.12297
915.80 95.72315
915.90 95.63255
916.00 95.54196
916.10 93.50379
916.20 91.14856
916.30 89.05414
916.40 87.1731
916.50 86.12418
916.60 87.71031
916.70 89.29644
916.80 91.31989
916.90 93.37625
917.00 94.05862
917.10 93.89887
917.20 93.43267
917.30 92.2844
917.40 91.13612
917.50 89.83441
917.60 88.53269
917.70 88.46826
917.80 88.9597
917.90 89.46559
918.00 89.99505
918.10 90.51709
918.20 90.9405
918.30 91.36392
918.40 91.02799
918.50 90.45227
918.60 90.47826
918.70 91.23968
918.80 92.08064
918.90 93.41022
919.00 94.7398
919.10 95.94034
919.20 97.11446
919.30 96.98213
919.40 95.64387
919.50 94.25395
919.60 92.66974
919.70 91.08553
919.80 91.50689
919.90 92.15109
920.00 93.21856
920.10 94.58018
920.20 95.64101
920.30 95.92836
920.40 96.21571
920.50 95.06837
920.60 93.87666
920.70 92.73915
920.80 91.62957
920.90 90.33973
921.00 88.71513
921.10 87.15239
921.20 87.07432
921.30 86.99625
921.40 87.88515
921.50 89.13169
921.60 90.3706
921.70 91.59898
921.80 92.78519
921.90 93.63021
922.00 94.47523
922.10 94.37491
922.20 94.03826
922.30 93.75025
922.40 93.51288
922.50 93.19269
922.60 92.49524
922.70 91.79779
922.80 91.10878
922.90 90.42103
923.00 89.2312
923.10 87.64688
923.20 86.58803
923.30 87.10563
923.40 87.62323
923.50 88.52626
923.60 89.44958
923.70 90.23722
923.80 90.94855
923.90 91.68568
924.00 92.47519
924.10 93.27938
924.20 94.8029
924.30 96.32641
924.40 96.45135
924.50 96.00503
924.60 94.80991
924.70 92.49158
924.80 90.25643
924.90 88.86232
925.00 87.46821
925.10 86.93781
925.20 86.65103
925.30 87.13517
925.40 88.48867
925.50 89.84503
925.60 91.21647
925.70 92.5879
925.80 93.57192
925.90 94.48756
926.00 93.8072
926.10 91.76728
926.20 90.195
926.30 90.10362
926.40 90.01224
926.50 91.46709
926.60 93.03833
926.70 94.28382
926.80 95.32966
926.90 95.51191
927.00 93.77201
927.10 92.03211
927.20 90.75567
927.30 89.47923
927.40 88.70645
927.50 88.15995
927.60 87.49538
927.70 86.63818
927.80 85.77699
927.90 84.86281
928.00 83.94863
928.10 83.91881
928.20 84.16825
928.30 84.98356
928.40 86.49047
928.50 87.81692
928.60 88.12074
928.70 88.42456
928.80 87.24061
928.90 85.77328
929.00 85.10164
929.10 85.13559
929.20 85.38854
929.30 86.41791
929.40 87.44727
929.50 87.54495
929.60 87.55048
929.70 87.51471
929.80 87.45142
929.90 87.65887
930.00 88.52916
930.10 89.39945
930.20 88.85319
930.30 88.27803
930.40 87.59892
930.50 86.8709
930.60 86.14613
930.70 85.42691
930.80 84.74008
930.90 84.56081
931.00 84.38154
931.10 84.90584
931.20 85.66466
931.30 86.99192
931.40 89.04264
931.50 90.80257
931.60 90.67816
931.70 90.58848
931.80 90.4988
931.90 91.38642
932.00 92.35902
932.10 93.14983
932.20 93.21345
932.30 93.27707
932.40 92.41099
932.50 90.53774
932.60 88.66449
932.70 87.87215
932.80 87.42115
932.90 87.01198
933.00 87.60649
933.10 88.20099
933.20 88.45519
933.30 88.01847
933.40 87.58176
933.50 87.22949
933.60 86.93122
933.70 86.63296
933.80 86.84326
933.90 87.11643
934.00 87.52006
934.10 88.56069
934.20 89.60133
934.30 90.20773
934.40 90.28342
934.50 90.3591
934.60 90.53873
934.70 90.75489
934.80 90.97031
934.90 91.14977
935.00 91.32923
935.10 91.28897
935.20 90.73603
935.30 90.18309
935.40 89.16852
935.50 87.81968
935.60 86.47084
935.70 86.3946
935.80 86.50852
935.90 86.87571
936.00 88.67806
936.10 90.48041
936.20 91.91493
936.30 92.86186
936.40 93.80878
936.50 93.60005
936.60 92.91928
936.70 92.23851
936.80 91.02762
936.90 89.81673
937.00 88.89423
937.10 88.71334
937.20 88.53244
937.30 88.7406
937.40 89.25445
937.50 89.7683
937.60 90.02928
937.70 90.2421
937.80 90.35508
937.90 89.79994
938.00 89.24479
938.10 89.00341
938.20 89.21353
938.30 89.42365
938.40 89.61917
938.50 89.80814
938.60 89.99711
938.70 89.44558
938.80 88.87894
938.90 88.6264
939.00 89.26788
939.10 89.90935
939.20 90.53424
939.30 91.14499
939.40 91.75575
939.50 92.09156
939.60 92.37105
939.70 92.46473
939.80 91.05512
939.90 89.64551
940.00 88.6348
940.10 88.24802
940.20 87.86123
940.30 88.47617
940.40 89.56251
940.50 90.64884
940.60 92.14542
940.70 93.65909
940.80 94.63944
940.90 94.01981
941.00 93.40019
941.10 92.96464
941.20 92.69234
941.30 92.42004
941.40 92.41184
941.50 92.4656
941.60 92.51428
941.70 92.51725
941.80 92.52022
941.90 92.13905
942.00 91.13112
942.10 90.12319
942.20 90.01397
942.30 90.3474
942.40 90.68084
942.50 90.63761
942.60 90.57457
942.70 90.85977
942.80 92.31084
942.90 93.7619
943.00 95.11369
943.10 96.37383
943.20 97.63397
943.30 98.86268
943.40 100.0835
943.50 101.0687
943.60 99.67096
943.70 98.27323
943.80 97.16782
943.90 96.56014
944.00 95.95246
944.10 95.45274
944.20 95.00865
944.30 94.56455
944.40 94.31001
944.50 94.06757
944.60 93.73997
944.70 93.12724
944.80 92.51451
944.90 92.42615
945.00 92.84159
945.10 93.25704
945.20 94.1967
945.30 95.26742
945.40 96.26857
945.50 96.46975
945.60 96.67094
945.70 96.61592
945.80 96.12469
945.90 95.63345
946.00 94.75304
946.10 93.66308
946.20 92.57312
946.30 92.24942
946.40 91.97463
946.50 91.93961
946.60 92.75473
946.70 93.56984
946.80 94.361
946.90 95.12913
947.00 95.89727
947.10 96.20323
947.20 96.38633
947.30 96.5877
947.40 96.9991
947.50 97.41051
947.60 97.59847
947.70 97.40598
947.80 97.21349
947.90 96.84883
948.00 96.39146
948.10 95.93409
948.20 95.90223
948.30 95.89754
948.40 96.21544
948.50 97.67708
948.60 99.13873
948.70 100.5799
948.80 102.0015
948.90 103.423
949.00 103.8403
949.10 104.0065
949.20 104.0385
949.30 102.5265
949.40 101.0144
949.50 99.92034
949.60 99.53785
949.70 99.15536
949.80 99.1065
949.90 99.23729
950.00 99.36808
950.10 99.76997
950.20 100.1892
950.30 100.4157
950.40 99.99752
950.50 99.57929
950.60 99.83063
950.70 100.7253
950.80 101.6199
950.90 101.5746
951.00 101.2943
951.10 101.0616
951.20 101.3106
951.30 101.5596
951.40 101.2679
951.50 100.0555
951.60 98.84315
951.70 97.81871
951.80 96.89108
951.90 95.96345
952.00 95.69725
952.10 95.46586
952.20 95.82999
952.30 98.18782
952.40 100.5456
952.50 102.7765
952.60 104.89
952.70 107.0036
952.80 106.4567
952.90 105.2858
953.00 104.0402
953.10 102.1233
953.20 100.2063
953.30 98.75473
953.40 98.06233
953.50 97.36992
953.60 97.94535
953.70 99.14523
953.80 100.3451
953.90 100.1476
954.00 99.89188
954.10 99.67924
954.20 99.60308
954.30 99.52691
954.40 99.91472
954.50 100.714
954.60 101.5132
954.70 103.1822
954.80 105.0422
954.90 106.7353
955.00 107.0784
955.10 107.4214
955.20 107.2856
955.30 106.4318
955.40 105.5779
955.50 104.7607
955.60 103.9609
955.70 103.1611
955.80 102.7406
955.90 102.3317
956.00 101.9991
956.10 101.8832
956.20 101.7673
956.30 101.9388
956.40 102.3454
956.50 102.752
956.60 103.0229
956.70 103.268
956.80 103.5019
956.90 103.6532
957.00 103.8046
957.10 103.899
957.20 103.9113
957.30 103.9236
957.40 103.8903
957.50 103.8375
957.60 103.7847
957.70 103.2288
957.80 102.6677
957.90 102.1587
958.00 101.7832
958.10 101.4078
958.20 101.0998
958.30 100.8428
958.40 100.5857
958.50 99.74785
958.60 98.80752
958.70 97.90063
958.80 97.19909
958.90 96.49755
959.00 95.61563
959.10 94.49461
959.20 93.37359
959.30 93.11461
959.40 93.19087
959.50 93.26738
959.60 93.36787
959.70 93.46837
959.80 93.68409
959.90 94.16867
960.00 94.65326
960.10 95.25717
960.20 95.944
960.30 96.63082
960.40 97.06189
960.50 97.45808
960.60 97.77058
960.70 97.64374
960.80 97.51689
960.90 96.9534
961.00 95.85623
961.10 94.75906
961.20 94.16345
961.30 93.74406
961.40 93.36434
961.50 94.26706
961.60 95.16978
961.70 96.17433
961.80 97.39527
961.90 98.61621
962.00 99.34199
962.10 99.75118
962.20 100.1604
962.30 99.69211
962.40 99.12636
962.50 98.54548
962.60 97.9001
962.70 97.25472
962.80 96.84301
962.90 96.68443
963.00 96.52585
963.10 96.98343
963.20 97.62506
963.30 98.18848
963.40 97.52676
963.50 96.86503
963.60 95.95389
963.70 94.57957
963.80 93.20524
963.90 92.18389
964.00 91.36108
964.10 90.53827
964.20 91.25868
964.30 92.09524
964.40 92.77206
964.50 92.88256
964.60 92.99305
964.70 93.42867
964.80 94.17666
964.90 94.92465
965.00 95.00254
965.10 94.91291
965.20 94.82478
965.30 94.75179
965.40 94.6788
965.50 94.71837
965.60 94.94157
965.70 95.16477
965.80 96.33088
965.90 97.96139
966.00 99.59191
966.10 99.81924
966.20 99.98811
966.30 100.1439
966.40 100.2606
966.50 100.3772
966.60 100.4468
966.70 100.4762
966.80 100.5056
966.90 100.9201
967.00 101.4134
967.10 101.6857
967.20 100.3365
967.30 98.98727
967.40 97.87919
967.50 97.10408
967.60 96.32897
967.70 96.50498
967.80 97.06949
967.90 97.63399
968.00 98.42814
968.10 99.22229
968.20 99.85728
968.30 100.1026
968.40 100.3479
968.50 100.066
968.60 99.40239
968.70 98.73874
968.80 98.52989
968.90 98.38901
969.00 98.33788
969.10 98.75793
969.20 99.17799
969.30 99.77055
969.40 100.5739
969.50 101.3773
969.60 101.8208
969.70 102.1377
969.80 102.4418
969.90 102.4347
970.00 102.4277
970.10 102.2669
970.20 101.794
970.30 101.321
970.40 100.6729
970.50 99.91727
970.60 99.16169
970.70 99.28052
970.80 99.48584
970.90 99.95096
971.00 101.4553
971.10 102.9596
971.20 104.3968
971.30 105.7639
971.40 107.1311
971.50 107.2833
971.60 107.1126
971.70 106.8651
971.80 105.7341
971.90 104.6031
972.00 103.8122
972.10 103.6004
972.20 103.3887
972.30 103.5597
972.40 103.9279
972.50 104.2961
972.60 103.8569
972.70 103.3751
972.80 102.8203
972.90 102.0464
973.00 101.2724
973.10 100.9017
973.20 100.8744
973.30 100.847
973.40 100.9021
973.50 100.974
973.60 101.0246
973.70 100.9184
973.80 100.8122
973.90 100.8137
974.00 100.9638
974.10 101.1139
974.20 101.0232
974.30 100.834
974.40 100.6449
974.50 100.5017
974.60 100.3585
974.70 100.2817
974.80 100.3675
974.90 100.4533
975.00 100.9016
975.10 101.6018
975.20 102.302
975.30 102.6096
975.40 102.8637
975.50 103.1233
975.60 103.41
975.70 103.6966
975.80 103.8723
975.90 103.9175
976.00 103.9628
976.10 104.2472
976.20 104.607
976.30 104.9535
976.40 105.046
976.50 105.1385
976.60 105.1867
976.70 105.1486
976.80 105.1106
976.90 104.8061
977.00 104.3517
977.10 103.8973
977.20 103.9273
977.30 103.9938
977.40 104.1901
977.50 104.8472
977.60 105.5042
977.70 105.7499
977.80 105.616
977.90 105.482
978.00 104.8956
978.10 104.203
978.20 103.5051
978.30 102.7604
978.40 102.0156
978.50 101.5649
978.60 101.5554
978.70 101.5459
978.80 101.7485
978.90 102.0464
979.00 102.3443
979.10 103.7533
979.20 105.1849
979.30 106.4489
979.40 107.2818
979.50 108.1147
979.60 108.4334
979.70 108.3642
979.80 108.2949
979.90 108.0312
980.00 107.7359
980.10 107.4371
980.20 107.1202
980.30 106.8033
980.40 106.5679
980.50 106.4319
980.60 106.2958
980.70 106.0067
980.80 105.6664
980.90 105.3344
981.00 105.1987
981.10 105.063
981.20 104.7649
981.30 104.1371
981.40 103.5093
981.50 103.7116
981.60 104.4013
981.70 105.091
981.80 105.4892
981.90 105.8621
982.00 106.1814
982.10 106.3108
982.20 106.4403
982.30 106.546
982.40 106.629
982.50 106.712
982.60 106.9904
982.70 107.3176
982.80 107.5488
982.90 106.9156
983.00 106.2824
983.10 105.6467
983.20 105.0071
983.30 104.3674
983.40 104.1259
983.50 104.0633
983.60 104.0007
983.70 104.3383
983.80 104.684
983.90 105.1127
984.00 105.7548
984.10 106.3968
984.20 106.807
984.30 107.0424
984.40 107.2779
984.50 106.5228
984.60 105.6197
984.70 104.6282
984.80 103.1727
984.90 101.7172
985.00 100.982
985.10 101.0922
985.20 101.2024
985.30 102.0304
985.40 103.0976
985.50 104.1464
985.60 104.8437
985.70 105.541
985.80 105.9599
985.90 105.8381
986.00 105.7164
986.10 105.9032
986.20 106.2636
986.30 106.6239
986.40 106.7689
986.50 106.8976
986.60 106.8678
986.70 106.3069
986.80 105.7461
986.90 105.7373
987.00 106.238
987.10 106.7388
987.20 108.0357
987.30 109.5073
987.40 110.7976
987.50 110.6204
987.60 110.4432
987.70 109.6907
987.80 108.1106
987.90 106.5304
988.00 105.9872
988.10 105.8676
988.20 105.7479
988.30 107.3695
988.40 108.9911
988.50 110.2986
988.60 110.8732
988.70 111.4478
988.80 111.3187
988.90 110.7005
989.00 110.0824
989.10 108.4618
989.20 106.7172
989.30 104.7046
989.40 101.4711
989.50 98.23753
989.60 94.98236
989.70 91.70375
989.80 88.42514
989.90 86.37743
990.00 84.67691
990.10 83.02309
990.20 81.98981
990.30 80.95652
990.40 79.73782
990.50 78.20339
990.60 76.66897
990.70 75.80543
990.80 75.28751
990.90 74.76958
991.00 75.23206
991.10 75.73539
991.20 75.9953
991.30 75.56236
991.40 75.12942
991.50 74.84588
991.60 74.68457
991.70 74.52326
991.80 74.65368
991.90 74.83558
992.00 75.01803
992.10 75.20365
992.20 75.38926
992.30 75.29448
992.40 74.84285
992.50 74.39122
992.60 75.06726
992.70 76.13951
992.80 77.222
992.90 78.55044
993.00 79.87887
993.10 80.90357
993.20 81.31157
993.30 81.71958
993.40 81.93299
993.50 82.03212
993.60 82.13125
993.70 83.06411
993.80 84.05973
993.90 85.10999
994.00 86.35399
994.10 87.59798
994.20 88.43793
994.30 88.90491
994.40 89.37189
994.50 89.52849
994.60 89.61697
994.70 89.73219
994.80 90.06385
994.90 90.3955
995.00 90.95162
995.10 91.83076
995.20 92.70989
995.30 92.83545
995.40 92.65322
995.50 92.4602
995.60 91.19964
995.70 89.93908
995.80 88.81863
995.90 88.02511
996.00 87.23159
996.10 87.81666
996.20 89.32078
996.30 90.82491
996.40 92.37432
996.50 93.92877
996.60 94.91707
996.70 93.49181
996.80 92.06654
996.90 90.03182
997.00 87.36275
997.10 84.69369
997.20 83.383
997.30 82.4334
997.40 81.68474
997.50 82.96781
997.60 84.25087
997.70 85.40274
997.80 86.34056
997.90 87.27839
998.00 87.72735
998.10 87.94627
998.20 88.16518
998.30 87.22893
998.40 86.2691
998.50 85.45502
998.60 85.01575
998.70 84.57647
998.80 84.3034
998.90 84.15068
999.00 83.99797
999.10 84.22878
999.20 84.51691
999.30 84.6583
999.40 84.08331
999.50 83.50832
999.60 83.73762
999.70 84.8739
999.80 86.01017
999.90 87.73694
1000.00 89.64009
1000.10 91.52557
1000.20 93.17618
1000.30 94.8268
1000.40 95.63866
1000.50 94.95943
1000.60 94.28019
1000.70 93.18579
1000.80 91.87751
1000.90 90.56923
1001.00 89.59259
1001.10 88.62977
1001.20 88.10129
1001.30 88.809
1001.40 89.51671
1001.50 90.40312
1001.60 91.42993
1001.70 92.45675
1001.80 92.90022
1001.90 93.24873
1002.00 93.55519
1002.10 93.62333
1002.20 93.69148
1002.30 93.98262
1002.40 94.54632
1002.50 95.11002
1002.60 95.5159
1002.70 95.86917
1002.80 96.16113
1002.90 95.28798
1003.00 94.41483
1003.10 93.59796
1003.20 92.88562
1003.30 92.17327
1003.40 91.52223
1003.50 90.90419
1003.60 90.28615
1003.70 90.68283
1003.80 91.13292
1003.90 91.71727
1004.00 92.70443
1004.10 93.69159
1004.20 95.12579
1004.30 96.94082
1004.40 98.75585
1004.50 98.90428
1004.60 98.73527
1004.70 98.29902
1004.80 96.22116
1004.90 94.1433
1005.00 91.65598
1005.10 88.64754
1005.20 85.6391
1005.30 84.15763
1005.40 83.21267
1005.50 82.3149
1005.60 82.54994
1005.70 82.78497
1005.80 83.17655
1005.90 83.872
1006.00 84.56745
1006.10 85.12996
1006.20 85.61769
1006.30 86.10543
1006.40 87.67124
1006.50 89.30586
1006.60 90.90622
1006.70 92.39809
1006.80 93.88995
1006.90 94.73686
1007.00 95.03434
1007.10 95.33183
1007.20 95.11835
1007.30 94.80754
1007.40 94.64573
1007.50 95.39919
1007.60 96.15266
1007.70 97.34016
1007.80 99.0801
1007.90 100.82
1008.00 101.7105
1008.10 102.3026
1008.20 102.8481
1008.30 102.2757
1008.40 101.7033
1008.50 100.9633
1008.60 99.8979
1008.70 98.83248
1008.80 97.81875
1008.90 96.83409
1009.00 95.84943
1009.10 95.43446
1009.20 95.06236
1009.30 94.97878
1009.40 95.8611
1009.50 96.74342
1009.60 98.56499
1009.70 101.2195
1009.80 103.874
1009.90 105.7568
1010.00 107.4816
1010.10 109.0438
1010.20 109.5181
1010.30 109.9924
1010.40 109.5515
1010.50 107.8974
1010.60 106.2433
1010.70 104.5029
1010.80 102.7306
1010.90 100.9509
1011.00 98.92944
1011.10 96.908
1011.20 95.11895
1011.30 93.78104
1011.40 92.44313
1011.50 91.63024
1011.60 91.11268
1011.70 90.59513
1011.80 91.88313
1011.90 93.28639
1012.00 94.98624
1012.10 97.62529
1012.20 100.2643
1012.30 102.238
1012.40 103.645
1012.50 105.0519
1012.60 105.2902
1012.70 105.3059
1012.80 105.2607
1012.90 104.8406
1013.00 104.4205
1013.10 103.3349
1013.20 101.4024
1013.30 99.46976
1013.40 96.91696
1013.50 94.14626
1013.60 91.45372
1013.70 90.63723
1013.80 89.82074
1013.90 89.9946
1014.00 92.09089
1014.10 94.18719
1014.20 95.58938
1014.30 96.60114
1014.40 97.6129
1014.50 96.97533
1014.60 96.23248
1014.70 95.79499
1014.80 96.32442
1014.90 96.85385
1015.00 97.91833
1015.10 99.43861
1015.20 100.9589
1015.30 100.7364
1015.40 100.2064
1015.50 99.46474
1015.60 97.52365
1015.70 95.58257
1015.80 94.16727
1015.90 93.3946
1016.00 92.62193
1016.10 93.33823
1016.20 94.55085
1016.30 95.74419
1016.40 96.571
1016.50 97.39782
1016.60 97.96509
1016.70 98.05032
1016.80 98.13555
1016.90 97.9631
1017.00 97.65191
1017.10 97.34072
1017.20 99.19685
1017.30 101.167
1017.40 102.9031
1017.50 103.9728
1017.60 105.0425
1017.70 104.6983
1017.80 103.2433
1017.90 101.7883
1018.00 99.49684
1018.10 97.06918
1018.20 94.89262
1018.30 94.03433
1018.40 93.17604
1018.50 93.05956
1018.60 93.81389
1018.70 94.56822
1018.80 95.51502
1018.90 96.52259
1019.00 97.4847
1019.10 97.8427
1019.20 98.20071
1019.30 98.32279
1019.40 98.04316
1019.50 97.76353
1019.60 97.74563
1019.70 97.85663
1019.80 97.96763
1019.90 98.53011
1020.00 99.10654
1020.10 99.7393
1020.20 100.5243
1020.30 101.3093
1020.40 102.1383
1020.50 103.0003
1020.60 103.8624
1020.70 103.3894
1020.80 102.7343
1020.90 101.94
1021.00 100.5121
1021.10 99.0841
1021.20 97.53854
1021.30 95.8656
1021.40 94.19265
1021.50 92.90255
1021.60 91.72043
1021.70 90.58189
1021.80 89.9446
1021.90 89.30731
1022.00 89.31458
1022.10 90.33
1022.20 91.34543
1022.30 92.67228
1022.40 94.13905
1022.50 95.60582
1022.60 96.50383
1022.70 97.39609
1022.80 97.91092
1022.90 97.50169
1023.00 97.09246
1023.10 96.65924
1023.20 96.21002
1023.30 95.7608
1023.40 96.60865
1023.50 97.60062
1023.60 98.71529
1023.70 100.3208
1023.80 101.9262
1023.90 103.3805
1024.00 104.6836
1024.10 105.9866
1024.20 105.8216
1024.30 105.3121
1024.40 104.7525
1024.50 103.7873
1024.60 102.8221
1024.70 101.6083
1024.80 100.0368
1024.90 98.46527
1025.00 97.50416
1025.10 96.79236
1025.20 96.09438
1025.30 96.07305
1025.40 96.05172
1025.50 96.10245
1025.60 96.3063
1025.70 96.51016
1025.80 95.66283
1025.90 94.17124
1026.00 92.67964
1026.10 91.14587
1026.20 89.60893
1026.30 88.73233
1026.40 90.06648
1026.50 91.40063
1026.60 93.29961
1026.70 95.69948
1026.80 98.09935
1026.90 99.30539
1027.00 100.284
1027.10 100.9731
1027.20 99.88337
1027.30 98.79362
1027.40 97.92455
1027.50 97.33633
1027.60 96.74812
1027.70 95.88514
1027.80 94.92562
1027.90 93.94892
1028.00 92.64585
1028.10 91.34279
1028.20 90.46363
1028.30 90.37174
1028.40 90.27985
1028.50 91.51711
1028.60 93.47006
1028.70 95.42301
1028.80 97.04396
1028.90 98.65107
1029.00 99.77291
1029.10 99.51355
1029.20 99.25419
1029.30 98.87455
1029.40 98.40041
1029.50 97.92627
1029.60 97.64243
1029.70 97.38703
1029.80 97.14975
1029.90 97.00091
1030.00 96.85207
1030.10 96.95446
1030.20 97.34014
1030.30 97.72583
1030.40 98.50507
1030.50 99.3953
1030.60 100.2247
1030.70 100.3546
1030.80 100.4846
1030.90 100.5027
1031.00 100.346
1031.10 100.1894
1031.20 99.86223
1031.30 99.45848
1031.40 99.05472
1031.50 98.60267
1031.60 98.15013
1031.70 97.72196
1031.80 97.35063
1031.90 96.97931
1032.00 96.55702
1032.10 96.10075
1032.20 95.64449
1032.30 95.58186
1032.40 95.56296
1032.50 95.91728
1032.60 97.67555
1032.70 99.43382
1032.80 101.6896
1032.90 104.4233
1033.00 107.157
1033.10 108.1803
1033.20 108.828
1033.30 109.1214
1033.40 106.8155
1033.50 104.5097
1033.60 102.2297
1033.70 99.98541
1033.80 97.74113
1033.90 96.98114
1034.00 96.77014
1034.10 96.60531
1034.20 97.93328
1034.30 99.26124
1034.40 100.3739
1034.50 101.0687
1034.60 101.7635
1034.70 101.5619
1034.80 100.8561
1034.90 100.1503
1035.00 99.26417
1035.10 98.36853
1035.20 97.72889
1035.30 97.85726
1035.40 97.98563
1035.50 98.74788
1035.60 100.0082
1035.70 101.2685
1035.80 102.5579
1035.90 103.8519
1036.00 105.0568
1036.10 105.7932
1036.20 106.5296
1036.30 107.0677
1036.40 107.3822
1036.50 107.6966
1036.60 107.959
1036.70 108.2057
1036.80 108.544
1036.90 109.9348
1037.00 111.3256
1037.10 112.4872
1037.20 113.2749
1037.30 114.0625
1037.40 113.1876
1037.50 111.5657
1037.60 109.9439
1037.70 106.449
1037.80 102.9353
1037.90 100.0603
1038.00 98.6757
1038.10 97.29107
1038.20 97.46761
1038.30 98.68494
1038.40 99.90226
1038.50 100.8574
1038.60 101.7867
1038.70 102.3989
1038.80 101.8187
1038.90 101.2384
1039.00 100.7089
1039.10 100.2262
1039.20 99.7435
1039.30 100.1398
1039.40 100.729
1039.50 101.3692
1039.60 102.3506
1039.70 103.3319
1039.80 104.1662
1039.90 104.8054
1040.00 105.4446
1040.10 106.0865
1040.20 106.7294
1040.30 107.3741
1040.40 108.0643
1040.50 108.7545
1040.60 109.3814
1040.70 109.8906
1040.80 110.3999
1040.90 109.6874
1041.00 108.3171
1041.10 106.9468
1041.20 105.4111
1041.30 103.8684
1041.40 102.8468
1041.50 103.3078
1041.60 103.7689
1041.70 105.0102
1041.80 106.8401
1041.90 108.67
1042.00 108.5393
1042.10 108.1158
1042.20 107.3598
1042.30 105.0897
1042.40 102.8196
1042.50 100.6345
1042.60 98.54167
1042.70 96.44882
1042.80 96.90772
1042.90 98.04492
1043.00 99.31744
1043.10 101.8078
1043.20 104.2982
1043.30 106.7223
1043.40 109.0468
1043.50 111.3713
1043.60 112.2594
1043.70 112.5608
1043.80 112.8594
1043.90 112.868
1044.00 112.8766
1044.10 112.7819
1044.20 112.4675
1044.30 112.1531
1044.40 111.8634
1044.50 111.5887
1044.60 111.314
1044.70 111.6245
1044.80 111.979
1044.90 112.7218
1045.00 114.6941
1045.10 116.6665
1045.20 118.5001
1045.30 120.2156
1045.40 121.9311
1045.50 121.3092
1045.60 120.2749
1045.70 119.0097
1045.80 116.436
1045.90 113.8623
1046.00 111.6939
1046.10 110.0011
1046.20 108.3084
1046.30 106.8763
1046.40 105.5266
1046.50 104.1584
1046.60 102.5464
1046.70 100.9344
1046.80 99.73537
1046.90 99.21019
1047.00 98.685
1047.10 99.13055
1047.20 100.0329
1047.30 100.9353
1047.40 101.3953
1047.50 101.8508
1047.60 102.1251
1047.70 101.9766
1047.80 101.828
1047.90 102.1393
1048.00 102.7571
1048.10 103.3749
1048.20 104.9556
1048.30 106.6314
1048.40 108.1947
1048.50 109.3346
1048.60 110.4745
1048.70 111.1532
1048.80 111.4062
1048.90 111.6591
1049.00 111.6717
1049.10 111.635
1049.20 111.4588
1049.30 110.3486
1049.40 109.2384
1049.50 108.0227
1049.60 106.6725
1049.70 105.3224
1049.80 105.3369
1049.90 105.8063
1050.00 106.3279
1050.10 107.8427
1050.20 109.3575
1050.30 110.3814
1050.40 110.533
1050.50 110.6845
1050.60 109.9742
1050.70 108.8395
1050.80 107.7048
1050.90 106.2311
1051.00 104.747
1051.10 103.2739
1051.20 101.8293
1051.30 100.3847
1051.40 99.44819
1051.50 98.8648
1051.60 98.28141
1051.70 98.24871
1051.80 98.28407
1051.90 98.48803
1052.00 99.36637
1052.10 100.2447
1052.20 101.3724
1052.30 102.7396
1052.40 104.1069
1052.50 105.7442
1052.60 107.4449
1052.70 109.004
1052.80 109.5247
1052.90 110.0454
1053.00 110.2915
1053.10 110.1733
1053.20 110.0552
1053.30 109.9766
1053.40 109.9127
1053.50 109.8389
1053.60 109.5299
1053.70 109.2208
1053.80 109.0023
1053.90 108.9519
1054.00 108.9015
1054.10 108.7054
1054.20 108.4342
1054.30 108.1629
1054.40 107.0206
1054.50 105.8419
1054.60 104.6762
1054.70 103.5455
1054.80 102.4147
1054.90 102.3917
1055.00 103.1709
1055.10 103.95
1055.20 104.8777
1055.30 105.8257
1055.40 106.3605
1055.50 105.1336
1055.60 103.9067
1055.70 102.3223
1055.80 100.3804
1055.90 98.43856
1056.00 97.66886
1056.10 97.1922
1056.20 96.83002
1056.30 97.39406
1056.40 97.95811
1056.50 98.60419
1056.60 99.36356
1056.70 100.1229
1056.80 100.4826
1056.90 100.6945
1057.00 100.9021
1057.10 101.0076
1057.20 101.1131
1057.30 101.4043
1057.40 102.0559
1057.50 102.7076
1057.60 103.2435
1057.70 103.717
1057.80 104.1906
1057.90 104.4302
1058.00 104.6602
1058.10 104.7045
1058.20 104.2204
1058.30 103.7364
1058.40 103.3789
1058.50 103.1168
1058.60 102.8548
1058.70 102.4787
1058.80 102.0871
1058.90 101.8077
1059.00 102.0066
1059.10 102.2055
1059.20 102.3544
1059.30 102.4532
1059.40 102.5521
1059.50 102.72
1059.60 102.9053
1059.70 103.0347
1059.80 102.7123
1059.90 102.39
1060.00 101.9832
1060.10 101.4599
1060.20 100.9365
1060.30 100.3805
1060.40 99.81235
1060.50 99.24862
1060.60 98.82738
1060.70 98.40613
1060.80 98.20532
1060.90 98.43241
1061.00 98.65951
1061.10 99.26759
1061.20 100.0808
1061.30 100.894
1061.40 101.133
1061.50 101.3479
1061.60 101.5157
1061.70 101.5557
1061.80 101.5958
1061.90 101.6605
1062.00 101.7438
1062.10 101.8272
1062.20 102.6477
1062.30 103.5687
1062.40 104.529
1062.50 105.6563
1062.60 106.7836
1062.70 107.7153
1062.80 108.4513
1062.90 109.1873
1063.00 108.9611
1063.10 108.5092
1063.20 108.1101
1063.30 108.1384
1063.40 108.1667
1063.50 108.5555
1063.60 109.4422
1063.70 110.3288
1063.80 111.1194
1063.90 111.8745
1064.00 112.5919
1064.10 112.4042
1064.20 112.2164
1064.30 111.9614
1064.40 111.5815
1064.50 111.2017
1064.60 111.0891
1064.70 111.1142
1064.80 111.1393
1064.90 110.8932
1065.00 110.6359
1065.10 110.034
1065.20 108.5006
1065.30 106.9671
1065.40 105.4799
1065.50 104.0261
1065.60 102.5723
1065.70 102.5199
1065.80 102.6408
1065.90 102.6442
1066.00 102.1772
1066.10 101.7102
1066.20 101.0023
1066.30 100.063
1066.40 99.12361
1066.50 98.71261
1066.60 98.42555
1066.70 98.27834
1066.80 99.15667
1066.90 100.035
1067.00 100.699
1067.10 101.0787
1067.20 101.4585
1067.30 102.6226
1067.40 104.0623
1067.50 105.4916
1067.60 106.7236
1067.70 107.9557
1067.80 109.0634
1067.90 109.9502
1068.00 110.837
1068.10 111.5632
1068.20 112.2104
1068.30 112.8575
1068.40 113.3186
1068.50 113.7758
1068.60 114.0977
1068.70 114.0716
1068.80 114.0456
1068.90 113.7015
1069.00 113.1365
1069.10 112.5715
1069.20 111.9379
1069.30 111.2966
1069.40 110.4379
1069.50 108.7614
1069.60 107.0848
1069.70 106.0518
1069.80 105.6127
1069.90 105.1736
1070.00 105.4368
1070.10 105.8438
1070.20 106.2648
1070.30 106.7721
1070.40 107.2794
1070.50 107.3238
1070.60 106.8023
1070.70 106.2809
1070.80 106.448
1070.90 106.8324
1071.00 107.2499
1071.10 108.1848
1071.20 109.1197
1071.30 109.997
1071.40 110.7763
1071.50 111.5555
1071.60 112.1192
1071.70 112.5815
1071.80 113.0439
1071.90 112.9273
1072.00 112.805
1072.10 112.583
1072.20 112.1288
1072.30 111.6745
1072.40 111.3865
1072.50 111.2048
1072.60 111.0232
1072.70 111.5837
1072.80 112.2088
1072.90 112.6715
1073.00 112.5905
1073.10 112.5095
1073.20 112.4969
1073.30 112.5425
1073.40 112.5882
1073.50 112.6345
1073.60 112.6809
1073.70 112.8155
1073.80 113.413
1073.90 114.0106
1074.00 114.4083
1074.10 114.5805
1074.20 114.7528
1074.30 115.3327
1074.40 116.0275
1074.50 116.6989
1074.60 117.1004
1074.70 117.5019
1074.80 117.4331
1074.90 116.6285
1075.00 115.824
1075.10 114.3
1075.20 112.4675
1075.30 110.6488
1075.40 110.1886
1075.50 109.7283
1075.60 109.8976
1075.70 111.405
1075.80 112.9124
1075.90 113.9063
1076.00 114.5986
1076.10 115.291
1076.20 114.6551
1076.30 113.9345
1076.40 113.3878
1076.50 113.3626
1076.60 113.3374
1076.70 113.7118
1076.80 114.4001
1076.90 115.0885
1077.00 115.4976
1077.10 115.8649
1077.20 116.0489
1077.30 115.3972
1077.40 114.7454
1077.50 114.3911
1077.60 114.3464
1077.70 114.3016
1077.80 114.7103
1077.90 115.2324
1078.00 115.7335
1078.10 116.0647
1078.20 116.3958
1078.30 116.3115
1078.40 115.6536
1078.50 114.9957
1078.60 114.1293
1078.70 113.1857
1078.80 112.2332
1078.90 111.0648
1079.00 109.8964
1079.10 108.7331
1079.20 107.5795
1079.30 106.4258
1079.40 106.1541
1079.50 106.3367
1079.60 106.5193
1079.70 107.631
1079.80 108.7714
1079.90 109.7858
1080.00 110.4762
1080.10 111.1666
1080.20 111.5518
1080.30 111.7249
1080.40 111.898
1080.50 112.6158
1080.60 113.3942
1080.70 114.0629
1080.80 114.3189
1080.90 114.575
1081.00 114.8512
1081.10 115.146
1081.20 115.4408
1081.30 115.8957
1081.40 116.3833
1081.50 116.9599
1081.60 118.0836
1081.70 119.2072
1081.80 119.5706
1081.90 119.0049
1082.00 118.4392
1082.10 117.4456
1082.20 116.3168
1082.30 115.1981
1082.40 114.2126
1082.50 113.2271
1082.60 112.8968
1082.70 113.6354
1082.80 114.3741
1082.90 115.3995
1083.00 116.5537
1083.10 117.708
1083.20 118.8277
1083.30 119.9475
1083.40 120.7726
1083.50 120.942
1083.60 121.1113
1083.70 120.7579
1083.80 120.0841
1083.90 119.4103
1084.00 118.9716
1084.10 118.5507
1084.20 117.9123
1084.30 116.5854
1084.40 115.2585
1084.50 114.5103
1084.60 114.2355
1084.70 113.9608
1084.80 113.856
1084.90 113.7789
1085.00 113.8274
1085.10 114.4896
1085.20 115.1518
1085.30 115.3407
1085.40 115.0168
1085.50 114.6929
1085.60 115.4818
1085.70 116.5665
1085.80 117.6685
1085.90 118.9261
1086.00 120.1838
1086.10 121.168
1086.20 121.7586
1086.30 122.3493
1086.40 121.9221
1086.50 121.099
1086.60 120.3197
1086.70 120.5901
1086.80 120.8605
1086.90 121.1425
1087.00 121.4459
1087.10 121.7493
1087.20 121.7193
1087.30 121.5174
1087.40 121.3155
1087.50 120.3898
1087.60 119.4418
1087.70 118.6257
1087.80 118.1487
1087.90 117.6716
1088.00 117.5207
1088.10 117.5965
1088.20 117.6723
1088.30 117.7202
1088.40 117.7651
1088.50 117.8354
1088.60 118.0015
1088.70 118.1677
1088.80 117.944
1088.90 117.3605
1089.00 116.777
1089.10 116.4332
1089.20 116.1386
1089.30 116.0142
1089.40 116.9351
1089.50 117.8561
1089.60 118.8513
1089.70 119.9373
1089.80 121.0232
1089.90 122.3141
1090.00 123.6697
1090.10 124.9342
1090.20 124.9886
1090.30 125.0431
1090.40 124.5735
1090.50 123.2842
1090.60 121.9948
1090.70 120.0004
1090.80 117.7038
1090.90 115.43
1091.00 115.4074
1091.10 115.3848
1091.20 115.9167
1091.30 117.6267
1091.40 119.3366
1091.50 121.0015
1091.60 122.6399
1091.70 124.2782
1091.80 124.336
1091.90 124.2929
1092.00 124.0585
1092.10 123.25
1092.20 122.4415
1092.30 121.5208
1092.40 120.512
1092.50 119.5031
1092.60 118.9054
1092.70 118.369
1092.80 117.9941
1092.90 118.3542
1093.00 118.7142
1093.10 119.1929
1093.20 119.7901
1093.30 120.3872
1093.40 120.4071
1093.50 120.2915
1093.60 120.1899
1093.70 120.1908
1093.80 120.1916
1093.90 120.2382
1094.00 120.3454
1094.10 120.4525
1094.20 120.0379
1094.30 119.4399
1094.40 118.8212
1094.50 117.8069
1094.60 116.7926
1094.70 116.6572
1094.80 118.0839
1094.90 119.5107
1095.00 121.7797
1095.10 124.4634
1095.20 127.1471
1095.30 128.3784
1095.40 129.5801
1095.50 130.1544
1095.60 129.265
1095.70 128.3756
1095.80 127.526
1095.90 126.7019
1096.00 125.8777
1096.10 126.2815
1096.20 126.792
1096.30 127.1822
1096.40 127.1692
1096.50 127.1562
1096.60 126.042
1096.70 123.9896
1096.80 121.9373
1096.90 119.8844
1097.00 117.8315
1097.10 116.0638
1097.20 115.7933
1097.30 115.5228
1097.40 116.0922
1097.50 117.6088
1097.60 119.1254
1097.70 120.3461
1097.80 121.488
1097.90 122.5125
1098.00 122.48
1098.10 122.4474
1098.20 121.9103
1098.30 120.647
1098.40 119.3838
1098.50 118.5716
1098.60 117.9348
1098.70 117.3362
1098.80 117.9734
1098.90 118.6106
1099.00 119.5563
1099.10 121.1011
1099.20 122.6459
1099.30 123.5531
1099.40 124.1171
1099.50 124.681
1099.60 124.9934
1099.70 125.2981
1099.80 125.3841
1099.90 124.9078
1100.00 124.4314
1100.10 123.9567
1100.20 123.4833
1100.30 123.0098
1100.40 122.3798
1100.50 121.7325
1100.60 121.1811
1100.70 120.9912
1100.80 120.8012
1100.90 120.7518
1101.00 120.8322
1101.10 120.9126
1101.20 120.9966
1101.30 121.0813
1101.40 121.1284
1101.50 120.9625
1101.60 120.7967
1101.70 120.4469
1101.80 119.8811
1101.90 119.3153
1102.00 118.2896
1102.10 117.1265
1102.20 116.1166
1102.30 116.8683
1102.40 117.62
1102.50 118.5576
1102.60 119.7858
1102.70 121.0139
1102.80 121.4348
1102.90 121.526
1103.00 121.5802
1103.10 119.8212
1103.20 118.0622
1103.30 116.5592
1103.40 115.5758
1103.50 114.5924
1103.60 114.3519
1103.70 114.5292
1103.80 114.7065
1103.90 115.6172
1104.00 116.5666
1104.10 117.4599
1104.20 118.1937
1104.30 118.9275
1104.40 119.4331
1104.50 119.7734
1104.60 120.1138
1104.70 119.8016
1104.80 119.4087
1104.90 118.9022
1105.00 117.9407
1105.10 116.9792
1105.20 115.5879
1105.30 113.7836
1105.40 111.9792
1105.50 111.5149
1105.60 111.3447
1105.70 111.327
1105.80 112.2461
1105.90 113.1651
1106.00 113.9695
1106.10 114.6337
1106.20 115.2979
1106.30 115.335
1106.40 115.1741
1106.50 114.9428
1106.60 113.7757
1106.70 112.6087
1106.80 111.9015
1106.90 111.9445
1107.00 111.9876
1107.10 112.4738
1107.20 113.1498
1107.30 113.8241
1107.40 114.3261
1107.50 114.828
1107.60 114.9288
1107.70 114.1771
1107.80 113.4254
1107.90 113.7056
1108.00 114.5919
1108.10 115.4782
1108.20 116.9232
1108.30 118.404
1108.40 119.6381
1108.50 120.1702
1108.60 120.7024
1108.70 120.6718
1108.80 120.2165
1108.90 119.7613
1109.00 119.464
1109.10 119.1883
1109.20 119.1823
1109.30 120.3265
1109.40 121.4707
1109.50 122.4233
1109.60 123.1843
1109.70 123.9453
1109.80 123.1951
1109.90 122.1131
1110.00 120.837
1110.10 118.2619
1110.20 115.6868
1110.30 113.9017
1110.40 113.1223
1110.50 112.3429
1110.60 112.4936
1110.70 112.9544
1110.80 113.3567
1110.90 112.9827
1111.00 112.6087
1111.10 111.9566
1111.20 110.8505
1111.30 109.7443
1111.40 109.5295
1111.50 109.715
1111.60 109.9005
1111.70 110.5179
1111.80 111.1352
1111.90 111.4274
1112.00 110.9958
1112.10 110.5642
1112.20 110.9525
1112.30 111.8222
1112.40 112.6919
1112.50 114.0889
1112.60 115.5196
1112.70 116.8954
1112.80 118.1066
1112.90 119.3178
1113.00 119.6241
1113.10 119.2195
1113.20 118.8149
1113.30 117.7681
1113.40 116.6339
1113.50 115.3917
1113.60 113.6898
1113.70 111.9878
1113.80 111.4942
1113.90 112.2089
1114.00 112.9236
1114.10 115.0085
1114.20 117.4148
1114.30 119.7479
1114.40 121.5913
1114.50 123.4347
1114.60 124.0419
1114.70 123.0756
1114.80 122.1094
1114.90 120.7006
1115.00 119.1442
1115.10 117.6165
1115.20 116.5396
1115.30 115.4626
1115.40 115.1194
1115.50 116.0253
1115.60 116.9312
1115.70 117.6377
1115.80 118.2547
1115.90 118.8716
1116.00 118.7462
1116.10 118.6207
1116.20 118.4456
1116.30 118.16
1116.40 117.8744
1116.50 117.6295
1116.60 117.4095
1116.70 117.1895
1116.80 116.3027
1116.90 115.3733
1117.00 114.2379
1117.10 112.4843
1117.20 110.7307
1117.30 109.5797
1117.40 108.9021
1117.50 108.2245
1117.60 108.9215
1117.70 109.8238
1117.80 110.869
1117.90 112.5235
1118.00 114.1779
1118.10 115.7418
1118.20 117.2149
1118.30 118.6881
1118.40 119.3951
1118.50 119.9223
1118.60 120.2838
1118.70 119.4293
1118.80 118.4932
1118.90 117.4488
1119.00 116.4044
1119.10 115.5195
1119.20 115.4131
1119.30 115.3067
1119.40 115.2003
1119.50 115.2073
1119.60 115.2241
1119.70 115.241
1119.80 115.5483
1119.90 116.0053
1120.00 116.4622
1120.10 116.9074
1120.20 117.3348
1120.30 117.7623
1120.40 118.2538
1120.50 119.139
1120.60 120.0242
1120.70 120.9095
1120.80 120.8023
1120.90 120.5724
1121.00 120.3426
1121.10 119.9711
1121.20 119.5163
1121.30 119.0616
1121.40 118.5611
1121.50 117.9862
1121.60 117.4112
1121.70 116.8335
1121.80 116.2357
1121.90 115.6378
1122.00 115.0399
1122.10 114.7536
1122.20 114.5181
1122.30 114.2826
1122.40 114.8028
1122.50 115.8063
1122.60 116.8097
1122.70 117.7485
1122.80 118.567
1122.90 119.3856
1123.00 120.0508
1123.10 119.3353
1123.20 118.6198
1123.30 117.9043
1123.40 117.5685
1123.50 117.3051
1123.60 117.0417
1123.70 117.5925
1123.80 118.7327
1123.90 119.873
1124.00 121.017
1124.10 122.1683
1124.20 123.3196
1124.30 124.3527
1124.40 123.8153
1124.50 123.2779
1124.60 122.7405
1124.70 121.3118
1124.80 119.6876
1124.90 118.0633
1125.00 116.7171
1125.10 115.5894
1125.20 114.4617
1125.30 113.918
1125.40 114.674
1125.50 115.43
1125.60 116.2125
1125.70 117.4977
1125.80 118.7828
1125.90 120.068
1126.00 120.3664
1126.10 120.4182
1126.20 120.4699
1126.30 120.6112
1126.40 120.8288
1126.50 121.0465
1126.60 121.4944
1126.70 122.5061
1126.80 123.5179
1126.90 124.4992
1127.00 124.4955
1127.10 124.4918
1127.20 124.4881
1127.30 123.1434
1127.40 121.4204
1127.50 119.6974
1127.60 118.621
1127.70 118.1417
1127.80 117.6623
1127.90 117.4185
1128.00 117.8114
1128.10 118.2043
1128.20 118.5985
1128.30 119.1217
1128.40 119.645
1128.50 120.1682
1128.60 120.2166
1128.70 120.115
1128.80 120.0134
1128.90 120.1234
1129.00 120.4367
1129.10 120.75
1129.20 120.9703
1129.30 120.9117
1129.40 120.853
1129.50 120.7944
1129.60 120.635
1129.70 120.4756
1129.80 120.3162
1129.90 119.9814
1130.00 119.5849
1130.10 119.1885
1130.20 118.5546
1130.30 117.6735
1130.40 116.7925
1130.50 116.0696
1130.60 115.8476
1130.70 115.6255
1130.80 115.4034
1130.90 115.9338
1131.00 116.4796
1131.10 117.0253
1131.20 118.0599
1131.30 119.2752
1131.40 120.4906
1131.50 121.2292
1131.60 121.4513
1131.70 121.6735
1131.80 121.8343
1131.90 121.7777
1132.00 121.7211
1132.10 121.6645
1132.20 121.1174
1132.30 120.5552
1132.40 119.9929
1132.50 119.9867
1132.60 120.2077
1132.70 120.4286
1132.80 120.2713
1132.90 119.6701
1133.00 119.0688
1133.10 118.369
1133.20 117.2988
1133.30 116.2285
1133.40 115.1582
1133.50 114.1769
1133.60 113.1993
1133.70 112.2216
1133.80 111.4428
1133.90 110.7491
1134.00 110.0553
1134.10 109.3627
1134.20 108.6713
1134.30 107.9799
1134.40 107.5293
1134.50 108.0417
1134.60 108.5541
1134.70 109.0666
1134.80 110.5122
1134.90 112.0173
1135.00 113.5224
1135.10 114.4843
1135.20 115.2021
1135.30 115.9198
1135.40 116.0711
1135.50 115.5014
1135.60 114.9316
1135.70 114.4528
1135.80 114.3618
1135.90 114.2708
1136.00 114.1798
1136.10 114.425
1136.20 114.6917
1136.30 114.9584
1136.40 114.874
1136.50 114.6244
1136.60 114.3747
1136.70 113.9597
1136.80 113.3255
1136.90 112.6913
1137.00 112.06
1137.10 111.4421
1137.20 110.8242
1137.30 110.2062
1137.40 108.9775
1137.50 107.7028
1137.60 106.4281
1137.70 103.9525
1137.80 100.8854
1137.90 97.81824
1138.00 95.47227
1138.10 94.12222
1138.20 92.77216
1138.30 91.96238
1138.40 93.79044
1138.50 95.6185
1138.60 97.44657
1138.70 100.5692
1138.80 103.8044
1138.90 107.0396
1139.00 108.9101
1139.10 110.1083
1139.20 111.3066
1139.30 111.5637
1139.40 110.521
1139.50 109.4783
1139.60 108.2621
1139.70 106.1351
1139.80 104.0081
1139.90 101.8811
1140.00 99.09186
1140.10 96.23714
1140.20 93.38242
1140.30 91.33486
1140.40 89.7031
1140.50 88.07134
1140.60 87.75609
1140.70 89.33532
1140.80 90.91456
1140.90 92.83502
1141.00 96.54687
1141.10 100.2587
1141.20 103.9706
1141.30 107.005
1141.40 109.9725
1141.50 112.94
1141.60 114.3197
1141.70 114.8815
1141.80 115.4433
1141.90 115.8747
1142.00 116.1184
1142.10 116.3621
1142.20 116.5698
1142.30 116.5889
1142.40 116.608
1142.50 116.6271
1142.60 117.0995
1142.70 117.6167
1142.80 118.1339
1142.90 118.2551
1143.00 118.1629
1143.10 118.0708
1143.20 117.817
1143.30 117.3207
1143.40 116.8244
1143.50 116.3608
1143.60 116.0823
1143.70 115.8038
1143.80 115.5253
1143.90 115.203
1144.00 114.8758
1144.10 114.5487
1144.20 114.332
1144.30 114.1748
1144.40 114.0177
1144.50 113.8729
1144.60 113.7469
1144.70 113.6208
1144.80 113.5907
1144.90 114.104
1145.00 114.6172
1145.10 115.1305
1145.20 115.2173
1145.30 115.2567
1145.40 115.296
1145.50 115.4379
1145.60 115.635
1145.70 115.8321
1145.80 116.1932
1145.90 116.8002
1146.00 117.4073
1146.10 118.0338
1146.20 118.7712
1146.30 119.5085
1146.40 120.2459
1146.50 120.831
1146.60 121.3992
1146.70 121.9674
1146.80 122.0688
1146.90 121.9187
1147.00 121.7687
1147.10 121.503
1147.20 121.0639
1147.30 120.6248
1147.40 120.2703
1147.50 120.3949
1147.60 120.5194
1147.70 120.644
1147.80 121.3663
1147.90 122.1477
1148.00 122.929
1148.10 123.2713
1148.20 123.3873
1148.30 123.5033
1148.40 123.4267
1148.50 123.0728
1148.60 122.7189
1148.70 122.4812
1148.80 122.8528
1148.90 123.2245
1149.00 123.5962
1149.10 123.7221
1149.20 123.8237
1149.30 123.9253
1149.40 123.5159
1149.50 122.8433
1149.60 122.1707
1149.70 121.7347
1149.80 121.6391
1149.90 121.5436
1150.00 121.5539
1150.10 122.1198
1150.20 122.6856
1150.30 123.2514
1150.40 123.9096
1150.50 124.5771
1150.60 125.2445
1150.70 125.3415
1150.80 125.1447
1150.90 124.9478
1151.00 124.804
1151.10 124.7332
1151.20 124.6625
1151.30 124.5311
1151.40 124.1034
1151.50 123.6756
1151.60 123.2479
1151.70 122.8755
1151.80 122.5079
1151.90 122.1403
1152.00 121.3044
1152.10 120.2377
1152.20 119.171
1152.30 118.2524
1152.40 117.538
1152.50 116.8237
1152.60 116.2707
1152.70 116.5053
1152.80 116.74
1152.90 116.9746
1153.00 117.7874
1153.10 118.6438
1153.20 119.5001
1153.30 119.8287
1153.40 119.9088
1153.50 119.989
1153.60 120.0968
1153.70 120.241
1153.80 120.3853
1153.90 120.5532
1154.00 120.8287
1154.10 121.1042
1154.20 121.3798
1154.30 121.5426
1154.40 121.697
1154.50 121.8513
1154.60 121.926
1154.70 121.9649
1154.80 122.0038
1154.90 122.1154
1155.00 122.3196
1155.10 122.5237
1155.20 122.6879
1155.30 122.6818
1155.40 122.6757
1155.50 122.6696
1155.60 122.4795
1155.70 122.2776
1155.80 122.0757
1155.90 122.2624
1156.00 122.6156
1156.10 122.9689
1156.20 123.2746
1156.30 123.5222
1156.40 123.7698
1156.50 123.9351
1156.60 123.771
1156.70 123.6069
1156.80 123.4428
1156.90 123.0552
1157.00 122.6583
1157.10 122.2613
1157.20 121.7116
1157.30 121.0994
1157.40 120.4873
1157.50 120.0458
1157.60 119.8048
1157.70 119.5637
1157.80 119.5152
1157.90 120.1908
1158.00 120.8663
1158.10 121.5419
1158.20 122.1418
1158.30 122.7392
1158.40 123.3367
1158.50 122.9185
1158.60 122.1053
1158.70 121.2921
1158.80 120.3829
1158.90 119.3654
1159.00 118.3479
1159.10 117.3509
1159.20 116.4226
1159.30 115.4944
1159.40 114.5661
1159.50 114.48
1159.60 114.4111
1159.70 114.3423
1159.80 114.4365
1159.90 114.591
1160.00 114.7455
1160.10 115.1249
1160.20 115.7384
1160.30 116.352
1160.40 116.8779
1160.50 117.1265
1160.60 117.3752
1160.70 117.6238
1160.80 118.2773
1160.90 118.9307
1161.00 119.5842
1161.10 120.3533
1161.20 121.1611
1161.30 121.9688
1161.40 122.3873
1161.50 122.4166
1161.60 122.4459
1161.70 122.3246
1161.80 121.7748
1161.90 121.2251
1162.00 120.6805
1162.10 120.6524
1162.20 120.6244
1162.30 120.5963
1162.40 121.1523
1162.50 121.8829
1162.60 122.6134
1162.70 123.3932
1162.80 124.2186
1162.90 125.044
1163.00 125.5938
1163.10 125.3985
1163.20 125.2032
1163.30 124.9805
1163.40 123.8708
1163.50 122.7612
1163.60 121.6515
1163.70 120.7453
1163.80 119.8964
1163.90 119.0476
1164.00 118.9513
1164.10 119.496
1164.20 120.0407
1164.30 120.71
1164.40 121.6841
1164.50 122.6583
1164.60 123.5592
1164.70 123.0673
1164.80 122.5754
1164.90 122.0835
1165.00 121.0401
1165.10 119.8587
1165.20 118.6773
1165.30 117.9022
1165.40 117.4461
1165.50 116.9901
1165.60 116.9471
1165.70 117.8233
1165.80 118.6996
1165.90 119.5632
1166.00 120.2585
1166.10 120.9539
1166.20 121.6492
1166.30 121.5588
1166.40 121.2959
1166.50 121.033
1166.60 120.5401
1166.70 119.8804
1166.80 119.2208
1166.90 118.6145
1167.00 118.1164
1167.10 117.6184
1167.20 117.1435
1167.30 116.9031
1167.40 116.6627
1167.50 116.4223
1167.60 115.959
1167.70 115.4533
1167.80 114.9476
1167.90 114.2329
1168.00 113.3789
1168.10 112.5249
1168.20 111.1915
1168.30 108.9678
1168.40 106.744
1168.50 104.3805
1168.60 100.8861
1168.70 97.39174
1168.80 93.89736
1168.90 91.43437
1169.00 89.13929
1169.10 86.8442
1169.20 86.74561
1169.30 87.99327
1169.40 89.24093
1169.50 91.29478
1169.60 94.72137
1169.70 98.14795
1169.80 101.5209
1169.90 104.5352
1170.00 107.5495
1170.10 110.5637
1170.20 112.4205
1170.30 114.1342
1170.40 115.8479
1170.50 116.9389
1170.60 117.6795
1170.70 118.4202
1170.80 118.8678
1170.90 118.8759
1171.00 118.884
1171.10 118.8702
1171.20 118.7324
1171.30 118.5947
1171.40 118.4569
1171.50 118.4826
1171.60 118.5245
1171.70 118.5664
1171.80 118.5558
1171.90 118.5192
1172.00 118.4826
1172.10 118.5115
1172.20 118.6308
1172.30 118.7501
1172.40 118.9254
1172.50 119.3561
1172.60 119.7867
1172.70 120.2174
1172.80 120.4807
1172.90 120.7334
1173.00 120.9861
1173.10 120.8792
1173.20 120.6107
1173.30 120.3422
1173.40 119.9191
1173.50 119.3073
1173.60 118.6954
1173.70 118.1906
1173.80 118.0884
1173.90 117.9862
1174.00 117.8841
1174.10 118.358
1174.20 118.8559
1174.30 119.3538
1174.40 119.7936
1174.50 120.2108
1174.60 120.628
1174.70 120.5625
1174.80 119.9739
1174.90 119.3853
1175.00 118.683
1175.10 117.6
1175.20 116.517
1175.30 115.434
1175.40 114.9823
1175.50 114.537
1175.60 114.0918
1175.70 113.7402
1175.80 113.4198
1175.90 113.0995
1176.00 112.5325
1176.10 111.719
1176.20 110.9055
1176.30 109.7123
1176.40 107.4386
1176.50 105.1649
1176.60 102.8629
1176.70 99.1732
1176.80 95.48352
1176.90 91.79383
1177.00 88.39035
1177.10 85.06759
1177.20 81.74484
1177.30 80.1962
1177.40 80.22083
1177.50 80.24546
1177.60 81.07812
1177.70 83.88909
1177.80 86.70005
1177.90 89.55287
1178.00 93.20106
1178.10 96.84924
1178.20 100.4974
1178.30 103.1208
1178.40 105.5037
1178.50 107.8867
1178.60 109.718
1178.70 111.1157
1178.80 112.5134
1178.90 113.5975
1179.00 114.0152
1179.10 114.4328
1179.20 114.8201
1179.30 114.8591
1179.40 114.8981
1179.50 114.9372
1179.60 115.1258
1179.70 115.343
1179.80 115.5602
1179.90 116.0525
1180.00 116.7284
1180.10 117.4042
1180.20 118.0295
1180.30 118.5611
1180.40 119.0926
1180.50 119.5447
1180.60 119.3541
1180.70 119.1636
1180.80 118.973
1180.90 118.5594
1181.00 118.1125
1181.10 117.6656
1181.20 117.3056
1181.30 116.9967
1181.40 116.6877
1181.50 116.5478
1181.60 116.6722
1181.70 116.7967
1181.80 116.9684
1181.90 117.408
1182.00 117.8476
1182.10 118.2871
1182.20 118.4997
1182.30 118.687
1182.40 118.8744
1182.50 118.9593
1182.60 118.9915
1182.70 119.0237
1182.80 119.0401
1182.90 119.0349
1183.00 119.0297
1183.10 118.9062
1183.20 118.2443
1183.30 117.5824
1183.40 116.9205
1183.50 116.3203
1183.60 115.724
1183.70 115.1278
1183.80 115.3376
1183.90 115.8929
1184.00 116.4483
1184.10 117.1203
1184.20 117.9292
1184.30 118.7382
1184.40 119.2484
1184.50 118.6995
1184.60 118.1506
1184.70 117.6017
1184.80 116.7821
1184.90 115.9541
1185.00 115.126
1185.10 115.1588
1185.20 115.51
1185.30 115.8612
1185.40 116.4449
1185.50 117.2706
1185.60 118.0963
1185.70 118.8182
1185.80 119.2289
1185.90 119.6396
1186.00 120.0438
1186.10 119.8016
1186.20 119.5594
1186.30 119.3172
1186.40 118.8903
1186.50 118.4081
1186.60 117.926
1186.70 117.5532
1186.80 117.2773
1186.90 117.0014
1187.00 116.8801
1187.10 117.1376
1187.20 117.3951
1187.30 117.656
1187.40 117.9811
1187.50 118.3062
1187.60 118.6313
1187.70 118.0967
1187.80 117.3604
1187.90 116.6241
1188.00 115.5034
1188.10 114.0928
1188.20 112.6822
1188.30 111.6381
1188.40 111.3381
1188.50 111.0382
1188.60 110.844
1188.70 111.7186
1188.80 112.5933
1188.90 113.468
1189.00 114.3662
1189.10 115.2686
1189.20 116.171
1189.30 116.7041
1189.40 117.0011
1189.50 117.2981
1189.60 117.6288
1189.70 118.0171
1189.80 118.4053
1189.90 118.7155
1190.00 118.5032
1190.10 118.2908
1190.20 118.0785
1190.30 117.7979
1190.40 117.5089
1190.50 117.2199
1190.60 117.0727
1190.70 117.0019
1190.80 116.9312
1190.90 117.0953
1191.00 117.5976
1191.10 118.0998
1191.20 118.5792
1191.30 118.9471
1191.40 119.315
1191.50 119.683
1191.60 119.803
1191.70 119.9043
1191.80 120.0057
1191.90 119.8374
1192.00 119.548
1192.10 119.2586
1192.20 119.1368
1192.30 119.2199
1192.40 119.303
1192.50 119.4031
1192.60 119.5673
1192.70 119.7314
1192.80 119.8956
1192.90 120.0597
1193.00 120.2238
1193.10 120.3879
1193.20 119.8408
1193.30 119.0307
1193.40 118.2207
1193.50 117.3472
1193.60 116.4078
1193.70 115.4684
1193.80 114.6113
1193.90 113.9886
1194.00 113.3658
1194.10 112.7502
1194.20 112.4841
1194.30 112.2181
1194.40 111.952
1194.50 111.2602
1194.60 110.4484
1194.70 109.6365
1194.80 109.2121
1194.90 109.1176
1195.00 109.0232
1195.10 109.209
1195.20 110.0486
1195.30 110.8882
1195.40 111.7044
1195.50 112.1549
1195.60 112.6055
1195.70 113.056
1195.80 112.5928
1195.90 111.929
1196.00 111.2653
1196.10 110.6639
1196.20 110.1077
1196.30 109.5515
1196.40 109.1869
1196.50 109.1944
1196.60 109.2019
1196.70 109.1482
1196.80 108.5995
1196.90 108.0508
1197.00 107.502
1197.10 106.3508
1197.20 105.1096
1197.30 103.8684
1197.40 102.8968
1197.50 102.0835
1197.60 101.2702
1197.70 100.9382
1197.80 101.359
1197.90 101.7797
1198.00 102.3435
1198.10 103.7173
1198.20 105.0912
1198.30 106.465
1198.40 107.2412
1198.50 107.9582
1198.60 108.6753
1198.70 108.4209
1198.80 107.7095
1198.90 106.998
1199.00 105.9883
1199.10 104.5991
1199.20 103.2099
1199.30 102.0799
1199.40 101.9865
1199.50 101.8931
1199.60 101.7997
1199.70 102.1141
1199.80 102.4455
1199.90 102.7769
1200.00 103.0683
1200.10 103.3442
1200.20 103.6201
1200.30 103.9122
1200.40 104.2213
1200.50 104.5304
1200.60 104.9097
1200.70 105.4994
1200.80 106.0891
1200.90 106.6749
1201.00 106.877
1201.10 107.0791
1201.20 107.2813
1201.30 107.0125
1201.40 106.603
1201.50 106.1935
1201.60 105.8808
1201.70 105.6506
1201.80 105.4204
1201.90 105.3023
1202.00 105.4457
1202.10 105.5891
1202.20 105.7372
1202.30 105.9587
1202.40 106.1801
1202.50 106.4016
1202.60 106.0579
1202.70 105.5901
1202.80 105.1224
1202.90 104.9549
1203.00 104.9961
1203.10 105.0373
1203.20 105.4521
1203.30 106.5609
1203.40 107.6696
1203.50 108.817
1203.60 110.2769
1203.70 111.7368
1203.80 113.1967
1203.90 113.6638
1204.00 113.9826
1204.10 114.3014
1204.20 113.9274
1204.30 113.1638
1204.40 112.4001
1204.50 111.7961
1204.60 111.4316
1204.70 111.067
1204.80 110.8611
1204.90 111.4882
1205.00 112.1153
1205.10 112.7424
1205.20 113.6483
1205.30 114.5752
1205.40 115.502
1205.50 116.1807
1205.60 116.7478
1205.70 117.315
1205.80 117.6427
1205.90 117.6778
1206.00 117.7129
1206.10 117.5841
1206.20 116.8741
1206.30 116.1641
1206.40 115.4541
1206.50 114.6747
1206.60 113.8939
1206.70 113.1131
1206.80 113.1957
1206.90 113.5816
1207.00 113.9675
1207.10 114.7381
1207.20 115.8783
1207.30 117.0185
1207.40 118.0761
1207.50 118.9105
1207.60 119.745
1207.70 120.5584
1207.80 120.6919
1207.90 120.8253
1208.00 120.9588
1208.10 120.6016
1208.20 120.1218
1208.30 119.642
1208.40 118.5785
1208.50 117.0563
1208.60 115.5341
1208.70 114.1028
1208.80 112.8643
1208.90 111.6259
1209.00 110.5579
1209.10 111.2141
1209.20 111.8702
1209.30 112.5263
1209.40 114.2135
1209.50 116.0827
1209.60 117.9518
1209.70 118.8092
1209.80 119.0465
1209.90 119.2838
1210.00 118.7123
1210.10 116.8214
1210.20 114.9304
1210.30 113.0041
1210.40 110.8611
1210.50 108.7181
1210.60 106.5751
1210.70 105.8663
1210.80 105.2993
1210.90 104.7323
1211.00 105.0519
1211.10 105.8081
1211.20 106.5644
1211.30 107.3713
1211.40 108.2452
1211.50 109.1191
1211.60 109.9947
1211.70 110.877
1211.80 111.7594
1211.90 112.6418
1212.00 113.8439
1212.10 115.0592
1212.20 116.2746
1212.30 116.7422
1212.40 116.9334
1212.50 117.1245
1212.60 116.5409
1212.70 115.1511
1212.80 113.7613
1212.90 112.4616
1213.00 111.4182
1213.10 110.3747
1213.20 109.3771
1213.30 110.6203
1213.40 111.8636
1213.50 113.1069
1213.60 114.9494
1213.70 116.9511
1213.80 118.9528
1213.90 120.2195
1214.00 120.8849
1214.10 121.5502
1214.20 121.8641
1214.30 121.4314
1214.40 120.9987
1214.50 120.597
1214.60 120.5531
1214.70 120.5092
1214.80 120.4653
1214.90 120.6536
1215.00 120.8829
1215.10 121.1121
1215.20 120.9142
1215.30 120.4431
1215.40 119.9721
1215.50 119.3608
1215.60 118.5207
1215.70 117.6807
1215.80 116.9325
1215.90 116.7492
1216.00 116.5659
1216.10 116.3826
1216.20 116.749
1216.30 117.1765
1216.40 117.6039
1216.50 118.2028
1216.60 118.886
1216.70 119.5692
1216.80 120.064
1216.90 120.3188
1217.00 120.5736
1217.10 120.7303
1217.20 120.4945
1217.30 120.2586
1217.40 120.0228
1217.50 120.1757
1217.60 120.3406
1217.70 120.5054
1217.80 121.0055
1217.90 121.6295
1218.00 122.2535
1218.10 122.8698
1218.20 123.4782
1218.30 124.0866
1218.40 124.3811
1218.50 123.7824
1218.60 123.1836
1218.70 122.591
1218.80 122.198
1218.90 121.805
1219.00 121.412
1219.10 121.1701
1219.20 120.9684
1219.30 120.7667
1219.40 120.6636
1219.50 120.638
1219.60 120.6124
1219.70 120.5321
1219.80 120.3352
1219.90 120.1383
1220.00 119.9726
1220.10 120.122
1220.20 120.2715
1220.30 120.4209
1220.40 120.4868
1220.50 120.5392
1220.60 120.5916
1220.70 120.1607
1220.80 119.4336
1220.90 118.7066
1221.00 117.9676
1221.10 117.2101
1221.20 116.4525
1221.30 115.7635
1221.40 115.4623
1221.50 115.1612
1221.60 114.8601
1221.70 114.9412
1221.80 115.0555
1221.90 115.1699
1222.00 115.1685
1222.10 115.115
1222.20 115.0616
1222.30 115.1272
1222.40 115.3382
1222.50 115.5492
1222.60 116.0167
1222.70 117.3934
1222.80 118.7701
1222.90 120.1469
1223.00 121.8186
1223.10 123.4964
1223.20 125.1742
1223.30 126.0732
1223.40 126.7126
1223.50 127.352
1223.60 127.369
1223.70 126.8114
1223.80 126.2539
1223.90 125.6815
1224.00 125.0711
1224.10 124.4607
1224.20 123.8799
1224.30 123.8609
1224.40 123.8418
1224.50 123.8228
1224.60 124.2301
1224.70 124.7311
1224.80 125.2321
1224.90 125.634
1225.00 125.9644
1225.10 126.2947
1225.20 126.2617
1225.30 125.5539
1225.40 124.8461
1225.50 124.1347
1225.60 123.3959
1225.70 122.6572
1225.80 121.9185
1225.90 122.1511
1226.00 122.5162
1226.10 122.8813
1226.20 123.7232
1226.30 124.8218
1226.40 125.9204
1226.50 126.655
1226.60 126.8869
1226.70 127.1188
1226.80 127.1591
1226.90 126.3265
1227.00 125.4939
1227.10 124.6613
1227.20 124.3242
1227.30 124.0132
1227.40 123.7021
1227.50 124.0707
1227.60 124.7036
1227.70 125.3365
1227.80 125.9014
1227.90 126.3928
1228.00 126.8841
1228.10 127.2193
1228.20 127.0858
1228.30 126.9522
1228.40 126.8067
1228.50 126.0735
1228.60 125.3403
1228.70 124.6071
1228.80 123.9805
1228.90 123.3822
1229.00 122.784
1229.10 121.9908
1229.20 121.0381
1229.30 120.0855
1229.40 119.3386
1229.50 119.0291
1229.60 118.7196
1229.70 118.4949
1229.80 119.1274
1229.90 119.7598
1230.00 120.3923
1230.10 121.6546
1230.20 123.0281
1230.30 124.4016
1230.40 125.2279
1230.50 125.7187
1230.60 126.2095
1230.70 126.275
1230.80 125.6753
1230.90 125.0755
1231.00 124.4923
1231.10 123.9956
1231.20 123.4989
1231.30 123.0022
1231.40 122.8336
1231.50 122.6935
1231.60 122.5535
1231.70 122.4592
1231.80 122.3855
1231.90 122.3119
1232.00 122.2017
1232.10 122.0485
1232.20 121.8954
1232.30 121.7662
1232.40 121.7175
1232.50 121.6688
1232.60 121.62
1232.70 121.1311
1232.80 120.6421
1232.90 120.1531
1233.00 119.7486
1233.10 119.3708
1233.20 118.9929
1233.30 119.033
1233.40 119.4438
1233.50 119.8546
1233.60 120.3286
1233.70 120.9501
1233.80 121.5716
1233.90 122.1172
1234.00 121.654
1234.10 121.1907
1234.20 120.7275
1234.30 120.2601
1234.40 119.7919
1234.50 119.3237
1234.60 119.3963
1234.70 119.8295
1234.80 120.2627
1234.90 120.825
1235.00 121.6071
1235.10 122.3892
1235.20 123.012
1235.30 122.6563
1235.40 122.3006
1235.50 121.945
1235.60 121.2992
1235.70 120.6246
1235.80 119.9501
1235.90 119.7044
1236.00 119.6606
1236.10 119.6168
1236.20 120.1011
1236.30 121.2576
1236.40 122.4142
1236.50 123.4472
1236.60 124.0157
1236.70 124.5842
1236.80 125.1528
1236.90 124.44
1237.00 123.7011
1237.10 122.9622
1237.20 121.9114
1237.30 120.7566
1237.40 119.6018
1237.50 119.1515
1237.60 119.3513
1237.70 119.5512
1237.80 119.968
1237.90 120.9162
1238.00 121.8643
1238.10 122.7429
1238.20 122.5328
1238.30 122.3227
1238.40 122.1126
1238.50 120.4752
1238.60 118.5245
1238.70 116.5738
1238.80 114.6877
1238.90 112.8465
1239.00 111.0054
1239.10 109.7634
1239.20 109.5867
1239.30 109.41
1239.40 109.3776
1239.50 110.3111
1239.60 111.2445
1239.70 112.178
1239.80 112.7622
1239.90 113.3076
1240.00 113.8531
1240.10 113.5551
1240.20 112.8417
1240.30 112.1282
1240.40 111.5691
1240.50 111.2062
1240.60 110.8434
1240.70 110.744
1240.80 111.6356
1240.90 112.5273
1241.00 113.4189
1241.10 114.1579
1241.20 114.8923
1241.30 115.6266
1241.40 115.1756
1241.50 114.3083
1241.60 113.4409
1241.70 112.4522
1241.80 111.3468
1241.90 110.2414
1242.00 109.3775
1242.10 109.1347
1242.20 108.892
1242.30 108.6289
1242.40 107.9812
1242.50 107.3334
1242.60 106.6857
1242.70 104.7096
1242.80 102.442
1242.90 100.1743
1243.00 97.99644
1243.10 95.88096
1243.20 93.76547
1243.30 92.5764
1243.40 93.03429
1243.50 93.49218
1243.60 94.21418
1243.70 96.70372
1243.80 99.19326
1243.90 101.6828
1244.00 103.9575
1244.10 106.2084
1244.20 108.4593
1244.30 110.0812
1244.40 111.3933
1244.50 112.7054
1244.60 113.9455
1244.70 115.0939
1244.80 116.2423
1244.90 117.3014
1245.00 118.0248
1245.10 118.7483
1245.20 119.4717
1245.30 119.5237
1245.40 119.562
1245.50 119.6004
1245.60 119.1241
1245.70 118.4762
1245.80 117.8284
1245.90 117.3068
1246.00 116.9017
1246.10 116.4966
1246.20 116.3559
1246.30 116.8625
1246.40 117.3691
1246.50 117.9015
1246.60 118.8376
1246.70 119.7737
1246.80 120.7098
1246.90 121.1804
1247.00 121.5555
1247.10 121.9307
1247.20 121.8485
1247.30 121.4614
1247.40 121.0743
1247.50 120.6446
1247.60 120.1426
1247.70 119.6406
1247.80 119.1473
1247.90 118.7075
1248.00 118.2676
1248.10 117.8278
1248.20 117.7751
1248.30 117.7607
1248.40 117.7462
1248.50 117.9532
1248.60 118.2643
1248.70 118.5754
1248.80 118.804
1248.90 118.9318
1249.00 119.0596
1249.10 119.1046
1249.20 118.856
1249.30 118.6073
1249.40 118.3586
1249.50 118.0442
1249.60 117.7291
1249.70 117.414
1249.80 117.5221
1249.90 117.7639
1250.00 118.0056
1250.10 118.0743
1250.20 117.9895
1250.30 117.9047
1250.40 117.7248
1250.50 117.323
1250.60 116.9212
1250.70 116.4945
1250.80 115.7371
1250.90 114.9798
1251.00 114.2225
1251.10 113.4939
1251.20 112.7707
1251.30 112.0475
1251.40 110.7449
1251.50 109.0719
1251.60 107.3989
1251.70 105.1852
1251.80 102.0891
1251.90 98.99306
1252.00 95.9887
1252.10 93.50391
1252.20 91.01913
1252.30 88.53435
1252.40 89.27332
1252.50 90.29262
1252.60 91.31191
1252.70 94.23244
1252.80 98.00713
1252.90 101.7818
1253.00 105.2569
1253.10 108.3802
1253.20 111.5035
1253.30 114.1936
1253.40 115.4332
1253.50 116.6727
1253.60 117.9123
1253.70 118.598
1253.80 119.2837
1253.90 119.9694
1254.00 120.1788
1254.10 120.2539
1254.20 120.329
1254.30 120.3103
1254.40 120.2149
1254.50 120.1194
1254.60 120.011
1254.70 119.8748
1254.80 119.7386
1254.90 119.6916
1255.00 120.5472
1255.10 121.4028
1255.20 122.2584
1255.30 123.0955
1255.40 123.9296
1255.50 124.7638
1255.60 125.4241
1255.70 125.9825
1255.80 126.5408
1255.90 126.6161
1256.00 125.9668
1256.10 125.3176
1256.20 124.6815
1256.30 124.11
1256.40 123.5385
1256.50 122.967
1256.60 122.9491
1256.70 122.9664
1256.80 122.9838
1256.90 123.1915
1257.00 123.4769
1257.10 123.7624
1257.20 123.9083
1257.30 123.9091
1257.40 123.9098
1257.50 124.0231
1257.60 124.4569
1257.70 124.8906
1257.80 125.335
1257.90 126.1221
1258.00 126.9092
1258.10 127.6962
1258.20 127.8671
1258.30 127.884
1258.40 127.9009
1258.50 127.2274
1258.60 126.0331
1258.70 124.8388
1258.80 123.6422
1258.90 122.4414
1259.00 121.2406
1259.10 120.1398
1259.20 119.8492
1259.30 119.5586
1259.40 119.2679
1259.50 119.8896
1259.60 120.6241
1259.70 121.3586
1259.80 122.0201
1259.90 122.6441
1260.00 123.268
1260.10 123.8384
1260.20 124.338
1260.30 124.8375
1260.40 125.369
1260.50 126.0283
1260.60 126.6877
1260.70 127.347
1260.80 128.3387
1260.90 129.3407
1261.00 130.3426
1261.10 130.4766
1261.20 130.3057
1261.30 130.1348
1261.40 129.5331
1261.50 128.5339
1261.60 127.5347
1261.70 126.5911
1261.80 125.7838
1261.90 124.9765
1262.00 124.2383
1262.10 124.5838
1262.20 124.9293
1262.30 125.2748
1262.40 125.7302
1262.50 126.2082
1262.60 126.6862
1262.70 126.8674
1262.80 126.8508
1262.90 126.8343
1263.00 126.7027
1263.10 126.3835
1263.20 126.0643
1263.30 125.7245
1263.40 125.2676
1263.50 124.8108
1263.60 124.3539
1263.70 123.7995
1263.80 123.2365
1263.90 122.6736
1264.00 122.0786
1264.10 121.4693
1264.20 120.8599
1264.30 120.6164
1264.40 120.7854
1264.50 120.9545
1264.60 121.2891
1264.70 122.1484
1264.80 123.0076
1264.90 123.8641
1265.00 124.4553
1265.10 125.0465
1265.20 125.6376
1265.30 125.8133
1265.40 125.8718
1265.50 125.9303
1265.60 125.8761
1265.70 125.7297
1265.80 125.5833
1265.90 125.524
1266.00 125.6418
1266.10 125.7595
1266.20 125.8602
1266.30 125.8083
1266.40 125.7563
1266.50 125.7044
1266.60 126.0526
1266.70 126.4606
1266.80 126.8686
1266.90 127.3626
1267.00 127.905
1267.10 128.4473
1267.20 128.9702
1267.30 129.4662
1267.40 129.9621
1267.50 130.4177
1267.60 130.7013
1267.70 130.9848
1267.80 131.2683
1267.90 131.1378
1268.00 130.9901
1268.10 130.8424
1268.20 130.4639
1268.30 130
1268.40 129.5362
1268.50 129.0701
1268.60 128.6019
1268.70 128.1337
1268.80 127.7965
1268.90 127.7963
1269.00 127.796
1269.10 127.7928
1269.20 127.7335
1269.30 127.6742
1269.40 127.6149
1269.50 127.2569
1269.60 126.8333
1269.70 126.4096
1269.80 125.9862
1269.90 125.5628
1270.00 125.1395
1270.10 124.7683
1270.20 124.4861
1270.30 124.2039
1270.40 124.0698
1270.50 124.8461
1270.60 125.6223
1270.70 126.3986
1270.80 127.3607
1270.90 128.339
1271.00 129.3173
1271.10 130.0824
1271.20 130.7517
1271.30 131.421
1271.40 131.6051
1271.50 131.2198
1271.60 130.8345
1271.70 130.4852
1271.80 130.2499
1271.90 130.0146
1272.00 129.7813
1272.10 129.7424
1272.20 129.7035
1272.30 129.6646
1272.40 129.5141
1272.50 129.332
1272.60 129.15
1272.70 128.775
1272.80 128.2421
1272.90 127.7093
1273.00 127.2892
1273.10 127.0981
1273.20 126.9071
1273.30 126.7039
1273.40 126.3917
1273.50 126.0795
1273.60 125.7674
1273.70 125.0586
1273.80 124.2957
1273.90 123.5328
1274.00 123.2113
1274.10 123.1274
1274.20 123.0434
1274.30 123.5237
1274.40 124.783
1274.50 126.0422
1274.60 127.2133
1274.70 128.0316
1274.80 128.8499
1274.90 129.6683
1275.00 129.3084
1275.10 128.912
1275.20 128.5157
1275.30 128.4285
1275.40 128.4498
1275.50 128.4712
1275.60 128.9982
1275.70 129.9919
1275.80 130.9856
1275.90 131.7476
1276.00 131.9421
1276.10 132.1367
1276.20 132.2756
1276.30 131.5442
1276.40 130.8128
1276.50 130.0814
1276.60 129.5909
1276.70 129.1463
1276.80 128.7018
1276.90 128.9376
1277.00 129.6084
1277.10 130.2792
1277.20 130.784
1277.30 131.0178
1277.40 131.2516
1277.50 131.3965
1277.60 131.0742
1277.70 130.752
1277.80 130.4297
1277.90 129.2862
1278.00 128.0809
1278.10 126.8756
1278.20 126.3232
1278.30 126.0374
1278.40 125.7516
1278.50 125.7312
1278.60 125.9983
1278.70 126.2653
1278.80 126.7342
1278.90 127.8087
1279.00 128.8831
1279.10 129.9443
1279.20 130.5788
1279.30 131.2133
1279.40 131.8478
1279.50 132.0155
1279.60 132.0665
1279.70 132.1175
1279.80 131.7706
1279.90 131.1234
1280.00 130.4762
1280.10 129.8341
1280.20 129.2012
1280.30 128.5683
1280.40 127.9735
1280.50 127.6583
1280.60 127.3432
1280.70 127.028
1280.80 127.029
1280.90 127.0652
1281.00 127.1013
1281.10 127.2406
1281.20 127.4307
1281.30 127.6208
1281.40 127.8173
1281.50 128.0219
1281.60 128.2265
1281.70 128.4066
1281.80 128.4999
1281.90 128.5931
1282.00 128.6864
1282.10 129.0801
1282.20 129.4769
1282.30 129.8736
1282.40 130.1341
1282.50 130.3538
1282.60 130.5735
1282.70 130.5367
1282.80 130.2815
1282.90 130.0263
1283.00 129.7919
1283.10 129.6015
1283.20 129.411
1283.30 129.223
1283.40 129.0585
1283.50 128.8941
1283.60 128.7297
1283.70 128.5554
1283.80 128.3795
1283.90 128.2036
1284.00 127.9621
1284.10 127.6835
1284.20 127.405
1284.30 127.3795
1284.40 127.7182
1284.50 128.0568
1284.60 128.4188
1284.70 128.8803
1284.80 129.3418
1284.90 129.8033
1285.00 129.7194
1285.10 129.6127
1285.20 129.5061
1285.30 128.7174
1285.40 127.6892
1285.50 126.6609
1285.60 125.6289
1285.70 124.5933
1285.80 123.5578
1285.90 122.7584
1286.00 122.5372
1286.10 122.3161
1286.20 122.1531
1286.30 122.9015
1286.40 123.65
1286.50 124.3984
1286.60 125.6035
1286.70 126.9022
1286.80 128.2009
1286.90 129.1395
1287.00 129.8477
1287.10 130.556
1287.20 130.7772
1287.30 130.2036
1287.40 129.6301
1287.50 128.9316
1287.60 127.5766
1287.70 126.2217
1287.80 124.8667
1287.90 124.1613
1288.00 123.5048
1288.10 122.8482
1288.20 122.8261
1288.30 123.0632
1288.40 123.3002
1288.50 123.8661
1288.60 124.7883
1288.70 125.7105
1288.80 126.5489
1288.90 127.1489
1289.00 127.7489
1289.10 128.3393
1289.20 128.6217
1289.30 128.9041
1289.40 129.1865
1289.50 128.8288
1289.60 128.3211
1289.70 127.8133
1289.80 127.3686
1289.90 126.9694
1290.00 126.5702
1290.10 126.3608
1290.20 126.4889
1290.30 126.6169
1290.40 126.7427
1290.50 126.8534
1290.60 126.9642
1290.70 127.0749
1290.80 127.1285
1290.90 127.1765
1291.00 127.2245
1291.10 127.0511
1291.20 126.7734
1291.30 126.4957
1291.40 126.4124
1291.50 126.5572
1291.60 126.702
1291.70 126.928
1291.80 127.4257
1291.90 127.9234
1292.00 128.4195
1292.10 128.7617
1292.20 129.1038
1292.30 129.446
1292.40 129.0925
1292.50 128.5428
1292.60 127.9931
1292.70 127.2182
1292.80 126.2664
1292.90 125.3145
1293.00 124.7453
1293.10 124.9529
1293.20 125.1605
1293.30 125.3965
1293.40 125.8627
1293.50 126.3289
1293.60 126.7951
1293.70 127.2462
1293.80 127.6951
1293.90 128.1441
1294.00 128.236
1294.10 128.1439
1294.20 128.0519
1294.30 128.105
1294.40 128.3428
1294.50 128.5806
1294.60 128.8512
1294.70 129.2454
1294.80 129.6397
1294.90 130.0339
1295.00 129.581
1295.10 129.1196
1295.20 128.6582
1295.30 127.672
1295.40 126.5201
1295.50 125.3682
1295.60 124.5237
1295.70 123.9409
1295.80 123.3581
1295.90 123.1035
1296.00 123.5796
1296.10 124.0557
1296.20 124.5167
1296.30 124.8262
1296.40 125.1357
1296.50 125.4453
1296.60 125.6089
1296.70 125.7489
1296.80 125.8888
1296.90 126.0064
1297.00 126.1113
1297.10 126.2163
1297.20 126.353
1297.30 126.5336
1297.40 126.7142
1297.50 126.8453
1297.60 126.7658
1297.70 126.6862
1297.80 126.6067
1297.90 126.8786
1298.00 127.1614
1298.10 127.4442
1298.20 128.1065
1298.30 128.9022
1298.40 129.6979
1298.50 130.3457
1298.60 130.857
1298.70 131.3683
1298.80 131.6337
1298.90 131.2969
1299.00 130.9601
1299.10 130.5927
1299.20 129.8188
1299.30 129.0449
1299.40 128.271
1299.50 127.5868
1299.60 126.9184
1299.70 126.25
1299.80 125.808
1299.90 125.5048
