# Version 2.1 - nm, norm@500 to 1, cut digits
# Wavelength(nm)  Flambda(ergs/cm^s/s/nm)
300.00 1.129094e-95
300.10 1.129094e-95
300.20 1.129094e-95
300.30 1.129094e-95
300.40 1.129094e-95
300.50 1.129094e-95
300.60 1.129094e-95
300.70 1.129094e-95
300.80 1.129094e-95
300.90 1.129094e-95
301.00 1.129094e-95
301.10 1.129094e-95
301.20 1.129094e-95
301.30 1.129094e-95
301.40 1.129094e-95
301.50 1.129094e-95
301.60 1.129094e-95
301.70 1.129094e-95
301.80 1.129094e-95
301.90 1.129094e-95
302.00 1.129094e-95
302.10 1.129094e-95
302.20 1.129094e-95
302.30 1.129094e-95
302.40 1.129094e-95
302.50 1.129094e-95
302.60 1.129094e-95
302.70 1.129094e-95
302.80 1.129094e-95
302.90 1.129094e-95
303.00 1.129094e-95
303.10 1.129094e-95
303.20 1.129094e-95
303.30 1.129094e-95
303.40 1.129094e-95
303.50 1.129094e-95
303.60 1.129094e-95
303.70 1.129094e-95
303.80 1.129094e-95
303.90 1.129094e-95
304.00 1.129094e-95
304.10 1.129094e-95
304.20 1.129094e-95
304.30 1.129094e-95
304.40 1.129094e-95
304.50 1.129094e-95
304.60 1.129094e-95
304.70 1.129094e-95
304.80 1.129094e-95
304.90 1.129094e-95
305.00 1.129094e-95
305.10 1.129094e-95
305.20 1.129094e-95
305.30 1.129094e-95
305.40 1.129094e-95
305.50 1.129094e-95
305.60 1.129094e-95
305.70 1.129094e-95
305.80 1.129094e-95
305.90 1.129094e-95
306.00 1.129094e-95
306.10 1.129094e-95
306.20 1.129094e-95
306.30 1.129094e-95
306.40 1.129094e-95
306.50 1.129094e-95
306.60 1.129094e-95
306.70 1.129094e-95
306.80 1.129094e-95
306.90 1.129094e-95
307.00 1.129094e-95
307.10 1.129094e-95
307.20 1.129094e-95
307.30 1.129094e-95
307.40 1.129094e-95
307.50 1.129094e-95
307.60 1.129094e-95
307.70 1.129094e-95
307.80 1.129094e-95
307.90 1.129094e-95
308.00 1.129094e-95
308.10 1.129094e-95
308.20 1.129094e-95
308.30 1.129094e-95
308.40 1.129094e-95
308.50 1.129094e-95
308.60 1.129094e-95
308.70 1.129094e-95
308.80 1.129094e-95
308.90 1.129094e-95
309.00 1.129094e-95
309.10 1.129094e-95
309.20 1.129094e-95
309.30 1.129094e-95
309.40 1.129094e-95
309.50 1.129094e-95
309.60 1.129094e-95
309.70 1.129094e-95
309.80 1.129094e-95
309.90 1.129094e-95
310.00 1.129094e-95
310.10 1.129094e-95
310.20 1.129094e-95
310.30 1.129094e-95
310.40 1.129094e-95
310.50 1.129094e-95
310.60 1.129094e-95
310.70 1.129094e-95
310.80 1.129094e-95
310.90 1.129094e-95
311.00 1.129094e-95
311.10 1.129094e-95
311.20 1.129094e-95
311.30 1.129094e-95
311.40 1.129094e-95
311.50 1.129094e-95
311.60 1.129094e-95
311.70 1.129094e-95
311.80 1.129094e-95
311.90 1.129094e-95
312.00 1.129094e-95
312.10 1.129094e-95
312.20 1.129094e-95
312.30 1.129094e-95
312.40 1.129094e-95
312.50 1.129094e-95
312.60 1.129094e-95
312.70 1.129094e-95
312.80 1.129094e-95
312.90 1.129094e-95
313.00 1.129094e-95
313.10 1.129094e-95
313.20 1.129094e-95
313.30 1.129094e-95
313.40 1.129094e-95
313.50 1.129094e-95
313.60 1.129094e-95
313.70 1.129094e-95
313.80 1.129094e-95
313.90 1.129094e-95
314.00 1.129094e-95
314.10 1.129094e-95
314.20 1.129094e-95
314.30 1.129094e-95
314.40 1.129094e-95
314.50 1.129094e-95
314.60 1.129094e-95
314.70 1.129094e-95
314.80 1.129094e-95
314.90 1.129094e-95
315.00 1.129094e-95
315.10 1.129094e-95
315.20 1.129094e-95
315.30 1.129094e-95
315.40 1.129094e-95
315.50 1.129094e-95
315.60 1.129094e-95
315.70 1.129094e-95
315.80 1.129094e-95
315.90 1.129094e-95
316.00 1.129094e-95
316.10 1.129094e-95
316.20 1.129094e-95
316.30 1.129094e-95
316.40 1.129094e-95
316.50 1.129094e-95
316.60 1.129094e-95
316.70 1.129094e-95
316.80 1.129094e-95
316.90 1.129094e-95
317.00 1.129094e-95
317.10 1.129094e-95
317.20 1.129094e-95
317.30 1.129094e-95
317.40 1.129094e-95
317.50 1.129094e-95
317.60 1.129094e-95
317.70 1.129094e-95
317.80 1.129094e-95
317.90 1.129094e-95
318.00 1.129094e-95
318.10 1.129094e-95
318.20 1.129094e-95
318.30 1.129094e-95
318.40 1.129094e-95
318.50 1.129094e-95
318.60 1.129094e-95
318.70 1.129094e-95
318.80 1.129094e-95
318.90 1.129094e-95
319.00 1.129094e-95
319.10 1.129094e-95
319.20 1.129094e-95
319.30 1.129094e-95
319.40 1.129094e-95
319.50 1.129094e-95
319.60 1.129094e-95
319.70 1.129094e-95
319.80 1.129094e-95
319.90 1.129094e-95
320.00 1.129094e-95
320.10 1.129094e-95
320.20 1.129094e-95
320.30 1.129094e-95
320.40 1.129094e-95
320.50 1.129094e-95
320.60 1.129094e-95
320.70 1.129094e-95
320.80 1.129094e-95
320.90 1.129094e-95
321.00 1.129094e-95
321.10 1.129094e-95
321.20 1.129094e-95
321.30 1.129094e-95
321.40 1.129094e-95
321.50 1.129094e-95
321.60 1.129094e-95
321.70 1.129094e-95
321.80 1.129094e-95
321.90 1.129094e-95
322.00 1.129094e-95
322.10 1.129094e-95
322.20 1.129094e-95
322.30 1.129094e-95
322.40 1.129094e-95
322.50 1.129094e-95
322.60 1.129094e-95
322.70 1.129094e-95
322.80 1.129094e-95
322.90 1.129094e-95
323.00 1.129094e-95
323.10 1.129094e-95
323.20 1.129094e-95
323.30 1.129094e-95
323.40 1.129094e-95
323.50 1.129094e-95
323.60 1.129094e-95
323.70 1.129094e-95
323.80 1.129094e-95
323.90 1.129094e-95
324.00 1.129094e-95
324.10 1.129094e-95
324.20 1.129094e-95
324.30 1.129094e-95
324.40 1.129094e-95
324.50 1.129094e-95
324.60 1.129094e-95
324.70 1.129094e-95
324.80 1.129094e-95
324.90 1.129094e-95
325.00 1.129094e-95
325.10 1.129094e-95
325.20 1.129094e-95
325.30 1.129094e-95
325.40 1.129094e-95
325.50 1.129094e-95
325.60 1.129094e-95
325.70 1.129094e-95
325.80 1.129094e-95
325.90 1.129094e-95
326.00 1.129094e-95
326.10 1.129094e-95
326.20 1.129094e-95
326.30 1.129094e-95
326.40 1.129094e-95
326.50 1.129094e-95
326.60 1.129094e-95
326.70 1.129094e-95
326.80 1.129094e-95
326.90 1.129094e-95
327.00 1.129094e-95
327.10 1.129094e-95
327.20 1.129094e-95
327.30 1.129094e-95
327.40 1.129094e-95
327.50 1.129094e-95
327.60 1.129094e-95
327.70 1.129094e-95
327.80 1.129094e-95
327.90 1.129094e-95
328.00 1.129094e-95
328.10 1.129094e-95
328.20 1.129094e-95
328.30 1.129094e-95
328.40 1.129094e-95
328.50 1.129094e-95
328.60 1.129094e-95
328.70 1.129094e-95
328.80 1.129094e-95
328.90 1.129094e-95
329.00 1.129094e-95
329.10 1.129094e-95
329.20 1.129094e-95
329.30 1.129094e-95
329.40 1.129094e-95
329.50 1.129094e-95
329.60 1.129094e-95
329.70 1.129094e-95
329.80 1.129094e-95
329.90 1.129094e-95
330.00 1.129094e-95
330.10 1.129094e-95
330.20 1.129094e-95
330.30 1.129094e-95
330.40 1.129094e-95
330.50 1.129094e-95
330.60 1.129094e-95
330.70 1.129094e-95
330.80 1.129094e-95
330.90 1.129094e-95
331.00 1.129094e-95
331.10 1.129094e-95
331.20 1.129094e-95
331.30 1.129094e-95
331.40 1.129094e-95
331.50 1.129094e-95
331.60 1.129094e-95
331.70 1.129094e-95
331.80 1.129094e-95
331.90 1.129094e-95
332.00 1.129094e-95
332.10 1.129094e-95
332.20 1.129094e-95
332.30 1.129094e-95
332.40 1.129094e-95
332.50 1.129094e-95
332.60 1.129094e-95
332.70 1.129094e-95
332.80 1.129094e-95
332.90 1.129094e-95
333.00 1.129094e-95
333.10 1.129094e-95
333.20 1.129094e-95
333.30 1.129094e-95
333.40 1.129094e-95
333.50 1.129094e-95
333.60 1.129094e-95
333.70 1.129094e-95
333.80 1.129094e-95
333.90 1.129094e-95
334.00 1.129094e-95
334.10 1.129094e-95
334.20 1.129094e-95
334.30 1.129094e-95
334.40 1.129094e-95
334.50 1.129094e-95
334.60 1.129094e-95
334.70 1.129094e-95
334.80 1.129094e-95
334.90 1.129094e-95
335.00 1.129094e-95
335.10 1.129094e-95
335.20 1.129094e-95
335.30 1.129094e-95
335.40 1.129094e-95
335.50 1.129094e-95
335.60 1.129094e-95
335.70 1.129094e-95
335.80 1.129094e-95
335.90 1.129094e-95
336.00 1.129094e-95
336.10 1.129094e-95
336.20 1.129094e-95
336.30 1.129094e-95
336.40 1.129094e-95
336.50 1.129094e-95
336.60 1.129094e-95
336.70 1.129094e-95
336.80 1.129094e-95
336.90 1.129094e-95
337.00 1.129094e-95
337.10 1.129094e-95
337.20 1.129094e-95
337.30 1.129094e-95
337.40 1.129094e-95
337.50 1.129094e-95
337.60 1.129094e-95
337.70 1.129094e-95
337.80 1.129094e-95
337.90 1.129094e-95
338.00 1.129094e-95
338.10 1.129094e-95
338.20 1.129094e-95
338.30 1.129094e-95
338.40 1.129094e-95
338.50 1.129094e-95
338.60 1.129094e-95
338.70 1.129094e-95
338.80 1.129094e-95
338.90 1.129094e-95
339.00 1.129094e-95
339.10 1.129094e-95
339.20 1.129094e-95
339.30 1.129094e-95
339.40 1.129094e-95
339.50 1.129094e-95
339.60 1.129094e-95
339.70 1.129094e-95
339.80 1.129094e-95
339.90 1.129094e-95
340.00 1.129094e-95
340.10 1.129094e-95
340.20 1.129094e-95
340.30 1.129094e-95
340.40 1.129094e-95
340.50 1.129094e-95
340.60 1.129094e-95
340.70 1.129094e-95
340.80 1.129094e-95
340.90 1.129094e-95
341.00 1.129094e-95
341.10 1.129094e-95
341.20 1.129094e-95
341.30 1.129094e-95
341.40 1.129094e-95
341.50 1.129094e-95
341.60 1.129094e-95
341.70 1.129094e-95
341.80 1.129094e-95
341.90 1.129094e-95
342.00 1.129094e-95
342.10 1.129094e-95
342.20 1.129094e-95
342.30 1.129094e-95
342.40 1.129094e-95
342.50 1.129094e-95
342.60 1.129094e-95
342.70 1.129094e-95
342.80 1.129094e-95
342.90 1.129094e-95
343.00 1.129094e-95
343.10 1.129094e-95
343.20 1.129094e-95
343.30 1.129094e-95
343.40 1.129094e-95
343.50 1.129094e-95
343.60 1.129094e-95
343.70 1.129094e-95
343.80 1.129094e-95
343.90 1.129094e-95
344.00 1.129094e-95
344.10 1.129094e-95
344.20 1.129094e-95
344.30 1.129094e-95
344.40 1.129094e-95
344.50 1.129094e-95
344.60 1.129094e-95
344.70 1.129094e-95
344.80 1.129094e-95
344.90 1.129094e-95
345.00 1.129094e-95
345.10 1.129094e-95
345.20 1.129094e-95
345.30 1.129094e-95
345.40 1.129094e-95
345.50 1.129094e-95
345.60 1.129094e-95
345.70 1.129094e-95
345.80 1.129094e-95
345.90 1.129094e-95
346.00 1.129094e-95
346.10 1.129094e-95
346.20 1.129094e-95
346.30 1.129094e-95
346.40 1.129094e-95
346.50 1.129094e-95
346.60 1.129094e-95
346.70 1.129094e-95
346.80 1.129094e-95
346.90 1.129094e-95
347.00 1.129094e-95
347.10 1.129094e-95
347.20 1.129094e-95
347.30 1.129094e-95
347.40 1.129094e-95
347.50 1.129094e-95
347.60 1.129094e-95
347.70 1.129094e-95
347.80 1.129094e-95
347.90 1.129094e-95
348.00 1.129094e-95
348.10 1.129094e-95
348.20 1.129094e-95
348.30 1.129094e-95
348.40 1.129094e-95
348.50 1.129094e-95
348.60 1.129094e-95
348.70 1.129094e-95
348.80 1.129094e-95
348.90 1.129094e-95
349.00 1.129094e-95
349.10 1.129094e-95
349.20 1.129094e-95
349.30 1.129094e-95
349.40 1.129094e-95
349.50 1.129094e-95
349.60 1.129094e-95
349.70 1.129094e-95
349.80 1.129094e-95
349.90 1.129094e-95
350.00 1.129094e-95
350.10 1.129094e-95
350.20 1.129094e-95
350.30 1.129094e-95
350.40 1.129094e-95
350.50 1.129094e-95
350.60 1.129094e-95
350.70 1.129094e-95
350.80 1.129094e-95
350.90 1.129094e-95
351.00 1.129094e-95
351.10 1.129094e-95
351.20 1.129094e-95
351.30 1.129094e-95
351.40 1.129094e-95
351.50 1.129094e-95
351.60 1.129094e-95
351.70 1.129094e-95
351.80 1.129094e-95
351.90 1.129094e-95
352.00 1.129094e-95
352.10 1.129094e-95
352.20 1.129094e-95
352.30 1.129094e-95
352.40 1.129094e-95
352.50 1.129094e-95
352.60 1.129094e-95
352.70 1.129094e-95
352.80 1.129094e-95
352.90 1.129094e-95
353.00 1.129094e-95
353.10 1.129094e-95
353.20 1.129094e-95
353.30 1.129094e-95
353.40 1.129094e-95
353.50 1.129094e-95
353.60 1.129094e-95
353.70 1.129094e-95
353.80 1.129094e-95
353.90 1.129094e-95
354.00 1.129094e-95
354.10 1.129094e-95
354.20 1.129094e-95
354.30 1.129094e-95
354.40 1.129094e-95
354.50 1.129094e-95
354.60 1.129094e-95
354.70 1.129094e-95
354.80 1.129094e-95
354.90 1.129094e-95
355.00 1.129094e-95
355.10 1.129094e-95
355.20 1.129094e-95
355.30 1.129094e-95
355.40 1.129094e-95
355.50 1.129094e-95
355.60 1.129094e-95
355.70 1.129094e-95
355.80 1.129094e-95
355.90 1.129094e-95
356.00 1.129094e-95
356.10 1.129094e-95
356.20 1.129094e-95
356.30 1.129094e-95
356.40 1.129094e-95
356.50 1.129094e-95
356.60 1.129094e-95
356.70 1.129094e-95
356.80 1.129094e-95
356.90 1.129094e-95
357.00 1.129094e-95
357.10 1.129094e-95
357.20 1.129094e-95
357.30 1.129094e-95
357.40 1.129094e-95
357.50 1.129094e-95
357.60 1.129094e-95
357.70 1.129094e-95
357.80 1.129094e-95
357.90 1.129094e-95
358.00 1.129094e-95
358.10 1.129094e-95
358.20 1.129094e-95
358.30 1.129094e-95
358.40 1.129094e-95
358.50 1.129094e-95
358.60 1.129094e-95
358.70 1.129094e-95
358.80 1.129094e-95
358.90 1.129094e-95
359.00 1.129094e-95
359.10 1.129094e-95
359.20 1.129094e-95
359.30 1.129094e-95
359.40 1.129094e-95
359.50 1.129094e-95
359.60 1.129094e-95
359.70 1.129094e-95
359.80 1.129094e-95
359.90 1.129094e-95
360.00 1.129094e-95
360.10 1.129094e-95
360.20 1.129094e-95
360.30 1.129094e-95
360.40 1.129094e-95
360.50 1.129094e-95
360.60 1.129094e-95
360.70 1.129094e-95
360.80 1.129094e-95
360.90 1.129094e-95
361.00 1.129094e-95
361.10 1.129094e-95
361.20 1.129094e-95
361.30 1.129094e-95
361.40 1.129094e-95
361.50 1.129094e-95
361.60 1.129094e-95
361.70 1.129094e-95
361.80 1.129094e-95
361.90 1.129094e-95
362.00 1.129094e-95
362.10 1.129094e-95
362.20 1.129094e-95
362.30 1.129094e-95
362.40 1.129094e-95
362.50 1.129094e-95
362.60 1.129094e-95
362.70 1.129094e-95
362.80 1.129094e-95
362.90 1.129094e-95
363.00 1.129094e-95
363.10 1.129094e-95
363.20 1.129094e-95
363.30 1.129094e-95
363.40 1.129094e-95
363.50 1.129094e-95
363.60 1.129094e-95
363.70 1.129094e-95
363.80 1.129094e-95
363.90 1.129094e-95
364.00 1.129094e-95
364.10 1.129094e-95
364.20 1.129094e-95
364.30 1.129094e-95
364.40 1.129094e-95
364.50 1.129094e-95
364.60 1.129094e-95
364.70 1.129094e-95
364.80 1.129094e-95
364.90 1.129094e-95
365.00 1.129094e-95
365.10 1.129094e-95
365.20 1.129094e-95
365.30 1.129094e-95
365.40 1.129094e-95
365.50 1.129094e-95
365.60 1.129094e-95
365.70 1.129094e-95
365.80 1.129094e-95
365.90 1.129094e-95
366.00 1.129094e-95
366.10 1.129094e-95
366.20 1.129094e-95
366.30 1.129094e-95
366.40 1.129094e-95
366.50 1.129094e-95
366.60 1.129094e-95
366.70 1.129094e-95
366.80 1.129094e-95
366.90 1.129094e-95
367.00 1.129094e-95
367.10 1.129094e-95
367.20 1.129094e-95
367.30 1.129094e-95
367.40 1.129094e-95
367.50 1.129094e-95
367.60 1.129094e-95
367.70 1.129094e-95
367.80 1.129094e-95
367.90 1.129094e-95
368.00 1.129094e-95
368.10 1.129094e-95
368.20 1.129094e-95
368.30 1.129094e-95
368.40 1.129094e-95
368.50 1.129094e-95
368.60 1.129094e-95
368.70 1.129094e-95
368.80 1.129094e-95
368.90 1.129094e-95
369.00 1.129094e-95
369.10 1.129094e-95
369.20 1.129094e-95
369.30 1.129094e-95
369.40 1.129094e-95
369.50 1.129094e-95
369.60 1.129094e-95
369.70 1.129094e-95
369.80 1.129094e-95
369.90 1.129094e-95
370.00 1.129094e-95
370.10 1.129094e-95
370.20 1.129094e-95
370.30 1.129094e-95
370.40 1.129094e-95
370.50 1.129094e-95
370.60 1.129094e-95
370.70 1.129094e-95
370.80 1.129094e-95
370.90 1.129094e-95
371.00 1.129094e-95
371.10 1.129094e-95
371.20 1.129094e-95
371.30 1.129094e-95
371.40 1.129094e-95
371.50 1.129094e-95
371.60 1.129094e-95
371.70 1.129094e-95
371.80 1.129094e-95
371.90 1.129094e-95
372.00 1.129094e-95
372.10 1.129094e-95
372.20 1.129094e-95
372.30 1.129094e-95
372.40 1.129094e-95
372.50 1.129094e-95
372.60 1.129094e-95
372.70 1.129094e-95
372.80 1.129094e-95
372.90 1.129094e-95
373.00 1.129094e-95
373.10 1.129094e-95
373.20 1.129094e-95
373.30 1.129094e-95
373.40 1.129094e-95
373.50 1.129094e-95
373.60 1.129094e-95
373.70 1.129094e-95
373.80 1.129094e-95
373.90 1.129094e-95
374.00 1.129094e-95
374.10 1.129094e-95
374.20 1.129094e-95
374.30 1.129094e-95
374.40 1.129094e-95
374.50 1.129094e-95
374.60 1.129094e-95
374.70 1.129094e-95
374.80 1.129094e-95
374.90 1.129094e-95
375.00 1.129094e-95
375.10 1.129094e-95
375.20 1.129094e-95
375.30 1.129094e-95
375.40 1.129094e-95
375.50 1.129094e-95
375.60 1.129094e-95
375.70 1.129094e-95
375.80 1.129094e-95
375.90 1.129094e-95
376.00 1.129094e-95
376.10 1.129094e-95
376.20 1.129094e-95
376.30 1.129094e-95
376.40 1.129094e-95
376.50 1.129094e-95
376.60 1.129094e-95
376.70 1.129094e-95
376.80 1.129094e-95
376.90 1.129094e-95
377.00 1.129094e-95
377.10 1.129094e-95
377.20 1.129094e-95
377.30 1.129094e-95
377.40 1.129094e-95
377.50 1.129094e-95
377.60 1.129094e-95
377.70 1.129094e-95
377.80 1.129094e-95
377.90 1.129094e-95
378.00 1.129094e-95
378.10 1.129094e-95
378.20 1.129094e-95
378.30 1.129094e-95
378.40 1.129094e-95
378.50 1.129094e-95
378.60 1.129094e-95
378.70 1.129094e-95
378.80 1.129094e-95
378.90 1.129094e-95
379.00 1.129094e-95
379.10 1.129094e-95
379.20 1.129094e-95
379.30 1.129094e-95
379.40 1.129094e-95
379.50 1.129094e-95
379.60 1.129094e-95
379.70 1.129094e-95
379.80 1.129094e-95
379.90 1.129094e-95
380.00 1.129094e-95
380.10 1.129094e-95
380.20 1.129094e-95
380.30 1.129094e-95
380.40 1.129094e-95
380.50 1.129094e-95
380.60 1.129094e-95
380.70 1.129094e-95
380.80 1.129094e-95
380.90 1.129094e-95
381.00 1.129094e-95
381.10 1.129094e-95
381.20 1.129094e-95
381.30 1.129094e-95
381.40 1.129094e-95
381.50 1.129094e-95
381.60 1.129094e-95
381.70 1.129094e-95
381.80 1.129094e-95
381.90 1.129094e-95
382.00 1.129094e-95
382.10 1.129094e-95
382.20 1.129094e-95
382.30 1.129094e-95
382.40 1.129094e-95
382.50 1.129094e-95
382.60 1.129094e-95
382.70 1.129094e-95
382.80 1.129094e-95
382.90 1.129094e-95
383.00 1.129094e-95
383.10 1.129094e-95
383.20 1.129094e-95
383.30 1.129094e-95
383.40 1.129094e-95
383.50 1.129094e-95
383.60 1.129094e-95
383.70 1.129094e-95
383.80 1.129094e-95
383.90 1.129094e-95
384.00 1.129094e-95
384.10 1.129094e-95
384.20 1.129094e-95
384.30 1.129094e-95
384.40 1.129094e-95
384.50 1.129094e-95
384.60 1.129094e-95
384.70 1.129094e-95
384.80 1.129094e-95
384.90 1.129094e-95
385.00 1.129094e-95
385.10 1.129094e-95
385.20 1.129094e-95
385.30 1.129094e-95
385.40 1.129094e-95
385.50 1.129094e-95
385.60 1.129094e-95
385.70 1.129094e-95
385.80 1.129094e-95
385.90 1.129094e-95
386.00 1.129094e-95
386.10 1.129094e-95
386.20 1.129094e-95
386.30 1.129094e-95
386.40 1.129094e-95
386.50 1.129094e-95
386.60 1.129094e-95
386.70 1.129094e-95
386.80 1.129094e-95
386.90 1.129094e-95
387.00 1.129094e-95
387.10 1.129094e-95
387.20 1.129094e-95
387.30 1.129094e-95
387.40 1.129094e-95
387.50 1.129094e-95
387.60 1.129094e-95
387.70 1.129094e-95
387.80 1.129094e-95
387.90 1.129094e-95
388.00 1.129094e-95
388.10 1.129094e-95
388.20 1.129094e-95
388.30 1.129094e-95
388.40 1.129094e-95
388.50 1.129094e-95
388.60 1.129094e-95
388.70 1.129094e-95
388.80 1.129094e-95
388.90 1.129094e-95
389.00 1.129094e-95
389.10 1.129094e-95
389.20 1.129094e-95
389.30 1.129094e-95
389.40 1.129094e-95
389.50 1.129094e-95
389.60 1.129094e-95
389.70 1.129094e-95
389.80 1.129094e-95
389.90 1.129094e-95
390.00 1.129094e-95
390.10 1.129094e-95
390.20 1.129094e-95
390.30 1.129094e-95
390.40 1.129094e-95
390.50 1.129094e-95
390.60 1.129094e-95
390.70 1.129094e-95
390.80 1.129094e-95
390.90 1.129094e-95
391.00 1.129094e-95
391.10 1.129094e-95
391.20 1.129094e-95
391.30 1.129094e-95
391.40 1.129094e-95
391.50 1.129094e-95
391.60 1.129094e-95
391.70 1.129094e-95
391.80 1.129094e-95
391.90 1.129094e-95
392.00 1.129094e-95
392.10 1.129094e-95
392.20 1.129094e-95
392.30 1.129094e-95
392.40 1.129094e-95
392.50 1.129094e-95
392.60 1.129094e-95
392.70 1.129094e-95
392.80 1.129094e-95
392.90 1.129094e-95
393.00 1.129094e-95
393.10 1.129094e-95
393.20 1.129094e-95
393.30 1.129094e-95
393.40 1.129094e-95
393.50 1.129094e-95
393.60 1.129094e-95
393.70 1.129094e-95
393.80 1.129094e-95
393.90 1.129094e-95
394.00 1.129094e-95
394.10 1.129094e-95
394.20 1.129094e-95
394.30 1.129094e-95
394.40 1.129094e-95
394.50 1.129094e-95
394.60 1.129094e-95
394.70 1.129094e-95
394.80 1.129094e-95
394.90 1.129094e-95
395.00 0.01487541
395.10 0.02868806
395.20 0.04114157
395.30 0.05204243
395.40 0.06113114
395.50 0.06814651
395.60 0.07329521
395.70 0.07698384
395.80 0.07966642
395.90 0.08211293
396.00 0.08573588
396.10 0.09231662
396.20 0.1031596
396.30 0.1186516
396.40 0.1380603
396.50 0.1595893
396.60 0.1808408
396.70 0.1994033
396.80 0.2134694
396.90 0.2221368
397.00 0.2253647
397.10 0.2253647
397.20 0.2253647
397.30 0.2253647
397.40 0.2253647
397.50 0.2253647
397.60 0.2261384
397.70 0.2287025
397.80 0.2319932
397.90 0.2351614
398.00 0.2377917
398.10 0.2399862
398.20 0.2422925
398.30 0.2454532
398.40 0.2500639
398.50 0.2563324
398.60 0.2637083
398.70 0.2711147
398.80 0.2775614
398.90 0.2822762
399.00 0.2846327
399.10 0.2846327
399.20 0.2846327
399.30 0.2846327
399.40 0.2846327
399.50 0.2846327
399.60 0.2846327
399.70 0.2846327
399.80 0.2846327
399.90 0.2846327
400.00 0.2846327
400.10 0.2846327
400.20 0.2846327
400.30 0.2846327
400.40 0.2846327
400.50 0.2846327
400.60 0.2846327
400.70 0.2846327
400.80 0.2865551
400.90 0.291222
401.00 0.2987297
401.10 0.3085488
401.20 0.3198429
401.30 0.3319216
401.40 0.3441549
401.50 0.3558572
401.60 0.3662978
401.70 0.3748154
401.80 0.3810196
401.90 0.3851121
402.00 0.3880768
402.10 0.3912248
402.20 0.3958708
402.30 0.4029087
402.40 0.4125229
402.50 0.4242958
402.60 0.4374031
402.70 0.4508369
402.80 0.4637715
402.90 0.4758977
403.00 0.4871138
403.10 0.4969661
403.20 0.5048384
403.30 0.5103673
403.40 0.5133647
403.50 0.5138674
403.60 0.5138674
403.70 0.5138674
403.80 0.5138674
403.90 0.5138674
404.00 0.5138674
404.10 0.5159954
404.20 0.5211227
404.30 0.5282222
404.40 0.5361085
404.50 0.5440717
404.60 0.5518402
404.70 0.5591708
404.80 0.5658744
404.90 0.5719012
405.00 0.5626275
405.10 0.5549063
405.20 0.5504595
405.30 0.5507249
405.40 0.556517
405.50 0.5683694
405.60 0.5862626
405.70 0.6091875
405.80 0.6351877
405.90 0.6615831
406.00 0.6851305
406.10 0.702582
406.20 0.7117366
406.30 0.7122194
406.40 0.705652
406.50 0.6951118
406.60 0.6839291
406.70 0.6751669
406.80 0.671421
406.90 0.6740626
407.00 0.6829108
407.10 0.6952174
407.20 0.7072533
407.30 0.7185285
407.40 0.7282863
407.50 0.7357567
407.60 0.7399758
407.70 0.7404854
407.80 0.7392932
407.90 0.738073
408.00 0.7382313
408.10 0.7408342
408.20 0.7460675
408.30 0.7530689
408.40 0.7607367
408.50 0.7681705
408.60 0.7745625
408.70 0.7793982
408.80 0.7825895
408.90 0.7846048
409.00 0.7862729
409.10 0.7880618
409.20 0.7886067
409.30 0.78944
409.40 0.7921497
409.50 0.7979423
409.60 0.8075024
409.70 0.8210013
409.80 0.8377316
409.90 0.8563798
410.00 0.8758094
410.10 0.8950801
410.20 0.9134309
410.30 0.9303766
410.40 0.9458556
410.50 0.9603345
410.60 0.9743418
410.70 0.9881082
410.80 0.9998501
410.90 1.00894
411.00 1.015523
411.10 1.020178
411.20 1.023515
411.30 1.026356
411.40 1.0298
411.50 1.034797
411.60 1.041992
411.70 1.05155
411.80 1.063045
411.90 1.075292
412.00 1.086611
412.10 1.095533
412.20 1.100973
412.30 1.102617
412.40 1.101078
412.50 1.097608
412.60 1.093446
412.70 1.089078
412.80 1.084241
412.90 1.078266
413.00 1.070763
413.10 1.062385
413.20 1.054786
413.30 1.049758
413.40 1.048601
413.50 1.052083
413.60 1.058568
413.70 1.067172
413.80 1.07686
413.90 1.086363
414.00 1.094704
414.10 1.099181
414.20 1.098847
414.30 1.095155
414.40 1.090016
414.50 1.085244
414.60 1.08204
414.70 1.08136
414.80 1.084029
414.90 1.090194
415.00 1.099117
415.10 1.108992
415.20 1.117435
415.30 1.122425
415.40 1.122925
415.50 1.118309
415.60 1.108083
415.70 1.092827
415.80 1.074211
415.90 1.054259
416.00 1.034977
416.10 1.017886
416.20 1.003861
416.30 0.9930462
416.40 0.984868
416.50 0.9784212
416.60 0.9729476
416.70 0.9676837
416.80 0.9615158
416.90 0.9537793
417.00 0.9448512
417.10 0.9354519
417.20 0.9262367
417.30 0.917823
417.40 0.9110302
417.50 0.9068185
417.60 0.9056356
417.70 0.9069593
417.80 0.9095617
417.90 0.9121683
418.00 0.9135221
418.10 0.9124072
418.20 0.9081761
418.30 0.9009366
418.40 0.8908692
418.50 0.8784576
418.60 0.8650807
418.70 0.8528387
418.80 0.8432006
418.90 0.8364705
419.00 0.8324459
419.10 0.830657
419.20 0.8301121
419.30 0.8304342
419.40 0.8299959
419.50 0.8273179
419.60 0.8213667
419.70 0.8117114
419.80 0.7992324
419.90 0.7856586
420.00 0.7725965
420.10 0.7615113
420.20 0.7535203
420.30 0.7490187
420.40 0.747569
420.50 0.7480071
420.60 0.7489099
420.70 0.7493758
420.80 0.7491375
420.90 0.7479446
421.00 0.7453921
421.10 0.741262
421.20 0.7354855
421.30 0.7276231
421.40 0.7171913
421.50 0.7043192
421.60 0.689654
421.70 0.6743045
421.80 0.6596881
421.90 0.6472103
422.00 0.6376892
422.10 0.6309056
422.20 0.6259517
422.30 0.621915
422.40 0.6181392
422.50 0.6141423
422.60 0.6099077
422.70 0.6064298
422.80 0.6053299
422.90 0.607896
423.00 0.6146111
423.10 0.6249407
423.20 0.6372811
423.30 0.6495545
423.40 0.6598765
423.50 0.6666915
423.60 0.6688717
423.70 0.6659777
423.80 0.6585363
423.90 0.6490333
424.00 0.6406928
424.10 0.634088
424.20 0.6292941
424.30 0.6276555
424.40 0.6304168
424.50 0.6363838
424.60 0.6441056
424.70 0.6520144
424.80 0.6584862
424.90 0.6624143
425.00 0.663264
425.10 0.6609788
425.20 0.6557907
425.30 0.6483747
425.40 0.6394886
425.50 0.6296287
425.60 0.6193886
425.70 0.6095689
425.80 0.6008671
425.90 0.5934686
426.00 0.5870618
426.10 0.5814971
426.20 0.5768021
426.30 0.5728778
426.40 0.5696396
426.50 0.5671514
426.60 0.5655768
426.70 0.5647976
426.80 0.5645669
426.90 0.5645877
427.00 0.5643497
427.10 0.5635043
427.20 0.5620304
427.30 0.5603477
427.40 0.5589772
427.50 0.5578276
427.60 0.5564445
427.70 0.554583
427.80 0.5522751
427.90 0.5496935
428.00 0.5471127
428.10 0.5449788
428.20 0.5435838
428.30 0.5431244
428.40 0.5438627
428.50 0.5457002
428.60 0.5484166
428.70 0.551623
428.80 0.5553161
428.90 0.5598265
429.00 0.5650192
429.10 0.5704976
429.20 0.5760166
429.30 0.5803504
429.40 0.5834839
429.50 0.5855631
429.60 0.5869464
429.70 0.5880156
429.80 0.5887796
429.90 0.5890861
430.00 0.5886129
430.10 0.5868462
430.20 0.5834844
430.30 0.5786866
430.40 0.5731424
430.50 0.5678862
430.60 0.5638865
430.70 0.5615033
430.80 0.5603189
430.90 0.5597089
431.00 0.5589947
431.10 0.5577025
431.20 0.5558204
431.30 0.5536172
431.40 0.5515471
431.50 0.5499616
431.60 0.5489657
431.70 0.5486854
431.80 0.54905
431.90 0.5495917
432.00 0.549753
432.10 0.5492574
432.20 0.5483906
432.30 0.5475476
432.40 0.5469188
432.50 0.5465024
432.60 0.5461719
432.70 0.5456287
432.80 0.544249
432.90 0.5413733
433.00 0.5364482
433.10 0.5292415
433.20 0.5201421
433.30 0.5099406
433.40 0.4996248
433.50 0.4901332
433.60 0.4822139
433.70 0.476606
433.80 0.4743594
433.90 0.4743594
434.00 0.4743594
434.10 0.4743594
434.20 0.4743594
434.30 0.4725905
434.40 0.4670817
434.50 0.4583644
434.60 0.4482524
434.70 0.4376165
434.80 0.4271087
434.90 0.4172153
435.00 0.4080779
435.10 0.3994658
435.20 0.3911606
435.30 0.3831699
435.40 0.3766755
435.50 0.372283
435.60 0.3703573
435.70 0.3714394
435.80 0.3745326
435.90 0.3787367
436.00 0.3833445
436.10 0.3877089
436.20 0.3912009
436.30 0.3933098
436.40 0.3938918
436.50 0.3931263
436.60 0.391327
436.70 0.3889718
436.80 0.3865771
436.90 0.3844752
437.00 0.3830575
437.10 0.3829168
437.20 0.3844475
437.30 0.3874374
437.40 0.3913627
437.50 0.3960419
437.60 0.4015386
437.70 0.4078082
437.80 0.4147994
437.90 0.4226155
438.00 0.4311886
438.10 0.4402589
438.20 0.4498621
438.30 0.460214
438.40 0.4715536
438.50 0.4841954
438.60 0.4981955
438.70 0.5132231
438.80 0.5286956
438.90 0.5438645
439.00 0.5582303
439.10 0.571748
439.20 0.5843574
439.30 0.5956301
439.40 0.6051582
439.50 0.6128174
439.60 0.6183537
439.70 0.621535
439.80 0.6222944
439.90 0.620679
440.00 0.6170565
440.10 0.6120224
440.20 0.6060763
440.30 0.5998059
440.40 0.5941474
440.50 0.5900463
440.60 0.5881202
440.70 0.5886067
440.80 0.5914031
440.90 0.5962073
441.00 0.6027769
441.10 0.6105424
441.20 0.6187281
441.30 0.6267398
441.40 0.6340315
441.50 0.6402917
441.60 0.6455648
441.70 0.6497595
441.80 0.6525535
441.90 0.6538198
442.00 0.6538248
442.10 0.6533379
442.20 0.6530777
442.30 0.6532479
442.40 0.6535804
442.50 0.6537527
442.60 0.6536696
442.70 0.6534668
442.80 0.6534708
442.90 0.6539415
443.00 0.6552519
443.10 0.6578864
443.20 0.661914
443.30 0.6669091
443.40 0.6724267
443.50 0.6781139
443.60 0.683818
443.70 0.6895308
443.80 0.6949631
443.90 0.7006664
444.00 0.7073636
444.10 0.7154747
444.20 0.7248559
444.30 0.7348588
444.40 0.7444851
444.50 0.7522046
444.60 0.7558938
444.70 0.7551651
444.80 0.7504382
444.90 0.7442116
445.00 0.7379752
445.10 0.7329059
445.20 0.72995
445.30 0.7303188
445.40 0.7334171
445.50 0.7380665
445.60 0.7433273
445.70 0.747866
445.80 0.7519841
445.90 0.7565422
446.00 0.7624314
446.10 0.7701206
446.20 0.7797996
446.30 0.7912909
446.40 0.8034281
446.50 0.8141375
446.60 0.8213307
446.70 0.824065
446.80 0.8230142
446.90 0.8215226
447.00 0.8200303
447.10 0.8181092
447.20 0.8160929
447.30 0.8156846
447.40 0.8167681
447.50 0.8189677
447.60 0.8216695
447.70 0.8241662
447.80 0.8260222
447.90 0.827168
448.00 0.8278401
448.10 0.8280471
448.20 0.8272424
448.30 0.8252148
448.40 0.822289
448.50 0.818625
448.60 0.8142429
448.70 0.8091458
448.80 0.8032411
448.90 0.7964591
449.00 0.7886805
449.10 0.7797253
449.20 0.7698486
449.30 0.7599679
449.40 0.7512314
449.50 0.7446777
449.60 0.7410592
449.70 0.7405052
449.80 0.7427583
449.90 0.7477359
450.00 0.7554926
450.10 0.7658291
450.20 0.7782864
450.30 0.7920267
450.40 0.8055118
450.50 0.8168773
450.60 0.8246326
450.70 0.8281301
450.80 0.8277042
450.90 0.8244759
451.00 0.8202119
451.10 0.8171888
451.20 0.8174661
451.30 0.822042
451.40 0.8306868
451.50 0.8423815
451.60 0.8557
451.70 0.8692553
451.80 0.8824367
451.90 0.8953312
452.00 0.9081835
452.10 0.9210461
452.20 0.933857
452.30 0.9469684
452.40 0.9610176
452.50 0.9762428
452.60 0.9922415
452.70 1.008253
452.80 1.023411
452.90 1.036803
453.00 1.047625
453.10 1.055305
453.20 1.059509
453.30 1.060503
453.40 1.059042
453.50 1.056143
453.60 1.052933
453.70 1.050231
453.80 1.048368
453.90 1.047382
454.00 1.047155
454.10 1.047488
454.20 1.048485
454.30 1.050844
454.40 1.055584
454.50 1.06351
454.60 1.074908
454.70 1.089427
454.80 1.106291
454.90 1.123161
455.00 1.139471
455.10 1.155502
455.20 1.171482
455.30 1.186367
455.40 1.199421
455.50 1.211129
455.60 1.221497
455.70 1.229968
455.80 1.235682
455.90 1.237948
456.00 1.236682
456.10 1.232349
456.20 1.225822
456.30 1.218321
456.40 1.211437
456.50 1.207079
456.60 1.207081
456.70 1.212305
456.80 1.221842
456.90 1.231657
457.00 1.240013
457.10 1.24574
457.20 1.247681
457.30 1.244396
457.40 1.237793
457.50 1.228805
457.60 1.219125
457.70 1.211311
457.80 1.206783
457.90 1.20586
458.00 1.207745
458.10 1.211221
458.20 1.21518
458.30 1.218609
458.40 1.220986
458.50 1.222404
458.60 1.222875
458.70 1.222249
458.80 1.220462
458.90 1.21772
459.00 1.21476
459.10 1.212363
459.20 1.210631
459.30 1.209221
459.40 1.207824
459.50 1.206338
459.60 1.205162
459.70 1.205181
459.80 1.207196
459.90 1.211386
460.00 1.217276
460.10 1.224001
460.20 1.230666
460.30 1.236713
460.40 1.241708
460.50 1.245218
460.60 1.247449
460.70 1.249196
460.80 1.25132
460.90 1.254362
461.00 1.25807
461.10 1.261577
461.20 1.264213
461.30 1.26614
461.40 1.268146
461.50 1.27106
461.60 1.275538
461.70 1.281523
461.80 1.288133
461.90 1.294328
462.00 1.299104
462.10 1.301628
462.20 1.301201
462.30 1.297153
462.40 1.28942
462.50 1.278805
462.60 1.266463
462.70 1.253384
462.80 1.240529
462.90 1.229134
463.00 1.220311
463.10 1.215143
463.20 1.214731
463.30 1.219377
463.40 1.228335
463.50 1.239981
463.60 1.252283
463.70 1.263372
463.80 1.271798
463.90 1.276565
464.00 1.277331
464.10 1.274636
464.20 1.269602
464.30 1.263261
464.40 1.256283
464.50 1.248953
464.60 1.241378
464.70 1.233733
464.80 1.226054
464.90 1.21812
465.00 1.209498
465.10 1.199758
465.20 1.188646
465.30 1.176086
465.40 1.162182
465.50 1.147438
465.60 1.132802
465.70 1.119523
465.80 1.10906
465.90 1.102262
466.00 1.09904
466.10 1.098669
466.20 1.099883
466.30 1.101284
466.40 1.102038
466.50 1.102096
466.60 1.101714
466.70 1.101314
466.80 1.101704
466.90 1.104186
467.00 1.110205
467.10 1.120568
467.20 1.134868
467.30 1.151941
467.40 1.169571
467.50 1.187115
467.60 1.203621
467.70 1.217241
467.80 1.226607
467.90 1.2306
468.00 1.229043
468.10 1.222915
468.20 1.213992
468.30 1.203755
468.40 1.192827
468.50 1.181811
468.60 1.171759
468.70 1.163775
468.80 1.158694
468.90 1.156973
469.00 1.158663
469.10 1.163545
469.20 1.171409
469.30 1.18195
469.40 1.194349
469.50 1.207314
469.60 1.219344
469.70 1.228987
469.80 1.235239
469.90 1.237444
470.00 1.235347
470.10 1.229353
470.20 1.220258
470.30 1.208923
470.40 1.196537
470.50 1.184816
470.60 1.175168
470.70 1.168216
470.80 1.16395
470.90 1.161708
471.00 1.160286
471.10 1.15835
471.20 1.15463
471.30 1.147909
471.40 1.137494
471.50 1.123451
471.60 1.106574
471.70 1.088577
471.80 1.071512
471.90 1.056815
472.00 1.045266
472.10 1.037041
472.20 1.031998
472.30 1.029909
472.40 1.030247
472.50 1.032227
472.60 1.035132
472.70 1.038571
472.80 1.04217
472.90 1.045381
473.00 1.047597
473.10 1.047904
473.20 1.045396
473.30 1.040012
473.40 1.032614
473.50 1.024649
473.60 1.017818
473.70 1.013654
473.80 1.013092
473.90 1.016254
474.00 1.022427
474.10 1.03022
474.20 1.03793
474.30 1.043962
474.40 1.04729
474.50 1.047765
474.60 1.045973
474.70 1.042919
474.80 1.040109
474.90 1.039313
475.00 1.041782
475.10 1.047919
475.20 1.057294
475.30 1.068842
475.40 1.081052
475.50 1.092124
475.60 1.100379
475.70 1.104642
475.80 1.104479
475.90 1.1005
476.00 1.094014
476.10 1.086465
476.20 1.079278
476.30 1.073629
476.40 1.070062
476.50 1.068215
476.60 1.067431
476.70 1.067121
476.80 1.066606
476.90 1.065128
477.00 1.061984
477.10 1.056807
477.20 1.049477
477.30 1.039924
477.40 1.0283
477.50 1.015069
477.60 1.000903
477.70 0.9867896
477.80 0.9740884
477.90 0.9646453
478.00 0.9599781
478.10 0.9603042
478.20 0.9646398
478.30 0.9714695
478.40 0.9792596
478.50 0.9864293
478.60 0.9916644
478.70 0.9941918
478.80 0.9938304
478.90 0.9908119
479.00 0.9853734
479.10 0.9777687
479.20 0.9684488
479.30 0.9576677
479.40 0.9454384
479.50 0.9320626
479.60 0.9183085
479.70 0.9050898
479.80 0.892916
479.90 0.8820836
480.00 0.8728167
480.10 0.865186
480.20 0.8595027
480.30 0.8564198
480.40 0.8564609
480.50 0.8595564
480.60 0.8651446
480.70 0.8722889
480.80 0.8798181
480.90 0.8866271
481.00 0.8918104
481.10 0.8948307
481.20 0.8957833
481.30 0.8953608
481.40 0.894295
481.50 0.8930669
481.60 0.8917787
481.70 0.8901455
481.80 0.887906
481.90 0.885132
482.00 0.8821115
482.10 0.8792639
482.20 0.877054
482.30 0.8757806
482.40 0.8757505
482.50 0.8772555
482.60 0.8803258
482.70 0.8845765
482.80 0.8896184
482.90 0.8953912
483.00 0.9018521
483.10 0.9087297
483.20 0.915471
483.30 0.9212805
483.40 0.9254472
483.50 0.9276674
483.60 0.9279329
483.70 0.9267006
483.80 0.924619
483.90 0.9222208
484.00 0.9201105
484.10 0.9189713
484.20 0.9193042
484.30 0.9212527
484.40 0.9246703
484.50 0.9293426
484.60 0.9349881
484.70 0.9409959
484.80 0.9460991
484.90 0.9486891
485.00 0.9477084
485.10 0.9427183
485.20 0.9341865
485.30 0.923715
485.40 0.9135073
485.50 0.9058442
485.60 0.9026312
485.70 0.9048223
485.80 0.9121457
485.90 0.9234132
486.00 0.9371002
486.10 0.9517247
486.20 0.9659275
486.30 0.9785446
486.40 0.9886371
486.50 0.9956724
486.60 0.9994502
486.70 1.000028
486.80 0.9979592
486.90 0.9942271
487.00 0.9902343
487.10 0.9877862
487.20 0.9885603
487.30 0.9933671
487.40 1.001965
487.50 1.013364
487.60 1.026215
487.70 1.039317
487.80 1.051826
487.90 1.062857
488.00 1.07157
488.10 1.077758
488.20 1.081852
488.30 1.084659
488.40 1.086998
488.50 1.0894
488.60 1.092245
488.70 1.095808
488.80 1.100065
488.90 1.104835
489.00 1.110093
489.10 1.115643
489.20 1.120956
489.30 1.125856
489.40 1.130872
489.50 1.136531
489.60 1.142656
489.70 1.148754
489.80 1.1546
489.90 1.160055
490.00 1.164879
490.10 1.169059
490.20 1.172585
490.30 1.175071
490.40 1.176123
490.50 1.175633
490.60 1.173751
490.70 1.170767
490.80 1.166746
490.90 1.161729
491.00 1.156368
491.10 1.151684
491.20 1.148236
491.30 1.146027
491.40 1.144959
491.50 1.144764
491.60 1.145103
491.70 1.145817
491.80 1.146702
491.90 1.147463
492.00 1.147879
492.10 1.147737
492.20 1.146821
492.30 1.144852
492.40 1.141189
492.50 1.134991
492.60 1.126105
492.70 1.115385
492.80 1.104133
492.90 1.093538
493.00 1.084571
493.10 1.07793
493.20 1.073816
493.30 1.071978
493.40 1.071777
493.50 1.072383
493.60 1.072939
493.70 1.072648
493.80 1.071316
493.90 1.069436
494.00 1.067638
494.10 1.06634
494.20 1.06555
494.30 1.064988
494.40 1.064419
494.50 1.063784
494.60 1.063176
494.70 1.062747
494.80 1.062767
494.90 1.063754
495.00 1.066471
495.10 1.071715
495.20 1.079766
495.30 1.090091
495.40 1.101383
495.50 1.111935
495.60 1.120326
495.70 1.125829
495.80 1.128294
495.90 1.127687
496.00 1.124079
496.10 1.117907
496.20 1.110038
496.30 1.101436
496.40 1.092878
496.50 1.085103
496.60 1.078735
496.70 1.073991
496.80 1.07065
496.90 1.068213
497.00 1.065895
497.10 1.062584
497.20 1.057256
497.30 1.049615
497.40 1.040128
497.50 1.029622
497.60 1.019013
497.70 1.008916
497.80 0.9996997
497.90 0.9916685
498.00 0.9851326
498.10 0.9803265
498.20 0.9771679
498.30 0.9752984
498.40 0.9744011
498.50 0.9745711
498.60 0.9760383
498.70 0.978848
498.80 0.982935
498.90 0.9881048
499.00 0.9938927
499.10 0.999806
499.20 1.005375
499.30 1.010054
499.40 1.013169
499.50 1.014186
499.60 1.013248
499.70 1.01098
499.80 1.007936
499.90 1.00429
500.00 1
500.10 0.9948199
500.20 0.988364
500.30 0.9804508
500.40 0.9710746
500.50 0.9604656
500.60 0.9491948
500.70 0.9380322
500.80 0.9280363
500.90 0.9204394
501.00 0.9161015
501.10 0.9152907
501.20 0.9179012
501.30 0.9235754
501.40 0.931692
501.50 0.9415878
501.60 0.9525703
501.70 0.9637877
501.80 0.9744927
501.90 0.9841064
502.00 0.9922202
502.10 0.9987533
502.20 1.003799
502.30 1.00748
502.40 1.010119
502.50 1.012214
502.60 1.013891
502.70 1.014886
502.80 1.014853
502.90 1.013584
503.00 1.011187
503.10 1.00818
503.20 1.005602
503.30 1.004658
503.40 1.006259
503.50 1.010876
503.60 1.01846
503.70 1.028318
503.80 1.039095
503.90 1.049083
504.00 1.056987
504.10 1.062465
504.20 1.066086
504.30 1.068768
504.40 1.071448
504.50 1.074852
504.60 1.079318
504.70 1.084928
504.80 1.091636
504.90 1.098992
505.00 1.106162
505.10 1.112462
505.20 1.117551
505.30 1.121378
505.40 1.124094
505.50 1.12574
505.60 1.126136
505.70 1.12516
505.80 1.122829
505.90 1.11948
506.00 1.115635
506.10 1.11186
506.20 1.108685
506.30 1.106469
506.40 1.105471
506.50 1.105593
506.60 1.10645
506.70 1.107928
506.80 1.110112
506.90 1.112814
507.00 1.11565
507.10 1.118343
507.20 1.12075
507.30 1.122639
507.40 1.123704
507.50 1.123704
507.60 1.122449
507.70 1.120011
507.80 1.11667
507.90 1.112902
508.00 1.109435
508.10 1.106877
508.20 1.105655
508.30 1.106265
508.40 1.108835
508.50 1.112717
508.60 1.116862
508.70 1.120215
508.80 1.122063
508.90 1.122128
509.00 1.120459
509.10 1.117437
509.20 1.113769
509.30 1.110396
509.40 1.10829
509.50 1.108123
509.60 1.110088
509.70 1.113834
509.80 1.118957
509.90 1.125369
510.00 1.13302
510.10 1.141873
510.20 1.151704
510.30 1.162029
510.40 1.172394
510.50 1.182334
510.60 1.191414
510.70 1.199202
510.80 1.205101
510.90 1.208431
511.00 1.20868
511.10 1.205752
511.20 1.19986
511.30 1.191402
511.40 1.180903
511.50 1.168854
511.60 1.155818
511.70 1.14252
511.80 1.129622
511.90 1.117719
512.00 1.107346
512.10 1.098987
512.20 1.093227
512.30 1.090646
512.40 1.091389
512.50 1.095084
512.60 1.100967
512.70 1.107859
512.80 1.114406
512.90 1.119355
513.00 1.121805
513.10 1.121263
513.20 1.117686
513.30 1.111529
513.40 1.103713
513.50 1.095236
513.60 1.086903
513.70 1.079359
513.80 1.073026
513.90 1.068114
514.00 1.064466
514.10 1.0614
514.20 1.058168
514.30 1.054485
514.40 1.050332
514.50 1.045888
514.60 1.041578
514.70 1.037826
514.80 1.034837
514.90 1.032645
515.00 1.030934
515.10 1.029047
515.20 1.026424
515.30 1.022694
515.40 1.017845
515.50 1.012392
515.60 1.006978
515.70 1.002154
515.80 0.9984114
515.90 0.9959398
516.00 0.9947721
516.10 0.9949306
516.20 0.9963159
516.30 0.9988653
516.40 1.002662
516.50 1.007858
516.60 1.01449
516.70 1.022138
516.80 1.030084
516.90 1.038176
517.00 1.046868
517.10 1.056547
517.20 1.067554
517.30 1.080311
517.40 1.094937
517.50 1.111092
517.60 1.128154
517.70 1.145248
517.80 1.161366
517.90 1.175554
518.00 1.187008
518.10 1.195426
518.20 1.201104
518.30 1.204421
518.40 1.205889
518.50 1.206372
518.60 1.206766
518.70 1.20772
518.80 1.209412
518.90 1.211505
519.00 1.213379
519.10 1.214307
519.20 1.213639
519.30 1.210939
519.40 1.206121
519.50 1.199719
519.60 1.192741
519.70 1.186413
519.80 1.181863
519.90 1.179849
520.00 1.180489
520.10 1.183093
520.20 1.186657
520.30 1.190287
520.40 1.192996
520.50 1.19387
520.60 1.192267
520.70 1.188126
520.80 1.182446
520.90 1.176895
521.00 1.173075
521.10 1.171974
521.20 1.173707
521.30 1.177619
521.40 1.182749
521.50 1.188258
521.60 1.193478
521.70 1.197977
521.80 1.202066
521.90 1.206813
522.00 1.213452
522.10 1.222723
522.20 1.234335
522.30 1.247102
522.40 1.259622
522.50 1.270727
522.60 1.279664
522.70 1.286147
522.80 1.290267
522.90 1.292572
523.00 1.294073
523.10 1.295936
523.20 1.298811
523.30 1.302447
523.40 1.305953
523.50 1.308366
523.60 1.309086
523.70 1.30795
523.80 1.30511
523.90 1.30086
524.00 1.295818
524.10 1.290951
524.20 1.287095
524.30 1.284798
524.40 1.284256
524.50 1.284907
524.60 1.28562
524.70 1.28549
524.80 1.28416
524.90 1.281674
525.00 1.278339
525.10 1.274695
525.20 1.271532
525.30 1.269786
525.40 1.270218
525.50 1.27339
525.60 1.279905
525.70 1.289832
525.80 1.302478
525.90 1.316935
526.00 1.332196
526.10 1.347022
526.20 1.360189
526.30 1.370826
526.40 1.378308
526.50 1.382286
526.60 1.382779
526.70 1.380287
526.80 1.375722
526.90 1.369761
527.00 1.362624
527.10 1.354578
527.20 1.345916
527.30 1.336939
527.40 1.328338
527.50 1.321043
527.60 1.315787
527.70 1.312764
527.80 1.311693
527.90 1.311979
528.00 1.312696
528.10 1.31275
528.20 1.311033
528.30 1.306787
528.40 1.299974
528.50 1.291188
528.60 1.281452
528.70 1.272056
528.80 1.264205
528.90 1.258806
529.00 1.256529
529.10 1.257715
529.20 1.262282
529.30 1.269703
529.40 1.279228
529.50 1.289869
529.60 1.300553
529.70 1.310587
529.80 1.319611
529.90 1.327546
530.00 1.334891
530.10 1.342601
530.20 1.351523
530.30 1.36206
530.40 1.374408
530.50 1.388676
530.60 1.404712
530.70 1.421941
530.80 1.43915
530.90 1.454839
531.00 1.467878
531.10 1.477768
531.20 1.484777
531.30 1.489833
531.40 1.493975
531.50 1.498074
531.60 1.502884
531.70 1.508755
531.80 1.515012
531.90 1.51998
532.00 1.521826
532.10 1.519363
532.20 1.512543
532.30 1.502588
532.40 1.491509
532.50 1.481424
532.60 1.474197
532.70 1.471219
532.80 1.473398
532.90 1.480728
533.00 1.492023
533.10 1.505488
533.20 1.519436
533.30 1.532887
533.40 1.545614
533.50 1.557713
533.60 1.569307
533.70 1.580461
533.80 1.591321
533.90 1.602118
534.00 1.612806
534.10 1.623038
534.20 1.6324
534.30 1.6404
534.40 1.646611
534.50 1.651009
534.60 1.653957
534.70 1.655824
534.80 1.656823
534.90 1.657121
535.00 1.65706
535.10 1.657004
535.20 1.65698
535.30 1.656965
535.40 1.65711
535.50 1.657355
535.60 1.657052
535.70 1.65549
535.80 1.652348
535.90 1.647669
536.00 1.641783
536.10 1.635136
536.20 1.628238
536.30 1.621801
536.40 1.616854
536.50 1.614576
536.60 1.616048
536.70 1.621628
536.80 1.630806
536.90 1.642651
537.00 1.655927
537.10 1.669217
537.20 1.681239
537.30 1.690977
537.40 1.697723
537.50 1.701306
537.60 1.702109
537.70 1.700869
537.80 1.698428
537.90 1.695524
538.00 1.692911
538.10 1.691471
538.20 1.692108
538.30 1.695562
538.40 1.702107
538.50 1.711338
538.60 1.72226
538.70 1.733435
538.80 1.743415
538.90 1.751079
539.00 1.75581
539.10 1.757912
539.20 1.758552
539.30 1.75924
539.40 1.76135
539.50 1.765839
539.60 1.772864
539.70 1.781607
539.80 1.790678
539.90 1.798624
540.00 1.804103
540.10 1.806103
540.20 1.804222
540.30 1.798695
540.40 1.790222
540.50 1.779455
540.60 1.766737
540.70 1.752647
540.80 1.738035
540.90 1.723624
541.00 1.710041
541.10 1.69788
541.20 1.687718
541.30 1.680026
541.40 1.675099
541.50 1.672916
541.60 1.672962
541.70 1.674597
541.80 1.677555
541.90 1.682055
542.00 1.688605
542.10 1.697502
542.20 1.708655
542.30 1.721545
542.40 1.73506
542.50 1.747765
542.60 1.758225
542.70 1.765276
542.80 1.76813
542.90 1.766664
543.00 1.761657
543.10 1.754468
543.20 1.746654
543.30 1.739458
543.40 1.733486
543.50 1.728856
543.60 1.725341
543.70 1.722572
543.80 1.720236
543.90 1.718037
544.00 1.715826
544.10 1.713498
544.20 1.710933
544.30 1.708001
544.40 1.704518
544.50 1.700395
544.60 1.695586
544.70 1.690088
544.80 1.684075
544.90 1.677913
545.00 1.672031
545.10 1.666747
545.20 1.662198
545.30 1.658212
545.40 1.654142
545.50 1.64925
545.60 1.643282
545.70 1.636483
545.80 1.629387
545.90 1.622643
546.00 1.616855
546.10 1.612532
546.20 1.610031
546.30 1.609143
546.40 1.608998
546.50 1.608496
546.60 1.606691
546.70 1.603228
546.80 1.598447
546.90 1.593187
547.00 1.588368
547.10 1.584555
547.20 1.581974
547.30 1.580472
547.40 1.579458
547.50 1.578137
547.60 1.575921
547.70 1.572771
547.80 1.568977
547.90 1.564929
548.00 1.560964
548.10 1.557219
548.20 1.553805
548.30 1.550614
548.40 1.547258
548.50 1.54349
548.60 1.539121
548.70 1.534024
548.80 1.528436
548.90 1.523048
549.00 1.51851
549.10 1.514889
549.20 1.51186
549.30 1.509033
549.40 1.505792
549.50 1.501125
549.60 1.493981
549.70 1.483748
549.80 1.470541
549.90 1.455166
550.00 1.278608
550.10 1.288805
550.20 1.301567
550.30 1.31277
550.40 1.318928
550.50 1.318184
550.60 1.310897
550.70 1.298802
550.80 1.283784
550.90 1.267597
551.00 1.251546
551.10 1.236684
551.20 1.224322
551.30 1.21552
551.40 1.210975
551.50 1.21132
551.60 1.216584
551.70 1.225901
551.80 1.23833
551.90 1.252986
552.00 1.268392
552.10 1.283012
552.20 1.296247
552.30 1.308311
552.40 1.31994
552.50 1.331638
552.60 1.342763
552.70 1.352014
552.80 1.358511
552.90 1.362007
553.00 1.362813
553.10 1.36192
553.20 1.36065
553.30 1.360416
553.40 1.362814
553.50 1.368754
553.60 1.377687
553.70 1.388011
553.80 1.397617
553.90 1.404469
554.00 1.407509
554.10 1.406683
554.20 1.402416
554.30 1.395733
554.40 1.388465
554.50 1.382482
554.60 1.378606
554.70 1.376644
554.80 1.375953
554.90 1.375573
555.00 1.37361
555.10 1.370899
555.20 1.371948
555.30 1.38307
555.40 1.412763
555.50 1.467647
555.60 1.550239
555.70 1.658895
555.80 1.786466
555.90 1.921311
556.00 2.050727
556.10 2.163873
556.20 2.253296
556.30 2.316693
556.40 2.358757
556.50 2.386941
556.60 2.40856
556.70 2.430435
556.80 2.455494
556.90 2.484143
557.00 2.515315
557.10 2.546446
557.20 2.575105
557.30 2.599634
557.40 2.618799
557.50 2.631955
557.60 2.639794
557.70 2.644275
557.80 2.647532
557.90 2.650978
558.00 2.656069
558.10 2.664534
558.20 2.677125
558.30 2.693029
558.40 2.71024
558.50 2.726408
558.60 2.740148
558.70 2.751476
558.80 2.762105
558.90 2.775401
559.00 2.795619
559.10 2.823006
559.20 2.852416
559.30 2.875943
559.40 2.882445
559.50 2.861308
559.60 2.807141
559.70 2.721461
559.80 2.61262
559.90 2.493505
560.00 2.378831
560.10 2.282773
560.20 2.215242
560.30 2.17855
560.40 2.166795
560.50 2.171448
560.60 2.184602
560.70 2.198627
560.80 2.208791
560.90 2.212608
561.00 2.209488
561.10 2.200935
561.20 2.189291
561.30 2.177846
561.40 2.169989
561.50 2.167401
561.60 2.170183
561.70 2.177825
561.80 2.189614
561.90 2.204465
562.00 2.220161
562.10 2.23413
562.20 2.245055
562.30 2.253185
562.40 2.259439
562.50 2.264732
562.60 2.269438
562.70 2.272885
562.80 2.273751
562.90 2.2713
563.00 2.26554
563.10 2.256584
563.20 2.244618
563.30 2.230062
563.40 2.214521
563.50 2.200889
563.60 2.191402
563.70 2.18644
563.80 2.185119
563.90 2.185915
564.00 2.187
564.10 2.186177
564.20 2.181252
564.30 2.170734
564.40 2.154167
564.50 2.13243
564.60 2.107378
564.70 2.081576
564.80 2.058
564.90 2.038975
565.00 2.026044
565.10 2.020036
565.20 2.020612
565.30 2.025886
565.40 2.033195
565.50 2.040397
565.60 2.045959
565.70 2.049079
565.80 2.049961
565.90 2.049517
566.00 2.048675
566.10 2.048485
566.20 2.050387
566.30 2.05589
566.40 2.066433
566.50 2.082961
566.60 2.106018
566.70 2.13598
566.80 2.172057
566.90 2.211755
567.00 2.252053
567.10 2.289663
567.20 2.321246
567.30 2.344735
567.40 2.360353
567.50 2.36987
567.60 2.375273
567.70 2.378764
567.80 2.382226
567.90 2.38684
568.00 2.392676
568.10 2.398754
568.20 2.404428
568.30 2.409714
568.40 2.41442
568.50 2.418724
568.60 2.424421
568.70 2.434412
568.80 2.451369
568.90 2.476957
569.00 2.511031
569.10 2.551161
569.20 2.593318
569.30 2.632836
569.40 2.665515
569.50 2.688738
569.60 2.701495
569.70 2.703504
569.80 2.695087
569.90 2.677283
570.00 2.65173
570.10 2.620133
570.20 2.583776
570.30 2.543798
570.40 2.50172
570.50 2.459616
570.60 2.41986
570.70 2.384514
570.80 2.354547
570.90 2.329134
571.00 2.306562
571.10 2.286258
571.20 2.269014
571.30 2.255843
571.40 2.246282
571.50 2.238364
571.60 2.230125
571.70 2.220126
571.80 2.207839
571.90 2.19357
572.00 2.177608
572.10 2.160221
572.20 2.141953
572.30 2.123791
572.40 2.10669
572.50 2.090421
572.60 2.073157
572.70 2.052343
572.80 2.025736
572.90 1.992009
573.00 1.951374
573.10 1.905678
573.20 1.857752
573.30 1.810824
573.40 1.768223
573.50 1.732473
573.60 1.704401
573.70 1.683388
573.80 1.668196
573.90 1.657652
574.00 1.651522
574.10 1.64996
574.20 1.652519
574.30 1.658277
574.40 1.665909
574.50 1.674054
574.60 1.681484
574.70 1.686841
574.80 1.689377
574.90 1.69001
575.00 1.690844
575.10 1.694129
575.20 1.701379
575.30 1.712521
575.40 1.725996
575.50 1.740039
575.60 1.753546
575.70 1.765756
575.80 1.77595
575.90 1.78368
576.00 1.788951
576.10 1.792318
576.20 1.794682
576.30 1.797128
576.40 1.801068
576.50 1.807567
576.60 1.81699
576.70 1.829612
576.80 1.846438
576.90 1.868528
577.00 1.895549
577.10 1.92582
577.20 1.956881
577.30 1.985559
577.40 2.008824
577.50 2.024885
577.60 2.033511
577.70 2.035886
577.80 2.034192
577.90 2.031461
578.00 2.030639
578.10 2.033905
578.20 2.042013
578.30 2.053917
578.40 2.067889
578.50 2.082015
578.60 2.094505
578.70 2.104538
578.80 2.111672
578.90 2.115262
579.00 2.114615
579.10 2.108756
579.20 2.096981
579.30 2.080064
579.40 2.060816
579.50 2.042755
579.60 2.028459
579.70 2.01926
579.80 2.015556
579.90 2.017011
580.00 2.022514
580.10 2.030091
580.20 2.037689
580.30 2.043336
580.40 2.045168
580.50 2.042258
580.60 2.034839
580.70 2.023564
580.80 2.008067
580.90 1.987375
581.00 1.961766
581.10 1.933196
581.20 1.904668
581.30 1.879792
581.40 1.861723
581.50 1.852336
581.60 1.852161
581.70 1.860451
581.80 1.874855
581.90 1.892097
582.00 1.908874
582.10 1.922165
582.20 1.930856
582.30 1.936242
582.40 1.940128
582.50 1.943592
582.60 1.946752
582.70 1.948756
582.80 1.948641
582.90 1.945362
583.00 1.93798
583.10 1.926442
583.20 1.911604
583.30 1.89396
583.40 1.87273
583.50 1.84694
583.60 1.816409
583.70 1.782242
583.80 1.746391
583.90 1.711182
584.00 1.679386
584.10 1.653397
584.20 1.634483
584.30 1.623075
584.40 1.618838
584.50 1.620982
584.60 1.628354
584.70 1.638929
584.80 1.650577
584.90 1.661366
585.00 1.668726
585.10 1.669146
585.20 1.659696
585.30 1.639142
585.40 1.608138
585.50 1.569625
585.60 1.527944
585.70 1.487587
585.80 1.452438
585.90 1.423974
586.00 1.40104
586.10 1.381521
586.20 1.362367
586.30 1.339843
586.40 1.312178
586.50 1.280464
586.60 1.247632
586.70 1.21789
586.80 1.195423
586.90 1.18301
587.00 1.181313
587.10 1.189656
587.20 1.20624
587.30 1.228964
587.40 1.256449
587.50 1.287524
587.60 1.320894
587.70 1.354892
587.80 1.386709
587.90 1.412946
588.00 1.430661
588.10 1.438077
588.20 1.434833
588.30 1.422123
588.40 1.402966
588.50 1.380633
588.60 1.357408
588.70 1.334567
588.80 1.312801
588.90 1.292937
589.00 1.27616
589.10 1.264092
589.20 1.258085
589.30 1.258784
589.40 1.266072
589.50 1.278357
589.60 1.293158
589.70 1.307794
589.80 1.319431
589.90 1.326026
590.00 1.327309
590.10 1.32448
590.20 1.319286
590.30 1.313449
590.40 1.307511
590.50 1.300522
590.60 1.29065
590.70 1.276067
590.80 1.255946
590.90 1.231216
591.00 1.204385
591.10 1.177905
591.20 1.15377
591.30 1.133145
591.40 1.115445
591.50 1.098708
591.60 1.080701
591.70 1.059018
591.80 1.032542
591.90 1.002639
592.00 0.9727515
592.10 0.9471054
592.20 0.9293527
592.30 0.9217245
592.40 0.9244403
592.50 0.9364449
592.60 0.9554806
592.70 0.9785429
592.80 1.002948
592.90 1.026412
593.00 1.046786
593.10 1.063013
593.20 1.075848
593.30 1.086764
593.40 1.09678
593.50 1.106714
593.60 1.117477
593.70 1.129763
593.80 1.143831
593.90 1.159482
594.00 1.176426
594.10 1.194808
594.20 1.215504
594.30 1.240075
594.40 1.269907
594.50 1.30533
594.60 1.345191
594.70 1.387013
594.80 1.428073
594.90 1.465734
595.00 1.497123
595.10 1.519834
595.20 1.532984
595.30 1.537752
595.40 1.536962
595.50 1.533632
595.60 1.529527
595.70 1.525561
595.80 1.522833
595.90 1.522294
596.00 1.524049
596.10 1.527421
596.20 1.531461
596.30 1.535004
596.40 1.536901
596.50 1.536139
596.60 1.532157
596.70 1.524909
596.80 1.51437
596.90 1.501078
597.00 1.487101
597.10 1.474806
597.20 1.464906
597.30 1.456409
597.40 1.447944
597.50 1.438178
597.60 1.425528
597.70 1.408734
597.80 1.387989
597.90 1.365369
598.00 1.344116
598.10 1.327532
598.20 1.318221
598.30 1.317029
598.40 1.322403
598.50 1.331306
598.60 1.340713
598.70 1.34853
598.80 1.353139
598.90 1.353526
599.00 1.35
599.10 1.344255
599.20 1.338414
599.30 1.334117
599.40 1.332496
599.50 1.33454
599.60 1.341502
599.70 1.354636
599.80 1.37462
599.90 1.400965
600.00 1.028565
600.10 1.266422
600.20 1.588735
600.30 1.944425
600.40 2.263976
600.50 2.483123
600.60 2.567196
600.70 2.529783
600.80 2.395961
600.90 2.19558
601.00 1.97154
601.10 1.77085
601.20 1.627244
601.30 1.551399
601.40 1.528962
601.50 1.527757
601.60 1.524763
601.70 1.514955
601.80 1.518461
601.90 1.558598
602.00 1.635086
602.10 1.715188
602.20 1.767553
602.30 1.775121
602.40 1.729455
602.50 1.639606
602.60 1.525924
602.70 1.40871
602.80 1.304921
602.90 1.239854
603.00 1.23959
603.10 1.297481
603.20 1.372706
603.30 1.430634
603.40 1.465062
603.50 1.494695
603.60 1.53823
603.70 1.595304
603.80 1.663003
603.90 1.73945
604.00 1.811599
604.10 1.866805
604.20 1.904684
604.30 1.921876
604.40 1.903631
604.50 1.855656
604.60 1.798625
604.70 1.755068
604.80 1.758018
604.90 1.821369
605.00 1.940858
605.10 2.11778
605.20 2.337779
605.30 2.566831
605.40 2.761037
605.50 2.87883
605.60 2.89476
605.70 2.806686
605.80 2.638236
605.90 2.420558
606.00 2.199614
606.10 2.015106
606.20 1.869669
606.30 1.759943
606.40 1.689809
606.50 1.657667
606.60 1.65744
606.70 1.692323
606.80 1.777174
606.90 1.909304
607.00 2.058978
607.10 2.194481
607.20 2.299266
607.30 2.360577
607.40 2.368495
607.50 2.324229
607.60 2.245761
607.70 2.172696
607.80 2.139135
607.90 2.157941
608.00 2.23331
608.10 2.346479
608.20 2.465157
608.30 2.57859
608.40 2.69632
608.50 2.801274
608.60 2.845097
608.70 2.80344
608.80 2.68178
608.90 2.498624
609.00 2.279789
609.10 2.05027
609.20 1.831859
609.30 1.646437
609.40 1.505297
609.50 1.404199
609.60 1.343382
609.70 1.32033
609.80 1.313894
609.90 1.318643
610.00 1.359782
610.10 1.44724
610.20 1.547909
610.30 1.630924
610.40 1.687872
610.50 1.716559
610.60 1.726404
610.70 1.734874
610.80 1.760735
610.90 1.815142
611.00 1.880079
611.10 1.921158
611.20 1.92856
611.30 1.926715
611.40 1.940463
611.50 1.985281
611.60 2.084652
611.70 2.240209
611.80 2.422199
611.90 2.586554
612.00 2.685225
612.10 2.67558
612.20 2.535431
612.30 2.290944
612.40 2.010815
612.50 1.772108
612.60 1.628769
612.70 1.585902
612.80 1.625229
612.90 1.73291
613.00 1.886778
613.10 2.055605
613.20 2.203578
613.30 2.302955
613.40 2.361707
613.50 2.419267
613.60 2.497684
613.70 2.571899
613.80 2.607689
613.90 2.591278
614.00 2.52576
614.10 2.433588
614.20 2.340683
614.30 2.245757
614.40 2.14132
614.50 2.03659
614.60 1.944047
614.70 1.877352
614.80 1.830555
614.90 1.780748
615.00 1.716693
615.10 1.660053
615.20 1.64033
615.30 1.66571
615.40 1.728423
615.50 1.803566
615.60 1.859726
615.70 1.879927
615.80 1.861369
615.90 1.815756
616.00 1.77563
616.10 1.762169
616.20 1.784998
616.30 1.856401
616.40 1.971448
616.50 2.091768
616.60 2.173151
616.70 2.205244
616.80 2.19863
616.90 2.161902
617.00 2.099505
617.10 2.034153
617.20 1.988381
617.30 1.958799
617.40 1.924814
617.50 1.869467
617.60 1.792034
617.70 1.698381
617.80 1.609285
617.90 1.558524
618.00 1.575472
618.10 1.658965
618.20 1.779814
618.30 1.914076
618.40 2.054219
618.50 2.186122
618.60 2.289245
618.70 2.35591
618.80 2.394761
618.90 2.419101
619.00 2.416148
619.10 2.362441
619.20 2.255255
619.30 2.121346
619.40 1.994866
619.50 1.892176
619.60 1.823494
619.70 1.797694
619.80 1.811995
619.90 1.854498
620.00 1.905374
620.10 1.939268
620.20 1.94699
620.30 1.928829
620.40 1.908936
620.50 1.927096
620.60 1.997854
620.70 2.110466
620.80 2.23379
620.90 2.333341
621.00 2.384964
621.10 2.365616
621.20 2.252767
621.30 2.041269
621.40 1.764831
621.50 1.479681
621.60 1.219976
621.70 1.019909
621.80 0.9133415
621.90 0.9054896
622.00 0.9846157
622.10 1.120644
622.20 1.291554
622.30 1.491493
622.40 1.70625
622.50 1.90731
622.60 2.065765
622.70 2.171929
622.80 2.216858
622.90 2.199677
623.00 2.147223
623.10 2.078008
623.20 1.987698
623.30 1.881593
623.40 1.779275
623.50 1.707077
623.60 1.690083
623.70 1.733007
623.80 1.822353
623.90 1.944542
624.00 2.084743
624.10 2.21542
624.20 2.307954
624.30 2.333308
624.40 2.270599
624.50 2.132549
624.60 1.964454
624.70 1.812667
624.80 1.710129
624.90 1.678925
625.00 1.718851
625.10 1.822017
625.20 1.976319
625.30 2.158781
625.40 2.34378
625.50 2.509865
625.60 2.661473
625.70 2.808208
625.80 2.934973
625.90 3.019083
626.00 3.041194
626.10 2.983721
626.20 2.840828
626.30 2.623166
626.40 2.357709
626.50 2.085931
626.60 1.862718
626.70 1.73385
626.80 1.717574
626.90 1.801795
627.00 1.940551
627.10 2.094286
627.20 2.245836
627.30 2.386718
627.40 2.508278
627.50 2.597149
627.60 2.653056
627.70 2.68428
627.80 2.685964
627.90 2.65227
628.00 2.587867
628.10 2.508561
628.20 2.445036
628.30 2.421543
628.40 2.438015
628.50 2.474287
628.60 2.498671
628.70 2.480912
628.80 2.408577
628.90 2.30135
629.00 2.185457
629.10 2.084735
629.20 2.033554
629.30 2.063409
629.40 2.171958
629.50 2.320528
629.60 2.432394
629.70 2.453601
629.80 2.399291
629.90 2.307384
630.00 2.228098
630.10 2.209444
630.20 2.276929
630.30 2.429802
630.40 2.65334
630.50 2.91564
630.60 3.169158
630.70 3.361269
630.80 3.469471
630.90 3.503524
631.00 3.504928
631.10 3.511771
631.20 3.530232
631.30 3.555119
631.40 3.568165
631.50 3.554408
631.60 3.512664
631.70 3.449203
631.80 3.360681
631.90 3.250697
632.00 3.136959
632.10 3.04066
632.20 2.970714
632.30 2.934513
632.40 2.952832
632.50 3.036917
632.60 3.160251
632.70 3.287712
632.80 3.400035
632.90 3.478883
633.00 3.515678
633.10 3.512436
633.20 3.481294
633.30 3.432268
633.40 3.374151
633.50 3.318118
633.60 3.273408
633.70 3.256507
633.80 3.282172
633.90 3.354705
634.00 3.472247
634.10 3.618756
634.20 3.768423
634.30 3.895945
634.40 3.973787
634.50 3.993214
634.60 3.972576
634.70 3.939896
634.80 3.917524
634.90 3.925841
635.00 3.985986
635.10 4.104914
635.20 4.256717
635.30 4.400699
635.40 4.511606
635.50 4.566353
635.60 4.528984
635.70 4.383925
635.80 4.169888
635.90 3.914687
636.00 3.623916
636.10 3.327759
636.20 3.086329
636.30 2.945228
636.40 2.905492
636.50 2.956173
636.60 3.08266
636.70 3.25608
636.80 3.433178
636.90 3.578572
637.00 3.687968
637.10 3.761997
637.20 3.767739
637.30 3.695881
637.40 3.582552
637.50 3.474576
637.60 3.400661
637.70 3.370944
637.80 3.385884
637.90 3.434258
638.00 3.522565
638.10 3.65462
638.20 3.821824
638.30 4.014231
638.40 4.213277
638.50 4.392007
638.60 4.531621
638.70 4.632371
638.80 4.697807
638.90 4.7207
639.00 4.686688
639.10 4.599946
639.20 4.490439
639.30 4.382057
639.40 4.274015
639.50 4.175147
639.60 4.108569
639.70 4.086944
639.80 4.110349
639.90 4.183035
640.00 4.300746
640.10 4.43651
640.20 4.561104
640.30 4.644294
640.40 4.666395
640.50 4.624115
640.60 4.525098
640.70 4.384967
640.80 4.222984
640.90 4.057183
641.00 3.898309
641.10 3.758408
641.20 3.658372
641.30 3.610245
641.40 3.619892
641.50 3.696362
641.60 3.838931
641.70 4.040539
641.80 4.278714
641.90 4.504566
642.00 4.66114
642.10 4.708423
642.20 4.636366
642.30 4.468393
642.40 4.260494
642.50 4.072519
642.60 3.94713
642.70 3.915057
642.80 3.986501
642.90 4.135687
643.00 4.314606
643.10 4.468572
643.20 4.554569
643.30 4.567169
643.40 4.523318
643.50 4.448098
643.60 4.369537
643.70 4.299441
643.80 4.230762
643.90 4.166815
644.00 4.119017
644.10 4.080914
644.20 4.037698
644.30 3.992248
644.40 3.955595
644.50 3.937719
644.60 3.949289
644.70 3.994478
644.80 4.077648
644.90 4.192278
645.00 4.313112
645.10 4.413183
645.20 4.478292
645.30 4.494769
645.40 4.449199
645.50 4.347357
645.60 4.216511
645.70 4.083768
645.80 3.974263
645.90 3.907865
646.00 3.896242
646.10 3.940819
646.20 4.034048
646.30 4.17489
646.40 4.365869
646.50 4.601018
646.60 4.847977
646.70 5.059865
646.80 5.204113
646.90 5.269148
647.00 5.256267
647.10 5.183671
647.20 5.077502
647.30 4.963154
647.40 4.86571
647.50 4.806503
647.60 4.795571
647.70 4.816577
647.80 4.837514
647.90 4.832146
648.00 4.789575
648.10 4.720796
648.20 4.646678
648.30 4.586274
648.40 4.559166
648.50 4.57089
648.60 4.61591
648.70 4.691342
648.80 4.786467
648.90 4.883529
649.00 4.961777
649.10 5.016028
649.20 5.051958
649.30 5.074842
649.40 5.096591
649.50 5.117294
649.60 5.125977
649.70 5.10457
649.80 5.045265
649.90 4.965509
650.00 4.882721
650.10 4.812283
650.20 4.781493
650.30 4.807427
650.40 4.890612
650.50 5.013735
650.60 5.148679
650.70 5.270762
650.80 5.363033
650.90 5.433619
651.00 5.496874
651.10 5.562862
651.20 5.634155
651.30 5.70628
651.40 5.780894
651.50 5.858665
651.60 5.927688
651.70 5.971411
651.80 5.982144
651.90 5.960221
652.00 5.916499
652.10 5.871056
652.20 5.845758
652.30 5.846773
652.40 5.868931
652.50 5.918487
652.60 6.012681
652.70 6.158549
652.80 6.344787
652.90 6.54259
653.00 6.706266
653.10 6.803949
653.20 6.82408
653.30 6.7759
653.40 6.6863
653.50 6.583818
653.60 6.493939
653.70 6.434109
653.80 6.424211
653.90 6.486799
654.00 6.628116
654.10 6.8289
654.20 7.060317
654.30 7.299748
654.40 7.534366
654.50 7.741001
654.60 7.893075
654.70 7.97794
654.80 7.995404
654.90 7.94618
655.00 7.827
655.10 7.653032
655.20 7.451969
655.30 7.241861
655.40 7.038307
655.50 6.865737
655.60 6.762985
655.70 6.78422
655.80 6.949792
655.90 7.232598
656.00 7.59258
656.10 7.981973
656.20 8.343639
656.30 8.622326
656.40 8.778918
656.50 8.800103
656.60 8.697922
656.70 8.503751
656.80 8.252178
656.90 7.977117
657.00 7.702646
657.10 7.43182
657.20 7.178115
657.30 6.967255
657.40 6.807452
657.50 6.686161
657.60 6.581526
657.70 6.475457
657.80 6.370776
657.90 6.287334
658.00 6.243554
658.10 6.245505
658.20 6.28689
658.30 6.360396
658.40 6.457637
658.50 6.556567
658.60 6.633677
658.70 6.676051
658.80 6.679599
658.90 6.642769
659.00 6.579869
659.10 6.535687
659.20 6.547747
659.30 6.615355
659.40 6.718864
659.50 6.843556
659.60 6.980456
659.70 7.115742
659.80 7.215595
659.90 7.248481
660.00 7.209677
660.10 7.124576
660.20 7.033201
660.30 6.969511
660.40 6.952358
660.50 6.97775
660.60 7.032061
660.70 7.119682
660.80 7.248418
660.90 7.40074
661.00 7.542154
661.10 7.63377
661.20 7.657414
661.30 7.618788
661.40 7.531937
661.50 7.412191
661.60 7.281873
661.70 7.179716
661.80 7.139185
661.90 7.164007
662.00 7.238173
662.10 7.318101
662.20 7.353633
662.30 7.319141
662.40 7.210924
662.50 7.058768
662.60 6.912148
662.70 6.807829
662.80 6.770809
662.90 6.825315
663.00 6.978435
663.10 7.196797
663.20 7.421519
663.30 7.606908
663.40 7.725999
663.50 7.77297
663.60 7.756538
663.70 7.696575
663.80 7.63071
663.90 7.583254
664.00 7.568584
664.10 7.612187
664.20 7.725898
664.30 7.888657
664.40 8.055541
664.50 8.195201
664.60 8.30095
664.70 8.376314
664.80 8.418368
664.90 8.419497
665.00 8.386105
665.10 8.330356
665.20 8.258328
665.30 8.180011
665.40 8.107404
665.50 8.043175
665.60 7.985287
665.70 7.926843
665.80 7.863196
665.90 7.798987
666.00 7.737667
666.10 7.677588
666.20 7.625999
666.30 7.596399
666.40 7.593255
666.50 7.621038
666.60 7.69347
666.70 7.821597
666.80 7.998167
666.90 8.193323
667.00 8.364444
667.10 8.485295
667.20 8.552316
667.30 8.573105
667.40 8.561391
667.50 8.528533
667.60 8.479654
667.70 8.420251
667.80 8.369185
667.90 8.345857
668.00 8.344586
668.10 8.34527
668.20 8.337794
668.30 8.328578
668.40 8.334663
668.50 8.361161
668.60 8.393826
668.70 8.413486
668.80 8.407927
668.90 8.369328
669.00 8.299755
669.10 8.209622
669.20 8.107715
669.30 8.009653
669.40 7.938775
669.50 7.915279
669.60 7.94883
669.70 8.028934
669.80 8.128134
669.90 8.224611
670.00 8.300265
670.10 8.327937
670.20 8.297908
670.30 8.226734
670.40 8.137385
670.50 8.059614
670.60 8.020626
670.70 8.038213
670.80 8.118328
670.90 8.25814
671.00 8.442004
671.10 8.64367
671.20 8.839663
671.30 9.006199
671.40 9.125082
671.50 9.187732
671.60 9.184982
671.70 9.122225
671.80 9.028782
671.90 8.924772
672.00 8.824192
672.10 8.741396
672.20 8.684863
672.30 8.653949
672.40 8.638594
672.50 8.627768
672.60 8.610708
672.70 8.571641
672.80 8.500488
672.90 8.406114
673.00 8.30412
673.10 8.211832
673.20 8.145128
673.30 8.126508
673.40 8.170722
673.50 8.270205
673.60 8.408319
673.70 8.569701
673.80 8.73903
673.90 8.901654
674.00 9.043454
674.10 9.156195
674.20 9.243144
674.30 9.303424
674.40 9.324404
674.50 9.298374
674.60 9.236814
674.70 9.165944
674.80 9.111308
674.90 9.086231
675.00 9.091781
675.10 9.129132
675.20 9.205415
675.30 9.307885
675.40 9.399063
675.50 9.438948
675.60 9.400239
675.70 9.289245
675.80 9.15192
675.90 9.030438
676.00 8.937032
676.10 8.872348
676.20 8.848959
676.30 8.888892
676.40 9.008575
676.50 9.192906
676.60 9.389649
676.70 9.557881
676.80 9.690129
676.90 9.790145
677.00 9.851016
677.10 9.853809
677.20 9.797477
677.30 9.714309
677.40 9.650573
677.50 9.635279
677.60 9.662445
677.70 9.703131
677.80 9.726451
677.90 9.720055
678.00 9.689242
678.10 9.635429
678.20 9.550411
678.30 9.430513
678.40 9.294992
678.50 9.178503
678.60 9.0911
678.70 9.020351
678.80 8.961454
678.90 8.924366
679.00 8.922182
679.10 8.955119
679.20 9.011701
679.30 9.073786
679.40 9.122399
679.50 9.143615
679.60 9.130959
679.70 9.096444
679.80 9.054694
679.90 9.009607
680.00 8.965613
680.10 8.926358
680.20 8.889325
680.30 8.850244
680.40 8.811621
680.50 8.791544
680.60 8.813212
680.70 8.879846
680.80 8.971855
680.90 9.061234
681.00 9.12637
681.10 9.14957
681.20 9.12905
681.30 9.076937
681.40 9.007417
681.50 8.940697
681.60 8.893798
681.70 8.874458
681.80 8.885151
681.90 8.921617
682.00 8.964867
682.10 9.000315
682.20 9.040051
682.30 9.105915
682.40 9.201
682.50 9.306568
682.60 9.394941
682.70 9.443476
682.80 9.44701
682.90 9.414708
683.00 9.349955
683.10 9.254143
683.20 9.134275
683.30 8.993343
683.40 8.84266
683.50 8.701131
683.60 8.580201
683.70 8.487263
683.80 8.42861
683.90 8.40879
684.00 8.429511
684.10 8.484883
684.20 8.557936
684.30 8.622655
684.40 8.660772
684.50 8.659723
684.60 8.611927
684.70 8.52623
684.80 8.416322
684.90 8.28934
685.00 8.14496
685.10 7.99193
685.20 7.853818
685.30 7.755692
685.40 7.706717
685.50 7.702426
685.60 7.729719
685.70 7.767503
685.80 7.808907
685.90 7.865239
686.00 7.935372
686.10 8.003433
686.20 8.06138
686.30 8.107221
686.40 8.142289
686.50 8.165658
686.60 8.177738
686.70 8.181577
686.80 8.175785
686.90 8.159979
687.00 8.14384
687.10 8.142702
687.20 8.159467
687.30 8.186606
687.40 8.224062
687.50 8.273955
687.60 8.317963
687.70 8.332522
687.80 8.300024
687.90 8.216292
688.00 8.090691
688.10 7.94343
688.20 7.813387
688.30 7.74449
688.40 7.764081
688.50 7.874614
688.60 8.058735
688.70 8.276218
688.80 8.463785
688.90 8.560577
689.00 8.540428
689.10 8.401244
689.20 8.160993
689.30 7.859589
689.40 7.55285
689.50 7.290626
689.60 7.110769
689.70 7.036673
689.80 7.054646
689.90 7.133015
690.00 7.238848
690.10 7.342682
690.20 7.43231
690.30 7.504869
690.40 7.559685
690.50 7.6028
690.60 7.642859
690.70 7.683949
690.80 7.721226
690.90 7.754353
691.00 7.773855
691.10 7.761451
691.20 7.728465
691.30 7.692282
691.40 7.64824
691.50 7.588535
691.60 7.52005
691.70 7.460385
691.80 7.429269
691.90 7.4562
692.00 7.573586
692.10 7.783165
692.20 8.03844
692.30 8.276067
692.40 8.457214
692.50 8.5759
692.60 8.634186
692.70 8.640788
692.80 8.624291
692.90 8.611733
693.00 8.622483
693.10 8.668865
693.20 8.746031
693.30 8.837676
693.40 8.912534
693.50 8.941721
693.60 8.941378
693.70 8.944361
693.80 8.959943
693.90 8.988729
694.00 9.03948
694.10 9.12807
694.20 9.272939
694.30 9.498961
694.40 9.819432
694.50 10.21293
694.60 10.62776
694.70 10.98639
694.80 11.20751
694.90 11.24541
695.00 11.08532
695.10 10.74846
695.20 10.31087
695.30 9.865147
695.40 9.48817
695.50 9.240012
695.60 9.147198
695.70 9.194126
695.80 9.336227
695.90 9.520541
696.00 9.697207
696.10 9.838972
696.20 9.955958
696.30 10.07211
696.40 10.20653
696.50 10.35879
696.60 10.50259
696.70 10.60894
696.80 10.65581
696.90 10.63165
697.00 10.55305
697.10 10.44304
697.20 10.31121
697.30 10.17869
697.40 10.07813
697.50 10.02592
697.60 10.01377
697.70 10.01767
697.80 10.01003
697.90 9.977847
698.00 9.923699
698.10 9.862182
698.20 9.820467
698.30 9.813913
698.40 9.837153
698.50 9.887323
698.60 9.968476
698.70 10.06684
698.80 10.15063
698.90 10.19632
699.00 10.18698
699.10 10.11241
699.20 9.988877
699.30 9.857109
699.40 9.757064
699.50 9.709172
699.60 9.71622
699.70 9.779376
699.80 9.892824
699.90 10.03044
700.00 10.16339
700.10 10.27464
700.20 10.36285
700.30 10.43484
700.40 10.50139
700.50 10.58114
700.60 10.68136
700.70 10.7876
700.80 10.88208
700.90 10.95155
701.00 10.98656
701.10 10.98551
701.20 10.94939
701.30 10.89381
701.40 10.85043
701.50 10.84026
701.60 10.87454
701.70 10.95846
701.80 11.09167
701.90 11.26654
702.00 11.46158
702.10 11.64673
702.20 11.79358
702.30 11.89111
702.40 11.94643
702.50 11.96964
702.60 11.98591
702.70 12.0284
702.80 12.10124
702.90 12.20382
703.00 12.33966
703.10 12.50247
703.20 12.67769
703.30 12.8416
703.40 12.97845
703.50 13.09547
703.60 13.22164
703.70 13.38407
703.80 13.58991
703.90 13.83362
704.00 14.09107
704.10 14.31875
704.20 14.48367
704.30 14.5708
704.40 14.58338
704.50 14.54075
704.60 14.46552
704.70 14.38204
704.80 14.31085
704.90 14.25527
705.00 14.19998
705.10 14.11838
705.20 13.98703
705.30 13.7914
705.40 13.53875
705.50 13.26485
705.60 13.01487
705.70 12.82317
705.80 12.70142
705.90 12.64072
706.00 12.62633
706.10 12.65344
706.20 12.71729
706.30 12.80173
706.40 12.88174
706.50 12.93584
706.60 12.9605
706.70 12.97921
706.80 13.01032
706.90 13.05209
707.00 13.10169
707.10 13.15197
707.20 13.1925
707.30 13.22186
707.40 13.25122
707.50 13.27773
707.60 13.29021
707.70 13.28095
707.80 13.24049
707.90 13.16603
708.00 13.06772
708.10 12.95229
708.20 12.81652
708.30 12.66005
708.40 12.48512
708.50 12.31133
708.60 12.17324
708.70 12.09298
708.80 12.06533
708.90 12.07864
709.00 12.121
709.10 12.18334
709.20 12.26571
709.30 12.36014
709.40 12.44626
709.50 12.498
709.60 12.50184
709.70 12.47268
709.80 12.44806
709.90 12.46224
710.00 12.52511
710.10 12.62647
710.20 12.75508
710.30 12.89772
710.40 13.03972
710.50 13.16903
710.60 13.26861
710.70 13.32432
710.80 13.32389
710.90 13.27939
711.00 13.2318
711.10 13.20245
711.20 13.18635
711.30 13.1806
711.40 13.18996
711.50 13.22256
711.60 13.28344
711.70 13.37235
711.80 13.47853
711.90 13.58281
712.00 13.6742
712.10 13.7527
712.20 13.81513
712.30 13.83852
712.40 13.81253
712.50 13.75569
712.60 13.68514
712.70 13.60878
712.80 13.54079
712.90 13.49455
713.00 13.46969
713.10 13.45811
713.20 13.45429
713.30 13.45461
713.40 13.44896
713.50 13.42229
713.60 13.37416
713.70 13.32159
713.80 13.27161
713.90 13.22628
714.00 13.20232
714.10 13.21975
714.20 13.27955
714.30 13.3718
714.40 13.4898
714.50 13.62131
714.60 13.7452
714.70 13.84569
714.80 13.92125
714.90 13.98282
715.00 14.03793
715.10 14.08738
715.20 14.14001
715.30 14.20181
715.40 14.2608
715.50 14.30195
715.60 14.31813
715.70 14.30736
715.80 14.27862
715.90 14.24896
716.00 14.23249
716.10 14.23706
716.20 14.27387
716.30 14.35352
716.40 14.48028
716.50 14.64151
716.60 14.79597
716.70 14.90664
716.80 14.96818
716.90 14.99696
717.00 15.01155
717.10 15.02379
717.20 15.03906
717.30 15.05226
717.40 15.05833
717.50 15.05838
717.60 15.03952
717.70 14.98193
717.80 14.88662
717.90 14.78438
718.00 14.71842
718.10 14.71861
718.20 14.78536
718.30 14.89032
718.40 15.00579
718.50 15.11998
718.60 15.22588
718.70 15.31972
718.80 15.40368
718.90 15.48135
719.00 15.56091
719.10 15.6474
719.20 15.73268
719.30 15.79488
719.40 15.80877
719.50 15.77743
719.60 15.72942
719.70 15.69109
719.80 15.68343
719.90 15.72227
720.00 15.81485
720.10 15.95142
720.20 16.10195
720.30 16.22902
720.40 16.3049
720.50 16.32443
720.60 16.2956
720.70 16.23679
720.80 16.18354
720.90 16.15507
721.00 16.14734
721.10 16.16198
721.20 16.20837
721.30 16.28397
721.40 16.37018
721.50 16.45134
721.60 16.52515
721.70 16.59562
721.80 16.6636
721.90 16.72385
722.00 16.77465
722.10 16.82068
722.20 16.85559
722.30 16.86796
722.40 16.86624
722.50 16.8717
722.60 16.89815
722.70 16.95499
722.80 17.05034
722.90 17.18405
723.00 17.3358
723.10 17.47601
723.20 17.58796
723.30 17.66182
723.40 17.70497
723.50 17.75426
723.60 17.85353
723.70 18.02739
723.80 18.24756
723.90 18.46091
724.00 18.65798
724.10 18.83318
724.20 18.94879
724.30 18.97299
724.40 18.91282
724.50 18.79676
724.60 18.6452
724.70 18.49177
724.80 18.37291
724.90 18.29847
725.00 18.26195
725.10 18.26251
725.20 18.32794
725.30 18.47543
725.40 18.65872
725.50 18.83178
725.60 18.98464
725.70 19.12705
725.80 19.26576
725.90 19.3937
726.00 19.49912
726.10 19.56321
726.20 19.56868
726.30 19.50654
726.40 19.38757
726.50 19.23452
726.60 19.07277
726.70 18.93424
726.80 18.85065
726.90 18.85196
727.00 18.96309
727.10 19.17865
727.20 19.47753
727.30 19.81701
727.40 20.12651
727.50 20.34154
727.60 20.4275
727.70 20.3848
727.80 20.25221
727.90 20.10742
728.00 20.02269
728.10 20.0371
728.20 20.15689
728.30 20.33742
728.40 20.50786
728.50 20.60854
728.60 20.58582
728.70 20.42343
728.80 20.16607
728.90 19.88983
729.00 19.67588
729.10 19.59787
729.20 19.68552
729.30 19.89844
729.40 20.17508
729.50 20.46054
729.60 20.69868
729.70 20.86562
729.80 20.96434
729.90 21.00266
730.00 21.00147
730.10 20.98326
730.20 20.97437
730.30 20.99653
730.40 21.04655
730.50 21.12514
730.60 21.25224
730.70 21.443
730.80 21.6959
730.90 22.00249
731.00 22.34958
731.10 22.71733
731.20 23.09341
731.30 23.44542
731.40 23.70788
731.50 23.8495
731.60 23.87747
731.70 23.81711
731.80 23.71329
731.90 23.59382
732.00 23.46559
732.10 23.33953
732.20 23.23646
732.30 23.18813
732.40 23.22418
732.50 23.3275
732.60 23.41254
732.70 23.40561
732.80 23.28977
732.90 23.07803
733.00 22.80538
733.10 22.51896
733.20 22.27671
733.30 22.14985
733.40 22.21389
733.50 22.52428
733.60 23.08547
733.70 23.81031
733.80 24.55513
733.90 25.19019
734.00 25.62621
734.10 25.80973
734.20 25.72626
734.30 25.40826
734.40 24.91132
734.50 24.31922
734.60 23.73852
734.70 23.25237
734.80 22.89217
734.90 22.65758
735.00 22.53337
735.10 22.51254
735.20 22.58094
735.30 22.69709
735.40 22.8378
735.50 22.99752
735.60 23.15605
735.70 23.27914
735.80 23.355
735.90 23.38225
736.00 23.36478
736.10 23.33878
736.20 23.35577
736.30 23.44404
736.40 23.62039
736.50 23.87853
736.60 24.16941
736.70 24.45181
736.80 24.68047
736.90 24.79533
737.00 24.76624
737.10 24.60269
737.20 24.3313
737.30 23.98962
737.40 23.61822
737.50 23.25266
737.60 22.93377
737.70 22.71028
737.80 22.59235
737.90 22.55867
738.00 22.59911
738.10 22.68794
738.20 22.79015
738.30 22.88254
738.40 22.95822
738.50 23.01519
738.60 23.06591
738.70 23.15191
738.80 23.29393
738.90 23.46463
739.00 23.61733
739.10 23.69993
739.20 23.65855
739.30 23.46677
739.40 23.14092
739.50 22.74407
739.60 22.36859
739.70 22.10454
739.80 22.0096
739.90 22.09425
740.00 22.3255
740.10 22.62269
740.20 22.89291
740.30 23.07878
740.40 23.15563
740.50 23.12539
740.60 23.02066
740.70 22.87575
740.80 22.72319
740.90 22.59003
741.00 22.47833
741.10 22.38477
741.20 22.31931
741.30 22.29162
741.40 22.29174
741.50 22.30707
741.60 22.32988
741.70 22.34915
741.80 22.34839
741.90 22.31354
742.00 22.23845
742.10 22.1318
742.20 22.01647
742.30 21.91415
742.40 21.85461
742.50 21.86957
742.60 21.95633
742.70 22.0891
742.80 22.2454
742.90 22.39229
743.00 22.49444
743.10 22.52902
743.20 22.48779
743.30 22.37151
743.40 22.19432
743.50 21.99597
743.60 21.83599
743.70 21.76286
743.80 21.78406
743.90 21.87601
744.00 22.00346
744.10 22.11904
744.20 22.16027
744.30 22.08296
744.40 21.88081
744.50 21.5725
744.60 21.19903
744.70 20.82698
744.80 20.53681
744.90 20.38854
745.00 20.3883
745.10 20.4969
745.20 20.65963
745.30 20.80623
745.40 20.87677
745.50 20.85885
745.60 20.77221
745.70 20.65017
745.80 20.53956
745.90 20.49237
746.00 20.54392
746.10 20.6978
746.20 20.92264
746.30 21.16126
746.40 21.3576
746.50 21.48612
746.60 21.55423
746.70 21.59464
746.80 21.63795
746.90 21.68559
747.00 21.74036
747.10 21.81105
747.20 21.88645
747.30 21.94381
747.40 21.96798
747.50 21.94384
747.60 21.87793
747.70 21.82138
747.80 21.83227
747.90 21.93542
748.00 22.12848
748.10 22.38941
748.20 22.66082
748.30 22.86835
748.40 22.96375
748.50 22.94118
748.60 22.81473
748.70 22.605
748.80 22.34052
748.90 22.07382
749.00 21.86465
749.10 21.73485
749.20 21.6762
749.30 21.66921
749.40 21.68004
749.50 21.6772
749.60 21.668
749.70 21.68538
749.80 21.73703
749.90 21.81183
750.00 21.91441
750.10 22.04899
750.20 22.20125
750.30 22.34895
750.40 22.46713
750.50 22.53742
750.60 22.55355
750.70 22.51774
750.80 22.44584
750.90 22.36431
751.00 22.28996
751.10 22.24014
751.20 22.25074
751.30 22.33398
751.40 22.46264
751.50 22.59194
751.60 22.68206
751.70 22.72559
751.80 22.74313
751.90 22.76958
752.00 22.82799
752.10 22.91356
752.20 23.01645
752.30 23.12921
752.40 23.2467
752.50 23.35167
752.60 23.4094
752.70 23.39251
752.80 23.29457
752.90 23.13456
753.00 22.9499
753.10 22.77566
753.20 22.63339
753.30 22.52972
753.40 22.46719
753.50 22.46243
753.60 22.5177
753.70 22.60212
753.80 22.67835
753.90 22.72646
754.00 22.73724
754.10 22.71341
754.20 22.67194
754.30 22.62741
754.40 22.58296
754.50 22.52458
754.60 22.43606
754.70 22.31144
754.80 22.16083
754.90 22.01435
755.00 21.90987
755.10 21.88627
755.20 21.96443
755.30 22.12206
755.40 22.30936
755.50 22.48558
755.60 22.62174
755.70 22.7034
755.80 22.73974
755.90 22.74764
756.00 22.73435
756.10 22.70047
756.20 22.64502
756.30 22.56502
756.40 22.45152
756.50 22.31393
756.60 22.20216
756.70 22.16215
756.80 22.20808
756.90 22.32504
757.00 22.48945
757.10 22.66046
757.20 22.7815
757.30 22.82192
757.40 22.7836
757.50 22.69422
757.60 22.59366
757.70 22.52152
757.80 22.51688
757.90 22.58651
758.00 22.69379
758.10 22.79828
758.20 22.86217
758.30 22.84441
758.40 22.7072
758.50 22.43832
758.60 22.05361
758.70 21.58425
758.80 21.06767
758.90 20.53668
759.00 20.02995
759.10 19.58951
759.20 19.25245
759.30 19.05152
759.40 18.98909
759.50 19.03451
759.60 19.15795
759.70 19.33019
759.80 19.5213
759.90 19.70495
760.00 19.8339
760.10 19.86092
760.20 19.7804
760.30 19.61651
760.40 19.41202
760.50 19.2133
760.60 19.04217
760.70 18.8831
760.80 18.70848
760.90 18.51783
761.00 18.33075
761.10 18.17181
761.20 18.05486
761.30 17.98624
761.40 17.98894
761.50 18.06476
761.60 18.18313
761.70 18.31175
761.80 18.39405
761.90 18.36194
762.00 18.19224
762.10 17.91259
762.20 17.5794
762.30 17.2468
762.40 16.93983
762.50 16.65004
762.60 16.34739
762.70 16.00711
762.80 15.61833
762.90 15.19059
763.00 14.74559
763.10 14.30833
763.20 13.89958
763.30 13.53387
763.40 13.21859
763.50 12.95083
763.60 12.73046
763.70 12.53956
763.80 12.34026
763.90 12.09914
764.00 11.8026
764.10 11.45313
764.20 11.06693
764.30 10.66769
764.40 10.26942
764.50 9.872181
764.60 9.485976
764.70 9.137929
764.80 8.832084
764.90 8.545526
765.00 8.248447
765.10 7.91909
765.20 7.550805
765.30 7.145389
765.40 6.708925
765.50 6.252054
765.60 5.788292
765.70 5.336375
765.80 4.917336
765.90 4.540225
766.00 4.213168
766.10 3.934716
766.20 3.697688
766.30 3.504733
766.40 3.34843
766.50 3.22892
766.60 3.165961
766.70 3.181799
766.80 3.291333
766.90 3.4946
767.00 3.77739
767.10 4.114133
767.20 4.477466
767.30 4.85265
767.40 5.226357
767.50 5.57963
767.60 5.903167
767.70 6.195981
767.80 6.467151
767.90 6.73348
768.00 7.009907
768.10 7.29899
768.20 7.58705
768.30 7.85203
768.40 8.062863
768.50 8.185304
768.60 8.198073
768.70 8.107046
768.80 7.941439
768.90 7.738322
769.00 7.521345
769.10 7.290579
769.20 7.038184
769.30 6.755772
769.40 6.438405
769.50 6.08914
769.60 5.717018
769.70 5.336734
769.80 4.978256
769.90 4.683876
770.00 4.489089
770.10 4.405627
770.20 4.42298
770.30 4.53099
770.40 4.720257
770.50 4.984033
770.60 5.334458
770.70 5.808108
770.80 6.418644
770.90 7.126042
771.00 7.885984
771.10 8.65945
771.20 9.399713
771.30 10.03444
771.40 10.48628
771.50 10.71495
771.60 10.72479
771.70 10.56904
771.80 10.35978
771.90 10.24499
772.00 10.33268
772.10 10.64442
772.20 11.15439
772.30 11.84228
772.40 12.65028
772.50 13.47336
772.60 14.19483
772.70 14.74635
772.80 15.12701
772.90 15.36193
773.00 15.49287
773.10 15.56454
773.20 15.60684
773.30 15.64743
773.40 15.7147
773.50 15.83118
773.60 16.00477
773.70 16.21869
773.80 16.45273
773.90 16.69249
774.00 16.93181
774.10 17.16708
774.20 17.3792
774.30 17.55129
774.40 17.69339
774.50 17.8294
774.60 17.97554
774.70 18.14669
774.80 18.34632
774.90 18.55615
775.00 18.75894
775.10 18.91834
775.20 19.0028
775.30 19.02038
775.40 18.99788
775.50 18.96193
775.60 18.93986
775.70 18.95605
775.80 19.00771
775.90 19.06727
776.00 19.11999
776.10 19.15335
776.20 19.15478
776.30 19.13077
776.40 19.09753
776.50 19.10355
776.60 19.19833
776.70 19.39699
776.80 19.69355
776.90 20.06393
777.00 20.467
777.10 20.84543
777.20 21.13497
777.30 21.29189
777.40 21.28731
777.50 21.11408
777.60 20.83581
777.70 20.54724
777.80 20.32515
777.90 20.22915
778.00 20.27273
778.10 20.41654
778.20 20.59715
778.30 20.75235
778.40 20.83751
778.50 20.8381
778.60 20.77893
778.70 20.71948
778.80 20.74073
778.90 20.9071
779.00 21.20672
779.10 21.57188
779.20 21.91056
779.30 22.11576
779.40 22.08508
779.50 21.73979
779.60 21.03232
779.70 19.97583
779.80 18.68201
779.90 17.33946
780.00 16.17702
780.10 15.39979
780.20 15.14451
780.30 15.45751
780.40 16.28228
780.50 17.47019
780.60 18.81703
780.70 20.08566
780.80 21.08465
780.90 21.72124
781.00 22.00725
781.10 22.03911
781.20 21.93708
781.30 21.82956
781.40 21.82487
781.50 21.99644
781.60 22.36527
781.70 22.87123
781.80 23.40943
781.90 23.88616
782.00 24.24326
782.10 24.4477
782.20 24.47872
782.30 24.35439
782.40 24.11709
782.50 23.80881
782.60 23.47388
782.70 23.14928
782.80 22.87015
782.90 22.65441
783.00 22.49424
783.10 22.40947
783.20 22.44771
783.30 22.6198
783.40 22.87205
783.50 23.16531
783.60 23.49671
783.70 23.85123
783.80 24.20944
783.90 24.55981
784.00 24.91422
784.10 25.28942
784.20 25.68292
784.30 26.08748
784.40 26.49319
784.50 26.85659
784.60 27.08838
784.70 27.13794
784.80 27.06433
784.90 26.95494
785.00 26.82078
785.10 26.65116
785.20 26.48289
785.30 26.37338
785.40 26.34471
785.50 26.37972
785.60 26.46574
785.70 26.58872
785.80 26.7327
785.90 26.88385
786.00 27.04467
786.10 27.2076
786.20 27.30032
786.30 27.24205
786.40 27.06968
786.50 26.88085
786.60 26.73345
786.70 26.63334
786.80 26.55848
786.90 26.49015
787.00 26.37922
787.10 26.1717
787.20 25.85594
787.30 25.46868
787.40 25.08066
787.50 24.77118
787.60 24.62626
787.70 24.72714
787.80 25.08082
787.90 25.61938
788.00 26.23618
788.10 26.81139
788.20 27.25693
788.30 27.52569
788.40 27.6409
788.50 27.66494
788.60 27.62576
788.70 27.55166
788.80 27.4897
788.90 27.48472
789.00 27.5568
789.10 27.66713
789.20 27.76322
789.30 27.80343
789.40 27.77084
789.50 27.67005
789.60 27.49935
789.70 27.26172
789.80 26.95717
789.90 26.59966
790.00 26.25017
790.10 25.97542
790.20 25.81105
790.30 25.76321
790.40 25.82262
790.50 25.98276
790.60 26.2126
790.70 26.44728
790.80 26.63557
790.90 26.78262
791.00 26.91248
791.10 27.05001
791.20 27.18167
791.30 27.28295
791.40 27.35002
791.50 27.36737
791.60 27.34002
791.70 27.27309
791.80 27.16097
791.90 27.01021
792.00 26.84496
792.10 26.70128
792.20 26.58604
792.30 26.46919
792.40 26.329
792.50 26.1643
792.60 26.02811
792.70 25.99312
792.80 26.11227
792.90 26.42191
793.00 26.91239
793.10 27.54459
793.20 28.25817
793.30 28.95518
793.40 29.5192
793.50 29.85296
793.60 29.90465
793.70 29.68493
793.80 29.25515
793.90 28.69079
794.00 28.05829
794.10 27.4091
794.20 26.758
794.30 26.08126
794.40 25.34057
794.50 24.5295
794.60 23.69653
794.70 22.94082
794.80 22.39453
794.90 22.19038
795.00 22.42146
795.10 23.09241
795.20 24.11296
795.30 25.33549
795.40 26.59437
795.50 27.71235
795.60 28.54972
795.70 29.0517
795.80 29.26208
795.90 29.31131
796.00 29.30526
796.10 29.27722
796.20 29.26363
796.30 29.31171
796.40 29.43088
796.50 29.59074
796.60 29.75037
796.70 29.87943
796.80 29.95929
796.90 29.99072
797.00 29.98251
797.10 29.95369
797.20 29.90546
797.30 29.80267
797.40 29.66532
797.50 29.57524
797.60 29.57323
797.70 29.63079
797.80 29.71578
797.90 29.81136
798.00 29.89871
798.10 29.9485
798.20 29.92443
798.30 29.8116
798.40 29.62508
798.50 29.39655
798.60 29.17532
798.70 29.03297
798.80 29.0068
798.90 29.07171
799.00 29.20947
799.10 29.42405
799.20 29.68753
799.30 29.96215
799.40 30.20761
799.50 30.38991
799.60 30.51058
799.70 30.58739
799.80 30.65733
799.90 30.75466
800.00 30.89719
800.10 31.07685
800.20 31.27577
800.30 31.48863
800.40 31.67518
800.50 31.79351
800.60 31.83685
800.70 31.81002
800.80 31.75429
800.90 31.73844
801.00 31.81936
801.10 32.03013
801.20 32.34468
801.30 32.69137
801.40 33.00144
801.50 33.21668
801.60 33.29717
801.70 33.24498
801.80 33.10768
801.90 32.93575
802.00 32.79086
802.10 32.74754
802.20 32.84602
802.30 33.11183
802.40 33.55658
802.50 34.14378
802.60 34.8225
802.70 35.53248
802.80 36.18932
802.90 36.72435
803.00 37.10793
803.10 37.32692
803.20 37.3725
803.30 37.25352
803.40 36.99541
803.50 36.64808
803.60 36.29047
803.70 35.98126
803.80 35.74356
803.90 35.59435
804.00 35.55723
804.10 35.66774
804.20 35.9285
804.30 36.27974
804.40 36.62908
804.50 36.90627
804.60 37.07939
804.70 37.17201
804.80 37.28239
804.90 37.51551
805.00 37.92651
805.10 38.51901
805.20 39.25568
805.30 40.07592
805.40 40.88462
805.50 41.56868
805.60 42.06005
805.70 42.3171
805.80 42.33726
805.90 42.18809
806.00 41.97127
806.10 41.76625
806.20 41.58234
806.30 41.4064
806.40 41.25712
806.50 41.16292
806.60 41.14719
806.70 41.2218
806.80 41.39059
806.90 41.65319
807.00 41.98343
807.10 42.37487
807.20 42.85223
807.30 43.40457
807.40 43.97943
807.50 44.52265
807.60 44.99025
807.70 45.35662
807.80 45.61758
807.90 45.80433
808.00 45.96952
808.10 46.15479
808.20 46.37505
808.30 46.61714
808.40 46.86287
808.50 47.06926
808.60 47.16007
808.70 47.08385
808.80 46.84662
808.90 46.50178
809.00 46.13652
809.10 45.83122
809.20 45.64292
809.30 45.59516
809.40 45.65669
809.50 45.76744
809.60 45.87023
809.70 45.92097
809.80 45.911
809.90 45.88118
810.00 45.89685
810.10 46.00026
810.20 46.21156
810.30 46.53006
810.40 46.92592
810.50 47.34962
810.60 47.73571
810.70 48.02137
810.80 48.18174
810.90 48.24694
811.00 48.27827
811.10 48.32785
811.20 48.41627
811.30 48.55448
811.40 48.75803
811.50 49.05226
811.60 49.46504
811.70 49.99392
811.80 50.57739
811.90 51.11695
812.00 51.52189
812.10 51.7257
812.20 51.73043
812.30 51.59254
812.40 51.39706
812.50 51.26365
812.60 51.30023
812.70 51.55551
812.80 52.00133
812.90 52.55185
813.00 53.08765
813.10 53.49714
813.20 53.74393
813.30 53.89422
813.40 54.06335
813.50 54.35384
813.60 54.79341
813.70 55.31625
813.80 55.79817
813.90 56.08201
814.00 56.03353
814.10 55.60667
814.20 54.85507
814.30 53.91961
814.40 52.95665
814.50 52.10275
814.60 51.49318
814.70 51.21414
814.80 51.26097
814.90 51.54748
815.00 51.96623
815.10 52.43692
815.20 52.91613
815.30 53.39131
815.40 53.86313
815.50 54.31585
815.60 54.7228
815.70 55.03821
815.80 55.23927
815.90 55.36473
816.00 55.47618
816.10 55.62923
816.20 55.86799
816.30 56.19336
816.40 56.55867
816.50 56.92271
816.60 57.26747
816.70 57.58231
816.80 57.85778
816.90 58.11298
817.00 58.38056
817.10 58.70304
817.20 59.11506
817.30 59.59262
817.40 60.02445
817.50 60.23964
817.60 60.07947
817.70 59.47177
817.80 58.4048
817.90 56.87687
818.00 54.92192
818.10 52.66679
818.20 50.34279
818.30 48.2477
818.40 46.67755
818.50 45.82545
818.60 45.74245
818.70 46.32875
818.80 47.3562
818.90 48.49119
819.00 49.35457
819.10 49.62956
819.20 49.1674
819.30 48.03422
819.40 46.47555
819.50 44.85891
819.60 43.57441
819.70 42.90943
819.80 42.99414
819.90 43.83983
820.00 45.34999
820.10 47.30729
820.20 49.41698
820.30 51.39421
820.40 53.04698
820.50 54.30101
820.60 55.17148
820.70 55.72622
820.80 56.07031
820.90 56.30448
821.00 56.47858
821.10 56.60076
821.20 56.68846
821.30 56.75131
821.40 56.7707
821.50 56.73464
821.60 56.66916
821.70 56.64965
821.80 56.74284
821.90 56.97725
822.00 57.33598
822.10 57.75749
822.20 58.1625
822.30 58.48893
822.40 58.74973
822.50 59.00343
822.60 59.28522
822.70 59.58705
822.80 59.89779
822.90 60.22884
823.00 60.56445
823.10 60.85775
823.20 61.05857
823.30 61.13964
823.40 61.13001
823.50 61.10572
823.60 61.13867
823.70 61.26657
823.80 61.48205
823.90 61.74578
824.00 62.0189
824.10 62.29528
824.20 62.57662
824.30 62.87757
824.40 63.24968
824.50 63.74294
824.60 64.37401
824.70 65.06288
824.80 65.64575
824.90 65.96234
825.00 65.93049
825.10 65.55142
825.20 64.87615
825.30 64.01141
825.40 63.11908
825.50 62.36951
825.60 61.91936
825.70 61.85534
825.80 62.13446
825.90 62.6199
826.00 63.15836
826.10 63.64814
826.20 64.04487
826.30 64.3317
826.40 64.49548
826.50 64.54256
826.60 64.53073
826.70 64.5315
826.80 64.56745
826.90 64.61142
827.00 64.59926
827.10 64.49254
827.20 64.33047
827.30 64.20318
827.40 64.19326
827.50 64.34388
827.60 64.65465
827.70 65.06715
827.80 65.48168
827.90 65.78816
828.00 65.88281
828.10 65.72703
828.20 65.3351
828.30 64.76494
828.40 64.14847
828.50 63.61136
828.60 63.20226
828.70 62.89216
828.80 62.61087
828.90 62.28807
829.00 61.88948
829.10 61.43796
829.20 61.00053
829.30 60.6447
829.40 60.43151
829.50 60.38351
829.60 60.48931
829.70 60.71253
829.80 60.9474
829.90 61.04405
830.00 60.91007
830.10 60.54073
830.20 59.98663
830.30 59.34455
830.40 58.70625
830.50 58.14624
830.60 57.73497
830.70 57.53565
830.80 57.57417
830.90 57.82435
831.00 58.24402
831.10 58.76838
831.20 59.31203
831.30 59.82418
831.40 60.284
831.50 60.677
831.60 60.9977
831.70 61.26244
831.80 61.51571
831.90 61.7912
832.00 62.0794
832.10 62.3555
832.20 62.5795
832.30 62.6957
832.40 62.64773
832.50 62.42592
832.60 62.08784
832.70 61.71941
832.80 61.41143
832.90 61.24745
833.00 61.29206
833.10 61.5402
833.20 61.90933
833.30 62.30567
833.40 62.65912
833.50 62.92628
833.60 63.11516
833.70 63.27815
833.80 63.46587
833.90 63.67151
834.00 63.83712
834.10 63.91579
834.20 63.97434
834.30 64.11847
834.40 64.36899
834.50 64.70234
834.60 65.08231
834.70 65.46203
834.80 65.76982
834.90 65.91806
835.00 65.8222
835.10 65.45225
835.20 64.8775
835.30 64.24495
835.40 63.72207
835.50 63.4395
835.60 63.38246
835.70 63.4356
835.80 63.52921
835.90 63.64574
836.00 63.78833
836.10 63.97077
836.20 64.21643
836.30 64.55541
836.40 65.02403
836.50 65.61708
836.60 66.26794
836.70 66.88857
836.80 67.40161
836.90 67.72945
837.00 67.78554
837.10 67.53335
837.20 66.99695
837.30 66.23671
837.40 65.36419
837.50 64.52712
837.60 63.87792
837.70 63.55503
837.80 63.62157
837.90 64.02736
838.00 64.64558
838.10 65.30721
838.20 65.83642
838.30 66.08234
838.40 65.94401
838.50 65.39806
838.60 64.52267
838.70 63.47158
838.80 62.41832
838.90 61.53061
839.00 60.94101
839.10 60.69281
839.20 60.77997
839.30 61.20468
839.40 61.91133
839.50 62.80006
839.60 63.83605
839.70 65.00828
839.80 66.27808
839.90 67.59265
840.00 68.8236
840.10 69.79294
840.20 70.39067
840.30 70.59172
840.40 70.46426
840.50 70.14357
840.60 69.75034
840.70 69.36446
840.80 69.04396
840.90 68.84671
841.00 68.75691
841.10 68.70892
841.20 68.67648
841.30 68.65156
841.40 68.66737
841.50 68.7847
841.60 68.99378
841.70 69.21167
841.80 69.32889
841.90 69.25537
842.00 68.95479
842.10 68.47085
842.20 67.912
842.30 67.3791
842.40 66.94524
842.50 66.63525
842.60 66.42543
842.70 66.35935
842.80 66.48547
842.90 66.75639
843.00 67.07625
843.10 67.28782
843.20 67.19213
843.30 66.6388
843.40 65.59755
843.50 64.13193
843.60 62.39558
843.70 60.59434
843.80 58.92721
843.90 57.59213
844.00 56.71891
844.10 56.21982
844.20 55.88307
844.30 55.55262
844.40 55.14132
844.50 54.65557
844.60 54.16533
844.70 53.73093
844.80 53.30075
844.90 52.77361
845.00 52.14887
845.10 51.51479
845.20 50.96402
845.30 50.5422
845.40 50.24987
845.50 50.07847
845.60 50.04247
845.70 50.13247
845.80 50.29211
845.90 50.44239
846.00 50.53635
846.10 50.58188
846.20 50.63854
846.30 50.76382
846.40 50.98158
846.50 51.28172
846.60 51.60006
846.70 51.87257
846.80 52.06289
846.90 52.161
847.00 52.16072
847.10 52.07125
847.20 51.92715
847.30 51.77058
847.40 51.61485
847.50 51.44192
847.60 51.29395
847.70 51.24532
847.80 51.25803
847.90 51.2109
848.00 51.02717
848.10 50.69188
848.20 50.2711
848.30 49.87186
848.40 49.56861
848.50 49.40225
848.60 49.39852
848.70 49.58338
848.80 49.96382
848.90 50.53256
849.00 51.24776
849.10 52.03163
849.20 52.82935
849.30 53.60126
849.40 54.28206
849.50 54.77644
849.60 54.97898
849.70 54.85013
849.80 54.45641
849.90 53.93996
850.00 53.44977
850.10 53.09174
850.20 52.95202
850.30 53.06816
850.40 53.42734
850.50 53.97718
850.60 54.59621
850.70 55.1487
850.80 55.55067
850.90 55.77931
851.00 55.84059
851.10 55.73028
851.20 55.43449
851.30 54.95243
851.40 54.31579
851.50 53.56958
851.60 52.71994
851.70 51.71629
851.80 50.48753
851.90 49.01472
852.00 47.39932
852.10 45.87582
852.20 44.72526
852.30 44.17596
852.40 44.35633
852.50 45.26954
852.60 46.79631
852.70 48.70752
852.80 50.70339
852.90 52.49445
853.00 53.87129
853.10 54.78341
853.20 55.29308
853.30 55.47123
853.40 55.39463
853.50 55.13337
853.60 54.78055
853.70 54.4757
853.80 54.33097
853.90 54.38486
854.00 54.63829
854.10 55.06363
854.20 55.58865
854.30 56.09688
854.40 56.49569
854.50 56.74745
854.60 56.90678
854.70 57.13325
854.80 57.575
854.90 58.28703
855.00 59.21228
855.10 60.19764
855.20 61.08822
855.30 61.78589
855.40 62.22129
855.50 62.35796
855.60 62.22126
855.70 61.90659
855.80 61.53372
855.90 61.19135
856.00 60.88957
856.10 60.59758
856.20 60.30833
856.30 60.04603
856.40 59.85176
856.50 59.76548
856.60 59.8002
856.70 59.94258
856.80 60.15326
856.90 60.35495
857.00 60.47811
857.10 60.48649
857.20 60.36237
857.30 60.11229
857.40 59.79331
857.50 59.49442
857.60 59.29963
857.70 59.25995
857.80 59.36865
857.90 59.58782
858.00 59.88317
858.10 60.21332
858.20 60.53784
858.30 60.84482
858.40 61.15506
858.50 61.47551
858.60 61.77805
858.70 62.01138
858.80 62.12814
858.90 62.08914
859.00 61.87085
859.10 61.51761
859.20 61.14784
859.30 60.88177
859.40 60.81189
859.50 60.98355
859.60 61.34948
859.70 61.8252
859.80 62.30674
859.90 62.68263
860.00 62.88061
860.10 62.88882
860.20 62.74075
860.30 62.51338
860.40 62.30147
860.50 62.13242
860.60 61.9501
860.70 61.67049
860.80 61.17824
860.90 60.37518
861.00 59.28421
861.10 57.9573
861.20 56.41102
861.30 54.69901
861.40 52.92895
861.50 51.2397
861.60 49.76964
861.70 48.60228
861.80 47.74755
861.90 47.17587
862.00 46.82952
862.10 46.61559
862.20 46.44384
862.30 46.24529
862.40 45.95156
862.50 45.51453
862.60 44.96392
862.70 44.40033
862.80 43.94768
862.90 43.68608
863.00 43.62705
863.10 43.75174
863.20 44.02349
863.30 44.37636
863.40 44.71952
863.50 44.98809
863.60 45.16549
863.70 45.27015
863.80 45.34163
863.90 45.44702
864.00 45.65835
864.10 46.00003
864.20 46.44402
864.30 46.94935
864.40 47.48865
864.50 48.05797
864.60 48.66082
864.70 49.28697
864.80 49.93489
864.90 50.6251
865.00 51.37766
865.10 52.16025
865.20 52.8806
865.30 53.46507
865.40 53.8885
865.50 54.16871
865.60 54.37283
865.70 54.6026
865.80 54.92543
865.90 55.30513
866.00 55.64808
866.10 55.8796
866.20 55.97769
866.30 55.94759
866.40 55.77221
866.50 55.4625
866.60 55.07735
866.70 54.67019
866.80 54.27739
866.90 53.92827
867.00 53.63578
867.10 53.36749
867.20 53.07116
867.30 52.78694
867.40 52.64472
867.50 52.73606
867.60 53.05234
867.70 53.50598
867.80 53.98875
867.90 54.40151
868.00 54.69703
868.10 54.85303
868.20 54.8477
868.30 54.69702
868.40 54.44995
868.50 54.16681
868.60 53.91218
868.70 53.67776
868.80 53.34698
868.90 52.79427
869.00 51.93277
869.10 50.71589
869.20 49.16363
869.30 47.35086
869.40 45.37462
869.50 43.41974
869.60 41.73559
869.70 40.49248
869.80 39.75304
869.90 39.52804
870.00 39.78067
870.10 40.40933
870.20 41.26842
870.30 42.18303
870.40 42.98057
870.50 43.55235
870.60 43.85113
870.70 43.87234
870.80 43.63865
870.90 43.1747
871.00 42.51999
871.10 41.7727
871.20 41.05795
871.30 40.46574
871.40 40.04729
871.50 39.81022
871.60 39.7318
871.70 39.79365
871.80 39.98401
871.90 40.26543
872.00 40.59331
872.10 40.95667
872.20 41.40434
872.30 41.99578
872.40 42.7448
872.50 43.6207
872.60 44.55798
872.70 45.45044
872.80 46.17085
872.90 46.64247
873.00 46.84879
873.10 46.7912
873.20 46.48712
873.30 45.99365
873.40 45.39817
873.50 44.81854
873.60 44.38237
873.70 44.17448
873.80 44.23468
873.90 44.57783
874.00 45.1872
874.10 46.0468
874.20 47.12299
874.30 48.28589
874.40 49.33395
874.50 50.08007
874.60 50.42379
874.70 50.36113
874.80 49.99048
874.90 49.4622
875.00 48.90566
875.10 48.44486
875.20 48.19379
875.30 48.20714
875.40 48.49691
875.50 49.01581
875.60 49.65231
875.70 50.33689
875.80 51.06492
875.90 51.87212
876.00 52.75949
876.10 53.64173
876.20 54.39167
876.30 54.87433
876.40 54.9601
876.50 54.63119
876.60 54.04459
876.70 53.45547
876.80 53.13549
876.90 53.29277
877.00 54.06545
877.10 55.47123
877.20 57.38594
877.30 59.54189
877.40 61.53713
877.50 63.04801
877.60 63.90637
877.70 64.08578
877.80 63.74447
877.90 63.0899
878.00 62.25394
878.10 61.341
878.20 60.4687
878.30 59.74875
878.40 59.2246
878.50 58.85169
878.60 58.54493
878.70 58.26024
878.80 58.10962
878.90 58.207
879.00 58.55337
879.10 59.10668
879.20 59.79991
879.30 60.56986
879.40 61.35384
879.50 62.07493
879.60 62.58413
879.70 62.6992
879.80 62.29276
879.90 61.34378
880.00 59.96373
880.10 58.35247
880.20 56.70294
880.30 55.18363
880.40 53.95967
880.50 53.15654
880.60 52.86375
880.70 53.14335
880.80 54.0047
880.90 55.38708
881.00 57.21021
881.10 59.41001
881.20 61.91557
881.30 64.62337
881.40 67.37036
881.50 69.93285
881.60 72.07836
881.70 73.61157
881.80 74.39602
881.90 74.38844
882.00 73.61141
882.10 72.10443
882.20 70.01494
882.30 67.62998
882.40 65.27535
882.50 63.27041
882.60 61.97341
882.70 61.68125
882.80 62.42442
882.90 63.9953
883.00 66.02652
883.10 68.07344
883.20 69.77848
883.30 70.92949
883.40 71.48675
883.50 71.63475
883.60 71.67167
883.70 71.88194
883.80 72.46672
883.90 73.43983
884.00 74.52861
884.10 75.28546
884.20 75.3346
884.30 74.43079
884.40 72.53351
884.50 69.8734
884.60 66.8561
884.70 63.99412
884.80 61.81764
884.90 60.70626
885.00 60.80931
885.10 62.03757
885.20 64.0839
885.30 66.47392
885.40 68.66797
885.50 70.21364
885.60 70.83934
885.70 70.48787
885.80 69.29557
885.90 67.56119
886.00 65.69929
886.10 64.10483
886.20 63.01732
886.30 62.49723
886.40 62.46367
886.50 62.74742
886.60 63.15118
886.70 63.43799
886.80 63.36113
886.90 62.73983
887.00 61.53102
887.10 59.87276
887.20 58.03602
887.30 56.36466
887.40 55.20136
887.50 54.80871
887.60 55.33266
887.70 56.74017
887.80 58.81461
887.90 61.1988
888.00 63.47061
888.10 65.28034
888.20 66.35948
888.30 66.68786
888.40 66.63278
888.50 66.68931
888.60 67.22666
888.70 68.37444
888.80 69.97227
888.90 71.63556
889.00 72.92237
889.10 73.46193
889.20 72.97814
889.30 71.36066
889.40 68.76367
889.50 65.62898
889.60 62.64567
889.70 60.41746
889.80 59.16639
889.90 58.93169
890.00 59.72988
890.10 61.47834
890.20 63.9464
890.30 66.7981
890.40 69.59647
890.50 71.88293
890.60 73.33352
890.70 73.7897
890.80 73.26483
890.90 71.96287
891.00 70.25194
891.10 68.57721
891.20 67.38338
891.30 66.93599
891.40 67.24101
891.50 68.14611
891.60 69.43771
891.70 70.88988
891.80 72.33435
891.90 73.65891
892.00 74.74667
892.10 75.454
892.20 75.65089
892.30 75.27575
892.40 74.34009
892.50 72.96656
892.60 71.38673
892.70 69.8803
892.80 68.7698
892.90 68.37414
893.00 68.87059
893.10 70.22149
893.20 72.15286
893.30 74.21897
893.40 75.9468
893.50 76.99247
893.60 77.14541
893.70 76.30294
893.80 74.53578
893.90 72.03337
894.00 69.04776
894.10 65.94952
894.20 63.1554
894.30 61.0051
894.40 59.73717
894.50 59.44222
894.60 60.03016
894.70 61.26592
894.80 62.80567
894.90 64.24098
895.00 65.25368
895.10 65.78083
895.20 65.9755
895.30 66.10815
895.40 66.49344
895.50 67.38553
895.60 68.91479
895.70 71.06374
895.80 73.61404
895.90 76.15255
896.00 78.20804
896.10 79.39794
896.20 79.54182
896.30 78.69524
896.40 77.0773
896.50 74.96548
896.60 72.71136
896.70 70.7258
896.80 69.36028
896.90 68.84535
897.00 69.20548
897.10 70.24854
897.20 71.71283
897.30 73.38828
897.40 75.13843
897.50 76.82835
897.60 78.28437
897.70 79.3836
897.80 80.1111
897.90 80.53709
898.00 80.76013
898.10 80.90883
898.20 81.19346
898.30 81.81754
898.40 82.87021
898.50 84.2974
898.60 85.88646
898.70 87.2975
898.80 88.1858
898.90 88.37517
899.00 87.89092
899.10 86.86107
899.20 85.45659
899.30 83.83852
899.40 82.16782
899.50 80.61823
899.60 79.29057
899.70 78.1932
899.80 77.39372
899.90 77.09501
900.00 76.80261
900.10 76.78773
900.20 77.33629
900.30 77.89998
900.40 79.20498
900.50 80.50999
900.60 80.22799
900.70 79.29777
900.80 78.50255
900.90 77.90983
901.00 77.31351
901.10 76.67562
901.20 76.03773
901.30 76.68395
901.40 77.71374
901.50 78.46749
901.60 78.89722
901.70 79.3383
901.80 79.8438
901.90 80.3493
902.00 80.02104
902.10 79.52201
902.20 78.91915
902.30 78.22044
902.40 77.56164
902.50 77.05295
902.60 76.54426
902.70 75.60926
902.80 74.6269
902.90 74.52341
903.00 75.03065
903.10 75.63319
903.20 76.49339
903.30 77.35359
903.40 79.09015
903.50 80.86323
903.60 81.68155
903.70 81.98578
903.80 82.17388
903.90 82.13655
904.00 82.07791
904.10 81.33024
904.20 80.58257
904.30 80.10885
904.40 79.74167
904.50 79.54864
904.60 79.61685
904.70 79.67148
904.80 79.58883
904.90 79.50617
905.00 78.95961
905.10 78.2822
905.20 77.69982
905.30 77.2246
905.40 76.86348
905.50 77.10138
905.60 77.33929
905.70 77.94789
905.80 78.62192
905.90 78.77105
906.00 78.45472
906.10 78.04533
906.20 77.30599
906.30 76.56666
906.40 76.71173
906.50 76.94428
906.60 77.29468
906.70 77.72365
906.80 78.16071
906.90 78.61757
907.00 79.07443
907.10 78.20514
907.20 77.30878
907.30 77.59975
907.40 78.47552
907.50 79.36365
907.60 80.27472
907.70 81.18468
907.80 82.06759
907.90 82.9505
908.00 82.78583
908.10 82.2337
908.20 81.73369
908.30 81.30565
908.40 80.87091
908.50 80.38193
908.60 79.89295
908.70 79.37099
908.80 78.84078
908.90 78.7482
909.00 79.11111
909.10 79.47458
909.20 79.84064
909.30 80.2067
909.40 80.54464
909.50 80.87838
909.60 80.815
909.70 80.42672
909.80 80.09933
909.90 79.96474
910.00 79.83015
910.10 79.80968
910.20 79.7978
910.30 79.76873
910.40 79.72912
910.50 79.59262
910.60 79.24042
910.70 78.88822
910.80 79.67843
910.90 80.46863
911.00 81.18956
911.10 81.87936
911.20 82.29578
911.30 82.26614
911.40 82.16691
911.50 81.14288
911.60 80.11885
911.70 80.6912
911.80 81.76767
911.90 82.49091
912.00 82.78244
912.10 83.12925
912.20 83.84604
912.30 84.56283
912.40 84.70508
912.50 84.72122
912.60 84.82518
912.70 85.01353
912.80 85.01569
912.90 84.27308
913.00 83.53047
913.10 83.37927
913.20 83.30116
913.30 83.45697
913.40 83.78218
913.50 84.00076
913.60 83.93109
913.70 83.86141
913.80 83.12059
913.90 82.35179
914.00 81.82328
914.10 81.42414
914.20 81.00428
914.30 80.54419
914.40 80.11613
914.50 80.72357
914.60 81.331
914.70 81.51481
914.80 81.53388
914.90 81.72153
915.00 82.15177
915.10 82.54153
915.20 82.56705
915.30 82.59258
915.40 83.30448
915.50 84.19883
915.60 85.27129
915.70 86.53669
915.80 87.57697
915.90 87.51807
916.00 87.45918
916.10 86.13416
916.20 84.60303
916.30 83.24145
916.40 82.01859
916.50 81.33669
916.60 82.36783
916.70 83.39897
916.80 84.71441
916.90 86.05125
917.00 86.49486
917.10 86.391
917.20 86.08793
917.30 85.34144
917.40 84.59494
917.50 83.7487
917.60 82.90246
917.70 82.86057
917.80 83.18006
917.90 83.50893
918.00 83.85314
918.10 84.19251
918.20 84.46777
918.30 84.74303
918.40 84.52465
918.50 84.15037
918.60 84.16727
918.70 84.66227
918.80 85.20898
918.90 86.07334
919.00 86.93769
919.10 87.71816
919.20 88.48145
919.30 88.39543
919.40 87.52543
919.50 86.62184
919.60 85.59195
919.70 84.56205
919.80 84.83598
919.90 85.25477
920.00 85.94874
920.10 86.83393
920.20 87.52357
920.30 87.71037
920.40 87.89718
920.50 87.15129
920.60 86.37656
920.70 85.63707
920.80 84.91573
920.90 84.07721
921.00 83.02106
921.10 82.00512
921.20 81.95437
921.30 81.90362
921.40 82.48149
921.50 83.29186
921.60 84.09728
921.70 84.89585
921.80 85.667
921.90 86.21635
922.00 86.7657
922.10 86.70048
922.20 86.48162
922.30 86.29439
922.40 86.14007
922.50 85.93192
922.60 85.47851
922.70 85.02509
922.80 84.57717
922.90 84.13007
923.00 83.35656
923.10 82.32659
923.20 81.63824
923.30 81.97473
923.40 82.31122
923.50 82.89828
923.60 83.49852
923.70 84.01057
923.80 84.473
923.90 84.95221
924.00 85.46547
924.10 85.98827
924.20 86.97871
924.30 87.96915
924.40 88.05037
924.50 87.76022
924.60 86.98327
924.70 85.47613
924.80 84.02306
924.90 83.11675
925.00 82.21044
925.10 81.86563
925.20 81.67919
925.30 81.99393
925.40 82.87384
925.50 83.75561
925.60 84.64718
925.70 85.53875
925.80 86.17845
925.90 86.77371
926.00 86.33141
926.10 85.00526
926.20 83.98312
926.30 83.92372
926.40 83.86431
926.50 84.81011
926.60 85.83157
926.70 86.64126
926.80 87.32116
926.90 87.43964
927.00 86.30853
927.10 85.17742
927.20 84.34761
927.30 83.5178
927.40 83.01541
927.50 82.66014
927.60 82.2281
927.70 81.67084
927.80 81.11098
927.90 80.51667
928.00 79.92237
928.10 79.90298
928.20 80.06514
928.30 80.59517
928.40 81.57481
928.50 82.43713
928.60 82.63465
928.70 82.83216
928.80 82.06248
928.90 81.10857
929.00 80.67193
929.10 80.69401
929.20 80.85845
929.30 81.52764
929.40 82.19683
929.50 82.26033
929.60 82.26392
929.70 82.24067
929.80 82.19952
929.90 82.33438
930.00 82.90016
930.10 83.46593
930.20 83.11082
930.30 82.7369
930.40 82.29542
930.50 81.82213
930.60 81.35096
930.70 80.88339
930.80 80.43688
930.90 80.32034
931.00 80.2038
931.10 80.54464
931.20 81.03795
931.30 81.9008
931.40 83.23398
931.50 84.3781
931.60 84.29722
931.70 84.23892
931.80 84.18062
931.90 84.75766
932.00 85.38995
932.10 85.90406
932.20 85.94541
932.30 85.98677
932.40 85.42374
932.50 84.20594
932.60 82.98814
932.70 82.47304
932.80 82.17985
932.90 81.91384
933.00 82.30033
933.10 82.68682
933.20 82.85208
933.30 82.56816
933.40 82.28425
933.50 82.05525
933.60 81.86134
933.70 81.66744
933.80 81.80416
933.90 81.98174
934.00 82.24415
934.10 82.92066
934.20 83.59718
934.30 83.9914
934.40 84.0406
934.50 84.0898
934.60 84.20658
934.70 84.3471
934.80 84.48715
934.90 84.60382
935.00 84.72048
935.10 84.69431
935.20 84.33484
935.30 83.97538
935.40 83.31581
935.50 82.43893
935.60 81.56205
935.70 81.51249
935.80 81.58655
935.90 81.82526
936.00 82.99696
936.10 84.16867
936.20 85.10125
936.30 85.71684
936.40 86.33244
936.50 86.19674
936.60 85.75417
936.70 85.31161
936.80 84.52441
936.90 83.73721
937.00 83.13749
937.10 83.01989
937.20 82.90229
937.30 83.03762
937.40 83.37167
937.50 83.70572
937.60 83.87539
937.70 84.01374
937.80 84.08719
937.90 83.72629
938.00 83.36539
938.10 83.20847
938.20 83.34507
938.30 83.48167
938.40 83.60878
938.50 83.73162
938.60 83.85447
938.70 83.49592
938.80 83.12755
938.90 82.96338
939.00 83.3804
939.10 83.79742
939.20 84.20366
939.30 84.60071
939.40 84.99777
939.50 85.21607
939.60 85.39777
939.70 85.45867
939.80 84.54229
939.90 83.6259
940.00 82.96884
940.10 82.71739
940.20 82.46594
940.30 82.86571
940.40 83.57194
940.50 84.27816
940.60 85.25109
940.70 86.23513
940.80 86.87245
940.90 86.46963
941.00 86.06681
941.10 85.78366
941.20 85.60664
941.30 85.42962
941.40 85.42429
941.50 85.45924
941.60 85.49088
941.70 85.49281
941.80 85.49474
941.90 85.24695
942.00 84.59169
942.10 83.93644
942.20 83.86544
942.30 84.0822
942.40 84.29896
942.50 84.27086
942.60 84.22988
942.70 84.41529
942.80 85.35863
942.90 86.30196
943.00 87.18076
943.10 87.99997
943.20 88.81919
943.30 89.61797
943.40 90.41164
943.50 91.0521
943.60 90.14343
943.70 89.23477
943.80 88.51614
943.90 88.12109
944.00 87.72604
944.10 87.40117
944.20 87.11247
944.30 86.82376
944.40 86.65829
944.50 86.50068
944.60 86.2877
944.70 85.88937
944.80 85.49104
944.90 85.43359
945.00 85.70367
945.10 85.97375
945.20 86.58462
945.30 87.2807
945.40 87.93155
945.50 88.06233
945.60 88.19312
945.70 88.15736
945.80 87.83801
945.90 87.51865
946.00 86.9463
946.10 86.23772
946.20 85.52914
946.30 85.3187
946.40 85.14006
946.50 85.11729
946.60 85.6472
946.70 86.1771
946.80 86.69143
946.90 87.1908
947.00 87.69016
947.10 87.88907
947.20 88.0081
947.30 88.13901
947.40 88.40646
947.50 88.67392
947.60 88.79611
947.70 88.67097
947.80 88.54584
947.90 88.30877
948.00 88.01143
948.10 87.7141
948.20 87.69339
948.30 87.69034
948.40 87.897
948.50 88.84722
948.60 89.79743
948.70 90.73435
948.80 91.65849
948.90 92.58264
949.00 92.85392
949.10 92.96199
949.20 92.98278
949.30 91.99981
949.40 91.01683
949.50 90.30556
949.60 90.0569
949.70 89.80825
949.80 89.77648
949.90 89.86151
950.00 89.94653
950.10 90.2078
950.20 90.48032
950.30 90.62762
950.40 90.35573
950.50 90.08384
950.60 90.24724
950.70 90.82884
950.80 91.41045
950.90 91.38098
951.00 91.19874
951.10 91.04747
951.20 91.20936
951.30 91.37125
951.40 91.18161
951.50 90.39345
951.60 89.60528
951.70 88.93929
951.80 88.33624
951.90 87.73319
952.00 87.56013
952.10 87.4097
952.20 87.64642
952.30 89.17924
952.40 90.71207
952.50 92.16231
952.60 93.53634
952.70 94.91037
952.80 94.55484
952.90 93.79362
953.00 92.9839
953.10 91.73769
953.20 90.49149
953.30 89.54779
953.40 89.09766
953.50 88.64753
953.60 89.02162
953.70 89.80166
953.80 90.5817
953.90 90.4533
954.00 90.28705
954.10 90.14882
954.20 90.09931
954.30 90.04979
954.40 90.3019
954.50 90.82149
954.60 91.34108
954.70 92.42612
954.80 93.63529
954.90 94.73597
955.00 94.95898
955.10 95.18198
955.20 95.09373
955.30 94.53862
955.40 93.98351
955.50 93.45229
955.60 92.93233
955.70 92.41237
955.80 92.13897
955.90 91.87321
956.00 91.65696
956.10 91.58162
956.20 91.50629
956.30 91.61777
956.40 91.88209
956.50 92.14642
956.60 92.32255
956.70 92.48189
956.80 92.63391
956.90 92.73231
957.00 92.83072
957.10 92.89206
957.20 92.90006
957.30 92.90806
957.40 92.88644
957.50 92.85211
957.60 92.81779
957.70 92.45636
957.80 92.09163
957.90 91.76069
958.00 91.51661
958.10 91.27254
958.20 91.07233
958.30 90.90521
958.40 90.7381
958.50 90.19342
958.60 89.58212
958.70 88.99255
958.80 88.53647
958.90 88.0804
959.00 87.50707
959.10 86.7783
959.20 86.04952
959.30 85.88116
959.40 85.93074
959.50 85.98047
959.60 86.0458
959.70 86.11113
959.80 86.25137
959.90 86.5664
960.00 86.88143
960.10 87.27403
960.20 87.72054
960.30 88.16704
960.40 88.44728
960.50 88.70484
960.60 88.908
960.70 88.82554
960.80 88.74308
960.90 88.37675
961.00 87.66348
961.10 86.95021
961.20 86.56301
961.30 86.29036
961.40 86.04351
961.50 86.63037
961.60 87.21722
961.70 87.87028
961.80 88.66401
961.90 89.45774
962.00 89.92957
962.10 90.19558
962.20 90.4616
962.30 90.15719
962.40 89.78939
962.50 89.41176
962.60 88.9922
962.70 88.57264
962.80 88.30499
962.90 88.20189
963.00 88.0988
963.10 88.39627
963.20 88.81339
963.30 89.17968
963.40 88.74949
963.50 88.3193
963.60 87.72697
963.70 86.83352
963.80 85.94008
963.90 85.2761
964.00 84.74119
964.10 84.20628
964.20 84.67462
964.30 85.21846
964.40 85.65847
964.50 85.7303
964.60 85.80213
964.70 86.08533
964.80 86.57159
964.90 87.05786
965.00 87.1085
965.10 87.05023
965.20 86.99294
965.30 86.94549
965.40 86.89804
965.50 86.92376
965.60 87.06886
965.70 87.21397
965.80 87.97205
965.90 89.03205
966.00 90.09204
966.10 90.23983
966.20 90.34962
966.30 90.45091
966.40 90.52675
966.50 90.60258
966.60 90.64779
966.70 90.66692
966.80 90.68606
966.90 90.9555
967.00 91.27622
967.10 91.4532
967.20 90.57608
967.30 89.69897
967.40 88.9786
967.50 88.47471
967.60 87.97081
967.70 88.08524
967.80 88.45222
967.90 88.8192
968.00 89.33548
968.10 89.85175
968.20 90.26456
968.30 90.42404
968.40 90.58353
968.50 90.40028
968.60 89.96884
968.70 89.5374
968.80 89.40163
968.90 89.31004
969.00 89.2768
969.10 89.54988
969.20 89.82296
969.30 90.20818
969.40 90.73045
969.50 91.25273
969.60 91.54101
969.70 91.74708
969.80 91.94473
969.90 91.94017
970.00 91.9356
970.10 91.83108
970.20 91.52362
970.30 91.21615
970.40 90.79477
970.50 90.30356
970.60 89.81236
970.70 89.88961
970.80 90.02309
970.90 90.32546
971.00 91.30344
971.10 92.28141
971.20 93.21568
971.30 94.10447
971.40 94.99326
971.50 95.09224
971.60 94.98127
971.70 94.82035
971.80 94.08507
971.90 93.3498
972.00 92.83564
972.10 92.69797
972.20 92.56031
972.30 92.67149
972.40 92.91087
972.50 93.15026
972.60 92.8647
972.70 92.55152
972.80 92.19084
972.90 91.6877
973.00 91.18455
973.10 90.94351
973.20 90.92576
973.30 90.908
973.40 90.9438
973.50 90.99056
973.60 91.02343
973.70 90.95441
973.80 90.88538
973.90 90.88634
974.00 90.98393
974.10 91.08152
974.20 91.02251
974.30 90.89953
974.40 90.77656
974.50 90.68347
974.60 90.59038
974.70 90.54047
974.80 90.59625
974.90 90.65203
975.00 90.94347
975.10 91.39867
975.20 91.85386
975.30 92.05384
975.40 92.21901
975.50 92.38779
975.60 92.57415
975.70 92.76052
975.80 92.8747
975.90 92.90413
976.00 92.93356
976.10 93.11842
976.20 93.35236
976.30 93.57761
976.40 93.63775
976.50 93.6979
976.60 93.72919
976.70 93.70446
976.80 93.67974
976.90 93.48178
977.00 93.18638
977.10 92.89099
977.20 92.91048
977.30 92.95368
977.40 93.08135
977.50 93.50849
977.60 93.93563
977.70 94.09537
977.80 94.00828
977.90 93.92119
978.00 93.53994
978.10 93.08968
978.20 92.63603
978.30 92.15185
978.40 91.66768
978.50 91.3747
978.60 91.36851
978.70 91.36232
978.80 91.49404
978.90 91.68772
979.00 91.8814
979.10 92.79737
979.20 93.72807
979.30 94.54979
979.40 95.09126
979.50 95.63273
979.60 95.8399
979.70 95.79489
979.80 95.74988
979.90 95.57844
980.00 95.38643
980.10 95.19218
980.20 94.98618
980.30 94.78018
980.40 94.6271
980.50 94.53868
980.60 94.45027
980.70 94.26227
980.80 94.04108
980.90 93.82521
981.00 93.737
981.10 93.64879
981.20 93.455
981.30 93.04688
981.40 92.63875
981.50 92.77023
981.60 93.21861
981.70 93.66699
981.80 93.92587
981.90 94.16827
982.00 94.37586
982.10 94.46001
982.20 94.54416
982.30 94.61291
982.40 94.66686
982.50 94.72081
982.60 94.90178
982.70 95.1145
982.80 95.26479
982.90 94.85317
983.00 94.44155
983.10 94.02828
983.20 93.61244
983.30 93.1966
983.40 93.0396
983.50 92.99891
983.60 92.95821
983.70 93.17767
983.80 93.40244
983.90 93.68113
984.00 94.09851
984.10 94.51588
984.20 94.78258
984.30 94.93563
984.40 95.08868
984.50 94.59779
984.60 94.01068
984.70 93.36612
984.80 92.41991
984.90 91.47371
985.00 90.99572
985.10 91.06736
985.20 91.13901
985.30 91.67729
985.40 92.37111
985.50 93.05291
985.60 93.50623
985.70 93.95955
985.80 94.23184
985.90 94.15271
986.00 94.07358
986.10 94.19502
986.20 94.42928
986.30 94.66353
986.40 94.75778
986.50 94.84149
986.60 94.82208
986.70 94.45748
986.80 94.09287
986.90 94.08714
987.00 94.41269
987.10 94.73823
987.20 95.58134
987.30 96.53806
987.40 97.37686
987.50 97.26165
987.60 97.14644
987.70 96.65729
987.80 95.63001
987.90 94.60273
988.00 94.24961
988.10 94.17183
988.20 94.09406
988.30 95.14826
988.40 96.20245
988.50 97.05245
988.60 97.426
988.70 97.79955
988.80 97.71561
988.90 97.31376
989.00 96.91191
989.10 95.85832
989.20 94.72418
989.30 93.4158
989.40 91.31368
989.50 89.21156
989.60 87.09538
989.70 84.96396
989.80 82.83254
989.90 81.50133
990.00 80.39582
990.10 79.32067
990.20 78.64893
990.30 77.9772
990.40 77.18492
990.50 76.18739
990.60 75.18986
990.70 74.62848
990.80 74.29177
990.90 73.95507
991.00 74.25573
991.10 74.58295
991.20 74.75191
991.30 74.47046
991.40 74.18901
991.50 74.00468
991.60 73.89981
991.70 73.79494
991.80 73.87972
991.90 73.99798
992.00 74.11659
992.10 74.23726
992.20 74.35792
992.30 74.29631
992.40 74.0027
992.50 73.7091
992.60 74.14859
992.70 74.84566
992.80 75.54939
992.90 76.413
993.00 77.27662
993.10 77.94277
993.20 78.20801
993.30 78.47326
993.40 78.612
993.50 78.67644
993.60 78.74088
993.70 79.34734
993.80 79.99459
993.90 80.67736
994.00 81.48608
994.10 82.2948
994.20 82.84085
994.30 83.14444
994.40 83.44802
994.50 83.54983
994.60 83.60734
994.70 83.68225
994.80 83.89786
994.90 84.11347
995.00 84.475
995.10 85.04653
995.20 85.61805
995.30 85.69968
995.40 85.58121
995.50 85.45573
995.60 84.63624
995.70 83.81675
995.80 83.08835
995.90 82.57248
996.00 82.05661
996.10 82.43697
996.20 83.41479
996.30 84.39262
996.40 85.3999
996.50 86.41044
996.60 87.05294
996.70 86.12637
996.80 85.19981
996.90 83.87704
997.00 82.14188
997.10 80.40672
997.20 79.55465
997.30 78.93731
997.40 78.45061
997.50 79.28473
997.60 80.11885
997.70 80.86768
997.80 81.47736
997.90 82.08703
998.00 82.37891
998.10 82.52122
998.20 82.66354
998.30 82.05488
998.40 81.4309
998.50 80.90167
998.60 80.61609
998.70 80.33052
998.80 80.153
998.90 80.05372
999.00 79.95444
999.10 80.10449
999.20 80.2918
999.30 80.38372
999.40 80.00992
999.50 79.63612
999.60 79.78519
999.70 80.52388
999.80 81.26257
999.90 82.38514
1000.00 83.62238
1000.10 84.84812
1000.20 85.92118
1000.30 86.99425
1000.40 87.52204
1000.50 87.08047
1000.60 86.6389
1000.70 85.92743
1000.80 85.07692
1000.90 84.22641
1001.00 83.5915
1001.10 82.96557
1001.20 82.622
1001.30 83.08208
1001.40 83.54217
1001.50 84.11842
1001.60 84.78595
1001.70 85.45348
1001.80 85.74179
1001.90 85.96835
1002.00 86.16758
1002.10 86.21188
1002.20 86.25618
1002.30 86.44545
1002.40 86.81191
1002.50 87.17837
1002.60 87.44223
1002.70 87.6719
1002.80 87.8617
1002.90 87.29406
1003.00 86.72643
1003.10 86.19538
1003.20 85.73229
1003.30 85.2692
1003.40 84.84595
1003.50 84.44416
1003.60 84.04238
1003.70 84.30026
1003.80 84.59286
1003.90 84.97275
1004.00 85.6145
1004.10 86.25625
1004.20 87.18863
1004.30 88.36857
1004.40 89.54852
1004.50 89.64502
1004.60 89.53514
1004.70 89.25154
1004.80 87.90072
1004.90 86.54991
1005.00 84.93291
1005.10 82.97712
1005.20 81.02134
1005.30 80.05823
1005.40 79.44391
1005.50 78.86028
1005.60 79.01307
1005.70 79.16587
1005.80 79.42043
1005.90 79.87254
1006.00 80.32466
1006.10 80.69035
1006.20 81.00742
1006.30 81.32449
1006.40 82.34243
1006.50 83.40509
1006.60 84.44549
1006.70 85.41535
1006.80 86.38521
1006.90 86.93578
1007.00 87.12917
1007.10 87.32257
1007.20 87.18379
1007.30 86.98173
1007.40 86.87654
1007.50 87.36636
1007.60 87.85619
1007.70 88.62819
1007.80 89.75931
1007.90 90.89044
1008.00 91.46937
1008.10 91.85427
1008.20 92.2089
1008.30 91.83679
1008.40 91.46469
1008.50 90.9836
1008.60 90.29097
1008.70 89.59834
1008.80 88.93931
1008.90 88.29919
1009.00 87.65906
1009.10 87.38929
1009.20 87.14739
1009.30 87.09305
1009.40 87.66665
1009.50 88.24024
1009.60 89.42444
1009.70 91.15013
1009.80 92.87581
1009.90 94.09983
1010.00 95.22111
1010.10 96.2367
1010.20 96.54506
1010.30 96.85341
1010.40 96.56677
1010.50 95.49143
1010.60 94.41609
1010.70 93.28467
1010.80 92.13253
1010.90 90.97552
1011.00 89.66138
1011.10 88.34723
1011.20 87.18418
1011.30 86.3144
1011.40 85.44463
1011.50 84.91617
1011.60 84.57971
1011.70 84.24324
1011.80 85.08058
1011.90 85.99283
1012.00 87.0979
1012.10 88.81354
1012.20 90.52919
1012.30 91.81229
1012.40 92.72693
1012.50 93.64157
1012.60 93.7965
1012.70 93.80673
1012.80 93.77729
1012.90 93.50421
1013.00 93.23112
1013.10 92.52539
1013.20 91.26901
1013.30 90.01263
1013.40 88.35306
1013.50 86.55183
1013.60 84.80142
1013.70 84.27062
1013.80 83.73982
1013.90 83.85284
1014.00 85.21564
1014.10 86.57844
1014.20 87.49
1014.30 88.14775
1014.40 88.80549
1014.50 88.39101
1014.60 87.90808
1014.70 87.62367
1014.80 87.96785
1014.90 88.31203
1015.00 89.00405
1015.10 89.99238
1015.20 90.98071
1015.30 90.83609
1015.40 90.49153
1015.50 90.00937
1015.60 88.74747
1015.70 87.48557
1015.80 86.56549
1015.90 86.06318
1016.00 85.56087
1016.10 86.02653
1016.20 86.81486
1016.30 87.59064
1016.40 88.12816
1016.50 88.66567
1016.60 89.03445
1016.70 89.08986
1016.80 89.14526
1016.90 89.03316
1017.00 88.83085
1017.10 88.62855
1017.20 89.83522
1017.30 91.11604
1017.40 92.24465
1017.50 92.94004
1017.60 93.63544
1017.70 93.41171
1017.80 92.46582
1017.90 91.51993
1018.00 90.03024
1018.10 88.45202
1018.20 87.03704
1018.30 86.47907
1018.40 85.9211
1018.50 85.84537
1018.60 86.33576
1018.70 86.82615
1018.80 87.44166
1018.90 88.09668
1019.00 88.72215
1019.10 88.95489
1019.20 89.18763
1019.30 89.26699
1019.40 89.0852
1019.50 88.90342
1019.60 88.89178
1019.70 88.96394
1019.80 89.0361
1019.90 89.40177
1020.00 89.77651
1020.10 90.18786
1020.20 90.69821
1020.30 91.20855
1020.40 91.74744
1020.50 92.30786
1020.60 92.86829
1020.70 92.56076
1020.80 92.13488
1020.90 91.61856
1021.00 90.69024
1021.10 89.76191
1021.20 88.75715
1021.30 87.66957
1021.40 86.58199
1021.50 85.7433
1021.60 84.9748
1021.70 84.23464
1021.80 83.82034
1021.90 83.40603
1022.00 83.41076
1022.10 84.07089
1022.20 84.73102
1022.30 85.5936
1022.40 86.54715
1022.50 87.50069
1022.60 88.08449
1022.70 88.66455
1022.80 88.99924
1022.90 88.7332
1023.00 88.46715
1023.10 88.18552
1023.20 87.89348
1023.30 87.60144
1023.40 88.15263
1023.50 88.79751
1023.60 89.52216
1023.70 90.56587
1023.80 91.60959
1023.90 92.55501
1024.00 93.40213
1024.10 94.24925
1024.20 94.14194
1024.30 93.81075
1024.40 93.44696
1024.50 92.81946
1024.60 92.19196
1024.70 91.40287
1024.80 90.38124
1024.90 89.35961
1025.00 88.7348
1025.10 88.27206
1025.20 87.8183
1025.30 87.80444
1025.40 87.79057
1025.50 87.82355
1025.60 87.95607
1025.70 88.0886
1025.80 87.53776
1025.90 86.56807
1026.00 85.59838
1026.10 84.60128
1026.20 83.60212
1026.30 83.03224
1026.40 83.89957
1026.50 84.7669
1026.60 86.00142
1026.70 87.56158
1026.80 89.12173
1026.90 89.90578
1027.00 90.542
1027.10 90.98997
1027.20 90.28152
1027.30 89.57308
1027.40 89.00809
1027.50 88.6257
1027.60 88.2433
1027.70 87.68228
1027.80 87.05849
1027.90 86.42354
1028.00 85.57642
1028.10 84.7293
1028.20 84.15776
1028.30 84.09802
1028.40 84.03828
1028.50 84.84262
1028.60 86.11224
1028.70 87.38185
1028.80 88.43562
1028.90 89.48041
1029.00 90.20971
1029.10 90.0411
1029.20 89.87249
1029.30 89.62569
1029.40 89.31745
1029.50 89.00921
1029.60 88.82469
1029.70 88.65865
1029.80 88.5044
1029.90 88.40764
1030.00 88.31088
1030.10 88.37744
1030.20 88.62817
1030.30 88.87891
1030.40 89.38549
1030.50 89.96423
1030.60 90.50343
1030.70 90.58789
1030.80 90.67235
1030.90 90.68415
1031.00 90.58231
1031.10 90.48047
1031.20 90.26778
1031.30 90.0053
1031.40 89.74282
1031.50 89.44894
1031.60 89.15475
1031.70 88.87639
1031.80 88.63499
1031.90 88.39359
1032.00 88.11906
1032.10 87.82245
1032.20 87.52583
1032.30 87.48511
1032.40 87.47283
1032.50 87.70317
1032.60 88.84622
1032.70 89.98927
1032.80 91.45573
1032.90 93.23292
1033.00 95.01012
1033.10 95.67532
1033.20 96.09644
1033.30 96.28714
1033.40 94.78811
1033.50 93.28908
1033.60 91.80686
1033.70 90.34786
1033.80 88.88885
1033.90 88.39479
1034.00 88.25762
1034.10 88.15046
1034.20 89.01377
1034.30 89.87708
1034.40 90.60043
1034.50 91.0521
1034.60 91.50378
1034.70 91.37273
1034.80 90.91389
1034.90 90.45506
1035.00 89.87898
1035.10 89.29672
1035.20 88.8809
1035.30 88.96435
1035.40 89.0478
1035.50 89.54334
1035.60 90.36266
1035.70 91.18199
1035.80 92.0202
1035.90 92.86149
1036.00 93.64476
1036.10 94.1235
1036.20 94.60223
1036.30 94.95205
1036.40 95.15649
1036.50 95.36093
1036.60 95.53147
1036.70 95.69189
1036.80 95.9118
1036.90 96.81597
1037.00 97.72013
1037.10 98.47529
1037.20 98.98734
1037.30 99.49939
1037.40 98.9306
1037.50 97.87622
1037.60 96.82183
1037.70 94.54986
1037.80 92.26559
1037.90 90.39656
1038.00 89.49642
1038.10 88.59627
1038.20 88.71104
1038.30 89.50242
1038.40 90.29381
1038.50 90.91475
1038.60 91.51885
1038.70 91.91686
1038.80 91.53966
1038.90 91.16245
1039.00 90.81821
1039.10 90.5044
1039.20 90.19059
1039.30 90.44822
1039.40 90.83128
1039.50 91.24748
1039.60 91.88546
1039.70 92.52343
1039.80 93.06577
1039.90 93.48133
1040.00 93.8969
1040.10 94.3142
1040.20 94.73211
1040.30 95.15126
1040.40 95.59995
1040.50 96.04864
1040.60 96.45616
1040.70 96.78723
1040.80 97.1183
1040.90 96.65513
1041.00 95.7643
1041.10 94.87347
1041.20 93.87508
1041.30 92.87221
1041.40 92.20802
1041.50 92.50776
1041.60 92.8075
1041.70 93.61446
1041.80 94.80407
1041.90 95.99368
1042.00 95.90877
1042.10 95.6334
1042.20 95.14196
1042.30 93.66615
1042.40 92.19034
1042.50 90.76985
1042.60 89.40929
1042.70 88.04873
1042.80 88.34705
1042.90 89.08635
1043.00 89.91361
1043.10 91.53262
1043.20 93.15163
1043.30 94.72749
1043.40 96.23865
1043.50 97.7498
1043.60 98.32717
1043.70 98.52314
1043.80 98.7172
1043.90 98.72281
1044.00 98.72841
1044.10 98.66682
1044.20 98.46245
1044.30 98.25807
1044.40 98.0697
1044.50 97.89115
1044.60 97.71259
1044.70 97.91441
1044.80 98.14487
1044.90 98.62775
1045.00 99.90998
1045.10 101.1922
1045.20 102.3843
1045.30 103.4995
1045.40 104.6147
1045.50 104.2105
1045.60 103.538
1045.70 102.7155
1045.80 101.0424
1045.90 99.36922
1046.00 97.95951
1046.10 96.85907
1046.20 95.75863
1046.30 94.82764
1046.40 93.95016
1046.50 93.06074
1046.60 92.01277
1046.70 90.96479
1046.80 90.18531
1046.90 89.84389
1047.00 89.50247
1047.10 89.79212
1047.20 90.37874
1047.30 90.96536
1047.40 91.26441
1047.50 91.56056
1047.60 91.73889
1047.70 91.64232
1047.80 91.54575
1047.90 91.74811
1048.00 92.14975
1048.10 92.55139
1048.20 93.57895
1048.30 94.66841
1048.40 95.68471
1048.50 96.42577
1048.60 97.16682
1048.70 97.60805
1048.80 97.77249
1048.90 97.93694
1049.00 97.94511
1049.10 97.92126
1049.20 97.80669
1049.30 97.08497
1049.40 96.36325
1049.50 95.57288
1049.60 94.69515
1049.70 93.81742
1049.80 93.82685
1049.90 94.132
1050.00 94.47113
1050.10 95.45587
1050.20 96.44061
1050.30 97.10631
1050.40 97.20481
1050.50 97.30332
1050.60 96.84158
1050.70 96.10389
1050.80 95.3662
1050.90 94.40818
1051.00 93.44334
1051.10 92.4857
1051.20 91.54656
1051.30 90.60742
1051.40 89.99861
1051.50 89.61935
1051.60 89.24009
1051.70 89.21883
1051.80 89.24182
1051.90 89.37441
1052.00 89.94542
1052.10 90.51642
1052.20 91.24953
1052.30 92.13838
1052.40 93.02723
1052.50 94.09165
1052.60 95.19726
1052.70 96.21081
1052.80 96.54935
1052.90 96.88788
1053.00 97.04782
1053.10 96.97101
1053.20 96.89421
1053.30 96.84312
1053.40 96.80155
1053.50 96.75361
1053.60 96.5527
1053.70 96.35178
1053.80 96.20972
1053.90 96.17697
1054.00 96.14422
1054.10 96.01671
1054.20 95.84038
1054.30 95.66405
1054.40 94.9214
1054.50 94.15515
1054.60 93.39731
1054.70 92.66224
1054.80 91.92716
1054.90 91.91221
1055.00 92.41873
1055.10 92.92524
1055.20 93.52836
1055.30 94.14465
1055.40 94.4923
1055.50 93.69468
1055.60 92.89706
1055.70 91.86705
1055.80 90.60465
1055.90 89.34225
1056.00 88.84187
1056.10 88.53199
1056.20 88.29654
1056.30 88.66323
1056.40 89.02991
1056.50 89.44993
1056.60 89.94359
1056.70 90.43725
1056.80 90.67109
1056.90 90.80884
1057.00 90.94382
1057.10 91.0124
1057.20 91.08099
1057.30 91.27029
1057.40 91.69391
1057.50 92.11753
1057.60 92.46591
1057.70 92.77377
1057.80 93.08163
1057.90 93.23744
1058.00 93.38691
1058.10 93.4157
1058.20 93.10104
1058.30 92.78638
1058.40 92.55396
1058.50 92.38359
1058.60 92.21322
1058.70 91.96875
1058.80 91.71417
1058.90 91.53253
1059.00 91.66184
1059.10 91.79114
1059.20 91.88792
1059.30 91.95218
1059.40 92.01643
1059.50 92.12562
1059.60 92.24605
1059.70 92.33017
1059.80 92.12063
1059.90 91.91109
1060.00 91.64665
1060.10 91.30642
1060.20 90.96618
1060.30 90.6047
1060.40 90.23535
1060.50 89.86887
1060.60 89.59502
1060.70 89.32117
1060.80 89.19062
1060.90 89.33826
1061.00 89.48589
1061.10 89.8812
1061.20 90.40988
1061.30 90.93856
1061.40 91.09388
1061.50 91.23364
1061.60 91.34269
1061.70 91.36873
1061.80 91.39478
1061.90 91.43685
1062.00 91.49101
1062.10 91.54518
1062.20 92.0786
1062.30 92.67738
1062.40 93.30164
1062.50 94.03451
1062.60 94.76738
1062.70 95.37306
1062.80 95.85154
1062.90 96.33002
1063.00 96.18296
1063.10 95.88917
1063.20 95.62971
1063.30 95.6481
1063.40 95.6665
1063.50 95.91926
1063.60 96.49568
1063.70 97.0721
1063.80 97.58608
1063.90 98.07697
1064.00 98.54335
1064.10 98.42128
1064.20 98.29922
1064.30 98.13345
1064.40 97.88649
1064.50 97.63954
1064.60 97.56634
1064.70 97.58265
1064.80 97.59897
1064.90 97.43903
1065.00 97.27175
1065.10 96.88047
1065.20 95.88357
1065.30 94.88668
1065.40 93.91981
1065.50 92.97468
1065.60 92.02956
1065.70 91.99555
1065.80 92.07416
1065.90 92.07632
1066.00 91.77275
1066.10 91.46917
1066.20 91.00897
1066.30 90.39829
1066.40 89.7876
1066.50 89.52041
1066.60 89.3338
1066.70 89.23809
1066.80 89.8091
1066.90 90.3801
1067.00 90.81174
1067.10 91.05863
1067.20 91.30552
1067.30 92.0623
1067.40 92.99823
1067.50 93.92741
1067.60 94.72837
1067.70 95.52932
1067.80 96.24947
1067.90 96.82595
1068.00 97.40243
1068.10 97.87456
1068.20 98.29529
1068.30 98.71601
1068.40 99.01573
1068.50 99.31298
1068.60 99.52225
1068.70 99.50531
1068.80 99.48836
1068.90 99.2647
1069.00 98.89738
1069.10 98.53007
1069.20 98.11814
1069.30 97.70125
1069.40 97.14303
1069.50 96.05311
1069.60 94.96319
1069.70 94.2916
1069.80 94.00616
1069.90 93.72072
1070.00 93.8918
1070.10 94.1564
1070.20 94.43011
1070.30 94.75989
1070.40 95.08967
1070.50 95.11851
1070.60 94.77954
1070.70 94.44056
1070.80 94.54916
1070.90 94.79909
1071.00 95.07049
1071.10 95.67828
1071.20 96.28607
1071.30 96.8564
1071.40 97.36298
1071.50 97.86955
1071.60 98.23603
1071.70 98.53659
1071.80 98.83714
1071.90 98.76139
1072.00 98.68185
1072.10 98.53756
1072.20 98.24224
1072.30 97.94691
1072.40 97.7597
1072.50 97.6416
1072.60 97.52351
1072.70 97.88792
1072.80 98.29429
1072.90 98.59508
1073.00 98.54242
1073.10 98.48977
1073.20 98.48157
1073.30 98.51123
1073.40 98.5409
1073.50 98.57099
1073.60 98.60116
1073.70 98.68866
1073.80 99.07714
1073.90 99.46562
1074.00 99.72414
1074.10 99.83613
1074.20 99.94811
1074.30 100.3251
1074.40 100.7768
1074.50 101.2133
1074.60 101.4743
1074.70 101.7353
1074.80 101.6906
1074.90 101.1675
1075.00 100.6445
1075.10 99.65375
1075.20 98.46248
1075.30 97.28014
1075.40 96.98091
1075.50 96.68168
1075.60 96.79179
1075.70 97.77174
1075.80 98.75169
1075.90 99.39782
1076.00 99.8479
1076.10 100.298
1076.20 99.88462
1076.30 99.41615
1076.40 99.06071
1076.50 99.04433
1076.60 99.02796
1076.70 99.27135
1076.80 99.71884
1076.90 100.1663
1077.00 100.4323
1077.10 100.6711
1077.20 100.7907
1077.30 100.367
1077.40 99.94333
1077.50 99.71299
1077.60 99.6839
1077.70 99.6548
1077.80 99.92051
1077.90 100.2599
1078.00 100.5857
1078.10 100.801
1078.20 101.0162
1078.30 100.9615
1078.40 100.5337
1078.50 100.106
1078.60 99.54276
1078.70 98.92937
1078.80 98.31013
1078.90 97.55056
1079.00 96.79098
1079.10 96.03475
1079.20 95.28475
1079.30 94.53475
1079.40 94.35811
1079.50 94.47683
1079.60 94.59555
1079.70 95.31825
1079.80 96.05962
1079.90 96.71908
1080.00 97.1679
1080.10 97.61671
1080.20 97.86713
1080.30 97.97968
1080.40 98.09223
1080.50 98.55889
1080.60 99.0649
1080.70 99.4996
1080.80 99.66607
1080.90 99.83253
1081.00 100.0121
1081.10 100.2038
1081.20 100.3954
1081.30 100.6911
1081.40 101.0081
1081.50 101.383
1081.60 102.1134
1081.70 102.8439
1081.80 103.0802
1081.90 102.7124
1082.00 102.3447
1082.10 101.6987
1082.20 100.9649
1082.30 100.2376
1082.40 99.59695
1082.50 98.95628
1082.60 98.74154
1082.70 99.22172
1082.80 99.70191
1082.90 100.3685
1083.00 101.1189
1083.10 101.8693
1083.20 102.5972
1083.30 103.3252
1083.40 103.8616
1083.50 103.9717
1083.60 104.0818
1083.70 103.8521
1083.80 103.414
1083.90 102.976
1084.00 102.6908
1084.10 102.4171
1084.20 102.0021
1084.30 101.1395
1084.40 100.2769
1084.50 99.79047
1084.60 99.61185
1084.70 99.43323
1084.80 99.36511
1084.90 99.31498
1085.00 99.34655
1085.10 99.77704
1085.20 100.2075
1085.30 100.3303
1085.40 100.1198
1085.50 99.90921
1085.60 100.4221
1085.70 101.1272
1085.80 101.8436
1085.90 102.6612
1086.00 103.4788
1086.10 104.1186
1086.20 104.5026
1086.30 104.8866
1086.40 104.6089
1086.50 104.0738
1086.60 103.5672
1086.70 103.743
1086.80 103.9187
1086.90 104.102
1087.00 104.2993
1087.10 104.4966
1087.20 104.477
1087.30 104.3458
1087.40 104.2145
1087.50 103.6128
1087.60 102.9965
1087.70 102.4659
1087.80 102.1558
1087.90 101.8457
1088.00 101.7476
1088.10 101.7968
1088.20 101.8461
1088.30 101.8772
1088.40 101.9064
1088.50 101.9521
1088.60 102.0601
1088.70 102.1681
1088.80 102.0227
1088.90 101.6434
1089.00 101.264
1089.10 101.0406
1089.20 100.849
1089.30 100.7682
1089.40 101.3669
1089.50 101.9656
1089.60 102.6126
1089.70 103.3185
1089.80 104.0245
1089.90 104.8637
1090.00 105.745
1090.10 106.567
1090.20 106.6024
1090.30 106.6378
1090.40 106.3325
1090.50 105.4944
1090.60 104.6562
1090.70 103.3596
1090.80 101.8666
1090.90 100.3884
1091.00 100.3737
1091.10 100.359
1091.20 100.7048
1091.30 101.8164
1091.40 102.9281
1091.50 104.0104
1091.60 105.0755
1091.70 106.1406
1091.80 106.1782
1091.90 106.1501
1092.00 105.9977
1092.10 105.4721
1092.20 104.9465
1092.30 104.348
1092.40 103.6922
1092.50 103.0363
1092.60 102.6477
1092.70 102.299
1092.80 102.0553
1092.90 102.2894
1093.00 102.5235
1093.10 102.8346
1093.20 103.2228
1093.30 103.6111
1093.40 103.624
1093.50 103.5488
1093.60 103.4828
1093.70 103.4833
1093.80 103.4839
1093.90 103.5142
1094.00 103.5839
1094.10 103.6535
1094.20 103.384
1094.30 102.9952
1094.40 102.593
1094.50 101.9336
1094.60 101.2742
1094.70 101.1861
1094.80 102.1137
1094.90 103.0413
1095.00 104.5163
1095.10 106.261
1095.20 108.0057
1095.30 108.8061
1095.40 109.5873
1095.50 109.9607
1095.60 109.3825
1095.70 108.8043
1095.80 108.252
1095.90 107.7162
1096.00 107.1804
1096.10 107.4429
1096.20 107.7748
1096.30 108.0285
1096.40 108.02
1096.50 108.0116
1096.60 107.2872
1096.70 105.953
1096.80 104.6187
1096.90 103.2842
1097.00 101.9496
1097.10 100.8004
1097.20 100.6245
1097.30 100.4487
1097.40 100.8189
1097.50 101.8048
1097.60 102.7908
1097.70 103.5843
1097.80 104.3267
1097.90 104.9927
1098.00 104.9715
1098.10 104.9504
1098.20 104.6012
1098.30 103.78
1098.40 102.9587
1098.50 102.4307
1098.60 102.0167
1098.70 101.6276
1098.80 102.0418
1098.90 102.4561
1099.00 103.0709
1099.10 104.0752
1099.20 105.0794
1099.30 105.6692
1099.40 106.0358
1099.50 106.4024
1099.60 106.6056
1099.70 106.8036
1099.80 106.8595
1099.90 106.5499
1100.00 106.2402
1100.10 105.9316
1100.20 105.6238
1100.30 105.316
1100.40 104.9065
1100.50 104.4856
1100.60 104.1272
1100.70 104.0037
1100.80 103.8802
1100.90 103.8481
1101.00 103.9004
1101.10 103.9526
1101.20 104.0072
1101.30 104.0623
1101.40 104.0929
1101.50 103.9851
1101.60 103.8772
1101.70 103.6498
1101.80 103.282
1101.90 102.9142
1102.00 102.2474
1102.10 101.4913
1102.20 100.8347
1102.30 101.3234
1102.40 101.8121
1102.50 102.4216
1102.60 103.22
1102.70 104.0185
1102.80 104.2921
1102.90 104.3514
1103.00 104.3866
1103.10 103.2431
1103.20 102.0996
1103.30 101.1224
1103.40 100.4832
1103.50 99.84388
1103.60 99.6875
1103.70 99.80276
1103.80 99.91802
1103.90 100.5101
1104.00 101.1273
1104.10 101.708
1104.20 102.185
1104.30 102.6621
1104.40 102.9908
1104.50 103.212
1104.60 103.4333
1104.70 103.2303
1104.80 102.9749
1104.90 102.6456
1105.00 102.0206
1105.10 101.3955
1105.20 100.491
1105.30 99.31803
1105.40 98.14503
1105.50 97.84318
1105.60 97.73255
1105.70 97.72105
1105.80 98.3185
1105.90 98.91596
1106.00 99.43888
1106.10 99.87069
1106.20 100.3025
1106.30 100.3266
1106.40 100.222
1106.50 100.0716
1106.60 99.31292
1106.70 98.55423
1106.80 98.09448
1106.90 98.12248
1107.00 98.15049
1107.10 98.46654
1107.20 98.90603
1107.30 99.3444
1107.40 99.67071
1107.50 99.99703
1107.60 100.0625
1107.70 99.57386
1107.80 99.08517
1107.90 99.26734
1108.00 99.84351
1108.10 100.4197
1108.20 101.3591
1108.30 102.3217
1108.40 103.124
1108.50 103.47
1108.60 103.816
1108.70 103.796
1108.80 103.5001
1108.90 103.2041
1109.00 103.0109
1109.10 102.8316
1109.20 102.8277
1109.30 103.5716
1109.40 104.3154
1109.50 104.9347
1109.60 105.4294
1109.70 105.9242
1109.80 105.4365
1109.90 104.7331
1110.00 103.9035
1110.10 102.2294
1110.20 100.5553
1110.30 99.39486
1110.40 98.88816
1110.50 98.38146
1110.60 98.47943
1110.70 98.77896
1110.80 99.0405
1110.90 98.79739
1111.00 98.55427
1111.10 98.13029
1111.20 97.41121
1111.30 96.69214
1111.40 96.55244
1111.50 96.67306
1111.60 96.79367
1111.70 97.195
1111.80 97.59632
1111.90 97.78627
1112.00 97.50571
1112.10 97.22514
1112.20 97.47754
1112.30 98.04294
1112.40 98.60833
1112.50 99.51652
1112.60 100.4466
1112.70 101.341
1112.80 102.1284
1112.90 102.9158
1113.00 103.115
1113.10 102.8519
1113.20 102.5889
1113.30 101.9084
1113.40 101.171
1113.50 100.3635
1113.60 99.25705
1113.70 98.15063
1113.80 97.82973
1113.90 98.29436
1114.00 98.75898
1114.10 100.1144
1114.20 101.6787
1114.30 103.1955
1114.40 104.3938
1114.50 105.5922
1114.60 105.9869
1114.70 105.3588
1114.80 104.7307
1114.90 103.8148
1115.00 102.8029
1115.10 101.8098
1115.20 101.1097
1115.30 100.4096
1115.40 100.1864
1115.50 100.7754
1115.60 101.3643
1115.70 101.8236
1115.80 102.2247
1115.90 102.6258
1116.00 102.5442
1116.10 102.4626
1116.20 102.3488
1116.30 102.1631
1116.40 101.9775
1116.50 101.8182
1116.60 101.6752
1116.70 101.5322
1116.80 100.9557
1116.90 100.3515
1117.00 99.61337
1117.10 98.47338
1117.20 97.33339
1117.30 96.58511
1117.40 96.1446
1117.50 95.7041
1117.60 96.15718
1117.70 96.74378
1117.80 97.42328
1117.90 98.49884
1118.00 99.5744
1118.10 100.591
1118.20 101.5488
1118.30 102.5065
1118.40 102.9661
1118.50 103.3088
1118.60 103.5438
1118.70 102.9883
1118.80 102.3797
1118.90 101.7008
1119.00 101.0218
1119.10 100.4466
1119.20 100.3774
1119.30 100.3082
1119.40 100.239
1119.50 100.2436
1119.60 100.2545
1119.70 100.2655
1119.80 100.4653
1119.90 100.7624
1120.00 101.0594
1120.10 101.3488
1120.20 101.6267
1120.30 101.9046
1120.40 102.2241
1120.50 102.7996
1120.60 103.3751
1120.70 103.9506
1120.80 103.8809
1120.90 103.7315
1121.00 103.582
1121.10 103.3405
1121.20 103.0449
1121.30 102.7493
1121.40 102.4239
1121.50 102.0502
1121.60 101.6764
1121.70 101.3008
1121.80 100.9121
1121.90 100.5234
1122.00 100.1347
1122.10 99.94866
1122.20 99.79555
1122.30 99.64245
1122.40 99.98066
1122.50 100.633
1122.60 101.2853
1122.70 101.8956
1122.80 102.4277
1122.90 102.9599
1123.00 103.3923
1123.10 102.9272
1123.20 102.462
1123.30 101.9969
1123.40 101.7786
1123.50 101.6074
1123.60 101.4362
1123.70 101.7942
1123.80 102.5355
1123.90 103.2768
1124.00 104.0204
1124.10 104.7689
1124.20 105.5174
1124.30 106.189
1124.40 105.8397
1124.50 105.4903
1124.60 105.1409
1124.70 104.2121
1124.80 103.1562
1124.90 102.1003
1125.00 101.2251
1125.10 100.492
1125.20 99.75888
1125.30 99.40539
1125.40 99.89688
1125.50 100.3884
1125.60 100.8971
1125.70 101.7326
1125.80 102.568
1125.90 103.4035
1126.00 103.5975
1126.10 103.6312
1126.20 103.6648
1126.30 103.7567
1126.40 103.8981
1126.50 104.0396
1126.60 104.3308
1126.70 104.9886
1126.80 105.6463
1126.90 106.2842
1127.00 106.2818
1127.10 106.2794
1127.20 106.277
1127.30 105.4028
1127.40 104.2827
1127.50 103.1626
1127.60 102.4629
1127.70 102.1512
1127.80 101.8396
1127.90 101.6811
1128.00 101.9365
1128.10 102.1919
1128.20 102.4482
1128.30 102.7884
1128.40 103.1285
1128.50 103.4687
1128.60 103.5001
1128.70 103.4341
1128.80 103.368
1128.90 103.4395
1129.00 103.6432
1129.10 103.8469
1129.20 103.9901
1129.30 103.952
1129.40 103.9139
1129.50 103.8758
1129.60 103.7721
1129.70 103.6685
1129.80 103.5649
1129.90 103.3472
1130.00 103.0895
1130.10 102.8318
1130.20 102.4197
1130.30 101.8469
1130.40 101.2741
1130.50 100.8042
1130.60 100.6598
1130.70 100.5154
1130.80 100.3711
1130.90 100.7159
1131.00 101.0707
1131.10 101.4255
1131.20 102.0981
1131.30 102.8881
1131.40 103.6782
1131.50 104.1584
1131.60 104.3028
1131.70 104.4473
1131.80 104.5518
1131.90 104.515
1132.00 104.4782
1132.10 104.4414
1132.20 104.0858
1132.30 103.7202
1132.40 103.3547
1132.50 103.3507
1132.60 103.4943
1132.70 103.6379
1132.80 103.5357
1132.90 103.1448
1133.00 102.7539
1133.10 102.299
1133.20 101.6033
1133.30 100.9075
1133.40 100.2117
1133.50 99.57372
1133.60 98.93817
1133.70 98.30262
1133.80 97.79627
1133.90 97.34529
1134.00 96.89431
1134.10 96.44401
1134.20 95.99454
1134.30 95.54507
1134.40 95.25212
1134.50 95.58525
1134.60 95.91838
1134.70 96.25151
1134.80 97.19128
1134.90 98.16978
1135.00 99.14827
1135.10 99.77357
1135.20 100.2402
1135.30 100.7068
1135.40 100.8051
1135.50 100.4348
1135.60 100.0644
1135.70 99.75311
1135.80 99.69395
1135.90 99.63478
1136.00 99.57561
1136.10 99.73503
1136.20 99.90841
1136.30 100.0818
1136.40 100.0269
1136.50 99.86462
1136.60 99.70234
1136.70 99.43255
1136.80 99.02025
1136.90 98.60795
1137.00 98.19755
1137.10 97.79584
1137.20 97.39412
1137.30 96.9924
1137.40 96.19361
1137.50 95.36494
1137.60 94.53627
1137.70 92.92687
1137.80 90.93292
1137.90 88.93898
1138.00 87.41387
1138.10 86.5362
1138.20 85.65853
1138.30 85.1321
1138.40 86.32052
1138.50 87.50894
1138.60 88.69736
1138.70 90.72738
1138.80 92.83059
1138.90 94.9338
1139.00 96.14978
1139.10 96.92877
1139.20 97.70776
1139.30 97.87487
1139.40 97.19702
1139.50 96.51916
1139.60 95.72852
1139.70 94.34576
1139.80 92.963
1139.90 91.58023
1140.00 89.76696
1140.10 87.91111
1140.20 86.05526
1140.30 84.72414
1140.40 83.66334
1140.50 82.60253
1140.60 82.39759
1140.70 83.42425
1140.80 84.45091
1140.90 85.69939
1141.00 88.11247
1141.10 90.52554
1141.20 92.93861
1141.30 94.91131
1141.40 96.84045
1141.50 98.7696
1141.60 99.66656
1141.70 100.0318
1141.80 100.397
1141.90 100.6774
1142.00 100.8359
1142.10 100.9943
1142.20 101.1294
1142.30 101.1418
1142.40 101.1542
1142.50 101.1666
1142.60 101.4737
1142.70 101.8099
1142.80 102.1462
1142.90 102.2249
1143.00 102.165
1143.10 102.1051
1143.20 101.9402
1143.30 101.6175
1143.40 101.2949
1143.50 100.9935
1143.60 100.8124
1143.70 100.6314
1143.80 100.4503
1143.90 100.2408
1144.00 100.0281
1144.10 99.81542
1144.20 99.67456
1144.30 99.57239
1144.40 99.47021
1144.50 99.37612
1144.60 99.29417
1144.70 99.21223
1144.80 99.19262
1144.90 99.52631
1145.00 99.86
1145.10 100.1937
1145.20 100.2501
1145.30 100.2757
1145.40 100.3013
1145.50 100.3935
1145.60 100.5217
1145.70 100.6498
1145.80 100.8845
1145.90 101.2792
1146.00 101.6738
1146.10 102.0811
1146.20 102.5605
1146.30 103.0398
1146.40 103.5192
1146.50 103.8995
1146.60 104.2689
1146.70 104.6383
1146.80 104.7042
1146.90 104.6067
1147.00 104.5092
1147.10 104.3364
1147.20 104.051
1147.30 103.7655
1147.40 103.535
1147.50 103.616
1147.60 103.697
1147.70 103.778
1147.80 104.2475
1147.90 104.7555
1148.00 105.2635
1148.10 105.486
1148.20 105.5614
1148.30 105.6368
1148.40 105.587
1148.50 105.357
1148.60 105.1269
1148.70 104.9723
1148.80 105.2139
1148.90 105.4556
1149.00 105.6972
1149.10 105.7791
1149.20 105.8451
1149.30 105.9112
1149.40 105.645
1149.50 105.2077
1149.60 104.7705
1149.70 104.487
1149.80 104.4249
1149.90 104.3628
1150.00 104.3695
1150.10 104.7374
1150.20 105.1052
1150.30 105.473
1150.40 105.901
1150.50 106.3349
1150.60 106.7687
1150.70 106.8318
1150.80 106.7039
1150.90 106.5759
1151.00 106.4824
1151.10 106.4364
1151.20 106.3904
1151.30 106.305
1151.40 106.0269
1151.50 105.7489
1151.60 105.4708
1151.70 105.2287
1151.80 104.9897
1151.90 104.7508
1152.00 104.2073
1152.10 103.5139
1152.20 102.8204
1152.30 102.2232
1152.40 101.7588
1152.50 101.2944
1152.60 100.9349
1152.70 101.0875
1152.80 101.24
1152.90 101.3925
1153.00 101.9209
1153.10 102.4776
1153.20 103.0343
1153.30 103.2479
1153.40 103.3001
1153.50 103.3522
1153.60 103.4222
1153.70 103.516
1153.80 103.6098
1153.90 103.7189
1154.00 103.8981
1154.10 104.0772
1154.20 104.2563
1154.30 104.3622
1154.40 104.4625
1154.50 104.5629
1154.60 104.6114
1154.70 104.6367
1154.80 104.662
1154.90 104.7345
1155.00 104.8673
1155.10 105
1155.20 105.1067
1155.30 105.1028
1155.40 105.0988
1155.50 105.0949
1155.60 104.9712
1155.70 104.84
1155.80 104.7087
1155.90 104.8301
1156.00 105.0597
1156.10 105.2894
1156.20 105.4881
1156.30 105.6491
1156.40 105.8101
1156.50 105.9175
1156.60 105.8108
1156.70 105.7042
1156.80 105.5975
1156.90 105.3455
1157.00 105.0875
1157.10 104.8294
1157.20 104.472
1157.30 104.0741
1157.40 103.6761
1157.50 103.3891
1157.60 103.2324
1157.70 103.0757
1157.80 103.0441
1157.90 103.4833
1158.00 103.9225
1158.10 104.3617
1158.20 104.7517
1158.30 105.1401
1158.40 105.5285
1158.50 105.2567
1158.60 104.728
1158.70 104.1993
1158.80 103.6083
1158.90 102.9468
1159.00 102.2853
1159.10 101.6371
1159.20 101.0337
1159.30 100.4302
1159.40 99.82674
1159.50 99.77079
1159.60 99.72601
1159.70 99.68123
1159.80 99.74247
1159.90 99.84292
1160.00 99.94337
1160.10 100.19
1160.20 100.5889
1160.30 100.9877
1160.40 101.3297
1160.50 101.4913
1160.60 101.6529
1160.70 101.8146
1160.80 102.2394
1160.90 102.6642
1161.00 103.089
1161.10 103.589
1161.20 104.1141
1161.30 104.6393
1161.40 104.9113
1161.50 104.9304
1161.60 104.9494
1161.70 104.8706
1161.80 104.5131
1161.90 104.1557
1162.00 103.8017
1162.10 103.7835
1162.20 103.7652
1162.30 103.747
1162.40 104.1085
1162.50 104.5834
1162.60 105.0583
1162.70 105.5653
1162.80 106.1018
1162.90 106.6384
1163.00 106.9958
1163.10 106.8689
1163.20 106.7419
1163.30 106.5971
1163.40 105.8757
1163.50 105.1544
1163.60 104.433
1163.70 103.8438
1163.80 103.292
1163.90 102.7402
1164.00 102.6776
1164.10 103.0317
1164.20 103.3858
1164.30 103.8209
1164.40 104.4542
1164.50 105.0875
1164.60 105.6731
1164.70 105.3534
1164.80 105.0336
1164.90 104.7138
1165.00 104.0355
1165.10 103.2675
1165.20 102.4995
1165.30 101.9955
1165.40 101.6991
1165.50 101.4026
1165.60 101.3746
1165.70 101.9443
1165.80 102.5139
1165.90 103.0754
1166.00 103.5274
1166.10 103.9794
1166.20 104.4314
1166.30 104.3727
1166.40 104.2018
1166.50 104.0309
1166.60 103.7104
1166.70 103.2816
1166.80 102.8528
1166.90 102.4586
1167.00 102.1348
1167.10 101.811
1167.20 101.5023
1167.30 101.346
1167.40 101.1897
1167.50 101.0334
1167.60 100.7323
1167.70 100.4035
1167.80 100.0748
1167.90 99.61015
1168.00 99.05496
1168.10 98.49977
1168.20 97.63292
1168.30 96.18727
1168.40 94.74162
1168.50 93.20511
1168.60 90.93341
1168.70 88.66172
1168.80 86.39002
1168.90 84.78884
1169.00 83.2968
1169.10 81.80477
1169.20 81.74068
1169.30 82.55178
1169.40 83.36288
1169.50 84.69809
1169.60 86.92571
1169.70 89.15332
1169.80 91.3461
1169.90 93.30567
1170.00 95.26524
1170.10 97.22481
1170.20 98.4319
1170.30 99.54598
1170.40 100.6601
1170.50 101.3693
1170.60 101.8508
1170.70 102.3323
1170.80 102.6233
1170.90 102.6286
1171.00 102.6338
1171.10 102.6249
1171.20 102.5353
1171.30 102.4457
1171.40 102.3561
1171.50 102.3729
1171.60 102.4001
1171.70 102.4274
1171.80 102.4204
1171.90 102.3967
1172.00 102.3729
1172.10 102.3917
1172.20 102.4692
1172.30 102.5468
1172.40 102.6607
1172.50 102.9407
1172.60 103.2207
1172.70 103.5006
1172.80 103.6719
1172.90 103.8361
1173.00 104.0004
1173.10 103.9309
1173.20 103.7563
1173.30 103.5818
1173.40 103.3068
1173.50 102.909
1173.60 102.5112
1173.70 102.183
1173.80 102.1166
1173.90 102.0502
1174.00 101.9838
1174.10 102.2918
1174.20 102.6155
1174.30 102.9392
1174.40 103.2251
1174.50 103.4964
1174.60 103.7676
1174.70 103.725
1174.80 103.3423
1174.90 102.9597
1175.00 102.5031
1175.10 101.7991
1175.20 101.095
1175.30 100.391
1175.40 100.0974
1175.50 99.80786
1175.60 99.51838
1175.70 99.28981
1175.80 99.08155
1175.90 98.87329
1176.00 98.50472
1176.10 97.97584
1176.20 97.44697
1176.30 96.67129
1176.40 95.19316
1176.50 93.71504
1176.60 92.21851
1176.70 89.81984
1176.80 87.42118
1176.90 85.02252
1177.00 82.80992
1177.10 80.6498
1177.20 78.48968
1177.30 77.48291
1177.40 77.49892
1177.50 77.51493
1177.60 78.05625
1177.70 79.88365
1177.80 81.71106
1177.90 83.56568
1178.00 85.93736
1178.10 88.30904
1178.20 90.68072
1178.30 92.38616
1178.40 93.93532
1178.50 95.48449
1178.60 96.67498
1178.70 97.58364
1178.80 98.49231
1178.90 99.19709
1179.00 99.46859
1179.10 99.74008
1179.20 99.99189
1179.30 100.0173
1179.40 100.0426
1179.50 100.068
1179.60 100.1906
1179.70 100.3318
1179.80 100.473
1179.90 100.7931
1180.00 101.2324
1180.10 101.6718
1180.20 102.0783
1180.30 102.4239
1180.40 102.7694
1180.50 103.0633
1180.60 102.9394
1180.70 102.8156
1180.80 102.6917
1180.90 102.4228
1181.00 102.1323
1181.10 101.8418
1181.20 101.6077
1181.30 101.4069
1181.40 101.206
1181.50 101.115
1181.60 101.1959
1181.70 101.2768
1181.80 101.3885
1181.90 101.6742
1182.00 101.96
1182.10 102.2458
1182.20 102.384
1182.30 102.5058
1182.40 102.6276
1182.50 102.6828
1182.60 102.7037
1182.70 102.7246
1182.80 102.7353
1182.90 102.7319
1183.00 102.7285
1183.10 102.6483
1183.20 102.218
1183.30 101.7877
1183.40 101.3574
1183.50 100.9672
1183.60 100.5795
1183.70 100.1919
1183.80 100.3283
1183.90 100.6893
1184.00 101.0503
1184.10 101.4872
1184.20 102.0131
1184.30 102.539
1184.40 102.8707
1184.50 102.5139
1184.60 102.157
1184.70 101.8002
1184.80 101.2673
1184.90 100.7291
1185.00 100.1908
1185.10 100.2121
1185.20 100.4404
1185.30 100.6687
1185.40 101.0482
1185.50 101.5849
1185.60 102.1217
1185.70 102.591
1185.80 102.858
1185.90 103.125
1186.00 103.3878
1186.10 103.2303
1186.20 103.0729
1186.30 102.9154
1186.40 102.6379
1186.50 102.3244
1186.60 102.011
1186.70 101.7686
1186.80 101.5893
1186.90 101.4099
1187.00 101.3311
1187.10 101.4985
1187.20 101.6659
1187.30 101.8355
1187.40 102.0468
1187.50 102.2582
1187.60 102.4696
1187.70 102.122
1187.80 101.6433
1187.90 101.1646
1188.00 100.4361
1188.10 99.51905
1188.20 98.60202
1188.30 97.92325
1188.40 97.72826
1188.50 97.53326
1188.60 97.40699
1188.70 97.97561
1188.80 98.54423
1188.90 99.11285
1189.00 99.6968
1189.10 100.2835
1189.20 100.8701
1189.30 101.2167
1189.40 101.4097
1189.50 101.6028
1189.60 101.8178
1189.70 102.0702
1189.80 102.3226
1189.90 102.5243
1190.00 102.3862
1190.10 102.2482
1190.20 102.1101
1190.30 101.9277
1190.40 101.7399
1190.50 101.552
1190.60 101.4563
1190.70 101.4103
1190.80 101.3643
1190.90 101.471
1191.00 101.7975
1191.10 102.124
1191.20 102.4357
1191.30 102.6749
1191.40 102.914
1191.50 103.1532
1191.60 103.2312
1191.70 103.2971
1191.80 103.363
1191.90 103.2536
1192.00 103.0655
1192.10 102.8773
1192.20 102.7981
1192.30 102.8522
1192.40 102.9062
1192.50 102.9713
1192.60 103.078
1192.70 103.1847
1192.80 103.2915
1192.90 103.3981
1193.00 103.5048
1193.10 103.6115
1193.20 103.2558
1193.30 102.7292
1193.40 102.2026
1193.50 101.6348
1193.60 101.024
1193.70 100.4133
1193.80 99.85614
1193.90 99.4513
1194.00 99.04646
1194.10 98.64625
1194.20 98.47327
1194.30 98.30029
1194.40 98.12731
1194.50 97.67759
1194.60 97.14981
1194.70 96.62203
1194.80 96.34611
1194.90 96.28472
1195.00 96.22333
1195.10 96.3441
1195.20 96.88992
1195.30 97.43574
1195.40 97.96638
1195.50 98.25926
1195.60 98.55215
1195.70 98.84503
1195.80 98.54391
1195.90 98.1124
1196.00 97.68089
1196.10 97.28993
1196.20 96.92834
1196.30 96.56674
1196.40 96.32975
1196.50 96.33463
1196.60 96.33951
1196.70 96.30461
1196.80 95.94787
1196.90 95.59114
1197.00 95.23441
1197.10 94.48602
1197.20 93.67911
1197.30 92.8722
1197.40 92.24055
1197.50 91.71183
1197.60 91.18311
1197.70 90.96728
1197.80 91.24081
1197.90 91.51435
1198.00 91.88083
1198.10 92.77396
1198.20 93.6671
1198.30 94.56024
1198.40 95.06482
1198.50 95.53098
1198.60 95.99713
1198.70 95.83179
1198.80 95.36927
1198.90 94.90675
1199.00 94.25036
1199.10 93.34724
1199.20 92.44411
1199.30 91.70947
1199.40 91.64876
1199.50 91.58805
1199.60 91.52734
1199.70 91.73173
1199.80 91.94717
1199.90 92.16261
1200.00 92.35206
1200.10 92.5314
1200.20 92.71074
1200.30 92.90067
1200.40 93.10162
1200.50 93.30258
1200.60 93.54913
1200.70 93.93248
1200.80 94.31583
1200.90 94.69666
1201.00 94.82807
1201.10 94.95948
1201.20 95.09089
1201.30 94.91614
1201.40 94.64994
1201.50 94.38373
1201.60 94.18047
1201.70 94.03081
1201.80 93.88115
1201.90 93.80436
1202.00 93.8976
1202.10 93.99083
1202.20 94.08711
1202.30 94.23107
1202.40 94.37503
1202.50 94.51899
1202.60 94.29556
1202.70 93.99149
1202.80 93.68742
1202.90 93.57854
1203.00 93.60532
1203.10 93.63209
1203.20 93.90177
1203.30 94.62255
1203.40 95.34334
1203.50 96.08924
1203.60 97.03833
1203.70 97.98742
1203.80 98.93651
1203.90 99.24019
1204.00 99.44743
1204.10 99.65468
1204.20 99.41155
1204.30 98.9151
1204.40 98.41864
1204.50 98.02598
1204.60 97.78899
1204.70 97.55201
1204.80 97.41817
1204.90 97.82583
1205.00 98.2335
1205.10 98.64117
1205.20 99.23008
1205.30 99.83264
1205.40 100.4352
1205.50 100.8764
1205.60 101.2451
1205.70 101.6138
1205.80 101.8269
1205.90 101.8497
1206.00 101.8725
1206.10 101.7887
1206.20 101.3272
1206.30 100.8656
1206.40 100.404
1206.50 99.89734
1206.60 99.38975
1206.70 98.88216
1206.80 98.93584
1206.90 99.18672
1207.00 99.43761
1207.10 99.93857
1207.20 100.6798
1207.30 101.421
1207.40 102.1086
1207.50 102.6511
1207.60 103.1935
1207.70 103.7223
1207.80 103.8091
1207.90 103.8959
1208.00 103.9826
1208.10 103.7504
1208.20 103.4385
1208.30 103.1266
1208.40 102.4352
1208.50 101.4456
1208.60 100.4561
1208.70 99.52553
1208.80 98.72042
1208.90 97.91531
1209.00 97.22106
1209.10 97.6476
1209.20 98.07414
1209.30 98.50068
1209.40 99.59753
1209.50 100.8127
1209.60 102.0278
1209.70 102.5852
1209.80 102.7394
1209.90 102.8937
1210.00 102.5222
1210.10 101.2929
1210.20 100.0636
1210.30 98.81131
1210.40 97.41815
1210.50 96.02499
1210.60 94.63182
1210.70 94.17101
1210.80 93.80241
1210.90 93.43381
1211.00 93.64157
1211.10 94.13321
1211.20 94.62486
1211.30 95.14939
1211.40 95.71751
1211.50 96.28563
1211.60 96.85486
1211.70 97.4285
1211.80 98.00213
1211.90 98.57577
1212.00 99.35722
1212.10 100.1473
1212.20 100.9374
1212.30 101.2415
1212.40 101.3657
1212.50 101.4899
1212.60 101.1106
1212.70 100.2071
1212.80 99.30357
1212.90 98.45861
1213.00 97.78028
1213.10 97.10196
1213.20 96.45337
1213.30 97.26162
1213.40 98.06987
1213.50 98.87813
1213.60 100.0759
1213.70 101.3772
1213.80 102.6786
1213.90 103.502
1214.00 103.9346
1214.10 104.3671
1214.20 104.5712
1214.30 104.2899
1214.40 104.0085
1214.50 103.7474
1214.60 103.7189
1214.70 103.6904
1214.80 103.6618
1214.90 103.7842
1215.00 103.9333
1215.10 104.0823
1215.20 103.9536
1215.30 103.6474
1215.40 103.3412
1215.50 102.9438
1215.60 102.3977
1215.70 101.8515
1215.80 101.3652
1215.90 101.246
1216.00 101.1268
1216.10 101.0077
1216.20 101.2458
1216.30 101.5237
1216.40 101.8016
1216.50 102.1909
1216.60 102.6351
1216.70 103.0793
1216.80 103.4009
1216.90 103.5666
1217.00 103.7322
1217.10 103.8341
1217.20 103.6808
1217.30 103.5275
1217.40 103.3741
1217.50 103.4735
1217.60 103.5807
1217.70 103.6879
1217.80 104.013
1217.90 104.4187
1218.00 104.8243
1218.10 105.225
1218.20 105.6205
1218.30 106.016
1218.40 106.2075
1218.50 105.8182
1218.60 105.429
1218.70 105.0437
1218.80 104.7883
1218.90 104.5328
1219.00 104.2773
1219.10 104.12
1219.20 103.9889
1219.30 103.8577
1219.40 103.7907
1219.50 103.7741
1219.60 103.7575
1219.70 103.7052
1219.80 103.5772
1219.90 103.4492
1220.00 103.3415
1220.10 103.4387
1220.20 103.5358
1220.30 103.6329
1220.40 103.6758
1220.50 103.7099
1220.60 103.7439
1220.70 103.4638
1220.80 102.9911
1220.90 102.5185
1221.00 102.0381
1221.10 101.5456
1221.20 101.0531
1221.30 100.6052
1221.40 100.4094
1221.50 100.2136
1221.60 100.0179
1221.70 100.0706
1221.80 100.1449
1221.90 100.2193
1222.00 100.2183
1222.10 100.1836
1222.20 100.1489
1222.30 100.1915
1222.40 100.3287
1222.50 100.4659
1222.60 100.7698
1222.70 101.6648
1222.80 102.5598
1222.90 103.4548
1223.00 104.5416
1223.10 105.6323
1223.20 106.723
1223.30 107.3075
1223.40 107.7232
1223.50 108.1389
1223.60 108.1499
1223.70 107.7874
1223.80 107.425
1223.90 107.0529
1224.00 106.6561
1224.10 106.2592
1224.20 105.8817
1224.30 105.8693
1224.40 105.8569
1224.50 105.8445
1224.60 106.1093
1224.70 106.435
1224.80 106.7607
1224.90 107.022
1225.00 107.2368
1225.10 107.4515
1225.20 107.43
1225.30 106.9699
1225.40 106.5098
1225.50 106.0473
1225.60 105.567
1225.70 105.0868
1225.80 104.6065
1225.90 104.7578
1226.00 104.9951
1226.10 105.2325
1226.20 105.7798
1226.30 106.494
1226.40 107.2082
1226.50 107.6857
1226.60 107.8365
1226.70 107.9873
1226.80 108.0135
1226.90 107.4722
1227.00 106.9309
1227.10 106.3897
1227.20 106.1705
1227.30 105.9683
1227.40 105.7661
1227.50 106.0057
1227.60 106.4171
1227.70 106.8285
1227.80 107.1958
1227.90 107.5153
1228.00 107.8347
1228.10 108.0526
1228.20 107.9658
1228.30 107.879
1228.40 107.7844
1228.50 107.3077
1228.60 106.8311
1228.70 106.3544
1228.80 105.9471
1228.90 105.5581
1229.00 105.1692
1229.10 104.6535
1229.20 104.0342
1229.30 103.4149
1229.40 102.9294
1229.50 102.7282
1229.60 102.5269
1229.70 102.3808
1229.80 102.792
1229.90 103.2032
1230.00 103.6144
1230.10 104.435
1230.20 105.3279
1230.30 106.2208
1230.40 106.758
1230.50 107.077
1230.60 107.3961
1230.70 107.4387
1230.80 107.0488
1230.90 106.6589
1231.00 106.2798
1231.10 105.9569
1231.20 105.634
1231.30 105.3111
1231.40 105.2014
1231.50 105.1104
1231.60 105.0193
1231.70 104.9581
1231.80 104.9102
1231.90 104.8623
1232.00 104.7906
1232.10 104.6911
1232.20 104.5915
1232.30 104.5076
1232.40 104.4759
1232.50 104.4442
1232.60 104.4125
1232.70 104.0946
1232.80 103.7768
1232.90 103.4589
1233.00 103.1959
1233.10 102.9503
1233.20 102.7046
1233.30 102.7307
1233.40 102.9977
1233.50 103.2648
1233.60 103.5729
1233.70 103.977
1233.80 104.381
1233.90 104.7357
1234.00 104.4346
1234.10 104.1334
1234.20 103.8323
1234.30 103.5284
1234.40 103.224
1234.50 102.9197
1234.60 102.9669
1234.70 103.2485
1234.80 103.5301
1234.90 103.8957
1235.00 104.4041
1235.10 104.9125
1235.20 105.3174
1235.30 105.0862
1235.40 104.855
1235.50 104.6238
1235.60 104.2039
1235.70 103.7654
1235.80 103.3269
1235.90 103.1672
1236.00 103.1387
1236.10 103.1102
1236.20 103.425
1236.30 104.1769
1236.40 104.9288
1236.50 105.6004
1236.60 105.97
1236.70 106.3395
1236.80 106.7091
1236.90 106.2458
1237.00 105.7654
1237.10 105.285
1237.20 104.6019
1237.30 103.8512
1237.40 103.1005
1237.50 102.8077
1237.60 102.9376
1237.70 103.0675
1237.80 103.3385
1237.90 103.9549
1238.00 104.5713
1238.10 105.1425
1238.20 105.0059
1238.30 104.8693
1238.40 104.7327
1238.50 103.6683
1238.60 102.4001
1238.70 101.1319
1238.80 99.9058
1238.90 98.70886
1239.00 97.51193
1239.10 96.70454
1239.20 96.58966
1239.30 96.47479
1239.40 96.45374
1239.50 97.06057
1239.60 97.66741
1239.70 98.27424
1239.80 98.65405
1239.90 99.00863
1240.00 99.36322
1240.10 99.16949
1240.20 98.7057
1240.30 98.2419
1240.40 97.87839
1240.50 97.64251
1240.60 97.40663
1240.70 97.34201
1240.80 97.92166
1240.90 98.50131
1241.00 99.08096
1241.10 99.56141
1241.20 100.0388
1241.30 100.5162
1241.40 100.223
1241.50 99.65914
1241.60 99.09527
1241.70 98.45248
1241.80 97.73387
1241.90 97.01525
1242.00 96.45366
1242.10 96.29583
1242.20 96.138
1242.30 95.967
1242.40 95.54591
1242.50 95.12481
1242.60 94.70371
1242.70 93.41907
1242.80 91.94487
1242.90 90.47067
1243.00 89.05483
1243.10 87.67956
1243.20 86.30428
1243.30 85.53127
1243.40 85.82894
1243.50 86.12661
1243.60 86.59599
1243.70 88.21444
1243.80 89.83289
1243.90 91.45133
1244.00 92.93014
1244.10 94.39343
1244.20 95.85673
1244.30 96.91112
1244.40 97.76412
1244.50 98.61711
1244.60 99.42328
1244.70 100.1699
1244.80 100.9164
1244.90 101.605
1245.00 102.0753
1245.10 102.5456
1245.20 103.0159
1245.30 103.0497
1245.40 103.0746
1245.50 103.0995
1245.60 102.7899
1245.70 102.3687
1245.80 101.9476
1245.90 101.6085
1246.00 101.3451
1246.10 101.0817
1246.20 100.9903
1246.30 101.3196
1246.40 101.649
1246.50 101.9951
1246.60 102.6036
1246.70 103.2122
1246.80 103.8208
1246.90 104.1267
1247.00 104.3706
1247.10 104.6145
1247.20 104.5611
1247.30 104.3094
1247.40 104.0577
1247.50 103.7784
1247.60 103.452
1247.70 103.1257
1247.80 102.805
1247.90 102.519
1248.00 102.2331
1248.10 101.9472
1248.20 101.9129
1248.30 101.9035
1248.40 101.8941
1248.50 102.0287
1248.60 102.2309
1248.70 102.4332
1248.80 102.5818
1248.90 102.6649
1249.00 102.748
1249.10 102.7772
1249.20 102.6156
1249.30 102.4539
1249.40 102.2923
1249.50 102.0879
1249.60 101.883
1249.70 101.6782
1249.80 101.7485
1249.90 101.9056
1250.00 102.0628
1250.10 102.1074
1250.20 102.0523
1250.30 101.9972
1250.40 101.8802
1250.50 101.619
1250.60 101.3578
1250.70 101.0804
1250.80 100.588
1250.90 100.0957
1251.00 99.60339
1251.10 99.1297
1251.20 98.65956
1251.30 98.18942
1251.40 97.34262
1251.50 96.255
1251.60 95.16738
1251.70 93.72821
1251.80 91.71547
1251.90 89.70273
1252.00 87.7496
1252.10 86.13424
1252.20 84.51889
1252.30 82.90354
1252.40 83.38394
1252.50 84.04658
1252.60 84.70923
1252.70 86.60786
1252.80 89.06178
1252.90 91.51571
1253.00 93.77484
1253.10 95.80531
1253.20 97.83578
1253.30 99.58459
1253.40 100.3904
1253.50 101.1963
1253.60 102.0021
1253.70 102.4479
1253.80 102.8936
1253.90 103.3394
1254.00 103.4756
1254.10 103.5244
1254.20 103.5732
1254.30 103.5611
1254.40 103.499
1254.50 103.437
1254.60 103.3664
1254.70 103.2779
1254.80 103.1894
1254.90 103.1589
1255.00 103.7151
1255.10 104.2713
1255.20 104.8275
1255.30 105.3717
1255.40 105.914
1255.50 106.4562
1255.60 106.8856
1255.70 107.2485
1255.80 107.6115
1255.90 107.6605
1256.00 107.2384
1256.10 106.8163
1256.20 106.4028
1256.30 106.0313
1256.40 105.6597
1256.50 105.2882
1256.60 105.2765
1256.70 105.2878
1256.80 105.2991
1256.90 105.4341
1257.00 105.6197
1257.10 105.8052
1257.20 105.9001
1257.30 105.9006
1257.40 105.9011
1257.50 105.9747
1257.60 106.2567
1257.70 106.5387
1257.80 106.8276
1257.90 107.3393
1258.00 107.851
1258.10 108.3626
1258.20 108.4737
1258.30 108.4847
1258.40 108.4957
1258.50 108.0578
1258.60 107.2814
1258.70 106.505
1258.80 105.7271
1258.90 104.9465
1259.00 104.1658
1259.10 103.4502
1259.20 103.2613
1259.30 103.0723
1259.40 102.8834
1259.50 103.2876
1259.60 103.7651
1259.70 104.2425
1259.80 104.6726
1259.90 105.0782
1260.00 105.4838
1260.10 105.8547
1260.20 106.1794
1260.30 106.5042
1260.40 106.8497
1260.50 107.2783
1260.60 107.707
1260.70 108.1356
1260.80 108.7803
1260.90 109.4317
1261.00 110.083
1261.10 110.1702
1261.20 110.059
1261.30 109.9479
1261.40 109.5568
1261.50 108.9072
1261.60 108.2576
1261.70 107.6442
1261.80 107.1194
1261.90 106.5945
1262.00 106.1146
1262.10 106.3392
1262.20 106.5639
1262.30 106.7885
1262.40 107.0846
1262.50 107.3953
1262.60 107.706
1262.70 107.8238
1262.80 107.8131
1262.90 107.8023
1263.00 107.7167
1263.10 107.5092
1263.20 107.3017
1263.30 107.0808
1263.40 106.7838
1263.50 106.4868
1263.60 106.1898
1263.70 105.8294
1263.80 105.4634
1263.90 105.0974
1264.00 104.7106
1264.10 104.3145
1264.20 103.9183
1264.30 103.76
1264.40 103.8699
1264.50 103.9798
1264.60 104.1974
1264.70 104.756
1264.80 105.3145
1264.90 105.8714
1265.00 106.2557
1265.10 106.64
1265.20 107.0244
1265.30 107.1386
1265.40 107.1766
1265.50 107.2146
1265.60 107.1794
1265.70 107.0842
1265.80 106.989
1265.90 106.9505
1266.00 107.027
1266.10 107.1036
1266.20 107.1691
1266.30 107.1353
1266.40 107.1015
1266.50 107.0677
1266.60 107.2941
1266.70 107.5594
1266.80 107.8246
1266.90 108.1458
1267.00 108.4983
1267.10 108.8509
1267.20 109.1908
1267.30 109.5133
1267.40 109.8357
1267.50 110.1319
1267.60 110.3162
1267.70 110.5005
1267.80 110.6849
1267.90 110.6
1268.00 110.504
1268.10 110.4079
1268.20 110.1619
1268.30 109.8603
1268.40 109.5588
1268.50 109.2558
1268.60 108.9514
1268.70 108.647
1268.80 108.4278
1268.90 108.4277
1269.00 108.4275
1269.10 108.4254
1269.20 108.3869
1269.30 108.3483
1269.40 108.3098
1269.50 108.077
1269.60 107.8016
1269.70 107.5262
1269.80 107.2509
1269.90 106.9757
1270.00 106.7005
1270.10 106.4592
1270.20 106.2757
1270.30 106.0922
1270.40 106.0051
1270.50 106.5097
1270.60 107.0144
1270.70 107.519
1270.80 108.1445
1270.90 108.7805
1271.00 109.4165
1271.10 109.9139
1271.20 110.349
1271.30 110.7841
1271.40 110.9038
1271.50 110.6533
1271.60 110.4028
1271.70 110.1757
1271.80 110.0228
1271.90 109.8698
1272.00 109.7181
1272.10 109.6928
1272.20 109.6676
1272.30 109.6423
1272.40 109.5444
1272.50 109.4261
1272.60 109.3077
1272.70 109.064
1272.80 108.7175
1272.90 108.3711
1273.00 108.098
1273.10 107.9738
1273.20 107.8496
1273.30 107.7175
1273.40 107.5146
1273.50 107.3116
1273.60 107.1087
1273.70 106.6479
1273.80 106.152
1273.90 105.656
1274.00 105.447
1274.10 105.3924
1274.20 105.3379
1274.30 105.6501
1274.40 106.4687
1274.50 107.2874
1274.60 108.0487
1274.70 108.5807
1274.80 109.1127
1274.90 109.6446
1275.00 109.4107
1275.10 109.153
1275.20 108.8954
1275.30 108.8387
1275.40 108.8526
1275.50 108.8665
1275.60 109.209
1275.70 109.8551
1275.80 110.5011
1275.90 110.9964
1276.00 111.1229
1276.10 111.2494
1276.20 111.3397
1276.30 110.8642
1276.40 110.3887
1276.50 109.9132
1276.60 109.5944
1276.70 109.3054
1276.80 109.0163
1276.90 109.1696
1277.00 109.6057
1277.10 110.0418
1277.20 110.37
1277.30 110.522
1277.40 110.674
1277.50 110.7682
1277.60 110.5587
1277.70 110.3492
1277.80 110.1397
1277.90 109.3963
1278.00 108.6127
1278.10 107.8292
1278.20 107.47
1278.30 107.2842
1278.40 107.0984
1278.50 107.0852
1278.60 107.2588
1278.70 107.4324
1278.80 107.7372
1278.90 108.4357
1279.00 109.1342
1279.10 109.8241
1279.20 110.2366
1279.30 110.6491
1279.40 111.0616
1279.50 111.1706
1279.60 111.2038
1279.70 111.2369
1279.80 111.0114
1279.90 110.5906
1280.00 110.1699
1280.10 109.7524
1280.20 109.341
1280.30 108.9295
1280.40 108.5429
1280.50 108.338
1280.60 108.1331
1280.70 107.9282
1280.80 107.9289
1280.90 107.9524
1281.00 107.9759
1281.10 108.0664
1281.20 108.19
1281.30 108.3136
1281.40 108.4413
1281.50 108.5743
1281.60 108.7074
1281.70 108.8245
1281.80 108.8851
1281.90 108.9457
1282.00 109.0064
1282.10 109.2623
1282.20 109.5202
1282.30 109.7782
1282.40 109.9475
1282.50 110.0903
1282.60 110.2331
1282.70 110.2092
1282.80 110.0433
1282.90 109.8774
1283.00 109.725
1283.10 109.6012
1283.20 109.4774
1283.30 109.3552
1283.40 109.2483
1283.50 109.1414
1283.60 109.0345
1283.70 108.9212
1283.80 108.8068
1283.90 108.6925
1284.00 108.5355
1284.10 108.3544
1284.20 108.1733
1284.30 108.1568
1284.40 108.3769
1284.50 108.597
1284.60 108.8324
1284.70 109.1324
1284.80 109.4324
1284.90 109.7325
1285.00 109.6779
1285.10 109.6085
1285.20 109.5392
1285.30 109.0265
1285.40 108.358
1285.50 107.6896
1285.60 107.0187
1285.70 106.3455
1285.80 105.6722
1285.90 105.1525
1286.00 105.0088
1286.10 104.865
1286.20 104.759
1286.30 105.2456
1286.40 105.7322
1286.50 106.2187
1286.60 107.0022
1286.70 107.8465
1286.80 108.6907
1286.90 109.3009
1287.00 109.7613
1287.10 110.2217
1287.20 110.3655
1287.30 109.9927
1287.40 109.6199
1287.50 109.1657
1287.60 108.2849
1287.70 107.404
1287.80 106.5232
1287.90 106.0646
1288.00 105.6378
1288.10 105.2109
1288.20 105.1966
1288.30 105.3507
1288.40 105.5048
1288.50 105.8727
1288.60 106.4722
1288.70 107.0717
1288.80 107.6168
1288.90 108.0068
1289.00 108.3969
1289.10 108.7807
1289.20 108.9643
1289.30 109.1479
1289.40 109.3314
1289.50 109.0989
1289.60 108.7689
1289.70 108.4388
1289.80 108.1496
1289.90 107.8901
1290.00 107.6306
1290.10 107.4945
1290.20 107.5777
1290.30 107.661
1290.40 107.7428
1290.50 107.8147
1290.60 107.8867
1290.70 107.9587
1290.80 107.9936
1290.90 108.0248
1291.00 108.056
1291.10 107.9432
1291.20 107.7627
1291.30 107.5822
1291.40 107.528
1291.50 107.6222
1291.60 107.7163
1291.70 107.8632
1291.80 108.1868
1291.90 108.5103
1292.00 108.8328
1292.10 109.0553
1292.20 109.2777
1292.30 109.5002
1292.40 109.2704
1292.50 108.913
1292.60 108.5556
1292.70 108.0519
1292.80 107.4331
1292.90 106.8143
1293.00 106.4442
1293.10 106.5792
1293.20 106.7142
1293.30 106.8676
1293.40 107.1707
1293.50 107.4738
1293.60 107.7768
1293.70 108.07
1293.80 108.3619
1293.90 108.6538
1294.00 108.7135
1294.10 108.6537
1294.20 108.5939
1294.30 108.6284
1294.40 108.783
1294.50 108.9375
1294.60 109.1135
1294.70 109.3698
1294.80 109.6261
1294.90 109.8824
1295.00 109.5879
1295.10 109.288
1295.20 108.988
1295.30 108.3469
1295.40 107.598
1295.50 106.8492
1295.60 106.3001
1295.70 105.9213
1295.80 105.5424
1295.90 105.3769
1296.00 105.6864
1296.10 105.9959
1296.20 106.2956
1296.30 106.4969
1296.40 106.6981
1296.50 106.8993
1296.60 107.0057
1296.70 107.0967
1296.80 107.1876
1296.90 107.2641
1297.00 107.3323
1297.10 107.4005
1297.20 107.4894
1297.30 107.6068
1297.40 107.7242
1297.50 107.8095
1297.60 107.7578
1297.70 107.706
1297.80 107.6543
1297.90 107.8311
1298.00 108.0149
1298.10 108.1988
1298.20 108.6294
1298.30 109.1466
1298.40 109.6639
1298.50 110.085
1298.60 110.4174
1298.70 110.7498
1298.80 110.9224
1298.90 110.7034
1299.00 110.4845
1299.10 110.2456
1299.20 109.7425
1299.30 109.2394
1299.40 108.7363
1299.50 108.2915
1299.60 107.857
1299.70 107.4224
1299.80 107.1351
1299.90 106.938
