# Version 2.1 - nm, norm@500 to 1, cut digits
# Wavelength(nm)  Flambda(ergs/cm^s/s/nm)
300.00 1.101715e-95
300.10 1.101715e-95
300.20 1.101715e-95
300.30 1.101715e-95
300.40 1.101715e-95
300.50 1.101715e-95
300.60 1.101715e-95
300.70 1.101715e-95
300.80 1.101715e-95
300.90 1.101715e-95
301.00 1.101715e-95
301.10 1.101715e-95
301.20 1.101715e-95
301.30 1.101715e-95
301.40 1.101715e-95
301.50 1.101715e-95
301.60 1.101715e-95
301.70 1.101715e-95
301.80 1.101715e-95
301.90 1.101715e-95
302.00 1.101715e-95
302.10 1.101715e-95
302.20 1.101715e-95
302.30 1.101715e-95
302.40 1.101715e-95
302.50 1.101715e-95
302.60 1.101715e-95
302.70 1.101715e-95
302.80 1.101715e-95
302.90 1.101715e-95
303.00 1.101715e-95
303.10 1.101715e-95
303.20 1.101715e-95
303.30 1.101715e-95
303.40 1.101715e-95
303.50 1.101715e-95
303.60 1.101715e-95
303.70 1.101715e-95
303.80 1.101715e-95
303.90 1.101715e-95
304.00 1.101715e-95
304.10 1.101715e-95
304.20 1.101715e-95
304.30 1.101715e-95
304.40 1.101715e-95
304.50 1.101715e-95
304.60 1.101715e-95
304.70 1.101715e-95
304.80 1.101715e-95
304.90 1.101715e-95
305.00 1.101715e-95
305.10 1.101715e-95
305.20 1.101715e-95
305.30 1.101715e-95
305.40 1.101715e-95
305.50 1.101715e-95
305.60 1.101715e-95
305.70 1.101715e-95
305.80 1.101715e-95
305.90 1.101715e-95
306.00 1.101715e-95
306.10 1.101715e-95
306.20 1.101715e-95
306.30 1.101715e-95
306.40 1.101715e-95
306.50 1.101715e-95
306.60 1.101715e-95
306.70 1.101715e-95
306.80 1.101715e-95
306.90 1.101715e-95
307.00 1.101715e-95
307.10 1.101715e-95
307.20 1.101715e-95
307.30 1.101715e-95
307.40 1.101715e-95
307.50 1.101715e-95
307.60 1.101715e-95
307.70 1.101715e-95
307.80 1.101715e-95
307.90 1.101715e-95
308.00 1.101715e-95
308.10 1.101715e-95
308.20 1.101715e-95
308.30 1.101715e-95
308.40 1.101715e-95
308.50 1.101715e-95
308.60 1.101715e-95
308.70 1.101715e-95
308.80 1.101715e-95
308.90 1.101715e-95
309.00 1.101715e-95
309.10 1.101715e-95
309.20 1.101715e-95
309.30 1.101715e-95
309.40 1.101715e-95
309.50 1.101715e-95
309.60 1.101715e-95
309.70 1.101715e-95
309.80 1.101715e-95
309.90 1.101715e-95
310.00 1.101715e-95
310.10 1.101715e-95
310.20 1.101715e-95
310.30 1.101715e-95
310.40 1.101715e-95
310.50 1.101715e-95
310.60 1.101715e-95
310.70 1.101715e-95
310.80 1.101715e-95
310.90 1.101715e-95
311.00 1.101715e-95
311.10 1.101715e-95
311.20 1.101715e-95
311.30 1.101715e-95
311.40 1.101715e-95
311.50 1.101715e-95
311.60 1.101715e-95
311.70 1.101715e-95
311.80 1.101715e-95
311.90 1.101715e-95
312.00 1.101715e-95
312.10 1.101715e-95
312.20 1.101715e-95
312.30 1.101715e-95
312.40 1.101715e-95
312.50 1.101715e-95
312.60 1.101715e-95
312.70 1.101715e-95
312.80 1.101715e-95
312.90 1.101715e-95
313.00 1.101715e-95
313.10 1.101715e-95
313.20 1.101715e-95
313.30 1.101715e-95
313.40 1.101715e-95
313.50 1.101715e-95
313.60 1.101715e-95
313.70 1.101715e-95
313.80 1.101715e-95
313.90 1.101715e-95
314.00 1.101715e-95
314.10 1.101715e-95
314.20 1.101715e-95
314.30 1.101715e-95
314.40 1.101715e-95
314.50 1.101715e-95
314.60 1.101715e-95
314.70 1.101715e-95
314.80 1.101715e-95
314.90 1.101715e-95
315.00 1.101715e-95
315.10 1.101715e-95
315.20 1.101715e-95
315.30 1.101715e-95
315.40 1.101715e-95
315.50 1.101715e-95
315.60 1.101715e-95
315.70 1.101715e-95
315.80 1.101715e-95
315.90 1.101715e-95
316.00 1.101715e-95
316.10 1.101715e-95
316.20 1.101715e-95
316.30 1.101715e-95
316.40 1.101715e-95
316.50 1.101715e-95
316.60 1.101715e-95
316.70 1.101715e-95
316.80 1.101715e-95
316.90 1.101715e-95
317.00 1.101715e-95
317.10 1.101715e-95
317.20 1.101715e-95
317.30 1.101715e-95
317.40 1.101715e-95
317.50 1.101715e-95
317.60 1.101715e-95
317.70 1.101715e-95
317.80 1.101715e-95
317.90 1.101715e-95
318.00 1.101715e-95
318.10 1.101715e-95
318.20 1.101715e-95
318.30 1.101715e-95
318.40 1.101715e-95
318.50 1.101715e-95
318.60 1.101715e-95
318.70 1.101715e-95
318.80 1.101715e-95
318.90 1.101715e-95
319.00 1.101715e-95
319.10 1.101715e-95
319.20 1.101715e-95
319.30 1.101715e-95
319.40 1.101715e-95
319.50 1.101715e-95
319.60 1.101715e-95
319.70 1.101715e-95
319.80 1.101715e-95
319.90 1.101715e-95
320.00 1.101715e-95
320.10 1.101715e-95
320.20 1.101715e-95
320.30 1.101715e-95
320.40 1.101715e-95
320.50 1.101715e-95
320.60 1.101715e-95
320.70 1.101715e-95
320.80 1.101715e-95
320.90 1.101715e-95
321.00 1.101715e-95
321.10 1.101715e-95
321.20 1.101715e-95
321.30 1.101715e-95
321.40 1.101715e-95
321.50 1.101715e-95
321.60 1.101715e-95
321.70 1.101715e-95
321.80 1.101715e-95
321.90 1.101715e-95
322.00 1.101715e-95
322.10 1.101715e-95
322.20 1.101715e-95
322.30 1.101715e-95
322.40 1.101715e-95
322.50 1.101715e-95
322.60 1.101715e-95
322.70 1.101715e-95
322.80 1.101715e-95
322.90 1.101715e-95
323.00 1.101715e-95
323.10 1.101715e-95
323.20 1.101715e-95
323.30 1.101715e-95
323.40 1.101715e-95
323.50 1.101715e-95
323.60 1.101715e-95
323.70 1.101715e-95
323.80 1.101715e-95
323.90 1.101715e-95
324.00 1.101715e-95
324.10 1.101715e-95
324.20 1.101715e-95
324.30 1.101715e-95
324.40 1.101715e-95
324.50 1.101715e-95
324.60 1.101715e-95
324.70 1.101715e-95
324.80 1.101715e-95
324.90 1.101715e-95
325.00 1.101715e-95
325.10 1.101715e-95
325.20 1.101715e-95
325.30 1.101715e-95
325.40 1.101715e-95
325.50 1.101715e-95
325.60 1.101715e-95
325.70 1.101715e-95
325.80 1.101715e-95
325.90 1.101715e-95
326.00 1.101715e-95
326.10 1.101715e-95
326.20 1.101715e-95
326.30 1.101715e-95
326.40 1.101715e-95
326.50 1.101715e-95
326.60 1.101715e-95
326.70 1.101715e-95
326.80 1.101715e-95
326.90 1.101715e-95
327.00 1.101715e-95
327.10 1.101715e-95
327.20 1.101715e-95
327.30 1.101715e-95
327.40 1.101715e-95
327.50 1.101715e-95
327.60 1.101715e-95
327.70 1.101715e-95
327.80 1.101715e-95
327.90 1.101715e-95
328.00 1.101715e-95
328.10 1.101715e-95
328.20 1.101715e-95
328.30 1.101715e-95
328.40 1.101715e-95
328.50 1.101715e-95
328.60 1.101715e-95
328.70 1.101715e-95
328.80 1.101715e-95
328.90 1.101715e-95
329.00 1.101715e-95
329.10 1.101715e-95
329.20 1.101715e-95
329.30 1.101715e-95
329.40 1.101715e-95
329.50 1.101715e-95
329.60 1.101715e-95
329.70 1.101715e-95
329.80 1.101715e-95
329.90 1.101715e-95
330.00 1.101715e-95
330.10 1.101715e-95
330.20 1.101715e-95
330.30 1.101715e-95
330.40 1.101715e-95
330.50 1.101715e-95
330.60 1.101715e-95
330.70 1.101715e-95
330.80 1.101715e-95
330.90 1.101715e-95
331.00 1.101715e-95
331.10 1.101715e-95
331.20 1.101715e-95
331.30 1.101715e-95
331.40 1.101715e-95
331.50 1.101715e-95
331.60 1.101715e-95
331.70 1.101715e-95
331.80 1.101715e-95
331.90 1.101715e-95
332.00 1.101715e-95
332.10 1.101715e-95
332.20 1.101715e-95
332.30 1.101715e-95
332.40 1.101715e-95
332.50 1.101715e-95
332.60 1.101715e-95
332.70 1.101715e-95
332.80 1.101715e-95
332.90 1.101715e-95
333.00 1.101715e-95
333.10 1.101715e-95
333.20 1.101715e-95
333.30 1.101715e-95
333.40 1.101715e-95
333.50 1.101715e-95
333.60 1.101715e-95
333.70 1.101715e-95
333.80 1.101715e-95
333.90 1.101715e-95
334.00 1.101715e-95
334.10 1.101715e-95
334.20 1.101715e-95
334.30 1.101715e-95
334.40 1.101715e-95
334.50 1.101715e-95
334.60 1.101715e-95
334.70 1.101715e-95
334.80 1.101715e-95
334.90 1.101715e-95
335.00 1.101715e-95
335.10 1.101715e-95
335.20 1.101715e-95
335.30 1.101715e-95
335.40 1.101715e-95
335.50 1.101715e-95
335.60 1.101715e-95
335.70 1.101715e-95
335.80 1.101715e-95
335.90 1.101715e-95
336.00 1.101715e-95
336.10 1.101715e-95
336.20 1.101715e-95
336.30 1.101715e-95
336.40 1.101715e-95
336.50 1.101715e-95
336.60 1.101715e-95
336.70 1.101715e-95
336.80 1.101715e-95
336.90 1.101715e-95
337.00 1.101715e-95
337.10 1.101715e-95
337.20 1.101715e-95
337.30 1.101715e-95
337.40 1.101715e-95
337.50 1.101715e-95
337.60 1.101715e-95
337.70 1.101715e-95
337.80 1.101715e-95
337.90 1.101715e-95
338.00 1.101715e-95
338.10 1.101715e-95
338.20 1.101715e-95
338.30 1.101715e-95
338.40 1.101715e-95
338.50 1.101715e-95
338.60 1.101715e-95
338.70 1.101715e-95
338.80 1.101715e-95
338.90 1.101715e-95
339.00 1.101715e-95
339.10 1.101715e-95
339.20 1.101715e-95
339.30 1.101715e-95
339.40 1.101715e-95
339.50 1.101715e-95
339.60 1.101715e-95
339.70 1.101715e-95
339.80 1.101715e-95
339.90 1.101715e-95
340.00 1.101715e-95
340.10 1.101715e-95
340.20 1.101715e-95
340.30 1.101715e-95
340.40 1.101715e-95
340.50 1.101715e-95
340.60 1.101715e-95
340.70 1.101715e-95
340.80 1.101715e-95
340.90 1.101715e-95
341.00 1.101715e-95
341.10 1.101715e-95
341.20 1.101715e-95
341.30 1.101715e-95
341.40 1.101715e-95
341.50 1.101715e-95
341.60 1.101715e-95
341.70 1.101715e-95
341.80 1.101715e-95
341.90 1.101715e-95
342.00 1.101715e-95
342.10 1.101715e-95
342.20 1.101715e-95
342.30 1.101715e-95
342.40 1.101715e-95
342.50 1.101715e-95
342.60 1.101715e-95
342.70 1.101715e-95
342.80 1.101715e-95
342.90 1.101715e-95
343.00 1.101715e-95
343.10 1.101715e-95
343.20 1.101715e-95
343.30 1.101715e-95
343.40 1.101715e-95
343.50 1.101715e-95
343.60 1.101715e-95
343.70 1.101715e-95
343.80 1.101715e-95
343.90 1.101715e-95
344.00 1.101715e-95
344.10 1.101715e-95
344.20 1.101715e-95
344.30 1.101715e-95
344.40 1.101715e-95
344.50 1.101715e-95
344.60 1.101715e-95
344.70 1.101715e-95
344.80 1.101715e-95
344.90 1.101715e-95
345.00 1.101715e-95
345.10 1.101715e-95
345.20 1.101715e-95
345.30 1.101715e-95
345.40 1.101715e-95
345.50 1.101715e-95
345.60 1.101715e-95
345.70 1.101715e-95
345.80 1.101715e-95
345.90 1.101715e-95
346.00 1.101715e-95
346.10 1.101715e-95
346.20 1.101715e-95
346.30 1.101715e-95
346.40 1.101715e-95
346.50 1.101715e-95
346.60 1.101715e-95
346.70 1.101715e-95
346.80 1.101715e-95
346.90 1.101715e-95
347.00 1.101715e-95
347.10 1.101715e-95
347.20 1.101715e-95
347.30 1.101715e-95
347.40 1.101715e-95
347.50 1.101715e-95
347.60 1.101715e-95
347.70 1.101715e-95
347.80 1.101715e-95
347.90 1.101715e-95
348.00 1.101715e-95
348.10 1.101715e-95
348.20 1.101715e-95
348.30 1.101715e-95
348.40 1.101715e-95
348.50 1.101715e-95
348.60 1.101715e-95
348.70 1.101715e-95
348.80 1.101715e-95
348.90 1.101715e-95
349.00 1.101715e-95
349.10 1.101715e-95
349.20 1.101715e-95
349.30 1.101715e-95
349.40 1.101715e-95
349.50 1.101715e-95
349.60 1.101715e-95
349.70 1.101715e-95
349.80 1.101715e-95
349.90 1.101715e-95
350.00 1.101715e-95
350.10 1.101715e-95
350.20 1.101715e-95
350.30 1.101715e-95
350.40 1.101715e-95
350.50 1.101715e-95
350.60 1.101715e-95
350.70 1.101715e-95
350.80 1.101715e-95
350.90 1.101715e-95
351.00 1.101715e-95
351.10 1.101715e-95
351.20 1.101715e-95
351.30 1.101715e-95
351.40 1.101715e-95
351.50 1.101715e-95
351.60 1.101715e-95
351.70 1.101715e-95
351.80 1.101715e-95
351.90 1.101715e-95
352.00 1.101715e-95
352.10 1.101715e-95
352.20 1.101715e-95
352.30 1.101715e-95
352.40 1.101715e-95
352.50 1.101715e-95
352.60 1.101715e-95
352.70 1.101715e-95
352.80 1.101715e-95
352.90 1.101715e-95
353.00 1.101715e-95
353.10 1.101715e-95
353.20 1.101715e-95
353.30 1.101715e-95
353.40 1.101715e-95
353.50 1.101715e-95
353.60 1.101715e-95
353.70 1.101715e-95
353.80 1.101715e-95
353.90 1.101715e-95
354.00 1.101715e-95
354.10 1.101715e-95
354.20 1.101715e-95
354.30 1.101715e-95
354.40 1.101715e-95
354.50 1.101715e-95
354.60 1.101715e-95
354.70 1.101715e-95
354.80 1.101715e-95
354.90 1.101715e-95
355.00 1.101715e-95
355.10 1.101715e-95
355.20 1.101715e-95
355.30 1.101715e-95
355.40 1.101715e-95
355.50 1.101715e-95
355.60 1.101715e-95
355.70 1.101715e-95
355.80 1.101715e-95
355.90 1.101715e-95
356.00 1.101715e-95
356.10 1.101715e-95
356.20 1.101715e-95
356.30 1.101715e-95
356.40 1.101715e-95
356.50 1.101715e-95
356.60 1.101715e-95
356.70 1.101715e-95
356.80 1.101715e-95
356.90 1.101715e-95
357.00 1.101715e-95
357.10 1.101715e-95
357.20 1.101715e-95
357.30 1.101715e-95
357.40 1.101715e-95
357.50 1.101715e-95
357.60 1.101715e-95
357.70 1.101715e-95
357.80 1.101715e-95
357.90 1.101715e-95
358.00 1.101715e-95
358.10 1.101715e-95
358.20 1.101715e-95
358.30 1.101715e-95
358.40 1.101715e-95
358.50 1.101715e-95
358.60 1.101715e-95
358.70 1.101715e-95
358.80 1.101715e-95
358.90 1.101715e-95
359.00 1.101715e-95
359.10 1.101715e-95
359.20 1.101715e-95
359.30 1.101715e-95
359.40 1.101715e-95
359.50 1.101715e-95
359.60 1.101715e-95
359.70 1.101715e-95
359.80 1.101715e-95
359.90 1.101715e-95
360.00 1.101715e-95
360.10 1.101715e-95
360.20 1.101715e-95
360.30 1.101715e-95
360.40 1.101715e-95
360.50 1.101715e-95
360.60 1.101715e-95
360.70 1.101715e-95
360.80 1.101715e-95
360.90 1.101715e-95
361.00 1.101715e-95
361.10 1.101715e-95
361.20 1.101715e-95
361.30 1.101715e-95
361.40 1.101715e-95
361.50 1.101715e-95
361.60 1.101715e-95
361.70 1.101715e-95
361.80 1.101715e-95
361.90 1.101715e-95
362.00 1.101715e-95
362.10 1.101715e-95
362.20 1.101715e-95
362.30 1.101715e-95
362.40 1.101715e-95
362.50 1.101715e-95
362.60 1.101715e-95
362.70 1.101715e-95
362.80 1.101715e-95
362.90 1.101715e-95
363.00 1.101715e-95
363.10 1.101715e-95
363.20 1.101715e-95
363.30 1.101715e-95
363.40 1.101715e-95
363.50 1.101715e-95
363.60 1.101715e-95
363.70 1.101715e-95
363.80 1.101715e-95
363.90 1.101715e-95
364.00 1.101715e-95
364.10 1.101715e-95
364.20 1.101715e-95
364.30 1.101715e-95
364.40 1.101715e-95
364.50 1.101715e-95
364.60 1.101715e-95
364.70 1.101715e-95
364.80 1.101715e-95
364.90 1.101715e-95
365.00 1.101715e-95
365.10 1.101715e-95
365.20 1.101715e-95
365.30 1.101715e-95
365.40 1.101715e-95
365.50 1.101715e-95
365.60 1.101715e-95
365.70 1.101715e-95
365.80 1.101715e-95
365.90 1.101715e-95
366.00 1.101715e-95
366.10 1.101715e-95
366.20 1.101715e-95
366.30 1.101715e-95
366.40 1.101715e-95
366.50 1.101715e-95
366.60 1.101715e-95
366.70 1.101715e-95
366.80 1.101715e-95
366.90 1.101715e-95
367.00 1.101715e-95
367.10 1.101715e-95
367.20 1.101715e-95
367.30 1.101715e-95
367.40 1.101715e-95
367.50 1.101715e-95
367.60 1.101715e-95
367.70 1.101715e-95
367.80 1.101715e-95
367.90 1.101715e-95
368.00 1.101715e-95
368.10 1.101715e-95
368.20 1.101715e-95
368.30 1.101715e-95
368.40 1.101715e-95
368.50 1.101715e-95
368.60 1.101715e-95
368.70 1.101715e-95
368.80 1.101715e-95
368.90 1.101715e-95
369.00 1.101715e-95
369.10 1.101715e-95
369.20 1.101715e-95
369.30 1.101715e-95
369.40 1.101715e-95
369.50 1.101715e-95
369.60 1.101715e-95
369.70 1.101715e-95
369.80 1.101715e-95
369.90 1.101715e-95
370.00 1.101715e-95
370.10 1.101715e-95
370.20 1.101715e-95
370.30 1.101715e-95
370.40 1.101715e-95
370.50 1.101715e-95
370.60 1.101715e-95
370.70 1.101715e-95
370.80 1.101715e-95
370.90 1.101715e-95
371.00 1.101715e-95
371.10 1.101715e-95
371.20 1.101715e-95
371.30 1.101715e-95
371.40 1.101715e-95
371.50 1.101715e-95
371.60 1.101715e-95
371.70 1.101715e-95
371.80 1.101715e-95
371.90 1.101715e-95
372.00 1.101715e-95
372.10 1.101715e-95
372.20 1.101715e-95
372.30 1.101715e-95
372.40 1.101715e-95
372.50 1.101715e-95
372.60 1.101715e-95
372.70 1.101715e-95
372.80 1.101715e-95
372.90 1.101715e-95
373.00 1.101715e-95
373.10 1.101715e-95
373.20 1.101715e-95
373.30 1.101715e-95
373.40 1.101715e-95
373.50 1.101715e-95
373.60 1.101715e-95
373.70 1.101715e-95
373.80 1.101715e-95
373.90 1.101715e-95
374.00 1.101715e-95
374.10 1.101715e-95
374.20 1.101715e-95
374.30 1.101715e-95
374.40 1.101715e-95
374.50 1.101715e-95
374.60 1.101715e-95
374.70 1.101715e-95
374.80 1.101715e-95
374.90 1.101715e-95
375.00 1.101715e-95
375.10 1.101715e-95
375.20 1.101715e-95
375.30 1.101715e-95
375.40 1.101715e-95
375.50 1.101715e-95
375.60 1.101715e-95
375.70 1.101715e-95
375.80 1.101715e-95
375.90 1.101715e-95
376.00 1.101715e-95
376.10 1.101715e-95
376.20 1.101715e-95
376.30 1.101715e-95
376.40 1.101715e-95
376.50 1.101715e-95
376.60 1.101715e-95
376.70 1.101715e-95
376.80 1.101715e-95
376.90 1.101715e-95
377.00 1.101715e-95
377.10 1.101715e-95
377.20 1.101715e-95
377.30 1.101715e-95
377.40 1.101715e-95
377.50 1.101715e-95
377.60 1.101715e-95
377.70 1.101715e-95
377.80 1.101715e-95
377.90 1.101715e-95
378.00 1.101715e-95
378.10 1.101715e-95
378.20 1.101715e-95
378.30 1.101715e-95
378.40 1.101715e-95
378.50 1.101715e-95
378.60 1.101715e-95
378.70 1.101715e-95
378.80 1.101715e-95
378.90 1.101715e-95
379.00 1.101715e-95
379.10 1.101715e-95
379.20 1.101715e-95
379.30 1.101715e-95
379.40 1.101715e-95
379.50 1.101715e-95
379.60 1.101715e-95
379.70 1.101715e-95
379.80 1.101715e-95
379.90 1.101715e-95
380.00 1.101715e-95
380.10 1.101715e-95
380.20 1.101715e-95
380.30 1.101715e-95
380.40 1.101715e-95
380.50 1.101715e-95
380.60 1.101715e-95
380.70 1.101715e-95
380.80 1.101715e-95
380.90 1.101715e-95
381.00 1.101715e-95
381.10 1.101715e-95
381.20 1.101715e-95
381.30 1.101715e-95
381.40 1.101715e-95
381.50 1.101715e-95
381.60 1.101715e-95
381.70 1.101715e-95
381.80 1.101715e-95
381.90 1.101715e-95
382.00 1.101715e-95
382.10 1.101715e-95
382.20 1.101715e-95
382.30 1.101715e-95
382.40 1.101715e-95
382.50 1.101715e-95
382.60 1.101715e-95
382.70 1.101715e-95
382.80 1.101715e-95
382.90 1.101715e-95
383.00 1.101715e-95
383.10 1.101715e-95
383.20 1.101715e-95
383.30 1.101715e-95
383.40 1.101715e-95
383.50 1.101715e-95
383.60 1.101715e-95
383.70 1.101715e-95
383.80 1.101715e-95
383.90 1.101715e-95
384.00 1.101715e-95
384.10 1.101715e-95
384.20 1.101715e-95
384.30 1.101715e-95
384.40 1.101715e-95
384.50 1.101715e-95
384.60 1.101715e-95
384.70 1.101715e-95
384.80 1.101715e-95
384.90 1.101715e-95
385.00 1.101715e-95
385.10 1.101715e-95
385.20 1.101715e-95
385.30 1.101715e-95
385.40 1.101715e-95
385.50 1.101715e-95
385.60 1.101715e-95
385.70 1.101715e-95
385.80 1.101715e-95
385.90 1.101715e-95
386.00 1.101715e-95
386.10 1.101715e-95
386.20 1.101715e-95
386.30 1.101715e-95
386.40 1.101715e-95
386.50 1.101715e-95
386.60 1.101715e-95
386.70 1.101715e-95
386.80 1.101715e-95
386.90 1.101715e-95
387.00 1.101715e-95
387.10 1.101715e-95
387.20 1.101715e-95
387.30 1.101715e-95
387.40 1.101715e-95
387.50 1.101715e-95
387.60 1.101715e-95
387.70 1.101715e-95
387.80 1.101715e-95
387.90 1.101715e-95
388.00 1.101715e-95
388.10 1.101715e-95
388.20 1.101715e-95
388.30 1.101715e-95
388.40 1.101715e-95
388.50 1.101715e-95
388.60 1.101715e-95
388.70 1.101715e-95
388.80 1.101715e-95
388.90 1.101715e-95
389.00 1.101715e-95
389.10 1.101715e-95
389.20 1.101715e-95
389.30 1.101715e-95
389.40 1.101715e-95
389.50 1.101715e-95
389.60 1.101715e-95
389.70 1.101715e-95
389.80 1.101715e-95
389.90 1.101715e-95
390.00 1.101715e-95
390.10 1.101715e-95
390.20 1.101715e-95
390.30 1.101715e-95
390.40 1.101715e-95
390.50 1.101715e-95
390.60 1.101715e-95
390.70 1.101715e-95
390.80 1.101715e-95
390.90 1.101715e-95
391.00 1.101715e-95
391.10 1.101715e-95
391.20 1.101715e-95
391.30 1.101715e-95
391.40 1.101715e-95
391.50 1.101715e-95
391.60 1.101715e-95
391.70 1.101715e-95
391.80 1.101715e-95
391.90 1.101715e-95
392.00 1.101715e-95
392.10 1.101715e-95
392.20 1.101715e-95
392.30 1.101715e-95
392.40 1.101715e-95
392.50 1.101715e-95
392.60 1.101715e-95
392.70 1.101715e-95
392.80 1.101715e-95
392.90 1.101715e-95
393.00 1.101715e-95
393.10 1.101715e-95
393.20 1.101715e-95
393.30 1.101715e-95
393.40 1.101715e-95
393.50 1.101715e-95
393.60 1.101715e-95
393.70 1.101715e-95
393.80 1.101715e-95
393.90 1.101715e-95
394.00 1.101715e-95
394.10 1.101715e-95
394.20 1.101715e-95
394.30 1.101715e-95
394.40 1.101715e-95
394.50 1.101715e-95
394.60 1.101715e-95
394.70 1.101715e-95
394.80 1.101715e-95
394.90 1.101715e-95
395.00 0.0159375
395.10 0.030765
395.20 0.04409948
395.30 0.05567012
395.40 0.06513449
395.50 0.07215285
395.60 0.07693967
395.70 0.07997008
395.80 0.08179467
395.90 0.08330176
396.00 0.08605822
396.10 0.09204506
396.20 0.1027414
396.30 0.1186372
396.40 0.138994
396.50 0.1618923
396.60 0.1847339
396.70 0.2048763
396.80 0.2203185
396.90 0.2300311
397.00 0.2338835
397.10 0.2338835
397.20 0.2338835
397.30 0.2338835
397.40 0.2338835
397.50 0.2338835
397.60 0.2341822
397.70 0.2363956
397.80 0.239407
397.90 0.2423203
398.00 0.2447076
398.10 0.2466949
398.20 0.2488581
398.30 0.2519477
398.40 0.256558
398.50 0.2628848
398.60 0.2703131
398.70 0.2776896
398.80 0.283997
398.90 0.2884585
399.00 0.2904348
399.10 0.2904348
399.20 0.2904348
399.30 0.2904348
399.40 0.2904348
399.50 0.2904348
399.60 0.2904348
399.70 0.2904348
399.80 0.2904348
399.90 0.2904348
400.00 0.2904348
400.10 0.2904348
400.20 0.2904348
400.30 0.2904348
400.40 0.2904348
400.50 0.2904348
400.60 0.2904348
400.70 0.2904348
400.80 0.2918629
400.90 0.2962915
401.00 0.3039101
401.10 0.3141991
401.20 0.326266
401.30 0.3393441
401.40 0.3527466
401.50 0.3657514
401.60 0.3775581
401.70 0.3873873
401.80 0.3947264
401.90 0.3997165
402.00 0.4033693
402.10 0.4070637
402.20 0.412187
402.30 0.4196889
402.40 0.4297845
402.50 0.4420689
402.60 0.4557214
402.70 0.4697283
402.80 0.4832217
402.90 0.4958399
403.00 0.5074599
403.10 0.5176178
403.20 0.5256875
403.30 0.5312931
403.40 0.5342179
403.50 0.5344848
403.60 0.5344848
403.70 0.5344848
403.80 0.5344848
403.90 0.5344848
404.00 0.5344848
404.10 0.5366203
404.20 0.5419084
404.30 0.5492143
404.40 0.5572482
404.50 0.565257
404.60 0.5729897
404.70 0.5802429
404.80 0.5868623
404.90 0.5928281
405.00 0.5825043
405.10 0.5739416
405.20 0.5690568
405.30 0.569446
405.40 0.5760353
405.50 0.5894577
405.60 0.6097028
405.70 0.635641
405.80 0.6650826
405.90 0.6950434
406.00 0.7219414
406.10 0.7421794
406.20 0.7532933
406.30 0.7547911
406.40 0.7483538
406.50 0.7372902
406.60 0.7252206
406.70 0.7154928
406.80 0.7109673
406.90 0.7132142
407.00 0.7221672
407.10 0.7352798
407.20 0.7481917
407.30 0.7603815
407.40 0.7710016
407.50 0.779178
407.60 0.7843798
407.70 0.7855989
407.80 0.7849952
407.90 0.7843807
408.00 0.7852981
408.10 0.7889292
408.20 0.7954939
408.30 0.8040536
408.40 0.8133735
408.50 0.8224062
408.60 0.8302148
408.70 0.8362134
408.80 0.8403038
408.90 0.8430269
409.00 0.8453478
409.10 0.8473658
409.20 0.8482467
409.30 0.8496526
409.40 0.8532423
409.50 0.8602472
409.60 0.8713403
409.70 0.8866292
409.80 0.9052771
409.90 0.9258393
410.00 0.9471157
410.10 0.9681271
410.20 0.9880686
410.30 1.006426
410.40 1.023139
410.50 1.038711
410.60 1.053711
410.70 1.068399
410.80 1.081529
410.90 1.0918
411.00 1.099356
411.10 1.104829
411.20 1.108881
411.30 1.112371
411.40 1.11639
411.50 1.121828
411.60 1.129306
411.70 1.139003
411.80 1.150504
411.90 1.162599
412.00 1.173545
412.10 1.181825
412.20 1.18635
412.30 1.186849
412.40 1.184027
412.50 1.179266
412.60 1.173904
412.70 1.16845
412.80 1.162627
412.90 1.155755
413.00 1.147415
413.10 1.138261
413.20 1.130191
413.30 1.124749
413.40 1.123506
413.50 1.12731
413.60 1.134152
413.70 1.14332
413.80 1.153632
413.90 1.163656
414.00 1.172309
414.10 1.17685
414.20 1.17622
414.30 1.17208
414.40 1.166589
414.50 1.161771
414.60 1.158954
414.70 1.15915
414.80 1.163195
414.90 1.171144
415.00 1.182061
415.10 1.193872
415.20 1.203911
415.30 1.209944
415.40 1.210843
415.50 1.205971
415.60 1.194855
415.70 1.178192
415.80 1.157849
415.90 1.136042
416.00 1.114941
416.10 1.09618
416.20 1.080698
416.30 1.068674
416.40 1.059554
416.50 1.052439
416.60 1.046579
416.70 1.041203
416.80 1.035096
416.90 1.027427
417.00 1.018428
417.10 1.00869
417.20 0.9987694
417.30 0.9892887
417.40 0.9812064
417.50 0.9756953
417.60 0.9734018
417.70 0.9739112
417.80 0.9759741
417.90 0.9782019
418.00 0.9791424
418.10 0.9773476
418.20 0.9720107
418.30 0.9632115
418.40 0.951171
418.50 0.9364886
418.60 0.9212516
418.70 0.9078765
418.80 0.8974788
418.90 0.8902942
419.00 0.885997
419.10 0.883979
419.20 0.8830981
419.30 0.8823032
419.40 0.8807753
419.50 0.8769651
419.60 0.8697611
419.70 0.858687
419.80 0.844673
419.90 0.8295524
420.00 0.8150201
420.10 0.8026474
420.20 0.7936545
420.30 0.7884856
420.40 0.7866888
420.50 0.7870299
420.60 0.7879617
420.70 0.7884361
420.80 0.7880601
420.90 0.7864486
421.00 0.7830554
421.10 0.7776153
421.20 0.7701335
421.30 0.7602692
421.40 0.7476379
421.50 0.7324879
421.60 0.7155916
421.70 0.6981951
421.80 0.6818558
421.90 0.6680736
422.00 0.6576869
422.10 0.6504364
422.20 0.6453314
422.30 0.6413862
422.40 0.637901
422.50 0.6343204
422.60 0.6305419
422.70 0.6275508
422.80 0.6270475
422.90 0.6304132
423.00 0.6381728
423.10 0.6497505
423.20 0.6632316
423.30 0.6767336
423.40 0.6880773
423.50 0.6955933
423.60 0.6980638
423.70 0.6950321
423.80 0.6871022
423.90 0.6770788
424.00 0.6684249
424.10 0.6617485
424.20 0.6570913
424.30 0.6557326
424.40 0.659074
424.50 0.6657531
424.60 0.6741296
424.70 0.6824516
424.80 0.6889493
424.90 0.6924614
425.00 0.6924852
425.10 0.6890445
425.20 0.6824832
425.30 0.6736237
425.40 0.6633245
425.50 0.6520936
425.60 0.6405034
425.70 0.6293507
425.80 0.6193688
425.90 0.6108014
426.00 0.6033912
426.10 0.5970438
426.20 0.5918167
426.30 0.5875795
426.40 0.5841617
426.50 0.5815221
426.60 0.5797262
426.70 0.5785504
426.80 0.5777031
426.90 0.5769428
427.00 0.5758732
427.10 0.5743021
427.20 0.5723544
427.30 0.5705431
427.40 0.5694073
427.50 0.5687594
427.60 0.5679573
427.70 0.5665647
427.80 0.5644938
427.90 0.5618927
428.00 0.5590988
428.10 0.5567016
428.20 0.5551465
428.30 0.5547391
428.40 0.5558189
428.50 0.5583124
428.60 0.5614881
428.70 0.5648163
428.80 0.5687206
428.90 0.573532
429.00 0.5790648
429.10 0.584873
429.20 0.5907038
429.30 0.5959043
429.40 0.5996001
429.50 0.6019776
429.60 0.6035012
429.70 0.6047054
429.80 0.6057151
429.90 0.6064104
430.00 0.6063921
430.10 0.6049997
430.20 0.6018084
430.30 0.5969537
430.40 0.5912153
430.50 0.5857753
430.60 0.5817681
430.70 0.5796897
430.80 0.5791725
430.90 0.5795713
431.00 0.5801086
431.10 0.5801272
431.20 0.5794124
431.30 0.5780958
431.40 0.5766235
431.50 0.5754295
431.60 0.5747315
431.70 0.5747846
431.80 0.5756119
431.90 0.5767831
432.00 0.5777378
432.10 0.5781527
432.20 0.5782576
432.30 0.5783859
432.40 0.5786384
432.50 0.5789388
432.60 0.5791284
432.70 0.5788946
432.80 0.57758
432.90 0.5744953
433.00 0.5690799
433.10 0.5611329
433.20 0.551123
433.30 0.5399203
433.40 0.528572
433.50 0.5180711
433.60 0.509215
433.70 0.5030787
433.80 0.5006968
433.90 0.5006968
434.00 0.5006968
434.10 0.5006968
434.20 0.5006968
434.30 0.4988893
434.40 0.493005
434.50 0.4837756
434.60 0.4729806
434.70 0.4615543
434.80 0.4502228
434.90 0.4395663
435.00 0.4298001
435.10 0.420712
435.20 0.4120556
435.30 0.4037839
435.40 0.3971306
435.50 0.3927931
435.60 0.3909048
435.70 0.3922219
435.80 0.3957017
435.90 0.4003986
436.00 0.4055675
436.10 0.4105163
436.20 0.4145694
436.30 0.4171844
436.40 0.4182196
436.50 0.4178761
436.60 0.4164884
436.70 0.4145628
436.80 0.4126333
436.90 0.4110326
437.00 0.4101492
437.10 0.4105804
437.20 0.4127353
437.30 0.41641
437.40 0.421103
437.50 0.4266962
437.60 0.4333207
437.70 0.4409372
437.80 0.4494481
437.90 0.458891
438.00 0.4690894
438.10 0.4796609
438.20 0.4905843
438.30 0.5020879
438.40 0.5144604
438.50 0.528084
438.60 0.5430636
438.70 0.5590786
438.80 0.5755288
438.90 0.5916648
439.00 0.6070216
439.10 0.6215958
439.20 0.6353131
439.30 0.6476502
439.40 0.6581129
439.50 0.6665314
439.60 0.6725677
439.70 0.6758937
439.80 0.6763918
439.90 0.6741249
440.00 0.6695611
440.10 0.663447
440.20 0.6564214
440.30 0.6491552
440.40 0.642626
440.50 0.6377947
440.60 0.6352673
440.70 0.6352572
440.80 0.6376209
440.90 0.6420253
441.00 0.6482607
441.10 0.6558044
441.20 0.6639071
441.30 0.6719707
441.40 0.6793925
441.50 0.6857863
441.60 0.6911185
441.70 0.6952202
441.80 0.697708
441.90 0.6984393
442.00 0.6977208
442.10 0.6964227
442.20 0.6953651
442.30 0.6947888
442.40 0.6944218
442.50 0.693936
442.60 0.693249
442.70 0.6925272
442.80 0.6921244
442.90 0.6923005
443.00 0.6934326
443.10 0.696011
443.20 0.7000806
443.30 0.7051705
443.40 0.7108091
443.50 0.7166343
443.60 0.7225164
443.70 0.7282166
443.80 0.7335636
443.90 0.7392706
444.00 0.7461338
444.10 0.7546306
444.20 0.7646337
444.30 0.7754506
444.40 0.7859813
444.50 0.7943819
444.60 0.7985124
444.70 0.7979274
444.80 0.7930285
444.90 0.7862575
445.00 0.7794693
445.10 0.7739226
445.20 0.7706511
445.30 0.7706259
445.40 0.7734817
445.50 0.7779202
445.60 0.7832201
445.70 0.7878098
445.80 0.7920033
445.90 0.7966923
446.00 0.8027861
446.10 0.810756
446.20 0.8207981
446.30 0.8327171
446.40 0.8452368
446.50 0.8561044
446.60 0.8630813
446.70 0.8652022
446.80 0.8632534
446.90 0.8613246
447.00 0.8594705
447.10 0.8572359
447.20 0.8547126
447.30 0.8540547
447.40 0.8550343
447.50 0.8571249
447.60 0.8595539
447.70 0.8615116
447.80 0.8625607
447.90 0.8627074
448.00 0.862321
448.10 0.8615276
448.20 0.8598382
448.30 0.8570947
448.40 0.8536506
448.50 0.8496149
448.60 0.8449141
448.70 0.8394631
448.80 0.8330933
448.90 0.8256671
449.00 0.8170098
449.10 0.8069046
449.20 0.795645
449.30 0.784286
449.40 0.7741377
449.50 0.7663678
449.60 0.7618305
449.70 0.760714
449.80 0.7627754
449.90 0.7679369
450.00 0.7762448
450.10 0.7874337
450.20 0.800939
450.30 0.8157955
450.40 0.8302831
450.50 0.8423327
450.60 0.8503058
450.70 0.853516
450.80 0.8523667
450.90 0.8481176
451.00 0.8427153
451.10 0.8386464
451.20 0.8381735
451.30 0.842427
451.40 0.851206
451.50 0.8634469
451.60 0.8776244
451.70 0.8922157
451.80 0.9065204
451.90 0.9205921
452.00 0.9346476
452.10 0.9486924
452.20 0.9626275
452.30 0.9768346
452.40 0.9920041
452.50 1.00839
452.60 1.025557
452.70 1.042686
452.80 1.058859
452.90 1.073108
453.00 1.084596
453.10 1.09274
453.20 1.097213
453.30 1.09832
453.40 1.096862
453.50 1.093878
453.60 1.090478
453.70 1.087441
453.80 1.085077
453.90 1.083425
454.00 1.082377
454.10 1.081747
454.20 1.081675
454.30 1.082968
454.40 1.086811
454.50 1.094157
454.60 1.105372
454.70 1.120107
454.80 1.137551
454.90 1.155398
455.00 1.172779
455.10 1.190005
455.20 1.207322
455.30 1.223942
455.40 1.238754
455.50 1.252178
455.60 1.264136
455.70 1.273968
455.80 1.280689
455.90 1.28353
456.00 1.282423
456.10 1.277913
456.20 1.27098
456.30 1.262959
456.40 1.255594
456.50 1.25097
456.60 1.251069
456.70 1.2568
456.80 1.267168
456.90 1.277357
457.00 1.285893
457.10 1.29145
457.20 1.292974
457.30 1.289059
457.40 1.281985
457.50 1.272283
457.60 1.260825
457.70 1.250995
457.80 1.244907
457.90 1.242976
458.00 1.244357
458.10 1.2477
458.20 1.251715
458.30 1.255198
458.40 1.257504
458.50 1.258705
458.60 1.258816
458.70 1.257692
458.80 1.255305
458.90 1.251938
459.00 1.248435
459.10 1.245672
459.20 1.243754
459.30 1.242258
459.40 1.240777
459.50 1.239134
459.60 1.237733
459.70 1.237521
459.80 1.239369
459.90 1.243493
460.00 1.249417
460.10 1.256242
460.20 1.26302
460.30 1.269148
460.40 1.274172
460.50 1.277659
460.60 1.279867
460.70 1.281686
460.80 1.284076
460.90 1.287643
461.00 1.292103
461.10 1.296478
461.20 1.299965
461.30 1.302654
461.40 1.305323
461.50 1.308821
461.60 1.313847
461.70 1.320384
461.80 1.327515
461.90 1.334135
462.00 1.339162
462.10 1.341685
462.20 1.340931
462.30 1.336154
462.40 1.327306
462.50 1.315303
462.60 1.301466
462.70 1.286953
462.80 1.272889
462.90 1.260663
463.00 1.251462
463.10 1.246384
463.20 1.246514
463.30 1.252058
463.40 1.262089
463.50 1.274801
463.60 1.288027
463.70 1.299829
463.80 1.308729
463.90 1.313738
464.00 1.314566
464.10 1.311844
464.20 1.306777
464.30 1.300451
464.40 1.293531
464.50 1.286237
464.60 1.278591
464.70 1.270724
464.80 1.262651
464.90 1.254104
465.00 1.244578
465.10 1.233602
465.20 1.220914
465.30 1.206484
465.40 1.190509
465.50 1.173614
465.60 1.156875
465.70 1.141666
465.80 1.129568
465.90 1.121488
466.00 1.117297
466.10 1.116178
466.20 1.116754
466.30 1.117525
466.40 1.117623
466.50 1.11703
466.60 1.116042
466.70 1.115113
466.80 1.115105
466.90 1.117433
467.00 1.123682
467.10 1.134773
467.20 1.150319
467.30 1.168557
467.40 1.186906
467.50 1.205192
467.60 1.223411
467.70 1.239023
467.80 1.250009
467.90 1.255096
468.00 1.254049
468.10 1.247913
468.20 1.238613
468.30 1.227784
468.40 1.216147
468.50 1.204387
468.60 1.193659
468.70 1.185185
468.80 1.179894
468.90 1.178291
469.00 1.180414
469.10 1.185985
469.20 1.194739
469.30 1.206334
469.40 1.219893
469.50 1.234032
469.60 1.247114
469.70 1.25754
469.80 1.26419
469.90 1.266338
470.00 1.263703
470.10 1.256752
470.20 1.246403
470.30 1.233677
470.40 1.219931
470.50 1.207075
470.60 1.19665
470.70 1.189305
470.80 1.184969
470.90 1.182865
471.00 1.181652
471.10 1.179878
471.20 1.176169
471.30 1.169222
471.40 1.158299
471.50 1.143484
471.60 1.125638
471.70 1.106598
471.80 1.088581
471.90 1.073158
472.00 1.061201
472.10 1.052932
472.20 1.048228
472.30 1.046849
472.40 1.048192
472.50 1.05134
472.60 1.055438
472.70 1.059964
472.80 1.064408
472.90 1.068106
473.00 1.0704
473.10 1.070366
473.20 1.067126
473.30 1.060742
473.40 1.0523
473.50 1.043512
473.60 1.036318
473.70 1.032409
473.80 1.032744
473.90 1.037335
474.00 1.045248
474.10 1.054812
474.20 1.064066
474.30 1.071204
474.40 1.075066
474.50 1.075493
474.60 1.07321
474.70 1.069436
474.80 1.065923
474.90 1.064696
475.00 1.067167
475.10 1.07377
475.20 1.084013
475.30 1.096705
475.40 1.110166
475.50 1.122423
475.60 1.131651
475.70 1.136569
475.80 1.136708
475.90 1.132744
476.00 1.126102
476.10 1.118349
476.20 1.111019
476.30 1.105358
476.40 1.101919
476.50 1.100289
476.60 1.099765
476.70 1.099736
476.80 1.099484
476.90 1.098186
477.00 1.095098
477.10 1.089839
477.20 1.082282
477.30 1.072338
477.40 1.060145
477.50 1.046181
477.60 1.031146
477.70 1.016084
477.80 1.002451
477.90 0.9922345
478.00 0.9870521
478.10 0.9871145
478.20 0.9913628
478.30 0.9981906
478.40 1.005986
478.50 1.013104
478.60 1.018195
478.70 1.02048
478.80 1.019783
478.90 1.016334
479.00 1.010353
479.10 1.002079
479.20 0.9919706
479.30 0.9803044
479.40 0.9671387
479.50 0.9528677
479.60 0.9383997
479.70 0.9247734
479.80 0.9125338
479.90 0.9019595
480.00 0.8932341
480.10 0.8863657
480.20 0.881629
480.30 0.8796733
480.40 0.8809942
480.50 0.8854513
480.60 0.8923832
480.70 0.900718
480.80 0.9091293
480.90 0.9163735
481.00 0.9214513
481.10 0.9238129
481.20 0.9236547
481.30 0.921855
481.40 0.9193233
481.50 0.916675
481.60 0.9140936
481.70 0.9113127
481.80 0.9080559
481.90 0.9043637
482.00 0.9004909
482.10 0.8968396
482.20 0.8938679
482.30 0.891874
482.40 0.8911897
482.50 0.8921491
482.60 0.8948155
482.70 0.8988117
482.80 0.9037645
482.90 0.9096398
483.00 0.9163823
483.10 0.9236658
483.20 0.9308587
483.30 0.9370599
483.40 0.9414469
483.50 0.9436387
483.60 0.943587
483.70 0.9417695
483.80 0.9389039
483.90 0.935607
484.00 0.9325844
484.10 0.9306401
484.20 0.9303849
484.30 0.9320378
484.40 0.9355053
484.50 0.9405969
484.60 0.9469805
484.70 0.9539214
484.80 0.9599584
484.90 0.9632327
485.00 0.9625015
485.10 0.9572373
485.20 0.9479108
485.30 0.9362497
485.40 0.9246732
485.50 0.9157086
485.60 0.9114857
485.70 0.9131048
485.80 0.9203253
485.90 0.9319001
486.00 0.9462114
486.10 0.9616683
486.20 0.9768009
486.30 0.990358
486.40 1.00131
486.50 1.009031
486.60 1.013241
486.70 1.013945
486.80 1.011703
486.90 1.007555
487.00 1.003022
487.10 1.000081
487.20 1.000572
487.30 1.005393
487.40 1.01432
487.50 1.026318
487.60 1.03994
487.70 1.053881
487.80 1.067221
487.90 1.07902
488.00 1.088411
488.10 1.095201
488.20 1.099851
488.30 1.103201
488.40 1.106066
488.50 1.108954
488.60 1.112221
488.70 1.116132
488.80 1.120641
488.90 1.12556
489.00 1.13091
489.10 1.136553
489.20 1.141984
489.30 1.147051
489.40 1.152298
489.50 1.158235
489.60 1.164617
489.70 1.170856
489.80 1.17669
489.90 1.181978
490.00 1.186495
490.10 1.190269
490.20 1.193312
490.30 1.195228
490.40 1.195623
490.50 1.194417
490.60 1.191809
490.70 1.188162
490.80 1.183616
490.90 1.178297
491.00 1.17298
491.10 1.168819
491.20 1.166409
491.30 1.165682
491.40 1.16641
491.50 1.168167
491.60 1.170445
491.70 1.172937
491.80 1.175304
491.90 1.177151
492.00 1.178233
492.10 1.178372
492.20 1.177433
492.30 1.175238
492.40 1.171214
492.50 1.164543
492.60 1.155099
492.70 1.1438
492.80 1.132006
492.90 1.120938
493.00 1.111602
493.10 1.104713
493.20 1.100468
493.30 1.0986
493.40 1.098437
493.50 1.099102
493.60 1.099689
493.70 1.099341
493.80 1.097832
493.90 1.095665
494.00 1.093492
494.10 1.091744
494.20 1.090414
494.30 1.0892
494.40 1.087859
494.50 1.08638
494.60 1.08494
494.70 1.083775
494.80 1.083238
494.90 1.083954
495.00 1.086797
495.10 1.092628
495.20 1.101709
495.30 1.113405
495.40 1.126238
495.50 1.138287
495.60 1.147954
495.70 1.154406
495.80 1.15744
495.90 1.156976
496.00 1.153063
496.10 1.146177
496.20 1.137258
496.30 1.127333
496.40 1.117249
496.50 1.107842
496.60 1.099844
496.70 1.093546
496.80 1.088762
496.90 1.085002
497.00 1.081441
497.10 1.07689
497.20 1.070274
497.30 1.061308
497.40 1.050491
497.50 1.038688
497.60 1.026855
497.70 1.015614
497.80 1.005303
497.90 0.9962009
498.00 0.988626
498.10 0.9828577
498.20 0.9788615
498.30 0.9763265
498.40 0.9749909
498.50 0.9749992
498.60 0.9765837
498.70 0.979737
498.80 0.9843288
498.90 0.9900945
499.00 0.9964747
499.10 1.002895
499.20 1.008816
499.30 1.013626
499.40 1.016606
499.50 1.017214
499.60 1.015659
499.70 1.012694
499.80 1.00899
499.90 1.004776
500.00 1
500.10 0.9943559
500.20 0.9873714
500.30 0.9787789
500.40 0.9686481
500.50 0.9570754
500.60 0.9444377
500.70 0.9317806
500.80 0.920292
500.90 0.9113453
501.00 0.9058871
501.10 0.9041769
501.20 0.90605
501.30 0.9110987
501.40 0.9186816
501.50 0.9281371
501.60 0.9387775
501.70 0.949754
501.80 0.960338
501.90 0.9699756
502.00 0.9782556
502.10 0.9850664
502.20 0.9904342
502.30 0.99439
502.40 0.9971804
502.50 0.9992677
502.60 1.000752
502.70 1.001345
502.80 1.000726
502.90 0.9987435
503.00 0.9955961
503.10 0.9919243
503.20 0.988905
503.30 0.9878534
503.40 0.9897255
503.50 0.9949792
503.60 1.00348
503.70 1.014393
503.80 1.02618
503.90 1.036972
504.00 1.045408
504.10 1.051206
504.20 1.055086
504.30 1.058125
504.40 1.061378
504.50 1.06561
504.60 1.071093
504.70 1.077796
504.80 1.085555
504.90 1.093804
505.00 1.101624
505.10 1.108337
505.20 1.113699
505.30 1.117787
505.40 1.120864
505.50 1.123016
505.60 1.124022
505.70 1.123684
505.80 1.121925
505.90 1.119021
506.00 1.115464
506.10 1.111826
506.20 1.108677
506.30 1.106445
506.40 1.105468
506.50 1.105694
506.60 1.106747
506.70 1.108534
506.80 1.111171
506.90 1.114435
507.00 1.117849
507.10 1.121035
507.20 1.123771
507.30 1.125779
507.40 1.126747
507.50 1.126476
507.60 1.124829
507.70 1.121939
507.80 1.118153
507.90 1.113988
508.00 1.110206
508.10 1.107422
508.20 1.106041
508.30 1.106544
508.40 1.109063
508.50 1.112942
508.60 1.117105
508.70 1.120448
508.80 1.122203
508.90 1.122043
509.00 1.11997
509.10 1.116343
509.20 1.111908
509.30 1.107724
509.40 1.10492
509.50 1.104291
509.60 1.106093
509.70 1.109958
509.80 1.11542
509.90 1.122324
510.00 1.130559
510.10 1.140051
510.20 1.150561
510.30 1.161592
510.40 1.172572
510.50 1.18316
510.60 1.193117
510.70 1.201736
510.80 1.208302
510.90 1.21199
511.00 1.212177
511.10 1.208754
511.20 1.202003
511.30 1.192432
511.40 1.180671
511.50 1.167301
511.60 1.152954
511.70 1.138399
511.80 1.124311
511.90 1.111283
512.00 1.099878
512.10 1.090658
512.20 1.084311
512.30 1.081529
512.40 1.082515
512.50 1.086886
512.60 1.093802
512.70 1.101929
512.80 1.109722
512.90 1.115737
513.00 1.118922
513.10 1.118689
513.20 1.114969
513.30 1.108273
513.40 1.099637
513.50 1.090166
513.60 1.080751
513.70 1.072137
513.80 1.064844
513.90 1.059147
514.00 1.05489
514.10 1.051317
514.20 1.047572
514.30 1.043291
514.40 1.038412
514.50 1.033114
514.60 1.027883
514.70 1.023238
514.80 1.019471
514.90 1.016673
515.00 1.014523
515.10 1.012286
515.20 1.00931
515.30 1.005133
515.40 0.9996908
515.50 0.9935182
515.60 0.9873451
515.70 0.981821
515.80 0.9775327
515.90 0.9747327
516.00 0.973474
516.10 0.9737567
516.20 0.9754304
516.30 0.9783673
516.40 0.9825865
516.50 0.9882051
516.60 0.995246
516.70 1.003262
516.80 1.011496
516.90 1.019828
517.00 1.028818
517.10 1.038948
517.20 1.050636
517.30 1.064343
517.40 1.080163
517.50 1.097666
517.60 1.116117
517.70 1.134545
517.80 1.151873
517.90 1.167093
518.00 1.179337
518.10 1.188267
518.20 1.194206
518.30 1.197575
518.40 1.198905
518.50 1.199084
518.60 1.199032
518.70 1.199442
518.80 1.200536
518.90 1.202015
519.00 1.203305
519.10 1.203699
519.20 1.202536
519.30 1.199333
519.40 1.19395
519.50 1.18691
519.60 1.179238
519.70 1.172205
519.80 1.167014
519.90 1.164496
520.00 1.164807
520.10 1.167233
520.20 1.170725
520.30 1.17432
520.40 1.176907
520.50 1.177431
520.60 1.175176
520.70 1.170108
520.80 1.163382
520.90 1.156891
521.00 1.152444
521.10 1.151122
521.20 1.152992
521.30 1.157273
521.40 1.162863
521.50 1.16879
521.60 1.174283
521.70 1.178863
521.80 1.182897
521.90 1.187616
522.00 1.194407
522.10 1.204076
522.20 1.216277
522.30 1.22968
522.40 1.242731
522.50 1.25415
522.60 1.263146
522.70 1.269443
522.80 1.273157
522.90 1.274877
523.00 1.275685
523.10 1.276826
523.20 1.279001
523.30 1.281935
523.40 1.284678
523.50 1.286227
523.60 1.286003
523.70 1.283904
523.80 1.280145
523.90 1.275074
524.00 1.269352
524.10 1.263981
524.20 1.259797
524.30 1.257307
524.40 1.256645
524.50 1.257144
524.60 1.257556
524.70 1.256899
524.80 1.254819
524.90 1.251432
525.00 1.247145
525.10 1.2426
525.20 1.238663
525.30 1.236317
525.40 1.236323
525.50 1.239223
525.60 1.245605
525.70 1.255521
525.80 1.268255
525.90 1.282893
526.00 1.298442
526.10 1.313672
526.20 1.327363
526.30 1.338648
526.40 1.346889
526.50 1.351688
526.60 1.353004
526.70 1.351275
526.80 1.347365
526.90 1.341905
527.00 1.335066
527.10 1.3271
527.20 1.3183
527.30 1.308989
527.40 1.29994
527.50 1.292203
527.60 1.286611
527.70 1.283398
527.80 1.282271
527.90 1.282628
528.00 1.283536
528.10 1.283898
528.20 1.282566
528.30 1.278711
528.40 1.272226
528.50 1.263666
528.60 1.254053
528.70 1.244711
528.80 1.2369
528.90 1.231594
529.00 1.229522
529.10 1.231095
529.20 1.236282
529.30 1.244557
529.40 1.255112
529.50 1.26686
529.60 1.278624
529.70 1.289645
529.80 1.29954
529.90 1.308253
530.00 1.316368
530.10 1.324948
530.20 1.334901
530.30 1.346646
530.40 1.36039
530.50 1.37624
530.60 1.393991
530.70 1.412972
530.80 1.43181
530.90 1.448833
531.00 1.462824
531.10 1.473306
531.20 1.480679
531.30 1.486038
531.40 1.490534
531.50 1.495103
531.60 1.500534
531.70 1.507156
531.80 1.514178
531.90 1.519731
532.00 1.521811
532.10 1.519161
532.20 1.511813
532.30 1.501188
532.40 1.489506
532.50 1.479029
532.60 1.471686
532.70 1.468878
532.80 1.471529
532.90 1.479619
533.00 1.491883
533.10 1.506407
533.20 1.521387
533.30 1.53577
533.40 1.549315
533.50 1.562116
533.60 1.574281
533.70 1.585868
533.80 1.597047
533.90 1.608092
534.00 1.618975
534.10 1.629352
534.20 1.638804
534.30 1.646829
534.40 1.652976
534.50 1.657196
534.60 1.659835
534.70 1.661243
534.80 1.661602
534.90 1.661042
535.00 1.659889
535.10 1.658533
535.20 1.657053
535.30 1.655525
535.40 1.654251
535.50 1.653286
535.60 1.65199
535.70 1.649573
535.80 1.645613
535.90 1.64006
536.00 1.63319
536.10 1.625417
536.20 1.617232
536.30 1.609386
536.40 1.603028
536.50 1.599491
536.60 1.59999
536.70 1.604952
536.80 1.613857
536.90 1.625705
537.00 1.639165
537.10 1.652712
537.20 1.664966
537.30 1.674831
537.40 1.681525
537.50 1.684847
537.60 1.685213
537.70 1.683423
537.80 1.680357
537.90 1.676748
538.00 1.673336
538.10 1.670995
538.20 1.670657
538.30 1.673136
538.40 1.678802
538.50 1.687332
538.60 1.697786
538.70 1.70872
538.80 1.718639
538.90 1.726352
539.00 1.731156
539.10 1.733294
539.20 1.733922
539.30 1.734577
539.40 1.736681
539.50 1.741238
539.60 1.748418
539.70 1.757355
539.80 1.76658
539.90 1.774559
540.00 1.779875
540.10 1.781458
540.20 1.778898
540.30 1.772448
540.40 1.762838
540.50 1.750753
540.60 1.736572
540.70 1.720943
540.80 1.70481
540.90 1.688968
541.00 1.674084
541.10 1.660757
541.20 1.649557
541.30 1.640958
541.40 1.635284
541.50 1.632538
541.60 1.63221
541.70 1.633662
541.80 1.636661
541.90 1.641455
542.00 1.648555
542.10 1.658192
542.20 1.670161
542.30 1.683838
542.40 1.698036
542.50 1.711275
542.60 1.722085
542.70 1.729286
542.80 1.732076
542.90 1.730351
543.00 1.724978
543.10 1.717444
543.20 1.709439
543.30 1.702321
543.40 1.696762
543.50 1.692899
543.60 1.690474
543.70 1.689014
543.80 1.68805
543.90 1.687145
544.00 1.686068
544.10 1.684662
544.20 1.682786
544.30 1.680347
544.40 1.67722
544.50 1.673409
544.60 1.668982
544.70 1.664013
544.80 1.658715
544.90 1.653462
545.00 1.648673
545.10 1.644621
545.20 1.64137
545.30 1.638655
545.40 1.635731
545.50 1.631808
545.60 1.626659
545.70 1.620604
545.80 1.614265
545.90 1.60837
546.00 1.603553
546.10 1.600319
546.20 1.599008
546.30 1.599355
546.40 1.600388
546.50 1.600921
546.60 1.599981
546.70 1.597259
546.80 1.593188
546.90 1.5887
547.00 1.584786
547.10 1.582043
547.20 1.580707
547.30 1.580581
547.40 1.580983
547.50 1.581008
547.60 1.579972
547.70 1.577804
547.80 1.57483
547.90 1.571513
548.00 1.568263
548.10 1.565272
548.20 1.562679
548.30 1.560356
548.40 1.557862
548.50 1.554901
548.60 1.551239
548.70 1.546727
548.80 1.541623
548.90 1.536677
549.00 1.532609
549.10 1.529516
549.20 1.527061
549.30 1.524828
549.40 1.52215
549.50 1.517913
549.60 1.510968
549.70 1.50065
549.80 1.487084
549.90 1.471142
550.00 1.294312
550.10 1.307271
550.20 1.323133
550.30 1.337352
550.40 1.346013
550.50 1.346963
550.60 1.340483
550.70 1.328465
550.80 1.313058
550.90 1.296261
551.00 1.27955
551.10 1.264123
551.20 1.251431
551.30 1.24257
551.40 1.238216
551.50 1.238972
551.60 1.244812
551.70 1.254832
551.80 1.268089
551.90 1.283722
552.00 1.300226
552.10 1.316017
552.20 1.330479
552.30 1.343815
552.40 1.356691
552.50 1.369423
552.60 1.381135
552.70 1.390399
552.80 1.396398
552.90 1.399057
553.00 1.398893
553.10 1.397114
553.20 1.395231
553.30 1.394822
553.40 1.397634
553.50 1.404589
553.60 1.41493
553.70 1.42668
553.80 1.437366
553.90 1.444682
554.00 1.447457
554.10 1.445644
554.20 1.439731
554.30 1.430907
554.40 1.42127
554.50 1.412993
554.60 1.407101
554.70 1.403428
554.80 1.401229
554.90 1.399388
555.00 1.395804
555.10 1.391415
555.20 1.390848
555.30 1.400232
555.40 1.427978
555.50 1.480697
555.60 1.561009
555.70 1.667508
555.80 1.793292
555.90 1.926864
556.00 2.055583
556.10 2.168638
556.20 2.258486
556.30 2.322606
556.40 2.365535
556.50 2.394408
556.60 2.416309
556.70 2.438248
556.80 2.463292
556.90 2.491908
557.00 2.523
557.10 2.55386
557.20 2.581926
557.30 2.605472
557.40 2.623237
557.50 2.634586
557.60 2.640343
557.70 2.642753
557.80 2.644274
557.90 2.646531
558.00 2.651074
558.10 2.659608
558.20 2.672706
558.30 2.689267
558.40 2.706985
558.50 2.723295
558.60 2.736764
558.70 2.747543
558.80 2.75765
558.90 2.770881
559.00 2.791933
559.10 2.82103
559.20 2.852787
559.30 2.879224
559.40 2.888935
559.50 2.8709
559.60 2.819371
559.70 2.735635
559.80 2.627931
559.90 2.509139
560.00 2.394095
560.10 2.297267
560.20 2.228963
560.30 2.191833
560.40 2.180107
560.50 2.18548
560.60 2.200114
560.70 2.215952
560.80 2.227818
560.90 2.232875
561.00 2.230333
561.10 2.221729
561.20 2.209607
561.30 2.197561
561.40 2.189258
561.50 2.186512
561.60 2.189406
561.70 2.197301
561.80 2.209326
561.90 2.224301
562.00 2.239949
562.10 2.25369
562.20 2.264277
562.30 2.272076
562.40 2.278112
562.50 2.283328
562.60 2.288024
562.70 2.291379
562.80 2.291943
562.90 2.288946
563.00 2.28245
563.10 2.272625
563.20 2.259733
563.30 2.244294
563.40 2.228031
563.50 2.213946
563.60 2.204277
563.70 2.199271
563.80 2.197915
563.90 2.198598
564.00 2.199435
564.10 2.198138
564.20 2.192358
564.30 2.180442
564.40 2.161838
564.50 2.137487
564.60 2.109458
564.70 2.080585
564.80 2.054112
564.90 2.032588
565.00 2.017747
565.10 2.010561
565.20 2.010613
565.30 2.01568
565.40 2.022668
565.50 2.029095
565.60 2.033275
565.70 2.03449
565.80 2.033237
565.90 2.030775
566.00 2.028289
566.10 2.02701
566.20 2.028589
566.30 2.034749
566.40 2.04706
566.50 2.066449
566.60 2.09335
566.70 2.127982
566.80 2.169264
566.90 2.214271
567.00 2.25954
567.10 2.30139
567.20 2.33617
567.30 2.361709
567.40 2.378438
567.50 2.388525
567.60 2.394314
567.70 2.398246
567.80 2.402268
567.90 2.407489
568.00 2.413834
568.10 2.420194
568.20 2.425934
568.30 2.43121
568.40 2.436001
568.50 2.440632
568.60 2.44708
568.70 2.458499
568.80 2.477747
568.90 2.506538
569.00 2.544594
569.10 2.589153
569.20 2.635826
569.30 2.679669
569.40 2.716235
569.50 2.74274
569.60 2.758047
569.70 2.76166
569.80 2.753612
569.90 2.734764
570.00 2.706785
570.10 2.671543
570.20 2.630545
570.30 2.585244
570.40 2.537544
570.50 2.489933
570.60 2.445145
570.70 2.40547
570.80 2.371957
570.90 2.343671
571.00 2.318711
571.10 2.296439
571.20 2.277727
571.30 2.263663
571.40 2.253705
571.50 2.245706
571.60 2.237548
571.70 2.227663
571.80 2.215451
571.90 2.201247
572.00 2.18537
572.10 2.168019
572.20 2.149625
572.30 2.131081
572.40 2.113267
572.50 2.095867
572.60 2.076908
572.70 2.053668
572.80 2.023825
572.90 1.986105
573.00 1.940942
573.10 1.890566
573.20 1.838209
573.30 1.787363
573.40 1.741539
573.50 1.703366
573.60 1.673636
573.70 1.651644
573.80 1.636097
573.90 1.625772
574.00 1.620414
574.10 1.620111
574.20 1.624194
574.30 1.631397
574.40 1.640025
574.50 1.648426
574.60 1.65523
574.70 1.659118
574.80 1.659557
574.90 1.657863
575.00 1.656624
575.10 1.658461
575.20 1.665031
575.30 1.676176
575.40 1.690076
575.50 1.704673
575.60 1.718651
575.70 1.731115
575.80 1.74127
575.90 1.748619
576.00 1.753172
576.10 1.755603
576.20 1.756966
576.30 1.758546
576.40 1.761987
576.50 1.768554
576.60 1.77874
576.70 1.792879
576.80 1.812002
576.90 1.837112
577.00 1.867638
577.10 1.901508
577.20 1.935853
577.30 1.967166
577.40 1.992225
577.50 2.00922
577.60 2.018101
577.70 2.0204
577.80 2.018695
577.90 2.016356
578.00 2.01653
578.10 2.021486
578.20 2.031911
578.30 2.046514
578.40 2.063274
578.50 2.080053
578.60 2.09495
578.70 2.107104
578.80 2.116057
578.90 2.121159
579.00 2.121666
579.10 2.11645
579.20 2.10468
579.30 2.087194
579.40 2.06705
579.50 2.048115
579.60 2.033341
579.70 2.024409
579.80 2.021968
579.90 2.02578
580.00 2.034622
580.10 2.0462
580.20 2.058022
580.30 2.067579
580.40 2.072523
580.50 2.071619
580.60 2.064964
580.70 2.053241
580.80 2.03619
580.90 2.012976
581.00 1.984122
581.10 1.951969
581.20 1.919956
581.30 1.892109
581.40 1.871866
581.50 1.861244
581.60 1.860778
581.70 1.869539
581.80 1.884798
581.90 1.902875
582.00 1.920196
582.10 1.933578
582.20 1.941934
582.30 1.946807
582.40 1.950262
582.50 1.953501
582.60 1.956645
582.70 1.958752
582.80 1.95872
582.90 1.955298
583.00 1.947391
583.10 1.934989
583.20 1.919113
583.30 1.900366
583.40 1.877902
583.50 1.850532
583.60 1.817815
583.70 1.780718
583.80 1.741233
583.90 1.701883
584.00 1.665764
584.10 1.635631
584.20 1.613156
584.30 1.599181
584.40 1.593619
584.50 1.59577
584.60 1.604492
584.70 1.617606
584.80 1.632676
584.90 1.647441
585.00 1.658923
585.10 1.663034
585.20 1.65628
585.30 1.637093
585.40 1.606097
585.50 1.566497
585.60 1.523083
585.70 1.480867
585.80 1.444277
585.90 1.415124
586.00 1.392257
586.10 1.373404
586.20 1.355259
586.30 1.33371
586.40 1.306785
586.50 1.275622
586.60 1.243235
586.70 1.213948
586.80 1.192109
586.90 1.180647
587.00 1.180257
587.10 1.190275
587.20 1.208876
587.30 1.23394
587.40 1.264222
587.50 1.298706
587.60 1.336144
587.70 1.374798
587.80 1.411586
587.90 1.442703
588.00 1.464831
588.10 1.475901
588.20 1.475333
588.30 1.464211
588.40 1.445628
588.50 1.422977
588.60 1.398686
588.70 1.37421
588.80 1.350392
588.90 1.328239
589.00 1.309218
589.10 1.295362
589.20 1.288434
589.30 1.28932
589.40 1.297984
589.50 1.312638
589.60 1.33035
589.70 1.347872
589.80 1.361812
589.90 1.369745
590.00 1.371284
590.10 1.367756
590.20 1.361226
590.30 1.353878
590.40 1.346623
590.50 1.338617
590.60 1.327995
590.70 1.312852
590.80 1.292234
590.90 1.266973
591.00 1.239569
591.10 1.212442
591.20 1.187564
591.30 1.166069
591.40 1.147259
591.50 1.129052
591.60 1.109143
591.70 1.08498
591.80 1.055357
591.90 1.021745
592.00 0.9878471
592.10 0.9582131
592.20 0.9368114
592.30 0.926149
592.40 0.9266225
592.50 0.9372827
592.60 0.9557727
592.70 0.9788086
592.80 1.003442
592.90 1.027139
593.00 1.047502
593.10 1.063297
593.20 1.075299
593.30 1.085141
593.40 1.093952
593.50 1.102698
593.60 1.112522
593.70 1.124313
593.80 1.1384
593.90 1.154506
594.00 1.17218
594.10 1.19143
594.20 1.213054
594.30 1.238599
594.40 1.269472
594.50 1.306085
594.60 1.347332
594.70 1.390666
594.80 1.43327
594.90 1.472363
595.00 1.504802
595.10 1.52792
595.20 1.54068
595.30 1.544271
595.40 1.541668
595.50 1.536074
595.60 1.529354
595.70 1.522513
595.80 1.516814
595.90 1.513396
596.00 1.512553
596.10 1.513795
596.20 1.51628
596.30 1.518807
596.40 1.520089
596.50 1.518911
596.60 1.514507
596.70 1.506677
596.80 1.495241
596.90 1.480669
597.00 1.465136
597.10 1.451166
597.20 1.439503
597.30 1.429071
597.40 1.418407
597.50 1.406044
597.60 1.390252
597.70 1.369727
597.80 1.344762
597.90 1.317702
598.00 1.29214
598.10 1.271713
598.20 1.259284
598.30 1.255763
598.40 1.259418
598.50 1.266901
598.60 1.27488
598.70 1.281055
598.80 1.283716
598.90 1.281898
599.00 1.276141
599.10 1.26848
599.20 1.26136
599.30 1.256616
599.40 1.255433
599.50 1.258739
599.60 1.267665
599.70 1.283331
599.80 1.306274
599.90 1.335809
600.00 0.8878695
600.10 1.14182
600.20 1.490215
600.30 1.877255
600.40 2.226954
600.50 2.470523
600.60 2.569499
600.70 2.536801
600.80 2.399377
600.90 2.189838
601.00 1.955288
601.10 1.748032
601.20 1.604454
601.30 1.534407
601.40 1.520757
601.50 1.526871
601.60 1.525398
601.70 1.509965
601.80 1.503397
601.90 1.533107
602.00 1.602289
602.10 1.678187
602.20 1.727276
602.30 1.732167
602.40 1.683545
602.50 1.589528
602.60 1.471706
602.70 1.350514
602.80 1.241197
602.90 1.168786
603.00 1.161486
603.10 1.21318
603.20 1.281087
603.30 1.330487
603.40 1.358243
603.50 1.385225
603.60 1.430192
603.70 1.490951
603.80 1.562931
603.90 1.644079
604.00 1.720223
604.10 1.777783
604.20 1.817507
604.30 1.836898
604.40 1.820825
604.50 1.77713
604.60 1.729176
604.70 1.699194
604.80 1.718239
604.90 1.798174
605.00 1.933796
605.10 2.126887
605.20 2.362728
605.30 2.604245
605.40 2.804595
605.50 2.922738
605.60 2.936424
605.70 2.845554
605.80 2.673271
605.90 2.44852
606.00 2.21583
606.10 2.014662
606.20 1.848084
606.30 1.716244
606.40 1.626354
606.50 1.577165
606.60 1.562705
606.70 1.588442
606.80 1.672227
606.90 1.810581
607.00 1.968923
607.10 2.112167
607.20 2.224225
607.30 2.293172
607.40 2.308221
607.50 2.268691
607.60 2.191314
607.70 2.115986
607.80 2.078862
607.90 2.095458
608.00 2.172134
608.10 2.290428
608.20 2.416381
608.30 2.538432
608.40 2.666905
608.50 2.783428
608.60 2.835351
608.70 2.795053
608.80 2.669194
608.90 2.479749
609.00 2.254012
609.10 2.016623
609.20 1.78893
609.30 1.593658
609.40 1.442786
609.50 1.331476
609.60 1.260997
609.70 1.230093
609.80 1.217182
609.90 1.2177
610.00 1.26017
610.10 1.357454
610.20 1.473499
610.30 1.57217
610.40 1.642692
610.50 1.682129
610.60 1.699361
610.70 1.710496
610.80 1.734354
610.90 1.784023
611.00 1.842172
611.10 1.874331
611.20 1.872151
611.30 1.863132
611.40 1.873806
611.50 1.918926
611.60 2.022964
611.70 2.188569
611.80 2.383922
611.90 2.55999
612.00 2.664095
612.10 2.651571
612.20 2.499491
612.30 2.235759
612.40 1.934605
612.50 1.680695
612.60 1.532999
612.70 1.496528
612.80 1.550724
612.90 1.679198
613.00 1.854694
613.10 2.040161
613.20 2.196083
613.30 2.294589
613.40 2.347589
613.50 2.400339
613.60 2.478283
613.70 2.554625
613.80 2.59166
613.90 2.573289
614.00 2.502486
614.10 2.403632
614.20 2.304834
614.30 2.205473
614.40 2.097829
614.50 1.991097
614.60 1.897712
614.70 1.831088
614.80 1.782427
614.90 1.725667
615.00 1.650006
615.10 1.581254
615.20 1.553861
615.30 1.578978
615.40 1.649176
615.50 1.737491
615.60 1.809291
615.70 1.843744
615.80 1.835058
615.90 1.79418
616.00 1.754786
616.10 1.739011
616.20 1.75822
616.30 1.82715
616.40 1.941035
616.50 2.0598
616.60 2.137698
616.70 2.164964
616.80 2.155313
616.90 2.119742
617.00 2.062002
617.10 2.003757
617.20 1.966615
617.30 1.944684
617.40 1.913474
617.50 1.853343
617.60 1.76405
617.70 1.654393
617.80 1.55033
617.90 1.490998
618.00 1.509199
618.10 1.604076
618.20 1.742928
618.30 1.896126
618.40 2.052707
618.50 2.197689
618.60 2.310505
618.70 2.383314
618.80 2.42529
618.90 2.451444
619.00 2.447842
619.10 2.388899
619.20 2.272086
619.30 2.127108
619.40 1.991123
619.50 1.880955
619.60 1.806751
619.70 1.778532
619.80 1.794034
619.90 1.839996
620.00 1.894122
620.10 1.929345
620.20 1.936834
620.30 1.917094
620.40 1.89693
620.50 1.919927
620.60 2.001276
620.70 2.127545
620.80 2.26365
620.90 2.3718
621.00 2.424817
621.10 2.397423
621.20 2.265932
621.30 2.026177
621.40 1.716474
621.50 1.399699
621.60 1.114203
621.70 0.898607
621.80 0.7895985
621.90 0.7895045
622.00 0.8824839
622.10 1.035442
622.20 1.224112
622.30 1.441126
622.40 1.671621
622.50 1.886342
622.60 2.055985
622.70 2.171223
622.80 2.22131
622.90 2.20317
623.00 2.14559
623.10 2.068483
623.20 1.967047
623.30 1.848099
623.40 1.733243
623.50 1.650613
623.60 1.627867
623.70 1.671549
623.80 1.767654
623.90 1.901566
624.00 2.056194
624.10 2.200506
624.20 2.30358
624.30 2.334211
624.40 2.269032
624.50 2.120588
624.60 1.937479
624.70 1.770553
624.80 1.656616
624.90 1.620349
625.00 1.662231
625.10 1.774123
625.20 1.943623
625.30 2.146698
625.40 2.355495
625.50 2.545369
625.60 2.719635
625.70 2.887037
625.80 3.028762
625.90 3.11843
626.00 3.134547
626.10 3.0592
626.20 2.889335
626.30 2.640256
626.40 2.343348
626.50 2.044733
626.60 1.804453
626.70 1.670895
626.80 1.661468
626.90 1.760886
627.00 1.917248
627.10 2.086545
627.20 2.250434
627.30 2.400215
627.40 2.527337
627.50 2.618727
627.60 2.673684
627.70 2.699414
627.80 2.690057
627.90 2.640308
628.00 2.556827
628.10 2.458157
628.20 2.379269
628.30 2.348674
628.40 2.367161
628.50 2.411682
628.60 2.445659
628.70 2.434211
628.80 2.36203
628.90 2.248363
629.00 2.121311
629.10 2.008373
629.20 1.949184
629.30 1.980279
629.40 2.09961
629.50 2.262294
629.60 2.383174
629.70 2.404257
629.80 2.342498
629.90 2.239637
630.00 2.150685
630.10 2.12844
630.20 2.201765
630.30 2.370311
630.40 2.617344
630.50 2.907667
630.60 3.189109
630.70 3.403072
630.80 3.523491
630.90 3.561559
631.00 3.562279
631.10 3.565114
631.20 3.576744
631.30 3.592726
631.40 3.595012
631.50 3.568455
631.60 3.511713
631.70 3.432927
631.80 3.330754
631.90 3.210052
632.00 3.089018
632.10 2.988704
632.20 2.917114
632.30 2.881761
632.40 2.904791
632.50 2.996784
632.60 3.127136
632.70 3.25751
632.80 3.367765
632.90 3.439374
633.00 3.464733
633.10 3.446909
633.20 3.399698
633.30 3.334601
633.40 3.261976
633.50 3.194873
633.60 3.144356
633.70 3.128213
633.80 3.161614
633.90 3.249099
634.00 3.387336
634.10 3.556846
634.20 3.728542
634.30 3.874349
634.40 3.963818
634.50 3.987124
634.60 3.964041
634.70 3.92495
634.80 3.895536
634.90 3.900642
635.00 3.964492
635.10 4.095233
635.20 4.264632
635.30 4.426296
635.40 4.550637
635.50 4.610883
635.60 4.566652
635.70 4.400737
635.80 4.156502
635.90 3.866421
636.00 3.539016
636.10 3.20959
636.20 2.944055
636.30 2.790555
636.40 2.749257
636.50 2.807431
636.60 2.948517
636.70 3.141412
636.80 3.33896
636.90 3.501759
637.00 3.623653
637.10 3.704497
637.20 3.708149
637.30 3.624195
637.40 3.49238
637.50 3.365496
637.60 3.27746
637.70 3.241899
637.80 3.26067
637.90 3.321323
638.00 3.429323
638.10 3.585903
638.20 3.779781
638.30 3.999436
638.40 4.224605
638.50 4.425875
638.60 4.582481
638.70 4.695
638.80 4.767829
638.90 4.793317
639.00 4.756349
639.10 4.660845
639.20 4.537927
639.30 4.413187
639.40 4.286581
639.50 4.169444
639.60 4.08772
639.70 4.055162
639.80 4.071481
639.90 4.141486
640.00 4.261494
640.10 4.402739
640.20 4.533688
640.30 4.621834
640.40 4.645716
640.50 4.601805
640.60 4.498795
640.70 4.354077
640.80 4.188466
640.90 4.020011
641.00 3.858197
641.10 3.713872
641.20 3.608432
641.30 3.554448
641.40 3.55827
641.50 3.631118
641.60 3.774244
641.70 3.981283
641.80 4.228682
641.90 4.464564
642.00 4.628432
642.10 4.677191
642.20 4.598971
642.30 4.418866
642.40 4.198718
642.50 4.003858
642.60 3.879561
642.70 3.857578
642.80 3.946833
642.90 4.117029
643.00 4.31536
643.10 4.483585
643.20 4.57629
643.30 4.588501
643.40 4.538704
643.50 4.45364
643.60 4.364369
643.70 4.284649
643.80 4.207123
643.90 4.136098
644.00 4.084018
644.10 4.043075
644.20 3.996858
644.30 3.948091
644.40 3.907668
644.50 3.885334
644.60 3.891873
644.70 3.931811
644.80 4.011655
644.90 4.126899
645.00 4.251672
645.10 4.357488
645.20 4.428208
645.30 4.446706
645.40 4.396979
645.50 4.285864
645.60 4.14438
645.70 4.002595
645.80 3.887087
645.90 3.818069
646.00 3.807703
646.10 3.857512
646.20 3.959398
646.30 4.112547
646.40 4.319471
646.50 4.573182
646.60 4.839474
646.70 5.070059
646.80 5.231406
646.90 5.310154
647.00 5.305634
647.10 5.236195
647.20 5.129189
647.30 5.010982
647.40 4.907772
647.50 4.842243
647.60 4.825521
647.70 4.840854
647.80 4.855427
647.90 4.842224
648.00 4.789766
648.10 4.709888
648.20 4.625265
648.30 4.556662
648.40 4.524579
648.50 4.53383
648.60 4.578044
648.70 4.654584
648.80 4.75234
648.90 4.852638
649.00 4.933244
649.10 4.988237
649.20 5.023331
649.30 5.044544
649.40 5.065223
649.50 5.084489
649.60 5.089056
649.70 5.058785
649.80 4.985817
649.90 4.890507
650.00 4.793074
650.10 4.712069
650.20 4.678666
650.30 4.710963
650.40 4.807595
650.50 4.947014
650.60 5.095854
650.70 5.225884
650.80 5.319054
650.90 5.386205
651.00 5.445104
651.10 5.50781
651.20 5.578263
651.30 5.652281
651.40 5.731845
651.50 5.817158
651.60 5.893584
651.70 5.941334
651.80 5.951151
651.90 5.923397
652.00 5.870136
652.10 5.812967
652.20 5.776053
652.30 5.766964
652.40 5.78033
652.50 5.823538
652.60 5.915221
652.70 6.062441
652.80 6.252902
652.90 6.454767
653.00 6.617742
653.10 6.70812
653.20 6.714776
653.30 6.647469
653.40 6.534965
653.50 6.408984
653.60 6.297384
653.70 6.218869
653.80 6.195675
653.90 6.253766
654.00 6.401065
654.10 6.617003
654.20 6.869795
654.30 7.134222
654.40 7.396136
654.50 7.629585
654.60 7.80395
654.70 7.9047
654.80 7.931074
654.90 7.883517
655.00 7.75907
655.10 7.573794
655.20 7.35736
655.30 7.128961
655.40 6.904697
655.50 6.711867
655.60 6.594139
655.70 6.61054
655.80 6.781585
655.90 7.074798
656.00 7.444651
656.10 7.841444
656.20 8.209601
656.30 8.493869
656.40 8.653923
656.50 8.677653
656.60 8.577971
656.70 8.386958
656.80 8.140449
656.90 7.871687
657.00 7.601694
657.10 7.330548
657.20 7.073739
657.30 6.861722
657.40 6.704524
657.50 6.587859
657.60 6.485741
657.70 6.377368
657.80 6.26539
657.90 6.172036
658.00 6.121086
658.10 6.12248
658.20 6.170856
658.30 6.258622
658.40 6.376449
658.50 6.498587
658.60 6.594981
658.70 6.647228
658.80 6.650248
658.90 6.604128
659.00 6.525404
659.10 6.463766
659.20 6.461929
659.30 6.52044
659.40 6.617613
659.50 6.73698
659.60 6.869436
659.70 7.002017
659.80 7.099702
659.90 7.129379
660.00 7.087332
660.10 7.002081
660.20 6.916453
660.30 6.864466
660.40 6.863205
660.50 6.90591
660.60 6.975339
660.70 7.073932
660.80 7.209807
660.90 7.365805
661.00 7.506784
661.10 7.591622
661.20 7.601137
661.30 7.543099
661.40 7.434677
661.50 7.294119
661.60 7.145666
661.70 7.029994
661.80 6.982617
661.90 7.00699
662.00 7.086584
662.10 7.175968
662.20 7.221423
662.30 7.194695
662.40 7.090849
662.50 6.941396
662.60 6.799102
662.70 6.701329
662.80 6.671928
662.90 6.734842
663.00 6.896926
663.10 7.122801
663.20 7.350684
663.30 7.533851
663.40 7.64529
663.50 7.680309
663.60 7.650365
663.70 7.578844
663.80 7.506993
663.90 7.459521
664.00 7.4493
664.10 7.50133
664.20 7.625932
664.30 7.798668
664.40 7.970713
664.50 8.110221
664.60 8.213632
664.70 8.288106
664.80 8.333162
664.90 8.342148
665.00 8.321331
665.10 8.280791
665.20 8.222654
665.30 8.154039
665.40 8.085513
665.50 8.018662
665.60 7.951637
665.70 7.878649
665.80 7.797809
665.90 7.717144
666.00 7.641603
666.10 7.56928
666.20 7.507323
666.30 7.469659
666.40 7.460234
666.50 7.483125
666.60 7.553753
666.70 7.685166
666.80 7.870721
666.90 8.079704
667.00 8.267479
667.10 8.405631
667.20 8.487673
667.30 8.518194
667.40 8.509228
667.50 8.472084
667.60 8.412321
667.70 8.336813
667.80 8.268544
667.90 8.231982
668.00 8.223749
668.10 8.223619
668.20 8.220913
668.30 8.220966
668.40 8.23924
668.50 8.279257
668.60 8.325412
668.70 8.356618
668.80 8.358755
668.90 8.322151
669.00 8.248439
669.10 8.148636
669.20 8.0323
669.30 7.917609
669.40 7.831472
669.50 7.797798
669.60 7.829443
669.70 7.91637
669.80 8.028037
669.90 8.137819
670.00 8.222436
670.10 8.250431
670.20 8.21076
670.30 8.12203
670.40 8.010687
670.50 7.911273
670.60 7.856372
670.70 7.867457
670.80 7.951483
670.90 8.104106
671.00 8.306267
671.10 8.528281
671.20 8.744182
671.30 8.927792
671.40 9.059683
671.50 9.130744
671.60 9.130971
671.70 9.06619
671.80 8.968183
671.90 8.858986
672.00 8.753335
672.10 8.666003
672.20 8.605885
672.30 8.572788
672.40 8.556401
672.50 8.544949
672.60 8.527751
672.70 8.489035
672.80 8.417634
672.90 8.321709
673.00 8.216716
673.10 8.120217
673.20 8.048454
673.30 8.025266
673.40 8.067292
673.50 8.167835
673.60 8.310309
673.70 8.478888
673.80 8.656855
673.90 8.82785
674.00 8.975794
674.10 9.090922
674.20 9.176339
674.30 9.231867
674.40 9.245135
674.50 9.20856
674.60 9.134795
674.70 9.052271
674.80 8.988492
674.90 8.958102
675.00 8.963483
675.10 9.006969
675.20 9.096161
675.30 9.21603
675.40 9.324272
675.50 9.376147
675.60 9.340671
675.70 9.222457
675.80 9.069973
675.90 8.930042
676.00 8.818769
676.10 8.739714
676.20 8.707828
676.30 8.746288
676.40 8.871763
676.50 9.06764
676.60 9.277574
676.70 9.457828
676.80 9.601174
676.90 9.712612
677.00 9.785131
677.10 9.797431
677.20 9.746121
677.30 9.66312
677.40 9.595802
677.50 9.573963
677.60 9.59116
677.70 9.618562
677.80 9.6273
677.90 9.608703
678.00 9.571812
678.10 9.519586
678.20 9.442165
678.30 9.3325
678.40 9.207639
678.50 9.101821
678.60 9.023806
678.70 8.957958
678.80 8.897118
678.90 8.852746
679.00 8.841995
679.10 8.867958
679.20 8.919484
679.30 8.977966
679.40 9.02551
679.50 9.049347
679.60 9.042451
679.70 9.015234
679.80 8.979918
679.90 8.938005
680.00 8.89161
680.10 8.843608
680.20 8.793115
680.30 8.737971
680.40 8.684161
680.50 8.655198
680.60 8.679151
680.70 8.760063
680.80 8.873585
680.90 8.984708
681.00 9.066376
681.10 9.097262
681.20 9.074801
681.30 9.013253
681.40 8.930517
681.50 8.850692
681.60 8.793235
681.70 8.767216
681.80 8.775144
681.90 8.811715
682.00 8.855896
682.10 8.891713
682.20 8.933279
682.30 9.005723
682.40 9.113257
682.50 9.235485
682.60 9.341203
682.70 9.403703
682.80 9.415168
682.90 9.384484
683.00 9.315863
683.10 9.2121
683.20 9.082497
683.30 8.931485
683.40 8.771472
683.50 8.62372
683.60 8.500497
683.70 8.408003
683.80 8.351183
683.90 8.334247
684.00 8.359599
684.10 8.421097
684.20 8.501021
684.30 8.572902
684.40 8.617456
684.50 8.620333
684.60 8.572402
684.70 8.482737
684.80 8.366314
684.90 8.229236
685.00 8.069547
685.10 7.897916
685.20 7.742087
685.30 7.630166
685.40 7.57111
685.50 7.560202
685.60 7.584769
685.70 7.622393
685.80 7.666018
685.90 7.727146
686.00 7.802869
686.10 7.874712
686.20 7.933149
686.30 7.976691
686.40 8.008002
686.50 8.026365
686.60 8.033119
686.70 8.034296
686.80 8.031463
686.90 8.026467
687.00 8.029398
687.10 8.053441
687.20 8.096821
687.30 8.147088
687.40 8.200695
687.50 8.258506
687.60 8.301915
687.70 8.308494
687.80 8.262932
687.90 8.163452
688.00 8.022164
688.10 7.862514
688.20 7.726956
688.30 7.660811
688.40 7.691258
688.50 7.820605
688.60 8.030144
688.70 8.275802
688.80 8.488154
688.90 8.599616
689.00 8.579274
689.10 8.422762
689.20 8.150549
689.30 7.809527
689.40 7.463414
689.50 7.168013
689.60 6.966451
689.70 6.886382
689.80 6.913265
689.90 7.010773
690.00 7.13977
690.10 7.264269
690.20 7.367793
690.30 7.445511
690.40 7.497236
690.50 7.531267
690.60 7.558152
690.70 7.583759
690.80 7.60481
690.90 7.623163
691.00 7.630093
691.10 7.605944
691.20 7.563277
691.30 7.521971
691.40 7.478649
691.50 7.426555
691.60 7.37221
691.70 7.330917
691.80 7.31977
691.90 7.367471
692.00 7.506231
692.10 7.735375
692.20 8.003874
692.30 8.244983
692.40 8.420389
692.50 8.528728
692.60 8.576071
692.70 8.572649
692.80 8.548697
692.90 8.531918
693.00 8.541927
693.10 8.590801
693.20 8.670911
693.30 8.762502
693.40 8.832096
693.50 8.851461
693.60 8.841871
693.70 8.841016
693.80 8.858596
693.90 8.892069
694.00 8.947284
694.10 9.039658
694.20 9.187563
694.30 9.416881
694.40 9.743355
694.50 10.14598
694.60 10.57114
694.70 10.93743
694.80 11.15897
694.90 11.18772
695.00 11.00802
695.10 10.64261
695.20 10.17376
695.30 9.701985
695.40 9.309457
695.50 9.058165
695.60 8.97343
695.70 9.035413
695.80 9.193419
695.90 9.390331
696.00 9.573878
696.10 9.716377
696.20 9.831431
696.30 9.947469
696.40 10.08705
696.50 10.24982
696.60 10.40631
696.70 10.52415
696.80 10.57883
696.90 10.5577
697.00 10.47789
697.10 10.36329
697.20 10.2229
697.30 10.07659
697.40 9.95846
697.50 9.887856
697.60 9.857222
697.70 9.841908
697.80 9.814501
697.90 9.764393
698.00 9.697503
698.10 9.630604
698.20 9.591882
698.30 9.595575
698.40 9.632831
698.50 9.696703
698.60 9.788748
698.70 9.894669
698.80 9.982087
698.90 10.02664
699.00 10.01148
699.10 9.927574
699.20 9.794354
699.30 9.657208
699.40 9.558756
699.50 9.519325
699.60 9.540282
699.70 9.620828
699.80 9.753499
699.90 9.909739
700.00 10.0578
700.10 10.17859
700.20 10.26906
700.30 10.33502
700.40 10.38849
700.50 10.45144
700.60 10.53375
700.70 10.62132
700.80 10.69711
700.90 10.7495
701.00 10.76981
701.10 10.75663
701.20 10.71074
701.30 10.64825
701.40 10.60189
701.50 10.59191
701.60 10.62914
701.70 10.71938
701.80 10.86196
701.90 11.04816
702.00 11.25427
702.10 11.44777
702.20 11.59851
702.30 11.6944
702.40 11.74214
702.50 11.75158
702.60 11.7497
702.70 11.77354
702.80 11.8285
702.90 11.91569
703.00 12.04203
703.10 12.20235
703.20 12.38034
703.30 12.54818
703.40 12.6869
703.50 12.80323
703.60 12.9271
703.70 13.0875
703.80 13.29328
703.90 13.54038
704.00 13.80356
704.10 14.03624
704.20 14.20456
704.30 14.29287
704.40 14.30363
704.50 14.25707
704.60 14.17719
704.70 14.08943
704.80 14.01424
704.90 13.95415
705.00 13.89452
705.10 13.80961
705.20 13.6772
705.30 13.48397
705.40 13.23846
705.50 12.978
705.60 12.74845
705.70 12.58438
705.80 12.49545
705.90 12.46789
706.00 12.4833
706.10 12.53684
706.20 12.6249
706.30 12.73079
706.40 12.82636
706.50 12.88699
706.60 12.90796
706.70 12.91448
706.80 12.92861
706.90 12.95283
707.00 12.98863
707.10 13.02998
707.20 13.06558
707.30 13.09337
707.40 13.12267
707.50 13.14723
707.60 13.15358
707.70 13.13337
707.80 13.07718
707.90 12.98359
708.00 12.86643
708.10 12.736
708.20 12.59027
708.30 12.42873
708.40 12.25273
708.50 12.0829
708.60 11.95477
708.70 11.88926
708.80 11.87904
708.90 11.90988
709.00 11.96748
709.10 12.04108
709.20 12.13082
709.30 12.22923
709.40 12.31585
709.50 12.36451
709.60 12.36232
709.70 12.32605
709.80 12.29668
709.90 12.31059
710.00 12.37712
710.10 12.48458
710.20 12.62032
710.30 12.76943
710.40 12.91466
710.50 13.04241
710.60 13.1345
710.70 13.17673
710.80 13.15808
710.90 13.09498
711.00 13.03527
711.10 13.00322
711.20 12.9922
711.30 12.99697
711.40 13.02034
711.50 13.06771
711.60 13.14039
711.70 13.23552
711.80 13.34154
711.90 13.4394
712.00 13.5204
712.10 13.58902
712.20 13.64599
712.30 13.66883
712.40 13.64609
712.50 13.59694
712.60 13.53879
712.70 13.47709
712.80 13.42297
712.90 13.3875
713.00 13.3689
713.10 13.35886
713.20 13.35255
713.30 13.34831
713.40 13.33797
713.50 13.30701
713.60 13.25502
713.70 13.1994
713.80 13.14754
713.90 13.10158
714.00 13.07843
714.10 13.09911
714.20 13.16507
714.30 13.26614
714.40 13.39501
714.50 13.53735
714.60 13.66895
714.70 13.77201
714.80 13.84533
714.90 13.90204
715.00 13.95197
715.10 13.99712
715.20 14.04604
715.30 14.10342
715.40 14.15634
715.50 14.18998
715.60 14.19867
715.70 14.18267
715.80 14.15358
715.90 14.1305
716.00 14.12791
716.10 14.15127
716.20 14.20769
716.30 14.30407
716.40 14.44213
716.50 14.60744
716.60 14.7579
716.70 14.85838
716.80 14.90754
716.90 14.92553
717.00 14.93298
717.10 14.94161
717.20 14.95558
717.30 14.9676
717.40 14.97049
717.50 14.96545
717.60 14.93956
717.70 14.87164
717.80 14.76233
717.90 14.64433
718.00 14.56385
718.10 14.55263
718.20 14.6111
718.30 14.70978
718.40 14.82001
718.50 14.93054
718.60 15.03511
718.70 15.13003
718.80 15.21703
718.90 15.29788
719.00 15.37901
719.10 15.46472
719.20 15.5466
719.30 15.60345
719.40 15.61097
719.50 15.57422
719.60 15.52433
719.70 15.48923
719.80 15.49119
719.90 15.54668
720.00 15.66122
720.10 15.82106
720.20 15.99146
720.30 16.13148
720.40 16.21184
720.50 16.22916
720.60 16.19413
720.70 16.1267
720.80 16.06539
720.90 16.03148
721.00 16.02044
721.10 16.0336
721.20 16.08076
721.30 16.15835
721.40 16.24583
721.50 16.32783
721.60 16.40322
721.70 16.47678
721.80 16.54955
721.90 16.61492
722.00 16.66956
722.10 16.71713
722.20 16.74802
722.30 16.7485
722.40 16.72935
722.50 16.71622
722.60 16.72671
722.70 16.77304
722.80 16.86588
722.90 17.00483
723.00 17.16587
723.10 17.3143
723.20 17.42849
723.30 17.49606
723.40 17.5257
723.50 17.55856
723.60 17.64621
723.70 17.82034
723.80 18.05144
723.90 18.2802
724.00 18.4951
724.10 18.68926
724.20 18.8188
724.30 18.8464
724.40 18.77855
724.50 18.6467
724.60 18.47516
724.70 18.30158
724.80 18.1654
724.90 18.07819
725.00 18.03213
725.10 18.02276
725.20 18.07909
725.30 18.22106
725.40 18.39838
725.50 18.56266
725.60 18.70701
725.70 18.84583
725.80 18.98823
725.90 19.12501
726.00 19.24074
726.10 19.31197
726.20 19.31678
726.30 19.24281
726.40 19.10079
726.50 18.9182
726.60 18.72715
726.70 18.56581
726.80 18.47123
726.90 18.47557
727.00 18.60019
727.10 18.83285
727.20 19.14929
727.30 19.50439
727.40 19.82435
727.50 20.04388
727.60 20.13081
727.70 20.08907
727.80 19.95981
727.90 19.82254
728.00 19.7479
728.10 19.77048
728.20 19.89091
728.30 20.0597
728.40 20.20858
728.50 20.28245
728.60 20.22862
728.70 20.03431
728.80 19.75036
728.90 19.45755
729.00 19.23745
729.10 19.16208
729.20 19.25905
729.30 19.4822
729.40 19.76432
729.50 20.04974
729.60 20.28536
729.70 20.45175
729.80 20.55381
729.90 20.59892
730.00 20.60767
730.10 20.60033
730.20 20.59971
730.30 20.62411
730.40 20.66739
730.50 20.73123
730.60 20.84136
730.70 21.01968
730.80 21.27007
730.90 21.5845
731.00 21.94499
731.10 22.32677
731.20 22.71734
731.30 23.08257
731.40 23.34947
731.50 23.48261
731.60 23.49042
731.70 23.40271
731.80 23.27071
731.90 23.12608
732.00 22.97516
732.10 22.8268
732.20 22.70155
732.30 22.63508
732.40 22.66288
732.50 22.76936
732.60 22.86379
732.70 22.86851
732.80 22.76579
732.90 22.5678
733.00 22.30774
733.10 22.02861
733.20 21.7868
733.30 21.65548
733.40 21.71375
733.50 22.02132
733.60 22.58614
733.70 23.31905
733.80 24.07004
733.90 24.70416
734.00 25.12931
734.10 25.29331
734.20 25.18681
734.30 24.8469
734.40 24.33083
734.50 23.72421
734.60 23.13549
734.70 22.64685
734.80 22.28664
734.90 22.05236
735.00 21.92742
735.10 21.90695
735.20 21.98156
735.30 22.11233
735.40 22.27538
735.50 22.46122
735.60 22.64351
735.70 22.78233
735.80 22.86414
735.90 22.88651
736.00 22.85258
736.10 22.80156
736.20 22.78966
736.30 22.84835
736.40 22.99911
736.50 23.24095
736.60 23.52569
736.70 23.8107
736.80 24.04772
736.90 24.17121
737.00 24.14754
737.10 23.98633
737.20 23.7148
737.30 23.37063
737.40 22.99386
737.50 22.61894
737.60 22.28828
737.70 22.05637
737.80 21.93624
737.90 21.90512
738.00 21.95249
738.10 22.05177
738.20 22.1675
738.30 22.27649
738.40 22.36974
738.50 22.43946
738.60 22.49231
738.70 22.56977
738.80 22.69622
738.90 22.84944
739.00 22.98932
739.10 23.0679
739.20 23.03044
739.30 22.84803
739.40 22.53381
739.50 22.14754
739.60 21.78013
739.70 21.52409
739.80 21.44071
739.90 21.54194
740.00 21.79396
740.10 22.11212
740.20 22.40055
740.30 22.60061
740.40 22.68504
740.50 22.65349
740.60 22.53854
740.70 22.37469
740.80 22.19606
740.90 22.03372
741.00 21.89253
741.10 21.76929
741.20 21.67549
741.30 21.62568
741.40 21.61633
741.50 21.64054
741.60 21.68963
741.70 21.74566
741.80 21.78379
741.90 21.78241
742.00 21.72956
742.10 21.63088
742.20 21.5111
742.30 21.39673
742.40 21.32346
742.50 21.32973
742.60 21.41619
742.70 21.55541
742.80 21.72072
742.90 21.87401
743.00 21.97678
743.10 22.0065
743.20 21.95621
743.30 21.82751
743.40 21.63662
743.50 21.42722
743.60 21.262
743.70 21.18979
743.80 21.21751
743.90 21.32005
744.00 21.46035
744.10 21.59048
744.20 21.64624
744.30 21.58174
744.40 21.38885
744.50 21.0822
744.60 20.7008
744.70 20.31305
744.80 20.00268
744.90 19.83343
745.00 19.81449
745.10 19.9093
745.20 20.06483
745.30 20.20945
745.40 20.28047
745.50 20.26467
745.60 20.18188
745.70 20.06466
745.80 19.96003
745.90 19.9211
746.00 19.9817
746.10 20.14215
746.20 20.36824
746.30 20.60125
746.40 20.78651
746.50 20.90206
746.60 20.95947
746.70 20.99646
746.80 21.0468
746.90 21.11032
747.00 21.18717
747.10 21.28353
747.20 21.38344
747.30 21.45933
747.40 21.49435
747.50 21.47332
747.60 21.40523
747.70 21.34608
747.80 21.35663
747.90 21.46174
748.00 21.65808
748.10 21.92229
748.20 22.19347
748.30 22.39212
748.40 22.46799
748.50 22.41758
748.60 22.25887
748.70 22.01657
748.80 21.72335
748.90 21.43681
749.00 21.22139
749.10 21.10092
749.20 21.06553
749.30 21.09022
749.40 21.13299
749.50 21.15456
749.60 21.1592
749.70 21.18133
749.80 21.22976
749.90 21.29465
750.00 21.38522
750.10 21.5116
750.20 21.66299
750.30 21.81819
750.40 21.94957
750.50 22.03194
750.60 22.05305
750.70 22.01235
750.80 21.92609
750.90 21.82383
751.00 21.72749
751.10 21.66057
751.20 21.6638
751.30 21.75102
751.40 21.89364
751.50 22.04247
751.60 22.15218
751.70 22.21112
751.80 22.23816
751.90 22.26988
752.00 22.33239
752.10 22.42308
752.20 22.53353
752.30 22.65707
752.40 22.78823
752.50 22.9072
752.60 22.97468
752.70 22.9584
752.80 22.84786
752.90 22.66206
753.00 22.44382
753.10 22.23489
753.20 22.06253
753.30 21.93677
753.40 21.86053
753.50 21.8501
753.60 21.90491
753.70 21.98869
753.80 22.05762
753.90 22.08759
754.00 22.06973
754.10 22.01063
754.20 21.93506
754.30 21.86534
754.40 21.80812
754.50 21.74947
754.60 21.67153
754.70 21.56502
754.80 21.43643
754.90 21.31323
755.00 21.23126
755.10 21.22812
755.20 21.32525
755.30 21.49998
755.40 21.70073
755.50 21.88631
755.60 22.02716
755.70 22.10801
755.80 22.13808
755.90 22.13487
756.00 22.10626
756.10 22.05526
756.20 21.98445
756.30 21.89377
756.40 21.77546
756.50 21.6396
756.60 21.53702
756.70 21.51342
756.80 21.58115
756.90 21.72058
757.00 21.90265
757.10 22.08288
757.20 22.2035
757.30 22.23643
757.40 22.189
757.50 22.09432
757.60 21.99335
757.70 21.92308
757.80 21.92075
757.90 21.99047
758.00 22.09208
758.10 22.18486
758.20 22.23338
758.30 22.20018
758.40 22.05212
758.50 21.78118
758.60 21.40571
758.70 20.95668
758.80 20.46813
758.90 19.9668
759.00 19.48756
759.10 19.07133
759.20 18.75454
759.30 18.57436
759.40 18.54055
759.50 18.62353
759.60 18.7894
759.70 19.00745
759.80 19.24669
759.90 19.47439
760.00 19.63532
760.10 19.67947
760.20 19.60017
760.30 19.42028
760.40 19.18403
760.50 18.943
760.60 18.72667
760.70 18.52241
760.80 18.30062
760.90 18.06283
761.00 17.83447
761.10 17.64214
761.20 17.4995
761.30 17.41685
761.40 17.42114
761.50 17.50966
761.60 17.64527
761.70 17.79287
761.80 17.8927
761.90 17.87289
762.00 17.70687
762.10 17.42298
762.20 17.08421
762.30 16.75242
762.40 16.45697
762.50 16.18985
762.60 15.9173
762.70 15.60867
762.80 15.24647
762.90 14.83526
763.00 14.39478
763.10 13.95095
763.20 13.52773
763.30 13.14336
763.40 12.81019
763.50 12.52986
763.60 12.30445
763.70 12.11587
763.80 11.92541
763.90 11.69851
764.00 11.41965
764.10 11.08696
764.20 10.71225
764.30 10.31788
764.40 9.919328
764.50 9.519109
764.60 9.129965
764.70 8.783449
764.80 8.487309
764.90 8.220047
765.00 7.951069
765.10 7.655837
765.20 7.323116
765.30 6.948101
765.40 6.530874
765.50 6.081595
765.60 5.617254
765.70 5.160144
765.80 4.734761
765.90 4.354512
766.00 4.03182
766.10 3.766398
766.20 3.549852
766.30 3.381855
766.40 3.248956
766.50 3.146106
766.60 3.09185
766.70 3.110385
766.80 3.219457
766.90 3.41933
767.00 3.694639
767.10 4.020736
767.20 4.372081
767.30 4.735015
767.40 5.096799
767.50 5.438227
767.60 5.75021
767.70 6.032842
767.80 6.296209
767.90 6.558153
768.00 6.832729
768.10 7.120638
768.20 7.407027
768.30 7.67028
768.40 7.880962
768.50 8.004311
768.60 8.017227
768.70 7.923606
768.80 7.752528
768.90 7.544499
769.00 7.326337
769.10 7.098208
769.20 6.852626
769.30 6.581064
769.40 6.277984
769.50 5.946105
769.60 5.593406
769.70 5.232151
769.80 4.889058
769.90 4.605043
770.00 4.415658
770.10 4.333154
770.20 4.346335
770.30 4.443416
770.40 4.613556
770.50 4.851391
770.60 5.173275
770.70 5.623415
770.80 6.222847
770.90 6.932435
771.00 7.707353
771.10 8.506395
771.20 9.27752
771.30 9.939624
771.40 10.40451
771.50 10.62362
771.60 10.59803
771.70 10.38562
771.80 10.11104
771.90 9.939222
772.00 9.991863
772.10 10.29373
772.20 10.81525
772.30 11.53163
772.40 12.37516
772.50 13.22821
772.60 13.96336
772.70 14.50823
772.80 14.86576
772.90 15.06912
773.00 15.16947
773.10 15.21666
773.20 15.24088
773.30 15.26734
773.40 15.32159
773.50 15.42583
773.60 15.58827
773.70 15.79113
773.80 16.0146
773.90 16.24675
774.00 16.48458
774.10 16.72638
774.20 16.95253
774.30 17.1434
774.40 17.30583
774.50 17.46048
774.60 17.6196
774.70 17.79678
774.80 17.99709
774.90 18.20296
775.00 18.39957
775.10 18.55406
775.20 18.63627
775.30 18.65425
775.40 18.63427
775.50 18.60202
775.60 18.58515
775.70 18.6091
775.80 18.66918
775.90 18.73517
776.00 18.79177
776.10 18.82618
776.20 18.8252
776.30 18.79645
776.40 18.75631
776.50 18.75404
776.60 18.84023
776.70 19.02922
776.80 19.31362
776.90 19.66882
777.00 20.05304
777.10 20.40757
777.20 20.66952
777.30 20.79999
777.40 20.7748
777.50 20.58886
777.60 20.30785
777.70 20.02772
777.80 19.82377
777.90 19.75239
778.00 19.82312
778.10 19.99341
778.20 20.19761
778.30 20.37099
778.40 20.46686
778.50 20.47146
778.60 20.41208
778.70 20.35068
778.80 20.37094
778.90 20.53752
779.00 20.83477
779.10 21.19222
779.20 21.51693
779.30 21.70283
779.40 21.65033
779.50 21.28499
779.60 20.56356
779.70 19.50213
779.80 18.2143
779.90 16.88718
780.00 15.74544
780.10 14.9883
780.20 14.74704
780.30 15.06339
780.40 15.87804
780.50 17.04353
780.60 18.35913
780.70 19.59061
780.80 20.55125
780.90 21.15307
781.00 21.40973
781.10 21.41839
781.20 21.29779
781.30 21.17607
781.40 21.16467
781.50 21.34041
781.60 21.72467
781.70 22.25532
781.80 22.82523
781.90 23.33574
782.00 23.72463
782.10 23.95713
782.20 24.00976
782.30 23.90153
782.40 23.67753
782.50 23.38066
782.60 23.05566
782.70 22.73899
782.80 22.46377
782.90 22.24559
783.00 22.07396
783.10 21.97106
783.20 21.99009
783.30 22.14512
783.40 22.38217
783.50 22.66114
783.60 22.98011
783.70 23.32355
783.80 23.67318
783.90 24.01973
784.00 24.37787
784.10 24.76603
784.20 25.17936
784.30 25.60673
784.40 26.03649
784.50 26.42254
784.60 26.66837
784.70 26.71813
784.80 26.63475
784.90 26.5155
785.00 26.37533
785.10 26.20339
785.20 26.03835
785.30 25.93785
785.40 25.92135
785.50 25.96725
785.60 26.06036
785.70 26.18562
785.80 26.3262
785.90 26.46738
786.00 26.61276
786.10 26.7583
786.20 26.83137
786.30 26.74841
786.40 26.55306
786.50 26.35326
786.60 26.20927
786.70 26.12507
786.80 26.07389
786.90 26.02969
787.00 25.93512
787.10 25.72973
787.20 25.39935
787.30 24.98401
787.40 24.56295
787.50 24.22334
787.60 24.05738
787.70 24.15277
787.80 24.51794
787.90 25.07992
788.00 25.72517
788.10 26.326
788.20 26.78797
788.30 27.06235
788.40 27.1737
788.50 27.18627
788.60 27.12916
788.70 27.03238
788.80 26.94472
788.90 26.91431
789.00 26.96659
789.10 27.06409
789.20 27.15325
789.30 27.1922
789.40 27.16536
789.50 27.07852
789.60 26.92744
789.70 26.71021
789.80 26.42113
789.90 26.06953
790.00 25.71419
790.10 25.42143
790.20 25.23038
790.30 25.15389
790.40 25.19051
790.50 25.34181
790.60 25.57894
790.70 25.83123
790.80 26.04022
790.90 26.20734
791.00 26.3535
791.10 26.49961
791.20 26.6258
791.30 26.70645
791.40 26.7448
791.50 26.73426
791.60 26.68786
791.70 26.61258
791.80 26.49815
791.90 26.34396
792.00 26.17199
792.10 26.02346
792.20 25.90836
792.30 25.79456
792.40 25.6582
792.50 25.49751
792.60 25.36892
792.70 25.3479
792.80 25.48657
792.90 25.81745
793.00 26.32377
793.10 26.96296
793.20 27.67736
793.30 28.37339
793.40 28.93679
793.50 29.26942
793.60 29.31855
793.70 29.09691
793.80 28.66938
793.90 28.11235
794.00 27.49115
794.10 26.85519
794.20 26.21504
794.30 25.54568
794.40 24.81348
794.50 24.01932
794.60 23.21585
794.70 22.50238
794.80 22.00662
794.90 21.85301
795.00 22.12542
795.10 22.81852
795.20 23.83412
795.30 25.02352
795.40 26.22719
795.50 27.27705
795.60 28.04587
795.70 28.48956
795.80 28.6581
795.90 28.68678
796.00 28.67994
796.10 28.66164
796.20 28.66017
796.30 28.71896
796.40 28.84488
796.50 29.0053
796.60 29.15745
796.70 29.26978
796.80 29.32443
796.90 29.32591
797.00 29.28642
797.10 29.22951
797.20 29.16007
797.30 29.04083
797.40 28.89089
797.50 28.79598
797.60 28.80088
797.70 28.87455
797.80 28.97923
797.90 29.09552
798.00 29.20477
798.10 29.27837
798.20 29.27867
798.30 29.18821
798.40 29.02069
798.50 28.80737
798.60 28.59696
798.70 28.46284
798.80 28.44278
798.90 28.50699
799.00 28.63601
799.10 28.84077
799.20 29.09949
799.30 29.37669
799.40 29.62957
799.50 29.81886
799.60 29.94316
799.70 30.01968
799.80 30.08814
799.90 30.1848
800.00 30.32658
800.10 30.5031
800.20 30.69599
800.30 30.90439
800.40 31.08749
800.50 31.19761
800.60 31.22573
800.70 31.17573
800.80 31.09126
800.90 31.04693
801.00 31.10504
801.10 31.30225
801.20 31.60919
801.30 31.9469
801.40 32.2433
801.50 32.43929
801.60 32.49624
801.70 32.41869
801.80 32.25676
801.90 32.06246
802.00 31.89552
802.10 31.83056
802.20 31.9089
802.30 32.15717
802.40 32.59097
802.50 33.17557
802.60 33.86088
802.70 34.58758
802.80 35.26922
802.90 35.83315
803.00 36.24555
803.10 36.48868
803.20 36.54962
803.30 36.43497
803.40 36.17278
803.50 35.81719
803.60 35.45159
803.70 35.13759
803.80 34.89695
803.90 34.74548
804.00 34.70602
804.10 34.81501
804.20 35.07512
804.30 35.42364
804.40 35.76441
804.50 36.02514
804.60 36.17206
804.70 36.22895
804.80 36.30026
804.90 36.49768
805.00 36.87966
805.10 37.45317
805.20 38.1832
805.30 39.00703
805.40 39.82436
805.50 40.51496
805.60 41.0057
805.70 41.25133
805.80 41.24699
805.90 41.06256
806.00 40.80739
806.10 40.56829
806.20 40.35595
806.30 40.15684
806.40 39.99299
806.50 39.89539
806.60 39.8862
806.70 39.97502
806.80 40.16479
806.90 40.45476
807.00 40.81371
807.10 41.22879
807.20 41.72266
807.30 42.28265
807.40 42.85329
807.50 43.37993
807.60 43.82044
807.70 44.15298
807.80 44.37749
807.90 44.52847
808.00 44.66109
808.10 44.81879
808.20 45.01635
808.30 45.23924
808.40 45.47083
808.50 45.67088
808.60 45.76096
808.70 45.68395
808.80 45.44097
808.90 45.08294
809.00 44.6981
809.10 44.37011
809.20 44.15955
809.30 44.09415
809.40 44.14729
809.50 44.26073
809.60 44.37628
809.70 44.44626
809.80 44.45625
809.90 44.443
810.00 44.47136
810.10 44.58521
810.20 44.80796
810.30 45.13966
810.40 45.54606
810.50 45.97192
810.60 46.34808
810.70 46.61029
810.80 46.73448
810.90 46.7556
811.00 46.74333
811.10 46.75952
811.20 46.83316
811.30 46.97889
811.40 47.20933
811.50 47.5413
811.60 47.99283
811.70 48.55376
811.80 49.15525
811.90 49.69057
812.00 50.06457
812.10 50.21257
812.20 50.14478
812.30 49.92954
812.40 49.66236
812.50 49.4696
812.60 49.46246
812.70 49.68961
812.80 50.12165
812.90 50.67078
813.00 51.21073
813.10 51.62131
813.20 51.86356
813.30 52.00807
813.40 52.17533
813.50 52.471
813.60 52.92323
813.70 53.46278
813.80 53.96124
813.90 54.25959
814.00 54.22241
814.10 53.80093
814.20 53.04576
814.30 52.09977
814.40 51.12453
814.50 50.26224
814.60 49.6538
814.70 49.38773
814.80 49.45747
814.90 49.76941
815.00 50.20742
815.10 50.68675
815.20 51.16445
815.30 51.62915
815.40 52.08369
815.50 52.518
815.60 52.91307
815.70 53.22482
815.80 53.42545
815.90 53.54788
816.00 53.64996
816.10 53.78634
816.20 54.00206
816.30 54.2984
816.40 54.62841
816.50 54.95208
816.60 55.25438
816.70 55.52762
816.80 55.76498
816.90 55.98969
817.00 56.23595
817.10 56.54782
817.20 56.96498
817.30 57.46654
817.40 57.93759
817.50 58.19801
817.60 58.08038
817.70 57.51251
817.80 56.489
817.90 55.01626
818.00 53.13218
818.10 50.96236
818.20 48.73334
818.30 46.73364
818.40 45.24779
818.50 44.45679
818.60 44.40383
818.70 44.98814
818.80 45.99012
818.90 47.09089
819.00 47.92724
819.10 48.19635
819.20 47.75955
819.30 46.68177
819.40 45.19649
819.50 43.65758
819.60 42.44128
819.70 41.82154
819.80 41.91931
819.90 42.74536
820.00 44.20808
820.10 46.09714
820.20 48.12615
820.30 50.02071
820.40 51.60179
820.50 52.80591
820.60 53.64998
820.70 54.19711
820.80 54.5473
820.90 54.79372
821.00 54.97638
821.10 55.09491
821.20 55.16351
821.30 55.1934
821.40 55.17024
821.50 55.08774
821.60 54.97795
821.70 54.92257
821.80 54.99037
821.90 55.20678
822.00 55.55054
822.10 55.95693
822.20 56.34551
822.30 56.65424
822.40 56.89752
822.50 57.13683
822.60 57.40838
822.70 57.70047
822.80 57.99959
822.90 58.31913
823.00 58.64407
823.10 58.92801
823.20 59.12156
823.30 59.19765
823.40 59.18667
823.50 59.16626
823.60 59.20548
823.70 59.33481
823.80 59.54032
823.90 59.77731
824.00 60.00593
824.10 60.22638
824.20 60.44915
824.30 60.70114
824.40 61.04812
824.50 61.54754
824.60 62.21549
824.70 62.96323
824.80 63.61247
824.90 63.98993
825.00 64.00777
825.10 63.66767
825.20 63.02268
825.30 62.18373
825.40 61.31757
825.50 60.59551
825.60 60.172
825.70 60.12731
825.80 60.41012
825.90 60.87747
826.00 61.37605
826.10 61.81217
826.20 62.15254
826.30 62.38968
826.40 62.51783
826.50 62.55063
826.60 62.55153
826.70 62.59221
826.80 62.68845
826.90 62.80274
827.00 62.85862
827.10 62.80791
827.20 62.68517
827.30 62.57959
827.40 62.57396
827.50 62.71256
827.60 62.99985
827.70 63.3824
827.80 63.76312
827.90 64.03485
828.00 64.09749
828.10 63.91718
828.20 63.51052
828.30 62.93608
828.40 62.32907
828.50 61.81771
828.60 61.44819
828.70 61.18788
828.80 60.96365
828.90 60.6996
829.00 60.35544
829.10 59.9513
829.20 59.55378
829.30 59.22812
829.40 59.03565
829.50 59.00235
829.60 59.12095
829.70 59.35903
829.80 59.61278
829.90 59.72932
830.00 59.61205
830.10 59.25118
830.20 58.69044
830.30 58.02619
830.40 57.35376
830.50 56.75257
830.60 56.29884
830.70 56.06333
830.80 56.07853
830.90 56.32057
831.00 56.74983
831.10 57.30018
831.20 57.87762
831.30 58.4217
831.40 58.90228
831.50 59.29632
831.60 59.59342
831.70 59.8112
831.80 60.00136
831.90 60.2057
832.00 60.42219
832.10 60.63415
832.20 60.80763
832.30 60.89013
832.40 60.82493
832.50 60.6019
832.60 60.27734
832.70 59.93112
832.80 59.64678
832.90 59.50292
833.00 59.56449
833.10 59.82732
833.20 60.20542
833.30 60.60516
833.40 60.96243
833.50 61.24044
833.60 61.45
833.70 61.64199
833.80 61.86109
833.90 62.08624
834.00 62.24454
834.10 62.28295
834.20 62.28061
834.30 62.36637
834.40 62.57476
834.50 62.88742
834.60 63.27101
834.70 63.67745
834.80 64.02513
834.90 64.20981
835.00 64.13475
835.10 63.76542
835.20 63.17367
835.30 62.51852
835.40 61.9824
835.50 61.70709
835.60 61.67361
835.70 61.74999
835.80 61.85766
835.90 61.97881
836.00 62.11938
836.10 62.29849
836.20 62.54731
836.30 62.90337
836.40 63.40348
836.50 64.03467
836.60 64.71928
836.70 65.35942
836.80 65.87295
836.90 66.18172
837.00 66.20333
837.10 65.91293
837.20 65.34558
837.30 64.56557
837.40 63.6851
837.50 62.85019
837.60 62.20508
837.70 61.87827
837.80 61.92927
837.90 62.31072
838.00 62.90278
838.10 63.54147
838.20 64.05508
838.30 64.30006
838.40 64.1781
838.50 63.66192
838.60 62.82432
838.70 61.81209
838.80 60.78987
838.90 59.9177
839.00 59.33105
839.10 59.08261
839.20 59.17078
839.30 59.59921
839.40 60.30536
839.50 61.18281
839.60 62.20368
839.70 63.36239
839.80 64.62148
839.90 65.93087
840.00 67.16327
840.10 68.14054
840.20 68.75308
840.30 68.9746
840.40 68.86727
840.50 68.55792
840.60 68.16276
840.70 67.76034
840.80 67.41359
840.90 67.18929
841.00 67.06627
841.10 66.96834
841.20 66.86798
841.30 66.76597
841.40 66.71306
841.50 66.78831
841.60 66.99256
841.70 67.244
841.80 67.42774
841.90 67.44097
842.00 67.22698
842.10 66.81014
842.20 66.28624
842.30 65.74977
842.40 65.27708
842.50 64.90127
842.60 64.60726
842.70 64.45636
842.80 64.51991
842.90 64.76648
843.00 65.1101
843.10 65.39764
843.20 65.42341
843.30 65.01989
843.40 64.13558
843.50 62.80999
843.60 61.1754
843.70 59.42342
843.80 57.75162
843.90 56.37758
844.00 55.46173
844.10 54.93355
844.20 54.58321
844.30 54.25583
844.40 53.86292
844.50 53.40238
844.60 52.93221
844.70 52.50419
844.80 52.05687
844.90 51.48422
845.00 50.79936
845.10 50.11757
845.20 49.55551
845.30 49.16893
845.40 48.95294
845.50 48.88196
845.60 48.95281
845.70 49.138
845.80 49.36264
845.90 49.53759
846.00 49.61898
846.10 49.62909
846.20 49.64894
846.30 49.75461
846.40 49.97694
846.50 50.30263
846.60 50.65848
846.70 50.96883
846.80 51.19032
846.90 51.31261
847.00 51.32789
847.10 51.24428
847.20 51.10013
847.30 50.94124
847.40 50.77981
847.50 50.59438
847.60 50.43115
847.70 50.37462
847.80 50.39054
847.90 50.35307
848.00 50.17621
848.10 49.83754
848.20 49.4042
848.30 48.98604
848.40 48.65683
848.50 48.45701
848.60 48.4121
848.70 48.54865
848.80 48.87477
848.90 49.38917
849.00 50.05786
849.10 50.80819
849.20 51.59089
849.30 52.36955
849.40 53.0796
849.50 53.62148
849.60 53.87549
849.70 53.78872
849.80 53.42162
849.90 52.91001
850.00 52.39761
850.10 51.99464
850.20 51.80541
850.30 51.88587
850.40 52.23538
850.50 52.80823
850.60 53.4796
850.70 54.10348
850.80 54.58171
850.90 54.87662
851.00 54.98119
851.10 54.88201
851.20 54.56157
851.30 54.02946
851.40 53.33901
851.50 52.55399
851.60 51.6902
851.70 50.69872
851.80 49.50176
851.90 48.06749
852.00 46.48416
852.10 44.97699
852.20 43.82444
852.30 43.25832
852.40 43.41454
852.50 44.30293
852.60 45.80846
852.70 47.70286
852.80 49.68521
852.90 51.46451
853.00 52.8269
853.10 53.71879
853.20 54.20057
853.30 54.33869
853.40 54.20965
853.50 53.89088
853.60 53.48477
853.70 53.13786
853.80 52.96412
853.90 53.00011
854.00 53.24657
854.10 53.6746
854.20 54.20327
854.30 54.70158
854.40 55.06662
854.50 55.25893
854.60 55.34343
854.70 55.50374
854.80 55.90933
854.90 56.62368
855.00 57.58743
855.10 58.63581
855.20 59.6013
855.30 60.37479
855.40 60.87287
855.50 61.04744
855.60 60.92391
855.70 60.60916
855.80 60.23596
855.90 59.90019
856.00 59.60983
856.10 59.32628
856.20 59.03654
856.30 58.7617
856.40 58.54162
856.50 58.42004
856.60 58.41585
856.70 58.52241
856.80 58.70775
856.90 58.89685
857.00 59.01673
857.10 59.02467
857.20 58.89666
857.30 58.63585
857.40 58.29919
857.50 57.97722
857.60 57.75482
857.70 57.68412
857.80 57.7637
857.90 57.96248
858.00 58.24927
858.10 58.58216
858.20 58.91772
858.30 59.24035
858.40 59.56804
858.50 59.90495
858.60 60.21889
858.70 60.45399
858.80 60.56162
858.90 60.50242
859.00 60.25467
859.10 59.87033
859.20 59.47525
859.30 59.19295
859.40 59.11892
859.50 59.29882
859.60 59.67905
859.70 60.16846
859.80 60.65733
859.90 61.02761
860.00 61.20421
860.10 61.177
860.20 60.9846
860.30 60.71557
860.40 60.47767
860.50 60.30472
860.60 60.13943
860.70 59.8936
860.80 59.44633
860.90 58.69421
861.00 57.66032
861.10 56.39571
861.20 54.91082
861.30 53.25405
861.40 51.52961
861.50 49.87679
861.60 48.43732
861.70 47.29589
861.80 46.46201
861.90 45.90582
862.00 45.57233
862.10 45.37077
862.20 45.20822
862.30 45.01342
862.40 44.71768
862.50 44.27293
862.60 43.71385
862.70 43.15003
862.80 42.71451
862.90 42.49128
863.00 42.48736
863.10 42.67209
863.20 42.99313
863.30 43.37106
863.40 43.70535
863.50 43.92923
863.60 44.03493
863.70 44.05641
863.80 44.05037
863.90 44.09938
864.00 44.2842
864.10 44.62998
864.20 45.10443
864.30 45.65793
864.40 46.2525
864.50 46.87962
864.60 47.543
864.70 48.22815
864.80 48.92506
864.90 49.64678
865.00 50.41001
865.10 51.17975
865.20 51.86016
865.30 52.38
865.40 52.72198
865.50 52.91547
865.60 53.04202
865.70 53.21541
865.80 53.50879
865.90 53.881
866.00 54.22948
866.10 54.47331
866.20 54.58637
866.30 54.57063
866.40 54.40414
866.50 54.09831
866.60 53.72217
866.70 53.33716
866.80 52.98181
866.90 52.68412
867.00 52.44847
867.10 52.22672
867.20 51.94807
867.30 51.64387
867.40 51.44621
867.50 51.45412
867.60 51.67139
867.70 52.02849
867.80 52.43735
867.90 52.81132
868.00 53.10506
868.10 53.29008
868.20 53.33049
868.30 53.22492
868.40 53.00866
868.50 52.73797
868.60 52.48455
868.70 52.24859
868.80 51.91751
868.90 51.37125
869.00 50.53131
869.10 49.35425
869.20 47.85782
869.30 46.109
869.40 44.18957
869.50 42.27386
869.60 40.61163
869.70 39.37488
869.80 38.62698
869.90 38.38329
870.00 38.61545
870.10 39.22909
870.20 40.08243
870.30 40.99947
870.40 41.80238
870.50 42.38092
870.60 42.68803
870.70 42.71819
870.80 42.49317
870.90 42.03717
871.00 41.39198
871.10 40.66015
871.20 39.96829
871.30 39.40266
871.40 39.00827
871.50 38.78622
871.60 38.71111
871.70 38.76805
871.80 38.94993
871.90 39.21961
872.00 39.53118
872.10 39.8742
872.20 40.30214
872.30 40.87744
872.40 41.60794
872.50 42.45423
872.60 43.34663
872.70 44.17994
872.80 44.83222
872.90 45.23765
873.00 45.3923
873.10 45.30581
873.20 44.99886
873.30 44.52576
873.40 43.96413
873.50 43.42055
873.60 43.01299
873.70 42.81869
873.80 42.87592
873.90 43.20237
874.00 43.78501
874.10 44.61511
874.20 45.66756
874.30 46.81541
874.40 47.85538
874.50 48.59634
874.60 48.93455
874.70 48.8647
874.80 48.4851
874.90 47.94498
875.00 47.36914
875.10 46.87827
875.20 46.58856
875.30 46.56053
875.40 46.81216
875.50 47.2942
875.60 47.88547
875.70 48.51117
875.80 49.16626
875.90 49.90098
876.00 50.74097
876.10 51.61634
876.20 52.40354
876.30 52.95979
876.40 53.14078
876.50 52.91368
876.60 52.41861
876.70 51.89232
876.80 51.59681
876.90 51.74005
877.00 52.46779
877.10 53.8057
877.20 55.63733
877.30 57.69779
877.40 59.5844
877.50 60.98616
877.60 61.75827
877.70 61.90177
877.80 61.59935
877.90 61.06176
878.00 60.39764
878.10 59.67569
878.20 58.9735
878.30 58.36847
878.40 57.88422
878.50 57.4738
878.60 57.0667
878.70 56.64428
878.80 56.35094
878.90 56.32731
879.00 56.59047
879.10 57.10125
879.20 57.77808
879.30 58.53965
879.40 59.31112
879.50 60.01009
879.60 60.48962
879.70 60.57614
879.80 60.15334
879.90 59.21309
880.00 57.87904
880.10 56.35348
880.20 54.81675
880.30 53.41677
880.40 52.29844
880.50 51.57063
880.60 51.31402
880.70 51.58939
880.80 52.41211
880.90 53.73085
881.00 55.47176
881.10 57.57631
881.20 59.98066
881.30 62.588
881.40 65.24108
881.50 67.72131
881.60 69.80237
881.70 71.29213
881.80 72.05021
881.90 72.03038
882.00 71.25212
882.10 69.74431
882.20 67.6482
882.30 65.24878
882.40 62.87375
882.50 60.85122
882.60 59.55838
882.70 59.31715
882.80 60.16523
882.90 61.88166
883.00 64.06877
883.10 66.24159
883.20 68.01145
883.30 69.14878
883.40 69.61413
883.50 69.61721
883.60 69.48803
883.70 69.54279
883.80 70.01214
883.90 70.92784
884.00 72.01359
884.10 72.80019
884.20 72.89227
884.30 72.03146
884.40 70.17341
884.50 67.55764
884.60 64.59399
884.70 61.78612
884.80 59.65036
884.90 58.54608
885.00 58.60897
885.10 59.75523
885.20 61.69653
885.30 63.98221
885.40 66.09537
885.50 67.60109
885.60 68.23824
885.70 67.95138
885.80 66.8672
885.90 65.26711
886.00 63.54871
886.10 62.09016
886.20 61.10966
886.30 60.65219
886.40 60.63257
886.50 60.88654
886.60 61.23303
886.70 61.45841
886.80 61.3434
886.90 60.72777
887.00 59.57401
887.10 58.01573
887.20 56.30969
887.30 54.77303
887.40 53.71541
887.50 53.3767
887.60 53.89926
887.70 55.26128
887.80 57.26959
887.90 59.59345
888.00 61.82927
888.10 63.63787
888.20 64.74766
888.30 65.13027
888.40 65.1524
888.50 65.30562
888.60 65.95266
888.70 67.21293
888.80 68.90622
888.90 70.62484
889.00 71.91573
889.10 72.41284
889.20 71.84844
889.30 70.12212
889.40 67.40441
889.50 64.15707
889.60 61.0868
889.70 58.80161
889.80 57.50569
889.90 57.21883
890.00 57.94854
890.10 59.61502
890.20 62.00407
890.30 64.80078
890.40 67.58007
890.50 69.88496
890.60 71.38872
890.70 71.9229
890.80 71.48246
890.90 70.24921
891.00 68.57705
891.10 66.90925
891.20 65.70092
891.30 65.22607
891.40 65.48568
891.50 66.31716
891.60 67.50403
891.70 68.82523
891.80 70.13351
891.90 71.35008
892.00 72.38528
892.10 73.10864
892.20 73.38654
892.30 73.14012
892.40 72.35278
892.50 71.11704
892.60 69.63764
892.70 68.17117
892.80 67.03034
892.90 66.54337
893.00 66.90694
893.10 68.11113
893.20 69.90648
893.30 71.86098
893.40 73.51252
893.50 74.52857
893.60 74.70503
893.70 73.93386
893.80 72.27298
893.90 69.89525
894.00 67.0358
894.10 64.05371
894.20 61.36029
894.30 59.29454
894.40 58.09694
894.50 57.85641
894.60 58.47462
894.70 59.70836
894.80 61.20919
894.90 62.56491
895.00 63.46051
895.10 63.85162
895.20 63.91239
895.30 63.91921
895.40 64.1815
895.50 64.9541
895.60 66.3852
895.70 68.47998
895.80 71.03313
895.90 73.63542
896.00 75.80622
896.10 77.14214
896.20 77.43754
896.30 76.7214
896.40 75.1868
896.50 73.08808
896.60 70.7716
896.70 68.66929
896.80 67.17041
896.90 66.54327
897.00 66.82853
897.10 67.83131
897.20 69.28276
897.30 70.96156
897.40 72.72464
897.50 74.43058
897.60 75.89713
897.70 77.00229
897.80 77.73973
897.90 78.18665
898.00 78.43689
898.10 78.60646
898.20 78.89546
898.30 79.50076
898.40 80.50897
898.50 81.86951
898.60 83.38129
898.70 84.72481
898.80 85.57511
898.90 85.76845
899.00 85.33269
899.10 84.38334
899.20 83.06816
899.30 81.52427
899.40 79.89665
899.50 78.35482
899.60 77.00537
899.70 75.86942
899.80 75.03237
899.90 74.71196
900.00 74.56931
900.10 74.56205
900.20 74.82968
900.30 75.10469
900.40 75.74137
900.50 76.37805
900.60 76.24047
900.70 75.78663
900.80 75.39867
900.90 75.1095
901.00 74.81856
901.10 74.50735
901.20 74.19614
901.30 74.51142
901.40 75.01383
901.50 75.38156
901.60 75.59122
901.70 75.80641
901.80 76.05303
901.90 76.29965
902.00 76.1395
902.10 75.89604
902.20 75.60191
902.30 75.26103
902.40 74.93962
902.50 74.69144
902.60 74.44327
902.70 73.9871
902.80 73.50783
902.90 73.45734
903.00 73.70481
903.10 73.99878
903.20 74.41845
903.30 74.83812
903.40 75.68534
903.50 76.55038
903.60 76.94963
903.70 77.09805
903.80 77.18982
903.90 77.17161
904.00 77.143
904.10 76.77823
904.20 76.41346
904.30 76.18234
904.40 76.0032
904.50 75.90903
904.60 75.94231
904.70 75.96896
904.80 75.92864
904.90 75.88831
905.00 75.62165
905.10 75.29117
905.20 75.00704
905.30 74.77519
905.40 74.599
905.50 74.71507
905.60 74.83114
905.70 75.12806
905.80 75.4569
905.90 75.52966
906.00 75.37533
906.10 75.1756
906.20 74.8149
906.30 74.45419
906.40 74.52497
906.50 74.63842
906.60 74.80938
906.70 75.01866
906.80 75.23189
906.90 75.45478
907.00 75.67767
907.10 75.25357
907.20 74.81626
907.30 74.95821
907.40 75.38548
907.50 75.81878
907.60 76.26327
907.70 76.70721
907.80 77.13796
907.90 77.56872
908.00 77.48838
908.10 77.219
908.20 76.97506
908.30 76.76623
908.40 76.55413
908.50 76.31557
908.60 76.07701
908.70 75.82236
908.80 75.56368
908.90 75.51852
909.00 75.69557
909.10 75.8729
909.20 76.05149
909.30 76.23008
909.40 76.39495
909.50 76.55778
909.60 76.52686
909.70 76.33742
909.80 76.1777
909.90 76.11203
910.00 76.04637
910.10 76.03639
910.20 76.03059
910.30 76.01641
910.40 75.99708
910.50 75.93048
910.60 75.75866
910.70 75.58683
910.80 75.97235
910.90 76.35787
911.00 76.70959
911.10 77.04613
911.20 77.24929
911.30 77.23483
911.40 77.18642
911.50 76.68682
911.60 76.18722
911.70 76.46646
911.80 76.99164
911.90 77.34449
912.00 77.48672
912.10 77.65592
912.20 78.00563
912.30 78.35533
912.40 78.42473
912.50 78.43261
912.60 78.48333
912.70 78.57522
912.80 78.57627
912.90 78.21397
913.00 77.85167
913.10 77.7779
913.20 77.73979
913.30 77.81581
913.40 77.97447
913.50 78.08111
913.60 78.04712
913.70 78.01313
913.80 77.65169
913.90 77.27662
914.00 77.01877
914.10 76.82404
914.20 76.6192
914.30 76.39474
914.40 76.1859
914.50 76.48225
914.60 76.7786
914.70 76.86828
914.80 76.87758
914.90 76.96913
915.00 77.17903
915.10 77.36919
915.20 77.38164
915.30 77.39409
915.40 77.74141
915.50 78.17775
915.60 78.70097
915.70 79.31833
915.80 79.82585
915.90 79.79712
916.00 79.76839
916.10 79.12194
916.20 78.37494
916.30 77.71066
916.40 77.11406
916.50 76.78137
916.60 77.28444
916.70 77.78751
916.80 78.42928
916.90 79.08149
917.00 79.29792
917.10 79.24725
917.20 79.09939
917.30 78.73519
917.40 78.371
917.50 77.95814
917.60 77.54528
917.70 77.52484
917.80 77.68071
917.90 77.84116
918.00 78.00909
918.10 78.17466
918.20 78.30895
918.30 78.44325
918.40 78.3367
918.50 78.1541
918.60 78.16235
918.70 78.40384
918.80 78.67057
918.90 79.09227
919.00 79.51397
919.10 79.89474
919.20 80.26713
919.30 80.22516
919.40 79.80071
919.50 79.35987
919.60 78.85741
919.70 78.35495
919.80 78.48859
919.90 78.69291
920.00 79.03148
920.10 79.46334
920.20 79.7998
920.30 79.89094
920.40 79.98208
920.50 79.61818
920.60 79.24021
920.70 78.87943
920.80 78.5275
920.90 78.11841
921.00 77.60314
921.10 77.10749
921.20 77.08273
921.30 77.05796
921.40 77.33989
921.50 77.73526
921.60 78.1282
921.70 78.5178
921.80 78.89403
921.90 79.16204
922.00 79.43005
922.10 79.39824
922.20 79.29146
922.30 79.20012
922.40 79.12483
922.50 79.02328
922.60 78.80207
922.70 78.58086
922.80 78.36233
922.90 78.1442
923.00 77.76682
923.10 77.26432
923.20 76.92849
923.30 77.09266
923.40 77.25682
923.50 77.54324
923.60 77.83608
923.70 78.0859
923.80 78.31151
923.90 78.5453
924.00 78.79571
924.10 79.05077
924.20 79.53398
924.30 80.01719
924.40 80.05682
924.50 79.91526
924.60 79.53621
924.70 78.80091
924.80 78.09199
924.90 77.64982
925.00 77.20766
925.10 77.03943
925.20 76.94847
925.30 77.10203
925.40 77.53131
925.50 77.96151
925.60 78.39648
925.70 78.83146
925.80 79.14355
925.90 79.43397
926.00 79.21818
926.10 78.57118
926.20 78.07251
926.30 78.04352
926.40 78.01454
926.50 78.47597
926.60 78.97432
926.70 79.36935
926.80 79.70105
926.90 79.75886
927.00 79.20702
927.10 78.65518
927.20 78.25033
927.30 77.84548
927.40 77.60038
927.50 77.42705
927.60 77.21627
927.70 76.9444
927.80 76.67126
927.90 76.38131
928.00 76.09136
928.10 76.0819
928.20 76.16102
928.30 76.4196
928.40 76.89755
928.50 77.31825
928.60 77.41462
928.70 77.51098
928.80 77.13547
928.90 76.67008
929.00 76.45706
929.10 76.46783
929.20 76.54805
929.30 76.87453
929.40 77.20102
929.50 77.23199
929.60 77.23375
929.70 77.2224
929.80 77.20233
929.90 77.26813
930.00 77.54415
930.10 77.82018
930.20 77.64693
930.30 77.46451
930.40 77.24911
930.50 77.01821
930.60 76.78834
930.70 76.56022
930.80 76.34238
930.90 76.28552
931.00 76.22866
931.10 76.39496
931.20 76.63563
931.30 77.05659
931.40 77.70702
931.50 78.26521
931.60 78.22575
931.70 78.1973
931.80 78.16886
931.90 78.45038
932.00 78.75886
932.10 79.00968
932.20 79.02986
932.30 79.05004
932.40 78.77535
932.50 78.18121
932.60 77.58708
932.70 77.33577
932.80 77.19273
932.90 77.06295
933.00 77.25151
933.10 77.44007
933.20 77.52069
933.30 77.38218
933.40 77.24367
933.50 77.13194
933.60 77.03734
933.70 76.94274
933.80 77.00944
933.90 77.09608
934.00 77.2241
934.10 77.55416
934.20 77.88421
934.30 78.07654
934.40 78.10055
934.50 78.12455
934.60 78.18153
934.70 78.25008
934.80 78.31841
934.90 78.37533
935.00 78.43225
935.10 78.41948
935.20 78.2441
935.30 78.06873
935.40 77.74694
935.50 77.31913
935.60 76.89132
935.70 76.86714
935.80 76.90327
935.90 77.01973
936.00 77.59138
936.10 78.16303
936.20 78.61801
936.30 78.91835
936.40 79.21868
936.50 79.15248
936.60 78.93656
936.70 78.72064
936.80 78.33658
936.90 77.95253
937.00 77.65994
937.10 77.60257
937.20 77.54519
937.30 77.61122
937.40 77.77419
937.50 77.93717
937.60 78.01994
937.70 78.08744
937.80 78.12328
937.90 77.9472
938.00 77.77113
938.10 77.69457
938.20 77.76121
938.30 77.82786
938.40 77.88987
938.50 77.94981
938.60 78.00974
938.70 77.83481
938.80 77.65509
938.90 77.575
939.00 77.77845
939.10 77.98191
939.20 78.1801
939.30 78.37381
939.40 78.56752
939.50 78.67403
939.60 78.76268
939.70 78.79239
939.80 78.34531
939.90 77.89823
940.00 77.57766
940.10 77.45499
940.20 77.33231
940.30 77.52735
940.40 77.8719
940.50 78.21645
940.60 78.69111
940.70 79.1712
940.80 79.48214
940.90 79.28561
941.00 79.08909
941.10 78.95094
941.20 78.86458
941.30 78.77821
941.40 78.77562
941.50 78.79267
941.60 78.8081
941.70 78.80905
941.80 78.80999
941.90 78.68909
942.00 78.36941
942.10 78.04973
942.20 78.01509
942.30 78.12084
942.40 78.2266
942.50 78.21289
942.60 78.19289
942.70 78.28335
942.80 78.74358
942.90 79.20381
943.00 79.63255
943.10 80.03223
943.20 80.43191
943.30 80.82161
943.40 81.20882
943.50 81.52129
943.60 81.07797
943.70 80.63466
943.80 80.28406
943.90 80.09132
944.00 79.89858
944.10 79.74009
944.20 79.59924
944.30 79.45838
944.40 79.37765
944.50 79.30076
944.60 79.19685
944.70 79.00252
944.80 78.80818
944.90 78.78015
945.00 78.91192
945.10 79.04368
945.20 79.34171
945.30 79.68131
945.40 79.99884
945.50 80.06265
945.60 80.12646
945.70 80.10901
945.80 79.95321
945.90 79.7974
946.00 79.51817
946.10 79.17247
946.20 78.82677
946.30 78.7241
946.40 78.63694
946.50 78.62584
946.60 78.88437
946.70 79.14289
946.80 79.39382
946.90 79.63745
947.00 79.88108
947.10 79.97812
947.20 80.03619
947.30 80.10006
947.40 80.23055
947.50 80.36103
947.60 80.42065
947.70 80.35959
947.80 80.29854
947.90 80.18288
948.00 80.03782
948.10 79.89276
948.20 79.88265
948.30 79.88116
948.40 79.98199
948.50 80.44558
948.60 80.90916
948.70 81.36626
948.80 81.81713
948.90 82.268
949.00 82.40035
949.10 82.45308
949.20 82.46322
949.30 81.98365
949.40 81.50408
949.50 81.15707
949.60 81.03575
949.70 80.91444
949.80 80.89894
949.90 80.94043
950.00 80.98191
950.10 81.10937
950.20 81.24233
950.30 81.31419
950.40 81.18155
950.50 81.0489
950.60 81.12861
950.70 81.41237
950.80 81.69612
950.90 81.68174
951.00 81.59283
951.10 81.51903
951.20 81.59801
951.30 81.67699
951.40 81.58447
951.50 81.19995
951.60 80.81542
951.70 80.4905
951.80 80.19628
951.90 79.90207
952.00 79.81764
952.10 79.74425
952.20 79.85974
952.30 80.60757
952.40 81.35539
952.50 82.06293
952.60 82.73329
952.70 83.40364
952.80 83.23019
952.90 82.85881
953.00 82.46376
953.10 81.85577
953.20 81.24778
953.30 80.78737
953.40 80.56777
953.50 80.34816
953.60 80.53066
953.70 80.91123
953.80 81.29179
953.90 81.22915
954.00 81.14804
954.10 81.0806
954.20 81.05644
954.30 81.03228
954.40 81.15528
954.50 81.40878
954.60 81.66227
954.70 82.19164
954.80 82.78156
954.90 83.31856
955.00 83.42736
955.10 83.53615
955.20 83.4931
955.30 83.22228
955.40 82.95145
955.50 82.69228
955.60 82.43861
955.70 82.18493
955.80 82.05155
955.90 81.92189
956.00 81.81638
956.10 81.77963
956.20 81.74287
956.30 81.79726
956.40 81.92622
956.50 82.05518
956.60 82.14111
956.70 82.21885
956.80 82.29301
956.90 82.34102
957.00 82.38903
957.10 82.41896
957.20 82.42286
957.30 82.42677
957.40 82.41621
957.50 82.39947
957.60 82.38272
957.70 82.20639
957.80 82.02845
957.90 81.86699
958.00 81.74791
958.10 81.62884
958.20 81.53116
958.30 81.44963
958.40 81.36809
958.50 81.10236
958.60 80.80412
958.70 80.51648
958.80 80.29397
958.90 80.07147
959.00 79.79175
959.10 79.4362
959.20 79.08065
959.30 78.99851
959.40 79.0227
959.50 79.04696
959.60 79.07884
959.70 79.11071
959.80 79.17913
959.90 79.33283
960.00 79.48652
960.10 79.67806
960.20 79.8959
960.30 80.11374
960.40 80.25046
960.50 80.37612
960.60 80.47523
960.70 80.435
960.80 80.39477
960.90 80.21605
961.00 79.86806
961.10 79.52008
961.20 79.33117
961.30 79.19815
961.40 79.07772
961.50 79.36403
961.60 79.65034
961.70 79.96896
961.80 80.3562
961.90 80.74344
962.00 80.97363
962.10 81.10341
962.20 81.2332
962.30 81.08468
962.40 80.90524
962.50 80.72101
962.60 80.51631
962.70 80.31162
962.80 80.18104
962.90 80.13074
963.00 80.08044
963.10 80.22557
963.20 80.42908
963.30 80.60778
963.40 80.3979
963.50 80.18802
963.60 79.89904
963.70 79.46315
963.80 79.02726
963.90 78.70332
964.00 78.44235
964.10 78.18138
964.20 78.40987
964.30 78.6752
964.40 78.88986
964.50 78.92491
964.60 78.95996
964.70 79.09812
964.80 79.33536
964.90 79.5726
965.00 79.5973
965.10 79.56887
965.20 79.54092
965.30 79.51777
965.40 79.49462
965.50 79.50717
965.60 79.57796
965.70 79.64876
965.80 80.01861
965.90 80.53575
966.00 81.0529
966.10 81.125
966.20 81.17856
966.30 81.22798
966.40 81.26498
966.50 81.30198
966.60 81.32404
966.70 81.33337
966.80 81.3427
966.90 81.47416
967.00 81.63063
967.10 81.71697
967.20 81.28905
967.30 80.86113
967.40 80.50968
967.50 80.26384
967.60 80.018
967.70 80.07383
967.80 80.25287
967.90 80.43191
968.00 80.68379
968.10 80.93567
968.20 81.13706
968.30 81.21487
968.40 81.29268
968.50 81.20328
968.60 80.99279
968.70 80.7823
968.80 80.71606
968.90 80.67138
969.00 80.65516
969.10 80.78839
969.20 80.92162
969.30 81.10956
969.40 81.36436
969.50 81.61917
969.60 81.75982
969.70 81.86035
969.80 81.95678
969.90 81.95455
970.00 81.95233
970.10 81.90133
970.20 81.75133
970.30 81.60132
970.40 81.39574
970.50 81.15609
970.60 80.91645
970.70 80.95414
970.80 81.01926
970.90 81.16678
971.00 81.64391
971.10 82.12104
971.20 82.57685
971.30 83.01046
971.40 83.44408
971.50 83.49237
971.60 83.43823
971.70 83.35972
971.80 83.001
971.90 82.64228
972.00 82.39143
972.10 82.32427
972.20 82.2571
972.30 82.31135
972.40 82.42814
972.50 82.54493
972.60 82.40561
972.70 82.25282
972.80 82.07685
972.90 81.83138
973.00 81.58591
973.10 81.46831
973.20 81.45965
973.30 81.45099
973.40 81.46845
973.50 81.49126
973.60 81.5073
973.70 81.47362
973.80 81.43995
973.90 81.44041
974.00 81.48803
974.10 81.53564
974.20 81.50685
974.30 81.44685
974.40 81.38686
974.50 81.34144
974.60 81.29603
974.70 81.27167
974.80 81.29889
974.90 81.3261
975.00 81.46829
975.10 81.69037
975.20 81.91245
975.30 82.01001
975.40 82.09059
975.50 82.17294
975.60 82.26386
975.70 82.35478
975.80 82.41049
975.90 82.42485
976.00 82.4392
976.10 82.52939
976.20 82.64353
976.30 82.75342
976.40 82.78276
976.50 82.81211
976.60 82.82737
976.70 82.81531
976.80 82.80325
976.90 82.70667
977.00 82.56255
977.10 82.41843
977.20 82.42795
977.30 82.44902
977.40 82.51131
977.50 82.7197
977.60 82.92809
977.70 83.00602
977.80 82.96353
977.90 82.92105
978.00 82.73504
978.10 82.51537
978.20 82.29405
978.30 82.05783
978.40 81.82161
978.50 81.67867
978.60 81.67565
978.70 81.67263
978.80 81.7369
978.90 81.83139
979.00 81.92588
979.10 82.37276
979.20 82.82683
979.30 83.22772
979.40 83.49189
979.50 83.75606
979.60 83.85714
979.70 83.83518
979.80 83.81322
979.90 83.72958
980.00 83.6359
980.10 83.54113
980.20 83.44063
980.30 83.34013
980.40 83.26544
980.50 83.22231
980.60 83.17917
980.70 83.08745
980.80 82.97954
980.90 82.87422
981.00 82.83118
981.10 82.78815
981.20 82.6936
981.30 82.49449
981.40 82.29538
981.50 82.35952
981.60 82.57827
981.70 82.79703
981.80 82.92333
981.90 83.04159
982.00 83.14287
982.10 83.18392
982.20 83.22498
982.30 83.25852
982.40 83.28484
982.50 83.31116
982.60 83.39945
982.70 83.50323
982.80 83.57656
982.90 83.37574
983.00 83.17492
983.10 82.97329
983.20 82.77042
983.30 82.56754
983.40 82.49094
983.50 82.47109
983.60 82.45123
983.70 82.5583
983.80 82.66796
983.90 82.80393
984.00 83.00755
984.10 83.21118
984.20 83.3413
984.30 83.41597
984.40 83.49063
984.50 83.25114
984.60 82.96471
984.70 82.65024
984.80 82.18861
984.90 81.72698
985.00 81.49378
985.10 81.52873
985.20 81.56369
985.30 81.8263
985.40 82.1648
985.50 82.49743
985.60 82.7186
985.70 82.93976
985.80 83.0726
985.90 83.034
986.00 82.99539
986.10 83.05464
986.20 83.16893
986.30 83.28322
986.40 83.3292
986.50 83.37004
986.60 83.36057
986.70 83.18269
986.80 83.0048
986.90 83.00201
987.00 83.16084
987.10 83.31966
987.20 83.73099
987.30 84.19775
987.40 84.60698
987.50 84.55078
987.60 84.49457
987.70 84.25592
987.80 83.75474
987.90 83.25356
988.00 83.08127
988.10 83.04333
988.20 83.00539
988.30 83.5197
988.40 84.03402
988.50 84.44871
988.60 84.63096
988.70 84.8132
988.80 84.77225
988.90 84.5762
989.00 84.38015
989.10 83.86612
989.20 83.3128
989.30 82.67448
989.40 81.64891
989.50 80.62333
989.60 79.5909
989.70 78.55103
989.80 77.51116
989.90 76.8617
990.00 76.32235
990.10 75.79781
990.20 75.47008
990.30 75.14236
990.40 74.75583
990.50 74.26916
990.60 73.78249
990.70 73.5086
990.80 73.34433
990.90 73.18006
991.00 73.32675
991.10 73.48639
991.20 73.56882
991.30 73.43151
991.40 73.29419
991.50 73.20426
991.60 73.1531
991.70 73.10194
991.80 73.1433
991.90 73.201
992.00 73.25887
992.10 73.31774
992.20 73.37661
992.30 73.34655
992.40 73.2033
992.50 73.06006
992.60 73.27448
992.70 73.61456
992.80 73.95789
992.90 74.37923
993.00 74.80057
993.10 75.12556
993.20 75.25497
993.30 75.38438
993.40 75.45206
993.50 75.4835
993.60 75.51495
993.70 75.81082
993.80 76.1266
993.90 76.45971
994.00 76.85426
994.10 77.24882
994.20 77.51522
994.30 77.66333
994.40 77.81144
994.50 77.86111
994.60 77.88917
994.70 77.92572
994.80 78.03091
994.90 78.1361
995.00 78.31248
995.10 78.59131
995.20 78.87015
995.30 78.90997
995.40 78.85217
995.50 78.79095
995.60 78.39114
995.70 77.99133
995.80 77.63597
995.90 77.38429
996.00 77.13261
996.10 77.31817
996.20 77.79523
996.30 78.27229
996.40 78.76372
996.50 79.25674
996.60 79.57019
996.70 79.11815
996.80 78.6661
996.90 78.02075
997.00 77.17421
997.10 76.32767
997.20 75.91196
997.30 75.61078
997.40 75.37333
997.50 75.78027
997.60 76.18722
997.70 76.55256
997.80 76.85
997.90 77.14745
998.00 77.28985
998.10 77.35928
998.20 77.42871
998.30 77.13176
998.40 76.82734
998.50 76.56914
998.60 76.42981
998.70 76.29049
998.80 76.20388
998.90 76.15544
999.00 76.10701
999.10 76.18022
999.20 76.2716
999.30 76.31644
999.40 76.13408
999.50 75.95171
999.60 76.02443
999.70 76.38482
999.80 76.74521
999.90 77.29289
1000.00 77.89651
1000.10 78.49452
1000.20 79.01804
1000.30 79.54156
1000.40 79.79906
1000.50 79.58363
1000.60 79.3682
1000.70 79.02109
1000.80 78.60614
1000.90 78.1912
1001.00 77.88144
1001.10 77.57607
1001.20 77.40845
1001.30 77.63291
1001.40 77.85737
1001.50 78.13851
1001.60 78.46419
1001.70 78.78986
1001.80 78.93051
1001.90 79.04105
1002.00 79.13825
1002.10 79.15986
1002.20 79.18147
1002.30 79.27382
1002.40 79.4526
1002.50 79.63139
1002.60 79.76012
1002.70 79.87217
1002.80 79.96477
1002.90 79.68783
1003.00 79.4109
1003.10 79.15181
1003.20 78.92588
1003.30 78.69995
1003.40 78.49346
1003.50 78.29744
1003.60 78.10141
1003.70 78.22723
1003.80 78.36998
1003.90 78.55532
1004.00 78.86842
1004.10 79.18151
1004.20 79.63639
1004.30 80.21206
1004.40 80.78773
1004.50 80.83481
1004.60 80.7812
1004.70 80.64284
1004.80 79.98381
1004.90 79.32478
1005.00 78.53588
1005.10 77.5817
1005.20 76.62752
1005.30 76.15765
1005.40 75.85794
1005.50 75.57319
1005.60 75.64774
1005.70 75.72228
1005.80 75.84648
1005.90 76.06705
1006.00 76.28763
1006.10 76.46604
1006.20 76.62073
1006.30 76.77543
1006.40 77.27205
1006.50 77.7905
1006.60 78.29808
1006.70 78.77125
1006.80 79.24442
1006.90 79.51303
1007.00 79.60739
1007.10 79.70174
1007.20 79.63403
1007.30 79.53545
1007.40 79.48413
1007.50 79.72311
1007.60 79.96208
1007.70 80.33872
1007.80 80.89057
1007.90 81.44242
1008.00 81.72486
1008.10 81.91265
1008.20 82.08566
1008.30 81.90412
1008.40 81.72258
1008.50 81.48787
1008.60 81.14995
1008.70 80.81203
1008.80 80.49051
1008.90 80.17821
1009.00 79.86591
1009.10 79.73429
1009.20 79.61627
1009.30 79.58976
1009.40 79.86961
1009.50 80.14945
1009.60 80.72719
1009.70 81.56911
1009.80 82.41103
1009.90 83.0082
1010.00 83.55524
1010.10 84.05073
1010.20 84.20117
1010.30 84.3516
1010.40 84.21176
1010.50 83.68713
1010.60 83.16249
1010.70 82.61051
1010.80 82.0484
1010.90 81.48392
1011.00 80.84279
1011.10 80.20165
1011.20 79.63422
1011.30 79.20988
1011.40 78.78554
1011.50 78.52772
1011.60 78.36356
1011.70 78.19941
1011.80 78.60793
1011.90 79.05299
1012.00 79.59213
1012.10 80.42915
1012.20 81.26617
1012.30 81.89216
1012.40 82.33839
1012.50 82.78463
1012.60 82.86021
1012.70 82.8652
1012.80 82.85084
1012.90 82.71761
1013.00 82.58438
1013.10 82.24007
1013.20 81.62711
1013.30 81.01416
1013.40 80.20449
1013.50 79.32572
1013.60 78.47173
1013.70 78.21277
1013.80 77.9538
1013.90 78.00894
1014.00 78.67382
1014.10 79.3387
1014.20 79.78343
1014.30 80.10432
1014.40 80.42522
1014.50 80.223
1014.60 79.9874
1014.70 79.84864
1014.80 80.01656
1014.90 80.18447
1015.00 80.5221
1015.10 81.00428
1015.20 81.48646
1015.30 81.4159
1015.40 81.2478
1015.50 81.01256
1015.60 80.39692
1015.70 79.78127
1015.80 79.33238
1015.90 79.08731
1016.00 78.84225
1016.10 79.06943
1016.20 79.45404
1016.30 79.83253
1016.40 80.09477
1016.50 80.35701
1016.60 80.53692
1016.70 80.56396
1016.80 80.59099
1016.90 80.53629
1017.00 80.4376
1017.10 80.3389
1017.20 80.9276
1017.30 81.55248
1017.40 82.1031
1017.50 82.44237
1017.60 82.78163
1017.70 82.67248
1017.80 82.21101
1017.90 81.74953
1018.00 81.02274
1018.10 80.25277
1018.20 79.56244
1018.30 79.29022
1018.40 79.01799
1018.50 78.98105
1018.60 79.2203
1018.70 79.45955
1018.80 79.75984
1018.90 80.07941
1019.00 80.38456
1019.10 80.49811
1019.20 80.61166
1019.30 80.65038
1019.40 80.56169
1019.50 80.473
1019.60 80.46732
1019.70 80.50252
1019.80 80.53773
1019.90 80.71613
1020.00 80.89896
1020.10 81.09965
1020.20 81.34863
1020.30 81.59762
1020.40 81.86053
1020.50 82.13394
1020.60 82.40736
1020.70 82.25733
1020.80 82.04955
1020.90 81.79765
1021.00 81.34474
1021.10 80.89184
1021.20 80.40164
1021.30 79.87103
1021.40 79.34043
1021.50 78.93125
1021.60 78.55632
1021.70 78.19521
1021.80 77.99309
1021.90 77.79096
1022.00 77.79326
1022.10 78.11532
1022.20 78.43738
1022.30 78.85822
1022.40 79.32343
1022.50 79.78864
1022.60 80.07346
1022.70 80.35646
1022.80 80.51974
1022.90 80.38995
1023.00 80.26016
1023.10 80.12275
1023.20 79.98027
1023.30 79.83779
1023.40 80.10671
1023.50 80.42133
1023.60 80.77486
1023.70 81.28407
1023.80 81.79327
1023.90 82.25452
1024.00 82.66781
1024.10 83.0811
1024.20 83.02874
1024.30 82.86716
1024.40 82.68968
1024.50 82.38354
1024.60 82.0774
1024.70 81.69242
1024.80 81.19399
1024.90 80.69556
1025.00 80.39073
1025.10 80.16497
1025.20 79.9436
1025.30 79.93683
1025.40 79.93007
1025.50 79.94615
1025.60 80.01081
1025.70 80.07547
1025.80 79.80672
1025.90 79.33364
1026.00 78.86055
1026.10 78.37409
1026.20 77.88662
1026.30 77.6086
1026.40 78.03174
1026.50 78.45489
1026.60 79.05719
1026.70 79.81835
1026.80 80.57951
1026.90 80.96203
1027.00 81.27242
1027.10 81.49097
1027.20 81.14534
1027.30 80.79971
1027.40 80.52407
1027.50 80.3375
1027.60 80.15094
1027.70 79.87723
1027.80 79.5729
1027.90 79.26313
1028.00 78.84984
1028.10 78.43655
1028.20 78.15771
1028.30 78.12856
1028.40 78.09942
1028.50 78.49183
1028.60 79.11125
1028.70 79.73066
1028.80 80.24477
1028.90 80.7545
1029.00 81.11031
1029.10 81.02805
1029.20 80.94579
1029.30 80.82538
1029.40 80.67499
1029.50 80.52461
1029.60 80.43459
1029.70 80.35358
1029.80 80.27832
1029.90 80.23112
1030.00 80.18391
1030.10 80.21638
1030.20 80.33871
1030.30 80.46104
1030.40 80.70819
1030.50 80.99054
1030.60 81.2536
1030.70 81.29481
1030.80 81.33602
1030.90 81.34177
1031.00 81.29209
1031.10 81.2424
1031.20 81.13864
1031.30 81.01058
1031.40 80.88252
1031.50 80.73914
1031.60 80.59561
1031.70 80.45981
1031.80 80.34204
1031.90 80.22427
1032.00 80.09033
1032.10 79.94562
1032.20 79.8009
1032.30 79.78104
1032.40 79.77505
1032.50 79.88743
1032.60 80.44509
1032.70 81.00276
1032.80 81.71821
1032.90 82.58526
1033.00 83.45231
1033.10 83.77685
1033.20 83.9823
1033.30 84.07533
1033.40 83.34399
1033.50 82.61265
1033.60 81.88952
1033.70 81.1777
1033.80 80.46589
1033.90 80.22485
1034.00 80.15793
1034.10 80.10565
1034.20 80.52684
1034.30 80.94802
1034.40 81.30093
1034.50 81.52129
1034.60 81.74165
1034.70 81.67771
1034.80 81.45386
1034.90 81.23001
1035.00 80.94895
1035.10 80.66488
1035.20 80.46201
1035.30 80.50272
1035.40 80.54344
1035.50 80.7852
1035.60 81.18493
1035.70 81.58466
1035.80 81.9936
1035.90 82.40404
1036.00 82.78618
1036.10 83.01975
1036.20 83.25331
1036.30 83.42398
1036.40 83.52372
1036.50 83.62346
1036.60 83.70666
1036.70 83.78493
1036.80 83.89222
1036.90 84.33334
1037.00 84.77445
1037.10 85.14288
1037.20 85.3927
1037.30 85.64251
1037.40 85.36502
1037.50 84.85061
1037.60 84.3362
1037.70 83.22776
1037.80 82.11332
1037.90 81.20147
1038.00 80.76231
1038.10 80.32315
1038.20 80.37914
1038.30 80.76524
1038.40 81.15133
1038.50 81.45428
1038.60 81.749
1038.70 81.94318
1038.80 81.75916
1038.90 81.57513
1039.00 81.40718
1039.10 81.25408
1039.20 81.10098
1039.30 81.22667
1039.40 81.41355
1039.50 81.61661
1039.60 81.92786
1039.70 82.23912
1039.80 82.50371
1039.90 82.70645
1040.00 82.90919
1040.10 83.11279
1040.20 83.31668
1040.30 83.52117
1040.40 83.74007
1040.50 83.95898
1040.60 84.1578
1040.70 84.31932
1040.80 84.48084
1040.90 84.25487
1041.00 83.82025
1041.10 83.38564
1041.20 82.89855
1041.30 82.40928
1041.40 82.08523
1041.50 82.23147
1041.60 82.3777
1041.70 82.7714
1041.80 83.35178
1041.90 83.93216
1042.00 83.89074
1042.10 83.75639
1042.20 83.51663
1042.30 82.79662
1042.40 82.07661
1042.50 81.38358
1042.60 80.7198
1042.70 80.05601
1042.80 80.20156
1042.90 80.56224
1043.00 80.96585
1043.10 81.75572
1043.20 82.5456
1043.30 83.31442
1043.40 84.05168
1043.50 84.78893
1043.60 85.07062
1043.70 85.16622
1043.80 85.2609
1043.90 85.26364
1044.00 85.26637
1044.10 85.23632
1044.20 85.13661
1044.30 85.0369
1044.40 84.945
1044.50 84.85789
1044.60 84.77078
1044.70 84.86924
1044.80 84.98168
1044.90 85.21726
1045.00 85.84283
1045.10 86.4684
1045.20 87.04997
1045.30 87.59407
1045.40 88.13817
1045.50 87.94093
1045.60 87.61287
1045.70 87.21158
1045.80 86.39529
1045.90 85.57901
1046.00 84.89125
1046.10 84.35437
1046.20 83.81749
1046.30 83.36328
1046.40 82.93518
1046.50 82.50126
1046.60 81.98997
1046.70 81.47869
1046.80 81.0984
1046.90 80.93183
1047.00 80.76526
1047.10 80.90657
1047.20 81.19277
1047.30 81.47897
1047.40 81.62487
1047.50 81.76935
1047.60 81.85636
1047.70 81.80924
1047.80 81.76213
1047.90 81.86085
1048.00 82.0568
1048.10 82.25275
1048.20 82.75407
1048.30 83.2856
1048.40 83.78142
1048.50 84.14297
1048.60 84.50451
1048.70 84.71977
1048.80 84.8
1048.90 84.88023
1049.00 84.88422
1049.10 84.87258
1049.20 84.81669
1049.30 84.46458
1049.40 84.11247
1049.50 83.72687
1049.60 83.29864
1049.70 82.87042
1049.80 82.87502
1049.90 83.0239
1050.00 83.18935
1050.10 83.66978
1050.20 84.15021
1050.30 84.47499
1050.40 84.52305
1050.50 84.5711
1050.60 84.34583
1050.70 83.98593
1050.80 83.62603
1050.90 83.15864
1051.00 82.68792
1051.10 82.22071
1051.20 81.76252
1051.30 81.30434
1051.40 81.00732
1051.50 80.82228
1051.60 80.63725
1051.70 80.62688
1051.80 80.6381
1051.90 80.70278
1052.00 80.98136
1052.10 81.25994
1052.20 81.61761
1052.30 82.05126
1052.40 82.4849
1052.50 83.00421
1052.60 83.54361
1052.70 84.0381
1052.80 84.20326
1052.90 84.36842
1053.00 84.44645
1053.10 84.40898
1053.20 84.37151
1053.30 84.34659
1053.40 84.32631
1053.50 84.30292
1053.60 84.20489
1053.70 84.10687
1053.80 84.03756
1053.90 84.02159
1054.00 84.00561
1054.10 83.9434
1054.20 83.85737
1054.30 83.77135
1054.40 83.40902
1054.50 83.03519
1054.60 82.66546
1054.70 82.30683
1054.80 81.94821
1054.90 81.94091
1055.00 82.18803
1055.10 82.43515
1055.20 82.72939
1055.30 83.03007
1055.40 83.19967
1055.50 82.81054
1055.60 82.4214
1055.70 81.91888
1055.80 81.30299
1055.90 80.68709
1056.00 80.44297
1056.10 80.29179
1056.20 80.17692
1056.30 80.35581
1056.40 80.53471
1056.50 80.73963
1056.60 80.98047
1056.70 81.22132
1056.80 81.3354
1056.90 81.40261
1057.00 81.46846
1057.10 81.50192
1057.20 81.53538
1057.30 81.62773
1057.40 81.83441
1057.50 82.04109
1057.60 82.21105
1057.70 82.36125
1057.80 82.51145
1057.90 82.58746
1058.00 82.66038
1058.10 82.67443
1058.20 82.52092
1058.30 82.3674
1058.40 82.25401
1058.50 82.17089
1058.60 82.08777
1058.70 81.9685
1058.80 81.8443
1058.90 81.75568
1059.00 81.81876
1059.10 81.88185
1059.20 81.92906
1059.30 81.96041
1059.40 81.99176
1059.50 82.04503
1059.60 82.10378
1059.70 82.14483
1059.80 82.0426
1059.90 81.94037
1060.00 81.81135
1060.10 81.64536
1060.20 81.47937
1060.30 81.30301
1060.40 81.12282
1060.50 80.94402
1060.60 80.81041
1060.70 80.67681
1060.80 80.61312
1060.90 80.68514
1061.00 80.75717
1061.10 80.95003
1061.20 81.20796
1061.30 81.46589
1061.40 81.54167
1061.50 81.60985
1061.60 81.66306
1061.70 81.67577
1061.80 81.68847
1061.90 81.709
1062.00 81.73542
1062.10 81.76185
1062.20 82.02209
1062.30 82.31422
1062.40 82.61878
1062.50 82.97633
1062.60 83.33388
1062.70 83.62938
1062.80 83.86282
1062.90 84.09626
1063.00 84.02451
1063.10 83.88117
1063.20 83.75459
1063.30 83.76357
1063.40 83.77254
1063.50 83.89586
1063.60 84.17708
1063.70 84.4583
1063.80 84.70906
1063.90 84.94855
1064.00 85.17608
1064.10 85.11653
1064.20 85.05698
1064.30 84.9761
1064.40 84.85562
1064.50 84.73514
1064.60 84.69942
1064.70 84.70738
1064.80 84.71534
1064.90 84.63731
1065.00 84.5557
1065.10 84.36481
1065.20 83.87844
1065.30 83.39208
1065.40 82.92037
1065.50 82.45927
1065.60 81.99817
1065.70 81.98158
1065.80 82.01992
1065.90 82.02098
1066.00 81.87287
1066.10 81.72476
1066.20 81.50024
1066.30 81.20231
1066.40 80.90437
1066.50 80.77401
1066.60 80.68297
1066.70 80.63628
1066.80 80.91486
1066.90 81.19343
1067.00 81.40402
1067.10 81.52447
1067.20 81.64493
1067.30 82.01414
1067.40 82.47076
1067.50 82.92408
1067.60 83.31485
1067.70 83.70561
1067.80 84.05696
1067.90 84.33821
1068.00 84.61946
1068.10 84.8498
1068.20 85.05506
1068.30 85.26032
1068.40 85.40655
1068.50 85.55157
1068.60 85.65367
1068.70 85.6454
1068.80 85.63713
1068.90 85.52801
1069.00 85.34881
1069.10 85.1696
1069.20 84.96863
1069.30 84.76525
1069.40 84.4929
1069.50 83.96116
1069.60 83.42941
1069.70 83.10176
1069.80 82.9625
1069.90 82.82324
1070.00 82.90671
1070.10 83.0358
1070.20 83.16934
1070.30 83.33023
1070.40 83.49112
1070.50 83.50519
1070.60 83.33981
1070.70 83.17444
1070.80 83.22742
1070.90 83.34935
1071.00 83.48176
1071.10 83.77829
1071.20 84.07481
1071.30 84.35307
1071.40 84.60021
1071.50 84.84735
1071.60 85.02615
1071.70 85.17278
1071.80 85.31942
1071.90 85.28246
1072.00 85.24365
1072.10 85.17326
1072.20 85.02918
1072.30 84.8851
1072.40 84.79376
1072.50 84.73614
1072.60 84.67853
1072.70 84.85632
1072.80 85.05457
1072.90 85.20132
1073.00 85.17563
1073.10 85.14994
1073.20 85.14594
1073.30 85.16042
1073.40 85.17489
1073.50 85.18957
1073.60 85.20429
1073.70 85.24698
1073.80 85.43651
1073.90 85.62604
1074.00 85.75217
1074.10 85.8068
1074.20 85.86143
1074.30 86.04536
1074.40 86.26575
1074.50 86.4787
1074.60 86.60603
1074.70 86.73337
1074.80 86.71153
1074.90 86.45637
1075.00 86.2012
1075.10 85.71782
1075.20 85.13663
1075.30 84.5598
1075.40 84.41381
1075.50 84.26782
1075.60 84.32154
1075.70 84.79963
1075.80 85.27773
1075.90 85.59296
1076.00 85.81254
1076.10 86.03212
1076.20 85.83046
1076.30 85.6019
1076.40 85.42849
1076.50 85.4205
1076.60 85.41251
1076.70 85.53126
1076.80 85.74958
1076.90 85.9679
1077.00 86.09766
1077.10 86.21418
1077.20 86.27252
1077.30 86.06581
1077.40 85.8591
1077.50 85.74673
1077.60 85.73253
1077.70 85.71833
1077.80 85.84797
1077.90 86.01356
1078.00 86.17249
1078.10 86.27752
1078.20 86.38255
1078.30 86.35582
1078.40 86.14715
1078.50 85.93847
1078.60 85.66367
1078.70 85.36441
1078.80 85.0623
1078.90 84.69172
1079.00 84.32115
1079.10 83.9522
1079.20 83.58629
1079.30 83.22039
1079.40 83.13421
1079.50 83.19213
1079.60 83.25005
1079.70 83.60264
1079.80 83.96433
1079.90 84.28607
1080.00 84.50503
1080.10 84.724
1080.20 84.84618
1080.30 84.90109
1080.40 84.956
1080.50 85.18367
1080.60 85.43054
1080.70 85.64262
1080.80 85.72383
1080.90 85.80504
1081.00 85.89265
1081.10 85.98616
1081.20 86.07966
1081.30 86.22392
1081.40 86.37857
1081.50 86.56147
1081.60 86.91785
1081.70 87.27423
1081.80 87.3895
1081.90 87.21008
1082.00 87.03066
1082.10 86.71551
1082.20 86.3575
1082.30 86.00267
1082.40 85.69011
1082.50 85.37754
1082.60 85.27278
1082.70 85.50705
1082.80 85.74132
1082.90 86.06654
1083.00 86.43264
1083.10 86.79873
1083.20 87.15388
1083.30 87.50903
1083.40 87.77074
1083.50 87.82445
1083.60 87.87816
1083.70 87.76607
1083.80 87.55236
1083.90 87.33865
1084.00 87.19952
1084.10 87.06601
1084.20 86.86354
1084.30 86.44269
1084.40 86.02184
1084.50 85.78453
1084.60 85.69738
1084.70 85.61024
1084.80 85.577
1084.90 85.55254
1085.00 85.56795
1085.10 85.77797
1085.20 85.988
1085.30 86.0479
1085.40 85.94518
1085.50 85.84246
1085.60 86.09267
1085.70 86.4367
1085.80 86.78621
1085.90 87.18509
1086.00 87.58397
1086.10 87.89612
1086.20 88.08347
1086.30 88.27082
1086.40 88.13532
1086.50 87.87426
1086.60 87.62709
1086.70 87.71285
1086.80 87.79861
1086.90 87.88804
1087.00 87.98428
1087.10 88.08052
1087.20 88.07097
1087.30 88.00694
1087.40 87.9429
1087.50 87.64933
1087.60 87.34865
1087.70 87.08981
1087.80 86.9385
1087.90 86.7872
1088.00 86.73934
1088.10 86.76337
1088.20 86.7874
1088.30 86.8026
1088.40 86.81683
1088.50 86.83914
1088.60 86.89184
1088.70 86.94453
1088.80 86.87359
1088.90 86.68852
1089.00 86.50344
1089.10 86.39442
1089.20 86.30098
1089.30 86.26151
1089.40 86.55361
1089.50 86.84571
1089.60 87.16136
1089.70 87.50579
1089.80 87.85022
1089.90 88.25964
1090.00 88.68958
1090.10 89.09064
1090.20 89.10791
1090.30 89.12518
1090.40 88.97624
1090.50 88.56731
1090.60 88.15838
1090.70 87.52582
1090.80 86.79742
1090.90 86.07622
1091.00 86.06907
1091.10 86.06191
1091.20 86.23059
1091.30 86.77294
1091.40 87.31528
1091.50 87.84332
1091.60 88.36296
1091.70 88.8826
1091.80 88.90093
1091.90 88.88725
1092.00 88.81289
1092.10 88.55647
1092.20 88.30004
1092.30 88.00803
1092.40 87.68806
1092.50 87.3681
1092.60 87.1785
1092.70 87.00839
1092.80 86.88946
1092.90 87.00367
1093.00 87.11788
1093.10 87.26969
1093.20 87.4591
1093.30 87.6485
1093.40 87.6548
1093.50 87.61814
1093.60 87.58591
1093.70 87.58619
1093.80 87.58647
1093.90 87.60124
1094.00 87.63522
1094.10 87.66921
1094.20 87.5377
1094.30 87.34805
1094.40 87.15179
1094.50 86.8301
1094.60 86.50841
1094.70 86.46544
1094.80 86.91797
1094.90 87.3705
1095.00 88.09014
1095.10 88.94133
1095.20 89.79252
1095.30 90.18305
1095.40 90.56417
1095.50 90.74633
1095.60 90.46425
1095.70 90.18216
1095.80 89.9127
1095.90 89.65129
1096.00 89.38989
1096.10 89.51796
1096.20 89.6799
1096.30 89.80364
1096.40 89.79952
1096.50 89.7954
1096.60 89.442
1096.70 88.79106
1096.80 88.14012
1096.90 87.48903
1097.00 86.8379
1097.10 86.27723
1097.20 86.19144
1097.30 86.10565
1097.40 86.28626
1097.50 86.76728
1097.60 87.2483
1097.70 87.63544
1097.80 87.99763
1097.90 88.32257
1098.00 88.31225
1098.10 88.30192
1098.20 88.13156
1098.30 87.7309
1098.40 87.33024
1098.50 87.07263
1098.60 86.87066
1098.70 86.6808
1098.80 86.8829
1098.90 87.085
1099.00 87.38497
1099.10 87.87492
1099.20 88.36488
1099.30 88.65262
1099.40 88.83148
1099.50 89.01033
1099.60 89.10944
1099.70 89.20608
1099.80 89.23335
1099.90 89.08226
1100.00 88.93118
1100.10 88.78063
1100.20 88.63046
1100.30 88.4803
1100.40 88.28049
1100.50 88.07516
1100.60 87.9003
1100.70 87.84005
1100.80 87.77979
1100.90 87.76413
1101.00 87.78964
1101.10 87.81514
1101.20 87.84178
1101.30 87.86864
1101.40 87.88358
1101.50 87.83097
1101.60 87.77836
1101.70 87.66741
1101.80 87.48796
1101.90 87.30851
1102.00 86.98319
1102.10 86.6143
1102.20 86.294
1102.30 86.53241
1102.40 86.77083
1102.50 87.06819
1102.60 87.45773
1102.70 87.84727
1102.80 87.98077
1102.90 88.00968
1103.00 88.02686
1103.10 87.46897
1103.20 86.91107
1103.30 86.43436
1103.40 86.12247
1103.50 85.81058
1103.60 85.73429
1103.70 85.79052
1103.80 85.84675
1103.90 86.13561
1104.00 86.43672
1104.10 86.72004
1104.20 86.95278
1104.30 87.18552
1104.40 87.34588
1104.50 87.45383
1104.60 87.56177
1104.70 87.46275
1104.80 87.33815
1104.90 87.17748
1105.00 86.87254
1105.10 86.56759
1105.20 86.12631
1105.30 85.55403
1105.40 84.98176
1105.50 84.83449
1105.60 84.78051
1105.70 84.7749
1105.80 85.06639
1105.90 85.35787
1106.00 85.61299
1106.10 85.82366
1106.20 86.03433
1106.30 86.0461
1106.40 85.99506
1106.50 85.92169
1106.60 85.55154
1106.70 85.18139
1106.80 84.95709
1106.90 84.97075
1107.00 84.98442
1107.10 85.13861
1107.20 85.35303
1107.30 85.5669
1107.40 85.7261
1107.50 85.8853
1107.60 85.91726
1107.70 85.67884
1107.80 85.44043
1107.90 85.5293
1108.00 85.8104
1108.10 86.0915
1108.20 86.54983
1108.30 87.01947
1108.40 87.41089
1108.50 87.57967
1108.60 87.74846
1108.70 87.73874
1108.80 87.59435
1108.90 87.44996
1109.00 87.35567
1109.10 87.26822
1109.20 87.26634
1109.30 87.62923
1109.40 87.99213
1109.50 88.29427
1109.60 88.53564
1109.70 88.77701
1109.80 88.53906
1109.90 88.19589
1110.00 87.79116
1110.10 86.97441
1110.20 86.15766
1110.30 85.59151
1110.40 85.34431
1110.50 85.0971
1110.60 85.1449
1110.70 85.29103
1110.80 85.41863
1110.90 85.30002
1111.00 85.18141
1111.10 84.97456
1111.20 84.62374
1111.30 84.27292
1111.40 84.20477
1111.50 84.26361
1111.60 84.32246
1111.70 84.51826
1111.80 84.71405
1111.90 84.80672
1112.00 84.66984
1112.10 84.53296
1112.20 84.6561
1112.30 84.93195
1112.40 85.20779
1112.50 85.65087
1112.60 86.10463
1112.70 86.54099
1112.80 86.92515
1112.90 87.30931
1113.00 87.40647
1113.10 87.27814
1113.20 87.1498
1113.30 86.81781
1113.40 86.45805
1113.50 86.06408
1113.60 85.52428
1113.70 84.98449
1113.80 84.82793
1113.90 85.05461
1114.00 85.28129
1114.10 85.94255
1114.20 86.70575
1114.30 87.44574
1114.40 88.03039
1114.50 88.61505
1114.60 88.80763
1114.70 88.50118
1114.80 88.19473
1114.90 87.74788
1115.00 87.25424
1115.10 86.76972
1115.20 86.42815
1115.30 86.08658
1115.40 85.9777
1115.50 86.26503
1115.60 86.55236
1115.70 86.77645
1115.80 86.97212
1115.90 87.1678
1116.00 87.128
1116.10 87.08821
1116.20 87.03267
1116.30 86.94209
1116.40 86.8515
1116.50 86.77382
1116.60 86.70406
1116.70 86.63429
1116.80 86.35302
1116.90 86.05825
1117.00 85.69812
1117.10 85.14195
1117.20 84.58577
1117.30 84.22071
1117.40 84.0058
1117.50 83.79088
1117.60 84.01193
1117.70 84.29812
1117.80 84.62963
1117.90 85.15437
1118.00 85.67911
1118.10 86.17511
1118.20 86.64235
1118.30 87.1096
1118.40 87.33383
1118.50 87.50105
1118.60 87.61568
1118.70 87.34467
1118.80 87.04776
1118.90 86.71652
1119.00 86.38528
1119.10 86.10461
1119.20 86.07086
1119.30 86.03711
1119.40 86.00336
1119.50 86.00559
1119.60 86.01094
1119.70 86.01629
1119.80 86.11376
1119.90 86.25869
1120.00 86.40362
1120.10 86.54481
1120.20 86.68038
1120.30 86.81596
1120.40 86.97186
1120.50 87.25261
1120.60 87.53337
1120.70 87.81413
1120.80 87.78014
1120.90 87.70724
1121.00 87.63434
1121.10 87.51651
1121.20 87.37227
1121.30 87.22804
1121.40 87.06932
1121.50 86.88697
1121.60 86.70461
1121.70 86.52139
1121.80 86.33175
1121.90 86.14212
1122.00 85.95249
1122.10 85.8617
1122.20 85.787
1122.30 85.71231
1122.40 85.87731
1122.50 86.19557
1122.60 86.51383
1122.70 86.81157
1122.80 87.07119
1122.90 87.33081
1123.00 87.54178
1123.10 87.31485
1123.20 87.08792
1123.30 86.86099
1123.40 86.7545
1123.50 86.67096
1123.60 86.58741
1123.70 86.76209
1123.80 87.12375
1123.90 87.48541
1124.00 87.84823
1124.10 88.21339
1124.20 88.57856
1124.30 88.90623
1124.40 88.73578
1124.50 88.56532
1124.60 88.39487
1124.70 87.94175
1124.80 87.42658
1124.90 86.91142
1125.00 86.48445
1125.10 86.12678
1125.20 85.76911
1125.30 85.59666
1125.40 85.83644
1125.50 86.07622
1125.60 86.3244
1125.70 86.73202
1125.80 87.13964
1125.90 87.54726
1126.00 87.6419
1126.10 87.65831
1126.20 87.67471
1126.30 87.71953
1126.40 87.78856
1126.50 87.85759
1126.60 87.99965
1126.70 88.32055
1126.80 88.64144
1126.90 88.95268
1127.00 88.95151
1127.10 88.95034
1127.20 88.94917
1127.30 88.52266
1127.40 87.97617
1127.50 87.42969
1127.60 87.08832
1127.70 86.93628
1127.80 86.78424
1127.90 86.7069
1128.00 86.83152
1128.10 86.95614
1128.20 87.08118
1128.30 87.24713
1128.40 87.41308
1128.50 87.57903
1128.60 87.59437
1128.70 87.56215
1128.80 87.52992
1128.90 87.56481
1129.00 87.66418
1129.10 87.76354
1129.20 87.83342
1129.30 87.81483
1129.40 87.79624
1129.50 87.77765
1129.60 87.72709
1129.70 87.67653
1129.80 87.62597
1129.90 87.51978
1130.00 87.39404
1130.10 87.26829
1130.20 87.06724
1130.30 86.78781
1130.40 86.50837
1130.50 86.2791
1130.60 86.20866
1130.70 86.13822
1130.80 86.06779
1130.90 86.23601
1131.00 86.40911
1131.10 86.58221
1131.20 86.91034
1131.30 87.2958
1131.40 87.68127
1131.50 87.91554
1131.60 87.986
1131.70 88.05646
1131.80 88.10747
1131.90 88.08951
1132.00 88.07156
1132.10 88.0536
1132.20 87.88009
1132.30 87.70177
1132.40 87.52344
1132.50 87.52148
1132.60 87.59155
1132.70 87.66162
1132.80 87.61173
1132.90 87.42103
1133.00 87.23033
1133.10 87.0084
1133.20 86.66894
1133.30 86.32948
1133.40 85.99002
1133.50 85.67878
1133.60 85.36871
1133.70 85.05864
1133.80 84.8116
1133.90 84.59158
1134.00 84.37156
1134.10 84.15187
1134.20 83.93258
1134.30 83.7133
1134.40 83.57037
1134.50 83.7329
1134.60 83.89543
1134.70 84.05795
1134.80 84.51645
1134.90 84.99383
1135.00 85.47121
1135.10 85.77628
1135.20 86.00393
1135.30 86.23158
1135.40 86.27956
1135.50 86.09886
1135.60 85.91815
1135.70 85.7663
1135.80 85.73743
1135.90 85.70857
1136.00 85.6797
1136.10 85.75748
1136.20 85.84206
1136.30 85.92665
1136.40 85.89988
1136.50 85.8207
1136.60 85.74153
1136.70 85.60991
1136.80 85.40875
1136.90 85.2076
1137.00 85.00738
1137.10 84.81139
1137.20 84.6154
1137.30 84.41941
1137.40 84.02971
1137.50 83.62542
1137.60 83.22113
1137.70 82.43594
1137.80 81.46314
1137.90 80.49035
1138.00 79.74628
1138.10 79.31809
1138.20 78.8899
1138.30 78.63306
1138.40 79.21286
1138.50 79.79266
1138.60 80.37247
1138.70 81.36287
1138.80 82.38897
1138.90 83.41507
1139.00 84.00832
1139.10 84.38837
1139.20 84.76842
1139.30 84.84995
1139.40 84.51924
1139.50 84.18853
1139.60 83.8028
1139.70 83.12818
1139.80 82.45357
1139.90 81.77895
1140.00 80.8943
1140.10 79.98888
1140.20 79.08345
1140.30 78.43403
1140.40 77.91649
1140.50 77.39895
1140.60 77.29896
1140.70 77.79984
1140.80 78.30073
1140.90 78.90983
1141.00 80.08711
1141.10 81.26439
1141.20 82.44167
1141.30 83.4041
1141.40 84.34528
1141.50 85.28647
1141.60 85.72407
1141.70 85.90226
1141.80 86.08044
1141.90 86.21726
1142.00 86.29455
1142.10 86.37184
1142.20 86.43774
1142.30 86.44379
1142.40 86.44984
1142.50 86.4559
1142.60 86.60572
1142.70 86.76977
1142.80 86.93382
1142.90 86.97224
1143.00 86.94302
1143.10 86.9138
1143.20 86.8333
1143.30 86.6759
1143.40 86.51849
1143.50 86.37144
1143.60 86.28311
1143.70 86.19478
1143.80 86.10646
1143.90 86.00423
1144.00 85.90046
1144.10 85.7967
1144.20 85.72798
1144.30 85.67813
1144.40 85.62828
1144.50 85.58238
1144.60 85.54239
1144.70 85.50241
1144.80 85.49285
1144.90 85.65565
1145.00 85.81845
1145.10 85.98124
1145.20 86.00876
1145.30 86.02125
1145.40 86.03374
1145.50 86.07874
1145.60 86.14126
1145.70 86.20377
1145.80 86.31829
1145.90 86.51082
1146.00 86.70335
1146.10 86.90208
1146.20 87.13594
1146.30 87.3698
1146.40 87.60366
1146.50 87.78924
1146.60 87.96946
1146.70 88.14968
1146.80 88.18183
1146.90 88.13424
1147.00 88.08666
1147.10 88.0024
1147.20 87.86312
1147.30 87.72385
1147.40 87.6114
1147.50 87.65092
1147.60 87.69043
1147.70 87.72995
1147.80 87.95902
1147.90 88.20685
1148.00 88.45467
1148.10 88.56322
1148.20 88.60002
1148.30 88.63682
1148.40 88.61252
1148.50 88.50028
1148.60 88.38804
1148.70 88.31262
1148.80 88.43051
1148.90 88.54839
1149.00 88.66627
1149.10 88.70621
1149.20 88.73843
1149.30 88.77066
1149.40 88.64081
1149.50 88.42748
1149.60 88.21414
1149.70 88.07586
1149.80 88.04557
1149.90 88.01527
1150.00 88.01854
1150.10 88.198
1150.20 88.37746
1150.30 88.55691
1150.40 88.76569
1150.50 88.97738
1150.60 89.18906
1150.70 89.21983
1150.80 89.1574
1150.90 89.09497
1151.00 89.04934
1151.10 89.02691
1151.20 89.00448
1151.30 88.9628
1151.40 88.82714
1151.50 88.69148
1151.60 88.55581
1151.70 88.4377
1151.80 88.32112
1151.90 88.20453
1152.00 87.93939
1152.10 87.60107
1152.20 87.26276
1152.30 86.97138
1152.40 86.74483
1152.50 86.51827
1152.60 86.34287
1152.70 86.41729
1152.80 86.49171
1152.90 86.56613
1153.00 86.82392
1153.10 87.09553
1153.20 87.36713
1153.30 87.47134
1153.40 87.49677
1153.50 87.5222
1153.60 87.55637
1153.70 87.60213
1153.80 87.64788
1153.90 87.70113
1154.00 87.78852
1154.10 87.87591
1154.20 87.9633
1154.30 88.01494
1154.40 88.0639
1154.50 88.11286
1154.60 88.13655
1154.70 88.14888
1154.80 88.16122
1154.90 88.19661
1155.00 88.26137
1155.10 88.32612
1155.20 88.3782
1155.30 88.37627
1155.40 88.37434
1155.50 88.3724
1155.60 88.3121
1155.70 88.24806
1155.80 88.18403
1155.90 88.24324
1156.00 88.35527
1156.10 88.46731
1156.20 88.56427
1156.30 88.64281
1156.40 88.72134
1156.50 88.77376
1156.60 88.72172
1156.70 88.66968
1156.80 88.61763
1156.90 88.49469
1157.00 88.3688
1157.10 88.2429
1157.20 88.06854
1157.30 87.87438
1157.40 87.68023
1157.50 87.54021
1157.60 87.46376
1157.70 87.38731
1157.80 87.37191
1157.90 87.58618
1158.00 87.80046
1158.10 88.01473
1158.20 88.20498
1158.30 88.39448
1158.40 88.58398
1158.50 88.45134
1158.60 88.19342
1158.70 87.9355
1158.80 87.64713
1158.90 87.3244
1159.00 87.00168
1159.10 86.68547
1159.20 86.39105
1159.30 86.09664
1159.40 85.80222
1159.50 85.77492
1159.60 85.75308
1159.70 85.73123
1159.80 85.76111
1159.90 85.81011
1160.00 85.85912
1160.10 85.97947
1160.20 86.17406
1160.30 86.36865
1160.40 86.53546
1160.50 86.61432
1160.60 86.69317
1160.70 86.77203
1160.80 86.97928
1160.90 87.18654
1161.00 87.3938
1161.10 87.63775
1161.20 87.89394
1161.30 88.15013
1161.40 88.28287
1161.50 88.29215
1161.60 88.30144
1161.70 88.26298
1161.80 88.0886
1161.90 87.91423
1162.00 87.74152
1162.10 87.73262
1162.20 87.72371
1162.30 87.71481
1162.40 87.89117
1162.50 88.12286
1162.60 88.35456
1162.70 88.6019
1162.80 88.86369
1162.90 89.12547
1163.00 89.29985
1163.10 89.23791
1163.20 89.17596
1163.30 89.10532
1163.40 88.75338
1163.50 88.40143
1163.60 88.04949
1163.70 87.76206
1163.80 87.49284
1163.90 87.22361
1164.00 87.19306
1164.10 87.36583
1164.20 87.5386
1164.30 87.75087
1164.40 88.05984
1164.50 88.36881
1164.60 88.65454
1164.70 88.49853
1164.80 88.34252
1164.90 88.18651
1165.00 87.85556
1165.10 87.48087
1165.20 87.10618
1165.30 86.86032
1165.40 86.71568
1165.50 86.57104
1165.60 86.55739
1165.70 86.83532
1165.80 87.11324
1165.90 87.38715
1166.00 87.60768
1166.10 87.82821
1166.20 88.04875
1166.30 88.02008
1166.40 87.9367
1166.50 87.85333
1166.60 87.69697
1166.70 87.48776
1166.80 87.27854
1166.90 87.08624
1167.00 86.92827
1167.10 86.7703
1167.20 86.61969
1167.30 86.54344
1167.40 86.46719
1167.50 86.39094
1167.60 86.24401
1167.70 86.08362
1167.80 85.92323
1167.90 85.69655
1168.00 85.42569
1168.10 85.15482
1168.20 84.73191
1168.30 84.02661
1168.40 83.32131
1168.50 82.57169
1168.60 81.46338
1168.70 80.35508
1168.80 79.24677
1168.90 78.46559
1169.00 77.73767
1169.10 77.00974
1169.20 76.97847
1169.30 77.37419
1169.40 77.7699
1169.50 78.42132
1169.60 79.50812
1169.70 80.59492
1169.80 81.66472
1169.90 82.62075
1170.00 83.57677
1170.10 84.5328
1170.20 85.12171
1170.30 85.66524
1170.40 86.20878
1170.50 86.55479
1170.60 86.7897
1170.70 87.02462
1170.80 87.16659
1170.90 87.16916
1171.00 87.17173
1171.10 87.16736
1171.20 87.12366
1171.30 87.07995
1171.40 87.03625
1171.50 87.04441
1171.60 87.05771
1171.70 87.071
1171.80 87.06761
1171.90 87.05602
1172.00 87.04442
1172.10 87.05358
1172.20 87.09142
1172.30 87.12925
1172.40 87.18486
1172.50 87.32145
1172.60 87.45804
1172.70 87.59463
1172.80 87.67816
1172.90 87.7583
1173.00 87.83844
1173.10 87.80452
1173.20 87.71936
1173.30 87.63421
1173.40 87.50004
1173.50 87.30597
1173.60 87.1119
1173.70 86.95178
1173.80 86.91938
1173.90 86.88698
1174.00 86.85458
1174.10 87.00488
1174.20 87.1628
1174.30 87.32072
1174.40 87.46021
1174.50 87.59254
1174.60 87.72487
1174.70 87.70408
1174.80 87.5174
1174.90 87.33072
1175.00 87.10797
1175.10 86.76448
1175.20 86.42099
1175.30 86.0775
1175.40 85.93424
1175.50 85.79301
1175.60 85.65178
1175.70 85.54027
1175.80 85.43866
1175.90 85.33705
1176.00 85.15724
1176.10 84.89921
1176.20 84.64119
1176.30 84.26275
1176.40 83.54161
1176.50 82.82047
1176.60 82.09035
1176.70 80.9201
1176.80 79.74985
1176.90 78.5796
1177.00 77.50013
1177.10 76.44626
1177.20 75.39239
1177.30 74.90121
1177.40 74.90902
1177.50 74.91683
1177.60 75.18093
1177.70 76.07247
1177.80 76.96402
1177.90 77.86884
1178.00 79.02593
1178.10 80.18301
1178.20 81.3401
1178.30 82.17214
1178.40 82.92794
1178.50 83.68374
1178.60 84.26455
1178.70 84.70787
1178.80 85.15119
1178.90 85.49503
1179.00 85.62748
1179.10 85.75994
1179.20 85.88279
1179.30 85.89517
1179.40 85.90754
1179.50 85.91991
1179.60 85.97975
1179.70 86.04863
1179.80 86.11752
1179.90 86.27368
1180.00 86.48803
1180.10 86.70238
1180.20 86.90071
1180.30 87.0693
1180.40 87.23788
1180.50 87.38127
1180.60 87.32083
1180.70 87.26039
1180.80 87.19995
1180.90 87.06878
1181.00 86.92704
1181.10 86.78529
1181.20 86.67112
1181.30 86.57312
1181.40 86.47513
1181.50 86.43075
1181.60 86.47022
1181.70 86.50969
1181.80 86.56415
1181.90 86.70357
1182.00 86.843
1182.10 86.98242
1182.20 87.04984
1182.30 87.10926
1182.40 87.16867
1182.50 87.19561
1182.60 87.20581
1182.70 87.21602
1182.80 87.22124
1182.90 87.21958
1183.00 87.21792
1183.10 87.17878
1183.20 86.96884
1183.30 86.7589
1183.40 86.54897
1183.50 86.3586
1183.60 86.16948
1183.70 85.98036
1183.80 86.04692
1183.90 86.22305
1184.00 86.39919
1184.10 86.61232
1184.20 86.86889
1184.30 87.12546
1184.40 87.28729
1184.50 87.1132
1184.60 86.93911
1184.70 86.76502
1184.80 86.50506
1184.90 86.24244
1185.00 85.97982
1185.10 85.99022
1185.20 86.10161
1185.30 86.21299
1185.40 86.39812
1185.50 86.66
1185.60 86.92188
1185.70 87.15085
1185.80 87.28111
1185.90 87.41138
1186.00 87.53957
1186.10 87.46275
1186.20 87.38594
1186.30 87.30912
1186.40 87.17371
1186.50 87.02079
1186.60 86.86787
1186.70 86.74962
1186.80 86.66212
1186.90 86.57461
1187.00 86.53617
1187.10 86.61783
1187.20 86.69949
1187.30 86.78223
1187.40 86.88535
1187.50 86.98846
1187.60 87.09158
1187.70 86.92201
1187.80 86.68848
1187.90 86.45494
1188.00 86.09951
1188.10 85.65211
1188.20 85.20471
1188.30 84.87356
1188.40 84.77842
1188.50 84.68329
1188.60 84.62169
1188.70 84.8991
1188.80 85.17651
1188.90 85.45393
1189.00 85.73882
1189.10 86.02504
1189.20 86.31126
1189.30 86.48034
1189.40 86.57453
1189.50 86.66872
1189.60 86.77362
1189.70 86.89676
1189.80 87.01991
1189.90 87.11829
1190.00 87.05094
1190.10 86.98359
1190.20 86.91624
1190.30 86.82725
1190.40 86.73558
1190.50 86.64392
1190.60 86.59725
1190.70 86.57479
1190.80 86.55234
1190.90 86.60441
1191.00 86.76371
1191.10 86.923
1191.20 87.07505
1191.30 87.19174
1191.40 87.30843
1191.50 87.42513
1191.60 87.46319
1191.70 87.49533
1191.80 87.52748
1191.90 87.47411
1192.00 87.38232
1192.10 87.29052
1192.20 87.2519
1192.30 87.27825
1192.40 87.30461
1192.50 87.33636
1192.60 87.38843
1192.70 87.4405
1192.80 87.49257
1192.90 87.54461
1193.00 87.59666
1193.10 87.6487
1193.20 87.47519
1193.30 87.21827
1193.40 86.96134
1193.50 86.68431
1193.60 86.38635
1193.70 86.0884
1193.80 85.81656
1193.90 85.61905
1194.00 85.42154
1194.10 85.22629
1194.20 85.1419
1194.30 85.0575
1194.40 84.97311
1194.50 84.7537
1194.60 84.49621
1194.70 84.23872
1194.80 84.1041
1194.90 84.07415
1195.00 84.0442
1195.10 84.10312
1195.20 84.36942
1195.30 84.63571
1195.40 84.89459
1195.50 85.03749
1195.60 85.18038
1195.70 85.32327
1195.80 85.17636
1195.90 84.96584
1196.00 84.75531
1196.10 84.56457
1196.20 84.38816
1196.30 84.21175
1196.40 84.09612
1196.50 84.0985
1196.60 84.10088
1196.70 84.08386
1196.80 83.90982
1196.90 83.73577
1197.00 83.56173
1197.10 83.19661
1197.20 82.80294
1197.30 82.40927
1197.40 82.1011
1197.50 81.84315
1197.60 81.58521
1197.70 81.4799
1197.80 81.61335
1197.90 81.74681
1198.00 81.9256
1198.10 82.36134
1198.20 82.79708
1198.30 83.23282
1198.40 83.479
1198.50 83.70642
1198.60 83.93385
1198.70 83.85318
1198.80 83.62753
1198.90 83.40188
1199.00 83.08164
1199.10 82.64103
1199.20 82.20042
1199.30 81.842
1199.40 81.81238
1199.50 81.78276
1199.60 81.75314
1199.70 81.85286
1199.80 81.95797
1199.90 82.06308
1200.00 82.15551
1200.10 82.243
1200.20 82.3305
1200.30 82.42316
1200.40 82.5212
1200.50 82.61924
1200.60 82.73953
1200.70 82.92656
1200.80 83.11358
1200.90 83.29938
1201.00 83.36349
1201.10 83.4276
1201.20 83.49171
1201.30 83.40646
1201.40 83.27658
1201.50 83.14671
1201.60 83.04754
1201.70 82.97453
1201.80 82.90151
1201.90 82.86405
1202.00 82.90954
1202.10 82.95502
1202.20 83.00199
1202.30 83.07223
1202.40 83.14246
1202.50 83.2127
1202.60 83.10369
1202.70 82.95534
1202.80 82.80699
1202.90 82.75388
1203.00 82.76694
1203.10 82.78
1203.20 82.91157
1203.30 83.26322
1203.40 83.61488
1203.50 83.97878
1203.60 84.44182
1203.70 84.90486
1203.80 85.3679
1203.90 85.51606
1204.00 85.61717
1204.10 85.71827
1204.20 85.59966
1204.30 85.35745
1204.40 85.11524
1204.50 84.92367
1204.60 84.80805
1204.70 84.69243
1204.80 84.62714
1204.90 84.82603
1205.00 85.02492
1205.10 85.22381
1205.20 85.51112
1205.30 85.8051
1205.40 86.09907
1205.50 86.31432
1205.60 86.4942
1205.70 86.67409
1205.80 86.77803
1205.90 86.78916
1206.00 86.80029
1206.10 86.75944
1206.20 86.53424
1206.30 86.30905
1206.40 86.08386
1206.50 85.83667
1206.60 85.58902
1206.70 85.34138
1206.80 85.36757
1206.90 85.48997
1207.00 85.61237
1207.10 85.85678
1207.20 86.21841
1207.30 86.58004
1207.40 86.91548
1207.50 87.18014
1207.60 87.4448
1207.70 87.70279
1207.80 87.74512
1207.90 87.78744
1208.00 87.82977
1208.10 87.71649
1208.20 87.56432
1208.30 87.41214
1208.40 87.07482
1208.50 86.59204
1208.60 86.10925
1208.70 85.65527
1208.80 85.26247
1208.90 84.86968
1209.00 84.53097
1209.10 84.73907
1209.20 84.94717
1209.30 85.15527
1209.40 85.69039
1209.50 86.28323
1209.60 86.87606
1209.70 87.148
1209.80 87.22326
1209.90 87.29852
1210.00 87.11727
1210.10 86.51752
1210.20 85.91776
1210.30 85.30682
1210.40 84.62713
1210.50 83.94744
1210.60 83.26775
1210.70 83.04293
1210.80 82.8631
1210.90 82.68326
1211.00 82.78463
1211.10 83.02449
1211.20 83.26435
1211.30 83.52025
1211.40 83.79743
1211.50 84.0746
1211.60 84.35231
1211.70 84.63217
1211.80 84.91204
1211.90 85.1919
1212.00 85.57315
1212.10 85.95862
1212.20 86.3441
1212.30 86.49242
1212.40 86.55304
1212.50 86.61366
1212.60 86.42858
1212.70 85.98778
1212.80 85.54698
1212.90 85.13474
1213.00 84.8038
1213.10 84.47287
1213.20 84.15643
1213.30 84.55076
1213.40 84.94509
1213.50 85.33941
1213.60 85.92378
1213.70 86.55867
1213.80 87.19355
1213.90 87.59531
1214.00 87.80633
1214.10 88.01736
1214.20 88.11693
1214.30 87.97968
1214.40 87.84242
1214.50 87.71504
1214.60 87.70111
1214.70 87.68719
1214.80 87.67327
1214.90 87.73299
1215.00 87.80569
1215.10 87.8784
1215.20 87.81563
1215.30 87.66623
1215.40 87.51683
1215.50 87.32295
1215.60 87.05651
1215.70 86.79006
1215.80 86.55278
1215.90 86.49464
1216.00 86.4365
1216.10 86.37836
1216.20 86.49456
1216.30 86.63014
1216.40 86.76572
1216.50 86.95566
1216.60 87.17236
1216.70 87.38906
1216.80 87.54597
1216.90 87.6268
1217.00 87.70762
1217.10 87.75731
1217.20 87.68251
1217.30 87.60771
1217.40 87.53291
1217.50 87.58139
1217.60 87.63369
1217.70 87.68599
1217.80 87.84459
1217.90 88.04251
1218.00 88.24043
1218.10 88.43588
1218.20 88.62885
1218.30 88.82182
1218.40 88.91524
1218.50 88.72533
1218.60 88.53542
1218.70 88.34747
1218.80 88.22282
1218.90 88.09817
1219.00 87.97352
1219.10 87.8968
1219.20 87.83283
1219.30 87.76885
1219.40 87.73616
1219.50 87.72804
1219.60 87.71993
1219.70 87.69443
1219.80 87.63199
1219.90 87.56955
1220.00 87.51699
1220.10 87.56439
1220.20 87.61178
1220.30 87.65918
1220.40 87.68009
1220.50 87.6967
1220.60 87.71331
1220.70 87.57665
1220.80 87.34605
1220.90 87.11545
1221.00 86.88108
1221.10 86.64081
1221.20 86.40055
1221.30 86.18199
1221.40 86.08649
1221.50 85.99098
1221.60 85.89548
1221.70 85.9212
1221.80 85.95746
1221.90 85.99372
1222.00 85.99327
1222.10 85.97633
1222.20 85.95939
1222.30 85.98019
1222.40 86.04711
1222.50 86.11403
1222.60 86.26229
1222.70 86.69895
1222.80 87.13561
1222.90 87.57227
1223.00 88.10249
1223.10 88.63463
1223.20 89.16676
1223.30 89.4519
1223.40 89.65471
1223.50 89.85751
1223.60 89.8629
1223.70 89.68605
1223.80 89.5092
1223.90 89.32767
1224.00 89.13407
1224.10 88.94048
1224.20 88.75626
1224.30 88.75022
1224.40 88.74419
1224.50 88.73815
1224.60 88.86735
1224.70 89.02623
1224.80 89.18512
1224.90 89.31262
1225.00 89.41739
1225.10 89.52216
1225.20 89.51169
1225.30 89.2872
1225.40 89.06272
1225.50 88.83706
1225.60 88.60276
1225.70 88.36846
1225.80 88.13416
1225.90 88.20795
1226.00 88.32375
1226.10 88.43955
1226.20 88.70656
1226.30 89.05501
1226.40 89.40345
1226.50 89.63644
1226.60 89.70999
1226.70 89.78354
1226.80 89.79632
1226.90 89.53225
1227.00 89.26818
1227.10 89.0041
1227.20 88.89718
1227.30 88.79853
1227.40 88.69988
1227.50 88.81678
1227.60 89.0175
1227.70 89.21823
1227.80 89.39741
1227.90 89.55326
1228.00 89.70911
1228.10 89.81541
1228.20 89.77305
1228.30 89.7307
1228.40 89.68455
1228.50 89.452
1228.60 89.21946
1228.70 88.98692
1228.80 88.78818
1228.90 88.59842
1229.00 88.40866
1229.10 88.15709
1229.20 87.85494
1229.30 87.55279
1229.40 87.31592
1229.50 87.21775
1229.60 87.11958
1229.70 87.04831
1229.80 87.24891
1229.90 87.4495
1230.00 87.6501
1230.10 88.05048
1230.20 88.48611
1230.30 88.92174
1230.40 89.1838
1230.50 89.33946
1230.60 89.49513
1230.70 89.51591
1230.80 89.32569
1230.90 89.13547
1231.00 88.95049
1231.10 88.79295
1231.20 88.63542
1231.30 88.47788
1231.40 88.42441
1231.50 88.37998
1231.60 88.33556
1231.70 88.30566
1231.80 88.2823
1231.90 88.25893
1232.00 88.22398
1232.10 88.1754
1232.20 88.12683
1232.30 88.08588
1232.40 88.07042
1232.50 88.05496
1232.60 88.03951
1232.70 87.88442
1232.80 87.72934
1232.90 87.57425
1233.00 87.44595
1233.10 87.32611
1233.20 87.20627
1233.30 87.21899
1233.40 87.34927
1233.50 87.47956
1233.60 87.62989
1233.70 87.82702
1233.80 88.02414
1233.90 88.19718
1234.00 88.05026
1234.10 87.90334
1234.20 87.75642
1234.30 87.60818
1234.40 87.45968
1234.50 87.31118
1234.60 87.33421
1234.70 87.47161
1234.80 87.60901
1234.90 87.78735
1235.00 88.0354
1235.10 88.28345
1235.20 88.48098
1235.30 88.36818
1235.40 88.25537
1235.50 88.14257
1235.60 87.93773
1235.70 87.72379
1235.80 87.50985
1235.90 87.43194
1236.00 87.41804
1236.10 87.40413
1236.20 87.55774
1236.30 87.92456
1236.40 88.29138
1236.50 88.61903
1236.60 88.79934
1236.70 88.97966
1236.80 89.15997
1236.90 88.9339
1237.00 88.69954
1237.10 88.46518
1237.20 88.1319
1237.30 87.76565
1237.40 87.39939
1237.50 87.25655
1237.60 87.31994
1237.70 87.38333
1237.80 87.51554
1237.90 87.81626
1238.00 88.11697
1238.10 88.39565
1238.20 88.32901
1238.30 88.26238
1238.40 88.19574
1238.50 87.67641
1238.60 87.0577
1238.70 86.43899
1238.80 85.84079
1238.90 85.25683
1239.00 84.67288
1239.10 84.27897
1239.20 84.22293
1239.30 84.16689
1239.40 84.15662
1239.50 84.45267
1239.60 84.74873
1239.70 85.04479
1239.80 85.23009
1239.90 85.40309
1240.00 85.57608
1240.10 85.48156
1240.20 85.25529
1240.30 85.02902
1240.40 84.85167
1240.50 84.73659
1240.60 84.62151
1240.70 84.58998
1240.80 84.87278
1240.90 85.15557
1241.00 85.43837
1241.10 85.67277
1241.20 85.90567
1241.30 86.13857
1241.40 85.99555
1241.50 85.72045
1241.60 85.44535
1241.70 85.13175
1241.80 84.78116
1241.90 84.43056
1242.00 84.15658
1242.10 84.07957
1242.20 84.00257
1242.30 83.91915
1242.40 83.7137
1242.50 83.50826
1242.60 83.30282
1242.70 82.67607
1242.80 81.95685
1242.90 81.23762
1243.00 80.54687
1243.10 79.87591
1243.20 79.20494
1243.30 78.82781
1243.40 78.97303
1243.50 79.11826
1243.60 79.34726
1243.70 80.13686
1243.80 80.92646
1243.90 81.71606
1244.00 82.43754
1244.10 83.15144
1244.20 83.86535
1244.30 84.37976
1244.40 84.79592
1244.50 85.21207
1244.60 85.60538
1244.70 85.96961
1244.80 86.33385
1244.90 86.66978
1245.00 86.89922
1245.10 87.12867
1245.20 87.35811
1245.30 87.37462
1245.40 87.38677
1245.50 87.39893
1245.60 87.24787
1245.70 87.0424
1245.80 86.83693
1245.90 86.67149
1246.00 86.543
1246.10 86.41451
1246.20 86.36988
1246.30 86.53056
1246.40 86.69125
1246.50 86.8601
1246.60 87.15701
1246.70 87.45391
1246.80 87.75081
1246.90 87.90005
1247.00 88.01905
1247.10 88.13805
1247.20 88.11198
1247.30 87.98919
1247.40 87.86641
1247.50 87.73014
1247.60 87.57091
1247.70 87.41169
1247.80 87.25523
1247.90 87.11573
1248.00 86.97624
1248.10 86.83674
1248.20 86.82002
1248.30 86.81544
1248.40 86.81086
1248.50 86.87649
1248.60 86.97517
1248.70 87.07385
1248.80 87.14636
1248.90 87.1869
1249.00 87.22743
1249.10 87.2417
1249.20 87.16283
1249.30 87.08396
1249.40 87.00509
1249.50 86.90537
1249.60 86.80543
1249.70 86.7055
1249.80 86.73979
1249.90 86.81646
1250.00 86.89313
1250.10 86.91491
1250.20 86.88801
1250.30 86.86112
1250.40 86.80406
1250.50 86.67661
1250.60 86.54917
1250.70 86.41384
1250.80 86.17364
1250.90 85.93345
1251.00 85.69325
1251.10 85.46215
1251.20 85.23278
1251.30 85.00341
1251.40 84.59028
1251.50 84.05966
1251.60 83.52903
1251.70 82.8269
1251.80 81.84493
1251.90 80.86296
1252.00 79.91008
1252.10 79.12199
1252.20 78.33389
1252.30 77.5458
1252.40 77.78018
1252.50 78.10347
1252.60 78.42675
1252.70 79.35305
1252.80 80.55026
1252.90 81.74747
1253.00 82.84965
1253.10 83.84026
1253.20 84.83088
1253.30 85.68408
1253.40 86.07723
1253.50 86.47038
1253.60 86.86353
1253.70 87.08101
1253.80 87.29849
1253.90 87.51597
1254.00 87.58239
1254.10 87.60622
1254.20 87.63004
1254.30 87.62411
1254.40 87.59384
1254.50 87.56357
1254.60 87.52916
1254.70 87.48596
1254.80 87.44276
1254.90 87.42788
1255.00 87.69924
1255.10 87.9706
1255.20 88.24197
1255.30 88.50748
1255.40 88.77204
1255.50 89.03659
1255.60 89.24604
1255.70 89.42313
1255.80 89.60022
1255.90 89.6241
1256.00 89.41817
1256.10 89.21224
1256.20 89.01051
1256.30 88.82925
1256.40 88.64799
1256.50 88.46673
1256.60 88.46103
1256.70 88.46653
1256.80 88.47203
1256.90 88.53791
1257.00 88.62845
1257.10 88.71899
1257.20 88.76528
1257.30 88.76551
1257.40 88.76574
1257.50 88.80168
1257.60 88.93925
1257.70 89.07683
1257.80 89.21776
1257.90 89.4674
1258.00 89.71704
1258.10 89.96668
1258.20 90.02088
1258.30 90.02623
1258.40 90.03158
1258.50 89.81797
1258.60 89.43917
1258.70 89.06038
1258.80 88.68088
1258.90 88.30001
1259.00 87.91915
1259.10 87.57004
1259.20 87.47786
1259.30 87.38567
1259.40 87.29349
1259.50 87.49068
1259.60 87.72363
1259.70 87.95658
1259.80 88.1664
1259.90 88.36429
1260.00 88.56218
1260.10 88.74311
1260.20 88.90154
1260.30 89.05997
1260.40 89.22854
1260.50 89.43767
1260.60 89.6468
1260.70 89.85593
1260.80 90.17045
1260.90 90.48824
1261.00 90.80602
1261.10 90.84853
1261.20 90.79431
1261.30 90.7401
1261.40 90.54928
1261.50 90.23236
1261.60 89.91545
1261.70 89.61618
1261.80 89.36012
1261.90 89.10406
1262.00 88.86993
1262.10 88.97951
1262.20 89.08909
1262.30 89.19867
1262.40 89.34313
1262.50 89.49473
1262.60 89.64633
1262.70 89.70381
1262.80 89.69855
1262.90 89.69329
1263.00 89.65155
1263.10 89.55032
1263.20 89.44908
1263.30 89.34129
1263.40 89.1964
1263.50 89.0515
1263.60 88.90661
1263.70 88.73076
1263.80 88.55221
1263.90 88.37366
1264.00 88.18496
1264.10 87.99169
1264.20 87.79841
1264.30 87.72118
1264.40 87.77479
1264.50 87.8284
1264.60 87.93455
1264.70 88.20707
1264.80 88.47958
1264.90 88.75125
1265.00 88.93875
1265.10 89.12626
1265.20 89.31376
1265.30 89.36948
1265.40 89.38803
1265.50 89.40659
1265.60 89.3894
1265.70 89.34296
1265.80 89.29652
1265.90 89.27773
1266.00 89.31507
1266.10 89.3524
1266.20 89.38436
1266.30 89.36788
1266.40 89.3514
1266.50 89.33492
1266.60 89.44536
1266.70 89.57478
1266.80 89.70419
1266.90 89.86087
1267.00 90.03288
1267.10 90.2049
1267.20 90.37074
1267.30 90.52804
1267.40 90.68535
1267.50 90.82985
1267.60 90.91978
1267.70 91.0097
1267.80 91.09963
1267.90 91.05825
1268.00 91.01139
1268.10 90.96453
1268.20 90.84449
1268.30 90.69737
1268.40 90.55025
1268.50 90.40243
1268.60 90.25393
1268.70 90.10542
1268.80 89.99848
1268.90 89.9984
1269.00 89.99833
1269.10 89.99731
1269.20 89.97851
1269.30 89.9597
1269.40 89.94089
1269.50 89.82733
1269.60 89.69297
1269.70 89.55861
1269.80 89.4243
1269.90 89.29003
1270.00 89.15576
1270.10 89.03804
1270.20 88.94852
1270.30 88.85901
1270.40 88.81649
1270.50 89.0627
1270.60 89.3089
1270.70 89.5551
1270.80 89.86026
1270.90 90.17055
1271.00 90.48084
1271.10 90.7235
1271.20 90.93577
1271.30 91.14805
1271.40 91.20646
1271.50 91.08424
1271.60 90.96202
1271.70 90.85123
1271.80 90.77661
1271.90 90.70199
1272.00 90.62799
1272.10 90.61565
1272.20 90.60332
1272.30 90.59098
1272.40 90.54324
1272.50 90.4855
1272.60 90.42777
1272.70 90.30883
1272.80 90.13982
1272.90 89.97081
1273.00 89.83757
1273.10 89.77697
1273.20 89.71638
1273.30 89.65194
1273.40 89.55293
1273.50 89.45392
1273.60 89.35491
1273.70 89.1301
1273.80 88.88814
1273.90 88.64618
1274.00 88.54419
1274.10 88.51758
1274.20 88.49096
1274.30 88.64328
1274.40 89.04268
1274.50 89.44208
1274.60 89.81351
1274.70 90.07305
1274.80 90.3326
1274.90 90.59214
1275.00 90.47799
1275.10 90.35229
1275.20 90.22659
1275.30 90.19892
1275.40 90.2057
1275.50 90.21248
1275.60 90.37962
1275.70 90.69479
1275.80 91.00997
1275.90 91.25164
1276.00 91.31334
1276.10 91.37504
1276.20 91.41911
1276.30 91.18713
1276.40 90.95515
1276.50 90.72317
1276.60 90.56761
1276.70 90.4266
1276.80 90.2856
1276.90 90.36039
1277.00 90.57315
1277.10 90.78591
1277.20 90.94601
1277.30 91.02017
1277.40 91.09433
1277.50 91.14027
1277.60 91.03806
1277.70 90.93585
1277.80 90.83364
1277.90 90.47097
1278.00 90.08869
1278.10 89.70641
1278.20 89.53119
1278.30 89.44055
1278.40 89.3499
1278.50 89.34343
1278.60 89.42813
1278.70 89.51284
1278.80 89.66156
1278.90 90.00233
1279.00 90.3431
1279.10 90.67969
1279.20 90.88094
1279.30 91.08218
1279.40 91.28343
1279.50 91.33662
1279.60 91.35279
1279.70 91.36896
1279.80 91.25892
1279.90 91.05366
1280.00 90.8484
1280.10 90.64473
1280.20 90.44399
1280.30 90.24326
1280.40 90.05462
1280.50 89.95466
1280.60 89.8547
1280.70 89.75474
1280.80 89.75506
1280.90 89.76653
1281.00 89.77799
1281.10 89.82217
1281.20 89.88246
1281.30 89.94275
1281.40 90.00507
1281.50 90.06996
1281.60 90.13486
1281.70 90.19198
1281.80 90.22157
1281.90 90.25115
1282.00 90.28073
1282.10 90.4056
1282.20 90.53144
1282.30 90.65728
1282.40 90.73987
1282.50 90.80956
1282.60 90.87924
1282.70 90.86759
1282.80 90.78665
1282.90 90.70571
1283.00 90.63135
1283.10 90.57095
1283.20 90.51056
1283.30 90.45091
1283.40 90.39875
1283.50 90.3466
1283.60 90.29445
1283.70 90.23917
1283.80 90.18339
1283.90 90.12761
1284.00 90.05099
1284.10 89.96265
1284.20 89.87431
1284.30 89.86623
1284.40 89.97363
1284.50 90.08104
1284.60 90.19585
1284.70 90.34223
1284.80 90.4886
1284.90 90.63498
1285.00 90.60836
1285.10 90.57453
1285.20 90.54069
1285.30 90.29056
1285.40 89.96443
1285.50 89.6383
1285.60 89.31099
1285.70 88.98254
1285.80 88.65409
1285.90 88.40055
1286.00 88.33041
1286.10 88.26026
1286.20 88.20857
1286.30 88.44595
1286.40 88.68333
1286.50 88.92071
1286.60 89.30294
1286.70 89.71485
1286.80 90.12675
1286.90 90.42442
1287.00 90.64906
1287.10 90.87369
1287.20 90.94384
1287.30 90.76194
1287.40 90.58005
1287.50 90.35849
1287.60 89.92875
1287.70 89.499
1287.80 89.06926
1287.90 88.84551
1288.00 88.63728
1288.10 88.42904
1288.20 88.42203
1288.30 88.49722
1288.40 88.5724
1288.50 88.75189
1288.60 89.04438
1288.70 89.33687
1288.80 89.60278
1288.90 89.79308
1289.00 89.98337
1289.10 90.17064
1289.20 90.2602
1289.30 90.34977
1289.40 90.43933
1289.50 90.3259
1289.60 90.16486
1289.70 90.00382
1289.80 89.86275
1289.90 89.73614
1290.00 89.60954
1290.10 89.54313
1290.20 89.58374
1290.30 89.62435
1290.40 89.66425
1290.50 89.69937
1290.60 89.73449
1290.70 89.7696
1290.80 89.78662
1290.90 89.80185
1291.00 89.81707
1291.10 89.76205
1291.20 89.67398
1291.30 89.58591
1291.40 89.55948
1291.50 89.60541
1291.60 89.65135
1291.70 89.72302
1291.80 89.88087
1291.90 90.03871
1292.00 90.19607
1292.10 90.3046
1292.20 90.41313
1292.30 90.52166
1292.40 90.40954
1292.50 90.23519
1292.60 90.06084
1292.70 89.81506
1292.80 89.51317
1292.90 89.21127
1293.00 89.03073
1293.10 89.09658
1293.20 89.16242
1293.30 89.23729
1293.40 89.38515
1293.50 89.53301
1293.60 89.68088
1293.70 89.82392
1293.80 89.96632
1293.90 90.10871
1294.00 90.13786
1294.10 90.10867
1294.20 90.07949
1294.30 90.09632
1294.40 90.17174
1294.50 90.24716
1294.60 90.33299
1294.70 90.45803
1294.80 90.58307
1294.90 90.70811
1295.00 90.56447
1295.10 90.41812
1295.20 90.27177
1295.30 89.95898
1295.40 89.59365
1295.50 89.22831
1295.60 88.96044
1295.70 88.7756
1295.80 88.59075
1295.90 88.51002
1296.00 88.66101
1296.10 88.812
1296.20 88.95824
1296.30 89.05641
1296.40 89.15457
1296.50 89.25274
1296.60 89.30465
1296.70 89.34904
1296.80 89.39342
1296.90 89.43071
1297.00 89.464
1297.10 89.4973
1297.20 89.54066
1297.30 89.59793
1297.40 89.6552
1297.50 89.6968
1297.60 89.67157
1297.70 89.64633
1297.80 89.6211
1297.90 89.70735
1298.00 89.79704
1298.10 89.88674
1298.20 90.09681
1298.30 90.34917
1298.40 90.60154
1298.50 90.807
1298.60 90.96917
1298.70 91.13133
1298.80 91.2155
1298.90 91.10868
1299.00 91.00187
1299.10 90.88535
1299.20 90.63989
1299.30 90.39443
1299.40 90.14898
1299.50 89.93196
1299.60 89.71997
1299.70 89.50798
1299.80 89.3678
1299.90 89.27164
