# Version 2.1 - nm, norm@500 to 1, cut digits
# Wavelength(nm)  Flambda(ergs/cm^s/s/nm)
300.00 1.250091e-95
300.10 1.250091e-95
300.20 1.250091e-95
300.30 1.250091e-95
300.40 1.250091e-95
300.50 1.250091e-95
300.60 1.250091e-95
300.70 1.250091e-95
300.80 1.250091e-95
300.90 1.250091e-95
301.00 1.250091e-95
301.10 1.250091e-95
301.20 1.250091e-95
301.30 1.250091e-95
301.40 1.250091e-95
301.50 1.250091e-95
301.60 1.250091e-95
301.70 1.250091e-95
301.80 1.250091e-95
301.90 1.250091e-95
302.00 1.250091e-95
302.10 1.250091e-95
302.20 1.250091e-95
302.30 1.250091e-95
302.40 1.250091e-95
302.50 1.250091e-95
302.60 1.250091e-95
302.70 1.250091e-95
302.80 1.250091e-95
302.90 1.250091e-95
303.00 1.250091e-95
303.10 1.250091e-95
303.20 1.250091e-95
303.30 1.250091e-95
303.40 1.250091e-95
303.50 1.250091e-95
303.60 1.250091e-95
303.70 1.250091e-95
303.80 1.250091e-95
303.90 1.250091e-95
304.00 1.250091e-95
304.10 1.250091e-95
304.20 1.250091e-95
304.30 1.250091e-95
304.40 1.250091e-95
304.50 1.250091e-95
304.60 1.250091e-95
304.70 1.250091e-95
304.80 1.250091e-95
304.90 1.250091e-95
305.00 1.250091e-95
305.10 1.250091e-95
305.20 1.250091e-95
305.30 1.250091e-95
305.40 1.250091e-95
305.50 1.250091e-95
305.60 1.250091e-95
305.70 1.250091e-95
305.80 1.250091e-95
305.90 1.250091e-95
306.00 1.250091e-95
306.10 1.250091e-95
306.20 1.250091e-95
306.30 1.250091e-95
306.40 1.250091e-95
306.50 1.250091e-95
306.60 1.250091e-95
306.70 1.250091e-95
306.80 1.250091e-95
306.90 1.250091e-95
307.00 1.250091e-95
307.10 1.250091e-95
307.20 1.250091e-95
307.30 1.250091e-95
307.40 1.250091e-95
307.50 1.250091e-95
307.60 1.250091e-95
307.70 1.250091e-95
307.80 1.250091e-95
307.90 1.250091e-95
308.00 1.250091e-95
308.10 1.250091e-95
308.20 1.250091e-95
308.30 1.250091e-95
308.40 1.250091e-95
308.50 1.250091e-95
308.60 1.250091e-95
308.70 1.250091e-95
308.80 1.250091e-95
308.90 1.250091e-95
309.00 1.250091e-95
309.10 1.250091e-95
309.20 1.250091e-95
309.30 1.250091e-95
309.40 1.250091e-95
309.50 1.250091e-95
309.60 1.250091e-95
309.70 1.250091e-95
309.80 1.250091e-95
309.90 1.250091e-95
310.00 1.250091e-95
310.10 1.250091e-95
310.20 1.250091e-95
310.30 1.250091e-95
310.40 1.250091e-95
310.50 1.250091e-95
310.60 1.250091e-95
310.70 1.250091e-95
310.80 1.250091e-95
310.90 1.250091e-95
311.00 1.250091e-95
311.10 1.250091e-95
311.20 1.250091e-95
311.30 1.250091e-95
311.40 1.250091e-95
311.50 1.250091e-95
311.60 1.250091e-95
311.70 1.250091e-95
311.80 1.250091e-95
311.90 1.250091e-95
312.00 1.250091e-95
312.10 1.250091e-95
312.20 1.250091e-95
312.30 1.250091e-95
312.40 1.250091e-95
312.50 1.250091e-95
312.60 1.250091e-95
312.70 1.250091e-95
312.80 1.250091e-95
312.90 1.250091e-95
313.00 1.250091e-95
313.10 1.250091e-95
313.20 1.250091e-95
313.30 1.250091e-95
313.40 1.250091e-95
313.50 1.250091e-95
313.60 1.250091e-95
313.70 1.250091e-95
313.80 1.250091e-95
313.90 1.250091e-95
314.00 1.250091e-95
314.10 1.250091e-95
314.20 1.250091e-95
314.30 1.250091e-95
314.40 1.250091e-95
314.50 1.250091e-95
314.60 1.250091e-95
314.70 1.250091e-95
314.80 1.250091e-95
314.90 1.250091e-95
315.00 1.250091e-95
315.10 1.250091e-95
315.20 1.250091e-95
315.30 1.250091e-95
315.40 1.250091e-95
315.50 1.250091e-95
315.60 1.250091e-95
315.70 1.250091e-95
315.80 1.250091e-95
315.90 1.250091e-95
316.00 1.250091e-95
316.10 1.250091e-95
316.20 1.250091e-95
316.30 1.250091e-95
316.40 1.250091e-95
316.50 1.250091e-95
316.60 1.250091e-95
316.70 1.250091e-95
316.80 1.250091e-95
316.90 1.250091e-95
317.00 1.250091e-95
317.10 1.250091e-95
317.20 1.250091e-95
317.30 1.250091e-95
317.40 1.250091e-95
317.50 1.250091e-95
317.60 1.250091e-95
317.70 1.250091e-95
317.80 1.250091e-95
317.90 1.250091e-95
318.00 1.250091e-95
318.10 1.250091e-95
318.20 1.250091e-95
318.30 1.250091e-95
318.40 1.250091e-95
318.50 1.250091e-95
318.60 1.250091e-95
318.70 1.250091e-95
318.80 1.250091e-95
318.90 1.250091e-95
319.00 1.250091e-95
319.10 1.250091e-95
319.20 1.250091e-95
319.30 1.250091e-95
319.40 1.250091e-95
319.50 1.250091e-95
319.60 1.250091e-95
319.70 1.250091e-95
319.80 1.250091e-95
319.90 1.250091e-95
320.00 1.250091e-95
320.10 1.250091e-95
320.20 1.250091e-95
320.30 1.250091e-95
320.40 1.250091e-95
320.50 1.250091e-95
320.60 1.250091e-95
320.70 1.250091e-95
320.80 1.250091e-95
320.90 1.250091e-95
321.00 1.250091e-95
321.10 1.250091e-95
321.20 1.250091e-95
321.30 1.250091e-95
321.40 1.250091e-95
321.50 1.250091e-95
321.60 1.250091e-95
321.70 1.250091e-95
321.80 1.250091e-95
321.90 1.250091e-95
322.00 1.250091e-95
322.10 1.250091e-95
322.20 1.250091e-95
322.30 1.250091e-95
322.40 1.250091e-95
322.50 1.250091e-95
322.60 1.250091e-95
322.70 1.250091e-95
322.80 1.250091e-95
322.90 1.250091e-95
323.00 1.250091e-95
323.10 1.250091e-95
323.20 1.250091e-95
323.30 1.250091e-95
323.40 1.250091e-95
323.50 1.250091e-95
323.60 1.250091e-95
323.70 1.250091e-95
323.80 1.250091e-95
323.90 1.250091e-95
324.00 1.250091e-95
324.10 1.250091e-95
324.20 1.250091e-95
324.30 1.250091e-95
324.40 1.250091e-95
324.50 1.250091e-95
324.60 1.250091e-95
324.70 1.250091e-95
324.80 1.250091e-95
324.90 1.250091e-95
325.00 1.250091e-95
325.10 1.250091e-95
325.20 1.250091e-95
325.30 1.250091e-95
325.40 1.250091e-95
325.50 1.250091e-95
325.60 1.250091e-95
325.70 1.250091e-95
325.80 1.250091e-95
325.90 1.250091e-95
326.00 1.250091e-95
326.10 1.250091e-95
326.20 1.250091e-95
326.30 1.250091e-95
326.40 1.250091e-95
326.50 1.250091e-95
326.60 1.250091e-95
326.70 1.250091e-95
326.80 1.250091e-95
326.90 1.250091e-95
327.00 1.250091e-95
327.10 1.250091e-95
327.20 1.250091e-95
327.30 1.250091e-95
327.40 1.250091e-95
327.50 1.250091e-95
327.60 1.250091e-95
327.70 1.250091e-95
327.80 1.250091e-95
327.90 1.250091e-95
328.00 1.250091e-95
328.10 1.250091e-95
328.20 1.250091e-95
328.30 1.250091e-95
328.40 1.250091e-95
328.50 1.250091e-95
328.60 1.250091e-95
328.70 1.250091e-95
328.80 1.250091e-95
328.90 1.250091e-95
329.00 1.250091e-95
329.10 1.250091e-95
329.20 1.250091e-95
329.30 1.250091e-95
329.40 1.250091e-95
329.50 1.250091e-95
329.60 1.250091e-95
329.70 1.250091e-95
329.80 1.250091e-95
329.90 1.250091e-95
330.00 1.250091e-95
330.10 1.250091e-95
330.20 1.250091e-95
330.30 1.250091e-95
330.40 1.250091e-95
330.50 1.250091e-95
330.60 1.250091e-95
330.70 1.250091e-95
330.80 1.250091e-95
330.90 1.250091e-95
331.00 1.250091e-95
331.10 1.250091e-95
331.20 1.250091e-95
331.30 1.250091e-95
331.40 1.250091e-95
331.50 1.250091e-95
331.60 1.250091e-95
331.70 1.250091e-95
331.80 1.250091e-95
331.90 1.250091e-95
332.00 1.250091e-95
332.10 1.250091e-95
332.20 1.250091e-95
332.30 1.250091e-95
332.40 1.250091e-95
332.50 1.250091e-95
332.60 1.250091e-95
332.70 1.250091e-95
332.80 1.250091e-95
332.90 1.250091e-95
333.00 1.250091e-95
333.10 1.250091e-95
333.20 1.250091e-95
333.30 1.250091e-95
333.40 1.250091e-95
333.50 1.250091e-95
333.60 1.250091e-95
333.70 1.250091e-95
333.80 1.250091e-95
333.90 1.250091e-95
334.00 1.250091e-95
334.10 1.250091e-95
334.20 1.250091e-95
334.30 1.250091e-95
334.40 1.250091e-95
334.50 1.250091e-95
334.60 1.250091e-95
334.70 1.250091e-95
334.80 1.250091e-95
334.90 1.250091e-95
335.00 1.250091e-95
335.10 1.250091e-95
335.20 1.250091e-95
335.30 1.250091e-95
335.40 1.250091e-95
335.50 1.250091e-95
335.60 1.250091e-95
335.70 1.250091e-95
335.80 1.250091e-95
335.90 1.250091e-95
336.00 1.250091e-95
336.10 1.250091e-95
336.20 1.250091e-95
336.30 1.250091e-95
336.40 1.250091e-95
336.50 1.250091e-95
336.60 1.250091e-95
336.70 1.250091e-95
336.80 1.250091e-95
336.90 1.250091e-95
337.00 1.250091e-95
337.10 1.250091e-95
337.20 1.250091e-95
337.30 1.250091e-95
337.40 1.250091e-95
337.50 1.250091e-95
337.60 1.250091e-95
337.70 1.250091e-95
337.80 1.250091e-95
337.90 1.250091e-95
338.00 1.250091e-95
338.10 1.250091e-95
338.20 1.250091e-95
338.30 1.250091e-95
338.40 1.250091e-95
338.50 1.250091e-95
338.60 1.250091e-95
338.70 1.250091e-95
338.80 1.250091e-95
338.90 1.250091e-95
339.00 1.250091e-95
339.10 1.250091e-95
339.20 1.250091e-95
339.30 1.250091e-95
339.40 1.250091e-95
339.50 1.250091e-95
339.60 1.250091e-95
339.70 1.250091e-95
339.80 1.250091e-95
339.90 1.250091e-95
340.00 1.250091e-95
340.10 1.250091e-95
340.20 1.250091e-95
340.30 1.250091e-95
340.40 1.250091e-95
340.50 1.250091e-95
340.60 1.250091e-95
340.70 1.250091e-95
340.80 1.250091e-95
340.90 1.250091e-95
341.00 1.250091e-95
341.10 1.250091e-95
341.20 1.250091e-95
341.30 1.250091e-95
341.40 1.250091e-95
341.50 1.250091e-95
341.60 1.250091e-95
341.70 1.250091e-95
341.80 1.250091e-95
341.90 1.250091e-95
342.00 1.250091e-95
342.10 1.250091e-95
342.20 1.250091e-95
342.30 1.250091e-95
342.40 1.250091e-95
342.50 1.250091e-95
342.60 1.250091e-95
342.70 1.250091e-95
342.80 1.250091e-95
342.90 1.250091e-95
343.00 1.250091e-95
343.10 1.250091e-95
343.20 1.250091e-95
343.30 1.250091e-95
343.40 1.250091e-95
343.50 1.250091e-95
343.60 1.250091e-95
343.70 1.250091e-95
343.80 1.250091e-95
343.90 1.250091e-95
344.00 1.250091e-95
344.10 1.250091e-95
344.20 1.250091e-95
344.30 1.250091e-95
344.40 1.250091e-95
344.50 1.250091e-95
344.60 1.250091e-95
344.70 1.250091e-95
344.80 1.250091e-95
344.90 1.250091e-95
345.00 1.250091e-95
345.10 1.250091e-95
345.20 1.250091e-95
345.30 1.250091e-95
345.40 1.250091e-95
345.50 1.250091e-95
345.60 1.250091e-95
345.70 1.250091e-95
345.80 1.250091e-95
345.90 1.250091e-95
346.00 1.250091e-95
346.10 1.250091e-95
346.20 1.250091e-95
346.30 1.250091e-95
346.40 1.250091e-95
346.50 1.250091e-95
346.60 1.250091e-95
346.70 1.250091e-95
346.80 1.250091e-95
346.90 1.250091e-95
347.00 1.250091e-95
347.10 1.250091e-95
347.20 1.250091e-95
347.30 1.250091e-95
347.40 1.250091e-95
347.50 1.250091e-95
347.60 1.250091e-95
347.70 1.250091e-95
347.80 1.250091e-95
347.90 1.250091e-95
348.00 1.250091e-95
348.10 1.250091e-95
348.20 1.250091e-95
348.30 1.250091e-95
348.40 1.250091e-95
348.50 1.250091e-95
348.60 1.250091e-95
348.70 1.250091e-95
348.80 1.250091e-95
348.90 1.250091e-95
349.00 1.250091e-95
349.10 1.250091e-95
349.20 1.250091e-95
349.30 1.250091e-95
349.40 1.250091e-95
349.50 1.250091e-95
349.60 1.250091e-95
349.70 1.250091e-95
349.80 1.250091e-95
349.90 1.250091e-95
350.00 1.250091e-95
350.10 1.250091e-95
350.20 1.250091e-95
350.30 1.250091e-95
350.40 1.250091e-95
350.50 1.250091e-95
350.60 1.250091e-95
350.70 1.250091e-95
350.80 1.250091e-95
350.90 1.250091e-95
351.00 1.250091e-95
351.10 1.250091e-95
351.20 1.250091e-95
351.30 1.250091e-95
351.40 1.250091e-95
351.50 1.250091e-95
351.60 1.250091e-95
351.70 1.250091e-95
351.80 1.250091e-95
351.90 1.250091e-95
352.00 1.250091e-95
352.10 1.250091e-95
352.20 1.250091e-95
352.30 1.250091e-95
352.40 1.250091e-95
352.50 1.250091e-95
352.60 1.250091e-95
352.70 1.250091e-95
352.80 1.250091e-95
352.90 1.250091e-95
353.00 1.250091e-95
353.10 1.250091e-95
353.20 1.250091e-95
353.30 1.250091e-95
353.40 1.250091e-95
353.50 1.250091e-95
353.60 1.250091e-95
353.70 1.250091e-95
353.80 1.250091e-95
353.90 1.250091e-95
354.00 1.250091e-95
354.10 1.250091e-95
354.20 1.250091e-95
354.30 1.250091e-95
354.40 1.250091e-95
354.50 1.250091e-95
354.60 1.250091e-95
354.70 1.250091e-95
354.80 1.250091e-95
354.90 1.250091e-95
355.00 1.250091e-95
355.10 1.250091e-95
355.20 1.250091e-95
355.30 1.250091e-95
355.40 1.250091e-95
355.50 1.250091e-95
355.60 1.250091e-95
355.70 1.250091e-95
355.80 1.250091e-95
355.90 1.250091e-95
356.00 1.250091e-95
356.10 1.250091e-95
356.20 1.250091e-95
356.30 1.250091e-95
356.40 1.250091e-95
356.50 1.250091e-95
356.60 1.250091e-95
356.70 1.250091e-95
356.80 1.250091e-95
356.90 1.250091e-95
357.00 1.250091e-95
357.10 1.250091e-95
357.20 1.250091e-95
357.30 1.250091e-95
357.40 1.250091e-95
357.50 1.250091e-95
357.60 1.250091e-95
357.70 1.250091e-95
357.80 1.250091e-95
357.90 1.250091e-95
358.00 1.250091e-95
358.10 1.250091e-95
358.20 1.250091e-95
358.30 1.250091e-95
358.40 1.250091e-95
358.50 1.250091e-95
358.60 1.250091e-95
358.70 1.250091e-95
358.80 1.250091e-95
358.90 1.250091e-95
359.00 1.250091e-95
359.10 1.250091e-95
359.20 1.250091e-95
359.30 1.250091e-95
359.40 1.250091e-95
359.50 1.250091e-95
359.60 1.250091e-95
359.70 1.250091e-95
359.80 1.250091e-95
359.90 1.250091e-95
360.00 1.250091e-95
360.10 1.250091e-95
360.20 1.250091e-95
360.30 1.250091e-95
360.40 1.250091e-95
360.50 1.250091e-95
360.60 1.250091e-95
360.70 1.250091e-95
360.80 1.250091e-95
360.90 1.250091e-95
361.00 1.250091e-95
361.10 1.250091e-95
361.20 1.250091e-95
361.30 1.250091e-95
361.40 1.250091e-95
361.50 1.250091e-95
361.60 1.250091e-95
361.70 1.250091e-95
361.80 1.250091e-95
361.90 1.250091e-95
362.00 1.250091e-95
362.10 1.250091e-95
362.20 1.250091e-95
362.30 1.250091e-95
362.40 1.250091e-95
362.50 1.250091e-95
362.60 1.250091e-95
362.70 1.250091e-95
362.80 1.250091e-95
362.90 1.250091e-95
363.00 1.250091e-95
363.10 1.250091e-95
363.20 1.250091e-95
363.30 1.250091e-95
363.40 1.250091e-95
363.50 1.250091e-95
363.60 1.250091e-95
363.70 1.250091e-95
363.80 1.250091e-95
363.90 1.250091e-95
364.00 1.250091e-95
364.10 1.250091e-95
364.20 1.250091e-95
364.30 1.250091e-95
364.40 1.250091e-95
364.50 1.250091e-95
364.60 1.250091e-95
364.70 1.250091e-95
364.80 1.250091e-95
364.90 1.250091e-95
365.00 1.250091e-95
365.10 1.250091e-95
365.20 1.250091e-95
365.30 1.250091e-95
365.40 1.250091e-95
365.50 1.250091e-95
365.60 1.250091e-95
365.70 1.250091e-95
365.80 1.250091e-95
365.90 1.250091e-95
366.00 1.250091e-95
366.10 1.250091e-95
366.20 1.250091e-95
366.30 1.250091e-95
366.40 1.250091e-95
366.50 1.250091e-95
366.60 1.250091e-95
366.70 1.250091e-95
366.80 1.250091e-95
366.90 1.250091e-95
367.00 1.250091e-95
367.10 1.250091e-95
367.20 1.250091e-95
367.30 1.250091e-95
367.40 1.250091e-95
367.50 1.250091e-95
367.60 1.250091e-95
367.70 1.250091e-95
367.80 1.250091e-95
367.90 1.250091e-95
368.00 1.250091e-95
368.10 1.250091e-95
368.20 1.250091e-95
368.30 1.250091e-95
368.40 1.250091e-95
368.50 1.250091e-95
368.60 1.250091e-95
368.70 1.250091e-95
368.80 1.250091e-95
368.90 1.250091e-95
369.00 1.250091e-95
369.10 1.250091e-95
369.20 1.250091e-95
369.30 1.250091e-95
369.40 1.250091e-95
369.50 1.250091e-95
369.60 1.250091e-95
369.70 1.250091e-95
369.80 1.250091e-95
369.90 1.250091e-95
370.00 1.250091e-95
370.10 1.250091e-95
370.20 1.250091e-95
370.30 1.250091e-95
370.40 1.250091e-95
370.50 1.250091e-95
370.60 1.250091e-95
370.70 1.250091e-95
370.80 1.250091e-95
370.90 1.250091e-95
371.00 1.250091e-95
371.10 1.250091e-95
371.20 1.250091e-95
371.30 1.250091e-95
371.40 1.250091e-95
371.50 1.250091e-95
371.60 1.250091e-95
371.70 1.250091e-95
371.80 1.250091e-95
371.90 1.250091e-95
372.00 1.250091e-95
372.10 1.250091e-95
372.20 1.250091e-95
372.30 1.250091e-95
372.40 1.250091e-95
372.50 1.250091e-95
372.60 1.250091e-95
372.70 1.250091e-95
372.80 1.250091e-95
372.90 1.250091e-95
373.00 1.250091e-95
373.10 1.250091e-95
373.20 1.250091e-95
373.30 1.250091e-95
373.40 1.250091e-95
373.50 1.250091e-95
373.60 1.250091e-95
373.70 1.250091e-95
373.80 1.250091e-95
373.90 1.250091e-95
374.00 1.250091e-95
374.10 1.250091e-95
374.20 1.250091e-95
374.30 1.250091e-95
374.40 1.250091e-95
374.50 1.250091e-95
374.60 1.250091e-95
374.70 1.250091e-95
374.80 1.250091e-95
374.90 1.250091e-95
375.00 1.250091e-95
375.10 1.250091e-95
375.20 1.250091e-95
375.30 1.250091e-95
375.40 1.250091e-95
375.50 1.250091e-95
375.60 1.250091e-95
375.70 1.250091e-95
375.80 1.250091e-95
375.90 1.250091e-95
376.00 1.250091e-95
376.10 1.250091e-95
376.20 1.250091e-95
376.30 1.250091e-95
376.40 1.250091e-95
376.50 1.250091e-95
376.60 1.250091e-95
376.70 1.250091e-95
376.80 1.250091e-95
376.90 1.250091e-95
377.00 1.250091e-95
377.10 1.250091e-95
377.20 1.250091e-95
377.30 1.250091e-95
377.40 1.250091e-95
377.50 1.250091e-95
377.60 1.250091e-95
377.70 1.250091e-95
377.80 1.250091e-95
377.90 1.250091e-95
378.00 1.250091e-95
378.10 1.250091e-95
378.20 1.250091e-95
378.30 1.250091e-95
378.40 1.250091e-95
378.50 1.250091e-95
378.60 1.250091e-95
378.70 1.250091e-95
378.80 1.250091e-95
378.90 1.250091e-95
379.00 1.250091e-95
379.10 1.250091e-95
379.20 1.250091e-95
379.30 1.250091e-95
379.40 1.250091e-95
379.50 1.250091e-95
379.60 1.250091e-95
379.70 1.250091e-95
379.80 1.250091e-95
379.90 1.250091e-95
380.00 1.250091e-95
380.10 1.250091e-95
380.20 1.250091e-95
380.30 1.250091e-95
380.40 1.250091e-95
380.50 1.250091e-95
380.60 1.250091e-95
380.70 1.250091e-95
380.80 1.250091e-95
380.90 1.250091e-95
381.00 1.250091e-95
381.10 1.250091e-95
381.20 1.250091e-95
381.30 1.250091e-95
381.40 1.250091e-95
381.50 1.250091e-95
381.60 1.250091e-95
381.70 1.250091e-95
381.80 1.250091e-95
381.90 1.250091e-95
382.00 1.250091e-95
382.10 1.250091e-95
382.20 1.250091e-95
382.30 1.250091e-95
382.40 1.250091e-95
382.50 1.250091e-95
382.60 1.250091e-95
382.70 1.250091e-95
382.80 1.250091e-95
382.90 1.250091e-95
383.00 1.250091e-95
383.10 1.250091e-95
383.20 1.250091e-95
383.30 1.250091e-95
383.40 1.250091e-95
383.50 1.250091e-95
383.60 1.250091e-95
383.70 1.250091e-95
383.80 1.250091e-95
383.90 1.250091e-95
384.00 1.250091e-95
384.10 1.250091e-95
384.20 1.250091e-95
384.30 1.250091e-95
384.40 1.250091e-95
384.50 1.250091e-95
384.60 1.250091e-95
384.70 1.250091e-95
384.80 1.250091e-95
384.90 1.250091e-95
385.00 1.250091e-95
385.10 1.250091e-95
385.20 1.250091e-95
385.30 1.250091e-95
385.40 1.250091e-95
385.50 1.250091e-95
385.60 1.250091e-95
385.70 1.250091e-95
385.80 1.250091e-95
385.90 1.250091e-95
386.00 1.250091e-95
386.10 1.250091e-95
386.20 1.250091e-95
386.30 1.250091e-95
386.40 1.250091e-95
386.50 1.250091e-95
386.60 1.250091e-95
386.70 1.250091e-95
386.80 1.250091e-95
386.90 1.250091e-95
387.00 1.250091e-95
387.10 1.250091e-95
387.20 1.250091e-95
387.30 1.250091e-95
387.40 1.250091e-95
387.50 1.250091e-95
387.60 1.250091e-95
387.70 1.250091e-95
387.80 1.250091e-95
387.90 1.250091e-95
388.00 1.250091e-95
388.10 1.250091e-95
388.20 1.250091e-95
388.30 1.250091e-95
388.40 1.250091e-95
388.50 1.250091e-95
388.60 1.250091e-95
388.70 1.250091e-95
388.80 1.250091e-95
388.90 1.250091e-95
389.00 1.250091e-95
389.10 1.250091e-95
389.20 1.250091e-95
389.30 1.250091e-95
389.40 1.250091e-95
389.50 1.250091e-95
389.60 1.250091e-95
389.70 1.250091e-95
389.80 1.250091e-95
389.90 1.250091e-95
390.00 1.250091e-95
390.10 1.250091e-95
390.20 1.250091e-95
390.30 1.250091e-95
390.40 1.250091e-95
390.50 1.250091e-95
390.60 1.250091e-95
390.70 1.250091e-95
390.80 1.250091e-95
390.90 1.250091e-95
391.00 1.250091e-95
391.10 1.250091e-95
391.20 1.250091e-95
391.30 1.250091e-95
391.40 1.250091e-95
391.50 1.250091e-95
391.60 1.250091e-95
391.70 1.250091e-95
391.80 1.250091e-95
391.90 1.250091e-95
392.00 1.250091e-95
392.10 1.250091e-95
392.20 1.250091e-95
392.30 1.250091e-95
392.40 1.250091e-95
392.50 1.250091e-95
392.60 1.250091e-95
392.70 1.250091e-95
392.80 1.250091e-95
392.90 1.250091e-95
393.00 1.250091e-95
393.10 1.250091e-95
393.20 1.250091e-95
393.30 1.250091e-95
393.40 1.250091e-95
393.50 1.250091e-95
393.60 1.250091e-95
393.70 1.250091e-95
393.80 1.250091e-95
393.90 1.250091e-95
394.00 1.250091e-95
394.10 1.250091e-95
394.20 1.250091e-95
394.30 1.250091e-95
394.40 1.250091e-95
394.50 1.250091e-95
394.60 1.250091e-95
394.70 1.250091e-95
394.80 1.250091e-95
394.90 1.250091e-95
395.00 0.01617349
395.10 0.03238284
395.20 0.04811383
395.30 0.06276435
395.40 0.07542478
395.50 0.08510258
395.60 0.09143266
395.70 0.0946074
395.80 0.09525529
395.90 0.09525529
396.00 0.09525529
396.10 0.09771093
396.20 0.1043737
396.30 0.1158098
396.40 0.1313894
396.50 0.1493319
396.60 0.1673462
396.70 0.1832554
396.80 0.1954907
396.90 0.2033454
397.00 0.2068451
397.10 0.2068451
397.20 0.2068451
397.30 0.2068451
397.40 0.2068451
397.50 0.2068451
397.60 0.2085014
397.70 0.2118972
397.80 0.2161677
397.90 0.2205615
398.00 0.2246295
398.10 0.2284054
398.20 0.2323033
398.30 0.236844
398.40 0.2424207
398.50 0.2492082
398.60 0.2567364
398.70 0.2641342
398.80 0.2707614
398.90 0.2761869
399.00 0.2800165
399.10 0.2822079
399.20 0.2832008
399.30 0.2835933
399.40 0.2837452
399.50 0.2837452
399.60 0.2837452
399.70 0.2837452
399.80 0.2837878
399.90 0.2838414
400.00 0.2838414
400.10 0.2838414
400.20 0.2838414
400.30 0.2838414
400.40 0.2838414
400.50 0.2838414
400.60 0.2838414
400.70 0.2838414
400.80 0.2852632
400.90 0.2898462
401.00 0.2976044
401.10 0.3078514
401.20 0.3195452
401.30 0.3319053
401.40 0.3444989
401.50 0.3570146
401.60 0.3689508
401.70 0.379409
401.80 0.3874881
401.90 0.3928394
402.00 0.3959167
402.10 0.3976497
402.20 0.3992022
402.30 0.4016396
402.40 0.4055846
402.50 0.4111336
402.60 0.4180393
402.70 0.4258264
402.80 0.4339356
402.90 0.4420268
403.00 0.4498827
403.10 0.4571178
403.20 0.4632216
403.30 0.467777
403.40 0.4704943
403.50 0.4712839
403.60 0.4712839
403.70 0.4712839
403.80 0.4712839
403.90 0.4712839
404.00 0.4712839
404.10 0.4735293
404.20 0.4782571
404.30 0.4846145
404.40 0.4917298
404.50 0.4992724
404.60 0.5073995
404.70 0.5162944
404.80 0.5259189
404.90 0.5360304
405.00 0.5303153
405.10 0.5252492
405.20 0.5221082
405.30 0.5221997
405.40 0.5267546
405.50 0.5370956
405.60 0.5540355
405.70 0.577113
405.80 0.6045017
405.90 0.6327175
406.00 0.6595738
406.10 0.6813399
406.20 0.6954838
406.30 0.7015116
406.40 0.7008488
406.50 0.6962952
406.60 0.6907151
406.70 0.6865186
406.80 0.685726
406.90 0.6894071
407.00 0.6974171
407.10 0.7086211
407.20 0.7193391
407.30 0.7293677
407.40 0.7381412
407.50 0.7449475
407.60 0.7479266
407.70 0.747441
407.80 0.7451445
407.90 0.742596
408.00 0.7413854
408.10 0.7428867
408.20 0.7475616
408.30 0.7547495
408.40 0.7634052
408.50 0.7724162
408.60 0.7806948
408.70 0.7873831
408.80 0.7919883
408.90 0.7947343
409.00 0.7964067
409.10 0.7977171
409.20 0.7993095
409.30 0.8020069
409.40 0.8067341
409.50 0.8141779
409.60 0.8244273
409.70 0.8373132
409.80 0.8520012
409.90 0.8674794
410.00 0.8831764
410.10 0.8986177
410.20 0.9134049
410.30 0.9273055
410.40 0.9405092
410.50 0.9536744
410.60 0.9674062
410.70 0.981943
410.80 0.9959568
410.90 1.007874
411.00 1.017867
411.10 1.026436
411.20 1.033974
411.30 1.040795
411.40 1.047044
411.50 1.052604
411.60 1.057616
411.70 1.062615
411.80 1.068079
411.90 1.074013
412.00 1.080037
412.10 1.08568
412.20 1.090384
412.30 1.093778
412.40 1.095973
412.50 1.097551
412.60 1.098921
412.70 1.099788
412.80 1.09948
412.90 1.09735
413.00 1.093199
413.10 1.08771
413.20 1.082514
413.30 1.079537
413.40 1.080282
413.50 1.0857
413.60 1.094914
413.70 1.106504
413.80 1.119053
413.90 1.130878
414.00 1.140773
414.10 1.145941
414.20 1.146284
414.30 1.143393
414.40 1.139173
414.50 1.135296
414.60 1.132639
414.70 1.131621
414.80 1.132648
414.90 1.135838
415.00 1.14076
415.10 1.1462
415.20 1.150477
415.30 1.152101
415.40 1.150223
415.50 1.144142
415.60 1.13309
415.70 1.117352
415.80 1.098406
415.90 1.078064
416.00 1.058176
416.10 1.040348
416.20 1.02565
416.30 1.014359
416.40 1.006066
416.50 1.000117
416.60 0.9960388
416.70 0.9934229
416.80 0.9912883
416.90 0.9886227
417.00 0.9852409
417.10 0.9812414
417.20 0.9766966
417.30 0.9718669
417.40 0.9675072
417.50 0.9647921
417.60 0.9645555
417.70 0.9667911
417.80 0.9707153
417.90 0.9751677
418.00 0.9786662
418.10 0.9794798
418.20 0.9764561
418.30 0.9694254
418.40 0.958524
418.50 0.9443777
418.60 0.9285709
418.70 0.9144849
418.80 0.9032524
418.90 0.895081
419.00 0.889579
419.10 0.8860772
419.20 0.8834918
419.30 0.8804053
419.40 0.8767438
419.50 0.8714058
419.60 0.8637569
419.70 0.8536534
419.80 0.8419873
419.90 0.8302465
420.00 0.8197559
420.10 0.8118143
420.20 0.8074237
420.30 0.8066676
420.40 0.8085871
420.50 0.8114386
420.60 0.8133275
420.70 0.8130321
420.80 0.8101049
420.90 0.8042386
421.00 0.7951219
421.10 0.7830128
421.20 0.7687353
421.30 0.7529643
421.40 0.7363786
421.50 0.7198851
421.60 0.7042537
421.70 0.6902971
421.80 0.6788976
421.90 0.6706148
422.00 0.6652939
422.10 0.6620673
422.20 0.659796
422.30 0.6576889
422.40 0.6555473
422.50 0.6534178
422.60 0.6517311
422.70 0.6518115
422.80 0.6553502
422.90 0.6633779
423.00 0.6758634
423.10 0.6916722
423.20 0.7086187
423.30 0.7241872
423.40 0.736239
423.50 0.743096
423.60 0.7437785
423.70 0.7382917
423.80 0.727812
423.90 0.7159867
424.00 0.7060918
424.10 0.6986778
424.20 0.6936074
424.30 0.6930934
424.40 0.6973287
424.50 0.7047125
424.60 0.7135082
424.70 0.7221081
424.80 0.7290651
424.90 0.7334029
425.00 0.7345316
425.10 0.7322557
425.20 0.7267002
425.30 0.7185222
425.40 0.7085271
425.50 0.6973084
425.60 0.685569
425.70 0.6750547
425.80 0.6659639
425.90 0.6580902
426.00 0.6512533
426.10 0.6456179
426.20 0.6407904
426.30 0.6362594
426.40 0.6316657
426.50 0.6269452
426.60 0.6222484
426.70 0.6175265
426.80 0.6128319
426.90 0.6083929
427.00 0.604235
427.10 0.6004134
427.20 0.5970472
427.30 0.5944812
427.40 0.5930494
427.50 0.5923354
427.60 0.5914472
427.70 0.5897898
427.80 0.5872621
427.90 0.5840649
428.00 0.580644
428.10 0.5777808
428.20 0.5760791
428.30 0.5758614
428.40 0.577381
428.50 0.5804728
428.60 0.584813
428.70 0.5888212
428.80 0.5928874
428.90 0.5974357
429.00 0.6025397
429.10 0.6080269
429.20 0.6137559
429.30 0.6197076
429.40 0.624608
429.50 0.6285035
429.60 0.6316587
429.70 0.6345044
429.80 0.6371764
429.90 0.6395255
430.00 0.6410231
430.10 0.6407952
430.20 0.638191
430.30 0.6334068
430.40 0.627628
430.50 0.6225681
430.60 0.619828
430.70 0.6201665
430.80 0.6233255
430.90 0.6286349
431.00 0.6350839
431.10 0.641554
431.20 0.6471868
431.30 0.6514438
431.40 0.6541729
431.50 0.6556147
431.60 0.6563
431.70 0.6568855
431.80 0.6576671
431.90 0.6585075
432.00 0.6591847
432.10 0.6595521
432.20 0.6597894
432.30 0.6600291
432.40 0.6600431
432.50 0.6593815
432.60 0.6575428
432.70 0.6539997
432.80 0.6481473
432.90 0.6395742
433.00 0.6281488
433.10 0.6141911
433.20 0.5987437
433.30 0.5831189
433.40 0.568595
433.50 0.5563167
433.60 0.5470636
433.70 0.5413485
433.80 0.539364
433.90 0.539364
434.00 0.539364
434.10 0.539364
434.20 0.539364
434.30 0.5364118
434.40 0.5299138
434.50 0.5213195
434.60 0.5117233
434.70 0.5021612
434.80 0.4933696
434.90 0.4857578
435.00 0.4792854
435.10 0.4735034
435.20 0.4680199
435.30 0.4627221
435.40 0.4580769
435.50 0.4553578
435.60 0.4555833
435.70 0.4579259
435.80 0.4620801
435.90 0.4678313
436.00 0.4745696
436.10 0.4812223
436.20 0.4872344
436.30 0.4921882
436.40 0.4959863
436.50 0.4987097
436.60 0.500404
436.70 0.5011713
436.80 0.5011417
436.90 0.5004288
437.00 0.4992506
437.10 0.4982023
437.20 0.4980409
437.30 0.4989537
437.40 0.5007736
437.50 0.5036726
437.60 0.5080088
437.70 0.5138541
437.80 0.5209679
437.90 0.5291041
438.00 0.5378855
438.10 0.546881
438.20 0.5560564
438.30 0.5655964
438.40 0.5758695
438.50 0.5874396
438.60 0.6006215
438.70 0.6153656
438.80 0.6312179
438.90 0.6473567
439.00 0.6630255
439.10 0.6778011
439.20 0.6913672
439.30 0.703147
439.40 0.7126408
439.50 0.7197536
439.60 0.7243457
439.70 0.7263716
439.80 0.7259855
439.90 0.7233836
440.00 0.7189309
440.10 0.7131791
440.20 0.7066894
440.30 0.7000045
440.40 0.6937335
440.50 0.6883646
440.60 0.6840895
440.70 0.6809723
440.80 0.6789295
440.90 0.6777784
441.00 0.6776601
441.10 0.6785209
441.20 0.6800446
441.30 0.681977
441.40 0.6840605
441.50 0.6861006
441.60 0.6878771
441.70 0.6888747
441.80 0.6884459
441.90 0.6863511
442.00 0.6829267
442.10 0.6790389
442.20 0.6755384
442.30 0.6727017
442.40 0.6701773
442.50 0.6675875
442.60 0.6649393
442.70 0.6625532
442.80 0.6608653
442.90 0.6601189
443.00 0.6605796
443.10 0.6625085
443.20 0.6657178
443.30 0.6695736
443.40 0.6734783
443.50 0.677073
443.60 0.6804427
443.70 0.6841146
443.80 0.6888946
443.90 0.6955372
444.00 0.7046907
444.10 0.7164579
444.20 0.7301844
444.30 0.7446764
444.40 0.7578944
444.50 0.767378
444.60 0.7718526
444.70 0.7708899
444.80 0.7649409
444.90 0.7553302
445.00 0.7452936
445.10 0.7367683
445.20 0.7309404
445.30 0.7292602
445.40 0.7312278
445.50 0.7349353
445.60 0.7387675
445.70 0.7418819
445.80 0.7443893
445.90 0.7468386
446.00 0.7498677
446.10 0.7539847
446.20 0.7596119
446.30 0.7667594
446.40 0.7743345
446.50 0.7803515
446.60 0.7829534
446.70 0.7814851
446.80 0.7769012
446.90 0.7731829
447.00 0.7703912
447.10 0.7680567
447.20 0.767097
447.30 0.768798
447.40 0.7728305
447.50 0.7784336
447.60 0.7844275
447.70 0.7895999
447.80 0.7932523
447.90 0.7952246
448.00 0.7957374
448.10 0.7948705
448.20 0.7923676
448.30 0.7884173
448.40 0.7835735
448.50 0.7780694
448.60 0.7719235
448.70 0.7649993
448.80 0.7569843
448.90 0.7477132
449.00 0.7371947
449.10 0.7255055
449.20 0.7131491
449.30 0.7012444
449.40 0.6910776
449.50 0.6837118
449.60 0.6797335
449.70 0.6789465
449.80 0.6807705
449.90 0.684975
450.00 0.6916955
450.10 0.7009144
450.20 0.7122914
450.30 0.7250221
450.40 0.7375778
450.50 0.7480836
450.60 0.7550706
450.70 0.7579563
450.80 0.7572532
450.90 0.7543338
451.00 0.7511024
451.10 0.7498661
451.20 0.7526924
451.30 0.7605261
451.40 0.7729142
451.50 0.7884986
451.60 0.8056614
451.70 0.82306
451.80 0.8402356
451.90 0.8572838
452.00 0.8741867
452.10 0.890639
452.20 0.9062164
452.30 0.9210642
452.40 0.9359268
452.50 0.9513932
452.60 0.9674488
452.70 0.9836251
452.80 0.9993439
452.90 1.014039
453.00 1.027184
453.10 1.038251
453.20 1.046692
453.30 1.052511
453.40 1.056243
453.50 1.058539
453.60 1.059972
453.70 1.06075
453.80 1.060685
453.90 1.059487
454.00 1.057014
454.10 1.053414
454.20 1.049385
454.30 1.046288
454.40 1.045677
454.50 1.0487
454.60 1.055838
454.70 1.066749
454.80 1.080481
454.90 1.095893
455.00 1.110985
455.10 1.125749
455.20 1.140596
455.30 1.154529
455.40 1.16752
455.50 1.18
455.60 1.19173
455.70 1.201828
455.80 1.209099
455.90 1.212587
456.00 1.211964
456.10 1.207506
456.20 1.200085
456.30 1.191176
456.40 1.182788
456.50 1.177234
456.60 1.176612
456.70 1.18191
456.80 1.1922
456.90 1.202975
457.00 1.21293
457.10 1.220674
457.20 1.223912
457.30 1.221022
457.40 1.2128
457.50 1.20105
457.60 1.188165
457.70 1.176527
457.80 1.167969
457.90 1.16325
458.00 1.161938
458.10 1.163042
458.20 1.165392
458.30 1.16771
458.40 1.169241
458.50 1.170012
458.60 1.170031
458.70 1.169183
458.80 1.167618
458.90 1.165829
459.00 1.164751
459.10 1.165306
459.20 1.167581
459.30 1.170947
459.40 1.174622
459.50 1.177966
459.60 1.180925
459.70 1.184031
459.80 1.187826
459.90 1.192322
460.00 1.197076
460.10 1.201534
460.20 1.205298
460.30 1.208249
460.40 1.210259
460.50 1.211195
460.60 1.211549
460.70 1.21224
460.80 1.214035
460.90 1.217276
461.00 1.22147
461.10 1.225483
461.20 1.228354
461.30 1.229997
461.40 1.231091
461.50 1.232476
461.60 1.234861
461.70 1.238365
461.80 1.242436
461.90 1.246366
462.00 1.249384
462.10 1.250845
462.20 1.250235
462.30 1.246961
462.40 1.240937
462.50 1.232802
462.60 1.223413
462.70 1.213473
462.80 1.20367
462.90 1.194957
463.00 1.188249
463.10 1.184601
463.20 1.185195
463.30 1.190348
463.40 1.19927
463.50 1.210443
463.60 1.222032
463.70 1.232314
463.80 1.239894
463.90 1.243851
464.00 1.244022
464.10 1.241066
464.20 1.236065
464.30 1.229963
464.40 1.223332
464.50 1.216387
464.60 1.209183
464.70 1.201989
464.80 1.195066
464.90 1.188309
465.00 1.181241
465.10 1.173254
465.20 1.163869
465.30 1.152858
465.40 1.140195
465.50 1.126345
465.60 1.112408
465.70 1.099882
465.80 1.090414
465.90 1.084884
466.00 1.083088
466.10 1.08408
466.20 1.086275
466.30 1.087959
466.40 1.08811
466.50 1.086684
466.60 1.084091
466.70 1.080973
466.80 1.078404
466.90 1.077855
467.00 1.080783
467.10 1.087981
467.20 1.099103
467.30 1.113131
467.40 1.128756
467.50 1.144517
467.60 1.159212
467.70 1.171768
467.80 1.18101
467.90 1.185988
468.00 1.18653
468.10 1.183352
468.20 1.177819
468.30 1.17106
468.40 1.163473
468.50 1.155411
468.60 1.147679
468.70 1.141291
468.80 1.137162
468.90 1.135855
469.00 1.137453
469.10 1.141712
469.20 1.14836
469.30 1.157061
469.40 1.167109
469.50 1.177553
469.60 1.187363
469.70 1.195573
469.80 1.201516
469.90 1.204732
470.00 1.204967
470.10 1.202329
470.20 1.197165
470.30 1.190053
470.40 1.182071
470.50 1.174872
470.60 1.169735
470.70 1.167116
470.80 1.166906
470.90 1.168338
471.00 1.170099
471.10 1.170778
471.20 1.169111
471.30 1.164061
471.40 1.155203
471.50 1.142896
471.60 1.128116
471.70 1.112389
471.80 1.097252
471.90 1.083684
472.00 1.072336
472.10 1.063545
472.20 1.057462
472.30 1.054186
472.40 1.053389
472.50 1.054384
472.60 1.056512
472.70 1.059256
472.80 1.061983
472.90 1.063959
473.00 1.064502
473.10 1.062832
473.20 1.058356
473.30 1.051355
473.40 1.043006
473.50 1.034926
473.60 1.028799
473.70 1.025996
473.80 1.027281
473.90 1.032572
474.00 1.040866
474.10 1.050595
474.20 1.060044
474.30 1.067602
474.40 1.072214
474.50 1.073677
474.60 1.072589
474.70 1.070053
474.80 1.067589
474.90 1.067016
475.00 1.06966
475.10 1.075973
475.20 1.085518
475.30 1.097113
475.40 1.109118
475.50 1.119642
475.60 1.126907
475.70 1.129677
475.80 1.127589
475.90 1.121502
476.00 1.114022
476.10 1.10596
476.20 1.098287
476.30 1.093055
476.40 1.09059
476.50 1.090193
476.60 1.090855
476.70 1.091709
476.80 1.091961
476.90 1.09089
477.00 1.088098
477.10 1.083731
477.20 1.078112
477.30 1.071423
477.40 1.063767
477.50 1.055217
477.60 1.045842
477.70 1.035985
477.80 1.026451
477.90 1.018677
478.00 1.014033
478.10 1.013007
478.20 1.015222
478.30 1.019903
478.40 1.026115
478.50 1.032617
478.60 1.038188
478.70 1.041916
478.80 1.043279
478.90 1.04212
479.00 1.038334
479.10 1.031885
479.20 1.02308
479.30 1.012327
479.40 1.000038
479.50 0.9868758
479.60 0.9737559
479.70 0.961484
479.80 0.9504492
479.90 0.9409038
480.00 0.9330415
480.10 0.926972
480.20 0.9230797
480.30 0.9219862
480.40 0.9240182
480.50 0.9289082
480.60 0.9359613
480.70 0.9441018
480.80 0.9519541
480.90 0.9581892
481.00 0.9618563
481.10 0.9626874
481.20 0.9611357
481.30 0.958144
481.40 0.9546354
481.50 0.9512791
481.60 0.9483309
481.70 0.9457045
481.80 0.9434335
481.90 0.9417244
482.00 0.9407604
482.10 0.9406473
482.20 0.9413848
482.30 0.9429115
482.40 0.94531
482.50 0.9486757
482.60 0.9529774
482.70 0.9579733
482.80 0.9634566
482.90 0.9694296
483.00 0.9758491
483.10 0.982348
483.20 0.9881654
483.30 0.9923721
483.40 0.9942183
483.50 0.9934723
483.60 0.9904554
483.70 0.9860601
483.80 0.9812621
483.90 0.9767872
484.00 0.9732275
484.10 0.9710723
484.20 0.9706205
484.30 0.971887
484.40 0.974654
484.50 0.9786623
484.60 0.9835824
484.70 0.9887588
484.80 0.9929637
484.90 0.9946421
485.00 0.9926702
485.10 0.9864666
485.20 0.9763866
485.30 0.9640417
485.40 0.9517981
485.50 0.9421776
485.60 0.937303
485.70 0.9383226
485.80 0.9450769
485.90 0.9563515
486.00 0.9695293
486.10 0.9838588
486.20 0.9984904
486.30 1.011396
486.40 1.021811
486.50 1.029515
486.60 1.034667
486.70 1.03756
486.80 1.038699
486.90 1.038731
487.00 1.038512
487.10 1.039095
487.20 1.041411
487.30 1.045811
487.40 1.052099
487.50 1.059879
487.60 1.068641
487.70 1.077993
487.80 1.087696
487.90 1.097195
488.00 1.105663
488.10 1.1126
488.20 1.117978
488.30 1.122087
488.40 1.125236
488.50 1.127691
488.60 1.129914
488.70 1.132459
488.80 1.135561
488.90 1.139176
489.00 1.143332
489.10 1.147881
489.20 1.152378
489.30 1.156692
489.40 1.16126
489.50 1.166498
489.60 1.172187
489.70 1.177879
489.80 1.183401
489.90 1.18859
490.00 1.193096
490.10 1.196696
490.20 1.199182
490.30 1.200121
490.40 1.199219
490.50 1.196473
490.60 1.192103
490.70 1.186461
490.80 1.179747
490.90 1.172209
491.00 1.164705
491.10 1.158373
491.20 1.153837
491.30 1.151141
491.40 1.150115
491.50 1.150377
491.60 1.151409
491.70 1.152725
491.80 1.153747
491.90 1.153996
492.00 1.153173
492.10 1.151068
492.20 1.14761
492.30 1.142664
492.40 1.13572
492.50 1.126074
492.60 1.113705
492.70 1.099614
492.80 1.085302
492.90 1.072179
493.00 1.061426
493.10 1.053934
493.20 1.04995
493.30 1.048955
493.40 1.049867
493.50 1.051423
493.60 1.052343
493.70 1.051568
493.80 1.048888
493.90 1.045036
494.00 1.041073
494.10 1.037891
494.20 1.035888
494.30 1.035057
494.40 1.035231
494.50 1.03621
494.60 1.037833
494.70 1.039945
494.80 1.042528
494.90 1.045803
495.00 1.050328
495.10 1.05682
495.20 1.065567
495.30 1.076157
495.40 1.08751
495.50 1.098135
495.60 1.106734
495.70 1.112593
495.80 1.115621
495.90 1.115977
496.00 1.113941
496.10 1.110101
496.20 1.105306
496.30 1.100329
496.40 1.095589
496.50 1.0913
496.60 1.087497
496.70 1.083925
496.80 1.080155
496.90 1.075831
497.00 1.07066
497.10 1.064324
497.20 1.056608
497.30 1.047707
497.40 1.038166
497.50 1.028508
497.60 1.019131
497.70 1.010128
497.80 1.001505
497.90 0.9934838
498.00 0.9865298
498.10 0.9810909
498.20 0.9772716
498.30 0.9749238
498.40 0.9738867
498.50 0.9741885
498.60 0.9758249
498.70 0.9785846
498.80 0.982235
498.90 0.9865907
499.00 0.9913293
499.10 0.996199
499.20 1.000948
499.30 1.005117
499.40 1.008047
499.50 1.009214
499.60 1.00879
499.70 1.007387
499.80 1.005472
499.90 1.003082
500.00 1
500.10 0.9958497
500.20 0.9901332
500.30 0.9825632
500.40 0.9731363
500.50 0.962184
500.60 0.9504361
500.70 0.9388905
500.80 0.9288397
500.90 0.9217127
501.00 0.9183927
501.10 0.9189333
501.20 0.9229396
501.30 0.9298479
501.40 0.938919
501.50 0.9493815
501.60 0.9606287
501.70 0.9721691
501.80 0.9836852
501.90 0.994913
502.00 1.005689
502.10 1.01608
502.20 1.026066
502.30 1.03542
502.40 1.044055
502.50 1.052115
502.60 1.059426
502.70 1.065454
502.80 1.069685
502.90 1.071896
503.00 1.072232
503.10 1.071283
503.20 1.070284
503.30 1.070797
503.40 1.074049
503.50 1.080574
503.60 1.090233
503.70 1.102182
503.80 1.114843
503.90 1.126266
504.00 1.134993
504.10 1.140641
504.20 1.143755
504.30 1.14521
504.40 1.145958
504.50 1.14681
504.60 1.148129
504.70 1.149947
504.80 1.152241
504.90 1.154821
505.00 1.157293
505.10 1.159479
505.20 1.16157
505.30 1.163981
505.40 1.167118
505.50 1.171025
505.60 1.175422
505.70 1.179973
505.80 1.184165
505.90 1.187515
506.00 1.18973
506.10 1.190772
506.20 1.190811
506.30 1.190148
506.40 1.189367
506.50 1.18898
506.60 1.189264
506.70 1.190574
506.80 1.193213
506.90 1.196976
507.00 1.20123
507.10 1.205299
507.20 1.208716
507.30 1.211137
507.40 1.212339
507.50 1.212283
507.60 1.210992
507.70 1.208724
507.80 1.205792
507.90 1.202511
508.00 1.199395
508.10 1.196927
508.20 1.195431
508.30 1.195236
508.40 1.196438
508.50 1.198621
508.60 1.201074
508.70 1.203082
508.80 1.204132
508.90 1.203972
509.00 1.202535
509.10 1.199898
509.20 1.196412
509.30 1.192757
509.40 1.189756
509.50 1.188063
509.60 1.188027
509.70 1.189628
509.80 1.192739
509.90 1.197392
510.00 1.203584
510.10 1.211261
510.20 1.220168
510.30 1.229778
510.40 1.239574
510.50 1.249017
510.60 1.257552
510.70 1.264605
510.80 1.269469
510.90 1.271331
511.00 1.269572
511.10 1.264168
511.20 1.255586
511.30 1.244585
511.40 1.232052
511.50 1.218742
511.60 1.205264
511.70 1.192163
511.80 1.179754
511.90 1.168202
512.00 1.157606
512.10 1.148081
512.20 1.140048
512.30 1.13421
512.40 1.131021
512.50 1.130443
512.60 1.131993
512.70 1.134681
512.80 1.137308
512.90 1.138748
513.00 1.138165
513.10 1.135042
513.20 1.129255
513.30 1.12118
513.40 1.111709
513.50 1.101899
513.60 1.092556
513.70 1.084283
513.80 1.077455
513.90 1.072198
514.00 1.068271
514.10 1.064891
514.20 1.06128
514.30 1.057294
514.40 1.053149
514.50 1.049213
514.60 1.046048
514.70 1.044187
514.80 1.043805
514.90 1.044714
515.00 1.046256
515.10 1.047347
515.20 1.046991
515.30 1.044374
515.40 1.03912
515.50 1.031607
515.60 1.022537
515.70 1.012574
515.80 1.002475
515.90 0.9929118
516.00 0.9844493
516.10 0.9775345
516.20 0.9724039
516.30 0.9691171
516.40 0.967563
516.50 0.9675193
516.60 0.9687324
516.70 0.9708089
516.80 0.9733207
516.90 0.9764636
517.00 0.9809972
517.10 0.9875359
517.20 0.9965475
517.30 1.008461
517.40 1.023226
517.50 1.040192
517.60 1.058402
517.70 1.07668
517.80 1.093932
517.90 1.109319
518.00 1.122163
518.10 1.132226
518.20 1.139877
518.30 1.145642
518.40 1.150101
518.50 1.153982
518.60 1.157856
518.70 1.161944
518.80 1.166111
518.90 1.169891
519.00 1.172643
519.10 1.173748
519.20 1.172696
519.30 1.169225
519.40 1.163479
519.50 1.15612
519.60 1.148092
519.70 1.14045
519.80 1.134237
519.90 1.130315
520.00 1.129017
520.10 1.129963
520.20 1.132483
520.30 1.135875
520.40 1.139153
520.50 1.141257
520.60 1.141405
520.70 1.139399
520.80 1.136059
520.90 1.132988
521.00 1.131886
521.10 1.133837
521.20 1.138903
521.30 1.146268
521.40 1.154839
521.50 1.163629
521.60 1.171743
521.70 1.178534
521.80 1.18422
521.90 1.189952
522.00 1.197163
522.10 1.206794
522.20 1.218739
522.30 1.231953
522.40 1.245073
522.50 1.25691
522.60 1.266773
522.70 1.274506
522.80 1.280294
522.90 1.284681
523.00 1.288569
523.10 1.292949
523.20 1.298234
523.30 1.303932
523.40 1.308977
523.50 1.312378
523.60 1.313731
523.70 1.313162
523.80 1.311132
523.90 1.308279
524.00 1.305393
524.10 1.303314
524.20 1.302491
524.30 1.302922
524.40 1.304341
524.50 1.306006
524.60 1.306888
524.70 1.306363
524.80 1.304475
524.90 1.301729
525.00 1.298788
525.10 1.296368
525.20 1.295213
525.30 1.296013
525.40 1.299213
525.50 1.30507
525.60 1.313942
525.70 1.32584
525.80 1.34021
525.90 1.356344
526.00 1.373548
526.10 1.390981
526.20 1.407716
526.30 1.423001
526.40 1.436199
526.50 1.44684
526.60 1.454734
526.70 1.460003
526.80 1.463033
526.90 1.464018
527.00 1.46279
527.10 1.459368
527.20 1.453953
527.30 1.446838
527.40 1.43877
527.50 1.430829
527.60 1.42399
527.70 1.418701
527.80 1.41485
527.90 1.411944
528.00 1.409123
528.10 1.4054
528.20 1.399819
528.30 1.391751
528.40 1.381259
528.50 1.368994
528.60 1.355986
528.70 1.343543
528.80 1.332895
528.90 1.324929
529.00 1.320263
529.10 1.319255
529.20 1.321934
529.30 1.327855
529.40 1.336237
529.50 1.346025
529.60 1.356089
529.70 1.365658
529.80 1.374286
529.90 1.381844
530.00 1.388831
530.10 1.396155
530.20 1.404582
530.30 1.414522
530.40 1.426295
530.50 1.440184
530.60 1.456165
530.70 1.473786
530.80 1.491928
530.90 1.509042
531.00 1.523798
531.10 1.535438
531.20 1.544008
531.30 1.55019
531.40 1.554747
531.50 1.558464
531.60 1.562185
531.70 1.566447
531.80 1.570823
531.90 1.573897
532.00 1.574087
532.10 1.570458
532.20 1.563118
532.30 1.553306
532.40 1.542913
532.50 1.533795
532.60 1.52743
532.70 1.52482
532.80 1.52656
532.90 1.532461
533.00 1.541438
533.10 1.552
533.20 1.562837
533.30 1.573298
533.40 1.583347
533.50 1.593159
533.60 1.602857
533.70 1.612481
533.80 1.622137
533.90 1.631936
534.00 1.641708
534.10 1.65113
534.20 1.659923
534.30 1.667735
534.40 1.674114
534.50 1.678883
534.60 1.682223
534.70 1.684361
534.80 1.685431
534.90 1.685503
535.00 1.684839
535.10 1.6838
535.20 1.682509
535.30 1.68116
535.40 1.680116
535.50 1.679389
535.60 1.678305
535.70 1.676061
535.80 1.672231
535.90 1.666786
536.00 1.659965
536.10 1.65208
536.20 1.643506
536.30 1.634919
536.40 1.627459
536.50 1.622438
536.60 1.620944
536.70 1.623328
536.80 1.629147
536.90 1.637558
537.00 1.647504
537.10 1.657789
537.20 1.667305
537.30 1.675155
537.40 1.68074
537.50 1.684018
537.60 1.685507
537.70 1.685998
537.80 1.686171
537.90 1.686408
538.00 1.687002
538.10 1.688337
538.20 1.690948
538.30 1.695413
538.40 1.702049
538.50 1.710782
538.60 1.721156
538.70 1.732266
538.80 1.743075
538.90 1.752656
539.00 1.760334
539.10 1.76615
539.20 1.770943
539.30 1.775975
539.40 1.782496
539.50 1.791409
539.60 1.802838
539.70 1.815959
539.80 1.8294
539.90 1.841675
540.00 1.851397
540.10 1.85755
540.20 1.859697
540.30 1.85806
540.40 1.853357
540.50 1.846225
540.60 1.836988
540.70 1.826215
540.80 1.814798
540.90 1.803557
541.00 1.793252
541.10 1.784612
541.20 1.778295
541.30 1.774767
541.40 1.774219
541.50 1.776402
541.60 1.780585
541.70 1.785931
541.80 1.791928
541.90 1.79863
542.00 1.806478
542.10 1.815828
542.20 1.826837
542.30 1.839365
542.40 1.852711
542.50 1.865803
542.60 1.877404
542.70 1.886343
542.80 1.891684
542.90 1.893025
543.00 1.890734
543.10 1.885809
543.20 1.879713
543.30 1.87392
543.40 1.869453
543.50 1.866812
543.60 1.86596
543.70 1.866465
543.80 1.867695
543.90 1.868944
544.00 1.869688
544.10 1.869515
544.20 1.868136
544.30 1.865503
544.40 1.861771
544.50 1.8573
544.60 1.85247
544.70 1.847573
544.80 1.842873
544.90 1.838609
545.00 1.834931
545.10 1.831878
545.20 1.829358
545.30 1.827035
545.40 1.824264
545.50 1.820515
545.60 1.815797
545.70 1.810477
545.80 1.80502
545.90 1.799897
546.00 1.795454
546.10 1.791939
546.20 1.789526
546.30 1.788003
546.40 1.786633
546.50 1.784525
546.60 1.780988
546.70 1.775871
546.80 1.769597
546.90 1.762931
547.00 1.756655
547.10 1.751315
547.20 1.747237
547.30 1.744392
547.40 1.742242
547.50 1.739934
547.60 1.736752
547.70 1.732497
547.80 1.727377
547.90 1.721858
548.00 1.716519
548.10 1.711732
548.20 1.707631
548.30 1.703956
548.40 1.700034
548.50 1.695213
548.60 1.688977
548.70 1.681107
548.80 1.671966
548.90 1.662577
549.00 1.654068
549.10 1.647006
549.20 1.641417
549.30 1.636983
549.40 1.632944
549.50 1.628078
549.60 1.621094
549.70 1.61119
549.80 1.598424
549.90 1.583636
550.00 1.368793
550.10 1.370612
550.20 1.376181
550.30 1.381319
550.40 1.382056
550.50 1.375896
550.60 1.362697
550.70 1.343923
550.80 1.321464
550.90 1.297366
551.00 1.273469
551.10 1.251298
551.20 1.232323
551.30 1.217317
551.40 1.206315
551.50 1.199173
551.60 1.195354
551.70 1.193909
551.80 1.194333
551.90 1.196768
552.00 1.201139
552.10 1.207206
552.20 1.215214
552.30 1.225527
552.40 1.238334
552.50 1.25313
552.60 1.268167
552.70 1.28153
552.80 1.29241
552.90 1.300975
553.00 1.307849
553.10 1.314172
553.20 1.321351
553.30 1.330633
553.40 1.343162
553.50 1.359395
553.60 1.378387
553.70 1.39809
553.80 1.416041
553.90 1.430187
554.00 1.439698
554.10 1.44458
554.20 1.444962
554.30 1.441499
554.40 1.436039
554.50 1.43084
554.60 1.427209
554.70 1.425359
554.80 1.424945
554.90 1.425086
555.00 1.423904
555.10 1.422684
555.20 1.425903
555.30 1.438513
555.40 1.466611
555.50 1.514884
555.60 1.585673
555.70 1.678606
555.80 1.788786
555.90 1.907183
556.00 2.023385
556.10 2.128141
556.20 2.214661
556.30 2.280192
556.40 2.32756
556.50 2.361075
556.60 2.385274
556.70 2.405675
556.80 2.425476
556.90 2.445926
557.00 2.466552
557.10 2.485385
557.20 2.500654
557.30 2.511661
557.40 2.518399
557.50 2.521272
557.60 2.521675
557.70 2.52205
557.80 2.52474
557.90 2.530804
558.00 2.540596
558.10 2.554362
558.20 2.571554
558.30 2.590637
558.40 2.609359
558.50 2.625517
558.60 2.638121
558.70 2.647631
558.80 2.656153
558.90 2.667332
559.00 2.685596
559.10 2.71096
559.20 2.738559
559.30 2.762066
559.40 2.772909
559.50 2.762319
559.60 2.724539
559.70 2.658848
559.80 2.570179
559.90 2.46776
560.00 2.363364
560.10 2.269443
560.20 2.195655
560.30 2.145717
560.40 2.116477
560.50 2.103093
560.60 2.100959
560.70 2.104202
560.80 2.108096
560.90 2.109321
561.00 2.106623
561.10 2.10088
561.20 2.093636
561.30 2.087066
561.40 2.08321
561.50 2.082564
561.60 2.084522
561.70 2.088331
561.80 2.093616
561.90 2.10028
562.00 2.10753
562.10 2.114159
562.20 2.119692
562.30 2.124668
562.40 2.12992
562.50 2.135819
562.60 2.142043
562.70 2.14755
562.80 2.151
562.90 2.151792
563.00 2.149977
563.10 2.145667
563.20 2.139016
563.30 2.130218
563.40 2.120345
563.50 2.111754
563.60 2.106522
563.70 2.105291
563.80 2.107676
563.90 2.11273
564.00 2.11904
564.10 2.124367
564.20 2.126118
564.30 2.122291
564.40 2.112165
564.50 2.096555
564.60 2.077127
564.70 2.056148
564.80 2.03629
564.90 2.019719
565.00 2.007971
565.10 2.001975
565.20 2.00152
565.30 2.004706
565.40 2.008825
565.50 2.011791
565.60 2.012238
565.70 2.009838
565.80 2.005497
565.90 2.000761
566.00 1.99726
566.10 1.9966
566.20 2.000532
566.30 2.010451
566.40 2.027033
566.50 2.050085
566.60 2.07891
566.70 2.112814
566.80 2.150263
566.90 2.188642
567.00 2.22549
567.10 2.258339
567.20 2.284827
567.30 2.303982
567.40 2.316854
567.50 2.325622
567.60 2.332214
567.70 2.338418
567.80 2.345538
567.90 2.354156
568.00 2.363983
568.10 2.374028
568.20 2.383945
568.30 2.394093
568.40 2.404475
568.50 2.415293
568.60 2.428075
568.70 2.445204
568.80 2.468576
568.90 2.499103
569.00 2.536188
569.10 2.577239
569.20 2.618556
569.30 2.656388
569.40 2.687617
569.50 2.710534
569.60 2.724744
569.70 2.729984
569.80 2.725898
569.90 2.712522
570.00 2.690229
570.10 2.659616
570.20 2.621585
570.30 2.577468
570.40 2.529504
570.50 2.480968
570.60 2.435376
570.70 2.395397
570.80 2.36233
570.90 2.335495
571.00 2.312967
571.10 2.293753
571.20 2.278077
571.30 2.266222
571.40 2.257275
571.50 2.249278
571.60 2.240517
571.70 2.229893
571.80 2.21715
571.90 2.202626
572.00 2.186449
572.10 2.168635
572.20 2.149255
572.30 2.128674
572.40 2.10731
572.50 2.084662
572.60 2.059028
572.70 2.028325
572.80 1.99125
572.90 1.947636
573.00 1.898726
573.10 1.84716
573.20 1.796135
573.30 1.748651
573.40 1.7074
573.50 1.67418
573.60 1.649149
573.70 1.631212
573.80 1.61892
573.90 1.611083
574.00 1.607563
574.10 1.608609
574.20 1.613629
574.30 1.621598
574.40 1.631117
574.50 1.640632
574.60 1.648776
574.70 1.654324
574.80 1.656878
574.90 1.657456
575.00 1.658005
575.10 1.660633
575.20 1.666709
575.30 1.676124
575.40 1.687602
575.50 1.699813
575.60 1.711879
575.70 1.722701
575.80 1.731053
575.90 1.736141
576.00 1.737762
576.10 1.736371
576.20 1.732745
576.30 1.728186
576.40 1.724808
576.50 1.724581
576.60 1.728813
576.70 1.738508
576.80 1.754728
576.90 1.777935
577.00 1.807007
577.10 1.839497
577.20 1.872096
577.30 1.900975
577.40 1.922974
577.50 1.936568
577.60 1.942108
577.70 1.941508
577.80 1.937324
577.90 1.932493
578.00 1.929722
578.10 1.931077
578.20 1.93736
578.30 1.947413
578.40 1.9592
578.50 1.970745
578.60 1.980791
578.70 1.989148
578.80 1.995549
578.90 1.999446
579.00 2.000269
579.10 1.996957
579.20 1.988812
579.30 1.976735
579.40 1.96339
579.50 1.951842
579.60 1.944049
579.70 1.940914
579.80 1.94256
579.90 1.948343
580.00 1.956819
580.10 1.965959
580.20 1.974121
580.30 1.979884
580.40 1.981868
580.50 1.979504
580.60 1.973187
580.70 1.963664
580.80 1.950766
580.90 1.933574
581.00 1.912062
581.10 1.887788
581.20 1.863574
581.30 1.842844
581.40 1.828302
581.50 1.821338
581.60 1.822234
581.70 1.830328
581.80 1.843941
581.90 1.860906
582.00 1.878934
582.10 1.895322
582.20 1.908382
582.30 1.918412
582.40 1.926435
582.50 1.932987
582.60 1.937647
582.70 1.939306
582.80 1.937184
582.90 1.930589
583.00 1.918862
583.10 1.902025
583.20 1.88073
583.30 1.855303
583.40 1.82505
583.50 1.789382
583.60 1.749027
583.70 1.706304
583.80 1.664069
583.90 1.624971
584.00 1.591624
584.10 1.566092
584.20 1.549197
584.30 1.540556
584.40 1.538699
584.50 1.541826
584.60 1.54833
584.70 1.556248
584.80 1.563872
584.90 1.570164
585.00 1.573444
585.10 1.570696
585.20 1.559325
585.30 1.538415
585.40 1.508586
585.50 1.471943
585.60 1.431387
585.70 1.389895
585.80 1.350221
585.90 1.313343
586.00 1.278201
586.10 1.243498
586.20 1.207846
586.30 1.169571
586.40 1.128962
586.50 1.088945
586.60 1.053425
586.70 1.026318
586.80 1.010686
586.90 1.00795
587.00 1.017621
587.10 1.038393
587.20 1.068224
587.30 1.104922
587.40 1.147305
587.50 1.194373
587.60 1.244448
587.70 1.295129
587.80 1.342872
587.90 1.383655
588.00 1.414147
588.10 1.43245
588.20 1.438337
588.30 1.43333
588.40 1.420796
588.50 1.404232
588.60 1.386023
588.70 1.367299
588.80 1.348115
588.90 1.328627
589.00 1.310059
589.10 1.294741
589.20 1.285057
589.30 1.282653
589.40 1.288422
589.50 1.301806
589.60 1.320934
589.70 1.343158
589.80 1.365129
589.90 1.38391
590.00 1.398265
590.10 1.408572
590.20 1.416016
590.30 1.42202
590.40 1.42683
590.50 1.428814
590.60 1.425072
590.70 1.412874
590.80 1.390988
590.90 1.360405
591.00 1.324252
591.10 1.285988
591.20 1.248731
591.30 1.214454
591.40 1.182746
591.50 1.151491
591.60 1.118368
591.70 1.080944
591.80 1.038194
591.90 0.9919481
592.00 0.9464851
592.10 0.9067894
592.20 0.8769221
592.30 0.8593139
592.40 0.8542457
592.50 0.8604995
592.60 0.8753918
592.70 0.8955958
592.80 0.9184967
592.90 0.9419389
593.00 0.9636306
593.10 0.9821506
593.20 0.997584
593.30 1.010637
593.40 1.021764
593.50 1.031635
593.60 1.041523
593.70 1.052729
593.80 1.066029
593.90 1.081416
594.00 1.098622
594.10 1.117856
594.20 1.140139
594.30 1.167179
594.40 1.200315
594.50 1.239602
594.60 1.283665
594.70 1.329934
594.80 1.375588
594.90 1.417735
595.00 1.452862
595.10 1.477813
595.20 1.491364
595.30 1.495026
595.40 1.492416
595.50 1.48739
595.60 1.482214
595.70 1.47792
595.80 1.475377
595.90 1.475074
596.00 1.476745
596.10 1.479664
596.20 1.483051
596.30 1.485946
596.40 1.487477
596.50 1.487069
596.60 1.484484
596.70 1.479618
596.80 1.472162
596.90 1.462279
597.00 1.451708
597.10 1.44258
597.20 1.435702
597.30 1.430423
597.40 1.425379
597.50 1.418752
597.60 1.408397
597.70 1.392786
597.80 1.372135
597.90 1.348572
598.00 1.325211
598.10 1.305145
598.20 1.290606
598.30 1.282016
598.40 1.277675
598.50 1.274973
598.60 1.271942
598.70 1.267899
598.80 1.262763
598.90 1.256883
599.00 1.251426
599.10 1.248185
599.20 1.24866
599.30 1.253413
599.40 1.262435
599.50 1.275721
599.60 1.293689
599.70 1.316997
599.80 1.346117
599.90 1.380673
600.00 1.015175
600.10 1.197958
600.20 1.464104
600.30 1.7672
600.40 2.044375
600.50 2.24164
600.60 2.326897
600.70 2.310232
600.80 2.220092
600.90 2.088251
601.00 1.945996
601.10 1.823881
601.20 1.748189
601.30 1.73072
601.40 1.761704
601.50 1.806036
601.60 1.826021
601.70 1.80457
601.80 1.760744
601.90 1.725243
602.00 1.708657
602.10 1.692694
602.20 1.66386
602.30 1.620201
602.40 1.56086
602.50 1.495101
602.60 1.436217
602.70 1.395723
602.80 1.377719
602.90 1.387729
603.00 1.440512
603.10 1.526525
603.20 1.601534
603.30 1.630724
603.40 1.617049
603.50 1.594708
603.60 1.593488
603.70 1.621157
603.80 1.684352
603.90 1.786712
604.00 1.911272
604.10 2.027994
604.20 2.11831
604.30 2.171341
604.40 2.168338
604.50 2.116592
604.60 2.047054
604.70 1.989232
604.80 1.972399
604.90 2.004307
605.00 2.082125
605.10 2.212551
605.20 2.386817
605.30 2.575818
605.40 2.7377
605.50 2.834957
605.60 2.845701
605.70 2.765162
605.80 2.611247
605.90 2.407006
606.00 2.184086
606.10 1.973731
606.20 1.787987
606.30 1.643933
606.40 1.56426
606.50 1.560338
606.60 1.627701
606.70 1.756497
606.80 1.94213
606.90 2.156843
607.00 2.34541
607.10 2.465147
607.20 2.508321
607.30 2.48198
607.40 2.395894
607.50 2.263051
607.60 2.108157
607.70 1.972543
607.80 1.886285
607.90 1.857514
608.00 1.887089
608.10 1.953656
608.20 2.028165
608.30 2.111143
608.40 2.220221
608.50 2.342109
608.60 2.426361
608.70 2.43595
608.80 2.369489
608.90 2.24839
609.00 2.098041
609.10 1.943552
609.20 1.809665
609.30 1.713572
609.40 1.656879
609.50 1.634533
609.60 1.648312
609.70 1.692157
609.80 1.741534
609.90 1.78587
610.00 1.844952
610.10 1.935167
610.20 2.033126
610.30 2.111953
610.40 2.163129
610.50 2.171784
610.60 2.136214
610.70 2.077788
610.80 2.02779
610.90 2.009253
611.00 2.013094
611.10 2.012819
611.20 2.003346
611.30 2.009196
611.40 2.050705
611.50 2.12978
611.60 2.252042
611.70 2.40796
611.80 2.565077
611.90 2.690706
612.00 2.752337
612.10 2.716388
612.20 2.564754
612.30 2.318665
612.40 2.034828
612.50 1.783917
612.60 1.620311
612.70 1.552449
612.80 1.566227
612.90 1.653734
613.00 1.797686
613.10 1.966806
613.20 2.127854
613.30 2.251223
613.40 2.336098
613.50 2.416884
613.60 2.517927
613.70 2.619543
613.80 2.694492
613.90 2.733628
614.00 2.742077
614.10 2.73762
614.20 2.731013
614.30 2.701686
614.40 2.628048
614.50 2.516228
614.60 2.380865
614.70 2.247507
614.80 2.126113
614.90 2.006211
615.00 1.887101
615.10 1.80238
615.20 1.789104
615.30 1.846721
615.40 1.950059
615.50 2.062662
615.60 2.15419
615.70 2.214959
615.80 2.248009
615.90 2.264201
616.00 2.287583
616.10 2.329535
616.20 2.387687
616.30 2.460494
616.40 2.534836
616.50 2.57462
616.60 2.547408
616.70 2.459663
616.80 2.338526
616.90 2.207353
617.00 2.078528
617.10 1.971735
617.20 1.901632
617.30 1.856296
617.40 1.811662
617.50 1.749462
617.60 1.671476
617.70 1.594087
617.80 1.543013
617.90 1.544525
618.00 1.618182
618.10 1.760823
618.20 1.937681
618.30 2.109814
618.40 2.260436
618.50 2.378391
618.60 2.453048
618.70 2.488484
618.80 2.506009
618.90 2.529093
619.00 2.550331
619.10 2.542175
619.20 2.492464
619.30 2.418854
619.40 2.335951
619.50 2.243488
619.60 2.15671
619.70 2.101468
619.80 2.085056
619.90 2.098845
620.00 2.130989
620.10 2.1663
620.20 2.195836
620.30 2.211493
620.40 2.227948
620.50 2.274138
620.60 2.353976
620.70 2.450517
620.80 2.54269
620.90 2.606644
621.00 2.616285
621.10 2.548121
621.20 2.389
621.30 2.148198
621.40 1.860882
621.50 1.571982
621.60 1.31152
621.70 1.1174
621.80 1.018829
621.90 1.009636
622.00 1.076769
622.10 1.197475
622.20 1.35013
622.30 1.527754
622.40 1.722925
622.50 1.918732
622.60 2.095269
622.70 2.242058
622.80 2.344663
622.90 2.398132
623.00 2.419916
623.10 2.417535
623.20 2.382772
623.30 2.320379
623.40 2.242239
623.50 2.165477
623.60 2.119041
623.70 2.118678
623.80 2.157309
623.90 2.224886
624.00 2.312093
624.10 2.399121
624.20 2.466206
624.30 2.490182
624.40 2.450052
624.50 2.349427
624.60 2.221571
624.70 2.105276
624.80 2.028204
624.90 2.008372
625.00 2.044955
625.10 2.136522
625.20 2.287642
625.30 2.483981
625.40 2.693903
625.50 2.891198
625.60 3.073615
625.70 3.239452
625.80 3.36528
625.90 3.429026
626.00 3.418098
626.10 3.321903
626.20 3.141465
626.30 2.886529
626.40 2.581204
626.50 2.268892
626.60 2.004318
626.70 1.836214
626.80 1.7895
626.90 1.857106
627.00 2.000361
627.10 2.184705
627.20 2.387594
627.30 2.589123
627.40 2.768314
627.50 2.900505
627.60 2.974024
627.70 2.994842
627.80 2.963655
627.90 2.881176
628.00 2.761374
628.10 2.633469
628.20 2.54201
628.30 2.520307
628.40 2.56614
628.50 2.650299
628.60 2.733914
628.70 2.77243
628.80 2.737377
628.90 2.641164
629.00 2.51487
629.10 2.393554
629.20 2.322564
629.30 2.343081
629.40 2.45873
629.50 2.624597
629.60 2.761666
629.70 2.822883
629.80 2.819455
629.90 2.778055
630.00 2.734725
630.10 2.730105
630.20 2.790827
630.30 2.919492
630.40 3.106996
630.50 3.331846
630.60 3.555744
630.70 3.728435
630.80 3.821903
630.90 3.84521
631.00 3.838216
631.10 3.826791
631.20 3.818866
631.30 3.818728
631.40 3.818544
631.50 3.811909
631.60 3.795425
631.70 3.767984
631.80 3.717768
631.90 3.638784
632.00 3.542275
632.10 3.447691
632.20 3.36823
632.30 3.321941
632.40 3.335943
632.50 3.418097
632.60 3.53138
632.70 3.634588
632.80 3.70471
632.90 3.722737
633.00 3.688744
633.10 3.617595
633.20 3.533394
633.30 3.456229
633.40 3.400764
633.50 3.374947
633.60 3.379988
633.70 3.424513
633.80 3.515055
633.90 3.654298
634.00 3.841482
634.10 4.056121
634.20 4.268061
634.30 4.447734
634.40 4.562895
634.50 4.602596
634.60 4.586756
634.70 4.543703
634.80 4.497718
634.90 4.475947
635.00 4.508367
635.10 4.605611
635.20 4.743436
635.30 4.87666
635.40 4.971126
635.50 5.00246
635.60 4.934115
635.70 4.752858
635.80 4.509893
635.90 4.246913
636.00 3.979531
636.10 3.743254
636.20 3.587258
636.30 3.540251
636.40 3.586376
636.50 3.697796
636.60 3.845852
636.70 3.998411
636.80 4.121777
636.90 4.194469
637.00 4.231833
637.10 4.250165
637.20 4.21914
637.30 4.125717
637.40 3.998249
637.50 3.877673
637.60 3.794319
637.70 3.756781
637.80 3.761783
637.90 3.795196
638.00 3.862614
638.10 3.972058
638.20 4.120918
638.30 4.30044
638.40 4.492145
638.50 4.669385
638.60 4.809986
638.70 4.91013
638.80 4.971658
638.90 4.986723
639.00 4.944815
639.10 4.857582
639.20 4.758561
639.30 4.672517
639.40 4.594847
639.50 4.525217
639.60 4.477174
639.70 4.461255
639.80 4.479075
639.90 4.536797
640.00 4.63306
640.10 4.746031
640.20 4.854949
640.30 4.934412
640.40 4.962932
640.50 4.933907
640.60 4.850553
640.70 4.724521
640.80 4.577869
640.90 4.431379
641.00 4.295447
641.10 4.176939
641.20 4.086669
641.30 4.031975
641.40 4.020746
641.50 4.064363
641.60 4.162926
641.70 4.312163
641.80 4.500214
641.90 4.692295
642.00 4.844145
642.10 4.921629
642.20 4.908759
642.30 4.816093
642.40 4.682989
642.50 4.556592
642.60 4.474474
642.70 4.46469
642.80 4.53819
642.90 4.675707
643.00 4.838552
643.10 4.981248
643.20 5.062589
643.30 5.073879
643.40 5.030714
643.50 4.956707
643.60 4.876305
643.70 4.797223
643.80 4.711936
643.90 4.6262
644.00 4.557952
644.10 4.509955
644.20 4.474017
644.30 4.451965
644.40 4.448167
644.50 4.465342
644.60 4.506988
644.70 4.570185
644.80 4.652351
644.90 4.744643
645.00 4.826196
645.10 4.878467
645.20 4.895431
645.30 4.869908
645.40 4.789594
645.50 4.65995
645.60 4.511052
645.70 4.373431
645.80 4.273304
645.90 4.228391
646.00 4.248226
646.10 4.326629
646.20 4.445222
646.30 4.593582
646.40 4.766658
646.50 4.961513
646.60 5.160718
646.70 5.332769
646.80 5.455857
646.90 5.522327
647.00 5.52901
647.10 5.486013
647.20 5.410369
647.30 5.319993
647.40 5.235088
647.50 5.176103
647.60 5.155281
647.70 5.16205
647.80 5.174398
647.90 5.171018
648.00 5.139112
648.10 5.086832
648.20 5.0338
648.30 4.996445
648.40 4.989118
648.50 5.013795
648.60 5.063709
648.70 5.133992
648.80 5.210495
648.90 5.27304
649.00 5.305671
649.10 5.313922
649.20 5.316672
649.30 5.330757
649.40 5.373132
649.50 5.439458
649.60 5.505976
649.70 5.540663
649.80 5.522563
649.90 5.460781
650.00 5.378759
650.10 5.302892
650.20 5.266496
650.30 5.295785
650.40 5.401391
650.50 5.570899
650.60 5.770188
650.70 5.959686
650.80 6.10576
650.90 6.207618
651.00 6.274478
651.10 6.31176
651.20 6.33057
651.30 6.340802
651.40 6.351415
651.50 6.372799
651.60 6.407135
651.70 6.444614
651.80 6.470129
651.90 6.468175
652.00 6.438669
652.10 6.398056
652.20 6.370155
652.30 6.364087
652.40 6.378103
652.50 6.422511
652.60 6.51456
652.70 6.662203
652.80 6.856799
652.90 7.069993
653.00 7.252752
653.10 7.372636
653.20 7.422037
653.30 7.407559
653.40 7.349309
653.50 7.272478
653.60 7.201544
653.70 7.151299
653.80 7.141625
653.90 7.200858
654.00 7.338617
654.10 7.534392
654.20 7.756916
654.30 7.976323
654.40 8.175618
654.50 8.337321
654.60 8.441422
654.70 8.48218
654.80 8.468022
654.90 8.408842
655.00 8.30977
655.10 8.185862
655.20 8.054294
655.30 7.917126
655.40 7.778713
655.50 7.655826
655.60 7.577278
655.70 7.595264
655.80 7.741399
655.90 8.003982
656.00 8.35427
656.10 8.751403
656.20 9.141219
656.30 9.462509
656.40 9.662791
656.50 9.720777
656.60 9.649137
656.70 9.480666
656.80 9.246451
656.90 8.975318
657.00 8.690807
657.10 8.39922
657.20 8.122286
657.30 7.893966
657.40 7.728399
657.50 7.621237
657.60 7.553319
657.70 7.497801
657.80 7.443756
657.90 7.400309
658.00 7.379774
658.10 7.38673
658.20 7.418422
658.30 7.475584
658.40 7.561714
658.50 7.665212
658.60 7.759357
658.70 7.814563
658.80 7.815229
658.90 7.755584
659.00 7.647335
659.10 7.542482
659.20 7.487561
659.30 7.485526
659.40 7.520932
659.50 7.584479
659.60 7.673886
659.70 7.78092
659.80 7.873976
659.90 7.920287
660.00 7.912634
660.10 7.87383
660.20 7.836447
660.30 7.82442
660.40 7.852222
660.50 7.913333
660.60 7.99165
660.70 8.089837
660.80 8.215276
660.90 8.352953
661.00 8.470156
661.10 8.530701
661.20 8.517104
661.30 8.435515
661.40 8.306404
661.50 8.155358
661.60 8.013721
661.70 7.921228
661.80 7.900782
661.90 7.942407
662.00 8.022445
662.10 8.095538
662.20 8.113103
662.30 8.055322
662.40 7.928041
662.50 7.768381
662.60 7.633678
662.70 7.566294
662.80 7.582419
662.90 7.687793
663.00 7.873275
663.10 8.09656
663.20 8.299713
663.30 8.445783
663.40 8.52299
663.50 8.541257
663.60 8.518918
663.70 8.478867
663.80 8.455699
663.90 8.463426
664.00 8.500905
664.10 8.578587
664.20 8.699414
664.30 8.844296
664.40 8.97922
664.50 9.085835
664.60 9.166962
664.70 9.229664
664.80 9.269763
664.90 9.27991
665.00 9.265457
665.10 9.233886
665.20 9.188054
665.30 9.13817
665.40 9.09399
665.50 9.055039
665.60 9.019871
665.70 8.978185
665.80 8.918329
665.90 8.840588
666.00 8.74763
666.10 8.640361
666.20 8.530663
666.30 8.437726
666.40 8.37662
666.50 8.362411
666.60 8.413519
666.70 8.542444
666.80 8.741931
666.90 8.979036
667.00 9.205583
667.10 9.388752
667.20 9.516297
667.30 9.589086
667.40 9.619007
667.50 9.615765
667.60 9.580974
667.70 9.5171
667.80 9.441468
667.90 9.375063
668.00 9.319703
668.10 9.268109
668.20 9.224549
668.30 9.205057
668.40 9.227729
668.50 9.292631
668.60 9.375431
668.70 9.442334
668.80 9.462679
668.90 9.415858
669.00 9.304331
669.10 9.14909
669.20 8.974586
669.30 8.815791
669.40 8.712538
669.50 8.690888
669.60 8.760407
669.70 8.905345
669.80 9.084137
669.90 9.256325
670.00 9.387094
670.10 9.437632
670.20 9.395339
670.30 9.281532
670.40 9.126079
670.50 8.966472
670.60 8.839317
670.70 8.770415
670.80 8.773563
670.90 8.854152
671.00 9.000125
671.10 9.184962
671.20 9.386368
671.30 9.584669
671.40 9.763892
671.50 9.912862
671.60 10.01579
671.70 10.06651
671.80 10.08045
671.90 10.06604
672.00 10.02991
672.10 9.985128
672.20 9.942599
672.30 9.907114
672.40 9.87681
672.50 9.851658
672.60 9.832833
672.70 9.807345
672.80 9.761394
672.90 9.698294
673.00 9.62374
673.10 9.546039
673.20 9.477916
673.30 9.445898
673.40 9.471425
673.50 9.548885
673.60 9.662466
673.70 9.797404
673.80 9.940012
673.90 10.078
674.00 10.19688
674.10 10.29085
674.20 10.36481
674.30 10.41705
674.40 10.43668
674.50 10.41698
674.60 10.36583
674.70 10.3023
674.80 10.24651
674.90 10.21252
675.00 10.20699
675.10 10.24036
675.20 10.32342
675.30 10.43969
675.40 10.54925
675.50 10.60841
675.60 10.58358
675.70 10.47491
675.80 10.32697
675.90 10.18529
676.00 10.06869
676.10 9.981541
676.20 9.93658
676.30 9.957535
676.40 10.06338
676.50 10.23937
676.60 10.43347
676.70 10.60475
676.80 10.74293
676.90 10.85428
677.00 10.93769
677.10 10.97216
677.20 10.94476
677.30 10.8784
677.40 10.81814
677.50 10.79585
677.60 10.80799
677.70 10.82795
677.80 10.82797
677.90 10.80009
678.00 10.75606
678.10 10.70478
678.20 10.63944
678.30 10.54277
678.40 10.41867
678.50 10.29929
678.60 10.20256
678.70 10.12269
678.80 10.05214
678.90 9.998661
679.00 9.979314
679.10 9.997772
679.20 10.04327
679.30 10.1002
679.40 10.15435
679.50 10.19279
679.60 10.20753
679.70 10.20658
679.80 10.19655
679.90 10.17237
680.00 10.1305
680.10 10.07212
680.20 10.00186
680.30 9.925465
680.40 9.856831
680.50 9.822379
680.60 9.847326
680.70 9.929004
680.80 10.03255
680.90 10.11819
681.00 10.16194
681.10 10.15348
681.20 10.1017
681.30 10.02503
681.40 9.939419
681.50 9.863793
681.60 9.810892
681.70 9.783817
681.80 9.778964
681.90 9.789003
682.00 9.79973
682.10 9.807416
682.20 9.837478
682.30 9.918709
682.40 10.0528
682.50 10.20779
682.60 10.33739
682.70 10.41277
682.80 10.43251
682.90 10.40525
683.00 10.33312
683.10 10.21966
683.20 10.07878
683.30 9.924279
683.40 9.770455
683.50 9.628239
683.60 9.502642
683.70 9.400297
683.80 9.330502
683.90 9.311064
684.00 9.359074
684.10 9.46853
684.20 9.610313
684.30 9.747004
684.40 9.848163
684.50 9.893029
684.60 9.870517
684.70 9.7843
684.80 9.647897
684.90 9.477624
685.00 9.283815
685.10 9.08533
685.20 8.917305
685.30 8.806457
685.40 8.752511
685.50 8.743887
685.60 8.766367
685.70 8.80125
685.80 8.849035
685.90 8.925679
686.00 9.029291
686.10 9.137337
686.20 9.229203
686.30 9.294191
686.40 9.333054
686.50 9.346459
686.60 9.332204
686.70 9.297386
686.80 9.255048
686.90 9.217174
687.00 9.200047
687.10 9.218678
687.20 9.268436
687.30 9.32902
687.40 9.382912
687.50 9.425354
687.60 9.448754
687.70 9.441084
687.80 9.387608
687.90 9.279466
688.00 9.124885
688.10 8.952145
688.20 8.80848
688.30 8.743104
688.40 8.787955
688.50 8.946317
688.60 9.190613
688.70 9.464909
688.80 9.695799
688.90 9.815893
689.00 9.796206
689.10 9.635604
689.20 9.354277
689.30 9.001783
689.40 8.643589
689.50 8.334384
689.60 8.117765
689.70 8.017361
689.80 8.012537
689.90 8.064294
690.00 8.139136
690.10 8.211802
690.20 8.27234
690.30 8.319394
690.40 8.353418
690.50 8.383649
690.60 8.421423
690.70 8.475192
690.80 8.551944
690.90 8.655222
691.00 8.765192
691.10 8.847838
691.20 8.894432
691.30 8.904795
691.40 8.868055
691.50 8.778006
691.60 8.649981
691.70 8.520467
691.80 8.424485
691.90 8.392208
692.00 8.456408
692.10 8.622416
692.20 8.842163
692.30 9.051475
692.40 9.216313
692.50 9.338035
692.60 9.425071
692.70 9.486761
692.80 9.54634
692.90 9.622403
693.00 9.72293
693.10 9.84239
693.20 9.958999
693.30 10.0537
693.40 10.10273
693.50 10.08611
693.60 10.03039
693.70 9.978907
693.80 9.946982
693.90 9.937925
694.00 9.96383
694.10 10.04404
694.20 10.19843
694.30 10.45016
694.40 10.81468
694.50 11.27224
694.60 11.76022
694.70 12.18818
694.80 12.46892
694.90 12.54916
695.00 12.40445
695.10 12.05235
695.20 11.57501
695.30 11.07716
695.40 10.64449
695.50 10.34503
695.60 10.21161
695.70 10.23044
695.80 10.34916
695.90 10.50319
696.00 10.64319
696.10 10.74732
696.20 10.82497
696.30 10.90268
696.40 11.00667
696.50 11.14238
696.60 11.28606
696.70 11.40842
696.80 11.48839
696.90 11.50752
697.00 11.46734
697.10 11.37941
697.20 11.24988
697.30 11.10517
697.40 10.98848
697.50 10.92742
697.60 10.92354
697.70 10.95278
697.80 10.98345
697.90 10.99552
698.00 10.97945
698.10 10.94104
698.20 10.90377
698.30 10.88963
698.40 10.90583
698.50 10.95788
698.60 11.04995
698.70 11.16237
698.80 11.25852
698.90 11.31094
699.00 11.30194
699.10 11.22691
699.20 11.10752
699.30 10.98787
699.40 10.90711
699.50 10.87901
699.60 10.90155
699.70 10.97013
699.80 11.07397
699.90 11.19011
700.00 11.29952
700.10 11.39705
700.20 11.48859
700.30 11.58081
700.40 11.67724
700.50 11.79038
700.60 11.92138
700.70 12.0462
700.80 12.14579
700.90 12.21595
701.00 12.25164
701.10 12.25191
701.20 12.22036
701.30 12.1717
701.40 12.13501
701.50 12.12699
701.60 12.15502
701.70 12.22446
701.80 12.33831
701.90 12.49159
702.00 12.66471
702.10 12.83198
702.20 12.96905
702.30 13.06054
702.40 13.10611
702.50 13.1112
702.60 13.10098
702.70 13.11462
702.80 13.16066
702.90 13.24547
703.00 13.38262
703.10 13.56964
703.20 13.78904
703.30 14.01048
703.40 14.20855
703.50 14.38299
703.60 14.56056
703.70 14.76778
703.80 15.00913
703.90 15.28098
704.00 15.56096
704.10 15.80451
704.20 15.98302
704.30 16.08373
704.40 16.10406
704.50 16.05763
704.60 15.96771
704.70 15.86256
704.80 15.76839
704.90 15.69342
705.00 15.62238
705.10 15.52837
705.20 15.39446
705.30 15.21055
705.40 14.97584
705.50 14.71461
705.60 14.46668
705.70 14.26806
705.80 14.13759
705.90 14.0747
706.00 14.07238
706.10 14.13154
706.20 14.24671
706.30 14.39389
706.40 14.53638
706.50 14.64259
706.60 14.70135
706.70 14.73008
706.80 14.75409
706.90 14.78608
707.00 14.82955
707.10 14.87547
707.20 14.91296
707.30 14.94688
707.40 14.99216
707.50 15.04531
707.60 15.0932
707.70 15.12564
707.80 15.13189
707.90 15.10641
708.00 15.05116
708.10 14.96579
708.20 14.84439
708.30 14.6863
708.40 14.49749
708.50 14.30191
708.60 14.1362
708.70 14.02188
708.80 13.952
708.90 13.91229
709.00 13.89162
709.10 13.88885
709.20 13.91317
709.30 13.964
709.40 14.02784
709.50 14.08426
709.60 14.11647
709.70 14.1279
709.80 14.1447
709.90 14.19425
710.00 14.28125
710.10 14.39092
710.20 14.51477
710.30 14.64687
710.40 14.77686
710.50 14.89282
710.60 14.97681
710.70 15.01604
710.80 15.00362
710.90 14.95593
711.00 14.91757
711.10 14.91324
711.20 14.93529
711.30 14.97518
711.40 15.03108
711.50 15.10004
711.60 15.17329
711.70 15.24204
711.80 15.29679
711.90 15.32983
712.00 15.34395
712.10 15.35105
712.20 15.35877
712.30 15.35195
712.40 15.31828
712.50 15.26846
712.60 15.21545
712.70 15.1639
712.80 15.12004
712.90 15.08858
713.00 15.06838
713.10 15.05454
713.20 15.03999
713.30 15.02092
713.40 14.99788
713.50 14.96988
713.60 14.94252
713.70 14.92994
713.80 14.93846
713.90 14.96928
714.00 15.02957
714.10 15.12428
714.20 15.24329
714.30 15.37693
714.40 15.51785
714.50 15.65488
714.60 15.77989
714.70 15.88968
714.80 15.98695
714.90 16.07836
715.00 16.16262
715.10 16.23303
715.20 16.28852
715.30 16.33055
715.40 16.35303
715.50 16.35317
715.60 16.33976
715.70 16.32117
715.80 16.31157
715.90 16.32737
716.00 16.3739
716.10 16.4451
716.20 16.53772
716.30 16.65694
716.40 16.80867
716.50 16.98397
716.60 17.14886
716.70 17.26571
716.80 17.32044
716.90 17.32158
717.00 17.28197
717.10 17.21758
717.20 17.14704
717.30 17.08003
717.40 17.02404
717.50 16.98971
717.60 16.9688
717.70 16.93934
717.80 16.8931
717.90 16.84318
718.00 16.81405
718.10 16.83006
718.20 16.89508
718.30 16.98732
718.40 17.08927
718.50 17.19756
718.60 17.3108
718.70 17.42778
718.80 17.5471
718.90 17.66312
719.00 17.77288
719.10 17.87112
719.20 17.94833
719.30 17.99327
719.40 17.99247
719.50 17.95249
719.60 17.90066
719.70 17.86354
719.80 17.86528
719.90 17.92423
720.00 18.04711
720.10 18.22277
720.20 18.41615
720.30 18.58162
720.40 18.68437
720.50 18.71387
720.60 18.67378
720.70 18.58227
720.80 18.48034
720.90 18.39616
721.00 18.33763
721.10 18.31763
721.20 18.35069
721.30 18.43413
721.40 18.54499
721.50 18.6604
721.60 18.7732
721.70 18.88796
721.80 19.00196
721.90 19.10133
722.00 19.17947
722.10 19.23511
722.20 19.25531
722.30 19.23392
722.40 19.19195
722.50 19.16042
722.60 19.15688
722.70 19.18918
722.80 19.26684
722.90 19.39113
723.00 19.53775
723.10 19.66917
723.20 19.76689
723.30 19.83001
723.40 19.87733
723.50 19.96871
723.60 20.17092
723.70 20.49366
723.80 20.87369
723.90 21.22553
724.00 21.51664
724.10 21.7336
724.20 21.82971
724.30 21.77288
724.40 21.58865
724.50 21.3316
724.60 21.05267
724.70 20.8151
724.80 20.67525
724.90 20.63676
725.00 20.67045
725.10 20.76634
725.20 20.94233
725.30 21.19443
725.40 21.45126
725.50 21.64491
725.60 21.758
725.70 21.80481
725.80 21.81118
725.90 21.80185
726.00 21.79132
726.10 21.77426
726.20 21.7378
726.30 21.67403
726.40 21.58898
726.50 21.49313
726.60 21.39613
726.70 21.31185
726.80 21.25587
726.90 21.25808
727.00 21.37033
727.10 21.63425
727.20 22.06298
727.30 22.60391
727.40 23.13972
727.50 23.55481
727.60 23.77266
727.70 23.76005
727.80 23.54772
727.90 23.23241
728.00 22.92263
728.10 22.70504
728.20 22.63121
728.30 22.68541
728.40 22.79923
728.50 22.87726
728.60 22.81749
728.70 22.58368
728.80 22.23472
728.90 21.86892
729.00 21.58193
729.10 21.45948
729.20 21.53908
729.30 21.77942
729.40 22.10985
729.50 22.46482
729.60 22.7828
729.70 23.03599
729.80 23.21488
729.90 23.31649
730.00 23.36237
730.10 23.38131
730.20 23.40308
730.30 23.44671
730.40 23.50863
730.50 23.58889
730.60 23.69841
730.70 23.85027
730.80 24.04659
730.90 24.28252
731.00 24.55927
731.10 24.88252
731.20 25.26556
731.30 25.681
731.40 26.0463
731.50 26.29899
731.60 26.41492
731.70 26.39915
731.80 26.28443
731.90 26.10426
732.00 25.88518
732.10 25.65742
732.20 25.46587
732.30 25.36969
732.40 25.41614
732.50 25.58032
732.60 25.75311
732.70 25.8433
732.80 25.81625
732.90 25.66998
733.00 25.42682
733.10 25.12312
733.20 24.81967
733.30 24.59961
733.40 24.55405
733.50 24.76217
733.60 25.25449
733.70 25.96085
733.80 26.73584
733.90 27.42805
734.00 27.92463
734.10 28.15724
734.20 28.09979
734.30 27.7741
734.40 27.23202
734.50 26.56715
734.60 25.90671
734.70 25.35513
734.80 24.9613
734.90 24.72796
735.00 24.6273
735.10 24.63595
735.20 24.72789
735.30 24.86173
735.40 25.0079
735.50 25.14601
735.60 25.25334
735.70 25.3047
735.80 25.30708
735.90 25.27627
736.00 25.2204
736.10 25.17023
736.20 25.17122
736.30 25.2564
736.40 25.46079
736.50 25.79438
736.60 26.2006
736.70 26.6035
736.80 26.9186
736.90 27.0628
737.00 27.00309
737.10 26.76249
737.20 26.38725
737.30 25.93897
737.40 25.48264
737.50 25.07305
737.60 24.76237
737.70 24.59262
737.80 24.54979
737.90 24.5832
738.00 24.66095
738.10 24.75573
738.20 24.85023
738.30 24.94053
738.40 25.02637
738.50 25.10069
738.60 25.16719
738.70 25.25994
738.80 25.39611
738.90 25.5552
739.00 25.70495
739.10 25.80606
739.20 25.80211
739.30 25.65628
739.40 25.3824
739.50 25.04555
739.60 24.74125
739.70 24.55791
739.80 24.54671
739.90 24.71076
740.00 24.99985
740.10 25.31407
740.20 25.55522
740.30 25.66596
740.40 25.62215
740.50 25.43174
740.60 25.14985
740.70 24.84109
740.80 24.56065
740.90 24.34668
741.00 24.19838
741.10 24.10219
741.20 24.05359
741.30 24.05134
741.40 24.09506
741.50 24.18364
741.60 24.29789
741.70 24.4056
741.80 24.47085
741.90 24.46612
742.00 24.38139
742.10 24.23039
742.20 24.04727
742.30 23.87137
742.40 23.75126
742.50 23.73237
742.60 23.81906
742.70 23.97955
742.80 24.17097
742.90 24.33763
743.00 24.43611
743.10 24.4465
743.20 24.36938
743.30 24.22343
743.40 24.03367
743.50 23.83755
743.60 23.69207
743.70 23.63698
743.80 23.66656
743.90 23.74717
744.00 23.84076
744.10 23.91176
744.20 23.91586
744.30 23.82768
744.40 23.65232
744.50 23.40689
744.60 23.12005
744.70 22.83245
744.80 22.59927
744.90 22.47164
745.00 22.4585
745.10 22.53393
745.20 22.66092
745.30 22.783
745.40 22.84963
745.50 22.85159
745.60 22.80483
745.70 22.73126
745.80 22.66425
745.90 22.646
746.00 22.70596
746.10 22.84919
746.20 23.05652
746.30 23.28228
746.40 23.473
746.50 23.6005
746.60 23.66704
746.70 23.70285
746.80 23.7396
746.90 23.77879
747.00 23.81703
747.10 23.85351
747.20 23.87135
747.30 23.85459
747.40 23.80573
747.50 23.73032
747.60 23.65019
747.70 23.61398
747.80 23.66192
747.90 23.80508
748.00 24.03338
748.10 24.31064
748.20 24.56395
748.30 24.71159
748.40 24.71278
748.50 24.58469
748.60 24.37537
748.70 24.13195
748.80 23.89167
748.90 23.69781
749.00 23.58718
749.10 23.56446
749.20 23.60903
749.30 23.68367
749.40 23.74084
749.50 23.75115
749.60 23.73353
749.70 23.73301
749.80 23.76411
749.90 23.81514
750.00 23.88385
750.10 23.9665
750.20 24.05131
750.30 24.12875
750.40 24.18645
750.50 24.21461
750.60 24.21564
750.70 24.19787
750.80 24.17446
750.90 24.15955
751.00 24.15234
751.10 24.15209
751.20 24.18334
751.30 24.2622
751.40 24.37163
751.50 24.47717
751.60 24.54765
751.70 24.57611
751.80 24.58554
751.90 24.61849
752.00 24.70206
752.10 24.82703
752.20 24.97449
752.30 25.12811
752.40 25.27394
752.50 25.39002
752.60 25.44131
752.70 25.39937
752.80 25.25956
752.90 25.04398
753.00 24.79167
753.10 24.54716
753.20 24.33911
753.30 24.17032
753.40 24.03925
753.50 23.96584
753.60 23.9618
753.70 24.00853
753.80 24.07497
753.90 24.13891
754.00 24.18446
754.10 24.20107
754.20 24.191
754.30 24.16639
754.40 24.13726
754.50 24.09671
754.60 24.03405
754.70 23.94573
754.80 23.84404
754.90 23.75691
755.00 23.71076
755.10 23.73226
755.20 23.84126
755.30 24.01924
755.40 24.2189
755.50 24.40578
755.60 24.55844
755.70 24.66026
755.80 24.70755
755.90 24.70371
756.00 24.64855
756.10 24.54134
756.20 24.38767
756.30 24.19968
756.40 23.99007
756.50 23.78687
756.60 23.65077
756.70 23.63102
756.80 23.73281
756.90 23.91707
757.00 24.12891
757.10 24.31087
757.20 24.40601
757.30 24.38588
757.40 24.2634
757.50 24.08996
757.60 23.92337
757.70 23.81146
757.80 23.7964
757.90 23.88071
758.00 24.01743
758.10 24.15331
758.20 24.23939
758.30 24.23765
758.40 24.11485
758.50 23.8471
758.60 23.44106
758.70 22.9315
758.80 22.36372
758.90 21.7793
759.00 21.22577
759.10 20.75494
759.20 20.41459
759.30 20.24688
759.40 20.25526
759.50 20.39789
759.60 20.63128
759.70 20.91116
759.80 21.20001
759.90 21.47596
760.00 21.69232
760.10 21.78314
760.20 21.71565
760.30 21.5008
760.40 21.17622
760.50 20.78561
760.60 20.36243
760.70 19.91702
760.80 19.46512
760.90 19.06082
761.00 18.76322
761.10 18.60172
761.20 18.56688
761.30 18.63393
761.40 18.78722
761.50 18.9936
761.60 19.19622
761.70 19.33722
761.80 19.35595
761.90 19.21063
762.00 18.91243
762.10 18.52057
762.20 18.11116
762.30 17.74709
762.40 17.45531
762.50 17.22616
762.60 17.02135
762.70 16.7847
762.80 16.46515
762.90 16.0518
763.00 15.56629
763.10 15.04544
763.20 14.53235
763.30 14.0613
763.40 13.6586
763.50 13.33633
763.60 13.09452
763.70 12.90766
763.80 12.73218
763.90 12.5266
764.00 12.26587
764.10 11.93929
764.20 11.55074
764.30 11.11474
764.40 10.64568
764.50 10.15142
764.60 9.650101
764.70 9.185108
764.80 8.776138
764.90 8.413769
765.00 8.083317
765.10 7.766007
765.20 7.441271
765.30 7.091725
765.40 6.705093
765.50 6.280971
765.60 5.833535
765.70 5.388365
765.80 4.973179
765.90 4.604373
766.00 4.294177
766.10 4.037895
766.20 3.819866
766.30 3.633809
766.40 3.465202
766.50 3.31067
766.60 3.194166
766.70 3.147912
766.80 3.19938
766.90 3.358753
767.00 3.616465
767.10 3.948038
767.20 4.322785
767.30 4.721031
767.40 5.127529
767.50 5.522479
767.60 5.894407
767.70 6.238182
767.80 6.560673
767.90 6.877682
768.00 7.1995
768.10 7.522517
768.20 7.827303
768.30 8.090842
768.40 8.288101
768.50 8.389345
768.60 8.372405
768.70 8.235612
768.80 8.003945
768.90 7.721227
769.00 7.425807
769.10 7.13805
769.20 6.862407
769.30 6.585625
769.40 6.293968
769.50 5.980771
769.60 5.641509
769.70 5.281064
769.80 4.923144
769.90 4.608905
770.00 4.381503
770.10 4.268052
770.20 4.269976
770.30 4.379414
770.40 4.582617
770.50 4.863563
770.60 5.230447
770.70 5.731435
770.80 6.402917
770.90 7.21648
771.00 8.126574
771.10 9.08513
771.20 10.01916
771.30 10.81611
771.40 11.3646
771.50 11.61955
771.60 11.60408
771.70 11.39508
771.80 11.13125
771.90 10.98661
772.00 11.08269
772.10 11.43569
772.20 11.9975
772.30 12.73
772.40 13.56249
772.50 14.37209
772.60 15.04304
772.70 15.5331
772.80 15.86644
772.90 16.07952
773.00 16.21778
773.10 16.32341
773.20 16.4138
773.30 16.49915
773.40 16.59589
773.50 16.72614
773.60 16.90166
773.70 17.10625
773.80 17.32428
773.90 17.55539
774.00 17.80516
774.10 18.07106
774.20 18.32666
774.30 18.54477
774.40 18.73092
774.50 18.92173
774.60 19.15967
774.70 19.46658
774.80 19.83084
774.90 20.20587
775.00 20.54353
775.10 20.79447
775.20 20.9188
775.30 20.92496
775.40 20.85626
775.50 20.7641
775.60 20.70975
775.70 20.74296
775.80 20.86102
775.90 21.00912
776.00 21.12378
776.10 21.15946
776.20 21.10329
776.30 20.98178
776.40 20.8369
776.50 20.73424
776.60 20.7397
776.70 20.87869
776.80 21.14444
776.90 21.50758
777.00 21.91549
777.10 22.3007
777.20 22.59373
777.30 22.74548
777.40 22.73397
777.50 22.56765
777.60 22.31341
777.70 22.06616
777.80 21.9017
777.90 21.8752
778.00 22.00154
778.10 22.23779
778.20 22.50278
778.30 22.7129
778.40 22.8108
778.50 22.77606
778.60 22.63676
778.70 22.47355
778.80 22.40092
778.90 22.51992
779.00 22.84363
779.10 23.30373
779.20 23.78676
779.30 24.14082
779.40 24.20586
779.50 23.86505
779.60 23.06294
779.70 21.82528
779.80 20.28865
779.90 18.67989
780.00 17.27792
780.10 16.33788
780.20 16.02545
780.30 16.38895
780.40 17.35689
780.50 18.74458
780.60 20.3039
780.70 21.77312
780.80 22.94512
780.90 23.70739
781.00 24.05888
781.10 24.09603
781.20 23.95292
781.30 23.78209
781.40 23.71738
781.50 23.85446
781.60 24.24151
781.70 24.83335
781.80 25.51761
781.90 26.17591
782.00 26.70531
782.10 27.03215
782.20 27.11329
782.30 26.96717
782.40 26.65851
782.50 26.26342
782.60 25.85835
782.70 25.50177
782.80 25.23729
782.90 25.07557
783.00 24.97757
783.10 24.92587
783.20 24.94172
783.30 25.03144
783.40 25.16935
783.50 25.34863
783.60 25.5902
783.70 25.88821
783.80 26.22155
783.90 26.57897
784.00 26.96994
784.10 27.40007
784.20 27.85486
784.30 28.32175
784.40 28.78806
784.50 29.20908
784.60 29.49775
784.70 29.61631
784.80 29.64504
784.90 29.6814
785.00 29.73438
785.10 29.78091
785.20 29.83043
785.30 29.90216
785.40 29.98856
785.50 30.06506
785.60 30.12263
785.70 30.15678
785.80 30.16746
785.90 30.15812
786.00 30.15506
786.10 30.17138
786.20 30.13727
786.30 29.97095
786.40 29.7203
786.50 29.50491
786.60 29.39392
786.70 29.38622
786.80 29.4331
786.90 29.46979
787.00 29.40536
787.10 29.16384
787.20 28.73404
787.30 28.18392
787.40 27.62947
787.50 27.19059
787.60 26.98815
787.70 27.12967
787.80 27.62381
787.90 28.36293
788.00 29.19193
788.10 29.95792
788.20 30.54692
788.30 30.901
788.40 31.05201
788.50 31.07358
788.60 31.00703
788.70 30.89162
788.80 30.77464
788.90 30.70153
789.00 30.70366
789.10 30.75061
789.20 30.7868
789.30 30.78375
789.40 30.74239
789.50 30.66529
789.60 30.54393
789.70 30.37065
789.80 30.12637
789.90 29.80676
790.00 29.464
790.10 29.17215
790.20 28.98368
790.30 28.92245
790.40 28.98347
790.50 29.14985
790.60 29.37375
790.70 29.59177
790.80 29.7952
790.90 30.03986
791.00 30.37105
791.10 30.79107
791.20 31.22559
791.30 31.59222
791.40 31.8504
791.50 31.96085
791.60 31.926
791.70 31.76532
791.80 31.50417
791.90 31.20232
792.00 30.94699
792.10 30.79693
792.20 30.71382
792.30 30.59535
792.40 30.37473
792.50 30.0578
792.60 29.7406
792.70 29.54203
792.80 29.55212
792.90 29.8223
793.00 30.33947
793.10 31.05123
793.20 31.86999
793.30 32.65907
793.40 33.2705
793.50 33.59592
793.60 33.59005
793.70 33.29313
793.80 32.79964
793.90 32.20096
794.00 31.56063
794.10 30.90863
794.20 30.22155
794.30 29.44004
794.40 28.51068
794.50 27.44719
794.60 26.33967
794.70 25.33169
794.80 24.59385
794.90 24.28651
795.00 24.51701
795.10 25.27965
795.20 26.45834
795.30 27.87021
795.40 29.31917
795.50 30.60686
795.60 31.58293
795.70 32.19382
795.80 32.48673
795.90 32.60077
796.00 32.66612
796.10 32.75217
796.20 32.90992
796.30 33.17397
796.40 33.52654
796.50 33.89612
796.60 34.1967
796.70 34.36727
796.80 34.38415
796.90 34.2696
797.00 34.06764
797.10 33.83378
797.20 33.60866
797.30 33.38646
797.40 33.19987
797.50 33.12478
797.60 33.19338
797.70 33.36375
797.80 33.57811
797.90 33.79864
798.00 33.98741
798.10 34.09764
798.20 34.0742
798.30 33.88762
798.40 33.55747
798.50 33.14283
798.60 32.73223
798.70 32.43018
798.80 32.29147
798.90 32.29932
799.00 32.44881
799.10 32.76272
799.20 33.21137
799.30 33.71981
799.40 34.19955
799.50 34.5754
799.60 34.8242
799.70 34.95742
799.80 35.01627
799.90 35.04987
800.00 35.09156
800.10 35.15386
800.20 35.24478
800.30 35.37567
800.40 35.50267
800.50 35.56432
800.60 35.54354
800.70 35.45472
800.80 35.36139
800.90 35.36369
801.00 35.53671
801.10 35.90205
801.20 36.40151
801.30 36.92397
801.40 37.36973
801.50 37.65624
801.60 37.7336
801.70 37.60955
801.80 37.35006
801.90 37.03735
802.00 36.76442
802.10 36.64136
802.20 36.73355
802.30 37.05722
802.40 37.59469
802.50 38.28151
802.60 39.04887
802.70 39.82927
802.80 40.53595
802.90 41.09368
803.00 41.46293
803.10 41.63247
803.20 41.60457
803.30 41.40058
803.40 41.06409
803.50 40.65468
803.60 40.24836
803.70 39.90033
803.80 39.6369
803.90 39.47993
804.00 39.44723
804.10 39.56085
804.20 39.81743
804.30 40.16563
804.40 40.52095
804.50 40.81927
804.60 41.03763
804.70 41.2
804.80 41.39476
804.90 41.71227
805.00 42.19676
805.10 42.84542
805.20 43.61194
805.30 44.42913
805.40 45.20523
805.50 45.84143
805.60 46.28831
805.70 46.53466
805.80 46.60321
805.90 46.55244
806.00 46.44841
806.10 46.32864
806.20 46.17473
806.30 45.96546
806.40 45.71854
806.50 45.47004
806.60 45.26559
806.70 45.15153
806.80 45.17225
806.90 45.3606
807.00 45.7056
807.10 46.17792
807.20 46.75981
807.30 47.40996
807.40 48.06393
807.50 48.66705
807.60 49.1737
807.70 49.55327
807.80 49.80096
807.90 49.96039
808.00 50.1046
808.10 50.28937
808.20 50.53275
808.30 50.81185
808.40 51.08771
808.50 51.30517
808.60 51.39512
808.70 51.32148
808.80 51.1005
808.90 50.79644
809.00 50.50406
809.10 50.30283
809.20 50.23927
809.30 50.30826
809.40 50.44748
809.50 50.57739
809.60 50.63676
809.70 50.59429
809.80 50.46175
809.90 50.3018
810.00 50.19569
810.10 50.1936
810.20 50.30825
810.30 50.52308
810.40 50.80027
810.50 51.09447
810.60 51.35675
810.70 51.54944
810.80 51.67201
810.90 51.76454
811.00 51.87722
811.10 52.04054
811.20 52.25104
811.30 52.49227
811.40 52.75918
811.50 53.06643
811.60 53.45151
811.70 53.92979
811.80 54.45306
811.90 54.93782
812.00 55.30921
812.10 55.51605
812.20 55.56235
812.30 55.49847
812.40 55.40221
812.50 55.37612
812.60 55.5114
812.70 55.84762
812.80 56.35043
812.90 56.93267
813.00 57.47568
813.10 57.87026
813.20 58.08559
813.30 58.19302
813.40 58.31202
813.50 58.54991
813.60 58.94256
813.70 59.43148
813.80 59.89401
813.90 60.17801
814.00 60.14726
814.10 59.74292
814.20 59.0065
814.30 58.06506
814.40 57.06728
814.50 56.16577
814.60 55.51569
814.70 55.20705
814.80 55.24075
814.90 55.53929
815.00 55.9916
815.10 56.50106
815.20 57.008
815.30 57.4819
815.40 57.92437
815.50 58.34276
815.60 58.72862
815.70 59.05626
815.80 59.3178
815.90 59.5395
816.00 59.76432
816.10 60.04024
816.20 60.39645
816.30 60.81207
816.40 61.22722
816.50 61.60234
816.60 61.93052
816.70 62.2156
816.80 62.45521
816.90 62.66603
817.00 62.88057
817.10 63.13775
817.20 63.47319
817.30 63.87752
817.40 64.26037
817.50 64.46314
817.60 64.32363
817.70 63.75349
817.80 62.71966
817.90 61.20552
818.00 59.23884
818.10 56.94912
818.20 54.57555
818.30 52.4296
818.40 50.83128
818.50 50.00579
818.60 50.02221
818.70 50.76762
818.80 51.97239
818.90 53.25579
819.00 54.1981
819.10 54.45556
819.20 53.87716
819.30 52.54864
819.40 50.758
819.50 48.93213
819.60 47.51883
819.70 46.84237
819.80 47.03976
819.90 48.0887
820.00 49.83258
820.10 52.00395
820.20 54.28051
820.30 56.37142
820.40 58.10051
820.50 59.41949
820.60 60.36553
820.70 61.01016
820.80 61.44429
820.90 61.74863
821.00 61.95484
821.10 62.06167
821.20 62.07742
821.30 62.02422
821.40 61.91573
821.50 61.76086
821.60 61.59783
821.70 61.50473
821.80 61.54658
821.90 61.74885
822.00 62.08968
822.10 62.51669
822.20 62.96894
822.30 63.38594
822.40 63.75933
822.50 64.12276
822.60 64.50108
822.70 64.87138
822.80 65.20509
822.90 65.51369
823.00 65.79734
823.10 66.02887
823.20 66.17195
823.30 66.21403
823.40 66.20053
823.50 66.20141
823.60 66.26183
823.70 66.41197
823.80 66.656
823.90 66.95656
824.00 67.26447
824.10 67.56729
824.20 67.87563
824.30 68.21354
824.40 68.63329
824.50 69.18677
824.60 69.89231
824.70 70.66315
824.80 71.32319
824.90 71.71671
825.00 71.77308
825.10 71.48562
825.20 70.88674
825.30 70.06867
825.40 69.19182
825.50 68.43321
825.60 67.94619
825.70 67.81621
825.80 68.01008
825.90 68.40556
826.00 68.86628
826.10 69.30574
826.20 69.68775
826.30 69.98945
826.40 70.19116
826.50 70.29397
826.60 70.35038
826.70 70.43177
826.80 70.55699
826.90 70.69615
827.00 70.78541
827.10 70.78128
827.20 70.7062
827.30 70.62582
827.40 70.60662
827.50 70.70069
827.60 70.93557
827.70 71.29614
827.80 71.72346
827.90 72.11599
828.00 72.34889
828.10 72.33815
828.20 72.05892
828.30 71.55729
828.40 70.96541
828.50 70.41261
828.60 69.93665
828.70 69.5043
828.80 69.07016
828.90 68.58896
829.00 68.04335
829.10 67.46149
829.20 66.90567
829.30 66.46222
829.40 66.23237
829.50 66.28236
829.60 66.61443
829.70 67.14979
829.80 67.71522
829.90 68.09305
830.00 68.15999
830.10 67.90476
830.20 67.36092
830.30 66.61552
830.40 65.7748
830.50 64.95657
830.60 64.28804
830.70 63.87421
830.80 63.76412
830.90 63.93581
831.00 64.33613
831.10 64.88554
831.20 65.48373
831.30 66.06397
831.40 66.57833
831.50 66.98766
831.60 67.28283
831.70 67.49199
831.80 67.67656
831.90 67.88397
832.00 68.11827
832.10 68.36966
832.20 68.60226
832.30 68.75349
832.40 68.75454
832.50 68.57893
832.60 68.26361
832.70 67.88833
832.80 67.55259
832.90 67.34535
833.00 67.33497
833.10 67.52743
833.20 67.85803
833.30 68.24899
833.40 68.6425
833.50 68.99905
833.60 69.30842
833.70 69.59698
833.80 69.91704
833.90 70.28891
834.00 70.687
834.10 71.06167
834.20 71.45221
834.30 71.93763
834.40 72.50369
834.50 73.08924
834.60 73.60156
834.70 73.94853
834.80 74.06302
834.90 73.90348
835.00 73.47911
835.10 72.86714
835.20 72.19211
835.30 71.59355
835.40 71.18378
835.50 71.03377
835.60 71.08206
835.70 71.16797
835.80 71.19144
835.90 71.13291
836.00 71.04917
836.10 71.02548
836.20 71.12806
836.30 71.40985
836.40 71.89926
836.50 72.56225
836.60 73.30015
836.70 73.98972
836.80 74.53092
836.90 74.83659
837.00 74.8177
837.10 74.45245
837.20 73.78838
837.30 72.90855
837.40 71.94246
837.50 71.05548
837.60 70.4173
837.70 70.18302
837.80 70.41957
837.90 71.05836
838.00 71.93997
838.10 72.85735
838.20 73.59905
838.30 73.98253
838.40 73.88505
838.50 73.28169
838.60 72.27094
838.70 71.03139
838.80 69.76
838.90 68.64136
839.00 67.83056
839.10 67.39726
839.20 67.34629
839.30 67.68621
839.40 68.38838
839.50 69.39062
839.60 70.67768
839.70 72.23182
839.80 73.95091
839.90 75.67668
840.00 77.20019
840.10 78.30699
840.20 78.88854
840.30 78.95074
840.40 78.59738
840.50 77.99185
840.60 77.30555
840.70 76.67548
840.80 76.18002
840.90 75.86981
841.00 75.70685
841.10 75.60107
841.20 75.54104
841.30 75.55257
841.40 75.67416
841.50 75.94821
841.60 76.33745
841.70 76.73505
841.80 77.00695
841.90 77.03918
842.00 76.78253
842.10 76.28264
842.20 75.66245
842.30 75.0507
842.40 74.55411
842.50 74.24034
842.60 74.13168
842.70 74.30139
842.80 74.8029
842.90 75.55215
843.00 76.38232
843.10 77.04801
843.20 77.27277
843.30 76.86067
843.40 75.76201
843.50 74.06189
843.60 71.95756
843.70 69.7128
843.80 67.60415
843.90 65.88523
844.00 64.70062
844.10 63.9574
844.20 63.4362
844.30 62.9766
844.40 62.48153
844.50 61.9478
844.60 61.44541
844.70 61.04738
844.80 60.72385
844.90 60.37506
845.00 59.98682
845.10 59.61339
845.20 59.29887
845.30 59.05506
845.40 58.8631
845.50 58.70554
845.60 58.60107
845.70 58.56326
845.80 58.57564
845.90 58.6061
846.00 58.65414
846.10 58.75252
846.20 58.93719
846.30 59.21039
846.40 59.54418
846.50 59.89967
846.60 60.20624
846.70 60.39547
846.80 60.43209
846.90 60.32395
847.00 60.08552
847.10 59.75278
847.20 59.39122
847.30 59.06797
847.40 58.8036
847.50 58.57187
847.60 58.41368
847.70 58.40509
847.80 58.50654
847.90 58.58487
848.00 58.52949
848.10 58.29313
848.20 57.94228
848.30 57.59628
848.40 57.33112
848.50 57.18148
848.60 57.1685
848.70 57.32503
848.80 57.67726
848.90 58.23223
849.00 58.94846
849.10 59.75424
849.20 60.59515
849.30 61.41101
849.40 62.11471
849.50 62.59772
849.60 62.7328
849.70 62.46644
849.80 61.8849
849.90 61.18146
850.00 60.57259
850.10 60.22151
850.20 60.23469
850.30 60.62069
850.40 61.30974
850.50 62.18417
850.60 63.05765
850.70 63.73917
850.80 64.10798
850.90 64.13722
851.00 63.8707
851.10 63.36647
851.20 62.67454
851.30 61.84566
851.40 60.93896
851.50 59.98833
851.60 58.96144
851.70 57.78181
851.80 56.36797
851.90 54.68821
852.00 52.84815
852.10 51.11908
852.20 49.83551
852.30 49.27213
852.40 49.57486
852.50 50.74126
852.60 52.63042
852.70 54.96399
852.80 57.37495
852.90 59.52243
853.00 61.17279
853.10 62.2678
853.20 62.88615
853.30 63.14093
853.40 63.14513
853.50 62.98324
853.60 62.74442
853.70 62.54742
853.80 62.48395
853.90 62.58281
854.00 62.8288
854.10 63.18177
854.20 63.58334
854.30 63.95142
854.40 64.2332
854.50 64.42217
854.60 64.58944
854.70 64.88733
854.80 65.43175
854.90 66.23619
855.00 67.21119
855.10 68.19425
855.20 69.03521
855.30 69.64787
855.40 69.98877
855.50 70.0482
855.60 69.85824
855.70 69.49822
855.80 69.06324
855.90 68.63098
856.00 68.20748
856.10 67.7621
856.20 67.31516
856.30 66.93687
856.40 66.70277
856.50 66.66165
856.60 66.81226
856.70 67.1056
856.80 67.4668
856.90 67.79543
857.00 68.00578
857.10 68.05173
857.20 67.91365
857.30 67.60538
857.40 67.19919
857.50 66.8023
857.60 66.50449
857.70 66.35646
857.80 66.3776
857.90 66.57212
858.00 66.92419
858.10 67.3902
858.20 67.91008
858.30 68.43543
858.40 68.95157
858.50 69.44466
858.60 69.87525
858.70 70.18057
858.80 70.30859
858.90 70.22257
859.00 69.90581
859.10 69.42281
859.20 68.91052
859.30 68.50241
859.40 68.31509
859.50 68.41726
859.60 68.77092
859.70 69.28152
859.80 69.81978
859.90 70.2408
860.00 70.44981
860.10 70.4268
860.20 70.20919
860.30 69.89318
860.40 69.59247
860.50 69.34319
860.60 69.08447
860.70 68.71378
860.80 68.10291
860.90 67.15108
861.00 65.87819
861.10 64.33686
861.20 62.54603
861.30 60.56124
861.40 58.49623
861.50 56.50953
861.60 54.75691
861.70 53.3336
861.80 52.27605
861.90 51.58123
862.00 51.2007
862.10 51.03412
862.20 50.96213
862.30 50.87805
862.40 50.68738
862.50 50.33969
862.60 49.87576
862.70 49.40057
862.80 49.02267
862.90 48.79454
863.00 48.71415
863.10 48.76522
863.20 48.9216
863.30 49.13132
863.40 49.32156
863.50 49.45028
863.60 49.52465
863.70 49.57744
863.80 49.64401
863.90 49.77462
864.00 50.02823
864.10 50.42203
864.20 50.92425
864.30 51.48731
864.40 52.0645
864.50 52.64784
864.60 53.25715
864.70 53.89363
864.80 54.56217
864.90 55.28484
865.00 56.09196
865.10 56.9693
865.20 57.84276
865.30 58.64735
865.40 59.33619
865.50 59.8877
865.60 60.33307
865.70 60.74749
865.80 61.18625
865.90 61.59589
866.00 61.87369
866.10 61.96892
866.20 61.89951
866.30 61.70893
866.40 61.40535
866.50 61.02058
866.60 60.63612
866.70 60.3032
866.80 60.0266
866.90 59.80618
867.00 59.63805
867.10 59.46983
867.20 59.23377
867.30 58.96759
867.40 58.79977
867.50 58.82735
867.60 59.05876
867.70 59.43715
867.80 59.87274
867.90 60.24373
868.00 60.45448
868.10 60.45831
868.20 60.24836
868.30 59.87316
868.40 59.41779
868.50 58.97981
868.60 58.65366
868.70 58.44169
868.80 58.20642
868.90 57.77818
869.00 57.02193
869.10 55.83607
869.20 54.20555
869.30 52.21956
869.40 50.01889
869.50 47.83423
869.60 45.95662
869.70 44.5763
869.80 43.75255
869.90 43.48922
870.00 43.7431
870.10 44.40291
870.20 45.32289
870.30 46.3265
870.40 47.23462
870.50 47.9379
870.60 48.38068
870.70 48.5324
870.80 48.3795
870.90 47.92126
871.00 47.19943
871.10 46.3398
871.20 45.50476
871.30 44.81321
871.40 44.32796
871.50 44.06002
871.60 43.98136
871.70 44.05447
871.80 44.23604
871.90 44.46534
872.00 44.69699
872.10 44.93385
872.20 45.25684
872.30 45.7584
872.40 46.47391
872.50 47.37998
872.60 48.40115
872.70 49.40919
872.80 50.24794
872.90 50.82183
873.00 51.10856
873.10 51.11578
873.20 50.86577
873.30 50.41051
873.40 49.83683
873.50 49.26642
873.60 48.8285
873.70 48.61219
873.80 48.66098
873.90 48.99806
874.00 49.61947
874.10 50.52454
874.20 51.69388
874.30 52.98592
874.40 54.1685
874.50 55.02197
874.60 55.42111
874.70 55.35945
874.80 54.94562
874.90 54.3544
875.00 53.75405
875.10 53.2986
875.20 53.1112
875.30 53.24739
875.40 53.71869
875.50 54.47568
875.60 55.41529
875.70 56.46936
875.80 57.59404
875.90 58.78123
876.00 60.00027
876.10 61.12026
876.20 61.96414
876.30 62.38867
876.40 62.31392
876.50 61.80235
876.60 61.09074
876.70 60.47178
876.80 60.21061
876.90 60.47468
877.00 61.34306
877.10 62.76542
877.20 64.57692
877.30 66.51349
877.40 68.24501
877.50 69.55591
877.60 70.33095
877.70 70.53837
877.80 70.29943
877.90 69.76029
878.00 68.98443
878.10 68.03246
878.20 67.00896
878.30 66.0425
878.40 65.19368
878.50 64.46039
878.60 63.8428
878.70 63.36656
878.80 63.15249
878.90 63.29054
879.00 63.77749
879.10 64.55307
879.20 65.48986
879.30 66.45725
879.40 67.34645
879.50 68.0624
879.60 68.47006
879.70 68.41565
879.80 67.80751
879.90 66.66624
880.00 65.12893
880.10 63.40527
880.20 61.67604
880.30 60.07863
880.40 58.7628
880.50 57.86214
880.60 57.48856
880.70 57.7328
880.80 58.62141
880.90 60.0924
881.00 62.04705
881.10 64.40622
881.20 67.09243
881.30 69.98991
881.40 72.92022
881.50 75.64507
881.60 77.92626
881.70 79.57532
881.80 80.44903
881.90 80.47789
882.00 79.65024
882.10 77.99941
882.20 75.73635
882.30 73.28028
882.40 71.0944
882.50 69.58791
882.60 69.13283
882.70 69.91333
882.80 71.75653
882.90 74.22226
883.00 76.74127
883.10 78.75358
883.20 79.9405
883.30 80.30745
883.40 80.08815
883.50 79.66013
883.60 79.40202
883.70 79.56876
883.80 80.25444
883.90 81.31294
884.00 82.31431
884.10 82.75535
884.20 82.28332
884.30 80.73131
884.40 78.19003
884.50 75.03665
884.60 71.766
884.70 68.86646
884.80 66.81011
884.90 65.95445
885.00 66.427
885.10 68.07537
885.20 70.50858
885.30 73.18509
885.40 75.52135
885.50 77.04938
885.60 77.52983
885.70 76.97909
885.80 75.59882
885.90 73.71899
886.00 71.76598
886.10 70.13711
886.20 69.06519
886.30 68.6019
886.40 68.65481
886.50 69.05232
886.60 69.59856
886.70 70.04411
886.80 70.11167
886.90 69.58105
887.00 68.37536
887.10 66.62026
887.20 64.61853
887.30 62.77914
887.40 61.50781
887.50 61.10869
887.60 61.74422
887.70 63.36028
887.80 65.68455
887.90 68.30581
888.00 70.76403
888.10 72.71069
888.20 73.94235
888.30 74.52402
888.40 74.89264
888.50 75.55569
888.60 76.82217
888.70 78.70652
888.80 80.89938
888.90 82.88721
889.00 84.15423
889.10 84.32076
889.20 83.17237
889.30 80.71193
889.40 77.23789
889.50 73.33112
889.60 69.76838
889.70 67.19127
889.80 65.83879
889.90 65.75002
890.00 66.89587
890.10 69.12026
890.20 72.12836
890.30 75.51522
890.40 78.7497
890.50 81.28667
890.60 82.75997
890.70 83.00491
890.80 82.06483
890.90 80.21348
891.00 77.92913
891.10 75.78189
891.20 74.26943
891.30 73.64432
891.40 73.91375
891.50 74.9525
891.60 76.55254
891.70 78.46166
891.80 80.48091
891.90 82.45548
892.00 84.18795
892.10 85.43431
892.20 85.97812
892.30 85.70735
892.40 84.61031
892.50 82.81218
892.60 80.62768
892.70 78.49215
892.80 76.8613
892.90 76.10803
893.00 76.41813
893.10 77.73528
893.20 79.73082
893.30 81.87608
893.40 83.62378
893.50 84.59177
893.60 84.57105
893.70 83.48347
893.80 81.4478
893.90 78.72838
894.00 75.63985
894.10 72.57258
894.20 69.92883
894.30 68.02831
894.40 67.08156
894.50 67.11486
894.60 67.9558
894.70 69.31043
894.80 70.80899
894.90 72.06009
895.00 72.78941
895.10 73.00317
895.20 72.94002
895.30 72.96919
895.40 73.5047
895.50 74.81847
895.60 76.96309
895.70 79.7888
895.80 82.93638
895.90 85.89441
896.00 88.13023
896.10 89.23277
896.20 89.038
896.30 87.65601
896.40 85.39139
896.50 82.62787
896.60 79.8345
896.70 77.49056
896.80 75.93489
896.90 75.36643
897.00 75.79093
897.10 76.99554
897.20 78.67469
897.30 80.55385
897.40 82.44033
897.50 84.16956
897.60 85.58605
897.70 86.61524
897.80 87.2917
897.90 87.72659
898.00 88.01387
898.10 88.24911
898.20 88.63849
898.30 89.41793
898.40 90.69968
898.50 92.41688
898.60 94.33615
898.70 96.10698
898.80 97.36557
898.90 97.89765
899.00 97.66808
899.10 96.73808
899.20 95.23869
899.30 93.31685
899.40 91.16781
899.50 89.05419
899.60 87.1655
899.70 85.6079
899.80 84.57541
899.90 84.38225
900.00 84.61769
900.10 84.85314
900.20 85.08858
900.30 85.32403
900.40 85.55948
900.50 85.79492
900.60 86.03037
900.70 86.26582
900.80 86.50126
900.90 86.73671
901.00 86.97216
901.10 87.2076
901.20 87.44305
901.30 87.67849
901.40 87.91394
901.50 88.14939
901.60 88.38483
901.70 88.62028
901.80 88.85573
901.90 89.09117
902.00 89.32662
902.10 89.56206
902.20 89.79751
902.30 90.03296
902.40 90.2684
902.50 90.50385
902.60 90.7393
902.70 90.97474
902.80 91.21019
902.90 91.44563
903.00 91.68108
903.10 91.91653
903.20 91.96364
903.30 92.00884
903.40 92.05405
903.50 92.09926
903.60 92.14446
903.70 92.18967
903.80 92.23488
903.90 92.28008
904.00 92.32529
904.10 92.3705
904.20 92.4157
904.30 92.46091
904.40 92.50612
904.50 92.55132
904.60 92.59653
904.70 92.64174
904.80 92.68694
904.90 92.73215
905.00 92.77736
905.10 92.82256
905.20 92.86777
905.30 92.91298
905.40 92.95818
905.50 93.00339
905.60 93.0486
905.70 93.0938
905.80 93.13901
905.90 93.18422
906.00 93.22942
906.10 93.27463
906.20 93.31984
906.30 93.36504
906.40 93.41025
906.50 93.45546
906.60 93.51905
906.70 93.59053
906.80 93.66201
906.90 93.73348
907.00 93.80496
907.10 93.87644
907.20 93.94791
907.30 94.01939
907.40 94.09087
907.50 94.16234
907.60 94.23382
907.70 94.3053
907.80 94.37677
907.90 94.44825
908.00 94.51973
908.10 94.5912
908.20 94.66268
908.30 94.73416
908.40 94.80563
908.50 94.87711
908.60 94.94859
908.70 95.02006
908.80 95.09154
908.90 95.16302
909.00 95.23449
909.10 95.30597
909.20 95.37745
909.30 95.44892
909.40 95.5204
909.50 95.59188
909.60 95.66335
909.70 95.73483
909.80 95.80631
909.90 95.87779
910.00 95.94287
910.10 95.98658
910.20 96.03029
910.30 96.074
910.40 96.1177
910.50 96.16141
910.60 96.20512
910.70 96.24882
910.80 96.29253
910.90 96.33624
911.00 96.37994
911.10 96.42365
911.20 96.46736
911.30 96.51106
911.40 96.55477
911.50 96.59848
911.60 96.64218
911.70 96.68589
911.80 96.7296
911.90 96.7733
912.00 96.81701
912.10 96.86072
912.20 96.90442
912.30 96.94813
912.40 96.99184
912.50 97.03554
912.60 97.07925
912.70 97.12296
912.80 97.16666
912.90 97.21037
913.00 97.25408
913.10 97.29778
913.20 97.34149
913.30 97.3852
913.40 97.4289
913.50 97.50309
913.60 97.60027
913.70 97.69745
913.80 97.79463
913.90 97.89181
914.00 97.98898
914.10 98.08616
914.20 98.18334
914.30 98.28052
914.40 98.3777
914.50 98.47488
914.60 98.57206
914.70 98.66924
914.80 98.76642
914.90 98.8636
915.00 98.96078
915.10 99.05796
915.20 99.15514
915.30 99.25231
915.40 99.34949
915.50 99.44667
915.60 99.54385
915.70 99.64103
915.80 99.73821
915.90 99.83539
916.00 99.93257
916.10 100.0297
916.20 100.1269
916.30 100.2241
916.40 100.3213
916.50 100.4185
916.60 100.5156
916.70 100.6128
916.80 100.71
916.90 100.8072
917.00 100.8703
917.10 100.9215
917.20 100.9727
917.30 101.0238
917.40 101.075
917.50 101.1262
917.60 101.1774
917.70 101.2286
917.80 101.2797
917.90 101.3309
918.00 101.3821
918.10 101.4333
918.20 101.4844
918.30 101.5356
918.40 101.5868
918.50 101.638
918.60 101.6892
918.70 101.7403
918.80 101.7915
918.90 101.8427
919.00 101.8939
919.10 101.945
919.20 101.9962
919.30 102.0474
919.40 102.0986
919.50 102.1497
919.60 102.2009
919.70 102.2521
919.80 102.3033
919.90 102.3545
920.00 102.4056
920.10 102.4568
920.20 102.508
920.30 102.5592
920.40 102.6103
920.50 102.6744
920.60 102.7431
920.70 102.8117
920.80 102.8803
920.90 102.949
921.00 103.0176
921.10 103.0863
921.20 103.1549
921.30 103.2235
921.40 103.2922
921.50 103.3608
921.60 103.4294
921.70 103.4981
921.80 103.5667
921.90 103.6353
922.00 103.704
922.10 103.7726
922.20 103.8412
922.30 103.9099
922.40 103.9785
922.50 104.0472
922.60 104.1158
922.70 104.1844
922.80 104.2531
922.90 104.3217
923.00 104.3903
923.10 104.459
923.20 104.5276
923.30 104.5962
923.40 104.6649
923.50 104.7335
923.60 104.8021
923.70 104.8708
923.80 104.9394
923.90 105.0081
924.00 105.0018
924.10 104.9367
924.20 104.8716
924.30 104.8065
924.40 104.7414
924.50 104.6762
924.60 104.6111
924.70 104.546
924.80 104.4809
924.90 104.4158
925.00 104.3507
925.10 104.2856
925.20 104.2205
925.30 104.1554
925.40 104.0903
925.50 104.0251
925.60 103.96
925.70 103.8949
925.80 103.8298
925.90 103.7647
926.00 103.6996
926.10 103.6345
926.20 103.5694
926.30 103.5043
926.40 103.4391
926.50 103.374
926.60 103.3089
926.70 103.2438
926.80 103.1787
926.90 103.1136
927.00 103.0485
927.10 102.9834
927.20 102.9183
927.30 102.8532
927.40 102.788
927.50 102.7221
927.60 102.6528
927.70 102.5835
927.80 102.5143
927.90 102.445
928.00 102.3757
928.10 102.3064
928.20 102.2371
928.30 102.1679
928.40 102.0986
928.50 102.0293
928.60 101.96
928.70 101.8907
928.80 101.8214
928.90 101.7522
929.00 101.6829
929.10 101.6136
929.20 101.5443
929.30 101.475
929.40 101.4058
929.50 101.3365
929.60 101.2672
929.70 101.1979
929.80 101.1286
929.90 101.0594
930.00 100.9901
930.10 100.9208
930.20 100.8515
930.30 100.7822
930.40 100.713
930.50 100.6437
930.60 100.5744
930.70 100.5051
930.80 100.4358
930.90 100.3666
931.00 100.2973
931.10 100.3635
931.20 100.4964
931.30 100.6293
931.40 100.7622
931.50 100.8951
931.60 101.028
931.70 101.1609
931.80 101.2938
931.90 101.4267
932.00 101.5596
932.10 101.6925
932.20 101.8254
932.30 101.9583
932.40 102.0912
932.50 102.2241
932.60 102.357
932.70 102.4899
932.80 102.6228
932.90 102.7557
933.00 102.8886
933.10 103.0215
933.20 103.1544
933.30 103.2873
933.40 103.4202
933.50 103.5531
933.60 103.686
933.70 103.8189
933.80 103.9518
933.90 104.0847
934.00 104.2177
934.10 104.3506
934.20 104.4835
934.30 104.6164
934.40 104.7493
934.50 104.8822
934.60 105.0151
934.70 105.1129
934.80 105.2097
934.90 105.3064
935.00 105.4032
935.10 105.4999
935.20 105.5967
935.30 105.6935
935.40 105.7902
935.50 105.887
935.60 105.9837
935.70 106.0805
935.80 106.1773
935.90 106.274
936.00 106.3708
936.10 106.4675
936.20 106.5643
936.30 106.661
936.40 106.7578
936.50 106.8546
936.60 106.9513
936.70 107.0481
936.80 107.1448
936.90 107.2416
937.00 107.3383
937.10 107.4351
937.20 107.5319
937.30 107.6286
937.40 107.7254
937.50 107.8221
937.60 107.9189
937.70 108.0157
937.80 108.1124
937.90 108.2092
938.00 108.3059
938.10 108.4027
938.20 108.4892
938.30 108.4836
938.40 108.4779
938.50 108.4723
938.60 108.4666
938.70 108.461
938.80 108.4553
938.90 108.4497
939.00 108.444
939.10 108.4384
939.20 108.4327
939.30 108.4271
939.40 108.4214
939.50 108.4158
939.60 108.4101
939.70 108.4045
939.80 108.3988
939.90 108.3932
940.00 108.3875
940.10 108.3819
940.20 108.3762
940.30 108.3706
940.40 108.3649
940.50 108.3593
940.60 108.3536
940.70 108.348
940.80 108.3423
940.90 108.3367
941.00 108.331
941.10 108.3254
941.20 108.3197
941.30 108.3141
941.40 108.3084
941.50 108.3028
941.60 108.2971
941.70 108.2915
941.80 108.2892
941.90 108.3324
942.00 108.3755
942.10 108.4186
942.20 108.4617
942.30 108.5048
942.40 108.548
942.50 108.5911
942.60 108.6342
942.70 108.6773
942.80 108.7204
942.90 108.7636
943.00 108.8067
943.10 108.8498
943.20 108.8929
943.30 108.936
943.40 108.9792
943.50 109.0223
943.60 109.0654
943.70 109.1085
943.80 109.1516
943.90 109.1948
944.00 109.2379
944.10 109.281
944.20 109.3241
944.30 109.3672
944.40 109.4104
944.50 109.4535
944.60 109.4966
944.70 109.5397
944.80 109.5828
944.90 109.626
945.00 109.6691
945.10 109.7122
945.20 109.7553
945.30 109.7984
945.40 109.8416
945.50 109.9174
945.60 109.9981
945.70 110.0788
945.80 110.1596
945.90 110.2403
946.00 110.321
946.10 110.4018
946.20 110.4825
946.30 110.5632
946.40 110.644
946.50 110.7247
946.60 110.8054
946.70 110.8861
946.80 110.9669
946.90 111.0476
947.00 111.1283
947.10 111.2091
947.20 111.2898
947.30 111.3705
947.40 111.4513
947.50 111.532
947.60 111.6127
947.70 111.6934
947.80 111.7742
947.90 111.8549
948.00 111.9356
948.10 112.0164
948.20 112.0971
948.30 112.1778
948.40 112.2585
948.50 112.3393
948.60 112.42
948.70 112.5007
948.80 112.5815
948.90 112.6622
949.00 112.7429
949.10 112.8325
949.20 112.9309
949.30 113.0293
949.40 113.1277
949.50 113.226
949.60 113.3244
949.70 113.4228
949.80 113.5212
949.90 113.6196
950.00 113.718
950.10 113.8164
950.20 113.9148
950.30 114.0132
950.40 114.1116
950.50 114.2099
950.60 114.3083
950.70 114.4067
950.80 114.5051
950.90 114.6035
951.00 114.7019
951.10 114.8003
951.20 114.8987
951.30 114.9971
951.40 115.0955
951.50 115.1938
951.60 115.2922
951.70 115.3906
951.80 115.489
951.90 115.5874
952.00 115.6858
952.10 115.7842
952.20 115.8826
952.30 115.981
952.40 116.0794
952.50 116.1777
952.60 116.2761
952.70 116.3745
952.80 116.3887
952.90 116.4004
953.00 116.412
953.10 116.4236
953.20 116.4352
953.30 116.4468
953.40 116.4584
953.50 116.4701
953.60 116.4817
953.70 116.4933
953.80 116.5049
953.90 116.5165
954.00 116.5281
954.10 116.5397
954.20 116.5514
954.30 116.563
954.40 116.5746
954.50 116.5862
954.60 116.5978
954.70 116.6094
954.80 116.621
954.90 116.6327
955.00 116.6443
955.10 116.6559
955.20 116.6675
955.30 116.6791
955.40 116.6907
955.50 116.7023
955.60 116.714
955.70 116.7256
955.80 116.7372
955.90 116.7488
956.00 116.7604
956.10 116.772
956.20 116.7837
956.30 116.7953
956.40 116.8079
956.50 116.8231
956.60 116.8383
956.70 116.8535
956.80 116.8688
956.90 116.884
957.00 116.8992
957.10 116.9144
957.20 116.9296
957.30 116.9449
957.40 116.9601
957.50 116.9753
957.60 116.9905
957.70 117.0057
957.80 117.021
957.90 117.0362
958.00 117.0514
958.10 117.0666
958.20 117.0818
958.30 117.097
958.40 117.1123
958.50 117.1275
958.60 117.1427
958.70 117.1579
958.80 117.1731
958.90 117.1884
959.00 117.2036
959.10 117.2188
959.20 117.234
959.30 117.2492
959.40 117.2644
959.50 117.2797
959.60 117.2949
959.70 117.3101
959.80 117.3253
959.90 117.3405
960.00 117.3558
960.10 117.3466
960.20 117.3052
960.30 117.2638
960.40 117.2224
960.50 117.181
960.60 117.1396
960.70 117.0982
960.80 117.0568
960.90 117.0154
961.00 116.974
961.10 116.9326
961.20 116.8912
961.30 116.8498
961.40 116.8084
961.50 116.767
961.60 116.7256
961.70 116.6842
961.80 116.6428
961.90 116.6014
962.00 116.56
962.10 116.5186
962.20 116.4772
962.30 116.4358
962.40 116.3944
962.50 116.353
962.60 116.3116
962.70 116.2702
962.80 116.2288
962.90 116.1874
963.00 116.146
963.10 116.1046
963.20 116.0632
963.30 116.0218
963.40 115.9805
963.50 115.9391
963.60 115.8977
963.70 115.8563
963.80 115.8691
963.90 115.9568
964.00 116.0445
964.10 116.1322
964.20 116.2199
964.30 116.3076
964.40 116.3953
964.50 116.483
964.60 116.5707
964.70 116.6585
964.80 116.7462
964.90 116.8339
965.00 116.9216
965.10 117.0093
965.20 117.097
965.30 117.1847
965.40 117.2724
965.50 117.3601
965.60 117.4478
965.70 117.5355
965.80 117.6233
965.90 117.711
966.00 117.7987
966.10 117.8864
966.20 117.9741
966.30 118.0618
966.40 118.1495
966.50 118.2372
966.60 118.3249
966.70 118.4126
966.80 118.5003
966.90 118.5881
967.00 118.6758
967.10 118.7635
967.20 118.8512
967.30 118.9389
967.40 119.0266
967.50 119.0974
967.60 119.1203
967.70 119.1432
967.80 119.166
967.90 119.1889
968.00 119.2118
968.10 119.2346
968.20 119.2575
968.30 119.2804
968.40 119.3032
968.50 119.3261
968.60 119.349
968.70 119.3718
968.80 119.3947
968.90 119.4176
969.00 119.4404
969.10 119.4633
969.20 119.4861
969.30 119.509
969.40 119.5319
969.50 119.5547
969.60 119.5776
969.70 119.6005
969.80 119.6233
969.90 119.6462
970.00 119.6691
970.10 119.6919
970.20 119.7148
970.30 119.7377
970.40 119.7605
970.50 119.7834
970.60 119.8063
970.70 119.8291
970.80 119.852
970.90 119.8748
971.00 119.8977
971.10 119.9206
971.20 119.9434
971.30 120.0169
971.40 120.0936
971.50 120.1702
971.60 120.2469
971.70 120.3236
971.80 120.4002
971.90 120.4769
972.00 120.5536
972.10 120.6303
972.20 120.7069
972.30 120.7836
972.40 120.8603
972.50 120.9369
972.60 121.0136
972.70 121.0903
972.80 121.167
972.90 121.2436
973.00 121.3203
973.10 121.397
973.20 121.4736
973.30 121.5503
973.40 121.627
973.50 121.7037
973.60 121.7803
973.70 121.857
973.80 121.9337
973.90 122.0104
974.00 122.087
974.10 122.1637
974.20 122.2404
974.30 122.317
974.40 122.3937
974.50 122.4704
974.60 122.5471
974.70 122.6237
974.80 122.7004
974.90 122.7771
975.00 122.8806
975.10 123.0145
975.20 123.1485
975.30 123.2824
975.40 123.4163
975.50 123.5502
975.60 123.6841
975.70 123.818
975.80 123.9519
975.90 124.0858
976.00 124.2197
976.10 124.3536
976.20 124.4875
976.30 124.6214
976.40 124.7553
976.50 124.8892
976.60 125.0231
976.70 125.157
976.80 125.2909
976.90 125.4248
977.00 125.5588
977.10 125.6927
977.20 125.8266
977.30 125.9605
977.40 126.0944
977.50 126.2283
977.60 126.3622
977.70 126.4961
977.80 126.63
977.90 126.7639
978.00 126.8978
978.10 127.0317
978.20 127.1656
978.30 127.2995
978.40 127.4334
978.50 127.5673
978.60 127.7012
978.70 127.8352
978.80 127.8333
978.90 127.8074
979.00 127.7815
979.10 127.7556
979.20 127.7298
979.30 127.7039
979.40 127.678
979.50 127.6522
979.60 127.6263
979.70 127.6004
979.80 127.5746
979.90 127.5487
980.00 127.5228
980.10 127.497
980.20 127.4711
980.30 127.4452
980.40 127.4194
980.50 127.3935
980.60 127.3676
980.70 127.3418
980.80 127.3159
980.90 127.29
981.00 127.2642
981.10 127.2383
981.20 127.2124
981.30 127.1865
981.40 127.1607
981.50 127.1348
981.60 127.1089
981.70 127.0831
981.80 127.0572
981.90 127.0313
982.00 127.0055
982.10 126.9796
982.20 126.9537
982.30 126.9279
982.40 126.902
982.50 126.8649
982.60 126.6981
982.70 126.5314
982.80 126.3647
982.90 126.1979
983.00 126.0312
983.10 125.8645
983.20 125.6977
983.30 125.531
983.40 125.3643
983.50 125.1975
983.60 125.0308
983.70 124.8641
983.80 124.6973
983.90 124.5306
984.00 124.3639
984.10 124.1971
984.20 124.0304
984.30 123.8637
984.40 123.6969
984.50 123.5302
984.60 123.3635
984.70 123.1967
984.80 123.03
984.90 122.8633
985.00 122.6965
985.10 122.5298
985.20 122.3631
985.30 122.1963
985.40 122.0296
985.50 121.8629
985.60 121.6961
985.70 121.5294
985.80 121.3627
985.90 121.1959
986.00 121.0292
986.10 120.8625
986.20 120.6957
986.30 120.5229
986.40 120.3181
986.50 120.1133
986.60 119.9085
986.70 119.7037
986.80 119.4988
986.90 119.294
987.00 119.0892
987.10 118.8844
987.20 118.6796
987.30 118.4748
987.40 118.27
987.50 118.0651
987.60 117.8603
987.70 117.6555
987.80 117.4507
987.90 117.2459
988.00 117.0411
988.10 116.8363
988.20 116.6314
988.30 116.4266
988.40 116.2218
988.50 116.017
988.60 115.8122
988.70 115.6074
988.80 115.4026
988.90 115.1977
989.00 114.9929
989.10 114.7881
989.20 114.5833
989.30 114.3785
989.40 114.1737
989.50 113.9689
989.60 113.764
989.70 113.5592
989.80 113.3544
989.90 113.1496
990.00 112.9448
990.10 112.743
990.20 112.5681
990.30 112.3932
990.40 112.2183
990.50 112.0434
990.60 111.8684
990.70 111.6935
990.80 111.5186
990.90 111.3437
991.00 111.1688
991.10 110.9939
991.20 110.819
991.30 110.6441
991.40 110.4692
991.50 110.2943
991.60 110.1194
991.70 109.9445
991.80 109.7696
991.90 109.5947
992.00 109.4198
992.10 109.2449
992.20 109.07
992.30 108.8951
992.40 108.7202
992.50 108.5453
992.60 108.3704
992.70 108.1955
992.80 108.0206
992.90 107.8457
993.00 107.6708
993.10 107.4959
993.20 107.321
993.30 107.1461
993.40 106.9712
993.50 106.7963
993.60 106.6214
993.70 106.4465
993.80 106.2716
993.90 106.0967
994.00 105.9737
994.10 105.8566
994.20 105.7394
994.30 105.6222
994.40 105.5051
994.50 105.3879
994.60 105.2708
994.70 105.1536
994.80 105.0365
994.90 104.9193
995.00 104.8021
995.10 104.685
995.20 104.5678
995.30 104.4507
995.40 104.3335
995.50 104.2163
995.60 104.0992
995.70 103.982
995.80 103.8649
995.90 103.7477
996.00 103.6305
996.10 103.5134
996.20 103.3962
996.30 103.2791
996.40 103.1619
996.50 103.0448
996.60 102.9276
996.70 102.8104
996.80 102.6933
996.90 102.5761
997.00 102.459
997.10 102.3418
997.20 102.2246
997.30 102.1075
997.40 101.9903
997.50 101.8732
997.60 101.756
997.70 101.6388
997.80 101.6294
997.90 101.708
998.00 101.7867
998.10 101.8654
998.20 101.944
998.30 102.0227
998.40 102.1014
998.50 102.18
998.60 102.2587
998.70 102.3374
998.80 102.416
998.90 102.4947
999.00 102.5733
999.10 102.652
999.20 102.7307
999.30 102.8093
999.40 102.888
999.50 102.9667
999.60 103.0453
999.70 103.124
999.80 103.2027
999.90 103.2813
1000.00 103.36
1000.10 103.4386
1000.20 103.5173
1000.30 103.596
1000.40 103.6746
1000.50 103.7533
1000.60 103.832
1000.70 103.9106
1000.80 103.9893
1000.90 104.0679
1001.00 104.1466
1001.10 104.2253
1001.20 104.3039
1001.30 104.3826
1001.40 104.4613
1001.50 104.5399
1001.60 104.6187
1001.70 104.6982
1001.80 104.7777
1001.90 104.8572
1002.00 104.9367
1002.10 105.0162
1002.20 105.0957
1002.30 105.1752
1002.40 105.2547
1002.50 105.3342
1002.60 105.4136
1002.70 105.4931
1002.80 105.5726
1002.90 105.6521
1003.00 105.7316
1003.10 105.8111
1003.20 105.8906
1003.30 105.9701
1003.40 106.0496
1003.50 106.1291
1003.60 106.2086
1003.70 106.2881
1003.80 106.3676
1003.90 106.4471
1004.00 106.5266
1004.10 106.6061
1004.20 106.6856
1004.30 106.7651
1004.40 106.8446
1004.50 106.9241
1004.60 107.0036
1004.70 107.0831
1004.80 107.1626
1004.90 107.2421
1005.00 107.3216
1005.10 107.4011
1005.20 107.4806
1005.30 107.5601
1005.40 107.6396
1005.50 107.7469
1005.60 107.8961
1005.70 108.0452
1005.80 108.1943
1005.90 108.3434
1006.00 108.4926
1006.10 108.6417
1006.20 108.7908
1006.30 108.94
1006.40 109.0891
1006.50 109.2382
1006.60 109.3873
1006.70 109.5365
1006.80 109.6856
1006.90 109.8347
1007.00 109.9839
1007.10 110.133
1007.20 110.2821
1007.30 110.4312
1007.40 110.5804
1007.50 110.7295
1007.60 110.8786
1007.70 111.0277
1007.80 111.1769
1007.90 111.326
1008.00 111.4751
1008.10 111.6243
1008.20 111.7734
1008.30 111.9225
1008.40 112.0716
1008.50 112.2208
1008.60 112.3699
1008.70 112.519
1008.80 112.6682
1008.90 112.8173
1009.00 112.9664
1009.10 113.1155
1009.20 113.2647
1009.30 113.4138
1009.40 113.5031
1009.50 113.5667
1009.60 113.6303
1009.70 113.694
1009.80 113.7576
1009.90 113.8212
1010.00 113.8848
1010.10 113.9485
1010.20 114.0121
1010.30 114.0757
1010.40 114.1393
1010.50 114.203
1010.60 114.2666
1010.70 114.3302
1010.80 114.3939
1010.90 114.4575
1011.00 114.5211
1011.10 114.5847
1011.20 114.6484
1011.30 114.712
1011.40 114.7756
1011.50 114.8392
1011.60 114.9029
1011.70 114.9665
1011.80 115.0301
1011.90 115.0938
1012.00 115.1574
1012.10 115.221
1012.20 115.2846
1012.30 115.3483
1012.40 115.4119
1012.50 115.4755
1012.60 115.5391
1012.70 115.6028
1012.80 115.6664
1012.90 115.73
1013.00 115.7937
1013.10 115.8573
1013.20 115.9209
1013.30 115.9308
1013.40 115.9272
1013.50 115.9236
1013.60 115.92
1013.70 115.9164
1013.80 115.9128
1013.90 115.9092
1014.00 115.9056
1014.10 115.902
1014.20 115.8984
1014.30 115.8948
1014.40 115.8912
1014.50 115.8876
1014.60 115.884
1014.70 115.8804
1014.80 115.8768
1014.90 115.8732
1015.00 115.8696
1015.10 115.866
1015.20 115.8624
1015.30 115.8588
1015.40 115.8552
1015.50 115.8516
1015.60 115.848
1015.70 115.8444
1015.80 115.8408
1015.90 115.8372
1016.00 115.8336
1016.10 115.83
1016.20 115.8264
1016.30 115.8228
1016.40 115.8192
1016.50 115.8156
1016.60 115.812
1016.70 115.8084
1016.80 115.8049
1016.90 115.8013
1017.00 115.7977
1017.10 115.7941
1017.20 115.8434
1017.30 115.9059
1017.40 115.9684
1017.50 116.0309
1017.60 116.0935
1017.70 116.156
1017.80 116.2185
1017.90 116.281
1018.00 116.3436
1018.10 116.4061
1018.20 116.4686
1018.30 116.5311
1018.40 116.5937
1018.50 116.6562
1018.60 116.7187
1018.70 116.7812
1018.80 116.8438
1018.90 116.9063
1019.00 116.9688
1019.10 117.0313
1019.20 117.0939
1019.30 117.1564
1019.40 117.2189
1019.50 117.2814
1019.60 117.344
1019.70 117.4065
1019.80 117.469
1019.90 117.5316
1020.00 117.5941
1020.10 117.6566
1020.20 117.7191
1020.30 117.7817
1020.40 117.8442
1020.50 117.9067
1020.60 117.9692
1020.70 118.0318
1020.80 118.0943
1020.90 118.1568
1021.00 118.2193
1021.10 118.2459
1021.20 118.2484
1021.30 118.251
1021.40 118.2536
1021.50 118.2561
1021.60 118.2587
1021.70 118.2612
1021.80 118.2638
1021.90 118.2663
1022.00 118.2689
1022.10 118.2715
1022.20 118.274
1022.30 118.2766
1022.40 118.2791
1022.50 118.2817
1022.60 118.2842
1022.70 118.2868
1022.80 118.2894
1022.90 118.2919
1023.00 118.2945
1023.10 118.297
1023.20 118.2996
1023.30 118.3021
1023.40 118.3047
1023.50 118.3073
1023.60 118.3098
1023.70 118.3124
1023.80 118.3149
1023.90 118.3175
1024.00 118.3201
1024.10 118.3226
1024.20 118.3252
1024.30 118.3277
1024.40 118.3303
1024.50 118.3328
1024.60 118.3354
1024.70 118.338
1024.80 118.3405
1024.90 118.3431
1025.00 118.3455
1025.10 118.3478
1025.20 118.3501
1025.30 118.3524
1025.40 118.3547
1025.50 118.357
1025.60 118.3593
1025.70 118.3616
1025.80 118.3639
1025.90 118.3662
1026.00 118.3685
1026.10 118.3708
1026.20 118.3731
1026.30 118.3754
1026.40 118.3777
1026.50 118.38
1026.60 118.3823
1026.70 118.3846
1026.80 118.3869
1026.90 118.3892
1027.00 118.3915
1027.10 118.3937
1027.20 118.396
1027.30 118.3983
1027.40 118.4006
1027.50 118.4029
1027.60 118.4052
1027.70 118.4075
1027.80 118.4098
1027.90 118.4121
1028.00 118.4144
1028.10 118.4167
1028.20 118.419
1028.30 118.4213
1028.40 118.4236
1028.50 118.4259
1028.60 118.4282
1028.70 118.4305
1028.80 118.4328
1028.90 118.4351
1029.00 118.5684
1029.10 118.7018
1029.20 118.8351
1029.30 118.9684
1029.40 119.1018
1029.50 119.2351
1029.60 119.3684
1029.70 119.5018
1029.80 119.6351
1029.90 119.7684
1030.00 119.9018
1030.10 120.0351
1030.20 120.1685
1030.30 120.3018
1030.40 120.4351
1030.50 120.5685
1030.60 120.7018
1030.70 120.8351
1030.80 120.9685
1030.90 121.1018
1031.00 121.2351
1031.10 121.3685
1031.20 121.5018
1031.30 121.6351
1031.40 121.7685
1031.50 121.9018
1031.60 122.0352
1031.70 122.1685
1031.80 122.3018
1031.90 122.4352
1032.00 122.5685
1032.10 122.7018
1032.20 122.8352
1032.30 122.9685
1032.40 123.1018
1032.50 123.2352
1032.60 123.3685
1032.70 123.5018
1032.80 123.6352
1032.90 123.7417
1033.00 123.808
1033.10 123.8743
1033.20 123.9406
1033.30 124.0069
1033.40 124.0732
1033.50 124.1395
1033.60 124.2057
1033.70 124.272
1033.80 124.3383
1033.90 124.4046
1034.00 124.4709
1034.10 124.5372
1034.20 124.6035
1034.30 124.6698
1034.40 124.7361
1034.50 124.8024
1034.60 124.8687
1034.70 124.935
1034.80 125.0013
1034.90 125.0676
1035.00 125.1338
1035.10 125.2001
1035.20 125.2664
1035.30 125.3327
1035.40 125.399
1035.50 125.4653
1035.60 125.5316
1035.70 125.5979
1035.80 125.6642
1035.90 125.7305
1036.00 125.7968
1036.10 125.8631
1036.20 125.9294
1036.30 125.9956
1036.40 126.0619
1036.50 126.1282
1036.60 126.1945
1036.70 126.2608
1036.80 126.3271
1036.90 126.3723
1037.00 126.4123
1037.10 126.4522
1037.20 126.4922
1037.30 126.5321
1037.40 126.572
1037.50 126.612
1037.60 126.6519
1037.70 126.6919
1037.80 126.7318
1037.90 126.7718
1038.00 126.8117
1038.10 126.8517
1038.20 126.8916
1038.30 126.9315
1038.40 126.9715
1038.50 127.0114
1038.60 127.0514
1038.70 127.0913
1038.80 127.1313
1038.90 127.1712
1039.00 127.2112
1039.10 127.2511
1039.20 127.291
1039.30 127.331
1039.40 127.3709
1039.50 127.4109
1039.60 127.4508
1039.70 127.4908
1039.80 127.5307
1039.90 127.5707
1040.00 127.6106
1040.10 127.6505
1040.20 127.6905
1040.30 127.7304
1040.40 127.7704
1040.50 127.8103
1040.60 127.8503
1040.70 127.8902
1040.80 127.9302
1040.90 127.9626
1041.00 127.995
1041.10 128.0274
1041.20 128.0599
1041.30 128.0923
1041.40 128.1247
1041.50 128.1572
1041.60 128.1896
1041.70 128.222
1041.80 128.2545
1041.90 128.2869
1042.00 128.3193
1042.10 128.3518
1042.20 128.3842
1042.30 128.4166
1042.40 128.4491
1042.50 128.4815
1042.60 128.5139
1042.70 128.5464
1042.80 128.5788
1042.90 128.6112
1043.00 128.6436
1043.10 128.6761
1043.20 128.7085
1043.30 128.7409
1043.40 128.7734
1043.50 128.8058
1043.60 128.8382
1043.70 128.8707
1043.80 128.9031
1043.90 128.9355
1044.00 128.968
1044.10 129.0004
1044.20 129.0328
1044.30 129.0653
1044.40 129.0977
1044.50 129.1301
1044.60 129.1626
1044.70 129.195
1044.80 129.2294
1044.90 129.2815
1045.00 129.3336
1045.10 129.3858
1045.20 129.4379
1045.30 129.49
1045.40 129.5422
1045.50 129.5943
1045.60 129.6464
1045.70 129.6986
1045.80 129.7507
1045.90 129.8028
1046.00 129.8549
1046.10 129.9071
1046.20 129.9592
1046.30 130.0113
1046.40 130.0635
1046.50 130.1156
1046.60 130.1677
1046.70 130.2199
1046.80 130.272
1046.90 130.3241
1047.00 130.3763
1047.10 130.4284
1047.20 130.4805
1047.30 130.5326
1047.40 130.5848
1047.50 130.6369
1047.60 130.689
1047.70 130.7412
1047.80 130.7933
1047.90 130.8454
1048.00 130.8976
1048.10 130.9497
1048.20 131.0018
1048.30 131.0539
1048.40 131.1061
1048.50 131.1582
1048.60 131.2103
1048.70 131.2625
1048.80 131.3079
1048.90 131.2934
1049.00 131.2789
1049.10 131.2644
1049.20 131.2499
1049.30 131.2353
1049.40 131.2208
1049.50 131.2063
1049.60 131.1918
1049.70 131.1773
1049.80 131.1627
1049.90 131.1482
1050.00 131.1337
1050.10 131.1192
1050.20 131.1047
1050.30 131.0901
1050.40 131.0756
1050.50 131.0611
1050.60 131.0466
1050.70 131.032
1050.80 131.0175
1050.90 131.003
1051.00 130.9885
1051.10 130.974
1051.20 130.9594
1051.30 130.9449
1051.40 130.9304
1051.50 130.9159
1051.60 130.9014
1051.70 130.8868
1051.80 130.8723
1051.90 130.8578
1052.00 130.8433
1052.10 130.8288
1052.20 130.8142
1052.30 130.7997
1052.40 130.7852
1052.50 130.7707
1052.60 130.7562
1052.70 130.7416
1052.80 130.7271
1052.90 130.6779
1053.00 130.6288
1053.10 130.5796
1053.20 130.5304
1053.30 130.4812
1053.40 130.432
1053.50 130.3829
1053.60 130.3337
1053.70 130.2845
1053.80 130.2353
1053.90 130.1861
1054.00 130.137
1054.10 130.0878
1054.20 130.0386
1054.30 129.9894
1054.40 129.9402
1054.50 129.8911
1054.60 129.8419
1054.70 129.7927
1054.80 129.7435
1054.90 129.6943
1055.00 129.6452
1055.10 129.596
1055.20 129.5468
1055.30 129.4976
1055.40 129.4484
1055.50 129.3993
1055.60 129.3501
1055.70 129.3009
1055.80 129.2517
1055.90 129.2025
1056.00 129.1534
1056.10 129.1042
1056.20 129.055
1056.30 129.0058
1056.40 128.9566
1056.50 128.9075
1056.60 128.8583
1056.70 128.8091
1056.80 128.7599
1056.90 128.7602
1057.00 128.7729
1057.10 128.7856
1057.20 128.7982
1057.30 128.8109
1057.40 128.8236
1057.50 128.8362
1057.60 128.8489
1057.70 128.8616
1057.80 128.8742
1057.90 128.8869
1058.00 128.8996
1058.10 128.9122
1058.20 128.9249
1058.30 128.9376
1058.40 128.9502
1058.50 128.9629
1058.60 128.9756
1058.70 128.9882
1058.80 129.0009
1058.90 129.0136
1059.00 129.0262
1059.10 129.0389
1059.20 129.0516
1059.30 129.0642
1059.40 129.0769
1059.50 129.0896
1059.60 129.1022
1059.70 129.1149
1059.80 129.1276
1059.90 129.1402
1060.00 129.1529
1060.10 129.1656
1060.20 129.1782
1060.30 129.1909
1060.40 129.2036
1060.50 129.2162
1060.60 129.2289
1060.70 129.2416
1060.80 129.2542
1060.90 129.304
1061.00 129.3909
1061.10 129.4777
1061.20 129.5646
1061.30 129.6514
1061.40 129.7383
1061.50 129.8251
1061.60 129.912
1061.70 129.9989
1061.80 130.0857
1061.90 130.1726
1062.00 130.2594
1062.10 130.3463
1062.20 130.4332
1062.30 130.52
1062.40 130.6069
1062.50 130.6937
1062.60 130.7806
1062.70 130.8674
1062.80 130.9543
1062.90 131.0412
1063.00 131.128
1063.10 131.2149
1063.20 131.3017
1063.30 131.3886
1063.40 131.4755
1063.50 131.5623
1063.60 131.6492
1063.70 131.736
1063.80 131.8229
1063.90 131.9097
1064.00 131.9966
1064.10 132.0835
1064.20 132.1703
1064.30 132.2572
1064.40 132.344
1064.50 132.4309
1064.60 132.5178
1064.70 132.6046
1064.80 132.6915
1064.90 132.7783
1065.00 132.8626
1065.10 132.9469
1065.20 133.0312
1065.30 133.1156
1065.40 133.1999
1065.50 133.2842
1065.60 133.3685
1065.70 133.4528
1065.80 133.5371
1065.90 133.6214
1066.00 133.7057
1066.10 133.79
1066.20 133.8743
1066.30 133.9586
1066.40 134.0429
1066.50 134.1272
1066.60 134.2115
1066.70 134.2958
1066.80 134.3801
1066.90 134.4644
1067.00 134.5487
1067.10 134.633
1067.20 134.7174
1067.30 134.8017
1067.40 134.886
1067.50 134.9703
1067.60 135.0546
1067.70 135.1389
1067.80 135.2232
1067.90 135.3075
1068.00 135.3918
1068.10 135.4761
1068.20 135.5604
1068.30 135.6447
1068.40 135.729
1068.50 135.8133
1068.60 135.8976
1068.70 135.9819
1068.80 136.0662
1068.90 136.1505
1069.00 136.2391
1069.10 136.332
1069.20 136.4249
1069.30 136.5178
1069.40 136.6106
1069.50 136.7035
1069.60 136.7964
1069.70 136.8893
1069.80 136.9821
1069.90 137.075
1070.00 137.1679
1070.10 137.2608
1070.20 137.3536
1070.30 137.4465
1070.40 137.5394
1070.50 137.6323
1070.60 137.7251
1070.70 137.818
1070.80 137.9109
1070.90 138.0038
1071.00 138.0966
1071.10 138.1895
1071.20 138.2824
1071.30 138.3753
1071.40 138.4681
1071.50 138.561
1071.60 138.6539
1071.70 138.7468
1071.80 138.8396
1071.90 138.9325
1072.00 139.0254
1072.10 139.1183
1072.20 139.2112
1072.30 139.304
1072.40 139.3969
1072.50 139.4898
1072.60 139.5827
1072.70 139.6755
1072.80 139.7684
1072.90 139.8613
1073.00 139.9542
1073.10 140.0355
1073.20 140.1156
1073.30 140.1957
1073.40 140.2759
1073.50 140.356
1073.60 140.4361
1073.70 140.5162
1073.80 140.5963
1073.90 140.6764
1074.00 140.7565
1074.10 140.8366
1074.20 140.9167
1074.30 140.9968
1074.40 141.0769
1074.50 141.157
1074.60 141.2371
1074.70 141.3172
1074.80 141.3973
1074.90 141.4774
1075.00 141.5575
1075.10 141.6376
1075.20 141.7178
1075.30 141.7979
1075.40 141.878
1075.50 141.9581
1075.60 142.0382
1075.70 142.1183
1075.80 142.1984
1075.90 142.2785
1076.00 142.3586
1076.10 142.4387
1076.20 142.5188
1076.30 142.5989
1076.40 142.679
1076.50 142.7591
1076.60 142.8392
1076.70 142.9193
1076.80 142.9994
1076.90 143.0795
1077.00 143.1596
1077.10 143.2364
1077.20 143.2829
1077.30 143.3295
1077.40 143.376
1077.50 143.4226
1077.60 143.4691
1077.70 143.5157
1077.80 143.5622
1077.90 143.6088
1078.00 143.6553
1078.10 143.7019
1078.20 143.7484
1078.30 143.795
1078.40 143.8415
1078.50 143.8881
1078.60 143.9346
1078.70 143.9812
1078.80 144.0277
1078.90 144.0743
1079.00 144.1208
1079.10 144.1674
1079.20 144.2139
1079.30 144.2605
1079.40 144.307
1079.50 144.3536
1079.60 144.4001
1079.70 144.4467
1079.80 144.4932
1079.90 144.5398
1080.00 144.5863
1080.10 144.6329
1080.20 144.6794
1080.30 144.726
1080.40 144.7725
1080.50 144.8191
1080.60 144.8656
1080.70 144.9122
1080.80 144.9587
1080.90 145.0053
1081.00 145.0518
1081.10 145.0984
1081.20 145.1923
1081.30 145.3965
1081.40 145.6008
1081.50 145.8051
1081.60 146.0093
1081.70 146.2136
1081.80 146.4179
1081.90 146.6221
1082.00 146.8264
1082.10 147.0307
1082.20 147.2349
1082.30 147.4392
1082.40 147.6435
1082.50 147.8477
1082.60 148.052
1082.70 148.2563
1082.80 148.4605
1082.90 148.6648
1083.00 148.8691
1083.10 149.0734
1083.20 149.2776
1083.30 149.4819
1083.40 149.6862
1083.50 149.8904
1083.60 150.0947
1083.70 150.299
1083.80 150.5032
1083.90 150.7075
1084.00 150.9118
1084.10 151.116
1084.20 151.3203
1084.30 151.5246
1084.40 151.7288
1084.50 151.9331
1084.60 152.1374
1084.70 152.3416
1084.80 152.5459
1084.90 152.7502
1085.00 152.9544
1085.10 153.1587
1085.20 153.363
1085.30 153.5134
1085.40 153.5383
1085.50 153.5632
1085.60 153.5881
1085.70 153.613
1085.80 153.6379
1085.90 153.6628
1086.00 153.6877
1086.10 153.7126
1086.20 153.7375
1086.30 153.7624
1086.40 153.7873
1086.50 153.8122
1086.60 153.8371
1086.70 153.8621
1086.80 153.887
1086.90 153.9119
1087.00 153.9368
1087.10 153.9617
1087.20 153.9866
1087.30 154.0115
1087.40 154.0364
1087.50 154.0613
1087.60 154.0862
1087.70 154.1111
1087.80 154.136
1087.90 154.1609
1088.00 154.1858
1088.10 154.2107
1088.20 154.2356
1088.30 154.2605
1088.40 154.2854
1088.50 154.3103
1088.60 154.3352
1088.70 154.3601
1088.80 154.385
1088.90 154.4099
1089.00 154.4348
1089.10 154.4597
1089.20 154.4846
1089.30 154.5095
1089.40 154.5412
1089.50 154.5886
1089.60 154.6361
1089.70 154.6836
1089.80 154.7311
1089.90 154.7786
1090.00 154.8261
1090.10 154.8735
1090.20 154.921
1090.30 154.9685
1090.40 155.016
1090.50 155.0635
1090.60 155.111
1090.70 155.1584
1090.80 155.2059
1090.90 155.2534
1091.00 155.3009
1091.10 155.3484
1091.20 155.3959
1091.30 155.4433
1091.40 155.4908
1091.50 155.5383
1091.60 155.5858
1091.70 155.6333
1091.80 155.6808
1091.90 155.7282
1092.00 155.7757
1092.10 155.8232
1092.20 155.8707
1092.30 155.9182
1092.40 155.9657
1092.50 156.0132
1092.60 156.0606
1092.70 156.1081
1092.80 156.1556
1092.90 156.2031
1093.00 156.2506
1093.10 156.2981
1093.20 156.3455
1093.30 156.393
1093.40 156.4405
1093.50 156.4843
1093.60 156.5133
1093.70 156.5423
1093.80 156.5713
1093.90 156.6003
1094.00 156.6294
1094.10 156.6584
1094.20 156.6874
1094.30 156.7164
1094.40 156.7454
1094.50 156.7744
1094.60 156.8034
1094.70 156.8325
1094.80 156.8615
1094.90 156.8905
1095.00 156.9195
1095.10 156.9485
1095.20 156.9775
1095.30 157.0065
1095.40 157.0356
1095.50 157.0646
1095.60 157.0936
1095.70 157.1226
1095.80 157.1516
1095.90 157.1806
1096.00 157.2096
1096.10 157.2387
1096.20 157.2677
1096.30 157.2967
1096.40 157.3257
1096.50 157.3547
1096.60 157.3837
1096.70 157.4127
1096.80 157.4418
1096.90 157.4708
1097.00 157.4998
1097.10 157.5288
1097.20 157.5578
1097.30 157.5868
1097.40 157.6158
1097.50 157.6449
1097.60 157.6739
1097.70 157.7168
1097.80 157.7597
1097.90 157.8026
1098.00 157.8456
1098.10 157.8885
1098.20 157.9314
1098.30 157.9743
1098.40 158.0173
1098.50 158.0602
1098.60 158.1031
1098.70 158.146
1098.80 158.189
1098.90 158.2319
1099.00 158.2748
1099.10 158.3177
1099.20 158.3607
1099.30 158.4036
1099.40 158.4465
1099.50 158.4894
1099.60 158.5323
1099.70 158.5753
1099.80 158.6182
1099.90 158.6611
1100.00 158.704
1100.10 158.747
1100.20 158.7899
1100.30 158.8328
1100.40 158.8757
1100.50 158.9187
1100.60 158.9616
1100.70 159.0045
1100.80 159.0474
1100.90 159.0904
1101.00 159.1333
1101.10 159.1762
1101.20 159.2191
1101.30 159.2621
1101.40 159.305
1101.50 159.3479
1101.60 159.3908
1101.70 159.4337
1101.80 159.3889
1101.90 159.3063
1102.00 159.2238
1102.10 159.1413
1102.20 159.0587
1102.30 158.9762
1102.40 158.8937
1102.50 158.8111
1102.60 158.7286
1102.70 158.6461
1102.80 158.5635
1102.90 158.481
1103.00 158.3985
1103.10 158.316
1103.20 158.2334
1103.30 158.1509
1103.40 158.0684
1103.50 157.9858
1103.60 157.9033
1103.70 157.8208
1103.80 157.7382
1103.90 157.6557
1104.00 157.5732
1104.10 157.4907
1104.20 157.4081
1104.30 157.3256
1104.40 157.2431
1104.50 157.1605
1104.60 157.078
1104.70 156.9955
1104.80 156.9129
1104.90 156.8304
1105.00 156.7479
1105.10 156.6654
1105.20 156.5828
1105.30 156.5003
1105.40 156.4178
1105.50 156.3352
1105.60 156.2527
1105.70 156.1702
1105.80 156.0876
1105.90 156.0327
1106.00 156.042
1106.10 156.0514
1106.20 156.0607
1106.30 156.0701
1106.40 156.0794
1106.50 156.0888
1106.60 156.0981
1106.70 156.1075
1106.80 156.1168
1106.90 156.1262
1107.00 156.1355
1107.10 156.1449
1107.20 156.1542
1107.30 156.1636
1107.40 156.1729
1107.50 156.1823
1107.60 156.1916
1107.70 156.201
1107.80 156.2103
1107.90 156.2197
1108.00 156.229
1108.10 156.2384
1108.20 156.2477
1108.30 156.2571
1108.40 156.2664
1108.50 156.2758
1108.60 156.2851
1108.70 156.2945
1108.80 156.3038
1108.90 156.3132
1109.00 156.3225
1109.10 156.3319
1109.20 156.3412
1109.30 156.3506
1109.40 156.3599
1109.50 156.3693
1109.60 156.3786
1109.70 156.388
1109.80 156.3973
1109.90 156.4067
1110.00 156.416
1110.10 156.3967
1110.20 156.3702
1110.30 156.3438
1110.40 156.3173
1110.50 156.2909
1110.60 156.2644
1110.70 156.2379
1110.80 156.2115
1110.90 156.185
1111.00 156.1586
1111.10 156.1321
1111.20 156.1056
1111.30 156.0792
1111.40 156.0527
1111.50 156.0263
1111.60 155.9998
1111.70 155.9733
1111.80 155.9469
1111.90 155.9204
1112.00 155.8939
1112.10 155.8675
1112.20 155.841
1112.30 155.8146
1112.40 155.7881
1112.50 155.7616
1112.60 155.7352
1112.70 155.7087
1112.80 155.6823
1112.90 155.6558
1113.00 155.6293
1113.10 155.6029
1113.20 155.5764
1113.30 155.55
1113.40 155.5235
1113.50 155.497
1113.60 155.4706
1113.70 155.4441
1113.80 155.4176
1113.90 155.3912
1114.00 155.3647
1114.10 155.3383
1114.20 155.3322
1114.30 155.3738
1114.40 155.4154
1114.50 155.457
1114.60 155.4986
1114.70 155.5402
1114.80 155.5818
1114.90 155.6234
1115.00 155.6651
1115.10 155.7067
1115.20 155.7483
1115.30 155.7899
1115.40 155.8315
1115.50 155.8731
1115.60 155.9147
1115.70 155.9563
1115.80 155.9979
1115.90 156.0395
1116.00 156.0811
1116.10 156.1227
1116.20 156.1643
1116.30 156.2059
1116.40 156.2475
1116.50 156.2891
1116.60 156.3307
1116.70 156.3723
1116.80 156.4139
1116.90 156.4555
1117.00 156.4971
1117.10 156.5387
1117.20 156.5803
1117.30 156.6219
1117.40 156.6635
1117.50 156.7051
1117.60 156.7467
1117.70 156.7883
1117.80 156.8299
1117.90 156.8715
1118.00 156.9131
1118.10 156.9547
1118.20 156.9964
1118.30 157.038
1118.40 157.0789
1118.50 157.1193
1118.60 157.1597
1118.70 157.2001
1118.80 157.2405
1118.90 157.281
1119.00 157.3214
1119.10 157.3618
1119.20 157.4022
1119.30 157.4427
1119.40 157.4831
1119.50 157.5235
1119.60 157.5639
1119.70 157.6044
1119.80 157.6448
1119.90 157.6852
1120.00 157.7256
1120.10 157.7661
1120.20 157.8065
1120.30 157.8469
1120.40 157.8873
1120.50 157.9277
1120.60 157.9682
1120.70 158.0086
1120.80 158.049
1120.90 158.0894
1121.00 158.1299
1121.10 158.1703
1121.20 158.2107
1121.30 158.2511
1121.40 158.2916
1121.50 158.332
1121.60 158.3724
1121.70 158.4128
1121.80 158.4533
1121.90 158.4937
1122.00 158.5341
1122.10 158.5745
1122.20 158.6149
1122.30 158.6554
1122.40 158.6958
1122.50 158.7362
1122.60 158.7392
1122.70 158.7381
1122.80 158.737
1122.90 158.7358
1123.00 158.7347
1123.10 158.7335
1123.20 158.7324
1123.30 158.7312
1123.40 158.7301
1123.50 158.729
1123.60 158.7278
1123.70 158.7267
1123.80 158.7255
1123.90 158.7244
1124.00 158.7233
1124.10 158.7221
1124.20 158.721
1124.30 158.7198
1124.40 158.7187
1124.50 158.7176
1124.60 158.7164
1124.70 158.7153
1124.80 158.7141
1124.90 158.713
1125.00 158.7119
1125.10 158.7107
1125.20 158.7096
1125.30 158.7084
1125.40 158.7073
1125.50 158.7062
1125.60 158.705
1125.70 158.7039
1125.80 158.7027
1125.90 158.7016
1126.00 158.7005
1126.10 158.6993
1126.20 158.6982
1126.30 158.697
1126.40 158.6959
1126.50 158.6948
1126.60 158.6936
1126.70 158.6845
1126.80 158.6436
1126.90 158.6026
1127.00 158.5617
1127.10 158.5208
1127.20 158.4799
1127.30 158.4389
1127.40 158.398
1127.50 158.3571
1127.60 158.3161
1127.70 158.2752
1127.80 158.2343
1127.90 158.1933
1128.00 158.1524
1128.10 158.1115
1128.20 158.0705
1128.30 158.0296
1128.40 157.9887
1128.50 157.9477
1128.60 157.9068
1128.70 157.8659
1128.80 157.825
1128.90 157.784
1129.00 157.7431
1129.10 157.7022
1129.20 157.6612
1129.30 157.6203
1129.40 157.5794
1129.50 157.5384
1129.60 157.4975
1129.70 157.4566
1129.80 157.4156
1129.90 157.3747
1130.00 157.3338
1130.10 157.2928
1130.20 157.2519
1130.30 157.211
1130.40 157.1701
1130.50 157.1291
1130.60 157.0882
1130.70 157.0473
1130.80 157.0063
1130.90 156.9458
1131.00 156.8397
1131.10 156.7336
1131.20 156.6276
1131.30 156.5215
1131.40 156.4154
1131.50 156.3093
1131.60 156.2032
1131.70 156.0971
1131.80 155.991
1131.90 155.8849
1132.00 155.7788
1132.10 155.6727
1132.20 155.5666
1132.30 155.4605
1132.40 155.3544
1132.50 155.2483
1132.60 155.1422
1132.70 155.0361
1132.80 154.93
1132.90 154.8239
1133.00 154.7178
1133.10 154.6117
1133.20 154.5056
1133.30 154.3995
1133.40 154.2934
1133.50 154.1873
1133.60 154.0812
1133.70 153.9751
1133.80 153.869
1133.90 153.7629
1134.00 153.6568
1134.10 153.5507
1134.20 153.4446
1134.30 153.3385
1134.40 153.2324
1134.50 153.1263
1134.60 153.0202
1134.70 152.9141
1134.80 152.808
1134.90 152.7019
1135.00 152.5958
1135.10 152.5251
1135.20 152.5074
1135.30 152.4897
1135.40 152.4719
1135.50 152.4542
1135.60 152.4365
1135.70 152.4188
1135.80 152.4011
1135.90 152.3834
1136.00 152.3656
1136.10 152.3479
1136.20 152.3302
1136.30 152.3125
1136.40 152.2948
1136.50 152.2771
1136.60 152.2593
1136.70 152.2416
1136.80 152.2239
1136.90 152.2062
1137.00 152.1885
1137.10 152.1707
1137.20 152.153
1137.30 152.1353
1137.40 152.1176
1137.50 152.0999
1137.60 152.0822
1137.70 152.0644
1137.80 152.0467
1137.90 152.029
1138.00 152.0113
1138.10 151.9936
1138.20 151.9759
1138.30 151.9581
1138.40 151.9404
1138.50 151.9227
1138.60 151.905
1138.70 151.8873
1138.80 151.8695
1138.90 151.8518
1139.00 151.8341
1139.10 151.8164
1139.20 151.7987
1139.30 151.8112
1139.40 151.8692
1139.50 151.9272
1139.60 151.9852
1139.70 152.0431
1139.80 152.1011
1139.90 152.1591
1140.00 152.2171
1140.10 152.275
1140.20 152.333
1140.30 152.391
1140.40 152.449
1140.50 152.5069
1140.60 152.5649
1140.70 152.6229
1140.80 152.6809
1140.90 152.7388
1141.00 152.7968
1141.10 152.8548
1141.20 152.9127
1141.30 152.9707
1141.40 153.0287
1141.50 153.0867
1141.60 153.1446
1141.70 153.2026
1141.80 153.2606
1141.90 153.3186
1142.00 153.3765
1142.10 153.4345
1142.20 153.4925
1142.30 153.5505
1142.40 153.6084
1142.50 153.6664
1142.60 153.7244
1142.70 153.7824
1142.80 153.8403
1142.90 153.8983
1143.00 153.9563
1143.10 154.0143
1143.20 154.0722
1143.30 154.1302
1143.40 154.1882
1143.50 154.2807
1143.60 154.4539
1143.70 154.627
1143.80 154.8002
1143.90 154.9733
1144.00 155.1465
1144.10 155.3197
1144.20 155.4928
1144.30 155.666
1144.40 155.8391
1144.50 156.0123
1144.60 156.1854
1144.70 156.3586
1144.80 156.5317
1144.90 156.7049
1145.00 156.8781
1145.10 157.0512
1145.20 157.2244
1145.30 157.3975
1145.40 157.5707
1145.50 157.7438
1145.60 157.917
1145.70 158.0902
1145.80 158.2633
1145.90 158.4365
1146.00 158.6096
1146.10 158.7828
1146.20 158.9559
1146.30 159.1291
1146.40 159.3023
1146.50 159.4754
1146.60 159.6486
1146.70 159.8217
1146.80 159.9949
1146.90 160.168
1147.00 160.3412
1147.10 160.5143
1147.20 160.6875
1147.30 160.8607
1147.40 161.0338
1147.50 161.207
1147.60 161.3801
1147.70 161.5425
1147.80 161.6619
1147.90 161.7814
1148.00 161.9008
1148.10 162.0202
1148.20 162.1396
1148.30 162.259
1148.40 162.3784
1148.50 162.4978
1148.60 162.6172
1148.70 162.7366
1148.80 162.856
1148.90 162.9754
1149.00 163.0949
1149.10 163.2143
1149.20 163.3337
1149.30 163.4531
1149.40 163.5725
1149.50 163.6919
1149.60 163.8113
1149.70 163.9307
1149.80 164.0501
1149.90 164.1695
1150.00 164.2889
1150.10 164.4083
1150.20 164.5278
1150.30 164.6472
1150.40 164.7666
1150.50 164.886
1150.60 165.0054
1150.70 165.1248
1150.80 165.2442
1150.90 165.3636
1151.00 165.483
1151.10 165.6024
1151.20 165.7218
1151.30 165.8412
1151.40 165.9607
1151.50 166.0801
1151.60 166.1995
1151.70 166.3189
1151.80 166.4383
1151.90 166.5577
1152.00 166.5461
1152.10 166.5344
1152.20 166.5228
1152.30 166.5112
1152.40 166.4995
1152.50 166.4879
1152.60 166.4763
1152.70 166.4647
1152.80 166.453
1152.90 166.4414
1153.00 166.4298
1153.10 166.4181
1153.20 166.4065
1153.30 166.3949
1153.40 166.3833
1153.50 166.3716
1153.60 166.36
1153.70 166.3484
1153.80 166.3367
1153.90 166.3251
1154.00 166.3135
1154.10 166.3018
1154.20 166.2902
1154.30 166.2786
1154.40 166.267
1154.50 166.2553
1154.60 166.2437
1154.70 166.2321
1154.80 166.2204
1154.90 166.2088
1155.00 166.1972
1155.10 166.1855
1155.20 166.1739
1155.30 166.1623
1155.40 166.1507
1155.50 166.139
1155.60 166.1274
1155.70 166.1158
1155.80 166.1041
1155.90 166.0925
1156.00 166.0809
1156.10 166.0692
1156.20 166.0136
1156.30 165.947
1156.40 165.8803
1156.50 165.8137
1156.60 165.747
1156.70 165.6804
1156.80 165.6138
1156.90 165.5471
1157.00 165.4805
1157.10 165.4138
1157.20 165.3472
1157.30 165.2806
1157.40 165.2139
1157.50 165.1473
1157.60 165.0806
1157.70 165.014
1157.80 164.9473
1157.90 164.8807
1158.00 164.8141
1158.10 164.7474
1158.20 164.6808
1158.30 164.6141
1158.40 164.5475
1158.50 164.4809
1158.60 164.4142
1158.70 164.3476
1158.80 164.2809
1158.90 164.2143
1159.00 164.1476
1159.10 164.081
1159.20 164.0144
1159.30 163.9477
1159.40 163.8811
1159.50 163.8144
1159.60 163.7478
1159.70 163.6812
1159.80 163.6145
1159.90 163.5479
1160.00 163.4812
1160.10 163.4146
1160.20 163.348
1160.30 163.2813
1160.40 163.2117
1160.50 163.139
1160.60 163.0664
1160.70 162.9938
1160.80 162.9212
1160.90 162.8485
1161.00 162.7759
1161.10 162.7033
1161.20 162.6306
1161.30 162.558
1161.40 162.4854
1161.50 162.4128
1161.60 162.3401
1161.70 162.2675
1161.80 162.1949
1161.90 162.1222
1162.00 162.0496
1162.10 161.977
1162.20 161.9044
1162.30 161.8317
1162.40 161.7591
1162.50 161.6865
1162.60 161.6139
1162.70 161.5412
1162.80 161.4686
1162.90 161.396
1163.00 161.3233
1163.10 161.2507
1163.20 161.1781
1163.30 161.1055
1163.40 161.0328
1163.50 160.9602
1163.60 160.8876
1163.70 160.8149
1163.80 160.7423
1163.90 160.6697
1164.00 160.5971
1164.10 160.5244
1164.20 160.4518
1164.30 160.3792
1164.40 160.3065
1164.50 160.2339
1164.60 160.1627
1164.70 160.1042
1164.80 160.0457
1164.90 159.9873
1165.00 159.9288
1165.10 159.8703
1165.20 159.8118
1165.30 159.7534
1165.40 159.6949
1165.50 159.6364
1165.60 159.5779
1165.70 159.5195
1165.80 159.461
1165.90 159.4025
1166.00 159.344
1166.10 159.2856
1166.20 159.2271
1166.30 159.1686
1166.40 159.1101
1166.50 159.0517
1166.60 158.9932
1166.70 158.9347
1166.80 158.8762
1166.90 158.8178
1167.00 158.7593
1167.10 158.7008
1167.20 158.6423
1167.30 158.5839
1167.40 158.5254
1167.50 158.4669
1167.60 158.4084
1167.70 158.35
1167.80 158.2915
1167.90 158.233
1168.00 158.1745
1168.10 158.1161
1168.20 158.0576
1168.30 157.9991
1168.40 157.9406
1168.50 157.8822
1168.60 157.8237
1168.70 157.7652
1168.80 157.7067
1168.90 157.5857
1169.00 157.4378
1169.10 157.2899
1169.20 157.142
1169.30 156.9941
1169.40 156.8462
1169.50 156.6983
1169.60 156.5504
1169.70 156.4026
1169.80 156.2547
1169.90 156.1068
1170.00 155.9589
1170.10 155.811
1170.20 155.6631
1170.30 155.5152
1170.40 155.3673
1170.50 155.2194
1170.60 155.0716
1170.70 154.9237
1170.80 154.7758
1170.90 154.6279
1171.00 154.48
1171.10 154.3321
1171.20 154.1842
1171.30 154.0363
1171.40 153.8885
1171.50 153.7406
1171.60 153.5927
1171.70 153.4448
1171.80 153.2969
1171.90 153.149
1172.00 153.0011
1172.10 152.8532
1172.20 152.7054
1172.30 152.5575
1172.40 152.4096
1172.50 152.2617
1172.60 152.1138
1172.70 151.9659
1172.80 151.818
1172.90 151.6701
1173.00 151.5222
1173.10 151.4108
1173.20 151.4451
1173.30 151.4793
1173.40 151.5136
1173.50 151.5478
1173.60 151.5821
1173.70 151.6164
1173.80 151.6506
1173.90 151.6849
1174.00 151.7192
1174.10 151.7534
1174.20 151.7877
1174.30 151.822
1174.40 151.8562
1174.50 151.8905
1174.60 151.9248
1174.70 151.959
1174.80 151.9933
1174.90 152.0276
1175.00 152.0618
1175.10 152.0961
1175.20 152.1304
1175.30 152.1646
1175.40 152.1989
1175.50 152.2332
1175.60 152.2674
1175.70 152.3017
1175.80 152.3359
1175.90 152.3702
1176.00 152.4045
1176.10 152.4387
1176.20 152.473
1176.30 152.5073
1176.40 152.5415
1176.50 152.5758
1176.60 152.6101
1176.70 152.6443
1176.80 152.6786
1176.90 152.7129
1177.00 152.7471
1177.10 152.7814
1177.20 152.8157
1177.30 152.8499
1177.40 152.898
1177.50 152.952
1177.60 153.006
1177.70 153.0601
1177.80 153.1141
1177.90 153.1681
1178.00 153.2221
1178.10 153.2761
1178.20 153.3301
1178.30 153.3842
1178.40 153.4382
1178.50 153.4922
1178.60 153.5462
1178.70 153.6002
1178.80 153.6542
1178.90 153.7082
1179.00 153.7623
1179.10 153.8163
1179.20 153.8703
1179.30 153.9243
1179.40 153.9783
1179.50 154.0323
1179.60 154.0864
1179.70 154.1404
1179.80 154.1944
1179.90 154.2484
1180.00 154.3024
1180.10 154.3564
1180.20 154.4104
1180.30 154.4645
1180.40 154.5185
1180.50 154.5725
1180.60 154.6265
1180.70 154.6805
1180.80 154.7345
1180.90 154.7885
1181.00 154.8426
1181.10 154.8966
1181.20 154.9506
1181.30 155.0046
1181.40 155.0586
1181.50 155.1126
1181.60 155.1693
1181.70 155.2495
1181.80 155.3297
1181.90 155.41
1182.00 155.4902
1182.10 155.5704
1182.20 155.6507
1182.30 155.7309
1182.40 155.8111
1182.50 155.8913
1182.60 155.9716
1182.70 156.0518
1182.80 156.132
1182.90 156.2123
1183.00 156.2925
1183.10 156.3727
1183.20 156.4529
1183.30 156.5332
1183.40 156.6134
1183.50 156.6936
1183.60 156.7739
1183.70 156.8541
1183.80 156.9343
1183.90 157.0145
1184.00 157.0948
1184.10 157.175
1184.20 157.2552
1184.30 157.3355
1184.40 157.4157
1184.50 157.4959
1184.60 157.5761
1184.70 157.6564
1184.80 157.7366
1184.90 157.8168
1185.00 157.8971
1185.10 157.9773
1185.20 158.0575
1185.30 158.1377
1185.40 158.218
1185.50 158.2982
1185.60 158.3784
1185.70 158.4587
1185.80 158.5389
1185.90 158.5614
1186.00 158.5261
1186.10 158.4909
1186.20 158.4557
1186.30 158.4204
1186.40 158.3852
1186.50 158.3499
1186.60 158.3147
1186.70 158.2795
1186.80 158.2442
1186.90 158.209
1187.00 158.1737
1187.10 158.1385
1187.20 158.1032
1187.30 158.068
1187.40 158.0328
1187.50 157.9975
1187.60 157.9623
1187.70 157.927
1187.80 157.8918
1187.90 157.8565
1188.00 157.8213
1188.10 157.7861
1188.20 157.7508
1188.30 157.7156
1188.40 157.6803
1188.50 157.6451
1188.60 157.6099
1188.70 157.5746
1188.80 157.5394
1188.90 157.5041
1189.00 157.4689
1189.10 157.4336
1189.20 157.3984
1189.30 157.3632
1189.40 157.3279
1189.50 157.2927
1189.60 157.2574
1189.70 157.2222
1189.80 157.1869
1189.90 157.1517
1190.00 157.1165
1190.10 157.0812
1190.20 156.9864
1190.30 156.8767
1190.40 156.767
1190.50 156.6573
1190.60 156.5476
1190.70 156.4379
1190.80 156.3282
1190.90 156.2185
1191.00 156.1088
1191.10 155.9991
1191.20 155.8894
1191.30 155.7797
1191.40 155.6699
1191.50 155.5602
1191.60 155.4505
1191.70 155.3408
1191.80 155.2311
1191.90 155.1214
1192.00 155.0117
1192.10 154.902
1192.20 154.7923
1192.30 154.6826
1192.40 154.5729
1192.50 154.4632
1192.60 154.3535
1192.70 154.2438
1192.80 154.1341
1192.90 154.0244
1193.00 153.9147
1193.10 153.805
1193.20 153.6952
1193.30 153.5855
1193.40 153.4758
1193.50 153.3661
1193.60 153.2564
1193.70 153.1467
1193.80 153.037
1193.90 152.9273
1194.00 152.8176
1194.10 152.7079
1194.20 152.5982
1194.30 152.4885
1194.40 152.3822
1194.50 152.3067
1194.60 152.2313
1194.70 152.1558
1194.80 152.0803
1194.90 152.0048
1195.00 151.9294
1195.10 151.8539
1195.20 151.7784
1195.30 151.7029
1195.40 151.6275
1195.50 151.552
1195.60 151.4765
1195.70 151.401
1195.80 151.3256
1195.90 151.2501
1196.00 151.1746
1196.10 151.0991
1196.20 151.0237
1196.30 150.9482
1196.40 150.8727
1196.50 150.7973
1196.60 150.7218
1196.70 150.6463
1196.80 150.5708
1196.90 150.4954
1197.00 150.4199
1197.10 150.3444
1197.20 150.2689
1197.30 150.1935
1197.40 150.118
1197.50 150.0425
1197.60 149.967
1197.70 149.8916
1197.80 149.8161
1197.90 149.7406
1198.00 149.6651
1198.10 149.5897
1198.20 149.5142
1198.30 149.4387
1198.40 149.3632
1198.50 149.2878
1198.60 149.2123
1198.70 149.1642
1198.80 149.1573
1198.90 149.1503
1199.00 149.1434
1199.10 149.1364
1199.20 149.1294
1199.30 149.1225
1199.40 149.1155
1199.50 149.1086
1199.60 149.1016
1199.70 149.0947
1199.80 149.0877
1199.90 149.0807
1200.00 149.0738
1200.10 149.0668
1200.20 149.0599
1200.30 149.0529
1200.40 149.0459
1200.50 149.039
1200.60 149.032
1200.70 149.0251
1200.80 149.0181
1200.90 149.0112
1201.00 149.0042
1201.10 148.9972
1201.20 148.9903
1201.30 148.9833
1201.40 148.9764
1201.50 148.9694
1201.60 148.9625
1201.70 148.9555
1201.80 148.9485
1201.90 148.9416
1202.00 148.9346
1202.10 148.9277
1202.20 148.9207
1202.30 148.9138
1202.40 148.9068
1202.50 148.8998
1202.60 148.8929
1202.70 148.8859
1202.80 148.879
1202.90 148.872
1203.00 148.9239
1203.10 149.015
1203.20 149.1061
1203.30 149.1972
1203.40 149.2883
1203.50 149.3794
1203.60 149.4705
1203.70 149.5616
1203.80 149.6527
1203.90 149.7438
1204.00 149.8349
1204.10 149.926
1204.20 150.0171
1204.30 150.1082
1204.40 150.1993
1204.50 150.2904
1204.60 150.3816
1204.70 150.4727
1204.80 150.5638
1204.90 150.6549
1205.00 150.746
1205.10 150.8371
1205.20 150.9282
1205.30 151.0193
1205.40 151.1104
1205.50 151.2015
1205.60 151.2926
1205.70 151.3837
1205.80 151.4748
1205.90 151.5659
1206.00 151.657
1206.10 151.7481
1206.20 151.8392
1206.30 151.9303
1206.40 152.0214
1206.50 152.1125
1206.60 152.2036
1206.70 152.2947
1206.80 152.3858
1206.90 152.4769
1207.00 152.568
1207.10 152.6592
1207.20 152.7503
1207.30 152.8901
1207.40 153.042
1207.50 153.194
1207.60 153.346
1207.70 153.498
1207.80 153.6499
1207.90 153.8019
1208.00 153.9539
1208.10 154.1059
1208.20 154.2578
1208.30 154.4098
1208.40 154.5618
1208.50 154.7138
1208.60 154.8657
1208.70 155.0177
1208.80 155.1697
1208.90 155.3217
1209.00 155.4737
1209.10 155.6256
1209.20 155.7776
1209.30 155.9296
1209.40 156.0816
1209.50 156.2335
1209.60 156.3855
1209.70 156.5375
1209.80 156.6895
1209.90 156.8414
1210.00 156.9934
1210.10 157.1454
1210.20 157.2974
1210.30 157.4493
1210.40 157.6013
1210.50 157.7533
1210.60 157.9053
1210.70 158.0573
1210.80 158.2092
1210.90 158.3612
1211.00 158.5132
1211.10 158.6652
1211.20 158.8171
1211.30 158.9691
1211.40 159.1211
1211.50 159.2731
1211.60 159.3291
1211.70 159.3744
1211.80 159.4197
1211.90 159.4651
1212.00 159.5104
1212.10 159.5557
1212.20 159.6011
1212.30 159.6464
1212.40 159.6917
1212.50 159.7371
1212.60 159.7824
1212.70 159.8278
1212.80 159.8731
1212.90 159.9184
1213.00 159.9638
1213.10 160.0091
1213.20 160.0544
1213.30 160.0998
1213.40 160.1451
1213.50 160.1904
1213.60 160.2358
1213.70 160.2811
1213.80 160.3265
1213.90 160.3718
1214.00 160.4171
1214.10 160.4625
1214.20 160.5078
1214.30 160.5531
1214.40 160.5985
1214.50 160.6438
1214.60 160.6891
1214.70 160.7345
1214.80 160.7798
1214.90 160.8252
1215.00 160.8705
1215.10 160.9158
1215.20 160.9612
1215.30 161.0065
1215.40 161.0518
1215.50 161.0972
1215.60 161.1425
1215.70 161.1878
1215.80 161.2332
1215.90 161.3763
1216.00 161.5194
1216.10 161.6625
1216.20 161.8056
1216.30 161.9487
1216.40 162.0918
1216.50 162.2349
1216.60 162.378
1216.70 162.5211
1216.80 162.6642
1216.90 162.8073
1217.00 162.9504
1217.10 163.0935
1217.20 163.2366
1217.30 163.3797
1217.40 163.5228
1217.50 163.6659
1217.60 163.809
1217.70 163.9521
1217.80 164.0952
1217.90 164.2383
1218.00 164.3814
1218.10 164.5245
1218.20 164.6676
1218.30 164.8107
1218.40 164.9538
1218.50 165.0969
1218.60 165.24
1218.70 165.3831
1218.80 165.5262
1218.90 165.6693
1219.00 165.8124
1219.10 165.9555
1219.20 166.0986
1219.30 166.2417
1219.40 166.3848
1219.50 166.5279
1219.60 166.671
1219.70 166.8141
1219.80 166.9572
1219.90 167.1003
1220.00 167.2434
1220.10 167.3784
1220.20 167.4405
1220.30 167.5025
1220.40 167.5645
1220.50 167.6266
1220.60 167.6886
1220.70 167.7506
1220.80 167.8127
1220.90 167.8747
1221.00 167.9367
1221.10 167.9988
1221.20 168.0608
1221.30 168.1228
1221.40 168.1849
1221.50 168.2469
1221.60 168.3089
1221.70 168.371
1221.80 168.433
1221.90 168.495
1222.00 168.5571
1222.10 168.6191
1222.20 168.6811
1222.30 168.7432
1222.40 168.8052
1222.50 168.8672
1222.60 168.9292
1222.70 168.9913
1222.80 169.0533
1222.90 169.1153
1223.00 169.1774
1223.10 169.2394
1223.20 169.3014
1223.30 169.3635
1223.40 169.4255
1223.50 169.4875
1223.60 169.5496
1223.70 169.6116
1223.80 169.6736
1223.90 169.7357
1224.00 169.7977
1224.10 169.8597
1224.20 169.9218
1224.30 169.9838
1224.40 170.0377
1224.50 170.0592
1224.60 170.0807
1224.70 170.1022
1224.80 170.1237
1224.90 170.1452
1225.00 170.1667
1225.10 170.1882
1225.20 170.2097
1225.30 170.2312
1225.40 170.2527
1225.50 170.2742
1225.60 170.2957
1225.70 170.3172
1225.80 170.3387
1225.90 170.3602
1226.00 170.3817
1226.10 170.4032
1226.20 170.4247
1226.30 170.4462
1226.40 170.4676
1226.50 170.4891
1226.60 170.5106
1226.70 170.5321
1226.80 170.5536
1226.90 170.5751
1227.00 170.5966
1227.10 170.6181
1227.20 170.6396
1227.30 170.6611
1227.40 170.6826
1227.50 170.7041
1227.60 170.7256
1227.70 170.7471
1227.80 170.7686
1227.90 170.7901
1228.00 170.8116
1228.10 170.8331
1228.20 170.8546
1228.30 170.8761
1228.40 170.8976
1228.50 170.9191
1228.60 170.9406
1228.70 170.943
1228.80 170.8694
1228.90 170.7958
1229.00 170.7221
1229.10 170.6485
1229.20 170.5749
1229.30 170.5012
1229.40 170.4276
1229.50 170.354
1229.60 170.2803
1229.70 170.2067
1229.80 170.1331
1229.90 170.0594
1230.00 169.9858
1230.10 169.9122
1230.20 169.8385
1230.30 169.7649
1230.40 169.6913
1230.50 169.6176
1230.60 169.544
1230.70 169.4703
1230.80 169.3967
1230.90 169.3231
1231.00 169.2494
1231.10 169.1758
1231.20 169.1022
1231.30 169.0285
1231.40 168.9549
1231.50 168.8813
1231.60 168.8076
1231.70 168.734
1231.80 168.6604
1231.90 168.5867
1232.00 168.5131
1232.10 168.4395
1232.20 168.3658
1232.30 168.2922
1232.40 168.2186
1232.50 168.1449
1232.60 168.0713
1232.70 167.9977
1232.80 167.924
1232.90 167.8504
1233.00 167.7669
1233.10 167.6439
1233.20 167.5209
1233.30 167.3979
1233.40 167.2749
1233.50 167.1519
1233.60 167.0289
1233.70 166.9059
1233.80 166.783
1233.90 166.66
1234.00 166.537
1234.10 166.414
1234.20 166.291
1234.30 166.168
1234.40 166.045
1234.50 165.922
1234.60 165.799
1234.70 165.676
1234.80 165.553
1234.90 165.43
1235.00 165.3071
1235.10 165.1841
1235.20 165.0611
1235.30 164.9381
1235.40 164.8151
1235.50 164.6921
1235.60 164.5691
1235.70 164.4461
1235.80 164.3231
1235.90 164.2001
1236.00 164.0771
1236.10 163.9541
1236.20 163.8312
1236.30 163.7082
1236.40 163.5852
1236.50 163.4622
1236.60 163.3392
1236.70 163.2162
1236.80 163.0932
1236.90 162.9702
1237.00 162.8472
1237.10 162.7242
1237.20 162.6012
1237.30 162.4897
1237.40 162.4237
1237.50 162.3578
1237.60 162.2919
1237.70 162.226
1237.80 162.16
1237.90 162.0941
1238.00 162.0282
1238.10 161.9623
1238.20 161.8963
1238.30 161.8304
1238.40 161.7645
1238.50 161.6986
1238.60 161.6326
1238.70 161.5667
1238.80 161.5008
1238.90 161.4349
1239.00 161.3689
1239.10 161.303
1239.20 161.2371
1239.30 161.1712
1239.40 161.1052
1239.50 161.0393
1239.60 160.9734
1239.70 160.9074
1239.80 160.8415
1239.90 160.7756
1240.00 160.7097
1240.10 160.6437
1240.20 160.5778
1240.30 160.5119
1240.40 160.446
1240.50 160.38
1240.60 160.3141
1240.70 160.2482
1240.80 160.1823
1240.90 160.1163
1241.00 160.0504
1241.10 159.9845
1241.20 159.9186
1241.30 159.8526
1241.40 159.7867
1241.50 159.7208
1241.60 159.6561
1241.70 159.6027
1241.80 159.5492
1241.90 159.4957
1242.00 159.4423
1242.10 159.3888
1242.20 159.3354
1242.30 159.2819
1242.40 159.2285
1242.50 159.175
1242.60 159.1216
1242.70 159.0681
1242.80 159.0146
1242.90 158.9612
1243.00 158.9077
1243.10 158.8543
1243.20 158.8008
1243.30 158.7474
1243.40 158.6939
1243.50 158.6405
1243.60 158.587
1243.70 158.5335
1243.80 158.4801
1243.90 158.4266
1244.00 158.3732
1244.10 158.3197
1244.20 158.2663
1244.30 158.2128
1244.40 158.1594
1244.50 158.1059
1244.60 158.0524
1244.70 157.999
1244.80 157.9455
1244.90 157.8921
1245.00 157.8386
1245.10 157.7852
1245.20 157.7317
1245.30 157.6783
1245.40 157.6248
1245.50 157.5713
1245.60 157.5179
1245.70 157.4644
1245.80 157.411
1245.90 157.3575
1246.00 157.4601
1246.10 157.5626
1246.20 157.6651
1246.30 157.7677
1246.40 157.8702
1246.50 157.9727
1246.60 158.0753
1246.70 158.1778
1246.80 158.2804
1246.90 158.3829
1247.00 158.4854
1247.10 158.588
1247.20 158.6905
1247.30 158.793
1247.40 158.8956
1247.50 158.9981
1247.60 159.1007
1247.70 159.2032
1247.80 159.3057
1247.90 159.4083
1248.00 159.5108
1248.10 159.6133
1248.20 159.7159
1248.30 159.8184
1248.40 159.921
1248.50 160.0235
1248.60 160.126
1248.70 160.2286
1248.80 160.3311
1248.90 160.4336
1249.00 160.5362
1249.10 160.6387
1249.20 160.7412
1249.30 160.8438
1249.40 160.9463
1249.50 161.0489
1249.60 161.1514
1249.70 161.2539
1249.80 161.3565
1249.90 161.459
1250.00 161.5615
1250.10 161.6641
1250.20 161.7666
1250.30 161.853
1250.40 161.9394
1250.50 162.0258
1250.60 162.1123
1250.70 162.1987
1250.80 162.2851
1250.90 162.3715
1251.00 162.4579
1251.10 162.5443
1251.20 162.6307
1251.30 162.7171
1251.40 162.8035
1251.50 162.8899
1251.60 162.9763
1251.70 163.0627
1251.80 163.1491
1251.90 163.2356
1252.00 163.322
1252.10 163.4084
1252.20 163.4948
1252.30 163.5812
1252.40 163.6676
1252.50 163.754
1252.60 163.8404
1252.70 163.9268
1252.80 164.0132
1252.90 164.0996
1253.00 164.186
1253.10 164.2725
1253.20 164.3589
1253.30 164.4453
1253.40 164.5317
1253.50 164.6181
1253.60 164.7045
1253.70 164.7909
1253.80 164.8773
1253.90 164.9637
1254.00 165.0501
1254.10 165.1365
1254.20 165.2229
1254.30 165.3094
1254.40 165.3958
1254.50 165.4822
1254.60 165.6242
1254.70 165.7724
1254.80 165.9206
1254.90 166.0687
1255.00 166.2169
1255.10 166.3651
1255.20 166.5133
1255.30 166.6615
1255.40 166.8097
1255.50 166.9579
1255.60 167.1061
1255.70 167.2542
1255.80 167.4024
1255.90 167.5506
1256.00 167.6988
1256.10 167.847
1256.20 167.9952
1256.30 168.1434
1256.40 168.2916
1256.50 168.4397
1256.60 168.5879
1256.70 168.7361
1256.80 168.8843
1256.90 169.0325
1257.00 169.1807
1257.10 169.3289
1257.20 169.4771
1257.30 169.6252
1257.40 169.7734
1257.50 169.9216
1257.60 170.0698
1257.70 170.218
1257.80 170.3662
1257.90 170.5144
1258.00 170.6626
1258.10 170.8107
1258.20 170.9589
1258.30 171.1071
1258.40 171.2553
1258.50 171.4035
1258.60 171.5517
1258.70 171.6999
1258.80 171.8481
1258.90 172.0016
1259.00 172.1575
1259.10 172.3134
1259.20 172.4692
1259.30 172.6251
1259.40 172.781
1259.50 172.9368
1259.60 173.0927
1259.70 173.2486
1259.80 173.4045
1259.90 173.5603
1260.00 173.7162
1260.10 173.8721
1260.20 174.0279
1260.30 174.1838
1260.40 174.3397
1260.50 174.4956
1260.60 174.6514
1260.70 174.8073
1260.80 174.9632
1260.90 175.119
1261.00 175.2749
1261.10 175.4308
1261.20 175.5867
1261.30 175.7425
1261.40 175.8984
1261.50 176.0543
1261.60 176.2101
1261.70 176.366
1261.80 176.5219
1261.90 176.6778
1262.00 176.8336
1262.10 176.9895
1262.20 177.1454
1262.30 177.3012
1262.40 177.4571
1262.50 177.613
1262.60 177.7689
1262.70 177.9247
1262.80 178.0806
1262.90 178.2365
1263.00 178.3923
1263.10 178.5482
1263.20 178.6658
1263.30 178.7578
1263.40 178.8498
1263.50 178.9419
1263.60 179.0339
1263.70 179.1259
1263.80 179.218
1263.90 179.31
1264.00 179.402
1264.10 179.4941
1264.20 179.5861
1264.30 179.6781
1264.40 179.7702
1264.50 179.8622
1264.60 179.9542
1264.70 180.0463
1264.80 180.1383
1264.90 180.2303
1265.00 180.3224
1265.10 180.4144
1265.20 180.5064
1265.30 180.5985
1265.40 180.6905
1265.50 180.7825
1265.60 180.8746
1265.70 180.9666
1265.80 181.0586
1265.90 181.1507
1266.00 181.2427
1266.10 181.3347
1266.20 181.4268
1266.30 181.5188
1266.40 181.6108
1266.50 181.7029
1266.60 181.7949
1266.70 181.8869
1266.80 181.979
1266.90 182.071
1267.00 182.163
1267.10 182.2551
1267.20 182.3471
1267.30 182.4391
1267.40 182.5312
1267.50 182.618
1267.60 182.6997
1267.70 182.7813
1267.80 182.863
1267.90 182.9446
1268.00 183.0263
1268.10 183.1079
1268.20 183.1896
1268.30 183.2712
1268.40 183.3529
1268.50 183.4345
1268.60 183.5162
1268.70 183.5978
1268.80 183.6795
1268.90 183.7611
1269.00 183.8428
1269.10 183.9244
1269.20 184.0061
1269.30 184.0877
1269.40 184.1694
1269.50 184.251
1269.60 184.3327
1269.70 184.4143
1269.80 184.496
1269.90 184.5776
1270.00 184.6593
1270.10 184.7409
1270.20 184.8226
1270.30 184.9042
1270.40 184.9859
1270.50 185.0675
1270.60 185.1492
1270.70 185.2308
1270.80 185.3125
1270.90 185.3941
1271.00 185.4758
1271.10 185.5574
1271.20 185.6391
1271.30 185.7207
1271.40 185.8024
1271.50 185.884
1271.60 185.9657
1271.70 186.0473
1271.80 186.1063
1271.90 186.1124
1272.00 186.1185
1272.10 186.1246
1272.20 186.1307
1272.30 186.1368
1272.40 186.1429
1272.50 186.149
1272.60 186.1551
1272.70 186.1612
1272.80 186.1673
1272.90 186.1734
1273.00 186.1795
1273.10 186.1856
1273.20 186.1917
1273.30 186.1978
1273.40 186.2039
1273.50 186.21
1273.60 186.2161
1273.70 186.2222
1273.80 186.2283
1273.90 186.2344
1274.00 186.2405
1274.10 186.2466
1274.20 186.2527
1274.30 186.2588
1274.40 186.2649
1274.50 186.271
1274.60 186.2771
1274.70 186.2832
1274.80 186.2893
1274.90 186.2954
1275.00 186.3015
1275.10 186.3076
1275.20 186.3137
1275.30 186.3198
1275.40 186.3259
1275.50 186.332
1275.60 186.3381
1275.70 186.3442
1275.80 186.3503
1275.90 186.3564
1276.00 186.3625
1276.10 186.3644
1276.20 186.3283
1276.30 186.2923
1276.40 186.2562
1276.50 186.2201
1276.60 186.184
1276.70 186.148
1276.80 186.1119
1276.90 186.0758
1277.00 186.0397
1277.10 186.0037
1277.20 185.9676
1277.30 185.9315
1277.40 185.8955
1277.50 185.8594
1277.60 185.8233
1277.70 185.7872
1277.80 185.7512
1277.90 185.7151
1278.00 185.679
1278.10 185.6429
1278.20 185.6069
1278.30 185.5708
1278.40 185.5347
1278.50 185.4986
1278.60 185.4626
1278.70 185.4265
1278.80 185.3904
1278.90 185.3543
1279.00 185.3183
1279.10 185.2822
1279.20 185.2461
1279.30 185.2101
1279.40 185.174
1279.50 185.1379
1279.60 185.1018
1279.70 185.0658
1279.80 185.0297
1279.90 184.9936
1280.00 184.9575
1280.10 184.9215
1280.20 184.8854
1280.30 184.8493
1280.40 184.8132
1280.50 184.8091
1280.60 184.8051
1280.70 184.801
1280.80 184.7969
1280.90 184.7928
1281.00 184.7887
1281.10 184.7846
1281.20 184.7805
1281.30 184.7764
1281.40 184.7723
1281.50 184.7682
1281.60 184.7641
1281.70 184.76
1281.80 184.7559
1281.90 184.7518
1282.00 184.7477
1282.10 184.7436
1282.20 184.7395
1282.30 184.7354
1282.40 184.7313
1282.50 184.7272
1282.60 184.7231
1282.70 184.719
1282.80 184.7149
1282.90 184.7108
1283.00 184.7068
1283.10 184.7027
1283.20 184.6986
1283.30 184.6945
1283.40 184.6904
1283.50 184.6863
1283.60 184.6822
1283.70 184.6781
1283.80 184.674
1283.90 184.6699
1284.00 184.6658
1284.10 184.6617
1284.20 184.6576
1284.30 184.6535
1284.40 184.6494
1284.50 184.6453
1284.60 184.6412
1284.70 184.6371
1284.80 184.6578
1284.90 184.6846
1285.00 184.7115
1285.10 184.7383
1285.20 184.7651
1285.30 184.792
1285.40 184.8188
1285.50 184.8457
1285.60 184.8725
1285.70 184.8993
1285.80 184.9262
1285.90 184.953
1286.00 184.9799
1286.10 185.0067
1286.20 185.0335
1286.30 185.0604
1286.40 185.0872
1286.50 185.1141
1286.60 185.1409
1286.70 185.1677
1286.80 185.1946
1286.90 185.2214
1287.00 185.2483
1287.10 185.2751
1287.20 185.3019
1287.30 185.3288
1287.40 185.3556
1287.50 185.3825
1287.60 185.4093
1287.70 185.4361
1287.80 185.463
1287.90 185.4898
1288.00 185.5167
1288.10 185.5435
1288.20 185.5703
1288.30 185.5972
1288.40 185.624
1288.50 185.6509
1288.60 185.6777
1288.70 185.7045
1288.80 185.7314
1288.90 185.7582
1289.00 185.7851
1289.10 185.7603
1289.20 185.7012
1289.30 185.642
1289.40 185.5829
1289.50 185.5237
1289.60 185.4646
1289.70 185.4054
1289.80 185.3463
1289.90 185.2871
1290.00 185.228
1290.10 185.1688
1290.20 185.1097
1290.30 185.0505
1290.40 184.9914
1290.50 184.9323
1290.60 184.8731
1290.70 184.814
1290.80 184.7548
1290.90 184.6957
1291.00 184.6365
1291.10 184.5774
1291.20 184.5182
1291.30 184.4591
1291.40 184.3999
1291.50 184.3408
1291.60 184.2816
1291.70 184.2225
1291.80 184.1633
1291.90 184.1042
1292.00 184.045
1292.10 183.9859
1292.20 183.9268
1292.30 183.8676
1292.40 183.8085
1292.50 183.7493
1292.60 183.6902
1292.70 183.631
1292.80 183.5719
1292.90 183.5127
1293.00 183.4536
1293.10 183.3944
1293.20 183.3353
1293.30 183.2761
1293.40 183.2361
1293.50 183.2248
1293.60 183.2134
1293.70 183.2021
1293.80 183.1907
1293.90 183.1794
1294.00 183.168
1294.10 183.1567
1294.20 183.1454
1294.30 183.134
1294.40 183.1227
1294.50 183.1113
1294.60 183.1
1294.70 183.0886
1294.80 183.0773
1294.90 183.066
1295.00 183.0546
1295.10 183.0433
1295.20 183.0319
1295.30 183.0206
1295.40 183.0092
1295.50 182.9979
1295.60 182.9866
1295.70 182.9752
1295.80 182.9639
1295.90 182.9525
1296.00 182.9412
1296.10 182.9298
1296.20 182.9185
1296.30 182.9072
1296.40 182.8958
1296.50 182.8845
1296.60 182.8731
1296.70 182.8618
1296.80 182.8504
1296.90 182.8391
1297.00 182.8278
1297.10 182.8164
1297.20 182.8051
1297.30 182.7937
1297.40 182.7824
1297.50 182.771
1297.60 182.7597
1297.70 182.753
1297.80 182.765
1297.90 182.777
1298.00 182.7889
1298.10 182.8009
1298.20 182.8129
1298.30 182.8249
1298.40 182.8368
1298.50 182.8488
1298.60 182.8608
1298.70 182.8728
1298.80 182.8847
1298.90 182.8967
1299.00 182.9087
1299.10 182.9207
1299.20 182.9326
1299.30 182.9446
1299.40 182.9566
1299.50 182.9686
1299.60 182.9805
1299.70 182.9925
1299.80 183.0045
1299.90 183.0165
