# Version 2.1 - nm, norm@500 to 1, cut digits
# Wavelength(nm)  Flambda(ergs/cm^s/s/nm)
300.00 1.922073e-95
300.10 1.922073e-95
300.20 1.922073e-95
300.30 1.922073e-95
300.40 1.922073e-95
300.50 1.922073e-95
300.60 1.922073e-95
300.70 1.922073e-95
300.80 1.922073e-95
300.90 1.922073e-95
301.00 1.922073e-95
301.10 1.922073e-95
301.20 1.922073e-95
301.30 1.922073e-95
301.40 1.922073e-95
301.50 1.922073e-95
301.60 1.922073e-95
301.70 1.922073e-95
301.80 1.922073e-95
301.90 1.922073e-95
302.00 1.922073e-95
302.10 1.922073e-95
302.20 1.922073e-95
302.30 1.922073e-95
302.40 1.922073e-95
302.50 1.922073e-95
302.60 1.922073e-95
302.70 1.922073e-95
302.80 1.922073e-95
302.90 1.922073e-95
303.00 1.922073e-95
303.10 1.922073e-95
303.20 1.922073e-95
303.30 1.922073e-95
303.40 1.922073e-95
303.50 1.922073e-95
303.60 1.922073e-95
303.70 1.922073e-95
303.80 1.922073e-95
303.90 1.922073e-95
304.00 1.922073e-95
304.10 1.922073e-95
304.20 1.922073e-95
304.30 1.922073e-95
304.40 1.922073e-95
304.50 1.922073e-95
304.60 1.922073e-95
304.70 1.922073e-95
304.80 1.922073e-95
304.90 1.922073e-95
305.00 1.922073e-95
305.10 1.922073e-95
305.20 1.922073e-95
305.30 1.922073e-95
305.40 1.922073e-95
305.50 1.922073e-95
305.60 1.922073e-95
305.70 1.922073e-95
305.80 1.922073e-95
305.90 1.922073e-95
306.00 1.922073e-95
306.10 1.922073e-95
306.20 1.922073e-95
306.30 1.922073e-95
306.40 1.922073e-95
306.50 1.922073e-95
306.60 1.922073e-95
306.70 1.922073e-95
306.80 1.922073e-95
306.90 1.922073e-95
307.00 1.922073e-95
307.10 1.922073e-95
307.20 1.922073e-95
307.30 1.922073e-95
307.40 1.922073e-95
307.50 1.922073e-95
307.60 1.922073e-95
307.70 1.922073e-95
307.80 1.922073e-95
307.90 1.922073e-95
308.00 1.922073e-95
308.10 1.922073e-95
308.20 1.922073e-95
308.30 1.922073e-95
308.40 1.922073e-95
308.50 1.922073e-95
308.60 1.922073e-95
308.70 1.922073e-95
308.80 1.922073e-95
308.90 1.922073e-95
309.00 1.922073e-95
309.10 1.922073e-95
309.20 1.922073e-95
309.30 1.922073e-95
309.40 1.922073e-95
309.50 1.922073e-95
309.60 1.922073e-95
309.70 1.922073e-95
309.80 1.922073e-95
309.90 1.922073e-95
310.00 1.922073e-95
310.10 1.922073e-95
310.20 1.922073e-95
310.30 1.922073e-95
310.40 1.922073e-95
310.50 1.922073e-95
310.60 1.922073e-95
310.70 1.922073e-95
310.80 1.922073e-95
310.90 1.922073e-95
311.00 1.922073e-95
311.10 1.922073e-95
311.20 1.922073e-95
311.30 1.922073e-95
311.40 1.922073e-95
311.50 1.922073e-95
311.60 1.922073e-95
311.70 1.922073e-95
311.80 1.922073e-95
311.90 1.922073e-95
312.00 1.922073e-95
312.10 1.922073e-95
312.20 1.922073e-95
312.30 1.922073e-95
312.40 1.922073e-95
312.50 1.922073e-95
312.60 1.922073e-95
312.70 1.922073e-95
312.80 1.922073e-95
312.90 1.922073e-95
313.00 1.922073e-95
313.10 1.922073e-95
313.20 1.922073e-95
313.30 1.922073e-95
313.40 1.922073e-95
313.50 1.922073e-95
313.60 1.922073e-95
313.70 1.922073e-95
313.80 1.922073e-95
313.90 1.922073e-95
314.00 1.922073e-95
314.10 1.922073e-95
314.20 1.922073e-95
314.30 1.922073e-95
314.40 1.922073e-95
314.50 1.922073e-95
314.60 1.922073e-95
314.70 1.922073e-95
314.80 1.922073e-95
314.90 1.922073e-95
315.00 1.922073e-95
315.10 1.922073e-95
315.20 1.922073e-95
315.30 1.922073e-95
315.40 1.922073e-95
315.50 1.922073e-95
315.60 1.922073e-95
315.70 1.922073e-95
315.80 1.922073e-95
315.90 1.922073e-95
316.00 1.922073e-95
316.10 1.922073e-95
316.20 1.922073e-95
316.30 1.922073e-95
316.40 1.922073e-95
316.50 1.922073e-95
316.60 1.922073e-95
316.70 1.922073e-95
316.80 1.922073e-95
316.90 1.922073e-95
317.00 1.922073e-95
317.10 1.922073e-95
317.20 1.922073e-95
317.30 1.922073e-95
317.40 1.922073e-95
317.50 1.922073e-95
317.60 1.922073e-95
317.70 1.922073e-95
317.80 1.922073e-95
317.90 1.922073e-95
318.00 1.922073e-95
318.10 1.922073e-95
318.20 1.922073e-95
318.30 1.922073e-95
318.40 1.922073e-95
318.50 1.922073e-95
318.60 1.922073e-95
318.70 1.922073e-95
318.80 1.922073e-95
318.90 1.922073e-95
319.00 1.922073e-95
319.10 1.922073e-95
319.20 1.922073e-95
319.30 1.922073e-95
319.40 1.922073e-95
319.50 1.922073e-95
319.60 1.922073e-95
319.70 1.922073e-95
319.80 1.922073e-95
319.90 1.922073e-95
320.00 1.922073e-95
320.10 1.922073e-95
320.20 1.922073e-95
320.30 1.922073e-95
320.40 1.922073e-95
320.50 1.922073e-95
320.60 1.922073e-95
320.70 1.922073e-95
320.80 1.922073e-95
320.90 1.922073e-95
321.00 1.922073e-95
321.10 1.922073e-95
321.20 1.922073e-95
321.30 1.922073e-95
321.40 1.922073e-95
321.50 1.922073e-95
321.60 1.922073e-95
321.70 1.922073e-95
321.80 1.922073e-95
321.90 1.922073e-95
322.00 1.922073e-95
322.10 1.922073e-95
322.20 1.922073e-95
322.30 1.922073e-95
322.40 1.922073e-95
322.50 1.922073e-95
322.60 1.922073e-95
322.70 1.922073e-95
322.80 1.922073e-95
322.90 1.922073e-95
323.00 1.922073e-95
323.10 1.922073e-95
323.20 1.922073e-95
323.30 1.922073e-95
323.40 1.922073e-95
323.50 1.922073e-95
323.60 1.922073e-95
323.70 1.922073e-95
323.80 1.922073e-95
323.90 1.922073e-95
324.00 1.922073e-95
324.10 1.922073e-95
324.20 1.922073e-95
324.30 1.922073e-95
324.40 1.922073e-95
324.50 1.922073e-95
324.60 1.922073e-95
324.70 1.922073e-95
324.80 1.922073e-95
324.90 1.922073e-95
325.00 1.922073e-95
325.10 1.922073e-95
325.20 1.922073e-95
325.30 1.922073e-95
325.40 1.922073e-95
325.50 1.922073e-95
325.60 1.922073e-95
325.70 1.922073e-95
325.80 1.922073e-95
325.90 1.922073e-95
326.00 1.922073e-95
326.10 1.922073e-95
326.20 1.922073e-95
326.30 1.922073e-95
326.40 1.922073e-95
326.50 1.922073e-95
326.60 1.922073e-95
326.70 1.922073e-95
326.80 1.922073e-95
326.90 1.922073e-95
327.00 1.922073e-95
327.10 1.922073e-95
327.20 1.922073e-95
327.30 1.922073e-95
327.40 1.922073e-95
327.50 1.922073e-95
327.60 1.922073e-95
327.70 1.922073e-95
327.80 1.922073e-95
327.90 1.922073e-95
328.00 1.922073e-95
328.10 1.922073e-95
328.20 1.922073e-95
328.30 1.922073e-95
328.40 1.922073e-95
328.50 1.922073e-95
328.60 1.922073e-95
328.70 1.922073e-95
328.80 1.922073e-95
328.90 1.922073e-95
329.00 1.922073e-95
329.10 1.922073e-95
329.20 1.922073e-95
329.30 1.922073e-95
329.40 1.922073e-95
329.50 1.922073e-95
329.60 1.922073e-95
329.70 1.922073e-95
329.80 1.922073e-95
329.90 1.922073e-95
330.00 1.922073e-95
330.10 1.922073e-95
330.20 1.922073e-95
330.30 1.922073e-95
330.40 1.922073e-95
330.50 1.922073e-95
330.60 1.922073e-95
330.70 1.922073e-95
330.80 1.922073e-95
330.90 1.922073e-95
331.00 1.922073e-95
331.10 1.922073e-95
331.20 1.922073e-95
331.30 1.922073e-95
331.40 1.922073e-95
331.50 1.922073e-95
331.60 1.922073e-95
331.70 1.922073e-95
331.80 1.922073e-95
331.90 1.922073e-95
332.00 1.922073e-95
332.10 1.922073e-95
332.20 1.922073e-95
332.30 1.922073e-95
332.40 1.922073e-95
332.50 1.922073e-95
332.60 1.922073e-95
332.70 1.922073e-95
332.80 1.922073e-95
332.90 1.922073e-95
333.00 1.922073e-95
333.10 1.922073e-95
333.20 1.922073e-95
333.30 1.922073e-95
333.40 1.922073e-95
333.50 1.922073e-95
333.60 1.922073e-95
333.70 1.922073e-95
333.80 1.922073e-95
333.90 1.922073e-95
334.00 1.922073e-95
334.10 1.922073e-95
334.20 1.922073e-95
334.30 1.922073e-95
334.40 1.922073e-95
334.50 1.922073e-95
334.60 1.922073e-95
334.70 1.922073e-95
334.80 1.922073e-95
334.90 1.922073e-95
335.00 1.922073e-95
335.10 1.922073e-95
335.20 1.922073e-95
335.30 1.922073e-95
335.40 1.922073e-95
335.50 1.922073e-95
335.60 1.922073e-95
335.70 1.922073e-95
335.80 1.922073e-95
335.90 1.922073e-95
336.00 1.922073e-95
336.10 1.922073e-95
336.20 1.922073e-95
336.30 1.922073e-95
336.40 1.922073e-95
336.50 1.922073e-95
336.60 1.922073e-95
336.70 1.922073e-95
336.80 1.922073e-95
336.90 1.922073e-95
337.00 1.922073e-95
337.10 1.922073e-95
337.20 1.922073e-95
337.30 1.922073e-95
337.40 1.922073e-95
337.50 1.922073e-95
337.60 1.922073e-95
337.70 1.922073e-95
337.80 1.922073e-95
337.90 1.922073e-95
338.00 1.922073e-95
338.10 1.922073e-95
338.20 1.922073e-95
338.30 1.922073e-95
338.40 1.922073e-95
338.50 1.922073e-95
338.60 1.922073e-95
338.70 1.922073e-95
338.80 1.922073e-95
338.90 1.922073e-95
339.00 1.922073e-95
339.10 1.922073e-95
339.20 1.922073e-95
339.30 1.922073e-95
339.40 1.922073e-95
339.50 1.922073e-95
339.60 1.922073e-95
339.70 1.922073e-95
339.80 1.922073e-95
339.90 1.922073e-95
340.00 1.922073e-95
340.10 1.922073e-95
340.20 1.922073e-95
340.30 1.922073e-95
340.40 1.922073e-95
340.50 1.922073e-95
340.60 1.922073e-95
340.70 1.922073e-95
340.80 1.922073e-95
340.90 1.922073e-95
341.00 1.922073e-95
341.10 1.922073e-95
341.20 1.922073e-95
341.30 1.922073e-95
341.40 1.922073e-95
341.50 1.922073e-95
341.60 1.922073e-95
341.70 1.922073e-95
341.80 1.922073e-95
341.90 1.922073e-95
342.00 1.922073e-95
342.10 1.922073e-95
342.20 1.922073e-95
342.30 1.922073e-95
342.40 1.922073e-95
342.50 1.922073e-95
342.60 1.922073e-95
342.70 1.922073e-95
342.80 1.922073e-95
342.90 1.922073e-95
343.00 1.922073e-95
343.10 1.922073e-95
343.20 1.922073e-95
343.30 1.922073e-95
343.40 1.922073e-95
343.50 1.922073e-95
343.60 1.922073e-95
343.70 1.922073e-95
343.80 1.922073e-95
343.90 1.922073e-95
344.00 1.922073e-95
344.10 1.922073e-95
344.20 1.922073e-95
344.30 1.922073e-95
344.40 1.922073e-95
344.50 1.922073e-95
344.60 1.922073e-95
344.70 1.922073e-95
344.80 1.922073e-95
344.90 1.922073e-95
345.00 1.922073e-95
345.10 1.922073e-95
345.20 1.922073e-95
345.30 1.922073e-95
345.40 1.922073e-95
345.50 1.922073e-95
345.60 1.922073e-95
345.70 1.922073e-95
345.80 1.922073e-95
345.90 1.922073e-95
346.00 1.922073e-95
346.10 1.922073e-95
346.20 1.922073e-95
346.30 1.922073e-95
346.40 1.922073e-95
346.50 1.922073e-95
346.60 1.922073e-95
346.70 1.922073e-95
346.80 1.922073e-95
346.90 1.922073e-95
347.00 1.922073e-95
347.10 1.922073e-95
347.20 1.922073e-95
347.30 1.922073e-95
347.40 1.922073e-95
347.50 1.922073e-95
347.60 1.922073e-95
347.70 1.922073e-95
347.80 1.922073e-95
347.90 1.922073e-95
348.00 1.922073e-95
348.10 1.922073e-95
348.20 1.922073e-95
348.30 1.922073e-95
348.40 1.922073e-95
348.50 1.922073e-95
348.60 1.922073e-95
348.70 1.922073e-95
348.80 1.922073e-95
348.90 1.922073e-95
349.00 1.922073e-95
349.10 1.922073e-95
349.20 1.922073e-95
349.30 1.922073e-95
349.40 1.922073e-95
349.50 1.922073e-95
349.60 1.922073e-95
349.70 1.922073e-95
349.80 1.922073e-95
349.90 1.922073e-95
350.00 1.922073e-95
350.10 1.922073e-95
350.20 1.922073e-95
350.30 1.922073e-95
350.40 1.922073e-95
350.50 1.922073e-95
350.60 1.922073e-95
350.70 1.922073e-95
350.80 1.922073e-95
350.90 1.922073e-95
351.00 1.922073e-95
351.10 1.922073e-95
351.20 1.922073e-95
351.30 1.922073e-95
351.40 1.922073e-95
351.50 1.922073e-95
351.60 1.922073e-95
351.70 1.922073e-95
351.80 1.922073e-95
351.90 1.922073e-95
352.00 1.922073e-95
352.10 1.922073e-95
352.20 1.922073e-95
352.30 1.922073e-95
352.40 1.922073e-95
352.50 1.922073e-95
352.60 1.922073e-95
352.70 1.922073e-95
352.80 1.922073e-95
352.90 1.922073e-95
353.00 1.922073e-95
353.10 1.922073e-95
353.20 1.922073e-95
353.30 1.922073e-95
353.40 1.922073e-95
353.50 1.922073e-95
353.60 1.922073e-95
353.70 1.922073e-95
353.80 1.922073e-95
353.90 1.922073e-95
354.00 1.922073e-95
354.10 1.922073e-95
354.20 1.922073e-95
354.30 1.922073e-95
354.40 1.922073e-95
354.50 1.922073e-95
354.60 1.922073e-95
354.70 1.922073e-95
354.80 1.922073e-95
354.90 1.922073e-95
355.00 1.922073e-95
355.10 1.922073e-95
355.20 1.922073e-95
355.30 1.922073e-95
355.40 1.922073e-95
355.50 1.922073e-95
355.60 1.922073e-95
355.70 1.922073e-95
355.80 1.922073e-95
355.90 1.922073e-95
356.00 1.922073e-95
356.10 1.922073e-95
356.20 1.922073e-95
356.30 1.922073e-95
356.40 1.922073e-95
356.50 1.922073e-95
356.60 1.922073e-95
356.70 1.922073e-95
356.80 1.922073e-95
356.90 1.922073e-95
357.00 1.922073e-95
357.10 1.922073e-95
357.20 1.922073e-95
357.30 1.922073e-95
357.40 1.922073e-95
357.50 1.922073e-95
357.60 1.922073e-95
357.70 1.922073e-95
357.80 1.922073e-95
357.90 1.922073e-95
358.00 1.922073e-95
358.10 1.922073e-95
358.20 1.922073e-95
358.30 1.922073e-95
358.40 1.922073e-95
358.50 1.922073e-95
358.60 1.922073e-95
358.70 1.922073e-95
358.80 1.922073e-95
358.90 1.922073e-95
359.00 1.922073e-95
359.10 1.922073e-95
359.20 1.922073e-95
359.30 1.922073e-95
359.40 1.922073e-95
359.50 1.922073e-95
359.60 1.922073e-95
359.70 1.922073e-95
359.80 1.922073e-95
359.90 1.922073e-95
360.00 1.922073e-95
360.10 1.922073e-95
360.20 1.922073e-95
360.30 1.922073e-95
360.40 1.922073e-95
360.50 1.922073e-95
360.60 1.922073e-95
360.70 1.922073e-95
360.80 1.922073e-95
360.90 1.922073e-95
361.00 1.922073e-95
361.10 1.922073e-95
361.20 1.922073e-95
361.30 1.922073e-95
361.40 1.922073e-95
361.50 1.922073e-95
361.60 1.922073e-95
361.70 1.922073e-95
361.80 1.922073e-95
361.90 1.922073e-95
362.00 1.922073e-95
362.10 1.922073e-95
362.20 1.922073e-95
362.30 1.922073e-95
362.40 1.922073e-95
362.50 1.922073e-95
362.60 1.922073e-95
362.70 1.922073e-95
362.80 1.922073e-95
362.90 1.922073e-95
363.00 1.922073e-95
363.10 1.922073e-95
363.20 1.922073e-95
363.30 1.922073e-95
363.40 1.922073e-95
363.50 1.922073e-95
363.60 1.922073e-95
363.70 1.922073e-95
363.80 1.922073e-95
363.90 1.922073e-95
364.00 1.922073e-95
364.10 1.922073e-95
364.20 1.922073e-95
364.30 1.922073e-95
364.40 1.922073e-95
364.50 1.922073e-95
364.60 1.922073e-95
364.70 1.922073e-95
364.80 1.922073e-95
364.90 1.922073e-95
365.00 1.922073e-95
365.10 1.922073e-95
365.20 1.922073e-95
365.30 1.922073e-95
365.40 1.922073e-95
365.50 1.922073e-95
365.60 1.922073e-95
365.70 1.922073e-95
365.80 1.922073e-95
365.90 1.922073e-95
366.00 1.922073e-95
366.10 1.922073e-95
366.20 1.922073e-95
366.30 1.922073e-95
366.40 1.922073e-95
366.50 1.922073e-95
366.60 1.922073e-95
366.70 1.922073e-95
366.80 1.922073e-95
366.90 1.922073e-95
367.00 1.922073e-95
367.10 1.922073e-95
367.20 1.922073e-95
367.30 1.922073e-95
367.40 1.922073e-95
367.50 1.922073e-95
367.60 1.922073e-95
367.70 1.922073e-95
367.80 1.922073e-95
367.90 1.922073e-95
368.00 1.922073e-95
368.10 1.922073e-95
368.20 1.922073e-95
368.30 1.922073e-95
368.40 1.922073e-95
368.50 1.922073e-95
368.60 1.922073e-95
368.70 1.922073e-95
368.80 1.922073e-95
368.90 1.922073e-95
369.00 1.922073e-95
369.10 1.922073e-95
369.20 1.922073e-95
369.30 1.922073e-95
369.40 1.922073e-95
369.50 1.922073e-95
369.60 1.922073e-95
369.70 1.922073e-95
369.80 1.922073e-95
369.90 1.922073e-95
370.00 1.922073e-95
370.10 1.922073e-95
370.20 1.922073e-95
370.30 1.922073e-95
370.40 1.922073e-95
370.50 1.922073e-95
370.60 1.922073e-95
370.70 1.922073e-95
370.80 1.922073e-95
370.90 1.922073e-95
371.00 1.922073e-95
371.10 1.922073e-95
371.20 1.922073e-95
371.30 1.922073e-95
371.40 1.922073e-95
371.50 1.922073e-95
371.60 1.922073e-95
371.70 1.922073e-95
371.80 1.922073e-95
371.90 1.922073e-95
372.00 1.922073e-95
372.10 1.922073e-95
372.20 1.922073e-95
372.30 1.922073e-95
372.40 1.922073e-95
372.50 1.922073e-95
372.60 1.922073e-95
372.70 1.922073e-95
372.80 1.922073e-95
372.90 1.922073e-95
373.00 1.922073e-95
373.10 1.922073e-95
373.20 1.922073e-95
373.30 1.922073e-95
373.40 1.922073e-95
373.50 1.922073e-95
373.60 1.922073e-95
373.70 1.922073e-95
373.80 1.922073e-95
373.90 1.922073e-95
374.00 1.922073e-95
374.10 1.922073e-95
374.20 1.922073e-95
374.30 1.922073e-95
374.40 1.922073e-95
374.50 1.922073e-95
374.60 1.922073e-95
374.70 1.922073e-95
374.80 1.922073e-95
374.90 1.922073e-95
375.00 1.922073e-95
375.10 1.922073e-95
375.20 1.922073e-95
375.30 1.922073e-95
375.40 1.922073e-95
375.50 1.922073e-95
375.60 1.922073e-95
375.70 1.922073e-95
375.80 1.922073e-95
375.90 1.922073e-95
376.00 1.922073e-95
376.10 1.922073e-95
376.20 1.922073e-95
376.30 1.922073e-95
376.40 1.922073e-95
376.50 1.922073e-95
376.60 1.922073e-95
376.70 1.922073e-95
376.80 1.922073e-95
376.90 1.922073e-95
377.00 1.922073e-95
377.10 1.922073e-95
377.20 1.922073e-95
377.30 1.922073e-95
377.40 1.922073e-95
377.50 1.922073e-95
377.60 1.922073e-95
377.70 1.922073e-95
377.80 1.922073e-95
377.90 1.922073e-95
378.00 1.922073e-95
378.10 1.922073e-95
378.20 1.922073e-95
378.30 1.922073e-95
378.40 1.922073e-95
378.50 1.922073e-95
378.60 1.922073e-95
378.70 1.922073e-95
378.80 1.922073e-95
378.90 1.922073e-95
379.00 1.922073e-95
379.10 1.922073e-95
379.20 1.922073e-95
379.30 1.922073e-95
379.40 1.922073e-95
379.50 1.922073e-95
379.60 1.922073e-95
379.70 1.922073e-95
379.80 1.922073e-95
379.90 1.922073e-95
380.00 1.922073e-95
380.10 1.922073e-95
380.20 1.922073e-95
380.30 1.922073e-95
380.40 1.922073e-95
380.50 1.922073e-95
380.60 1.922073e-95
380.70 1.922073e-95
380.80 1.922073e-95
380.90 1.922073e-95
381.00 1.922073e-95
381.10 1.922073e-95
381.20 1.922073e-95
381.30 1.922073e-95
381.40 1.922073e-95
381.50 1.922073e-95
381.60 1.922073e-95
381.70 1.922073e-95
381.80 1.922073e-95
381.90 1.922073e-95
382.00 1.922073e-95
382.10 1.922073e-95
382.20 1.922073e-95
382.30 1.922073e-95
382.40 1.922073e-95
382.50 1.922073e-95
382.60 1.922073e-95
382.70 1.922073e-95
382.80 1.922073e-95
382.90 1.922073e-95
383.00 1.922073e-95
383.10 1.922073e-95
383.20 1.922073e-95
383.30 1.922073e-95
383.40 1.922073e-95
383.50 1.922073e-95
383.60 1.922073e-95
383.70 1.922073e-95
383.80 1.922073e-95
383.90 1.922073e-95
384.00 1.922073e-95
384.10 1.922073e-95
384.20 1.922073e-95
384.30 1.922073e-95
384.40 1.922073e-95
384.50 1.922073e-95
384.60 1.922073e-95
384.70 1.922073e-95
384.80 1.922073e-95
384.90 1.922073e-95
385.00 1.922073e-95
385.10 1.922073e-95
385.20 1.922073e-95
385.30 1.922073e-95
385.40 1.922073e-95
385.50 1.922073e-95
385.60 1.922073e-95
385.70 1.922073e-95
385.80 1.922073e-95
385.90 1.922073e-95
386.00 1.922073e-95
386.10 1.922073e-95
386.20 1.922073e-95
386.30 1.922073e-95
386.40 1.922073e-95
386.50 1.922073e-95
386.60 1.922073e-95
386.70 1.922073e-95
386.80 1.922073e-95
386.90 1.922073e-95
387.00 1.922073e-95
387.10 1.922073e-95
387.20 1.922073e-95
387.30 1.922073e-95
387.40 1.922073e-95
387.50 1.922073e-95
387.60 1.922073e-95
387.70 1.922073e-95
387.80 1.922073e-95
387.90 1.922073e-95
388.00 1.922073e-95
388.10 1.922073e-95
388.20 1.922073e-95
388.30 1.922073e-95
388.40 1.922073e-95
388.50 1.922073e-95
388.60 1.922073e-95
388.70 1.922073e-95
388.80 1.922073e-95
388.90 1.922073e-95
389.00 1.922073e-95
389.10 1.922073e-95
389.20 1.922073e-95
389.30 1.922073e-95
389.40 1.922073e-95
389.50 1.922073e-95
389.60 1.922073e-95
389.70 1.922073e-95
389.80 1.922073e-95
389.90 1.922073e-95
390.00 1.922073e-95
390.10 1.922073e-95
390.20 1.922073e-95
390.30 1.922073e-95
390.40 1.922073e-95
390.50 1.922073e-95
390.60 1.922073e-95
390.70 1.922073e-95
390.80 1.922073e-95
390.90 1.922073e-95
391.00 1.922073e-95
391.10 1.922073e-95
391.20 1.922073e-95
391.30 1.922073e-95
391.40 1.922073e-95
391.50 1.922073e-95
391.60 1.922073e-95
391.70 1.922073e-95
391.80 1.922073e-95
391.90 1.922073e-95
392.00 1.922073e-95
392.10 1.922073e-95
392.20 1.922073e-95
392.30 1.922073e-95
392.40 1.922073e-95
392.50 1.922073e-95
392.60 1.922073e-95
392.70 1.922073e-95
392.80 1.922073e-95
392.90 1.922073e-95
393.00 1.922073e-95
393.10 1.922073e-95
393.20 1.922073e-95
393.30 1.922073e-95
393.40 1.922073e-95
393.50 1.922073e-95
393.60 1.922073e-95
393.70 1.922073e-95
393.80 1.922073e-95
393.90 1.922073e-95
394.00 1.922073e-95
394.10 1.922073e-95
394.20 1.922073e-95
394.30 1.922073e-95
394.40 1.922073e-95
394.50 1.922073e-95
394.60 1.922073e-95
394.70 1.922073e-95
394.80 1.922073e-95
394.90 1.922073e-95
395.00 0.01222174
395.10 0.02944301
395.20 0.05096948
395.30 0.07515167
395.40 0.0990846
395.50 0.11941
395.60 0.1333314
395.70 0.1395817
395.80 0.1395817
395.90 0.1395817
396.00 0.1395817
396.10 0.1395817
396.20 0.1395817
396.30 0.1395817
396.40 0.1395817
396.50 0.1395817
396.60 0.1395817
396.70 0.1395817
396.80 0.1395817
396.90 0.1395817
397.00 0.1395817
397.10 0.1429077
397.20 0.1494338
397.30 0.1579221
397.40 0.1670315
397.50 0.1760714
397.60 0.1852026
397.70 0.1947704
397.80 0.2052105
397.90 0.2165945
398.00 0.2284561
398.10 0.2403447
398.20 0.2518705
398.30 0.2625436
398.40 0.2719035
398.50 0.2800797
398.60 0.2874822
398.70 0.2947592
398.80 0.3029803
398.90 0.3131905
399.00 0.3260878
399.10 0.3419761
399.20 0.3609985
399.30 0.383226
399.40 0.4076492
399.50 0.4319966
399.60 0.4543283
399.70 0.4735367
399.80 0.4890799
399.90 0.5004494
400.00 0.5071248
400.10 0.5089107
400.20 0.5089107
400.30 0.5089107
400.40 0.5089107
400.50 0.5089107
400.60 0.5089107
400.70 0.5093325
400.80 0.512628
400.90 0.5185982
401.00 0.5261541
401.10 0.5339053
401.20 0.5404555
401.30 0.5453037
401.40 0.5493223
401.50 0.5540702
401.60 0.5605905
401.70 0.5679984
401.80 0.5742965
401.90 0.5773518
402.00 0.5773518
402.10 0.5773518
402.20 0.5773518
402.30 0.5773518
402.40 0.5773518
402.50 0.5773518
402.60 0.5773518
402.70 0.5773518
402.80 0.5773518
402.90 0.5773518
403.00 0.5773518
403.10 0.5773518
403.20 0.5773518
403.30 0.5773518
403.40 0.579371
403.50 0.583242
403.60 0.5882522
403.70 0.5936693
403.80 0.5988966
403.90 0.6035667
404.00 0.6073155
404.10 0.6098891
404.20 0.6114331
404.30 0.6127338
404.40 0.6151176
404.50 0.6202011
404.60 0.6297544
404.70 0.6454073
404.80 0.6674695
404.90 0.6946599
405.00 0.7125857
405.10 0.7256659
405.20 0.7316736
405.30 0.7300292
405.40 0.7227331
405.50 0.7135316
405.60 0.7065971
405.70 0.7047552
405.80 0.7078214
405.90 0.7107958
406.00 0.714928
406.10 0.7210147
406.20 0.7295138
406.30 0.7408622
406.40 0.7549925
406.50 0.770908
406.60 0.7869285
406.70 0.801095
406.80 0.8118532
406.90 0.8185286
407.00 0.8212276
407.10 0.8179017
407.20 0.8113756
407.30 0.8028873
407.40 0.7937779
407.50 0.784738
407.60 0.7756068
407.70 0.766039
407.80 0.7555988
407.90 0.7442149
408.00 0.7323532
408.10 0.7208233
408.20 0.7121241
408.30 0.7070836
408.40 0.7060238
408.50 0.7081944
408.60 0.7124385
408.70 0.7170863
408.80 0.7200628
408.90 0.7199713
409.00 0.7162729
409.10 0.7090074
409.20 0.6982285
409.30 0.6837005
409.40 0.6658204
409.50 0.645601
409.60 0.6234578
409.70 0.6042495
409.80 0.5887063
409.90 0.5773367
410.00 0.5706614
410.10 0.5688755
410.20 0.5688755
410.30 0.5688755
410.40 0.5688755
410.50 0.5688755
410.60 0.5727679
410.70 0.5819436
410.80 0.5935052
410.90 0.6070671
411.00 0.6229144
411.10 0.6407626
411.20 0.6596604
411.30 0.6774929
411.40 0.690473
411.50 0.6945469
411.60 0.6880265
411.70 0.6806187
411.80 0.6743206
411.90 0.6712653
412.00 0.6712653
412.10 0.6712653
412.20 0.6712653
412.30 0.6712653
412.40 0.6755873
412.50 0.6838404
412.60 0.6942906
412.70 0.7050224
412.80 0.7147151
412.90 0.7229212
413.00 0.7299552
413.10 0.7365888
413.20 0.7437512
413.30 0.7524954
413.40 0.7618364
413.50 0.7724624
413.60 0.7847317
413.70 0.7982489
413.80 0.8118632
413.90 0.8239393
414.00 0.8335772
414.10 0.8408787
414.20 0.8464463
414.30 0.8506668
414.40 0.8533343
414.50 0.8537304
414.60 0.8503219
414.70 0.8408032
414.80 0.8237415
414.90 0.7998586
415.00 0.7716434
415.10 0.742591
415.20 0.716309
415.30 0.6953422
415.40 0.6803805
415.50 0.6705501
415.60 0.6637918
415.70 0.6593834
415.80 0.6563172
415.90 0.6533427
416.00 0.6492106
416.10 0.6431239
416.20 0.6381326
416.30 0.635206
416.40 0.6344629
416.50 0.6362929
416.60 0.641363
416.70 0.6508129
416.80 0.6650947
416.90 0.6831456
417.00 0.7036119
417.10 0.724609
417.20 0.7430998
417.30 0.7590553
417.40 0.7727919
417.50 0.7850044
417.60 0.7965729
417.70 0.8083189
417.80 0.8208221
417.90 0.8343365
418.00 0.8488034
418.10 0.8631575
418.20 0.8743048
418.30 0.8811547
418.40 0.8833236
418.50 0.8810596
418.60 0.8747522
418.70 0.8656946
418.80 0.8558428
418.90 0.8463286
419.00 0.8373863
419.10 0.8289873
419.20 0.8209434
419.30 0.8132439
419.40 0.8067008
419.50 0.8025727
419.60 0.8023842
419.70 0.8023842
419.80 0.8023842
419.90 0.8023842
420.00 0.8023842
420.10 0.8030024
420.20 0.8082985
420.30 0.8177227
420.40 0.8295115
420.50 0.8412964
420.60 0.8469766
420.70 0.8434511
420.80 0.8305634
420.90 0.8110313
421.00 0.7876281
421.10 0.7620287
421.20 0.7365807
421.30 0.7139
421.40 0.6969014
421.50 0.6880795
421.60 0.6880795
421.70 0.6892671
421.80 0.6921338
421.90 0.6959703
422.00 0.699966
422.10 0.7037724
422.20 0.7075887
422.30 0.7121109
422.40 0.714513
422.50 0.7168747
422.60 0.7221729
422.70 0.7331224
422.80 0.7509871
422.90 0.7749214
423.00 0.8024095
423.10 0.8302007
423.20 0.8548927
423.30 0.8735076
423.40 0.883919
423.50 0.8849398
423.60 0.8769842
423.70 0.8620508
423.80 0.8433443
423.90 0.826598
424.00 0.8132113
424.10 0.8043291
424.20 0.8012435
424.30 0.8031625
424.40 0.8086331
424.50 0.8157988
424.60 0.8233522
424.70 0.8310881
424.80 0.839549
424.90 0.8487894
425.00 0.8577559
425.10 0.865027
425.20 0.8693662
425.30 0.8701256
425.40 0.8684505
425.50 0.8671568
425.60 0.8669283
425.70 0.8669283
425.80 0.8669283
425.90 0.8669283
426.00 0.8669283
426.10 0.8671915
426.20 0.8663582
426.30 0.8620463
426.40 0.8534666
426.50 0.8408796
426.60 0.8251757
426.70 0.8074529
426.80 0.7893738
426.90 0.7728956
427.00 0.7593491
427.10 0.7491962
427.20 0.7419466
427.30 0.7368585
427.40 0.733323
427.50 0.7303728
427.60 0.7268571
427.70 0.7223065
427.80 0.7170457
427.90 0.7115821
428.00 0.7065439
428.10 0.702912
428.20 0.70131
428.30 0.7016859
428.40 0.7036159
428.50 0.7064585
428.60 0.7098521
428.70 0.7131662
428.80 0.715543
428.90 0.7169927
429.00 0.718475
429.10 0.7208468
429.20 0.7244592
429.30 0.7294685
429.40 0.7354163
429.50 0.7414378
429.60 0.7466983
429.70 0.7509389
429.80 0.7543134
429.90 0.7571914
430.00 0.7602035
430.10 0.763355
430.20 0.7626366
430.30 0.758584
430.40 0.7536641
430.50 0.7511437
430.60 0.7538379
430.70 0.7630284
430.80 0.7787248
430.90 0.7981139
431.00 0.8181207
431.10 0.8374222
431.20 0.8548764
431.30 0.8695954
431.40 0.8807427
431.50 0.8880625
431.60 0.892406
431.70 0.8938613
431.80 0.8925795
431.90 0.889503
432.00 0.8858414
432.10 0.8823781
432.20 0.8792965
432.30 0.876132
432.40 0.8716511
432.50 0.8641609
432.60 0.8518806
432.70 0.8334678
432.80 0.8086954
432.90 0.7784485
433.00 0.7444191
433.10 0.7099942
433.20 0.6781398
433.30 0.6507808
433.40 0.6290091
433.50 0.6138736
433.60 0.6070959
433.70 0.6077481
433.80 0.6136142
433.90 0.6198316
434.00 0.6253199
434.10 0.6287416
434.20 0.6285544
434.30 0.6255158
434.40 0.6212879
434.50 0.6177566
434.60 0.6162973
434.70 0.6180716
434.80 0.6235318
434.90 0.631983
435.00 0.6420285
435.10 0.6521786
435.20 0.6615624
435.30 0.6700152
435.40 0.677002
435.50 0.6811769
435.60 0.6838087
435.70 0.6861059
435.80 0.6891161
435.90 0.694065
436.00 0.7020736
436.10 0.7132152
436.20 0.7248998
436.30 0.7373749
436.40 0.7507245
436.50 0.7644389
436.60 0.7772732
436.70 0.7875278
436.80 0.7935739
436.90 0.7946034
437.00 0.7901255
437.10 0.7806833
437.20 0.7694421
437.30 0.7585747
437.40 0.7483737
437.50 0.7391113
437.60 0.7310585
437.70 0.7239093
437.80 0.7188464
437.90 0.7147118
438.00 0.7107398
438.10 0.7068024
438.20 0.7030389
438.30 0.6993941
438.40 0.6963559
438.50 0.6949513
438.60 0.696162
438.70 0.7010317
438.80 0.7098048
438.90 0.7213981
439.00 0.7337374
439.10 0.7445014
439.20 0.7524341
439.30 0.7571411
439.40 0.7584618
439.50 0.7567987
439.60 0.7531798
439.70 0.7491205
439.80 0.746103
439.90 0.7448074
440.00 0.7447541
440.10 0.7450573
440.20 0.7453778
440.30 0.7453682
440.40 0.7439108
440.50 0.739438
440.60 0.7304543
440.70 0.7164929
440.80 0.6988271
440.90 0.679438
441.00 0.6594313
441.10 0.6401297
441.20 0.6226756
441.30 0.6079565
441.40 0.5968092
441.50 0.5894894
441.60 0.5851459
441.70 0.5825031
441.80 0.5809182
441.90 0.5801581
442.00 0.5798241
442.10 0.579481
442.20 0.5787463
442.30 0.5773885
442.40 0.5751454
442.50 0.5720208
442.60 0.5685526
442.70 0.5652841
442.80 0.5624992
442.90 0.5606057
443.00 0.560113
443.10 0.560113
443.20 0.560113
443.30 0.560113
443.40 0.560113
443.50 0.5597306
443.60 0.5571846
443.70 0.5525315
443.80 0.549506
443.90 0.5535225
444.00 0.5656723
444.10 0.5846069
444.20 0.6069405
444.30 0.6284785
444.40 0.6456731
444.50 0.6565465
444.60 0.6605043
444.70 0.6574387
444.80 0.6480587
444.90 0.6343468
445.00 0.6192029
445.10 0.605548
445.20 0.5951059
445.30 0.5881655
445.40 0.5838871
445.50 0.5810449
445.60 0.5784325
445.70 0.5761353
445.80 0.5731251
445.90 0.5681762
446.00 0.5601676
446.10 0.5487628
446.20 0.5344036
446.30 0.5196407
446.40 0.5047449
446.50 0.4896416
446.60 0.4747462
446.70 0.4608141
446.80 0.4489544
446.90 0.4405606
447.00 0.4370959
447.10 0.4393821
447.20 0.4459478
447.30 0.4559047
447.40 0.4698116
447.50 0.487413
447.60 0.5072653
447.70 0.5277528
447.80 0.5453026
447.90 0.5587678
448.00 0.5672116
448.10 0.5700502
448.20 0.5677806
448.30 0.5618171
448.40 0.553411
448.50 0.5438902
448.60 0.5339468
448.70 0.5228956
448.80 0.5104001
448.90 0.4967524
449.00 0.4826744
449.10 0.4694666
449.20 0.4585782
449.30 0.4507972
449.40 0.4466123
449.50 0.4460883
449.60 0.4482668
449.70 0.4511226
449.80 0.452638
449.90 0.4519353
450.00 0.4495497
450.10 0.4467602
450.20 0.4445957
450.30 0.4434657
450.40 0.4434273
450.50 0.444313
450.60 0.4460135
450.70 0.4485599
450.80 0.451681
450.90 0.4552028
451.00 0.4604188
451.10 0.4683418
451.20 0.4795868
451.30 0.494078
451.40 0.5107951
451.50 0.5280454
451.60 0.5444634
451.70 0.5597046
451.80 0.5738574
451.90 0.5869841
452.00 0.5988839
452.10 0.6090007
452.20 0.6166411
452.30 0.6213361
452.40 0.6234243
452.50 0.624251
452.60 0.6254817
452.70 0.628637
452.80 0.6351658
452.90 0.6461628
453.00 0.6618379
453.10 0.6810811
453.20 0.7019686
453.30 0.7228587
453.40 0.7428251
453.50 0.7613469
453.60 0.7782024
453.70 0.7936756
453.80 0.8051979
453.90 0.8085909
454.00 0.8035395
454.10 0.7915464
454.20 0.7754423
454.30 0.7584142
454.40 0.7428244
454.50 0.7299842
454.60 0.7205424
454.70 0.7141596
454.80 0.7095094
454.90 0.7050544
455.00 0.699881
455.10 0.6948657
455.20 0.6903327
455.30 0.6864898
455.40 0.6843329
455.50 0.6855104
455.60 0.6894474
455.70 0.6937246
455.80 0.6970413
455.90 0.6982217
456.00 0.6982217
456.10 0.6982217
456.20 0.6982217
456.30 0.6963997
456.40 0.6931382
456.50 0.6893688
456.60 0.686043
456.70 0.6872866
456.80 0.693555
456.90 0.703928
457.00 0.7169649
457.10 0.7304769
457.20 0.7423687
457.30 0.7507008
457.40 0.7537105
457.50 0.7509513
457.60 0.7435223
457.70 0.73287
457.80 0.7205905
457.90 0.7084605
458.00 0.6979745
458.10 0.6902241
458.20 0.6853083
458.30 0.6824512
458.40 0.6814965
458.50 0.6814965
458.60 0.6818657
458.70 0.6838813
458.80 0.6880188
458.90 0.6950299
459.00 0.7060175
459.10 0.7218368
459.20 0.7422378
459.30 0.7660623
459.40 0.7914112
459.50 0.8160197
459.60 0.8379176
459.70 0.8556427
459.80 0.8680506
459.90 0.874157
460.00 0.873688
460.10 0.8724046
460.20 0.8696709
460.30 0.865439
460.40 0.8600659
460.50 0.8543884
460.60 0.8494049
460.70 0.8455573
460.80 0.8437346
460.90 0.8433921
461.00 0.8433032
461.10 0.8421853
461.20 0.8389804
461.30 0.8331628
461.40 0.8250021
461.50 0.8151982
461.60 0.8042823
461.70 0.7928047
461.80 0.7818597
461.90 0.7727125
462.00 0.7662282
462.10 0.7631935
462.20 0.7645132
462.30 0.7705422
462.40 0.7809958
462.50 0.7948579
462.60 0.8103694
462.70 0.8256287
462.80 0.8388335
462.90 0.8484555
463.00 0.8539385
463.10 0.8560619
463.20 0.8564077
463.30 0.8561386
463.40 0.8557707
463.50 0.8557981
463.60 0.8563785
463.70 0.8570404
463.80 0.8568963
463.90 0.8553316
464.00 0.8525054
464.10 0.8488159
464.20 0.8444402
464.30 0.839486
464.40 0.8341243
464.50 0.8287951
464.60 0.824041
464.70 0.8208527
464.80 0.8205921
464.90 0.8240374
465.00 0.83112
465.10 0.8399494
465.20 0.8495913
465.30 0.8598131
465.40 0.8697461
465.50 0.8777539
465.60 0.8844708
465.70 0.8913538
465.80 0.899767
465.90 0.9102058
466.00 0.9204338
466.10 0.9279618
466.20 0.9317252
466.30 0.9317252
466.40 0.9317252
466.50 0.9317252
466.60 0.9317252
466.70 0.9282657
466.80 0.92085
466.90 0.9095933
467.00 0.8976337
467.10 0.8853865
467.20 0.8726215
467.30 0.8595272
467.40 0.846463
467.50 0.8338737
467.60 0.8226472
467.70 0.8139957
467.80 0.8091186
467.90 0.8090799
468.00 0.8141989
468.10 0.8235299
468.20 0.8354369
468.30 0.84831
468.40 0.8602271
468.50 0.8703165
468.60 0.8781106
468.70 0.8826429
468.80 0.8843754
468.90 0.8838912
469.00 0.8815113
469.10 0.8773754
469.20 0.8714086
469.30 0.863478
469.40 0.8538351
469.50 0.8437438
469.60 0.8352936
469.70 0.8307943
469.80 0.8319447
469.90 0.8396977
470.00 0.8540232
470.10 0.868568
470.20 0.8835429
470.30 0.8991692
470.40 0.9155841
470.50 0.9328318
470.60 0.9507306
470.70 0.9690138
470.80 0.9862929
470.90 1.001861
471.00 1.015111
471.10 1.02535
471.20 1.032227
471.30 1.036207
471.40 1.03837
471.50 1.040125
471.60 1.042636
471.70 1.045561
471.80 1.046894
471.90 1.044538
472.00 1.039123
472.10 1.032041
472.20 1.023081
472.30 1.012356
472.40 0.9998146
472.50 0.9871432
472.60 0.9762272
472.70 0.967107
472.80 0.9591996
472.90 0.9519747
473.00 0.9448846
473.10 0.9378193
473.20 0.9312899
473.30 0.9260005
473.40 0.9225597
473.50 0.9210585
473.60 0.9210916
473.70 0.9220133
473.80 0.9236425
473.90 0.9259379
474.00 0.9285426
474.10 0.931488
474.20 0.9352026
474.30 0.9397848
474.40 0.9452012
474.50 0.9511
474.60 0.9569993
474.70 0.9625967
474.80 0.967406
474.90 0.9712984
475.00 0.9745348
475.10 0.9775131
475.20 0.9802728
475.30 0.9822386
475.40 0.9826769
475.50 0.9807961
475.60 0.975691
475.70 0.9667826
475.80 0.9550527
475.90 0.9434335
476.00 0.9332054
476.10 0.9256775
476.20 0.9219141
476.30 0.9219141
476.40 0.9219141
476.50 0.9219141
476.60 0.9219141
476.70 0.9219141
476.80 0.9219141
476.90 0.9219141
477.00 0.92026
477.10 0.9201279
477.20 0.9237484
477.30 0.932482
477.40 0.9463336
477.50 0.9636523
477.60 0.9817468
477.70 0.9977947
477.80 1.009478
477.90 1.015302
478.00 1.015156
478.10 1.010684
478.20 1.004668
478.30 1.000198
478.40 0.9995094
478.50 1.003359
478.60 1.011264
478.70 1.021804
478.80 1.033025
478.90 1.043175
479.00 1.050864
479.10 1.054969
479.20 1.055122
479.30 1.05217
479.40 1.047799
479.50 1.0434
479.60 1.039319
479.70 1.034858
479.80 1.029596
479.90 1.023739
480.00 1.017672
480.10 1.012176
480.20 1.008217
480.30 1.006289
480.40 1.006112
480.50 1.007182
480.60 1.009091
480.70 1.011332
480.80 1.013001
480.90 1.013024
481.00 1.011066
481.10 1.008095
481.20 1.005214
481.30 1.002855
481.40 1.001252
481.50 1.000733
481.60 1.001523
481.70 1.004216
481.80 1.010197
481.90 1.020479
482.00 1.033802
482.10 1.048321
482.20 1.063569
482.30 1.07943
482.40 1.096036
482.50 1.111453
482.60 1.123987
482.70 1.13394
482.80 1.141746
482.90 1.147454
483.00 1.151124
483.10 1.152452
483.20 1.150482
483.30 1.14463
483.40 1.134926
483.50 1.122077
483.60 1.10809
483.70 1.095466
483.80 1.085937
483.90 1.080319
484.00 1.078301
484.10 1.078561
484.20 1.079645
484.30 1.080419
484.40 1.079944
484.50 1.077592
484.60 1.07326
484.70 1.067144
484.80 1.059814
484.90 1.052046
485.00 1.043998
485.10 1.035241
485.20 1.025622
485.30 1.015699
485.40 1.006654
485.50 0.9998942
485.60 0.99653
485.70 0.9972773
485.80 1.001443
485.90 1.006642
486.00 1.012234
486.10 1.017263
486.20 1.021027
486.30 1.023326
486.40 1.024696
486.50 1.026553
486.60 1.030805
486.70 1.039034
486.80 1.052065
486.90 1.069727
487.00 1.089649
487.10 1.106859
487.20 1.117809
487.30 1.120198
487.40 1.113896
487.50 1.101365
487.60 1.086416
487.70 1.072886
487.80 1.063693
487.90 1.060133
488.00 1.061683
488.10 1.066533
488.20 1.0725
488.30 1.077439
488.40 1.079538
488.50 1.078153
488.60 1.074244
488.70 1.069601
488.80 1.065697
488.90 1.063119
489.00 1.061747
489.10 1.061171
489.20 1.061103
489.30 1.061427
489.40 1.062043
489.50 1.063021
489.60 1.064549
489.70 1.067148
489.80 1.071179
489.90 1.076387
490.00 1.081857
490.10 1.086186
490.20 1.088166
490.30 1.087256
490.40 1.083593
490.50 1.077393
490.60 1.06875
490.70 1.057674
490.80 1.044301
490.90 1.029045
491.00 1.012626
491.10 0.9985531
491.20 0.9865167
491.30 0.9762214
491.40 0.9671063
491.50 0.958423
491.60 0.9496196
491.70 0.9402383
491.80 0.9297167
491.90 0.9189777
492.00 0.9076062
492.10 0.8951202
492.20 0.8814025
492.30 0.8661088
492.40 0.8495029
492.50 0.8320691
492.60 0.8137089
492.70 0.7944614
492.80 0.7748288
492.90 0.755727
493.00 0.7410096
493.10 0.7323201
493.20 0.730127
493.30 0.732935
493.40 0.7381353
493.50 0.743099
493.60 0.745251
493.70 0.7429516
493.80 0.7364972
493.90 0.7277578
494.00 0.7179921
494.10 0.7107648
494.20 0.70819
494.30 0.7115841
494.40 0.7211277
494.50 0.7356718
494.60 0.7532976
494.70 0.771899
494.80 0.7895904
494.90 0.8044646
495.00 0.8153009
495.10 0.8219324
495.20 0.824808
495.30 0.8248685
495.40 0.823426
495.50 0.8216972
495.60 0.8203986
495.70 0.8197495
495.80 0.8203565
495.90 0.8235538
496.00 0.8306423
496.10 0.8425079
496.20 0.8592961
496.30 0.8804283
496.40 0.9042427
496.50 0.9279586
496.60 0.948288
496.70 0.9624175
496.80 0.9687765
496.90 0.9675409
497.00 0.960826
497.10 0.9522558
497.20 0.9454061
497.30 0.9424417
497.40 0.9439232
497.50 0.9487882
497.60 0.9549335
497.70 0.9601997
497.80 0.9633446
497.90 0.9644404
498.00 0.9645112
498.10 0.9645086
498.20 0.9649233
498.30 0.9661038
498.40 0.9680979
498.50 0.970252
498.60 0.9715667
498.70 0.9711982
498.80 0.9687568
498.90 0.9646726
499.00 0.960004
499.10 0.9561818
499.20 0.9544304
499.30 0.9552233
499.40 0.9583547
499.50 0.9634217
499.60 0.9701822
499.70 0.9781255
499.80 0.9863757
499.90 0.9939473
500.00 1
500.10 1.004105
500.20 1.006029
500.30 1.005756
500.40 1.003833
500.50 1.001278
500.60 0.9991904
500.70 0.9987274
500.80 1.001046
500.90 1.007184
501.00 1.017333
501.10 1.027701
501.20 1.038066
501.30 1.048528
501.40 1.059205
501.50 1.070099
501.60 1.08164
501.70 1.094646
501.80 1.110016
501.90 1.127282
502.00 1.147325
502.10 1.171084
502.20 1.1986
502.30 1.228957
502.40 1.260198
502.50 1.290531
502.60 1.319136
502.70 1.345586
502.80 1.369806
502.90 1.392095
503.00 1.409922
503.10 1.423007
503.20 1.432226
503.30 1.439671
503.40 1.447453
503.50 1.456463
503.60 1.466876
503.70 1.478432
503.80 1.48988
503.90 1.499398
504.00 1.506844
504.10 1.510344
504.20 1.509094
504.30 1.502469
504.40 1.490458
504.50 1.473892
504.60 1.453751
504.70 1.43266
504.80 1.412859
504.90 1.395582
505.00 1.381849
505.10 1.372166
505.20 1.366507
505.30 1.364183
505.40 1.365993
505.50 1.375038
505.60 1.39095
505.70 1.413152
505.80 1.439697
505.90 1.467212
506.00 1.492251
506.10 1.512215
506.20 1.525434
506.30 1.53141
506.40 1.531398
506.50 1.528062
506.60 1.524349
506.70 1.522386
506.80 1.523117
506.90 1.526556
507.00 1.531831
507.10 1.537447
507.20 1.542238
507.30 1.545802
507.40 1.548314
507.50 1.550236
507.60 1.552046
507.70 1.554257
507.80 1.556795
507.90 1.558914
508.00 1.559966
508.10 1.559821
508.20 1.558548
508.30 1.555872
508.40 1.551728
508.50 1.546759
508.60 1.541907
508.70 1.538295
508.80 1.536732
508.90 1.537474
509.00 1.540356
509.10 1.544362
509.20 1.548032
509.30 1.549967
509.40 1.549057
509.50 1.544831
509.60 1.537784
509.70 1.529399
509.80 1.521226
509.90 1.51433
510.00 1.509413
510.10 1.506641
510.20 1.505777
510.30 1.50623
510.40 1.507056
510.50 1.507229
510.60 1.505982
510.70 1.502886
510.80 1.497789
510.90 1.490535
511.00 1.480986
511.10 1.470617
511.20 1.460252
511.30 1.44979
511.40 1.439607
511.50 1.432383
511.60 1.428335
511.70 1.426871
511.80 1.426734
511.90 1.426319
512.00 1.423666
512.10 1.416718
512.20 1.404337
512.30 1.386816
512.40 1.365395
512.50 1.341522
512.60 1.316529
512.70 1.291513
512.80 1.267533
512.90 1.245603
513.00 1.226415
513.10 1.210149
513.20 1.196575
513.30 1.185247
513.40 1.175972
513.50 1.169129
513.60 1.164795
513.70 1.162568
513.80 1.161796
513.90 1.161722
514.00 1.161759
514.10 1.161351
514.20 1.160501
514.30 1.160292
514.40 1.162278
514.50 1.167588
514.60 1.17683
514.70 1.188332
514.80 1.200201
514.90 1.211492
515.00 1.221312
515.10 1.228872
515.20 1.233798
515.30 1.236183
515.40 1.234304
515.50 1.22511
515.60 1.208292
515.70 1.183741
515.80 1.152422
515.90 1.116511
516.00 1.078792
516.10 1.041933
516.20 1.008162
516.30 0.9787543
516.40 0.9535826
516.50 0.9313449
516.60 0.910477
516.70 0.8900818
516.80 0.8699611
516.90 0.8503674
517.00 0.8349409
517.10 0.8244256
517.20 0.8191733
517.30 0.8192987
517.40 0.8242712
517.50 0.8328967
517.60 0.84377
517.70 0.8553179
517.80 0.8666833
517.90 0.8779862
518.00 0.8896236
518.10 0.9019315
518.20 0.9153378
518.30 0.9306352
518.40 0.9484888
518.50 0.9688458
518.60 0.9906875
518.70 1.012087
518.80 1.031258
518.90 1.046901
519.00 1.057954
519.10 1.064087
519.20 1.06551
519.30 1.063079
519.40 1.058316
519.50 1.052488
519.60 1.046089
519.70 1.039044
519.80 1.031392
519.90 1.023792
520.00 1.017152
520.10 1.012588
520.20 1.01124
520.30 1.013771
520.40 1.020266
520.50 1.030253
520.60 1.043006
520.70 1.057533
520.80 1.072622
520.90 1.087674
521.00 1.103057
521.10 1.118366
521.20 1.133922
521.30 1.150763
521.40 1.169561
521.50 1.188237
521.60 1.205828
521.70 1.221217
521.80 1.233757
521.90 1.243575
522.00 1.251609
522.10 1.259076
522.20 1.267086
522.30 1.276398
522.40 1.287118
522.50 1.298922
522.60 1.311729
522.70 1.325844
522.80 1.341632
522.90 1.359271
523.00 1.378587
523.10 1.399136
523.20 1.419945
523.30 1.439699
523.40 1.457154
523.50 1.471557
523.60 1.483175
523.70 1.492836
523.80 1.50175
523.90 1.511534
524.00 1.523304
524.10 1.537037
524.20 1.551574
524.30 1.564929
524.40 1.575442
524.50 1.582494
524.60 1.58649
524.70 1.588636
524.80 1.590613
524.90 1.594243
525.00 1.600821
525.10 1.610947
525.20 1.624514
525.30 1.640786
525.40 1.658848
525.50 1.67714
525.60 1.695613
525.70 1.714602
525.80 1.734404
525.90 1.755221
526.00 1.777378
526.10 1.801362
526.20 1.827327
526.30 1.854811
526.40 1.883013
526.50 1.911183
526.60 1.938994
526.70 1.966336
526.80 1.99308
526.90 2.018908
527.00 2.039948
527.10 2.055302
527.20 2.064788
527.30 2.068477
527.40 2.066632
527.50 2.059952
527.60 2.049546
527.70 2.036598
527.80 2.021781
527.90 2.005113
528.00 1.986106
528.10 1.964297
528.20 1.939718
528.30 1.912895
528.40 1.884857
528.50 1.856783
528.60 1.829712
528.70 1.804677
528.80 1.782508
528.90 1.763446
529.00 1.74735
529.10 1.734091
529.20 1.72373
529.30 1.716184
529.40 1.711037
529.50 1.707821
529.60 1.706065
529.70 1.70523
529.80 1.704733
529.90 1.704052
530.00 1.702964
530.10 1.70127
530.20 1.698865
530.30 1.696049
530.40 1.693536
530.50 1.692348
530.60 1.693424
530.70 1.697636
530.80 1.7056
530.90 1.717033
531.00 1.73055
531.10 1.744148
531.20 1.755879
531.30 1.764017
531.40 1.767229
531.50 1.765357
531.60 1.759317
531.70 1.75056
531.80 1.740677
531.90 1.730946
532.00 1.72233
532.10 1.715522
532.20 1.71063
532.30 1.707309
532.40 1.705153
532.50 1.703658
532.60 1.702108
532.70 1.699765
532.80 1.695761
532.90 1.689253
533.00 1.680278
533.10 1.669639
533.20 1.658633
533.30 1.648572
533.40 1.64034
533.50 1.634469
533.60 1.631188
533.70 1.63048
533.80 1.632089
533.90 1.635276
534.00 1.639206
534.10 1.643652
534.20 1.648947
534.30 1.655426
534.40 1.66275
534.50 1.670299
534.60 1.677643
534.70 1.684556
534.80 1.691077
534.90 1.697196
535.00 1.702939
535.10 1.708423
535.20 1.713766
535.30 1.719227
535.40 1.724826
535.50 1.729934
535.60 1.733729
535.70 1.735697
535.80 1.735835
535.90 1.734546
536.00 1.732137
536.10 1.728613
536.20 1.723914
536.30 1.718212
536.40 1.712088
536.50 1.706106
536.60 1.700229
536.70 1.694215
536.80 1.687999
536.90 1.681693
537.00 1.675813
537.10 1.671022
537.20 1.667772
537.30 1.666377
537.40 1.667296
537.50 1.671277
537.60 1.67912
537.70 1.691286
537.80 1.707436
537.90 1.726495
538.00 1.746945
538.10 1.767125
538.20 1.785792
538.30 1.802213
538.40 1.816087
538.50 1.828064
538.60 1.839511
538.70 1.851817
538.80 1.866095
538.90 1.882845
539.00 1.901877
539.10 1.922626
539.20 1.944622
539.30 1.967807
539.40 1.992486
539.50 2.018895
539.60 2.046916
539.70 2.076133
539.80 2.105942
539.90 2.13545
540.00 2.163765
540.10 2.190349
540.20 2.214728
540.30 2.236899
540.40 2.25738
540.50 2.276449
540.60 2.294053
540.70 2.310116
540.80 2.32491
540.90 2.339033
541.00 2.353441
541.10 2.36936
541.20 2.387808
541.30 2.409183
541.40 2.433004
541.50 2.457866
541.60 2.482167
541.70 2.504234
541.80 2.522309
541.90 2.535493
542.00 2.543931
542.10 2.548731
542.20 2.55201
542.30 2.556062
542.40 2.562547
542.50 2.572329
542.60 2.585326
542.70 2.600521
542.80 2.616513
542.90 2.631607
543.00 2.643716
543.10 2.651257
543.20 2.654149
543.30 2.653835
543.40 2.652483
543.50 2.652
543.60 2.653419
543.70 2.656896
543.80 2.661766
543.90 2.6668
544.00 2.670596
544.10 2.671919
544.20 2.669924
544.30 2.664644
544.40 2.65715
544.50 2.648875
544.60 2.641069
544.70 2.634584
544.80 2.629754
544.90 2.626181
545.00 2.62296
545.10 2.61932
545.20 2.614805
545.30 2.609166
545.40 2.602604
545.50 2.595898
545.60 2.589931
545.70 2.584953
545.80 2.580415
545.90 2.575363
546.00 2.568822
546.10 2.559964
546.20 2.548333
546.30 2.534175
546.40 2.518168
546.50 2.501032
546.60 2.48339
546.70 2.465568
546.80 2.447571
546.90 2.429045
547.00 2.409728
547.10 2.390604
547.20 2.371416
547.30 2.35208
547.40 2.33376
547.50 2.316481
547.60 2.29981
547.70 2.283142
547.80 2.266041
547.90 2.248684
548.00 2.232029
548.10 2.216973
548.20 2.203502
548.30 2.190902
548.40 2.177779
548.50 2.163782
548.60 2.148942
548.70 2.131806
548.80 2.111343
548.90 2.087256
549.00 2.060128
549.10 2.034731
549.20 2.014046
549.30 1.998267
549.40 1.986506
549.50 1.977517
549.60 1.969888
549.70 1.962494
549.80 1.95505
549.90 1.947988
550.00 1.556566
550.10 1.503539
550.20 1.456336
550.30 1.411879
550.40 1.369604
550.50 1.327347
550.60 1.283512
550.70 1.23709
550.80 1.187778
550.90 1.136722
551.00 1.086543
551.10 1.039485
551.20 0.996464
551.30 0.9567315
551.40 0.9177419
551.50 0.880296
551.60 0.8457254
551.70 0.8105329
551.80 0.77169
551.90 0.7280254
552.00 0.6807239
552.10 0.6413287
552.20 0.617201
552.30 0.609395
552.40 0.6163943
552.50 0.6350296
552.60 0.6609403
552.70 0.6907489
552.80 0.7234767
552.90 0.7596072
553.00 0.7993778
553.10 0.842721
553.20 0.8898004
553.30 0.9397716
553.40 0.9906165
553.50 1.040783
553.60 1.089415
553.70 1.135734
553.80 1.178888
553.90 1.219043
554.00 1.25698
554.10 1.290832
554.20 1.321271
554.30 1.348342
554.40 1.369952
554.50 1.386938
554.60 1.400896
554.70 1.413525
554.80 1.426567
554.90 1.440765
555.00 1.456085
555.10 1.474797
555.20 1.500085
555.30 1.532486
555.40 1.568542
555.50 1.600794
555.60 1.626149
555.70 1.650194
555.80 1.67997
555.90 1.721989
556.00 1.780145
556.10 1.846012
556.20 1.913129
556.30 1.97877
556.40 2.039106
556.50 2.087759
556.60 2.119345
556.70 2.132178
556.80 2.129302
556.90 2.114922
557.00 2.091313
557.10 2.06024
557.20 2.023834
557.30 1.985977
557.40 1.952002
557.50 1.926579
557.60 1.912918
557.70 1.91302
557.80 1.927352
557.90 1.953742
558.00 1.987168
558.10 2.021864
558.20 2.053351
558.30 2.079491
558.40 2.09955
558.50 2.113798
558.60 2.123311
558.70 2.129291
558.80 2.1329
558.90 2.135289
559.00 2.137806
559.10 2.139686
559.20 2.139399
559.30 2.138092
559.40 2.140421
559.50 2.149028
559.60 2.159773
559.70 2.16451
559.80 2.154617
559.90 2.123727
560.00 2.069823
560.10 1.995248
560.20 1.904933
560.30 1.80555
560.40 1.704466
560.50 1.610602
560.60 1.532779
560.70 1.476158
560.80 1.43988
560.90 1.42015
561.00 1.414627
561.10 1.421266
561.20 1.436579
561.30 1.455519
561.40 1.472147
561.50 1.480917
561.60 1.478443
561.70 1.464038
561.80 1.440043
561.90 1.411273
562.00 1.383376
562.10 1.360967
562.20 1.346524
562.30 1.340821
562.40 1.343442
562.50 1.352232
562.60 1.364593
562.70 1.379188
562.80 1.39572
562.90 1.414439
563.00 1.435152
563.10 1.457476
563.20 1.480824
563.30 1.503606
563.40 1.523687
563.50 1.540176
563.60 1.554402
563.70 1.56914
563.80 1.58716
563.90 1.610663
564.00 1.640502
564.10 1.675087
564.20 1.711561
564.30 1.747176
564.40 1.780939
564.50 1.812855
564.60 1.841969
564.70 1.867041
564.80 1.887152
564.90 1.901891
565.00 1.911143
565.10 1.915057
565.20 1.914588
565.30 1.910615
565.40 1.903865
565.50 1.89534
565.60 1.885697
565.70 1.875895
565.80 1.867352
565.90 1.861364
566.00 1.860315
566.10 1.866595
566.20 1.881444
566.30 1.903984
566.40 1.930611
566.50 1.956558
566.60 1.976856
566.70 1.987667
566.80 1.986802
566.90 1.974761
567.00 1.955111
567.10 1.932142
567.20 1.910183
567.30 1.893721
567.40 1.885528
567.50 1.886143
567.60 1.894262
567.70 1.907912
567.80 1.925415
567.90 1.945402
568.00 1.967282
568.10 1.991126
568.20 2.017764
568.30 2.047812
568.40 2.080709
568.50 2.115543
568.60 2.151183
568.70 2.185691
568.80 2.216123
568.90 2.23981
569.00 2.255379
569.10 2.262404
569.20 2.26161
569.30 2.25553
569.40 2.247682
569.50 2.241586
569.60 2.240464
569.70 2.245883
569.80 2.257026
569.90 2.27121
570.00 2.283246
570.10 2.287774
570.20 2.282225
570.30 2.266152
570.40 2.241547
570.50 2.213174
570.60 2.186241
570.70 2.163962
570.80 2.148305
570.90 2.140124
571.00 2.138219
571.10 2.140429
571.20 2.143937
571.30 2.145359
571.40 2.142602
571.50 2.135285
571.60 2.12408
571.70 2.110395
571.80 2.095708
571.90 2.080233
572.00 2.063182
572.10 2.044088
572.20 2.021959
572.30 1.995305
572.40 1.96292
572.50 1.923892
572.60 1.878291
572.70 1.827475
572.80 1.774743
572.90 1.724347
573.00 1.679972
573.10 1.644314
573.20 1.6187
573.30 1.602904
573.40 1.595353
573.50 1.593879
573.60 1.596139
573.70 1.599795
573.80 1.603029
573.90 1.605036
574.00 1.606275
574.10 1.607902
574.20 1.610544
574.30 1.615616
574.40 1.62447
574.50 1.637191
574.60 1.653051
574.70 1.671112
574.80 1.690701
574.90 1.709968
575.00 1.726178
575.10 1.737743
575.20 1.744187
575.30 1.745963
575.40 1.745146
575.50 1.744664
575.60 1.74636
575.70 1.748843
575.80 1.749458
575.90 1.746415
576.00 1.738582
576.10 1.725038
576.20 1.704746
576.30 1.678232
576.40 1.648557
576.50 1.619743
576.60 1.595925
576.70 1.580638
576.80 1.574916
576.90 1.577162
577.00 1.584963
577.10 1.595956
577.20 1.606789
577.30 1.613773
577.40 1.614911
577.50 1.610012
577.60 1.600363
577.70 1.588004
577.80 1.57371
577.90 1.55715
578.00 1.53827
578.10 1.51783
578.20 1.497362
578.30 1.477284
578.40 1.456739
578.50 1.435414
578.60 1.415228
578.70 1.398951
578.80 1.387206
578.90 1.379902
579.00 1.377419
579.10 1.37964
579.20 1.386947
579.30 1.400221
579.40 1.419372
579.50 1.442614
579.60 1.46617
579.70 1.486279
579.80 1.499883
579.90 1.504264
580.00 1.497576
580.10 1.480249
580.20 1.458584
580.30 1.441438
580.40 1.426926
580.50 1.412858
580.60 1.405195
580.70 1.407043
580.80 1.418205
580.90 1.436906
581.00 1.459848
581.10 1.483739
581.20 1.506957
581.30 1.528623
581.40 1.54713
581.50 1.560626
581.60 1.568315
581.70 1.571403
581.80 1.574158
581.90 1.582418
582.00 1.600431
582.10 1.628269
582.20 1.661691
582.30 1.694811
582.40 1.723244
582.50 1.744204
582.60 1.755042
582.70 1.754355
582.80 1.743281
582.90 1.724317
583.00 1.699265
583.10 1.66812
583.20 1.629296
583.30 1.581524
583.40 1.525038
583.50 1.46263
583.60 1.400902
583.70 1.348253
583.80 1.310859
583.90 1.290985
584.00 1.287851
584.10 1.299098
584.20 1.317788
584.30 1.33327
584.40 1.343906
584.50 1.348692
584.60 1.340595
584.70 1.319298
584.80 1.283973
584.90 1.238864
585.00 1.191427
585.10 1.145544
585.20 1.104716
585.30 1.072116
585.40 1.048449
585.50 1.030076
585.60 1.010123
585.70 0.9808737
585.80 0.9467599
585.90 0.9039154
586.00 0.8490897
586.10 0.7831171
586.20 0.7107372
586.30 0.6386487
586.40 0.5727931
586.50 0.5166484
586.60 0.4710995
586.70 0.4524857
586.80 0.4609258
586.90 0.4909188
587.00 0.5369123
587.10 0.5949501
587.20 0.6622786
587.30 0.7365511
587.40 0.8164079
587.50 0.900319
587.60 0.9847035
587.70 1.06479
587.80 1.136348
587.90 1.196243
588.00 1.242727
588.10 1.275859
588.20 1.297768
588.30 1.312177
588.40 1.323141
588.50 1.333947
588.60 1.345849
588.70 1.355552
588.80 1.36266
588.90 1.364234
589.00 1.357303
589.10 1.345105
589.20 1.328684
589.30 1.31192
589.40 1.299906
589.50 1.297989
589.60 1.310607
589.70 1.339992
589.80 1.37438
589.90 1.410373
590.00 1.446308
590.10 1.480695
590.20 1.512684
590.30 1.541989
590.40 1.569177
590.50 1.595569
590.60 1.620428
590.70 1.623274
590.80 1.599037
590.90 1.549733
591.00 1.480981
591.10 1.400548
591.20 1.316286
591.30 1.233683
591.40 1.154017
591.50 1.075578
591.60 0.9963892
591.70 0.9151812
591.80 0.832094
591.90 0.7515927
592.00 0.6838444
592.10 0.6302751
592.20 0.5896769
592.30 0.5597859
592.40 0.5407427
592.50 0.5336873
592.60 0.5350857
592.70 0.5426914
592.80 0.5564495
592.90 0.5768592
593.00 0.6031793
593.10 0.6325051
593.20 0.6642063
593.30 0.694343
593.40 0.7194132
593.50 0.7382608
593.60 0.751706
593.70 0.7619388
593.80 0.7712881
593.90 0.7811953
594.00 0.7927898
594.10 0.8076524
594.20 0.8280126
594.30 0.8562206
594.40 0.8931812
594.50 0.9371478
594.60 0.9854926
594.70 1.035946
594.80 1.086154
594.90 1.133483
595.00 1.174088
595.10 1.203962
595.20 1.221757
595.30 1.23023
595.40 1.234906
595.50 1.241469
595.60 1.25334
595.70 1.271273
595.80 1.293813
595.90 1.316306
596.00 1.330706
596.10 1.338475
596.20 1.3429
596.30 1.347394
596.40 1.352332
596.50 1.356806
596.60 1.3636
596.70 1.373622
596.80 1.386648
596.90 1.401842
597.00 1.418605
597.10 1.436729
597.20 1.457109
597.30 1.481229
597.40 1.508582
597.50 1.53648
597.60 1.561734
597.70 1.582121
597.80 1.597133
597.90 1.606836
598.00 1.610802
598.10 1.608398
598.20 1.598091
598.30 1.577997
598.40 1.547337
598.50 1.507929
598.60 1.464801
598.70 1.424854
598.80 1.395169
598.90 1.381371
599.00 1.386273
599.10 1.409209
599.20 1.446419
599.30 1.492326
599.40 1.541755
599.50 1.591058
599.60 1.638125
599.70 1.682206
599.80 1.724039
599.90 1.765323
600.00 2.059822
600.10 1.873842
600.20 1.681655
600.30 1.496786
600.40 1.339528
600.50 1.237983
600.60 1.203063
600.70 1.235258
600.80 1.36057
600.90 1.594913
601.00 1.885536
601.10 2.149908
601.20 2.360515
601.30 2.540006
601.40 2.720817
601.50 2.893461
601.60 2.995989
601.70 2.972744
601.80 2.815529
601.90 2.551115
602.00 2.206677
602.10 1.825109
602.20 1.485665
602.30 1.25215
602.40 1.162488
602.50 1.234023
602.60 1.439938
602.70 1.7535
602.80 2.138981
602.90 2.521378
603.00 2.850286
603.10 3.100187
603.20 3.230546
603.30 3.208046
603.40 3.048744
603.50 2.832267
603.60 2.632841
603.70 2.506671
603.80 2.513439
603.90 2.681027
604.00 2.98607
604.10 3.334936
604.20 3.624869
604.30 3.807068
604.40 3.850064
604.50 3.750045
604.60 3.557544
604.70 3.332289
604.80 3.102675
604.90 2.867054
605.00 2.636321
605.10 2.43546
605.20 2.282339
605.30 2.194483
605.40 2.164389
605.50 2.16887
605.60 2.175783
605.70 2.152991
605.80 2.097714
605.90 2.016136
606.00 1.89049
606.10 1.717328
606.20 1.543886
606.30 1.443126
606.40 1.488055
606.50 1.740759
606.60 2.202831
606.70 2.791954
606.80 3.398242
606.90 3.89709
607.00 4.168894
607.10 4.154567
607.20 3.879716
607.30 3.426918
607.40 2.894642
607.50 2.359811
607.60 1.884242
607.70 1.512258
607.80 1.239124
607.90 1.031245
608.00 0.8579298
608.10 0.6855128
608.20 0.5133248
608.30 0.3954822
608.40 0.3761878
608.50 0.4690845
608.60 0.6522226
608.70 0.8639935
608.80 1.064812
608.90 1.259037
609.00 1.457096
609.10 1.686365
609.20 1.98641
609.30 2.347221
609.40 2.724377
609.50 3.114517
609.60 3.51738
609.70 3.902137
609.80 4.23475
609.90 4.476625
610.00 4.597066
610.10 4.614783
610.20 4.571908
610.30 4.502321
610.40 4.416645
610.50 4.253868
610.60 3.97038
610.70 3.613919
610.80 3.266158
610.90 2.982875
611.00 2.787073
611.10 2.687008
611.20 2.68561
611.30 2.781689
611.40 2.962136
611.50 3.17808
611.60 3.352369
611.70 3.421073
611.80 3.35872
611.90 3.221952
612.00 3.082168
612.10 2.961578
612.20 2.865921
612.30 2.780742
612.40 2.665212
612.50 2.498307
612.60 2.292929
612.70 2.071784
612.80 1.857366
612.90 1.687595
613.00 1.607735
613.10 1.635097
613.20 1.778808
613.30 2.003834
613.40 2.240691
613.50 2.453903
613.60 2.648656
613.70 2.842698
613.80 3.067458
613.90 3.35242
614.00 3.711927
614.10 4.127797
614.20 4.529277
614.30 4.810875
614.40 4.895028
614.50 4.774903
614.60 4.473861
614.70 4.067883
614.80 3.656016
614.90 3.305772
615.00 3.056887
615.10 2.957449
615.20 3.034089
615.30 3.225709
615.40 3.432907
615.50 3.58947
615.60 3.69707
615.70 3.808259
615.80 3.974648
615.90 4.209267
616.00 4.49045
616.10 4.78042
616.20 5.012753
616.30 5.10832
616.40 5.019111
616.50 4.733997
616.60 4.283572
616.70 3.739355
616.80 3.170814
616.90 2.642247
617.00 2.204255
617.10 1.871542
617.20 1.632835
617.30 1.461529
617.40 1.35188
617.50 1.302816
617.60 1.322543
617.70 1.446694
617.80 1.678276
617.90 1.967444
618.00 2.264084
618.10 2.554339
618.20 2.81031
618.30 2.97855
618.40 3.032356
618.50 2.980438
618.60 2.854184
618.70 2.707813
618.80 2.610199
618.90 2.612254
619.00 2.7387
619.10 2.963461
619.20 3.233977
619.30 3.505159
619.40 3.685012
619.50 3.700176
619.60 3.586747
619.70 3.430897
619.80 3.27737
619.90 3.142665
620.00 3.068825
620.10 3.097651
620.20 3.218732
620.30 3.387559
620.40 3.55704
620.50 3.678673
620.60 3.706595
620.70 3.620659
620.80 3.474813
620.90 3.317503
621.00 3.140322
621.10 2.937149
621.20 2.743927
621.30 2.621671
621.40 2.572563
621.50 2.538317
621.60 2.496224
621.70 2.461936
621.80 2.42095
621.90 2.343414
622.00 2.244775
622.10 2.158408
622.20 2.083593
622.30 2.021281
622.40 1.998001
622.50 2.052003
622.60 2.205016
622.70 2.440806
622.80 2.737347
622.90 3.090833
623.00 3.462921
623.10 3.803561
623.20 4.092523
623.30 4.319712
623.40 4.44793
623.50 4.440471
623.60 4.320172
623.70 4.133169
623.80 3.903597
623.90 3.645029
624.00 3.389958
624.10 3.180125
624.20 3.052313
624.30 3.026509
624.40 3.10242
624.50 3.246919
624.60 3.414742
624.70 3.574842
624.80 3.700175
624.90 3.769857
625.00 3.774955
625.10 3.74306
625.20 3.75047
625.30 3.82815
625.40 3.93893
625.50 4.063929
625.60 4.182239
625.70 4.252117
625.80 4.246659
625.90 4.177415
626.00 4.078016
626.10 3.970155
626.20 3.860772
626.30 3.717507
626.40 3.515548
626.50 3.266571
626.60 2.980227
626.70 2.694162
626.80 2.46685
626.90 2.338457
627.00 2.350778
627.10 2.527876
627.20 2.835369
627.30 3.208374
627.40 3.574633
627.50 3.861079
627.60 4.012503
627.70 4.033741
627.80 3.95677
627.90 3.805259
628.00 3.615104
628.10 3.447887
628.20 3.369093
628.30 3.413631
628.40 3.563448
628.50 3.776387
628.60 4.025152
628.70 4.245218
628.80 4.365909
628.90 4.372317
629.00 4.299109
629.10 4.196765
629.20 4.111525
629.30 4.0821
629.40 4.134444
629.50 4.250166
629.60 4.412856
629.70 4.639188
629.80 4.908711
629.90 5.168913
630.00 5.35612
630.10 5.439465
630.20 5.421748
630.30 5.31617
630.40 5.153827
630.50 4.984415
630.60 4.847539
630.70 4.75369
630.80 4.682114
630.90 4.626896
631.00 4.59077
631.10 4.536317
631.20 4.474335
631.30 4.442359
631.40 4.474632
631.50 4.602197
631.60 4.813868
631.70 5.062598
631.80 5.285463
631.90 5.4265
632.00 5.465503
632.10 5.414954
632.20 5.31273
632.30 5.21953
632.40 5.176553
632.50 5.182634
632.60 5.191849
632.70 5.165641
632.80 5.073533
632.90 4.896111
633.00 4.661574
633.10 4.429167
633.20 4.258299
633.30 4.198066
633.40 4.274238
633.50 4.465676
633.60 4.725211
633.70 5.017705
633.80 5.311749
633.90 5.601239
634.00 5.902009
634.10 6.203932
634.20 6.486771
634.30 6.727057
634.40 6.898046
634.50 6.988933
634.60 7.013713
634.70 6.981514
634.80 6.896449
634.90 6.776338
635.00 6.661555
635.10 6.567894
635.20 6.498069
635.30 6.436576
635.40 6.34893
635.50 6.23648
635.60 6.097884
635.70 5.943532
635.80 5.836576
635.90 5.8368
636.00 5.977056
636.10 6.271782
636.20 6.675177
636.30 7.123522
636.40 7.538312
636.50 7.837046
636.60 7.949609
636.70 7.849863
636.80 7.577225
636.90 7.201873
637.00 6.835479
637.10 6.565292
637.20 6.399357
637.30 6.318644
637.40 6.288378
637.50 6.274552
637.60 6.2705
637.70 6.249599
637.80 6.181757
637.90 6.051337
638.00 5.868342
638.10 5.678976
638.20 5.527589
638.30 5.423581
638.40 5.363499
638.50 5.343162
638.60 5.3433
638.70 5.340663
638.80 5.322976
638.90 5.283607
639.00 5.234701
639.10 5.220626
639.20 5.2789
639.30 5.422991
639.40 5.626544
639.50 5.830645
639.60 5.985326
639.70 6.082911
639.80 6.134342
639.90 6.148947
640.00 6.132806
640.10 6.101115
640.20 6.0881
640.30 6.108156
640.40 6.14768
640.50 6.188478
640.60 6.206634
640.70 6.182327
640.80 6.13564
640.90 6.097764
641.00 6.087453
641.10 6.099416
641.20 6.097857
641.30 6.065896
641.40 6.015541
641.50 5.949744
641.60 5.855915
641.70 5.73596
641.80 5.631582
641.90 5.592685
642.00 5.658718
642.10 5.846672
642.20 6.131329
642.30 6.455537
642.40 6.739918
642.50 6.931925
642.60 7.024977
642.70 7.026413
642.80 6.960218
642.90 6.871935
643.00 6.802495
643.10 6.775781
643.20 6.779486
643.30 6.787987
643.40 6.797997
643.50 6.81248
643.60 6.81516
643.70 6.780474
643.80 6.701743
643.90 6.586591
644.00 6.470958
644.10 6.406963
644.20 6.427395
644.30 6.530886
644.40 6.694934
644.50 6.893795
644.60 7.09995
644.70 7.278183
644.80 7.379598
644.90 7.369668
645.00 7.251748
645.10 7.055627
645.20 6.82542
645.30 6.609453
645.40 6.421683
645.50 6.257356
645.60 6.126407
645.70 6.048157
645.80 6.040443
645.90 6.108442
646.00 6.248323
646.10 6.421692
646.20 6.570304
646.30 6.643231
646.40 6.604174
646.50 6.471262
646.60 6.30512
646.70 6.15122
646.80 6.04142
646.90 5.999277
647.00 6.019162
647.10 6.075783
647.20 6.137579
647.30 6.182579
647.40 6.200661
647.50 6.196695
647.60 6.182699
647.70 6.175991
647.80 6.203787
647.90 6.272638
648.00 6.367112
648.10 6.476309
648.20 6.599069
648.30 6.72623
648.40 6.842204
648.50 6.939929
648.60 7.014594
648.70 7.051278
648.80 7.025317
648.90 6.914833
649.00 6.736616
649.10 6.546664
649.20 6.41776
649.30 6.408132
649.40 6.543342
649.50 6.808647
649.60 7.146873
649.70 7.486072
649.80 7.751816
649.90 7.89435
650.00 7.93839
650.10 7.929283
650.20 7.892398
650.30 7.882572
650.40 7.967503
650.50 8.190225
650.60 8.535821
650.70 8.933307
650.80 9.289918
650.90 9.545618
651.00 9.660008
651.10 9.60267
651.20 9.408659
651.30 9.144959
651.40 8.84795
651.50 8.571875
651.60 8.399791
651.70 8.376788
651.80 8.470257
651.90 8.599131
652.00 8.707869
652.10 8.784662
652.20 8.841723
652.30 8.888651
652.40 8.939673
652.50 9.012332
652.60 9.111806
652.70 9.249296
652.80 9.435729
652.90 9.670574
653.00 9.930501
653.10 10.19711
653.20 10.47607
653.30 10.75848
653.40 11.02
653.50 11.24485
653.60 11.43289
653.70 11.57697
653.80 11.6769
653.90 11.75613
654.00 11.82425
654.10 11.86708
654.20 11.86863
654.30 11.79131
654.40 11.61227
654.50 11.36115
654.60 11.07912
654.70 10.80485
654.80 10.58692
654.90 10.47528
655.00 10.50733
655.10 10.68971
655.20 10.97887
655.30 11.30082
655.40 11.60876
655.50 11.86342
655.60 12.01121
655.70 12.0542
655.80 12.06826
655.90 12.15015
656.00 12.36413
656.10 12.71568
656.20 13.15273
656.30 13.59197
656.40 13.93736
656.50 14.12549
656.60 14.16403
656.70 14.08446
656.80 13.89178
656.90 13.59776
657.00 13.24755
657.10 12.88493
657.20 12.54869
657.30 12.26711
657.40 12.06364
657.50 11.98248
657.60 12.05017
657.70 12.22665
657.80 12.44553
657.90 12.65147
658.00 12.78714
658.10 12.81919
658.20 12.75215
658.30 12.62252
658.40 12.49091
658.50 12.41992
658.60 12.42391
658.70 12.44979
658.80 12.44271
658.90 12.36622
659.00 12.20252
659.10 11.99147
659.20 11.77284
659.30 11.55459
659.40 11.35605
659.50 11.20519
659.60 11.12881
659.70 11.13531
659.80 11.21355
659.90 11.33992
660.00 11.48889
660.10 11.64606
660.20 11.78866
660.30 11.8973
660.40 11.98193
660.50 12.0483
660.60 12.10015
660.70 12.14871
660.80 12.19672
660.90 12.23731
661.00 12.2519
661.10 12.2354
661.20 12.18216
661.30 12.0831
661.40 11.95913
661.50 11.85372
661.60 11.81881
661.70 11.88075
661.80 12.00068
661.90 12.11418
662.00 12.17097
662.10 12.13533
662.20 11.99642
662.30 11.78089
662.40 11.54417
662.50 11.3383
662.60 11.22403
662.70 11.26034
662.80 11.43531
662.90 11.67965
663.00 11.91886
663.10 12.0916
663.20 12.17008
663.30 12.16383
663.40 12.12528
663.50 12.12036
663.60 12.18439
663.70 12.32324
663.80 12.52785
663.90 12.76546
664.00 12.98249
664.10 13.13021
664.20 13.18668
664.30 13.16938
664.40 13.12304
664.50 13.08839
664.60 13.08229
664.70 13.09666
664.80 13.10238
664.90 13.08572
665.00 13.0485
665.10 12.99531
665.20 12.94764
665.30 12.93953
665.40 12.98261
665.50 13.07213
665.60 13.20764
665.70 13.35608
665.80 13.45467
665.90 13.45793
666.00 13.35296
666.10 13.15336
666.20 12.89066
666.30 12.60341
666.40 12.35448
666.50 12.20565
666.60 12.18027
666.70 12.28005
666.80 12.4931
666.90 12.78202
667.00 13.09403
667.10 13.38806
667.20 13.64
667.30 13.84715
667.40 14.02697
667.50 14.18224
667.60 14.29635
667.70 14.34779
667.80 14.31314
667.90 14.17781
668.00 13.95607
668.10 13.69541
668.20 13.4645
668.30 13.32756
668.40 13.31915
668.50 13.43124
668.60 13.60957
668.70 13.77648
668.80 13.84128
668.90 13.746
669.00 13.4982
669.10 13.1571
669.20 12.80511
669.30 12.53552
669.40 12.42609
669.50 12.49596
669.60 12.72788
669.70 13.08117
669.80 13.4824
669.90 13.8543
670.00 14.1361
670.10 14.2771
670.20 14.26406
670.30 14.12047
670.40 13.87535
670.50 13.55782
670.60 13.19825
670.70 12.82472
670.80 12.47498
670.90 12.20076
671.00 12.03331
671.10 11.97412
671.20 12.02708
671.30 12.21003
671.40 12.52698
671.50 12.96078
671.60 13.47552
671.70 14.01361
671.80 14.51182
671.90 14.91387
672.00 15.18935
672.10 15.342
672.20 15.38893
672.30 15.35373
672.40 15.27084
672.50 15.19217
672.60 15.16794
672.70 15.19734
672.80 15.26054
672.90 15.34325
673.00 15.41084
673.10 15.43168
673.20 15.40185
673.30 15.35258
673.40 15.31687
673.50 15.29044
673.60 15.26119
673.70 15.2213
673.80 15.17585
673.90 15.13686
674.00 15.10485
674.10 15.09696
674.20 15.12598
674.30 15.18106
674.40 15.25696
674.50 15.3504
674.60 15.44426
674.70 15.50907
674.80 15.52536
674.90 15.49898
675.00 15.44889
675.10 15.4142
675.20 15.41676
675.30 15.44376
675.40 15.48618
675.50 15.52545
675.60 15.53326
675.70 15.4979
675.80 15.43567
675.90 15.36625
676.00 15.30358
676.10 15.24364
676.20 15.1799
676.30 15.13279
676.40 15.12909
676.50 15.16852
676.60 15.23558
676.70 15.31409
676.80 15.38054
676.90 15.44122
677.00 15.52004
677.10 15.60768
677.20 15.66124
677.30 15.66652
677.40 15.65264
677.50 15.65544
677.60 15.68553
677.70 15.72634
677.80 15.74793
677.90 15.73104
678.00 15.68333
678.10 15.63198
678.20 15.58974
678.30 15.51088
678.40 15.35311
678.50 15.14013
678.60 14.93234
678.70 14.77808
678.80 14.67788
678.90 14.61775
679.00 14.59744
679.10 14.6115
679.20 14.64992
679.30 14.71216
679.40 14.79571
679.50 14.88293
679.60 14.96434
679.70 15.04398
679.80 15.11427
679.90 15.15248
680.00 15.14084
680.10 15.07656
680.20 14.98044
680.30 14.88263
680.40 14.81556
680.50 14.79504
680.60 14.81395
680.70 14.83849
680.80 14.8104
680.90 14.69961
681.00 14.51766
681.10 14.315
681.20 14.15097
681.30 14.05212
681.40 14.01083
681.50 14.00811
681.60 14.01849
681.70 14.01475
681.80 13.9678
681.90 13.86635
682.00 13.73342
682.10 13.622
682.20 13.5955
682.30 13.68363
682.40 13.87305
682.50 14.09162
682.60 14.24615
682.70 14.31642
682.80 14.33827
682.90 14.32005
683.00 14.25186
683.10 14.13461
683.20 13.99159
683.30 13.86944
683.40 13.7853
683.50 13.69719
683.60 13.57638
683.70 13.43573
683.80 13.30765
683.90 13.26719
684.00 13.38915
684.10 13.66938
684.20 14.03551
684.30 14.40791
684.40 14.71503
684.50 14.91738
684.60 15.00239
684.70 14.95014
684.80 14.76235
684.90 14.50132
685.00 14.23466
685.10 14.00688
685.20 13.86583
685.30 13.81917
685.40 13.82896
685.50 13.85653
685.60 13.88014
685.70 13.90267
685.80 13.95687
685.90 14.07576
686.00 14.26885
686.10 14.50803
686.20 14.73326
686.30 14.89392
686.40 14.97747
686.50 14.98949
686.60 14.90944
686.70 14.73664
686.80 14.51972
686.90 14.3035
687.00 14.12775
687.10 14.02297
687.20 13.9914
687.30 14.00045
687.40 13.98899
687.50 13.93402
687.60 13.87533
687.70 13.84029
687.80 13.80808
687.90 13.73116
688.00 13.59032
688.10 13.41988
688.20 13.27068
688.30 13.20048
688.40 13.26028
688.50 13.45786
688.60 13.73529
688.70 14.00492
688.80 14.20442
688.90 14.29691
689.00 14.28159
689.10 14.17989
689.20 13.99998
689.30 13.77264
689.40 13.53636
689.50 13.31509
689.60 13.13151
689.70 12.97449
689.80 12.80229
689.90 12.58497
690.00 12.33869
690.10 12.10993
690.20 11.93336
690.30 11.82999
690.40 11.80097
690.50 11.8501
690.60 11.98393
690.70 12.21423
690.80 12.58428
690.90 13.09576
691.00 13.68041
691.10 14.25133
691.20 14.70648
691.30 14.95216
691.40 14.94165
691.50 14.6671
691.60 14.18137
691.70 13.61679
691.80 13.09203
691.90 12.64522
692.00 12.3108
692.10 12.12849
692.20 12.08269
692.30 12.13632
692.40 12.27259
692.50 12.48581
692.60 12.77796
692.70 13.14821
692.80 13.58304
692.90 14.05961
693.00 14.53603
693.10 14.9346
693.20 15.18653
693.30 15.29019
693.40 15.27223
693.50 15.14533
693.60 14.9365
693.70 14.69142
693.80 14.44657
693.90 14.24197
694.00 14.12678
694.10 14.13771
694.20 14.30021
694.30 14.62116
694.40 15.1043
694.50 15.73437
694.60 16.42161
694.70 17.05723
694.80 17.57072
694.90 17.89848
695.00 17.98399
695.10 17.81635
695.20 17.44891
695.30 16.96793
695.40 16.44885
695.50 15.97427
695.60 15.61171
695.70 15.38996
695.80 15.27645
695.90 15.19481
696.00 15.11972
696.10 15.05633
696.20 14.98226
696.30 14.89712
696.40 14.82762
696.50 14.80275
696.60 14.83623
696.70 14.9264
696.80 15.07725
696.90 15.25132
697.00 15.38302
697.10 15.42837
697.20 15.38392
697.30 15.307
697.40 15.27128
697.50 15.32582
697.60 15.50707
697.70 15.79711
697.80 16.1471
697.90 16.48905
698.00 16.73623
698.10 16.83969
698.20 16.79822
698.30 16.66967
698.40 16.54164
698.50 16.48771
698.60 16.53252
698.70 16.63702
698.80 16.75093
698.90 16.83833
699.00 16.87854
699.10 16.88093
699.20 16.86298
699.30 16.84293
699.40 16.83319
699.50 16.82
699.60 16.79285
699.70 16.73944
699.80 16.64213
699.90 16.51194
700.00 16.39532
700.10 16.35366
700.20 16.43663
700.30 16.65819
700.40 16.98143
700.50 17.36551
700.60 17.76488
700.70 18.11368
700.80 18.38233
700.90 18.59124
701.00 18.74789
701.10 18.85243
701.20 18.92084
701.30 18.95944
701.40 18.97652
701.50 18.97637
701.60 18.95299
701.70 18.90758
701.80 18.85935
701.90 18.82358
702.00 18.80751
702.10 18.82483
702.20 18.8834
702.30 18.95898
702.40 19.02355
702.50 19.06502
702.60 19.09257
702.70 19.13719
702.80 19.215
702.90 19.34725
703.00 19.56107
703.10 19.861
703.20 20.23238
703.30 20.65193
703.40 21.08116
703.50 21.49297
703.60 21.89565
703.70 22.29698
703.80 22.67617
703.90 23.02566
704.00 23.34057
704.10 23.59873
704.20 23.79838
704.30 23.94161
704.40 24.0082
704.50 23.97993
704.60 23.87063
704.70 23.71458
704.80 23.56144
704.90 23.44557
705.00 23.34738
705.10 23.23276
705.20 23.10272
705.30 22.95632
705.40 22.74868
705.50 22.44245
705.60 22.04769
705.70 21.60405
705.80 21.17584
705.90 20.83673
706.00 20.64231
706.10 20.61725
706.20 20.74417
706.30 20.9718
706.40 21.2418
706.50 21.50737
706.60 21.73581
706.70 21.90426
706.80 22.03583
706.90 22.16856
707.00 22.29692
707.10 22.39525
707.20 22.45857
707.30 22.52282
707.40 22.63295
707.50 22.81072
707.60 23.05399
707.70 23.34803
707.80 23.67686
707.90 24.01242
708.00 24.29266
708.10 24.45851
708.20 24.48351
708.30 24.36689
708.40 24.13732
708.50 23.8273
708.60 23.47274
708.70 23.10136
708.80 22.7166
708.90 22.31483
709.00 21.90822
709.10 21.54242
709.20 21.26364
709.30 21.09802
709.40 21.06207
709.50 21.16053
709.60 21.35877
709.70 21.5968
709.80 21.82417
709.90 22.02126
710.00 22.1752
710.10 22.26502
710.20 22.30543
710.30 22.33508
710.40 22.38289
710.50 22.45081
710.60 22.52702
710.70 22.60558
710.80 22.69203
710.90 22.78458
711.00 22.88513
711.10 23.00722
711.20 23.14604
711.30 23.28882
711.40 23.42223
711.50 23.51945
711.60 23.545
711.70 23.47598
711.80 23.31514
711.90 23.10195
712.00 22.87785
712.10 22.66733
712.20 22.49111
712.30 22.36313
712.40 22.27242
712.50 22.19151
712.60 22.11303
712.70 22.04782
712.80 21.99362
712.90 21.93753
713.00 21.88664
713.10 21.85145
713.20 21.81314
713.30 21.7512
713.40 21.69485
713.50 21.69741
713.60 21.78933
713.70 21.96884
713.80 22.23622
713.90 22.58831
714.00 22.9906
714.10 23.37689
714.20 23.68731
714.30 23.91582
714.40 24.05754
714.50 24.12331
714.60 24.18475
714.70 24.30749
714.80 24.50918
714.90 24.7605
715.00 25.00481
715.10 25.19447
715.20 25.28964
715.30 25.28333
715.40 25.20202
715.50 25.09234
715.60 25.01718
715.70 25.00933
715.80 25.08275
715.90 25.23387
716.00 25.42804
716.10 25.62089
716.20 25.78245
716.30 25.92517
716.40 26.08224
716.50 26.27523
716.60 26.50888
716.70 26.72927
716.80 26.85395
716.90 26.82765
717.00 26.622
717.10 26.27034
717.20 25.85567
717.30 25.46682
717.40 25.18044
717.50 25.04572
717.60 25.07446
717.70 25.24768
717.80 25.52212
717.90 25.82086
718.00 26.06478
718.10 26.2389
718.20 26.36126
718.30 26.44753
718.40 26.53121
718.50 26.63991
718.60 26.78958
718.70 26.98908
718.80 27.22577
718.90 27.47067
719.00 27.68865
719.10 27.83789
719.20 27.90578
719.30 27.92028
719.40 27.91007
719.50 27.87993
719.60 27.82975
719.70 27.77307
719.80 27.73555
719.90 27.74022
720.00 27.80517
720.10 27.94658
720.20 28.14827
720.30 28.36112
720.40 28.5348
720.50 28.62258
720.60 28.58784
720.70 28.43419
720.80 28.19941
720.90 27.93098
721.00 27.69021
721.10 27.5387
721.20 27.50844
721.30 27.60464
721.40 27.80307
721.50 28.04934
721.60 28.30682
721.70 28.57606
721.80 28.83783
721.90 29.05422
722.00 29.21163
722.10 29.29235
722.20 29.28306
722.30 29.21867
722.40 29.15262
722.50 29.11958
722.60 29.12108
722.70 29.13529
722.80 29.15614
722.90 29.19297
723.00 29.23606
723.10 29.2581
723.20 29.27387
723.30 29.34071
723.40 29.51329
723.50 29.90988
723.60 30.62689
723.70 31.55393
723.80 32.4946
723.90 33.28282
724.00 33.80802
724.10 34.0351
724.20 33.93217
724.30 33.51242
724.40 32.88155
724.50 32.17661
724.60 31.5417
724.70 31.12787
724.80 31.04771
724.90 31.26474
725.00 31.66733
725.10 32.23729
725.20 32.94056
725.30 33.66258
725.40 34.26324
725.50 34.60568
725.60 34.61721
725.70 34.2926
725.80 33.71681
725.90 33.06362
726.00 32.48613
726.10 32.07329
726.20 31.86905
726.30 31.89763
726.40 32.14549
726.50 32.53282
726.60 32.94869
726.70 33.28007
726.80 33.4311
726.90 33.4123
727.00 33.41447
727.10 33.72908
727.20 34.53724
727.30 35.76694
727.40 37.13745
727.50 38.33167
727.60 39.08187
727.70 39.18744
727.80 38.62494
727.90 37.55141
728.00 36.23493
728.10 34.99309
728.20 34.11004
728.30 33.73068
728.40 33.77889
728.50 33.97733
728.60 34.01904
728.70 33.75766
728.80 33.25873
728.90 32.67062
729.00 32.14184
729.10 31.81814
729.20 31.78472
729.30 32.04541
729.40 32.54083
729.50 33.17028
729.60 33.8275
729.70 34.43353
729.80 34.91166
729.90 35.21735
730.00 35.37655
730.10 35.46098
730.20 35.54233
730.30 35.65532
730.40 35.81902
730.50 36.02272
730.60 36.19228
730.70 36.27648
730.80 36.24865
730.90 36.11557
731.00 35.97775
731.10 35.98689
731.20 36.264
731.30 36.81781
731.40 37.55965
731.50 38.33323
731.60 38.97492
731.70 39.3684
731.80 39.44281
731.90 39.22233
732.00 38.81885
732.10 38.35878
732.20 37.98742
732.30 37.84363
732.40 37.99849
732.50 38.3835
732.60 38.83806
732.70 39.23434
732.80 39.47187
732.90 39.49308
733.00 39.28122
733.10 38.85951
733.20 38.3108
733.30 37.74822
733.40 37.29468
733.50 37.09006
733.60 37.2439
733.70 37.77619
733.80 38.59238
733.90 39.49979
734.00 40.31544
734.10 40.90133
734.20 41.1424
734.30 40.97743
734.40 40.42693
734.50 39.60636
734.60 38.70805
734.70 37.92834
734.80 37.41186
734.90 37.19156
735.00 37.19948
735.10 37.32772
735.20 37.46317
735.30 37.54583
735.40 37.5264
735.50 37.35564
735.60 37.05123
735.70 36.67319
735.80 36.32066
735.90 36.08881
736.00 36.00936
736.10 36.06441
736.20 36.23379
736.30 36.54311
736.40 37.06375
736.50 37.82983
736.60 38.74892
736.70 39.61516
736.80 40.20865
736.90 40.39846
737.00 40.16968
737.10 39.59942
737.20 38.80895
737.30 37.95638
737.40 37.20984
737.50 36.71101
737.60 36.54419
737.70 36.67459
737.80 36.96475
737.90 37.25549
738.00 37.42894
738.10 37.45926
738.20 37.40741
738.30 37.34978
738.40 37.33115
738.50 37.3707
738.60 37.48269
738.70 37.669
738.80 37.90151
738.90 38.14745
739.00 38.38267
739.10 38.58917
739.20 38.70954
739.30 38.68546
739.40 38.54575
739.50 38.38783
739.60 38.32812
739.70 38.4242
739.80 38.66858
739.90 39.02141
740.00 39.36974
740.10 39.57032
740.20 39.53131
740.30 39.2084
740.40 38.60164
740.50 37.76254
740.60 36.83768
740.70 36.01365
740.80 35.42475
740.90 35.12084
741.00 35.06657
741.10 35.20541
741.20 35.45994
741.30 35.744
741.40 36.04464
741.50 36.36241
741.60 36.63886
741.70 36.81129
741.80 36.83225
741.90 36.68084
742.00 36.37863
742.10 35.9845
742.20 35.56313
742.30 35.18631
742.40 34.93075
742.50 34.8423
742.60 34.92725
742.70 35.14372
742.80 35.39968
742.90 35.5893
743.00 35.6631
743.10 35.61174
743.20 35.46221
743.30 35.30011
743.40 35.17789
743.50 35.08974
743.60 35.05377
743.70 35.06887
743.80 35.07898
743.90 35.02253
744.00 34.86621
744.10 34.62964
744.20 34.36053
744.30 34.1266
744.40 33.99535
744.50 34.00944
744.60 34.16109
744.70 34.3662
744.80 34.54542
744.90 34.68037
745.00 34.76624
745.10 34.81228
745.20 34.84319
745.30 34.87377
745.40 34.91723
745.50 34.98475
745.60 35.07503
745.70 35.16757
745.80 35.23657
745.90 35.27259
746.00 35.29133
746.10 35.33022
746.20 35.44521
746.30 35.65297
746.40 35.90199
746.50 36.12522
746.60 36.26938
746.70 36.31227
746.80 36.2628
746.90 36.13574
747.00 35.92369
747.10 35.60677
747.20 35.18431
747.30 34.70844
747.40 34.2689
747.50 33.95775
747.60 33.83959
747.70 33.91103
747.80 34.11408
747.90 34.40174
748.00 34.74011
748.10 35.04653
748.20 35.21494
748.30 35.17862
748.40 34.94602
748.50 34.61033
748.60 34.32736
748.70 34.21943
748.80 34.32466
748.90 34.6047
749.00 34.96072
749.10 35.3095
749.20 35.59303
749.30 35.7468
749.40 35.73465
749.50 35.60063
749.60 35.43602
749.70 35.3222
749.80 35.29242
749.90 35.32276
750.00 35.34496
750.10 35.27421
750.20 35.08109
750.30 34.80114
750.40 34.49664
750.50 34.2495
750.60 34.14695
750.70 34.24502
750.80 34.54178
750.90 34.97401
751.00 35.42617
751.10 35.77184
751.20 35.9478
751.30 35.97248
751.40 35.88322
751.50 35.72593
751.60 35.55201
751.70 35.3909
751.80 35.28873
751.90 35.30442
752.00 35.45582
752.10 35.69785
752.20 35.96301
752.30 36.19244
752.40 36.33868
752.50 36.38188
752.60 36.32476
752.70 36.17523
752.80 35.96959
752.90 35.74186
753.00 35.49205
753.10 35.24781
753.20 35.01974
753.30 34.76678
753.40 34.46734
753.50 34.15713
753.60 33.90969
753.70 33.80246
753.80 33.88456
753.90 34.15934
754.00 34.58101
754.10 35.05264
754.20 35.45161
754.30 35.71622
754.40 35.85617
754.50 35.89403
754.60 35.85578
754.70 35.77525
754.80 35.70282
754.90 35.67754
755.00 35.69329
755.10 35.73528
755.20 35.81356
755.30 35.92931
755.40 36.06218
755.50 36.20905
755.60 36.38551
755.70 36.57351
755.80 36.71535
755.90 36.75327
756.00 36.65064
756.10 36.38183
756.20 35.95049
756.30 35.40758
756.40 34.84569
756.50 34.36376
756.60 34.0575
756.70 33.98951
756.80 34.14217
756.90 34.416
757.00 34.67234
757.10 34.81682
757.20 34.80321
757.30 34.59252
757.40 34.19866
757.50 33.72559
757.60 33.29446
757.70 33.00644
757.80 32.92975
757.90 33.07083
758.00 33.37049
758.10 33.72651
758.20 34.02636
758.30 34.21727
758.40 34.24828
758.50 34.0139
758.60 33.46176
758.70 32.64155
758.80 31.65731
758.90 30.63459
759.00 29.6866
759.10 28.91286
759.20 28.4088
759.30 28.21811
759.40 28.2884
759.50 28.52422
759.60 28.86027
759.70 29.2035
759.80 29.49526
759.90 29.78517
760.00 30.09607
760.10 30.30935
760.20 30.28928
760.30 30.00172
760.40 29.44944
760.50 28.62046
760.60 27.53312
760.70 26.28152
760.80 25.07758
760.90 24.1842
761.00 23.77506
761.10 23.88191
761.20 24.40008
761.30 25.14412
761.40 25.90553
761.50 26.5437
761.60 26.94826
761.70 26.98013
761.80 26.59023
761.90 25.87918
762.00 25.02842
762.10 24.22064
762.20 23.55695
762.30 23.0713
762.40 22.762
762.50 22.61125
762.60 22.57838
762.70 22.52661
762.80 22.2935
762.90 21.82395
763.00 21.15419
763.10 20.36145
763.20 19.55388
763.30 18.81642
763.40 18.21268
763.50 17.77975
763.60 17.50028
763.70 17.31969
763.80 17.17939
763.90 17.01529
764.00 16.77155
764.10 16.41819
764.20 15.94352
764.30 15.33393
764.40 14.5928
764.50 13.74019
764.60 12.80508
764.70 11.86063
764.80 10.9608
764.90 10.1413
765.00 9.457558
765.10 8.92672
765.20 8.508418
765.30 8.159798
765.40 7.841467
765.50 7.51088
765.60 7.156073
765.70 6.801052
765.80 6.47198
765.90 6.179697
766.00 5.918016
766.10 5.659455
766.20 5.363559
766.30 5.011309
766.40 4.60833
766.50 4.178983
766.60 3.773536
766.70 3.448488
766.80 3.259328
766.90 3.256248
767.00 3.458884
767.10 3.840867
767.20 4.344197
767.30 4.920685
767.40 5.542954
767.50 6.190599
767.60 6.841867
767.70 7.465782
767.80 8.051487
767.90 8.601457
768.00 9.113331
768.10 9.573072
768.20 9.947695
768.30 10.2076
768.40 10.34075
768.50 10.34173
768.60 10.20047
768.70 9.900038
768.80 9.447748
768.90 8.885658
769.00 8.285918
769.10 7.751825
769.20 7.335999
769.30 7.006632
769.40 6.718784
769.50 6.428305
769.60 6.082961
769.70 5.666286
769.80 5.201303
769.90 4.733812
770.00 4.336522
770.10 4.095257
770.20 4.06673
770.30 4.26625
770.40 4.674272
770.50 5.225557
770.60 5.877172
770.70 6.66134
770.80 7.647572
770.90 8.849888
771.00 10.22376
771.10 11.70333
771.20 13.15261
771.30 14.36773
771.40 15.18868
771.50 15.61971
771.60 15.7878
771.70 15.82736
771.80 15.87954
771.90 16.08111
772.00 16.49329
772.10 17.08303
772.20 17.74205
772.30 18.39618
772.40 19.00452
772.50 19.47801
772.60 19.7972
772.70 20.06352
772.80 20.37305
772.90 20.7426
773.00 21.15429
773.10 21.59615
773.20 22.03015
773.30 22.41344
773.40 22.73474
773.50 23.01627
773.60 23.28289
773.70 23.52953
773.80 23.75719
773.90 24.00394
774.00 24.29837
774.10 24.62704
774.20 24.93832
774.30 25.18582
774.40 25.38185
774.50 25.64093
774.60 26.14536
774.70 26.95565
774.80 27.98465
774.90 29.06413
775.00 29.99939
775.10 30.66091
775.20 30.96428
775.30 30.91926
775.40 30.64046
775.50 30.28791
775.60 30.05901
775.70 30.09853
775.80 30.4197
775.90 30.87806
776.00 31.21429
776.10 31.24952
776.20 30.97528
776.30 30.49121
776.40 29.94343
776.50 29.45966
776.60 29.16246
776.70 29.12524
776.80 29.34974
776.90 29.79019
777.00 30.3536
777.10 30.94464
777.20 31.46382
777.30 31.80267
777.40 31.93056
777.50 31.90389
777.60 31.78345
777.70 31.65069
777.80 31.58612
777.90 31.65014
778.00 31.89492
778.10 32.29057
778.20 32.70355
778.30 32.98532
778.40 33.04476
778.50 32.83162
778.60 32.36609
778.70 31.79339
778.80 31.34063
778.90 31.25514
779.00 31.68417
779.10 32.58258
779.20 33.75975
779.30 34.87595
779.40 35.51479
779.50 35.37102
779.60 34.32351
779.70 32.4256
779.80 29.89594
779.90 27.12287
780.00 24.61587
780.10 22.87509
780.20 22.2241
780.30 22.7548
780.40 24.35914
780.50 26.70078
780.60 29.33121
780.70 31.87419
780.80 34.02783
780.90 35.56342
781.00 36.41128
781.10 36.65771
781.20 36.50082
781.30 36.18928
781.40 35.93176
781.50 35.88505
781.60 36.20522
781.70 36.92784
781.80 37.9326
781.90 39.04385
782.00 40.00933
782.10 40.60355
782.20 40.71418
782.30 40.35255
782.40 39.65181
782.50 38.81933
782.60 38.05896
782.70 37.52027
782.80 37.29672
782.90 37.3873
783.00 37.64618
783.10 37.88223
783.20 37.96046
783.30 37.84168
783.40 37.62047
783.50 37.43294
783.60 37.39041
783.70 37.5298
783.80 37.81453
783.90 38.21656
784.00 38.71228
784.10 39.24684
784.20 39.77555
784.30 40.29596
784.40 40.79849
784.50 41.25661
784.60 41.65538
784.70 42.05481
784.80 42.58845
784.90 43.31119
785.00 44.1911
785.10 45.15559
785.20 46.08473
785.30 46.83561
785.40 47.29887
785.50 47.45635
785.60 47.33497
785.70 46.97865
785.80 46.46074
785.90 45.86385
786.00 45.30331
786.10 44.84922
786.20 44.44779
786.30 44.0393
786.40 43.6605
786.50 43.43324
786.60 43.45121
786.70 43.69961
786.80 44.05919
786.90 44.33573
787.00 44.33484
787.10 43.94493
787.20 43.17772
787.30 42.20156
787.40 41.24673
787.50 40.53315
787.60 40.27109
787.70 40.62056
787.80 41.58483
787.90 42.93679
788.00 44.38209
788.10 45.70104
788.20 46.7283
788.30 47.37665
788.40 47.70167
788.50 47.80543
788.60 47.77366
788.70 47.67573
788.80 47.54384
788.90 47.39691
789.00 47.26849
789.10 47.15355
789.20 46.99478
789.30 46.82177
789.40 46.69884
789.50 46.61037
789.60 46.54036
789.70 46.47698
789.80 46.36891
789.90 46.17337
790.00 45.9215
790.10 45.71787
790.20 45.65451
790.30 45.77344
790.40 46.02401
790.50 46.281
790.60 46.41083
790.70 46.40641
790.80 46.49539
790.90 46.97282
791.00 47.99602
791.10 49.50545
791.20 51.22796
791.30 52.85274
791.40 54.1301
791.50 54.85089
791.60 54.94142
791.70 54.46496
791.80 53.61281
791.90 52.72227
792.00 52.15734
792.10 52.02689
792.20 52.08028
792.30 51.9355
792.40 51.35812
792.50 50.38787
792.60 49.26809
792.70 48.28256
792.80 47.67858
792.90 47.59926
793.00 48.07583
793.10 49.0309
793.20 50.24525
793.30 51.39112
793.40 52.17823
793.50 52.46367
793.60 52.2389
793.70 51.64886
793.80 50.89329
793.90 50.1184
794.00 49.38178
794.10 48.63924
794.20 47.7435
794.30 46.49972
794.40 44.75581
794.50 42.54931
794.60 40.10599
794.70 37.74693
794.80 35.83168
794.90 34.69632
795.00 34.57762
795.10 35.50841
795.20 37.33454
795.30 39.74297
795.40 42.36979
795.50 44.86258
795.60 46.93179
795.70 48.44431
795.80 49.40894
795.90 49.95546
796.00 50.32207
796.10 50.80067
796.20 51.56716
796.30 52.63283
796.40 53.88798
796.50 55.11098
796.60 56.04688
796.70 56.51911
796.80 56.47793
796.90 56.00361
797.00 55.25749
797.10 54.40777
797.20 53.62775
797.30 53.05149
797.40 52.77032
797.50 52.80044
797.60 53.10415
797.70 53.60612
797.80 54.1901
797.90 54.75316
798.00 55.17813
798.10 55.34167
798.20 55.12346
798.30 54.45557
798.40 53.3865
798.50 52.09039
798.60 50.82032
798.70 49.79881
798.80 49.14733
798.90 48.9225
799.00 49.18548
799.10 49.97961
799.20 51.21922
799.30 52.65894
799.40 54.03385
799.50 55.1431
799.60 55.88561
799.70 56.25049
799.80 56.27254
799.90 56.0444
800.00 55.66987
800.10 55.26558
800.20 54.95132
800.30 54.77092
800.40 54.67206
800.50 54.5615
800.60 54.39823
800.70 54.24351
800.80 54.23154
800.90 54.54125
801.00 55.27635
801.10 56.38036
801.20 57.69062
801.30 58.99592
801.40 60.09893
801.50 60.82664
801.60 61.07923
801.70 60.86754
801.80 60.31054
801.90 59.6069
802.00 58.99173
802.10 58.71781
802.20 58.9437
802.30 59.63704
802.40 60.62639
802.50 61.71932
802.60 62.76856
802.70 63.67183
802.80 64.35312
802.90 64.74549
803.00 64.80399
803.10 64.56324
803.20 64.10518
803.30 63.52047
803.40 62.90541
803.50 62.32257
803.60 61.79617
803.70 61.34068
803.80 61.00558
803.90 60.84162
804.00 60.84783
804.10 60.98177
804.20 61.21493
804.30 61.55706
804.40 61.9914
804.50 62.49857
804.60 63.10924
804.70 63.84607
804.80 64.70219
804.90 65.64805
805.00 66.65377
805.10 67.66244
805.20 68.57349
805.30 69.3125
805.40 69.84804
805.50 70.20322
805.60 70.44992
805.70 70.73367
805.80 71.20046
805.90 71.84931
806.00 72.53234
806.10 73.05082
806.20 73.26024
806.30 73.10991
806.40 72.58549
806.50 71.73238
806.60 70.69688
806.70 69.68548
806.80 68.91713
806.90 68.56473
807.00 68.72224
807.10 69.31835
807.20 70.17581
807.30 71.1427
807.40 72.13185
807.50 73.09298
807.60 73.96056
807.70 74.65378
807.80 75.13191
807.90 75.46155
808.00 75.77712
808.10 76.17606
808.20 76.68986
808.30 77.26719
808.40 77.77158
808.50 78.07726
808.60 78.16552
808.70 78.11235
808.80 78.01568
808.90 78.00251
809.00 78.18644
809.10 78.61268
809.20 79.25336
809.30 79.9497
809.40 80.475
809.50 80.65709
809.60 80.42894
809.70 79.84304
809.80 79.0428
809.90 78.21248
810.00 77.5
810.10 76.9731
810.20 76.58645
810.30 76.25205
810.40 75.93634
810.50 75.66003
810.60 75.47529
810.70 75.46268
810.80 75.71679
810.90 76.27807
811.00 77.07987
811.10 77.98201
811.20 78.81254
811.30 79.41146
811.40 79.71175
811.50 79.75244
811.60 79.68942
811.70 79.6746
811.80 79.77691
811.90 80.04627
812.00 80.51322
812.10 81.1778
812.20 81.98583
812.30 82.8631
812.40 83.76862
812.50 84.67434
812.60 85.57113
812.70 86.45892
812.80 87.28923
812.90 87.98926
813.00 88.50446
813.10 88.81053
813.20 88.92211
813.30 88.89309
813.40 88.81302
813.50 88.77888
813.60 88.85539
813.70 89.0452
813.80 89.27171
813.90 89.42565
814.00 89.37825
814.10 89.04191
814.20 88.4305
814.30 87.5915
814.40 86.59278
814.50 85.601
814.60 84.80173
814.70 84.27768
814.80 84.06866
814.90 84.19709
815.00 84.61246
815.10 85.19067
815.20 85.80303
815.30 86.33591
815.40 86.7771
815.50 87.18367
815.60 87.56119
815.70 87.9551
815.80 88.46075
815.90 89.09857
816.00 89.86235
816.10 90.77411
816.20 91.79183
816.30 92.80162
816.40 93.69356
816.50 94.42696
816.60 95.01721
816.70 95.50416
816.80 95.89392
816.90 96.15866
817.00 96.31598
817.10 96.37594
817.20 96.33542
817.30 96.22105
817.40 96.06338
817.50 95.83711
817.60 95.44359
817.70 94.73114
817.80 93.52746
817.90 91.68855
818.00 89.18316
818.10 86.1562
818.20 82.90788
818.30 79.8684
818.40 77.53713
818.50 76.3617
818.60 76.54745
818.70 77.93937
818.80 80.03741
818.90 82.16131
819.00 83.61104
819.10 83.83192
819.20 82.58798
819.30 80.05287
819.40 76.77689
819.50 73.52675
819.60 71.08382
819.70 70.02118
819.80 70.57328
819.90 72.58311
820.00 75.61038
820.10 79.13357
820.20 82.66184
820.30 85.80713
820.40 88.36142
820.50 90.29917
820.60 91.73326
820.70 92.78608
820.80 93.52666
820.90 94.01033
821.00 94.27164
821.10 94.33946
821.20 94.20998
821.30 93.94365
821.40 93.65312
821.50 93.38785
821.60 93.18608
821.70 93.08234
821.80 93.11502
821.90 93.32086
822.00 93.69379
822.10 94.2479
822.20 95.01088
822.30 95.9311
822.40 96.90002
822.50 97.82192
822.60 98.6694
822.70 99.3881
822.80 99.89736
822.90 100.1924
823.00 100.3336
823.10 100.3736
823.20 100.3288
823.30 100.247
823.40 100.2289
823.50 100.3032
823.60 100.4243
823.70 100.6489
823.80 101.0823
823.90 101.7408
824.00 102.5424
824.10 103.3974
824.20 104.2815
824.30 105.1571
824.40 105.9616
824.50 106.6914
824.60 107.3759
824.70 107.9751
824.80 108.3873
824.90 108.5886
825.00 108.6057
825.10 108.3956
825.20 107.8953
825.30 107.0981
825.40 106.1116
825.50 105.125
825.60 104.2889
825.70 103.7323
825.80 103.5321
825.90 103.6822
826.00 104.1231
826.10 104.7701
826.20 105.5327
826.30 106.2875
826.40 106.9285
826.50 107.3754
826.60 107.6102
826.70 107.6992
826.80 107.7003
826.90 107.6576
827.00 107.6118
827.10 107.5797
827.20 107.5504
827.30 107.4924
827.40 107.4004
827.50 107.3524
827.60 107.4516
827.70 107.8235
827.80 108.5605
827.90 109.5773
828.00 110.637
828.10 111.4312
828.20 111.7541
828.30 111.5953
828.40 111.0551
828.50 110.2518
828.60 109.196
828.70 107.8676
828.80 106.3509
828.90 104.7523
829.00 103.1747
829.10 101.6894
829.20 100.3397
829.30 99.30495
829.40 98.84719
829.50 99.18379
829.60 100.3404
829.70 102.0325
829.80 103.7974
829.90 105.1689
830.00 105.9346
830.10 106.0975
830.20 105.6746
830.30 104.712
830.40 103.3424
830.50 101.8191
830.60 100.4532
830.70 99.45802
830.80 98.923
830.90 98.82606
831.00 99.04988
831.10 99.46783
831.20 99.99171
831.30 100.5703
831.40 101.1201
831.50 101.5709
831.60 101.9388
831.70 102.2892
831.80 102.6929
831.90 103.1866
832.00 103.7696
832.10 104.429
832.20 105.0985
832.30 105.6634
832.40 106.0091
832.50 106.0439
832.60 105.7273
832.70 105.1593
832.80 104.5302
832.90 103.988
833.00 103.6107
833.10 103.4429
833.20 103.5252
833.30 103.8486
833.40 104.3607
833.50 104.9858
833.60 105.6154
833.70 106.1786
833.80 106.7809
833.90 107.6705
834.00 109.0797
834.10 110.9998
834.20 113.253
834.30 115.6152
834.40 117.8147
834.50 119.5943
834.60 120.6063
834.70 120.5838
834.80 119.5624
834.90 117.83
835.00 115.8854
835.10 114.2864
835.20 113.3616
835.30 113.1153
835.40 113.3031
835.50 113.6534
835.60 113.9469
835.70 113.9764
835.80 113.5918
835.90 112.7684
836.00 111.7611
836.10 110.9062
836.20 110.3819
836.30 110.2737
836.40 110.5717
836.50 111.1864
836.60 111.9797
836.70 112.7673
836.80 113.3979
836.90 113.7529
837.00 113.7029
837.10 113.1936
837.20 112.2786
837.30 111.1001
837.40 109.8514
837.50 108.7781
837.60 108.1809
837.70 108.3583
837.80 109.4197
837.90 111.1998
838.00 113.3536
838.10 115.4834
838.20 117.2052
838.30 118.1529
838.40 118.0968
838.50 117.0385
838.60 115.2004
838.70 112.9136
838.80 110.5364
838.90 108.378
839.00 106.6569
839.10 105.4729
839.20 104.8401
839.30 104.7811
839.40 105.4376
839.50 106.9605
839.60 109.3604
839.70 112.5481
839.80 116.1514
839.90 119.5574
840.00 122.2214
840.10 123.7877
840.20 124.1554
840.30 123.4693
840.40 122.0258
840.50 120.1672
840.60 118.3051
840.70 116.8194
840.80 115.8301
840.90 115.2829
841.00 115.0926
841.10 115.1572
841.20 115.5377
841.30 116.3284
841.40 117.445
841.50 118.703
841.60 119.8655
841.70 120.7217
841.80 121.0848
841.90 120.8503
842.00 120.0832
842.10 118.9927
842.20 117.8597
842.30 116.9754
842.40 116.5553
842.50 116.7756
842.60 117.7791
842.70 119.6148
842.80 122.1687
842.90 125.0775
843.00 127.8051
843.10 129.7162
843.20 130.2783
843.30 129.2536
843.40 126.6866
843.50 122.944
843.60 118.5701
843.70 114.1746
843.80 110.3565
843.90 107.4306
844.00 105.3473
844.10 103.8559
844.20 102.6995
844.30 101.6966
844.40 100.7246
844.50 99.80925
844.60 99.11504
844.70 98.83434
844.80 99.10941
844.90 99.89019
845.00 100.9947
845.10 102.1131
845.20 102.8894
845.30 103.1118
845.40 102.7253
845.50 101.8148
845.60 100.5596
845.70 99.21557
845.80 98.0842
845.90 97.41286
846.00 97.36967
846.10 97.9724
846.20 98.98229
846.30 100.0198
846.40 100.7854
846.50 101.1479
846.60 101.0864
846.70 100.6119
846.80 99.75233
846.90 98.59209
847.00 97.2446
847.10 95.86458
847.20 94.61281
847.30 93.62781
847.40 92.96854
847.50 92.60373
847.60 92.53414
847.70 92.75723
847.80 93.19808
847.90 93.71734
848.00 94.14369
848.10 94.35784
848.20 94.41626
848.30 94.46165
848.40 94.5784
848.50 94.77755
848.60 95.0619
848.70 95.48668
848.80 96.14786
848.90 97.06324
849.00 98.1307
849.10 99.26513
849.20 100.3712
849.30 101.2791
849.40 101.809
849.50 101.8365
849.60 101.2652
849.70 100.0947
849.80 98.53915
849.90 97.04787
850.00 96.1519
850.10 96.21125
850.20 97.26443
850.30 99.04904
850.40 101.1617
850.50 103.1633
850.60 104.6328
850.70 105.241
850.80 104.8342
850.90 103.4913
851.00 101.5173
851.10 99.3025
851.20 97.19019
851.30 95.35948
851.40 93.80506
851.50 92.36024
851.60 90.75501
851.70 88.79488
851.80 86.41316
851.90 83.63115
852.00 80.67487
852.10 78.03237
852.20 76.26731
852.30 75.80722
852.40 76.80332
852.50 79.17573
852.60 82.665
852.70 86.793
852.80 90.93787
852.90 94.57196
853.00 97.40724
853.10 99.381
853.20 100.6522
853.30 101.5411
853.40 102.3089
853.50 103.0367
853.60 103.7177
853.70 104.3216
853.80 104.8359
853.90 105.2635
854.00 105.5244
854.10 105.538
854.20 105.3774
854.30 105.2256
854.40 105.2818
854.50 105.6846
854.60 106.4869
854.70 107.6079
854.80 108.8507
854.90 109.9859
855.00 110.8117
855.10 111.2285
855.20 111.2154
855.30 110.8291
855.40 110.2505
855.50 109.6768
855.60 109.166
855.70 108.6334
855.80 107.9615
855.90 107.1198
856.00 106.1146
856.10 104.9807
856.20 103.9001
856.30 103.157
856.40 102.9774
856.50 103.4138
856.60 104.3577
856.70 105.5591
856.80 106.7382
856.90 107.684
857.00 108.2753
857.10 108.4794
857.20 108.3209
857.30 107.871
857.40 107.2632
857.50 106.6633
857.60 106.1738
857.70 105.8332
857.80 105.7253
857.90 105.9745
858.00 106.6172
858.10 107.6067
858.20 108.8281
858.30 110.1132
858.40 111.3229
858.50 112.3801
858.60 113.2326
858.70 113.8102
858.80 114.0538
858.90 113.94
859.00 113.4665
859.10 112.7171
859.20 111.8393
859.30 110.9892
859.40 110.3544
859.50 110.0952
859.60 110.2655
859.70 110.7875
859.80 111.4787
859.90 112.1149
860.00 112.5347
860.10 112.671
860.20 112.534
860.30 112.2015
860.40 111.7555
860.50 111.2145
860.60 110.5101
860.70 109.501
860.80 108.0564
860.90 106.1117
861.00 103.6721
861.10 100.7978
861.20 97.56694
861.30 94.08309
861.40 90.50836
861.50 87.07299
861.60 83.97089
861.70 81.3324
861.80 79.30628
861.90 78.00277
862.00 77.39184
862.10 77.32941
862.20 77.60159
862.30 77.96801
862.40 78.23187
862.50 78.33491
862.60 78.32193
862.70 78.23831
862.80 78.04935
862.90 77.65847
863.00 77.04395
863.10 76.29696
863.20 75.5641
863.30 74.96359
863.40 74.58004
863.50 74.48376
863.60 74.70901
863.70 75.22043
863.80 75.89473
863.90 76.58372
864.00 77.21811
864.10 77.77849
864.20 78.2532
864.30 78.63982
864.40 78.89938
864.50 79.04477
864.60 79.16118
864.70 79.33218
864.80 79.65825
864.90 80.2276
865.00 81.13962
865.10 82.4777
865.20 84.27599
865.30 86.4889
865.40 88.917
865.50 91.28126
865.60 93.34428
865.70 94.96929
865.80 96.11172
865.90 96.689
866.00 96.63781
866.10 96.06039
866.20 95.17376
866.30 94.20552
866.40 93.30853
866.50 92.59633
866.60 92.15838
866.70 91.96947
866.80 91.88472
866.90 91.79191
867.00 91.687
867.10 91.56459
867.20 91.44634
867.30 91.42987
867.40 91.61412
867.50 92.05388
867.60 92.72727
867.70 93.56111
867.80 94.38239
867.90 94.87858
868.00 94.74106
868.10 93.87402
868.20 92.44778
868.30 90.78582
868.40 89.23127
868.50 88.06578
868.60 87.44609
868.70 87.34954
868.80 87.52539
868.90 87.58263
869.00 87.12325
869.10 85.79502
869.20 83.45596
869.30 80.3151
869.40 76.81376
869.50 73.44899
869.60 70.66949
869.70 68.72652
869.80 67.65663
869.90 67.39733
870.00 67.81182
870.10 68.69457
870.20 69.8744
870.30 71.18483
870.40 72.47005
870.50 73.63538
870.60 74.59113
870.70 75.20739
870.80 75.32759
870.90 74.84878
871.00 73.80157
871.10 72.38577
871.20 70.89982
871.30 69.60835
871.40 68.67015
871.50 68.16311
871.60 68.05997
871.70 68.21681
871.80 68.42276
871.90 68.52006
872.00 68.47308
872.10 68.33762
872.20 68.28703
872.30 68.52297
872.40 69.21785
872.50 70.45058
872.60 72.14167
872.70 74.06855
872.80 75.91816
872.90 77.43196
873.00 78.46191
873.10 78.97433
873.20 78.98416
873.30 78.54258
873.40 77.80965
873.50 77.00944
873.60 76.35071
873.70 75.99828
873.80 76.02145
873.90 76.45428
874.00 77.31601
874.10 78.61072
874.20 80.30986
874.30 82.20555
874.40 83.96249
874.50 85.26773
874.60 85.92506
874.70 85.9289
874.80 85.4262
874.90 84.69516
875.00 84.09597
875.10 83.92773
875.20 84.32876
875.30 85.3079
875.40 86.82581
875.50 88.84204
875.60 91.37202
875.70 94.39937
875.80 97.72178
875.90 101.0308
876.00 103.9645
876.10 106.082
876.20 106.9769
876.30 106.5411
876.40 105.0251
876.50 102.9457
876.60 100.9992
876.70 99.77176
876.80 99.56812
876.90 100.38
877.00 101.9748
877.10 103.9559
877.20 105.9331
877.30 107.6465
877.40 109.0862
877.50 110.3935
877.60 111.489
877.70 112.0964
877.80 111.9783
877.90 110.9919
878.00 109.1019
878.10 106.4745
878.20 103.481
878.30 100.594
878.40 98.10418
878.50 96.20625
878.60 95.13695
878.70 95.00447
878.80 95.69728
878.90 96.98401
879.00 98.71301
879.10 100.7272
879.20 102.7714
879.30 104.5874
879.40 105.9778
879.50 106.8206
879.60 107.0284
879.70 106.5023
879.80 105.2133
879.90 103.2498
880.00 100.7504
880.10 97.9367
880.20 95.03354
880.30 92.20982
880.40 89.70923
880.50 87.8286
880.60 86.84017
880.70 86.96064
880.80 88.23803
880.90 90.53137
881.00 93.61713
881.10 97.31163
881.20 101.4561
881.30 105.8338
881.40 110.1631
881.50 114.1138
881.60 117.3844
881.70 119.7971
881.80 121.219
881.90 121.4981
882.00 120.5062
882.10 118.3355
882.20 115.503
882.30 112.977
882.40 111.7577
882.50 112.5396
882.60 115.5811
882.70 120.3849
882.80 125.8787
882.90 130.7812
883.00 133.9532
883.10 134.707
883.20 133.1533
883.30 130.3462
883.40 127.6471
883.50 126.0162
883.60 125.8917
883.70 127.1356
883.80 129.1514
883.90 130.9864
884.00 131.6035
884.10 130.4661
884.20 127.4924
884.30 122.9564
884.40 117.5233
884.50 112.092
884.60 107.4732
884.70 104.105
884.80 102.3092
884.90 102.5
885.00 104.8192
885.10 108.8136
885.20 113.6072
885.30 118.2091
885.40 121.6933
885.50 123.4052
885.60 123.1656
885.70 121.2824
885.80 118.2994
885.90 114.803
886.00 111.3884
886.10 108.5817
886.20 106.7511
886.30 106.0354
886.40 106.3329
886.50 107.4297
886.60 109.0121
886.70 110.5998
886.80 111.5771
886.90 111.4019
887.00 109.8145
887.10 106.9194
887.20 103.2545
887.30 99.69939
887.40 97.17357
887.50 96.32596
887.60 97.40984
887.70 100.1942
887.80 103.9955
887.90 107.9802
888.00 111.3997
888.10 113.8402
888.20 115.4037
888.30 116.5741
888.40 118.0644
888.50 120.4397
888.60 123.7971
888.70 127.7532
888.80 131.5526
888.90 134.355
889.00 135.4502
889.10 134.3995
889.20 131.1873
889.30 126.2073
889.40 120.2133
889.50 114.1777
889.60 109.065
889.70 105.6113
889.80 104.2611
889.90 105.2094
890.00 108.3115
890.10 113.0891
890.20 118.8588
890.30 124.7745
890.40 129.8394
890.50 133.1583
890.60 134.2281
890.70 132.9464
890.80 129.6294
890.90 125.01
891.00 120.1204
891.10 116.0418
891.20 113.3859
891.30 112.2711
891.40 112.75
891.50 114.8992
891.60 118.5671
891.70 123.3631
891.80 128.7982
891.90 134.2746
892.00 139.0463
892.10 142.3544
892.20 143.661
892.30 142.7894
892.40 139.8606
892.50 135.25
892.60 129.8235
892.70 124.8343
892.80 121.3531
892.90 119.8856
893.00 120.4868
893.10 122.7992
893.20 126.0813
893.30 129.3702
893.40 131.7443
893.50 132.5867
893.60 131.6513
893.70 129.0095
893.80 125.0793
893.90 120.5605
894.00 116.1526
894.10 112.4048
894.20 109.6854
894.30 108.2221
894.40 108.0839
894.50 109.0414
894.60 110.6534
894.70 112.4601
894.80 114.0374
894.90 115.1129
895.00 115.5817
895.10 115.5869
895.20 115.5417
895.30 116.1626
895.40 118.3021
895.50 122.2887
895.60 127.7032
895.70 133.6663
895.80 139.1415
895.90 143.1983
896.00 145.1482
896.10 144.6487
896.20 141.8169
896.30 137.2018
896.40 131.6628
896.50 126.1979
896.60 121.7877
896.70 119.0039
896.80 117.8101
896.90 117.9572
897.00 119.2409
897.10 121.3936
897.20 123.9987
897.30 126.6167
897.40 128.8826
897.50 130.5687
897.60 131.6718
897.70 132.3151
897.80 132.6678
897.90 132.9501
898.00 133.2711
898.10 133.6868
898.20 134.4601
898.30 136.0056
898.40 138.5477
898.50 141.9406
898.60 145.7807
898.70 149.5229
898.80 152.579
898.90 154.4841
899.00 154.9318
899.10 153.804
899.20 151.2483
899.30 147.5412
899.40 143.1422
899.50 138.7074
899.60 134.7407
899.70 131.6473
899.80 129.9949
899.90 130.427
900.00 131.6337
900.10 132.8404
900.20 134.0471
900.30 135.2538
900.40 136.4605
900.50 137.6672
900.60 138.8739
900.70 140.0806
900.80 141.2873
900.90 142.494
901.00 143.7007
901.10 144.9074
901.20 146.1141
901.30 147.3208
901.40 148.5275
901.50 149.7342
901.60 150.9409
901.70 152.1476
901.80 153.3543
901.90 154.561
902.00 155.7677
902.10 156.9744
902.20 158.1811
902.30 159.3878
902.40 160.5945
902.50 161.8012
902.60 163.0079
902.70 164.2146
902.80 165.4213
902.90 166.628
903.00 167.8347
903.10 169.0414
903.20 169.2828
903.30 169.5145
903.40 169.7462
903.50 169.9779
903.60 170.2096
903.70 170.4413
903.80 170.673
903.90 170.9047
904.00 171.1364
904.10 171.3681
904.20 171.5998
904.30 171.8314
904.40 172.0631
904.50 172.2948
904.60 172.5265
904.70 172.7582
904.80 172.9899
904.90 173.2216
905.00 173.4533
905.10 173.685
905.20 173.9167
905.30 174.1484
905.40 174.38
905.50 174.6117
905.60 174.8434
905.70 175.0751
905.80 175.3068
905.90 175.5385
906.00 175.7702
906.10 176.0019
906.20 176.2336
906.30 176.4653
906.40 176.697
906.50 176.9286
906.60 177.2546
906.70 177.6209
906.80 177.9872
906.90 178.3536
907.00 178.7199
907.10 179.0862
907.20 179.4526
907.30 179.8189
907.40 180.1852
907.50 180.5516
907.60 180.9179
907.70 181.2842
907.80 181.6505
907.90 182.0169
908.00 182.3832
908.10 182.7495
908.20 183.1159
908.30 183.4822
908.40 183.8485
908.50 184.2149
908.60 184.5812
908.70 184.9475
908.80 185.3138
908.90 185.6802
909.00 186.0465
909.10 186.4128
909.20 186.7792
909.30 187.1455
909.40 187.5118
909.50 187.8781
909.60 188.2445
909.70 188.6108
909.80 188.9771
909.90 189.3435
910.00 189.6771
910.10 189.9011
910.20 190.1251
910.30 190.3491
910.40 190.5731
910.50 190.7971
910.60 191.0211
910.70 191.2451
910.80 191.4691
910.90 191.6931
911.00 191.9171
911.10 192.1411
911.20 192.3651
911.30 192.5891
911.40 192.8131
911.50 193.0371
911.60 193.2611
911.70 193.4851
911.80 193.7091
911.90 193.9331
912.00 194.1571
912.10 194.3811
912.20 194.6051
912.30 194.8291
912.40 195.0531
912.50 195.2772
912.60 195.5012
912.70 195.7252
912.80 195.9492
912.90 196.1732
913.00 196.3972
913.10 196.6212
913.20 196.8452
913.30 197.0692
913.40 197.2932
913.50 197.6734
913.60 198.1715
913.70 198.6695
913.80 199.1676
913.90 199.6656
914.00 200.1637
914.10 200.6618
914.20 201.1598
914.30 201.6579
914.40 202.1559
914.50 202.654
914.60 203.152
914.70 203.6501
914.80 204.1482
914.90 204.6462
915.00 205.1443
915.10 205.6423
915.20 206.1404
915.30 206.6385
915.40 207.1365
915.50 207.6346
915.60 208.1326
915.70 208.6307
915.80 209.1287
915.90 209.6268
916.00 210.1249
916.10 210.6229
916.20 211.121
916.30 211.619
916.40 212.1171
916.50 212.6152
916.60 213.1132
916.70 213.6113
916.80 214.1093
916.90 214.6074
917.00 214.931
917.10 215.1933
917.20 215.4556
917.30 215.7178
917.40 215.9801
917.50 216.2424
917.60 216.5047
917.70 216.767
917.80 217.0293
917.90 217.2916
918.00 217.5539
918.10 217.8162
918.20 218.0785
918.30 218.3408
918.40 218.603
918.50 218.8653
918.60 219.1276
918.70 219.3899
918.80 219.6522
918.90 219.9145
919.00 220.1768
919.10 220.4391
919.20 220.7014
919.30 220.9637
919.40 221.2259
919.50 221.4882
919.60 221.7505
919.70 222.0128
919.80 222.2751
919.90 222.5374
920.00 222.7997
920.10 223.062
920.20 223.3243
920.30 223.5866
920.40 223.8488
920.50 224.1774
920.60 224.5291
920.70 224.8809
920.80 225.2327
920.90 225.5844
921.00 225.9362
921.10 226.288
921.20 226.6397
921.30 226.9915
921.40 227.3433
921.50 227.6951
921.60 228.0468
921.70 228.3986
921.80 228.7504
921.90 229.1021
922.00 229.4539
922.10 229.8057
922.20 230.1574
922.30 230.5092
922.40 230.861
922.50 231.2128
922.60 231.5645
922.70 231.9163
922.80 232.2681
922.90 232.6198
923.00 232.9716
923.10 233.3234
923.20 233.6751
923.30 234.0269
923.40 234.3787
923.50 234.7305
923.60 235.0822
923.70 235.434
923.80 235.7858
923.90 236.1375
924.00 236.1054
924.10 235.7717
924.20 235.438
924.30 235.1043
924.40 234.7706
924.50 234.4369
924.60 234.1032
924.70 233.7695
924.80 233.4358
924.90 233.1021
925.00 232.7684
925.10 232.4347
925.20 232.101
925.30 231.7673
925.40 231.4336
925.50 231.0999
925.60 230.7662
925.70 230.4325
925.80 230.0988
925.90 229.7651
926.00 229.4314
926.10 229.0977
926.20 228.764
926.30 228.4303
926.40 228.0966
926.50 227.7629
926.60 227.4292
926.70 227.0955
926.80 226.7618
926.90 226.4281
927.00 226.0944
927.10 225.7607
927.20 225.427
927.30 225.0933
927.40 224.7596
927.50 224.4216
927.60 224.0666
927.70 223.7115
927.80 223.3564
927.90 223.0013
928.00 222.6463
928.10 222.2912
928.20 221.9361
928.30 221.581
928.40 221.226
928.50 220.8709
928.60 220.5158
928.70 220.1607
928.80 219.8057
928.90 219.4506
929.00 219.0955
929.10 218.7404
929.20 218.3854
929.30 218.0303
929.40 217.6752
929.50 217.3201
929.60 216.9651
929.70 216.61
929.80 216.2549
929.90 215.8998
930.00 215.5448
930.10 215.1897
930.20 214.8346
930.30 214.4795
930.40 214.1245
930.50 213.7694
930.60 213.4143
930.70 213.0592
930.80 212.7042
930.90 212.3491
931.00 211.994
931.10 212.3332
931.20 213.0144
931.30 213.6955
931.40 214.3767
931.50 215.0578
931.60 215.739
931.70 216.4201
931.80 217.1013
931.90 217.7824
932.00 218.4636
932.10 219.1447
932.20 219.8259
932.30 220.507
932.40 221.1882
932.50 221.8693
932.60 222.5505
932.70 223.2316
932.80 223.9128
932.90 224.5939
933.00 225.2751
933.10 225.9562
933.20 226.6374
933.30 227.3185
933.40 227.9997
933.50 228.6808
933.60 229.362
933.70 230.0431
933.80 230.7243
933.90 231.4054
934.00 232.0866
934.10 232.7677
934.20 233.4489
934.30 234.13
934.40 234.8112
934.50 235.4923
934.60 236.1735
934.70 236.6749
934.80 237.1708
934.90 237.6667
935.00 238.1626
935.10 238.6585
935.20 239.1544
935.30 239.6503
935.40 240.1462
935.50 240.6421
935.60 241.138
935.70 241.6339
935.80 242.1298
935.90 242.6257
936.00 243.1216
936.10 243.6175
936.20 244.1134
936.30 244.6093
936.40 245.1052
936.50 245.6011
936.60 246.097
936.70 246.5929
936.80 247.0888
936.90 247.5847
937.00 248.0806
937.10 248.5765
937.20 249.0724
937.30 249.5683
937.40 250.0642
937.50 250.5601
937.60 251.056
937.70 251.5519
937.80 252.0478
937.90 252.5437
938.00 253.0396
938.10 253.5355
938.20 253.9789
938.30 253.95
938.40 253.921
938.50 253.8921
938.60 253.8631
938.70 253.8342
938.80 253.8052
938.90 253.7763
939.00 253.7473
939.10 253.7184
939.20 253.6894
939.30 253.6605
939.40 253.6315
939.50 253.6026
939.60 253.5736
939.70 253.5447
939.80 253.5157
939.90 253.4867
940.00 253.4578
940.10 253.4288
940.20 253.3999
940.30 253.3709
940.40 253.342
940.50 253.313
940.60 253.2841
940.70 253.2551
940.80 253.2262
940.90 253.1972
941.00 253.1683
941.10 253.1393
941.20 253.1104
941.30 253.0814
941.40 253.0525
941.50 253.0235
941.60 252.9945
941.70 252.9656
941.80 252.9541
941.90 253.1751
942.00 253.3961
942.10 253.6171
942.20 253.8381
942.30 254.0591
942.40 254.2801
942.50 254.5011
942.60 254.7221
942.70 254.9431
942.80 255.1641
942.90 255.3851
943.00 255.6061
943.10 255.8271
943.20 256.0481
943.30 256.2691
943.40 256.4901
943.50 256.711
943.60 256.932
943.70 257.153
943.80 257.374
943.90 257.595
944.00 257.816
944.10 258.037
944.20 258.258
944.30 258.479
944.40 258.7
944.50 258.921
944.60 259.142
944.70 259.363
944.80 259.584
944.90 259.805
945.00 260.026
945.10 260.247
945.20 260.468
945.30 260.6889
945.40 260.9099
945.50 261.2986
945.60 261.7124
945.70 262.1261
945.80 262.5399
945.90 262.9536
946.00 263.3674
946.10 263.7811
946.20 264.1949
946.30 264.6086
946.40 265.0224
946.50 265.4362
946.60 265.8499
946.70 266.2637
946.80 266.6774
946.90 267.0912
947.00 267.5049
947.10 267.9187
947.20 268.3324
947.30 268.7462
947.40 269.1599
947.50 269.5737
947.60 269.9874
947.70 270.4012
947.80 270.8149
947.90 271.2287
948.00 271.6424
948.10 272.0562
948.20 272.4699
948.30 272.8837
948.40 273.2974
948.50 273.7112
948.60 274.1249
948.70 274.5387
948.80 274.9524
948.90 275.3662
949.00 275.7799
949.10 276.239
949.20 276.7432
949.30 277.2475
949.40 277.7518
949.50 278.256
949.60 278.7603
949.70 279.2645
949.80 279.7688
949.90 280.2731
950.00 280.7773
950.10 281.2816
950.20 281.7859
950.30 282.2901
950.40 282.7944
950.50 283.2987
950.60 283.8029
950.70 284.3072
950.80 284.8114
950.90 285.3157
951.00 285.82
951.10 286.3242
951.20 286.8285
951.30 287.3328
951.40 287.837
951.50 288.3413
951.60 288.8456
951.70 289.3498
951.80 289.8541
951.90 290.3584
952.00 290.8626
952.10 291.3669
952.20 291.8711
952.30 292.3754
952.40 292.8797
952.50 293.3839
952.60 293.8882
952.70 294.3925
952.80 294.4653
952.90 294.5249
953.00 294.5844
953.10 294.6439
953.20 294.7035
953.30 294.763
953.40 294.8225
953.50 294.882
953.60 294.9416
953.70 295.0011
953.80 295.0606
953.90 295.1202
954.00 295.1797
954.10 295.2392
954.20 295.2987
954.30 295.3583
954.40 295.4178
954.50 295.4773
954.60 295.5369
954.70 295.5964
954.80 295.6559
954.90 295.7154
955.00 295.775
955.10 295.8345
955.20 295.894
955.30 295.9536
955.40 296.0131
955.50 296.0726
955.60 296.1321
955.70 296.1917
955.80 296.2512
955.90 296.3107
956.00 296.3703
956.10 296.4298
956.20 296.4893
956.30 296.5488
956.40 296.6135
956.50 296.6915
956.60 296.7695
956.70 296.8475
956.80 296.9255
956.90 297.0035
957.00 297.0815
957.10 297.1595
957.20 297.2375
957.30 297.3155
957.40 297.3935
957.50 297.4715
957.60 297.5495
957.70 297.6275
957.80 297.7055
957.90 297.7835
958.00 297.8615
958.10 297.9395
958.20 298.0175
958.30 298.0955
958.40 298.1735
958.50 298.2515
958.60 298.3295
958.70 298.4075
958.80 298.4855
958.90 298.5635
959.00 298.6415
959.10 298.7195
959.20 298.7975
959.30 298.8754
959.40 298.9534
959.50 299.0314
959.60 299.1094
959.70 299.1874
959.80 299.2654
959.90 299.3434
960.00 299.4214
960.10 299.3746
960.20 299.1625
960.30 298.9503
960.40 298.7381
960.50 298.5259
960.60 298.3138
960.70 298.1016
960.80 297.8894
960.90 297.6772
961.00 297.465
961.10 297.2529
961.20 297.0407
961.30 296.8285
961.40 296.6163
961.50 296.4041
961.60 296.192
961.70 295.9798
961.80 295.7676
961.90 295.5554
962.00 295.3433
962.10 295.1311
962.20 294.9189
962.30 294.7067
962.40 294.4945
962.50 294.2824
962.60 294.0702
962.70 293.858
962.80 293.6458
962.90 293.4337
963.00 293.2215
963.10 293.0093
963.20 292.7971
963.30 292.5849
963.40 292.3728
963.50 292.1606
963.60 291.9484
963.70 291.7362
963.80 291.802
963.90 292.2515
964.00 292.701
964.10 293.1505
964.20 293.6
964.30 294.0496
964.40 294.4991
964.50 294.9486
964.60 295.3981
964.70 295.8477
964.80 296.2972
964.90 296.7467
965.00 297.1962
965.10 297.6457
965.20 298.0953
965.30 298.5448
965.40 298.9943
965.50 299.4438
965.60 299.8934
965.70 300.3429
965.80 300.7924
965.90 301.2419
966.00 301.6914
966.10 302.141
966.20 302.5905
966.30 303.04
966.40 303.4895
966.50 303.9391
966.60 304.3886
966.70 304.8381
966.80 305.2876
966.90 305.7371
967.00 306.1867
967.10 306.6362
967.20 307.0857
967.30 307.5352
967.40 307.9848
967.50 308.3479
967.60 308.4651
967.70 308.5822
967.80 308.6994
967.90 308.8166
968.00 308.9338
968.10 309.051
968.20 309.1682
968.30 309.2853
968.40 309.4025
968.50 309.5197
968.60 309.6369
968.70 309.7541
968.80 309.8713
968.90 309.9885
969.00 310.1056
969.10 310.2228
969.20 310.34
969.30 310.4572
969.40 310.5744
969.50 310.6916
969.60 310.8088
969.70 310.9259
969.80 311.0431
969.90 311.1603
970.00 311.2775
970.10 311.3947
970.20 311.5119
970.30 311.629
970.40 311.7462
970.50 311.8634
970.60 311.9806
970.70 312.0978
970.80 312.215
970.90 312.3322
971.00 312.4493
971.10 312.5665
971.20 312.6837
971.30 313.0601
971.40 313.4531
971.50 313.846
971.60 314.239
971.70 314.6319
971.80 315.0249
971.90 315.4178
972.00 315.8108
972.10 316.2038
972.20 316.5967
972.30 316.9897
972.40 317.3826
972.50 317.7756
972.60 318.1685
972.70 318.5615
972.80 318.9544
972.90 319.3474
973.00 319.7403
973.10 320.1333
973.20 320.5263
973.30 320.9192
973.40 321.3122
973.50 321.7051
973.60 322.0981
973.70 322.491
973.80 322.884
973.90 323.2769
974.00 323.6699
974.10 324.0629
974.20 324.4558
974.30 324.8488
974.40 325.2417
974.50 325.6347
974.60 326.0276
974.70 326.4206
974.80 326.8135
974.90 327.2065
975.00 327.7373
975.10 328.4236
975.20 329.1099
975.30 329.7962
975.40 330.4825
975.50 331.1688
975.60 331.855
975.70 332.5413
975.80 333.2276
975.90 333.9139
976.00 334.6002
976.10 335.2865
976.20 335.9728
976.30 336.6591
976.40 337.3453
976.50 338.0316
976.60 338.7179
976.70 339.4042
976.80 340.0905
976.90 340.7768
977.00 341.4631
977.10 342.1494
977.20 342.8356
977.30 343.5219
977.40 344.2082
977.50 344.8945
977.60 345.5808
977.70 346.2671
977.80 346.9534
977.90 347.6397
978.00 348.3259
978.10 349.0122
978.20 349.6985
978.30 350.3848
978.40 351.0711
978.50 351.7574
978.60 352.4437
978.70 353.13
978.80 353.1202
978.90 352.9876
979.00 352.8551
979.10 352.7225
979.20 352.5899
979.30 352.4573
979.40 352.3247
979.50 352.1922
979.60 352.0596
979.70 351.927
979.80 351.7944
979.90 351.6619
980.00 351.5293
980.10 351.3967
980.20 351.2641
980.30 351.1315
980.40 350.999
980.50 350.8664
980.60 350.7338
980.70 350.6012
980.80 350.4687
980.90 350.3361
981.00 350.2035
981.10 350.0709
981.20 349.9383
981.30 349.8058
981.40 349.6732
981.50 349.5406
981.60 349.408
981.70 349.2755
981.80 349.1429
981.90 349.0103
982.00 348.8777
982.10 348.7451
982.20 348.6126
982.30 348.48
982.40 348.3474
982.50 348.1571
982.60 347.3025
982.70 346.448
982.80 345.5935
982.90 344.7389
983.00 343.8844
983.10 343.0299
983.20 342.1753
983.30 341.3208
983.40 340.4663
983.50 339.6117
983.60 338.7572
983.70 337.9027
983.80 337.0481
983.90 336.1936
984.00 335.3391
984.10 334.4845
984.20 333.63
984.30 332.7755
984.40 331.9209
984.50 331.0664
984.60 330.2119
984.70 329.3573
984.80 328.5028
984.90 327.6483
985.00 326.7937
985.10 325.9392
985.20 325.0847
985.30 324.2301
985.40 323.3756
985.50 322.5211
985.60 321.6665
985.70 320.812
985.80 319.9575
985.90 319.1029
986.00 318.2484
986.10 317.3939
986.20 316.5393
986.30 315.6536
986.40 314.6039
986.50 313.5542
986.60 312.5045
986.70 311.4548
986.80 310.4051
986.90 309.3554
987.00 308.3057
987.10 307.2559
987.20 306.2062
987.30 305.1565
987.40 304.1068
987.50 303.0571
987.60 302.0074
987.70 300.9577
987.80 299.908
987.90 298.8583
988.00 297.8086
988.10 296.7589
988.20 295.7092
988.30 294.6595
988.40 293.6098
988.50 292.5601
988.60 291.5104
988.70 290.4607
988.80 289.411
988.90 288.3613
989.00 287.3116
989.10 286.2619
989.20 285.2121
989.30 284.1624
989.40 283.1127
989.50 282.063
989.60 281.0133
989.70 279.9636
989.80 278.9139
989.90 277.8642
990.00 276.8145
990.10 275.7801
990.20 274.8837
990.30 273.9873
990.40 273.0909
990.50 272.1945
990.60 271.2981
990.70 270.4017
990.80 269.5053
990.90 268.6089
991.00 267.7125
991.10 266.8161
991.20 265.9197
991.30 265.0233
991.40 264.1269
991.50 263.2305
991.60 262.3341
991.70 261.4377
991.80 260.5413
991.90 259.6449
992.00 258.7485
992.10 257.8521
992.20 256.9557
992.30 256.0592
992.40 255.1628
992.50 254.2664
992.60 253.37
992.70 252.4736
992.80 251.5772
992.90 250.6808
993.00 249.7844
993.10 248.888
993.20 247.9916
993.30 247.0952
993.40 246.1988
993.50 245.3024
993.60 244.406
993.70 243.5096
993.80 242.6132
993.90 241.7168
994.00 241.0867
994.10 240.4863
994.20 239.8858
994.30 239.2854
994.40 238.6849
994.50 238.0844
994.60 237.484
994.70 236.8835
994.80 236.2831
994.90 235.6826
995.00 235.0822
995.10 234.4817
995.20 233.8812
995.30 233.2808
995.40 232.6803
995.50 232.0799
995.60 231.4794
995.70 230.8789
995.80 230.2785
995.90 229.678
996.00 229.0776
996.10 228.4771
996.20 227.8767
996.30 227.2762
996.40 226.6757
996.50 226.0753
996.60 225.4748
996.70 224.8744
996.80 224.2739
996.90 223.6734
997.00 223.073
997.10 222.4725
997.20 221.8721
997.30 221.2716
997.40 220.6712
997.50 220.0707
997.60 219.4702
997.70 218.8698
997.80 218.8213
997.90 219.2245
998.00 219.6276
998.10 220.0308
998.20 220.434
998.30 220.8371
998.40 221.2403
998.50 221.6434
998.60 222.0466
998.70 222.4498
998.80 222.8529
998.90 223.2561
999.00 223.6593
999.10 224.0624
999.20 224.4656
999.30 224.8687
999.40 225.2719
999.50 225.6751
999.60 226.0782
999.70 226.4814
999.80 226.8845
999.90 227.2877
1000.00 227.6909
1000.10 228.094
1000.20 228.4972
1000.30 228.9004
1000.40 229.3035
1000.50 229.7067
1000.60 230.1098
1000.70 230.513
1000.80 230.9162
1000.90 231.3193
1001.00 231.7225
1001.10 232.1256
1001.20 232.5288
1001.30 232.932
1001.40 233.3351
1001.50 233.7383
1001.60 234.1419
1001.70 234.5493
1001.80 234.9568
1001.90 235.3642
1002.00 235.7716
1002.10 236.1791
1002.20 236.5865
1002.30 236.9939
1002.40 237.4014
1002.50 237.8088
1002.60 238.2163
1002.70 238.6237
1002.80 239.0311
1002.90 239.4386
1003.00 239.846
1003.10 240.2534
1003.20 240.6609
1003.30 241.0683
1003.40 241.4758
1003.50 241.8832
1003.60 242.2906
1003.70 242.6981
1003.80 243.1055
1003.90 243.5129
1004.00 243.9204
1004.10 244.3278
1004.20 244.7353
1004.30 245.1427
1004.40 245.5501
1004.50 245.9576
1004.60 246.365
1004.70 246.7724
1004.80 247.1799
1004.90 247.5873
1005.00 247.9948
1005.10 248.4022
1005.20 248.8096
1005.30 249.2171
1005.40 249.6245
1005.50 250.1747
1005.60 250.939
1005.70 251.7033
1005.80 252.4676
1005.90 253.2319
1006.00 253.9962
1006.10 254.7605
1006.20 255.5248
1006.30 256.2891
1006.40 257.0534
1006.50 257.8177
1006.60 258.582
1006.70 259.3463
1006.80 260.1106
1006.90 260.875
1007.00 261.6393
1007.10 262.4036
1007.20 263.1679
1007.30 263.9322
1007.40 264.6965
1007.50 265.4608
1007.60 266.2251
1007.70 266.9894
1007.80 267.7537
1007.90 268.518
1008.00 269.2823
1008.10 270.0466
1008.20 270.8109
1008.30 271.5752
1008.40 272.3395
1008.50 273.1038
1008.60 273.8681
1008.70 274.6324
1008.80 275.3967
1008.90 276.161
1009.00 276.9253
1009.10 277.6897
1009.20 278.454
1009.30 279.2183
1009.40 279.6758
1009.50 280.0019
1009.60 280.328
1009.70 280.6541
1009.80 280.9802
1009.90 281.3063
1010.00 281.6324
1010.10 281.9585
1010.20 282.2846
1010.30 282.6107
1010.40 282.9368
1010.50 283.2629
1010.60 283.589
1010.70 283.9151
1010.80 284.2412
1010.90 284.5673
1011.00 284.8934
1011.10 285.2195
1011.20 285.5456
1011.30 285.8717
1011.40 286.1978
1011.50 286.5239
1011.60 286.85
1011.70 287.1761
1011.80 287.5022
1011.90 287.8283
1012.00 288.1544
1012.10 288.4805
1012.20 288.8066
1012.30 289.1327
1012.40 289.4588
1012.50 289.7849
1012.60 290.111
1012.70 290.4371
1012.80 290.7632
1012.90 291.0893
1013.00 291.4154
1013.10 291.7415
1013.20 292.0676
1013.30 292.1181
1013.40 292.0996
1013.50 292.0812
1013.60 292.0628
1013.70 292.0443
1013.80 292.0259
1013.90 292.0074
1014.00 291.989
1014.10 291.9706
1014.20 291.9521
1014.30 291.9337
1014.40 291.9153
1014.50 291.8968
1014.60 291.8784
1014.70 291.86
1014.80 291.8415
1014.90 291.8231
1015.00 291.8046
1015.10 291.7862
1015.20 291.7678
1015.30 291.7493
1015.40 291.7309
1015.50 291.7125
1015.60 291.694
1015.70 291.6756
1015.80 291.6572
1015.90 291.6387
1016.00 291.6203
1016.10 291.6018
1016.20 291.5834
1016.30 291.565
1016.40 291.5465
1016.50 291.5281
1016.60 291.5097
1016.70 291.4912
1016.80 291.4728
1016.90 291.4543
1017.00 291.4359
1017.10 291.4175
1017.20 291.6702
1017.30 291.9906
1017.40 292.3111
1017.50 292.6315
1017.60 292.952
1017.70 293.2724
1017.80 293.5929
1017.90 293.9133
1018.00 294.2338
1018.10 294.5542
1018.20 294.8747
1018.30 295.1951
1018.40 295.5156
1018.50 295.836
1018.60 296.1565
1018.70 296.477
1018.80 296.7974
1018.90 297.1179
1019.00 297.4383
1019.10 297.7588
1019.20 298.0792
1019.30 298.3997
1019.40 298.7201
1019.50 299.0406
1019.60 299.361
1019.70 299.6815
1019.80 300.0019
1019.90 300.3224
1020.00 300.6429
1020.10 300.9633
1020.20 301.2838
1020.30 301.6042
1020.40 301.9247
1020.50 302.2451
1020.60 302.5656
1020.70 302.886
1020.80 303.2065
1020.90 303.5269
1021.00 303.8474
1021.10 303.9834
1021.20 303.9965
1021.30 304.0097
1021.40 304.0228
1021.50 304.0359
1021.60 304.049
1021.70 304.0621
1021.80 304.0752
1021.90 304.0883
1022.00 304.1014
1022.10 304.1145
1022.20 304.1276
1022.30 304.1407
1022.40 304.1539
1022.50 304.167
1022.60 304.1801
1022.70 304.1932
1022.80 304.2063
1022.90 304.2194
1023.00 304.2325
1023.10 304.2456
1023.20 304.2587
1023.30 304.2718
1023.40 304.2849
1023.50 304.298
1023.60 304.3112
1023.70 304.3243
1023.80 304.3374
1023.90 304.3505
1024.00 304.3636
1024.10 304.3767
1024.20 304.3898
1024.30 304.4029
1024.40 304.416
1024.50 304.4291
1024.60 304.4422
1024.70 304.4554
1024.80 304.4685
1024.90 304.4816
1025.00 304.4941
1025.10 304.5059
1025.20 304.5177
1025.30 304.5295
1025.40 304.5412
1025.50 304.553
1025.60 304.5648
1025.70 304.5765
1025.80 304.5883
1025.90 304.6001
1026.00 304.6118
1026.10 304.6236
1026.20 304.6354
1026.30 304.6471
1026.40 304.6589
1026.50 304.6707
1026.60 304.6825
1026.70 304.6942
1026.80 304.706
1026.90 304.7178
1027.00 304.7295
1027.10 304.7413
1027.20 304.7531
1027.30 304.7648
1027.40 304.7766
1027.50 304.7884
1027.60 304.8001
1027.70 304.8119
1027.80 304.8237
1027.90 304.8355
1028.00 304.8472
1028.10 304.859
1028.20 304.8708
1028.30 304.8825
1028.40 304.8943
1028.50 304.9061
1028.60 304.9178
1028.70 304.9296
1028.80 304.9414
1028.90 304.9531
1029.00 305.6365
1029.10 306.3199
1029.20 307.0032
1029.30 307.6866
1029.40 308.37
1029.50 309.0533
1029.60 309.7367
1029.70 310.4201
1029.80 311.1034
1029.90 311.7868
1030.00 312.4702
1030.10 313.1535
1030.20 313.8369
1030.30 314.5203
1030.40 315.2036
1030.50 315.887
1030.60 316.5704
1030.70 317.2538
1030.80 317.9371
1030.90 318.6205
1031.00 319.3039
1031.10 319.9872
1031.20 320.6706
1031.30 321.354
1031.40 322.0373
1031.50 322.7207
1031.60 323.4041
1031.70 324.0874
1031.80 324.7708
1031.90 325.4542
1032.00 326.1375
1032.10 326.8209
1032.20 327.5043
1032.30 328.1876
1032.40 328.871
1032.50 329.5544
1032.60 330.2377
1032.70 330.9211
1032.80 331.6045
1032.90 332.1504
1033.00 332.4901
1033.10 332.8299
1033.20 333.1697
1033.30 333.5094
1033.40 333.8492
1033.50 334.1889
1033.60 334.5287
1033.70 334.8685
1033.80 335.2082
1033.90 335.548
1034.00 335.8877
1034.10 336.2275
1034.20 336.5673
1034.30 336.907
1034.40 337.2468
1034.50 337.5865
1034.60 337.9263
1034.70 338.266
1034.80 338.6058
1034.90 338.9456
1035.00 339.2853
1035.10 339.6251
1035.20 339.9648
1035.30 340.3046
1035.40 340.6444
1035.50 340.9841
1035.60 341.3239
1035.70 341.6636
1035.80 342.0034
1035.90 342.3432
1036.00 342.6829
1036.10 343.0227
1036.20 343.3624
1036.30 343.7022
1036.40 344.042
1036.50 344.3817
1036.60 344.7215
1036.70 345.0612
1036.80 345.401
1036.90 345.6327
1037.00 345.8374
1037.10 346.0422
1037.20 346.2469
1037.30 346.4516
1037.40 346.6563
1037.50 346.861
1037.60 347.0658
1037.70 347.2705
1037.80 347.4752
1037.90 347.6799
1038.00 347.8847
1038.10 348.0894
1038.20 348.2941
1038.30 348.4988
1038.40 348.7035
1038.50 348.9083
1038.60 349.113
1038.70 349.3177
1038.80 349.5224
1038.90 349.7272
1039.00 349.9319
1039.10 350.1366
1039.20 350.3413
1039.30 350.546
1039.40 350.7508
1039.50 350.9555
1039.60 351.1602
1039.70 351.3649
1039.80 351.5696
1039.90 351.7744
1040.00 351.9791
1040.10 352.1838
1040.20 352.3885
1040.30 352.5933
1040.40 352.798
1040.50 353.0027
1040.60 353.2074
1040.70 353.4121
1040.80 353.6169
1040.90 353.7831
1041.00 353.9493
1041.10 354.1155
1041.20 354.2817
1041.30 354.4479
1041.40 354.6142
1041.50 354.7804
1041.60 354.9466
1041.70 355.1128
1041.80 355.279
1041.90 355.4452
1042.00 355.6115
1042.10 355.7777
1042.20 355.9439
1042.30 356.1101
1042.40 356.2763
1042.50 356.4425
1042.60 356.6088
1042.70 356.775
1042.80 356.9412
1042.90 357.1074
1043.00 357.2736
1043.10 357.4398
1043.20 357.6061
1043.30 357.7723
1043.40 357.9385
1043.50 358.1047
1043.60 358.2709
1043.70 358.4371
1043.80 358.6034
1043.90 358.7696
1044.00 358.9358
1044.10 359.102
1044.20 359.2682
1044.30 359.4344
1044.40 359.6007
1044.50 359.7669
1044.60 359.9331
1044.70 360.0993
1044.80 360.2756
1044.90 360.5428
1045.00 360.81
1045.10 361.0772
1045.20 361.3443
1045.30 361.6115
1045.40 361.8787
1045.50 362.1459
1045.60 362.413
1045.70 362.6802
1045.80 362.9474
1045.90 363.2146
1046.00 363.4817
1046.10 363.7489
1046.20 364.0161
1046.30 364.2833
1046.40 364.5504
1046.50 364.8176
1046.60 365.0848
1046.70 365.352
1046.80 365.6191
1046.90 365.8863
1047.00 366.1535
1047.10 366.4207
1047.20 366.6878
1047.30 366.955
1047.40 367.2222
1047.50 367.4894
1047.60 367.7565
1047.70 368.0237
1047.80 368.2909
1047.90 368.5581
1048.00 368.8253
1048.10 369.0924
1048.20 369.3596
1048.30 369.6268
1048.40 369.894
1048.50 370.1611
1048.60 370.4283
1048.70 370.6955
1048.80 370.9285
1048.90 370.8541
1049.00 370.7797
1049.10 370.7052
1049.20 370.6308
1049.30 370.5564
1049.40 370.482
1049.50 370.4076
1049.60 370.3332
1049.70 370.2587
1049.80 370.1843
1049.90 370.1099
1050.00 370.0355
1050.10 369.9611
1050.20 369.8866
1050.30 369.8122
1050.40 369.7378
1050.50 369.6634
1050.60 369.589
1050.70 369.5146
1050.80 369.4401
1050.90 369.3657
1051.00 369.2913
1051.10 369.2169
1051.20 369.1425
1051.30 369.068
1051.40 368.9936
1051.50 368.9192
1051.60 368.8448
1051.70 368.7704
1051.80 368.696
1051.90 368.6215
1052.00 368.5471
1052.10 368.4727
1052.20 368.3983
1052.30 368.3239
1052.40 368.2494
1052.50 368.175
1052.60 368.1006
1052.70 368.0262
1052.80 367.9518
1052.90 367.6997
1053.00 367.4477
1053.10 367.1956
1053.20 366.9436
1053.30 366.6915
1053.40 366.4394
1053.50 366.1874
1053.60 365.9353
1053.70 365.6833
1053.80 365.4312
1053.90 365.1792
1054.00 364.9271
1054.10 364.6751
1054.20 364.423
1054.30 364.1709
1054.40 363.9189
1054.50 363.6668
1054.60 363.4148
1054.70 363.1627
1054.80 362.9107
1054.90 362.6586
1055.00 362.4065
1055.10 362.1545
1055.20 361.9024
1055.30 361.6504
1055.40 361.3983
1055.50 361.1463
1055.60 360.8942
1055.70 360.6422
1055.80 360.3901
1055.90 360.138
1056.00 359.886
1056.10 359.6339
1056.20 359.3819
1056.30 359.1298
1056.40 358.8778
1056.50 358.6257
1056.60 358.3737
1056.70 358.1216
1056.80 357.8695
1056.90 357.8711
1057.00 357.936
1057.10 358.0009
1057.20 358.0658
1057.30 358.1307
1057.40 358.1957
1057.50 358.2606
1057.60 358.3255
1057.70 358.3904
1057.80 358.4553
1057.90 358.5203
1058.00 358.5852
1058.10 358.6501
1058.20 358.715
1058.30 358.7799
1058.40 358.8449
1058.50 358.9098
1058.60 358.9747
1058.70 359.0396
1058.80 359.1046
1058.90 359.1695
1059.00 359.2344
1059.10 359.2993
1059.20 359.3642
1059.30 359.4292
1059.40 359.4941
1059.50 359.559
1059.60 359.6239
1059.70 359.6888
1059.80 359.7538
1059.90 359.8187
1060.00 359.8836
1060.10 359.9485
1060.20 360.0134
1060.30 360.0784
1060.40 360.1433
1060.50 360.2082
1060.60 360.2731
1060.70 360.338
1060.80 360.403
1060.90 360.658
1061.00 361.1032
1061.10 361.5483
1061.20 361.9935
1061.30 362.4387
1061.40 362.8838
1061.50 363.329
1061.60 363.7741
1061.70 364.2193
1061.80 364.6645
1061.90 365.1096
1062.00 365.5548
1062.10 366
1062.20 366.4451
1062.30 366.8903
1062.40 367.3354
1062.50 367.7806
1062.60 368.2258
1062.70 368.6709
1062.80 369.1161
1062.90 369.5613
1063.00 370.0064
1063.10 370.4516
1063.20 370.8967
1063.30 371.3419
1063.40 371.7871
1063.50 372.2322
1063.60 372.6774
1063.70 373.1226
1063.80 373.5677
1063.90 374.0129
1064.00 374.4581
1064.10 374.9032
1064.20 375.3484
1064.30 375.7935
1064.40 376.2387
1064.50 376.6839
1064.60 377.129
1064.70 377.5742
1064.80 378.0194
1064.90 378.4645
1065.00 378.8966
1065.10 379.3287
1065.20 379.7608
1065.30 380.1928
1065.40 380.6249
1065.50 381.057
1065.60 381.4891
1065.70 381.9211
1065.80 382.3532
1065.90 382.7853
1066.00 383.2174
1066.10 383.6495
1066.20 384.0815
1066.30 384.5136
1066.40 384.9457
1066.50 385.3778
1066.60 385.8098
1066.70 386.2419
1066.80 386.674
1066.90 387.1061
1067.00 387.5382
1067.10 387.9702
1067.20 388.4023
1067.30 388.8344
1067.40 389.2665
1067.50 389.6985
1067.60 390.1306
1067.70 390.5627
1067.80 390.9948
1067.90 391.4269
1068.00 391.8589
1068.10 392.291
1068.20 392.7231
1068.30 393.1552
1068.40 393.5872
1068.50 394.0193
1068.60 394.4514
1068.70 394.8835
1068.80 395.3156
1068.90 395.7476
1069.00 396.2017
1069.10 396.6777
1069.20 397.1537
1069.30 397.6297
1069.40 398.1057
1069.50 398.5817
1069.60 399.0577
1069.70 399.5337
1069.80 400.0097
1069.90 400.4857
1070.00 400.9617
1070.10 401.4377
1070.20 401.9137
1070.30 402.3897
1070.40 402.8657
1070.50 403.3417
1070.60 403.8177
1070.70 404.2937
1070.80 404.7697
1070.90 405.2457
1071.00 405.7217
1071.10 406.1977
1071.20 406.6737
1071.30 407.1497
1071.40 407.6257
1071.50 408.1017
1071.60 408.5777
1071.70 409.0537
1071.80 409.5297
1071.90 410.0057
1072.00 410.4817
1072.10 410.9577
1072.20 411.4337
1072.30 411.9097
1072.40 412.3857
1072.50 412.8617
1072.60 413.3377
1072.70 413.8137
1072.80 414.2897
1072.90 414.7657
1073.00 415.2417
1073.10 415.6588
1073.20 416.0694
1073.30 416.4799
1073.40 416.8905
1073.50 417.3011
1073.60 417.7116
1073.70 418.1222
1073.80 418.5327
1073.90 418.9433
1074.00 419.3538
1074.10 419.7644
1074.20 420.1749
1074.30 420.5855
1074.40 420.996
1074.50 421.4066
1074.60 421.8171
1074.70 422.2277
1074.80 422.6382
1074.90 423.0488
1075.00 423.4593
1075.10 423.8699
1075.20 424.2804
1075.30 424.691
1075.40 425.1016
1075.50 425.5121
1075.60 425.9227
1075.70 426.3332
1075.80 426.7438
1075.90 427.1543
1076.00 427.5649
1076.10 427.9754
1076.20 428.386
1076.30 428.7965
1076.40 429.2071
1076.50 429.6176
1076.60 430.0282
1076.70 430.4387
1076.80 430.8493
1076.90 431.2598
1077.00 431.6704
1077.10 432.0637
1077.20 432.3023
1077.30 432.5409
1077.40 432.7795
1077.50 433.0181
1077.60 433.2566
1077.70 433.4952
1077.80 433.7338
1077.90 433.9724
1078.00 434.2109
1078.10 434.4495
1078.20 434.6881
1078.30 434.9267
1078.40 435.1652
1078.50 435.4038
1078.60 435.6424
1078.70 435.881
1078.80 436.1195
1078.90 436.3581
1079.00 436.5967
1079.10 436.8353
1079.20 437.0738
1079.30 437.3124
1079.40 437.551
1079.50 437.7896
1079.60 438.0281
1079.70 438.2667
1079.80 438.5053
1079.90 438.7439
1080.00 438.9825
1080.10 439.221
1080.20 439.4596
1080.30 439.6982
1080.40 439.9368
1080.50 440.1753
1080.60 440.4139
1080.70 440.6525
1080.80 440.8911
1080.90 441.1296
1081.00 441.3682
1081.10 441.6068
1081.20 442.0879
1081.30 443.1348
1081.40 444.1817
1081.50 445.2286
1081.60 446.2755
1081.70 447.3224
1081.80 448.3693
1081.90 449.4162
1082.00 450.4631
1082.10 451.51
1082.20 452.5569
1082.30 453.6038
1082.40 454.6507
1082.50 455.6976
1082.60 456.7445
1082.70 457.7914
1082.80 458.8383
1082.90 459.8852
1083.00 460.9321
1083.10 461.979
1083.20 463.0259
1083.30 464.0728
1083.40 465.1198
1083.50 466.1667
1083.60 467.2136
1083.70 468.2605
1083.80 469.3074
1083.90 470.3543
1084.00 471.4012
1084.10 472.4481
1084.20 473.495
1084.30 474.5419
1084.40 475.5888
1084.50 476.6357
1084.60 477.6826
1084.70 478.7295
1084.80 479.7764
1084.90 480.8233
1085.00 481.8702
1085.10 482.9171
1085.20 483.964
1085.30 484.7351
1085.40 484.8628
1085.50 484.9904
1085.60 485.118
1085.70 485.2456
1085.80 485.3733
1085.90 485.5009
1086.00 485.6285
1086.10 485.7561
1086.20 485.8838
1086.30 486.0114
1086.40 486.139
1086.50 486.2666
1086.60 486.3943
1086.70 486.5219
1086.80 486.6495
1086.90 486.7771
1087.00 486.9047
1087.10 487.0324
1087.20 487.16
1087.30 487.2876
1087.40 487.4152
1087.50 487.5429
1087.60 487.6705
1087.70 487.7981
1087.80 487.9257
1087.90 488.0534
1088.00 488.181
1088.10 488.3086
1088.20 488.4362
1088.30 488.5639
1088.40 488.6915
1088.50 488.8191
1088.60 488.9467
1088.70 489.0744
1088.80 489.202
1088.90 489.3296
1089.00 489.4572
1089.10 489.5848
1089.20 489.7125
1089.30 489.8401
1089.40 490.0024
1089.50 490.2458
1089.60 490.4892
1089.70 490.7325
1089.80 490.9759
1089.90 491.2192
1090.00 491.4626
1090.10 491.706
1090.20 491.9493
1090.30 492.1927
1090.40 492.436
1090.50 492.6794
1090.60 492.9228
1090.70 493.1661
1090.80 493.4095
1090.90 493.6528
1091.00 493.8962
1091.10 494.1396
1091.20 494.3829
1091.30 494.6263
1091.40 494.8696
1091.50 495.113
1091.60 495.3564
1091.70 495.5997
1091.80 495.8431
1091.90 496.0864
1092.00 496.3298
1092.10 496.5732
1092.20 496.8165
1092.30 497.0599
1092.40 497.3032
1092.50 497.5466
1092.60 497.79
1092.70 498.0333
1092.80 498.2767
1092.90 498.52
1093.00 498.7634
1093.10 499.0068
1093.20 499.2501
1093.30 499.4935
1093.40 499.7368
1093.50 499.9613
1093.60 500.11
1093.70 500.2587
1093.80 500.4074
1093.90 500.5561
1094.00 500.7048
1094.10 500.8535
1094.20 501.0022
1094.30 501.1509
1094.40 501.2996
1094.50 501.4483
1094.60 501.597
1094.70 501.7457
1094.80 501.8944
1094.90 502.0431
1095.00 502.1918
1095.10 502.3405
1095.20 502.4892
1095.30 502.6379
1095.40 502.7866
1095.50 502.9353
1095.60 503.084
1095.70 503.2327
1095.80 503.3814
1095.90 503.5301
1096.00 503.6788
1096.10 503.8275
1096.20 503.9762
1096.30 504.1249
1096.40 504.2736
1096.50 504.4223
1096.60 504.571
1096.70 504.7197
1096.80 504.8684
1096.90 505.0171
1097.00 505.1658
1097.10 505.3145
1097.20 505.4633
1097.30 505.612
1097.40 505.7607
1097.50 505.9094
1097.60 506.0581
1097.70 506.2781
1097.80 506.498
1097.90 506.718
1098.00 506.938
1098.10 507.158
1098.20 507.378
1098.30 507.598
1098.40 507.818
1098.50 508.038
1098.60 508.258
1098.70 508.478
1098.80 508.6979
1098.90 508.9179
1099.00 509.1379
1099.10 509.3579
1099.20 509.5779
1099.30 509.7979
1099.40 510.0179
1099.50 510.2379
1099.60 510.4579
1099.70 510.6779
1099.80 510.8979
1099.90 511.1178
1100.00 511.3378
1100.10 511.5578
1100.20 511.7778
1100.30 511.9978
1100.40 512.2178
1100.50 512.4378
1100.60 512.6578
1100.70 512.8778
1100.80 513.0978
1100.90 513.3178
1101.00 513.5377
1101.10 513.7577
1101.20 513.9777
1101.30 514.1977
1101.40 514.4177
1101.50 514.6377
1101.60 514.8577
1101.70 515.0777
1101.80 514.8476
1101.90 514.4246
1102.00 514.0016
1102.10 513.5787
1102.20 513.1557
1102.30 512.7327
1102.40 512.3097
1102.50 511.8867
1102.60 511.4638
1102.70 511.0408
1102.80 510.6178
1102.90 510.1948
1103.00 509.7718
1103.10 509.3489
1103.20 508.9259
1103.30 508.5029
1103.40 508.0799
1103.50 507.6569
1103.60 507.234
1103.70 506.811
1103.80 506.388
1103.90 505.965
1104.00 505.542
1104.10 505.1191
1104.20 504.6961
1104.30 504.2731
1104.40 503.8501
1104.50 503.4271
1104.60 503.0041
1104.70 502.5812
1104.80 502.1582
1104.90 501.7352
1105.00 501.3122
1105.10 500.8892
1105.20 500.4663
1105.30 500.0433
1105.40 499.6203
1105.50 499.1973
1105.60 498.7743
1105.70 498.3514
1105.80 497.9284
1105.90 497.6467
1106.00 497.6946
1106.10 497.7425
1106.20 497.7904
1106.30 497.8383
1106.40 497.8863
1106.50 497.9342
1106.60 497.9821
1106.70 498.03
1106.80 498.0779
1106.90 498.1259
1107.00 498.1738
1107.10 498.2217
1107.20 498.2696
1107.30 498.3175
1107.40 498.3654
1107.50 498.4134
1107.60 498.4613
1107.70 498.5092
1107.80 498.5571
1107.90 498.605
1108.00 498.6529
1108.10 498.7009
1108.20 498.7488
1108.30 498.7967
1108.40 498.8446
1108.50 498.8925
1108.60 498.9405
1108.70 498.9884
1108.80 499.0363
1108.90 499.0842
1109.00 499.1321
1109.10 499.18
1109.20 499.228
1109.30 499.2759
1109.40 499.3238
1109.50 499.3717
1109.60 499.4196
1109.70 499.4676
1109.80 499.5155
1109.90 499.5634
1110.00 499.6113
1110.10 499.5124
1110.20 499.3768
1110.30 499.2412
1110.40 499.1055
1110.50 498.9699
1110.60 498.8343
1110.70 498.6987
1110.80 498.5631
1110.90 498.4275
1111.00 498.2918
1111.10 498.1562
1111.20 498.0206
1111.30 497.885
1111.40 497.7494
1111.50 497.6138
1111.60 497.4781
1111.70 497.3425
1111.80 497.2069
1111.90 497.0713
1112.00 496.9357
1112.10 496.8001
1112.20 496.6644
1112.30 496.5288
1112.40 496.3932
1112.50 496.2576
1112.60 496.122
1112.70 495.9864
1112.80 495.8507
1112.90 495.7151
1113.00 495.5795
1113.10 495.4439
1113.20 495.3083
1113.30 495.1726
1113.40 495.037
1113.50 494.9014
1113.60 494.7658
1113.70 494.6302
1113.80 494.4946
1113.90 494.3589
1114.00 494.2233
1114.10 494.0877
1114.20 494.0567
1114.30 494.27
1114.40 494.4832
1114.50 494.6964
1114.60 494.9096
1114.70 495.1229
1114.80 495.3361
1114.90 495.5493
1115.00 495.7625
1115.10 495.9758
1115.20 496.189
1115.30 496.4022
1115.40 496.6154
1115.50 496.8286
1115.60 497.0419
1115.70 497.2551
1115.80 497.4683
1115.90 497.6815
1116.00 497.8948
1116.10 498.108
1116.20 498.3212
1116.30 498.5344
1116.40 498.7476
1116.50 498.9609
1116.60 499.1741
1116.70 499.3873
1116.80 499.6005
1116.90 499.8138
1117.00 500.027
1117.10 500.2402
1117.20 500.4534
1117.30 500.6667
1117.40 500.8799
1117.50 501.0931
1117.60 501.3063
1117.70 501.5195
1117.80 501.7328
1117.90 501.946
1118.00 502.1592
1118.10 502.3724
1118.20 502.5857
1118.30 502.7989
1118.40 503.0085
1118.50 503.2157
1118.60 503.4228
1118.70 503.63
1118.80 503.8372
1118.90 504.0444
1119.00 504.2515
1119.10 504.4587
1119.20 504.6659
1119.30 504.8731
1119.40 505.0802
1119.50 505.2874
1119.60 505.4946
1119.70 505.7018
1119.80 505.909
1119.90 506.1161
1120.00 506.3233
1120.10 506.5305
1120.20 506.7377
1120.30 506.9448
1120.40 507.152
1120.50 507.3592
1120.60 507.5664
1120.70 507.7735
1120.80 507.9807
1120.90 508.1879
1121.00 508.3951
1121.10 508.6023
1121.20 508.8094
1121.30 509.0166
1121.40 509.2238
1121.50 509.431
1121.60 509.6381
1121.70 509.8453
1121.80 510.0525
1121.90 510.2597
1122.00 510.4668
1122.10 510.674
1122.20 510.8812
1122.30 511.0884
1122.40 511.2956
1122.50 511.5027
1122.60 511.5182
1122.70 511.5123
1122.80 511.5065
1122.90 511.5007
1123.00 511.4948
1123.10 511.489
1123.20 511.4831
1123.30 511.4773
1123.40 511.4714
1123.50 511.4656
1123.60 511.4597
1123.70 511.4539
1123.80 511.448
1123.90 511.4422
1124.00 511.4364
1124.10 511.4305
1124.20 511.4247
1124.30 511.4188
1124.40 511.413
1124.50 511.4071
1124.60 511.4013
1124.70 511.3954
1124.80 511.3896
1124.90 511.3837
1125.00 511.3779
1125.10 511.3721
1125.20 511.3662
1125.30 511.3604
1125.40 511.3545
1125.50 511.3487
1125.60 511.3428
1125.70 511.337
1125.80 511.3311
1125.90 511.3253
1126.00 511.3195
1126.10 511.3136
1126.20 511.3078
1126.30 511.3019
1126.40 511.2961
1126.50 511.2902
1126.60 511.2844
1126.70 511.2377
1126.80 511.028
1126.90 510.8182
1127.00 510.6084
1127.10 510.3986
1127.20 510.1888
1127.30 509.9791
1127.40 509.7693
1127.50 509.5595
1127.60 509.3497
1127.70 509.1399
1127.80 508.9302
1127.90 508.7204
1128.00 508.5106
1128.10 508.3008
1128.20 508.091
1128.30 507.8813
1128.40 507.6715
1128.50 507.4617
1128.60 507.2519
1128.70 507.0421
1128.80 506.8324
1128.90 506.6226
1129.00 506.4128
1129.10 506.203
1129.20 505.9933
1129.30 505.7835
1129.40 505.5737
1129.50 505.3639
1129.60 505.1541
1129.70 504.9444
1129.80 504.7346
1129.90 504.5248
1130.00 504.315
1130.10 504.1052
1130.20 503.8955
1130.30 503.6857
1130.40 503.4759
1130.50 503.2661
1130.60 503.0563
1130.70 502.8466
1130.80 502.6368
1130.90 502.3268
1131.00 501.783
1131.10 501.2393
1131.20 500.6955
1131.30 500.1517
1131.40 499.608
1131.50 499.0642
1131.60 498.5204
1131.70 497.9767
1131.80 497.4329
1131.90 496.8891
1132.00 496.3454
1132.10 495.8016
1132.20 495.2578
1132.30 494.7141
1132.40 494.1703
1132.50 493.6265
1132.60 493.0828
1132.70 492.539
1132.80 491.9952
1132.90 491.4515
1133.00 490.9077
1133.10 490.3639
1133.20 489.8202
1133.30 489.2764
1133.40 488.7326
1133.50 488.1889
1133.60 487.6451
1133.70 487.1013
1133.80 486.5576
1133.90 486.0138
1134.00 485.47
1134.10 484.9263
1134.20 484.3825
1134.30 483.8387
1134.40 483.295
1134.50 482.7512
1134.60 482.2074
1134.70 481.6637
1134.80 481.1199
1134.90 480.5761
1135.00 480.0324
1135.10 479.6698
1135.20 479.579
1135.30 479.4882
1135.40 479.3974
1135.50 479.3066
1135.60 479.2158
1135.70 479.1249
1135.80 479.0341
1135.90 478.9433
1136.00 478.8525
1136.10 478.7617
1136.20 478.6709
1136.30 478.5801
1136.40 478.4893
1136.50 478.3985
1136.60 478.3077
1136.70 478.2169
1136.80 478.1261
1136.90 478.0353
1137.00 477.9445
1137.10 477.8537
1137.20 477.7629
1137.30 477.6721
1137.40 477.5813
1137.50 477.4905
1137.60 477.3997
1137.70 477.3088
1137.80 477.218
1137.90 477.1272
1138.00 477.0364
1138.10 476.9456
1138.20 476.8548
1138.30 476.764
1138.40 476.6732
1138.50 476.5824
1138.60 476.4916
1138.70 476.4008
1138.80 476.31
1138.90 476.2192
1139.00 476.1284
1139.10 476.0376
1139.20 475.9468
1139.30 476.0111
1139.40 476.3083
1139.50 476.6054
1139.60 476.9025
1139.70 477.1996
1139.80 477.4968
1139.90 477.7939
1140.00 478.091
1140.10 478.3882
1140.20 478.6853
1140.30 478.9824
1140.40 479.2795
1140.50 479.5767
1140.60 479.8738
1140.70 480.1709
1140.80 480.468
1140.90 480.7652
1141.00 481.0623
1141.10 481.3594
1141.20 481.6566
1141.30 481.9537
1141.40 482.2508
1141.50 482.5479
1141.60 482.8451
1141.70 483.1422
1141.80 483.4393
1141.90 483.7364
1142.00 484.0336
1142.10 484.3307
1142.20 484.6278
1142.30 484.9249
1142.40 485.2221
1142.50 485.5192
1142.60 485.8163
1142.70 486.1135
1142.80 486.4106
1142.90 486.7077
1143.00 487.0048
1143.10 487.302
1143.20 487.5991
1143.30 487.8962
1143.40 488.1933
1143.50 488.6676
1143.60 489.555
1143.70 490.4425
1143.80 491.3299
1143.90 492.2174
1144.00 493.1048
1144.10 493.9923
1144.20 494.8798
1144.30 495.7672
1144.40 496.6547
1144.50 497.5421
1144.60 498.4296
1144.70 499.317
1144.80 500.2045
1144.90 501.0919
1145.00 501.9794
1145.10 502.8668
1145.20 503.7543
1145.30 504.6418
1145.40 505.5292
1145.50 506.4167
1145.60 507.3041
1145.70 508.1916
1145.80 509.079
1145.90 509.9665
1146.00 510.8539
1146.10 511.7414
1146.20 512.6289
1146.30 513.5163
1146.40 514.4038
1146.50 515.2912
1146.60 516.1787
1146.70 517.0661
1146.80 517.9536
1146.90 518.841
1147.00 519.7285
1147.10 520.6159
1147.20 521.5034
1147.30 522.3909
1147.40 523.2783
1147.50 524.1658
1147.60 525.0532
1147.70 525.8856
1147.80 526.4976
1147.90 527.1096
1148.00 527.7215
1148.10 528.3335
1148.20 528.9455
1148.30 529.5575
1148.40 530.1695
1148.50 530.7815
1148.60 531.3935
1148.70 532.0055
1148.80 532.6174
1148.90 533.2294
1149.00 533.8414
1149.10 534.4534
1149.20 535.0654
1149.30 535.6774
1149.40 536.2894
1149.50 536.9014
1149.60 537.5133
1149.70 538.1253
1149.80 538.7373
1149.90 539.3493
1150.00 539.9613
1150.10 540.5733
1150.20 541.1853
1150.30 541.7973
1150.40 542.4092
1150.50 543.0212
1150.60 543.6332
1150.70 544.2452
1150.80 544.8572
1150.90 545.4692
1151.00 546.0812
1151.10 546.6932
1151.20 547.3051
1151.30 547.9171
1151.40 548.5291
1151.50 549.1411
1151.60 549.7531
1151.70 550.3651
1151.80 550.9771
1151.90 551.5891
1152.00 551.5294
1152.10 551.4698
1152.20 551.4102
1152.30 551.3506
1152.40 551.291
1152.50 551.2314
1152.60 551.1718
1152.70 551.1122
1152.80 551.0526
1152.90 550.993
1153.00 550.9334
1153.10 550.8738
1153.20 550.8142
1153.30 550.7546
1153.40 550.695
1153.50 550.6354
1153.60 550.5758
1153.70 550.5162
1153.80 550.4566
1153.90 550.397
1154.00 550.3374
1154.10 550.2778
1154.20 550.2181
1154.30 550.1585
1154.40 550.0989
1154.50 550.0393
1154.60 549.9797
1154.70 549.9201
1154.80 549.8605
1154.90 549.8009
1155.00 549.7413
1155.10 549.6817
1155.20 549.6221
1155.30 549.5625
1155.40 549.5029
1155.50 549.4433
1155.60 549.3837
1155.70 549.3241
1155.80 549.2645
1155.90 549.2049
1156.00 549.1453
1156.10 549.0857
1156.20 548.8005
1156.30 548.459
1156.40 548.1174
1156.50 547.7759
1156.60 547.4343
1156.70 547.0928
1156.80 546.7512
1156.90 546.4097
1157.00 546.0681
1157.10 545.7266
1157.20 545.385
1157.30 545.0435
1157.40 544.7019
1157.50 544.3604
1157.60 544.0188
1157.70 543.6773
1157.80 543.3357
1157.90 542.9942
1158.00 542.6526
1158.10 542.3111
1158.20 541.9695
1158.30 541.628
1158.40 541.2865
1158.50 540.9449
1158.60 540.6034
1158.70 540.2618
1158.80 539.9203
1158.90 539.5787
1159.00 539.2372
1159.10 538.8956
1159.20 538.5541
1159.30 538.2125
1159.40 537.871
1159.50 537.5294
1159.60 537.1879
1159.70 536.8463
1159.80 536.5048
1159.90 536.1632
1160.00 535.8217
1160.10 535.4801
1160.20 535.1386
1160.30 534.797
1160.40 534.4402
1160.50 534.0679
1160.60 533.6957
1160.70 533.3235
1160.80 532.9512
1160.90 532.579
1161.00 532.2068
1161.10 531.8345
1161.20 531.4623
1161.30 531.0901
1161.40 530.7178
1161.50 530.3456
1161.60 529.9734
1161.70 529.6011
1161.80 529.2289
1161.90 528.8567
1162.00 528.4845
1162.10 528.1122
1162.20 527.74
1162.30 527.3678
1162.40 526.9955
1162.50 526.6233
1162.60 526.2511
1162.70 525.8788
1162.80 525.5066
1162.90 525.1344
1163.00 524.7621
1163.10 524.3899
1163.20 524.0177
1163.30 523.6454
1163.40 523.2732
1163.50 522.901
1163.60 522.5287
1163.70 522.1565
1163.80 521.7843
1163.90 521.4121
1164.00 521.0398
1164.10 520.6676
1164.20 520.2954
1164.30 519.9231
1164.40 519.5509
1164.50 519.1787
1164.60 518.8137
1164.70 518.514
1164.80 518.2143
1164.90 517.9146
1165.00 517.6149
1165.10 517.3152
1165.20 517.0155
1165.30 516.7158
1165.40 516.4161
1165.50 516.1164
1165.60 515.8167
1165.70 515.517
1165.80 515.2173
1165.90 514.9176
1166.00 514.6179
1166.10 514.3182
1166.20 514.0185
1166.30 513.7188
1166.40 513.4191
1166.50 513.1195
1166.60 512.8198
1166.70 512.5201
1166.80 512.2204
1166.90 511.9207
1167.00 511.621
1167.10 511.3213
1167.20 511.0216
1167.30 510.7219
1167.40 510.4222
1167.50 510.1225
1167.60 509.8228
1167.70 509.5231
1167.80 509.2234
1167.90 508.9237
1168.00 508.624
1168.10 508.3243
1168.20 508.0246
1168.30 507.7249
1168.40 507.4252
1168.50 507.1255
1168.60 506.8258
1168.70 506.5261
1168.80 506.2264
1168.90 505.606
1169.00 504.848
1169.10 504.0901
1169.20 503.3321
1169.30 502.5742
1169.40 501.8162
1169.50 501.0583
1169.60 500.3003
1169.70 499.5424
1169.80 498.7844
1169.90 498.0265
1170.00 497.2685
1170.10 496.5106
1170.20 495.7526
1170.30 494.9947
1170.40 494.2367
1170.50 493.4788
1170.60 492.7208
1170.70 491.9629
1170.80 491.2049
1170.90 490.447
1171.00 489.689
1171.10 488.9311
1171.20 488.1731
1171.30 487.4152
1171.40 486.6572
1171.50 485.8993
1171.60 485.1413
1171.70 484.3834
1171.80 483.6254
1171.90 482.8675
1172.00 482.1095
1172.10 481.3516
1172.20 480.5936
1172.30 479.8357
1172.40 479.0777
1172.50 478.3198
1172.60 477.5618
1172.70 476.8039
1172.80 476.0459
1172.90 475.288
1173.00 474.53
1173.10 473.9588
1173.20 474.1344
1173.30 474.31
1173.40 474.4856
1173.50 474.6612
1173.60 474.8368
1173.70 475.0125
1173.80 475.1881
1173.90 475.3637
1174.00 475.5393
1174.10 475.7149
1174.20 475.8905
1174.30 476.0661
1174.40 476.2418
1174.50 476.4174
1174.60 476.593
1174.70 476.7686
1174.80 476.9442
1174.90 477.1198
1175.00 477.2954
1175.10 477.4711
1175.20 477.6467
1175.30 477.8223
1175.40 477.9979
1175.50 478.1735
1175.60 478.3491
1175.70 478.5247
1175.80 478.7004
1175.90 478.876
1176.00 479.0516
1176.10 479.2272
1176.20 479.4028
1176.30 479.5784
1176.40 479.754
1176.50 479.9297
1176.60 480.1053
1176.70 480.2809
1176.80 480.4565
1176.90 480.6321
1177.00 480.8077
1177.10 480.9834
1177.20 481.159
1177.30 481.3346
1177.40 481.5811
1177.50 481.8579
1177.60 482.1347
1177.70 482.4116
1177.80 482.6884
1177.90 482.9652
1178.00 483.2421
1178.10 483.5189
1178.20 483.7957
1178.30 484.0726
1178.40 484.3494
1178.50 484.6263
1178.60 484.9031
1178.70 485.1799
1178.80 485.4568
1178.90 485.7336
1179.00 486.0104
1179.10 486.2873
1179.20 486.5641
1179.30 486.8409
1179.40 487.1178
1179.50 487.3946
1179.60 487.6715
1179.70 487.9483
1179.80 488.2251
1179.90 488.502
1180.00 488.7788
1180.10 489.0556
1180.20 489.3325
1180.30 489.6093
1180.40 489.8861
1180.50 490.163
1180.60 490.4398
1180.70 490.7167
1180.80 490.9935
1180.90 491.2703
1181.00 491.5472
1181.10 491.824
1181.20 492.1008
1181.30 492.3777
1181.40 492.6545
1181.50 492.9313
1181.60 493.2216
1181.70 493.6328
1181.80 494.044
1181.90 494.4552
1182.00 494.8664
1182.10 495.2775
1182.20 495.6887
1182.30 496.0999
1182.40 496.5111
1182.50 496.9223
1182.60 497.3335
1182.70 497.7447
1182.80 498.1558
1182.90 498.567
1183.00 498.9782
1183.10 499.3894
1183.20 499.8006
1183.30 500.2118
1183.40 500.623
1183.50 501.0341
1183.60 501.4453
1183.70 501.8565
1183.80 502.2677
1183.90 502.6789
1184.00 503.0901
1184.10 503.5013
1184.20 503.9125
1184.30 504.3236
1184.40 504.7348
1184.50 505.146
1184.60 505.5572
1184.70 505.9684
1184.80 506.3796
1184.90 506.7908
1185.00 507.2019
1185.10 507.6131
1185.20 508.0243
1185.30 508.4355
1185.40 508.8467
1185.50 509.2579
1185.60 509.6691
1185.70 510.0802
1185.80 510.4914
1185.90 510.6067
1186.00 510.4261
1186.10 510.2455
1186.20 510.0648
1186.30 509.8842
1186.40 509.7036
1186.50 509.523
1186.60 509.3424
1186.70 509.1617
1186.80 508.9811
1186.90 508.8005
1187.00 508.6199
1187.10 508.4393
1187.20 508.2586
1187.30 508.078
1187.40 507.8974
1187.50 507.7168
1187.60 507.5362
1187.70 507.3555
1187.80 507.1749
1187.90 506.9943
1188.00 506.8137
1188.10 506.633
1188.20 506.4524
1188.30 506.2718
1188.40 506.0912
1188.50 505.9106
1188.60 505.7299
1188.70 505.5493
1188.80 505.3687
1188.90 505.1881
1189.00 505.0075
1189.10 504.8268
1189.20 504.6462
1189.30 504.4656
1189.40 504.285
1189.50 504.1044
1189.60 503.9237
1189.70 503.7431
1189.80 503.5625
1189.90 503.3819
1190.00 503.2012
1190.10 503.0206
1190.20 502.5347
1190.30 501.9724
1190.40 501.4102
1190.50 500.8479
1190.60 500.2857
1190.70 499.7234
1190.80 499.1612
1190.90 498.5989
1191.00 498.0366
1191.10 497.4744
1191.20 496.9121
1191.30 496.3499
1191.40 495.7876
1191.50 495.2254
1191.60 494.6631
1191.70 494.1008
1191.80 493.5386
1191.90 492.9763
1192.00 492.4141
1192.10 491.8518
1192.20 491.2896
1192.30 490.7273
1192.40 490.165
1192.50 489.6028
1192.60 489.0405
1192.70 488.4783
1192.80 487.916
1192.90 487.3538
1193.00 486.7915
1193.10 486.2293
1193.20 485.667
1193.30 485.1047
1193.40 484.5425
1193.50 483.9802
1193.60 483.418
1193.70 482.8557
1193.80 482.2935
1193.90 481.7312
1194.00 481.1689
1194.10 480.6067
1194.20 480.0444
1194.30 479.4822
1194.40 478.9375
1194.50 478.5506
1194.60 478.1638
1194.70 477.777
1194.80 477.3902
1194.90 477.0034
1195.00 476.6166
1195.10 476.2297
1195.20 475.8429
1195.30 475.4561
1195.40 475.0693
1195.50 474.6825
1195.60 474.2957
1195.70 473.9088
1195.80 473.522
1195.90 473.1352
1196.00 472.7484
1196.10 472.3616
1196.20 471.9748
1196.30 471.5879
1196.40 471.2011
1196.50 470.8143
1196.60 470.4275
1196.70 470.0407
1196.80 469.6539
1196.90 469.267
1197.00 468.8802
1197.10 468.4934
1197.20 468.1066
1197.30 467.7198
1197.40 467.3329
1197.50 466.9461
1197.60 466.5593
1197.70 466.1725
1197.80 465.7857
1197.90 465.3989
1198.00 465.012
1198.10 464.6252
1198.20 464.2384
1198.30 463.8516
1198.40 463.4648
1198.50 463.078
1198.60 462.6911
1198.70 462.4448
1198.80 462.4091
1198.90 462.3735
1199.00 462.3378
1199.10 462.3022
1199.20 462.2665
1199.30 462.2308
1199.40 462.1952
1199.50 462.1595
1199.60 462.1239
1199.70 462.0882
1199.80 462.0526
1199.90 462.0169
1200.00 461.9812
1200.10 461.9456
1200.20 461.9099
1200.30 461.8743
1200.40 461.8386
1200.50 461.8029
1200.60 461.7673
1200.70 461.7316
1200.80 461.696
1200.90 461.6603
1201.00 461.6247
1201.10 461.589
1201.20 461.5533
1201.30 461.5177
1201.40 461.482
1201.50 461.4464
1201.60 461.4107
1201.70 461.375
1201.80 461.3394
1201.90 461.3037
1202.00 461.2681
1202.10 461.2324
1202.20 461.1968
1202.30 461.1611
1202.40 461.1254
1202.50 461.0898
1202.60 461.0541
1202.70 461.0185
1202.80 460.9828
1202.90 460.9472
1203.00 461.213
1203.10 461.68
1203.20 462.1469
1203.30 462.6138
1203.40 463.0807
1203.50 463.5476
1203.60 464.0146
1203.70 464.4815
1203.80 464.9484
1203.90 465.4153
1204.00 465.8823
1204.10 466.3492
1204.20 466.8161
1204.30 467.283
1204.40 467.7499
1204.50 468.2169
1204.60 468.6838
1204.70 469.1507
1204.80 469.6176
1204.90 470.0846
1205.00 470.5515
1205.10 471.0184
1205.20 471.4853
1205.30 471.9522
1205.40 472.4192
1205.50 472.8861
1205.60 473.353
1205.70 473.8199
1205.80 474.2868
1205.90 474.7538
1206.00 475.2207
1206.10 475.6876
1206.20 476.1545
1206.30 476.6215
1206.40 477.0884
1206.50 477.5553
1206.60 478.0222
1206.70 478.4891
1206.80 478.9561
1206.90 479.423
1207.00 479.8899
1207.10 480.3568
1207.20 480.8237
1207.30 481.5403
1207.40 482.3192
1207.50 483.0981
1207.60 483.877
1207.70 484.6559
1207.80 485.4348
1207.90 486.2137
1208.00 486.9926
1208.10 487.7715
1208.20 488.5504
1208.30 489.3293
1208.40 490.1082
1208.50 490.8871
1208.60 491.666
1208.70 492.4449
1208.80 493.2238
1208.90 494.0027
1209.00 494.7816
1209.10 495.5605
1209.20 496.3394
1209.30 497.1183
1209.40 497.8972
1209.50 498.6761
1209.60 499.455
1209.70 500.2339
1209.80 501.0128
1209.90 501.7917
1210.00 502.5706
1210.10 503.3495
1210.20 504.1284
1210.30 504.9073
1210.40 505.6862
1210.50 506.4651
1210.60 507.244
1210.70 508.0229
1210.80 508.8018
1210.90 509.5807
1211.00 510.3596
1211.10 511.1385
1211.20 511.9174
1211.30 512.6963
1211.40 513.4752
1211.50 514.2541
1211.60 514.5412
1211.70 514.7735
1211.80 515.0059
1211.90 515.2382
1212.00 515.4706
1212.10 515.7029
1212.20 515.9353
1212.30 516.1676
1212.40 516.4
1212.50 516.6323
1212.60 516.8647
1212.70 517.0971
1212.80 517.3294
1212.90 517.5618
1213.00 517.7941
1213.10 518.0265
1213.20 518.2588
1213.30 518.4912
1213.40 518.7235
1213.50 518.9559
1213.60 519.1882
1213.70 519.4206
1213.80 519.653
1213.90 519.8853
1214.00 520.1177
1214.10 520.35
1214.20 520.5824
1214.30 520.8147
1214.40 521.0471
1214.50 521.2794
1214.60 521.5118
1214.70 521.7441
1214.80 521.9765
1214.90 522.2089
1215.00 522.4412
1215.10 522.6736
1215.20 522.9059
1215.30 523.1383
1215.40 523.3706
1215.50 523.603
1215.60 523.8353
1215.70 524.0677
1215.80 524.3
1215.90 525.0335
1216.00 525.7669
1216.10 526.5003
1216.20 527.2337
1216.30 527.9671
1216.40 528.7005
1216.50 529.434
1216.60 530.1674
1216.70 530.9008
1216.80 531.6342
1216.90 532.3676
1217.00 533.1011
1217.10 533.8345
1217.20 534.5679
1217.30 535.3013
1217.40 536.0347
1217.50 536.7681
1217.60 537.5016
1217.70 538.235
1217.80 538.9684
1217.90 539.7018
1218.00 540.4352
1218.10 541.1687
1218.20 541.9021
1218.30 542.6355
1218.40 543.3689
1218.50 544.1023
1218.60 544.8357
1218.70 545.5692
1218.80 546.3026
1218.90 547.036
1219.00 547.7694
1219.10 548.5028
1219.20 549.2362
1219.30 549.9697
1219.40 550.7031
1219.50 551.4365
1219.60 552.1699
1219.70 552.9033
1219.80 553.6368
1219.90 554.3702
1220.00 555.1036
1220.10 555.7955
1220.20 556.1134
1220.30 556.4313
1220.40 556.7492
1220.50 557.0672
1220.60 557.3851
1220.70 557.703
1220.80 558.0209
1220.90 558.3389
1221.00 558.6568
1221.10 558.9747
1221.20 559.2926
1221.30 559.6106
1221.40 559.9285
1221.50 560.2464
1221.60 560.5644
1221.70 560.8823
1221.80 561.2002
1221.90 561.5181
1222.00 561.8361
1222.10 562.154
1222.20 562.4719
1222.30 562.7898
1222.40 563.1078
1222.50 563.4257
1222.60 563.7436
1222.70 564.0615
1222.80 564.3795
1222.90 564.6974
1223.00 565.0153
1223.10 565.3332
1223.20 565.6512
1223.30 565.9691
1223.40 566.287
1223.50 566.605
1223.60 566.9229
1223.70 567.2408
1223.80 567.5587
1223.90 567.8767
1224.00 568.1946
1224.10 568.5125
1224.20 568.8304
1224.30 569.1484
1224.40 569.4247
1224.50 569.5349
1224.60 569.6451
1224.70 569.7553
1224.80 569.8654
1224.90 569.9756
1225.00 570.0858
1225.10 570.1959
1225.20 570.3061
1225.30 570.4163
1225.40 570.5264
1225.50 570.6366
1225.60 570.7468
1225.70 570.857
1225.80 570.9671
1225.90 571.0773
1226.00 571.1875
1226.10 571.2976
1226.20 571.4078
1226.30 571.518
1226.40 571.6282
1226.50 571.7383
1226.60 571.8485
1226.70 571.9587
1226.80 572.0688
1226.90 572.179
1227.00 572.2892
1227.10 572.3994
1227.20 572.5095
1227.30 572.6197
1227.40 572.7299
1227.50 572.84
1227.60 572.9502
1227.70 573.0604
1227.80 573.1706
1227.90 573.2807
1228.00 573.3909
1228.10 573.5011
1228.20 573.6112
1228.30 573.7214
1228.40 573.8316
1228.50 573.9418
1228.60 574.0519
1228.70 574.0646
1228.80 573.6872
1228.90 573.3098
1229.00 572.9324
1229.10 572.555
1229.20 572.1776
1229.30 571.8003
1229.40 571.4229
1229.50 571.0455
1229.60 570.6681
1229.70 570.2907
1229.80 569.9133
1229.90 569.5359
1230.00 569.1585
1230.10 568.7812
1230.20 568.4038
1230.30 568.0264
1230.40 567.649
1230.50 567.2716
1230.60 566.8942
1230.70 566.5168
1230.80 566.1394
1230.90 565.7621
1231.00 565.3847
1231.10 565.0073
1231.20 564.6299
1231.30 564.2525
1231.40 563.8751
1231.50 563.4977
1231.60 563.1203
1231.70 562.743
1231.80 562.3656
1231.90 561.9882
1232.00 561.6108
1232.10 561.2334
1232.20 560.856
1232.30 560.4786
1232.40 560.1012
1232.50 559.7239
1232.60 559.3465
1232.70 558.9691
1232.80 558.5917
1232.90 558.2143
1233.00 557.7863
1233.10 557.156
1233.20 556.5256
1233.30 555.8953
1233.40 555.2649
1233.50 554.6346
1233.60 554.0042
1233.70 553.3739
1233.80 552.7435
1233.90 552.1132
1234.00 551.4828
1234.10 550.8525
1234.20 550.2221
1234.30 549.5918
1234.40 548.9614
1234.50 548.3311
1234.60 547.7007
1234.70 547.0704
1234.80 546.44
1234.90 545.8097
1235.00 545.1793
1235.10 544.549
1235.20 543.9186
1235.30 543.2883
1235.40 542.6579
1235.50 542.0276
1235.60 541.3972
1235.70 540.7669
1235.80 540.1365
1235.90 539.5062
1236.00 538.8758
1236.10 538.2455
1236.20 537.6151
1236.30 536.9848
1236.40 536.3544
1236.50 535.7241
1236.60 535.0937
1236.70 534.4634
1236.80 533.833
1236.90 533.2026
1237.00 532.5723
1237.10 531.9419
1237.20 531.3116
1237.30 530.7397
1237.40 530.4019
1237.50 530.064
1237.60 529.7261
1237.70 529.3882
1237.80 529.0503
1237.90 528.7125
1238.00 528.3746
1238.10 528.0367
1238.20 527.6988
1238.30 527.361
1238.40 527.0231
1238.50 526.6852
1238.60 526.3473
1238.70 526.0094
1238.80 525.6716
1238.90 525.3337
1239.00 524.9958
1239.10 524.6579
1239.20 524.32
1239.30 523.9822
1239.40 523.6443
1239.50 523.3064
1239.60 522.9685
1239.70 522.6306
1239.80 522.2928
1239.90 521.9549
1240.00 521.617
1240.10 521.2791
1240.20 520.9413
1240.30 520.6034
1240.40 520.2655
1240.50 519.9276
1240.60 519.5897
1240.70 519.2519
1240.80 518.914
1240.90 518.5761
1241.00 518.2382
1241.10 517.9003
1241.20 517.5625
1241.30 517.2246
1241.40 516.8867
1241.50 516.5488
1241.60 516.2173
1241.70 515.9434
1241.80 515.6694
1241.90 515.3954
1242.00 515.1215
1242.10 514.8475
1242.20 514.5735
1242.30 514.2996
1242.40 514.0256
1242.50 513.7516
1242.60 513.4777
1242.70 513.2037
1242.80 512.9297
1242.90 512.6558
1243.00 512.3818
1243.10 512.1078
1243.20 511.8338
1243.30 511.5599
1243.40 511.2859
1243.50 511.0119
1243.60 510.738
1243.70 510.464
1243.80 510.19
1243.90 509.9161
1244.00 509.6421
1244.10 509.3681
1244.20 509.0942
1244.30 508.8202
1244.40 508.5462
1244.50 508.2723
1244.60 507.9983
1244.70 507.7243
1244.80 507.4504
1244.90 507.1764
1245.00 506.9024
1245.10 506.6285
1245.20 506.3545
1245.30 506.0805
1245.40 505.8065
1245.50 505.5326
1245.60 505.2586
1245.70 504.9846
1245.80 504.7107
1245.90 504.4367
1246.00 504.9622
1246.10 505.4877
1246.20 506.0133
1246.30 506.5388
1246.40 507.0643
1246.50 507.5898
1246.60 508.1153
1246.70 508.6409
1246.80 509.1664
1246.90 509.6919
1247.00 510.2174
1247.10 510.7429
1247.20 511.2685
1247.30 511.794
1247.40 512.3195
1247.50 512.845
1247.60 513.3705
1247.70 513.896
1247.80 514.4216
1247.90 514.9471
1248.00 515.4726
1248.10 515.9981
1248.20 516.5236
1248.30 517.0492
1248.40 517.5747
1248.50 518.1002
1248.60 518.6257
1248.70 519.1512
1248.80 519.6768
1248.90 520.2023
1249.00 520.7278
1249.10 521.2533
1249.20 521.7788
1249.30 522.3044
1249.40 522.8299
1249.50 523.3554
1249.60 523.8809
1249.70 524.4064
1249.80 524.9319
1249.90 525.4575
1250.00 525.983
1250.10 526.5085
1250.20 527.034
1250.30 527.4769
1250.40 527.9197
1250.50 528.3626
1250.60 528.8054
1250.70 529.2483
1250.80 529.6912
1250.90 530.134
1251.00 530.5769
1251.10 531.0197
1251.20 531.4626
1251.30 531.9054
1251.40 532.3483
1251.50 532.7911
1251.60 533.234
1251.70 533.6769
1251.80 534.1197
1251.90 534.5626
1252.00 535.0054
1252.10 535.4483
1252.20 535.8911
1252.30 536.334
1252.40 536.7768
1252.50 537.2197
1252.60 537.6626
1252.70 538.1054
1252.80 538.5483
1252.90 538.9911
1253.00 539.434
1253.10 539.8768
1253.20 540.3197
1253.30 540.7625
1253.40 541.2054
1253.50 541.6483
1253.60 542.0911
1253.70 542.534
1253.80 542.9768
1253.90 543.4197
1254.00 543.8625
1254.10 544.3054
1254.20 544.7482
1254.30 545.1911
1254.40 545.6339
1254.50 546.0768
1254.60 546.8046
1254.70 547.5641
1254.80 548.3236
1254.90 549.0831
1255.00 549.8426
1255.10 550.602
1255.20 551.3615
1255.30 552.121
1255.40 552.8805
1255.50 553.64
1255.60 554.3995
1255.70 555.1589
1255.80 555.9184
1255.90 556.6779
1256.00 557.4374
1256.10 558.1969
1256.20 558.9564
1256.30 559.7159
1256.40 560.4753
1256.50 561.2348
1256.60 561.9943
1256.70 562.7538
1256.80 563.5133
1256.90 564.2728
1257.00 565.0322
1257.10 565.7917
1257.20 566.5512
1257.30 567.3107
1257.40 568.0702
1257.50 568.8297
1257.60 569.5891
1257.70 570.3486
1257.80 571.1081
1257.90 571.8676
1258.00 572.6271
1258.10 573.3866
1258.20 574.1461
1258.30 574.9055
1258.40 575.665
1258.50 576.4245
1258.60 577.184
1258.70 577.9435
1258.80 578.703
1258.90 579.49
1259.00 580.2889
1259.10 581.0877
1259.20 581.8866
1259.30 582.6855
1259.40 583.4843
1259.50 584.2832
1259.60 585.0821
1259.70 585.8809
1259.80 586.6798
1259.90 587.4787
1260.00 588.2775
1260.10 589.0764
1260.20 589.8752
1260.30 590.6741
1260.40 591.473
1260.50 592.2718
1260.60 593.0707
1260.70 593.8696
1260.80 594.6684
1260.90 595.4673
1261.00 596.2662
1261.10 597.065
1261.20 597.8639
1261.30 598.6628
1261.40 599.4616
1261.50 600.2605
1261.60 601.0594
1261.70 601.8582
1261.80 602.6571
1261.90 603.4559
1262.00 604.2548
1262.10 605.0537
1262.20 605.8525
1262.30 606.6514
1262.40 607.4503
1262.50 608.2491
1262.60 609.048
1262.70 609.8469
1262.80 610.6457
1262.90 611.4446
1263.00 612.2435
1263.10 613.0423
1263.20 613.6449
1263.30 614.1166
1263.40 614.5882
1263.50 615.0599
1263.60 615.5316
1263.70 616.0033
1263.80 616.475
1263.90 616.9467
1264.00 617.4184
1264.10 617.89
1264.20 618.3617
1264.30 618.8334
1264.40 619.3051
1264.50 619.7768
1264.60 620.2485
1264.70 620.7201
1264.80 621.1918
1264.90 621.6635
1265.00 622.1352
1265.10 622.6069
1265.20 623.0786
1265.30 623.5503
1265.40 624.0219
1265.50 624.4936
1265.60 624.9653
1265.70 625.437
1265.80 625.9087
1265.90 626.3804
1266.00 626.852
1266.10 627.3237
1266.20 627.7954
1266.30 628.2671
1266.40 628.7388
1266.50 629.2105
1266.60 629.6822
1266.70 630.1538
1266.80 630.6255
1266.90 631.0972
1267.00 631.5689
1267.10 632.0406
1267.20 632.5123
1267.30 632.9839
1267.40 633.4556
1267.50 633.9007
1267.60 634.3192
1267.70 634.7377
1267.80 635.1561
1267.90 635.5746
1268.00 635.9931
1268.10 636.4115
1268.20 636.83
1268.30 637.2485
1268.40 637.667
1268.50 638.0854
1268.60 638.5039
1268.70 638.9224
1268.80 639.3408
1268.90 639.7593
1269.00 640.1778
1269.10 640.5963
1269.20 641.0147
1269.30 641.4332
1269.40 641.8517
1269.50 642.2701
1269.60 642.6886
1269.70 643.1071
1269.80 643.5256
1269.90 643.944
1270.00 644.3625
1270.10 644.781
1270.20 645.1994
1270.30 645.6179
1270.40 646.0364
1270.50 646.4549
1270.60 646.8733
1270.70 647.2918
1270.80 647.7103
1270.90 648.1288
1271.00 648.5472
1271.10 648.9657
1271.20 649.3842
1271.30 649.8026
1271.40 650.2211
1271.50 650.6396
1271.60 651.0581
1271.70 651.4765
1271.80 651.7788
1271.90 651.8101
1272.00 651.8414
1272.10 651.8726
1272.20 651.9039
1272.30 651.9352
1272.40 651.9664
1272.50 651.9977
1272.60 652.0289
1272.70 652.0602
1272.80 652.0915
1272.90 652.1227
1273.00 652.154
1273.10 652.1853
1273.20 652.2165
1273.30 652.2478
1273.40 652.2791
1273.50 652.3103
1273.60 652.3416
1273.70 652.3728
1273.80 652.4041
1273.90 652.4354
1274.00 652.4666
1274.10 652.4979
1274.20 652.5292
1274.30 652.5604
1274.40 652.5917
1274.50 652.623
1274.60 652.6542
1274.70 652.6855
1274.80 652.7167
1274.90 652.748
1275.00 652.7793
1275.10 652.8105
1275.20 652.8418
1275.30 652.8731
1275.40 652.9043
1275.50 652.9356
1275.60 652.9669
1275.70 652.9981
1275.80 653.0294
1275.90 653.0606
1276.00 653.0919
1276.10 653.1016
1276.20 652.9167
1276.30 652.7318
1276.40 652.5469
1276.50 652.362
1276.60 652.1771
1276.70 651.9923
1276.80 651.8074
1276.90 651.6225
1277.00 651.4376
1277.10 651.2527
1277.20 651.0678
1277.30 650.883
1277.40 650.6981
1277.50 650.5132
1277.60 650.3283
1277.70 650.1434
1277.80 649.9585
1277.90 649.7737
1278.00 649.5888
1278.10 649.4039
1278.20 649.219
1278.30 649.0341
1278.40 648.8492
1278.50 648.6644
1278.60 648.4795
1278.70 648.2946
1278.80 648.1097
1278.90 647.9248
1279.00 647.7399
1279.10 647.555
1279.20 647.3702
1279.30 647.1853
1279.40 647.0004
1279.50 646.8155
1279.60 646.6306
1279.70 646.4457
1279.80 646.2609
1279.90 646.076
1280.00 645.8911
1280.10 645.7062
1280.20 645.5213
1280.30 645.3364
1280.40 645.1516
1280.50 645.1306
1280.60 645.1096
1280.70 645.0886
1280.80 645.0676
1280.90 645.0466
1281.00 645.0256
1281.10 645.0046
1281.20 644.9836
1281.30 644.9626
1281.40 644.9416
1281.50 644.9207
1281.60 644.8997
1281.70 644.8787
1281.80 644.8577
1281.90 644.8367
1282.00 644.8157
1282.10 644.7947
1282.20 644.7737
1282.30 644.7527
1282.40 644.7317
1282.50 644.7107
1282.60 644.6898
1282.70 644.6688
1282.80 644.6478
1282.90 644.6268
1283.00 644.6058
1283.10 644.5848
1283.20 644.5638
1283.30 644.5428
1283.40 644.5218
1283.50 644.5008
1283.60 644.4798
1283.70 644.4588
1283.80 644.4379
1283.90 644.4169
1284.00 644.3959
1284.10 644.3749
1284.20 644.3539
1284.30 644.3329
1284.40 644.3119
1284.50 644.2909
1284.60 644.2699
1284.70 644.2489
1284.80 644.3548
1284.90 644.4923
1285.00 644.6299
1285.10 644.7675
1285.20 644.905
1285.30 645.0426
1285.40 645.1801
1285.50 645.3177
1285.60 645.4553
1285.70 645.5928
1285.80 645.7304
1285.90 645.8679
1286.00 646.0055
1286.10 646.1431
1286.20 646.2806
1286.30 646.4182
1286.40 646.5557
1286.50 646.6933
1286.60 646.8309
1286.70 646.9684
1286.80 647.106
1286.90 647.2435
1287.00 647.3811
1287.10 647.5187
1287.20 647.6562
1287.30 647.7938
1287.40 647.9313
1287.50 648.0689
1287.60 648.2065
1287.70 648.344
1287.80 648.4816
1287.90 648.6192
1288.00 648.7567
1288.10 648.8943
1288.20 649.0318
1288.30 649.1694
1288.40 649.307
1288.50 649.4445
1288.60 649.5821
1288.70 649.7196
1288.80 649.8572
1288.90 649.9948
1289.00 650.1323
1289.10 650.0055
1289.20 649.7023
1289.30 649.3992
1289.40 649.096
1289.50 648.7929
1289.60 648.4898
1289.70 648.1866
1289.80 647.8835
1289.90 647.5803
1290.00 647.2772
1290.10 646.9741
1290.20 646.6709
1290.30 646.3678
1290.40 646.0647
1290.50 645.7615
1290.60 645.4584
1290.70 645.1552
1290.80 644.8521
1290.90 644.549
1291.00 644.2458
1291.10 643.9427
1291.20 643.6395
1291.30 643.3364
1291.40 643.0333
1291.50 642.7301
1291.60 642.427
1291.70 642.1238
1291.80 641.8207
1291.90 641.5176
1292.00 641.2144
1292.10 640.9113
1292.20 640.6082
1292.30 640.305
1292.40 640.0019
1292.50 639.6987
1292.60 639.3956
1292.70 639.0925
1292.80 638.7893
1292.90 638.4862
1293.00 638.183
1293.10 637.8799
1293.20 637.5768
1293.30 637.2736
1293.40 637.0685
1293.50 637.0104
1293.60 636.9522
1293.70 636.8941
1293.80 636.836
1293.90 636.7778
1294.00 636.7197
1294.10 636.6615
1294.20 636.6034
1294.30 636.5453
1294.40 636.4871
1294.50 636.429
1294.60 636.3709
1294.70 636.3127
1294.80 636.2546
1294.90 636.1965
1295.00 636.1383
1295.10 636.0802
1295.20 636.0221
1295.30 635.9639
1295.40 635.9058
1295.50 635.8476
1295.60 635.7895
1295.70 635.7314
1295.80 635.6732
1295.90 635.6151
1296.00 635.557
1296.10 635.4988
1296.20 635.4407
1296.30 635.3826
1296.40 635.3244
1296.50 635.2663
1296.60 635.2082
1296.70 635.15
1296.80 635.0919
1296.90 635.0338
1297.00 634.9756
1297.10 634.9175
1297.20 634.8593
1297.30 634.8012
1297.40 634.7431
1297.50 634.6849
1297.60 634.6268
1297.70 634.5926
1297.80 634.6539
1297.90 634.7153
1298.00 634.7767
1298.10 634.8381
1298.20 634.8994
1298.30 634.9608
1298.40 635.0222
1298.50 635.0836
1298.60 635.1449
1298.70 635.2063
1298.80 635.2677
1298.90 635.3291
1299.00 635.3904
1299.10 635.4518
1299.20 635.5132
1299.30 635.5746
1299.40 635.6359
1299.50 635.6973
1299.60 635.7587
1299.70 635.8201
1299.80 635.8814
1299.90 635.9428
