# Version 2.1 - nm, norm@500 to 1, cut digits
# Wavelength(nm)  Flambda(ergs/cm^s/s/nm)
300.00 2.047993e-95
300.10 2.047993e-95
300.20 2.047993e-95
300.30 2.047993e-95
300.40 2.047993e-95
300.50 2.047993e-95
300.60 2.047993e-95
300.70 2.047993e-95
300.80 2.047993e-95
300.90 2.047993e-95
301.00 2.047993e-95
301.10 2.047993e-95
301.20 2.047993e-95
301.30 2.047993e-95
301.40 2.047993e-95
301.50 2.047993e-95
301.60 2.047993e-95
301.70 2.047993e-95
301.80 2.047993e-95
301.90 2.047993e-95
302.00 2.047993e-95
302.10 2.047993e-95
302.20 2.047993e-95
302.30 2.047993e-95
302.40 2.047993e-95
302.50 2.047993e-95
302.60 2.047993e-95
302.70 2.047993e-95
302.80 2.047993e-95
302.90 2.047993e-95
303.00 2.047993e-95
303.10 2.047993e-95
303.20 2.047993e-95
303.30 2.047993e-95
303.40 2.047993e-95
303.50 2.047993e-95
303.60 2.047993e-95
303.70 2.047993e-95
303.80 2.047993e-95
303.90 2.047993e-95
304.00 2.047993e-95
304.10 2.047993e-95
304.20 2.047993e-95
304.30 2.047993e-95
304.40 2.047993e-95
304.50 2.047993e-95
304.60 2.047993e-95
304.70 2.047993e-95
304.80 2.047993e-95
304.90 2.047993e-95
305.00 2.047993e-95
305.10 2.047993e-95
305.20 2.047993e-95
305.30 2.047993e-95
305.40 2.047993e-95
305.50 2.047993e-95
305.60 2.047993e-95
305.70 2.047993e-95
305.80 2.047993e-95
305.90 2.047993e-95
306.00 2.047993e-95
306.10 2.047993e-95
306.20 2.047993e-95
306.30 2.047993e-95
306.40 2.047993e-95
306.50 2.047993e-95
306.60 2.047993e-95
306.70 2.047993e-95
306.80 2.047993e-95
306.90 2.047993e-95
307.00 2.047993e-95
307.10 2.047993e-95
307.20 2.047993e-95
307.30 2.047993e-95
307.40 2.047993e-95
307.50 2.047993e-95
307.60 2.047993e-95
307.70 2.047993e-95
307.80 2.047993e-95
307.90 2.047993e-95
308.00 2.047993e-95
308.10 2.047993e-95
308.20 2.047993e-95
308.30 2.047993e-95
308.40 2.047993e-95
308.50 2.047993e-95
308.60 2.047993e-95
308.70 2.047993e-95
308.80 2.047993e-95
308.90 2.047993e-95
309.00 2.047993e-95
309.10 2.047993e-95
309.20 2.047993e-95
309.30 2.047993e-95
309.40 2.047993e-95
309.50 2.047993e-95
309.60 2.047993e-95
309.70 2.047993e-95
309.80 2.047993e-95
309.90 2.047993e-95
310.00 2.047993e-95
310.10 2.047993e-95
310.20 2.047993e-95
310.30 2.047993e-95
310.40 2.047993e-95
310.50 2.047993e-95
310.60 2.047993e-95
310.70 2.047993e-95
310.80 2.047993e-95
310.90 2.047993e-95
311.00 2.047993e-95
311.10 2.047993e-95
311.20 2.047993e-95
311.30 2.047993e-95
311.40 2.047993e-95
311.50 2.047993e-95
311.60 2.047993e-95
311.70 2.047993e-95
311.80 2.047993e-95
311.90 2.047993e-95
312.00 2.047993e-95
312.10 2.047993e-95
312.20 2.047993e-95
312.30 2.047993e-95
312.40 2.047993e-95
312.50 2.047993e-95
312.60 2.047993e-95
312.70 2.047993e-95
312.80 2.047993e-95
312.90 2.047993e-95
313.00 2.047993e-95
313.10 2.047993e-95
313.20 2.047993e-95
313.30 2.047993e-95
313.40 2.047993e-95
313.50 2.047993e-95
313.60 2.047993e-95
313.70 2.047993e-95
313.80 2.047993e-95
313.90 2.047993e-95
314.00 2.047993e-95
314.10 2.047993e-95
314.20 2.047993e-95
314.30 2.047993e-95
314.40 2.047993e-95
314.50 2.047993e-95
314.60 2.047993e-95
314.70 2.047993e-95
314.80 2.047993e-95
314.90 2.047993e-95
315.00 2.047993e-95
315.10 2.047993e-95
315.20 2.047993e-95
315.30 2.047993e-95
315.40 2.047993e-95
315.50 2.047993e-95
315.60 2.047993e-95
315.70 2.047993e-95
315.80 2.047993e-95
315.90 2.047993e-95
316.00 2.047993e-95
316.10 2.047993e-95
316.20 2.047993e-95
316.30 2.047993e-95
316.40 2.047993e-95
316.50 2.047993e-95
316.60 2.047993e-95
316.70 2.047993e-95
316.80 2.047993e-95
316.90 2.047993e-95
317.00 2.047993e-95
317.10 2.047993e-95
317.20 2.047993e-95
317.30 2.047993e-95
317.40 2.047993e-95
317.50 2.047993e-95
317.60 2.047993e-95
317.70 2.047993e-95
317.80 2.047993e-95
317.90 2.047993e-95
318.00 2.047993e-95
318.10 2.047993e-95
318.20 2.047993e-95
318.30 2.047993e-95
318.40 2.047993e-95
318.50 2.047993e-95
318.60 2.047993e-95
318.70 2.047993e-95
318.80 2.047993e-95
318.90 2.047993e-95
319.00 2.047993e-95
319.10 2.047993e-95
319.20 2.047993e-95
319.30 2.047993e-95
319.40 2.047993e-95
319.50 2.047993e-95
319.60 2.047993e-95
319.70 2.047993e-95
319.80 2.047993e-95
319.90 2.047993e-95
320.00 2.047993e-95
320.10 2.047993e-95
320.20 2.047993e-95
320.30 2.047993e-95
320.40 2.047993e-95
320.50 2.047993e-95
320.60 2.047993e-95
320.70 2.047993e-95
320.80 2.047993e-95
320.90 2.047993e-95
321.00 2.047993e-95
321.10 2.047993e-95
321.20 2.047993e-95
321.30 2.047993e-95
321.40 2.047993e-95
321.50 2.047993e-95
321.60 2.047993e-95
321.70 2.047993e-95
321.80 2.047993e-95
321.90 2.047993e-95
322.00 2.047993e-95
322.10 2.047993e-95
322.20 2.047993e-95
322.30 2.047993e-95
322.40 2.047993e-95
322.50 2.047993e-95
322.60 2.047993e-95
322.70 2.047993e-95
322.80 2.047993e-95
322.90 2.047993e-95
323.00 2.047993e-95
323.10 2.047993e-95
323.20 2.047993e-95
323.30 2.047993e-95
323.40 2.047993e-95
323.50 2.047993e-95
323.60 2.047993e-95
323.70 2.047993e-95
323.80 2.047993e-95
323.90 2.047993e-95
324.00 2.047993e-95
324.10 2.047993e-95
324.20 2.047993e-95
324.30 2.047993e-95
324.40 2.047993e-95
324.50 2.047993e-95
324.60 2.047993e-95
324.70 2.047993e-95
324.80 2.047993e-95
324.90 2.047993e-95
325.00 2.047993e-95
325.10 2.047993e-95
325.20 2.047993e-95
325.30 2.047993e-95
325.40 2.047993e-95
325.50 2.047993e-95
325.60 2.047993e-95
325.70 2.047993e-95
325.80 2.047993e-95
325.90 2.047993e-95
326.00 2.047993e-95
326.10 2.047993e-95
326.20 2.047993e-95
326.30 2.047993e-95
326.40 2.047993e-95
326.50 2.047993e-95
326.60 2.047993e-95
326.70 2.047993e-95
326.80 2.047993e-95
326.90 2.047993e-95
327.00 2.047993e-95
327.10 2.047993e-95
327.20 2.047993e-95
327.30 2.047993e-95
327.40 2.047993e-95
327.50 2.047993e-95
327.60 2.047993e-95
327.70 2.047993e-95
327.80 2.047993e-95
327.90 2.047993e-95
328.00 2.047993e-95
328.10 2.047993e-95
328.20 2.047993e-95
328.30 2.047993e-95
328.40 2.047993e-95
328.50 2.047993e-95
328.60 2.047993e-95
328.70 2.047993e-95
328.80 2.047993e-95
328.90 2.047993e-95
329.00 2.047993e-95
329.10 2.047993e-95
329.20 2.047993e-95
329.30 2.047993e-95
329.40 2.047993e-95
329.50 2.047993e-95
329.60 2.047993e-95
329.70 2.047993e-95
329.80 2.047993e-95
329.90 2.047993e-95
330.00 2.047993e-95
330.10 2.047993e-95
330.20 2.047993e-95
330.30 2.047993e-95
330.40 2.047993e-95
330.50 2.047993e-95
330.60 2.047993e-95
330.70 2.047993e-95
330.80 2.047993e-95
330.90 2.047993e-95
331.00 2.047993e-95
331.10 2.047993e-95
331.20 2.047993e-95
331.30 2.047993e-95
331.40 2.047993e-95
331.50 2.047993e-95
331.60 2.047993e-95
331.70 2.047993e-95
331.80 2.047993e-95
331.90 2.047993e-95
332.00 2.047993e-95
332.10 2.047993e-95
332.20 2.047993e-95
332.30 2.047993e-95
332.40 2.047993e-95
332.50 2.047993e-95
332.60 2.047993e-95
332.70 2.047993e-95
332.80 2.047993e-95
332.90 2.047993e-95
333.00 2.047993e-95
333.10 2.047993e-95
333.20 2.047993e-95
333.30 2.047993e-95
333.40 2.047993e-95
333.50 2.047993e-95
333.60 2.047993e-95
333.70 2.047993e-95
333.80 2.047993e-95
333.90 2.047993e-95
334.00 2.047993e-95
334.10 2.047993e-95
334.20 2.047993e-95
334.30 2.047993e-95
334.40 2.047993e-95
334.50 2.047993e-95
334.60 2.047993e-95
334.70 2.047993e-95
334.80 2.047993e-95
334.90 2.047993e-95
335.00 2.047993e-95
335.10 2.047993e-95
335.20 2.047993e-95
335.30 2.047993e-95
335.40 2.047993e-95
335.50 2.047993e-95
335.60 2.047993e-95
335.70 2.047993e-95
335.80 2.047993e-95
335.90 2.047993e-95
336.00 2.047993e-95
336.10 2.047993e-95
336.20 2.047993e-95
336.30 2.047993e-95
336.40 2.047993e-95
336.50 2.047993e-95
336.60 2.047993e-95
336.70 2.047993e-95
336.80 2.047993e-95
336.90 2.047993e-95
337.00 2.047993e-95
337.10 2.047993e-95
337.20 2.047993e-95
337.30 2.047993e-95
337.40 2.047993e-95
337.50 2.047993e-95
337.60 2.047993e-95
337.70 2.047993e-95
337.80 2.047993e-95
337.90 2.047993e-95
338.00 2.047993e-95
338.10 2.047993e-95
338.20 2.047993e-95
338.30 2.047993e-95
338.40 2.047993e-95
338.50 2.047993e-95
338.60 2.047993e-95
338.70 2.047993e-95
338.80 2.047993e-95
338.90 2.047993e-95
339.00 2.047993e-95
339.10 2.047993e-95
339.20 2.047993e-95
339.30 2.047993e-95
339.40 2.047993e-95
339.50 2.047993e-95
339.60 2.047993e-95
339.70 2.047993e-95
339.80 2.047993e-95
339.90 2.047993e-95
340.00 2.047993e-95
340.10 2.047993e-95
340.20 2.047993e-95
340.30 2.047993e-95
340.40 2.047993e-95
340.50 2.047993e-95
340.60 2.047993e-95
340.70 2.047993e-95
340.80 2.047993e-95
340.90 2.047993e-95
341.00 2.047993e-95
341.10 2.047993e-95
341.20 2.047993e-95
341.30 2.047993e-95
341.40 2.047993e-95
341.50 2.047993e-95
341.60 2.047993e-95
341.70 2.047993e-95
341.80 2.047993e-95
341.90 2.047993e-95
342.00 2.047993e-95
342.10 2.047993e-95
342.20 2.047993e-95
342.30 2.047993e-95
342.40 2.047993e-95
342.50 2.047993e-95
342.60 2.047993e-95
342.70 2.047993e-95
342.80 2.047993e-95
342.90 2.047993e-95
343.00 2.047993e-95
343.10 2.047993e-95
343.20 2.047993e-95
343.30 2.047993e-95
343.40 2.047993e-95
343.50 2.047993e-95
343.60 2.047993e-95
343.70 2.047993e-95
343.80 2.047993e-95
343.90 2.047993e-95
344.00 2.047993e-95
344.10 2.047993e-95
344.20 2.047993e-95
344.30 2.047993e-95
344.40 2.047993e-95
344.50 2.047993e-95
344.60 2.047993e-95
344.70 2.047993e-95
344.80 2.047993e-95
344.90 2.047993e-95
345.00 2.047993e-95
345.10 2.047993e-95
345.20 2.047993e-95
345.30 2.047993e-95
345.40 2.047993e-95
345.50 2.047993e-95
345.60 2.047993e-95
345.70 2.047993e-95
345.80 2.047993e-95
345.90 2.047993e-95
346.00 2.047993e-95
346.10 2.047993e-95
346.20 2.047993e-95
346.30 2.047993e-95
346.40 2.047993e-95
346.50 2.047993e-95
346.60 2.047993e-95
346.70 2.047993e-95
346.80 2.047993e-95
346.90 2.047993e-95
347.00 2.047993e-95
347.10 2.047993e-95
347.20 2.047993e-95
347.30 2.047993e-95
347.40 2.047993e-95
347.50 2.047993e-95
347.60 2.047993e-95
347.70 2.047993e-95
347.80 2.047993e-95
347.90 2.047993e-95
348.00 2.047993e-95
348.10 2.047993e-95
348.20 2.047993e-95
348.30 2.047993e-95
348.40 2.047993e-95
348.50 2.047993e-95
348.60 2.047993e-95
348.70 2.047993e-95
348.80 2.047993e-95
348.90 2.047993e-95
349.00 2.047993e-95
349.10 2.047993e-95
349.20 2.047993e-95
349.30 2.047993e-95
349.40 2.047993e-95
349.50 2.047993e-95
349.60 2.047993e-95
349.70 2.047993e-95
349.80 2.047993e-95
349.90 2.047993e-95
350.00 2.047993e-95
350.10 2.047993e-95
350.20 2.047993e-95
350.30 2.047993e-95
350.40 2.047993e-95
350.50 2.047993e-95
350.60 2.047993e-95
350.70 2.047993e-95
350.80 2.047993e-95
350.90 2.047993e-95
351.00 2.047993e-95
351.10 2.047993e-95
351.20 2.047993e-95
351.30 2.047993e-95
351.40 2.047993e-95
351.50 2.047993e-95
351.60 2.047993e-95
351.70 2.047993e-95
351.80 2.047993e-95
351.90 2.047993e-95
352.00 2.047993e-95
352.10 2.047993e-95
352.20 2.047993e-95
352.30 2.047993e-95
352.40 2.047993e-95
352.50 2.047993e-95
352.60 2.047993e-95
352.70 2.047993e-95
352.80 2.047993e-95
352.90 2.047993e-95
353.00 2.047993e-95
353.10 2.047993e-95
353.20 2.047993e-95
353.30 2.047993e-95
353.40 2.047993e-95
353.50 2.047993e-95
353.60 2.047993e-95
353.70 2.047993e-95
353.80 2.047993e-95
353.90 2.047993e-95
354.00 2.047993e-95
354.10 2.047993e-95
354.20 2.047993e-95
354.30 2.047993e-95
354.40 2.047993e-95
354.50 2.047993e-95
354.60 2.047993e-95
354.70 2.047993e-95
354.80 2.047993e-95
354.90 2.047993e-95
355.00 2.047993e-95
355.10 2.047993e-95
355.20 2.047993e-95
355.30 2.047993e-95
355.40 2.047993e-95
355.50 2.047993e-95
355.60 2.047993e-95
355.70 2.047993e-95
355.80 2.047993e-95
355.90 2.047993e-95
356.00 2.047993e-95
356.10 2.047993e-95
356.20 2.047993e-95
356.30 2.047993e-95
356.40 2.047993e-95
356.50 2.047993e-95
356.60 2.047993e-95
356.70 2.047993e-95
356.80 2.047993e-95
356.90 2.047993e-95
357.00 2.047993e-95
357.10 2.047993e-95
357.20 2.047993e-95
357.30 2.047993e-95
357.40 2.047993e-95
357.50 2.047993e-95
357.60 2.047993e-95
357.70 2.047993e-95
357.80 2.047993e-95
357.90 2.047993e-95
358.00 2.047993e-95
358.10 2.047993e-95
358.20 2.047993e-95
358.30 2.047993e-95
358.40 2.047993e-95
358.50 2.047993e-95
358.60 2.047993e-95
358.70 2.047993e-95
358.80 2.047993e-95
358.90 2.047993e-95
359.00 2.047993e-95
359.10 2.047993e-95
359.20 2.047993e-95
359.30 2.047993e-95
359.40 2.047993e-95
359.50 2.047993e-95
359.60 2.047993e-95
359.70 2.047993e-95
359.80 2.047993e-95
359.90 2.047993e-95
360.00 2.047993e-95
360.10 2.047993e-95
360.20 2.047993e-95
360.30 2.047993e-95
360.40 2.047993e-95
360.50 2.047993e-95
360.60 2.047993e-95
360.70 2.047993e-95
360.80 2.047993e-95
360.90 2.047993e-95
361.00 2.047993e-95
361.10 2.047993e-95
361.20 2.047993e-95
361.30 2.047993e-95
361.40 2.047993e-95
361.50 2.047993e-95
361.60 2.047993e-95
361.70 2.047993e-95
361.80 2.047993e-95
361.90 2.047993e-95
362.00 2.047993e-95
362.10 2.047993e-95
362.20 2.047993e-95
362.30 2.047993e-95
362.40 2.047993e-95
362.50 2.047993e-95
362.60 2.047993e-95
362.70 2.047993e-95
362.80 2.047993e-95
362.90 2.047993e-95
363.00 2.047993e-95
363.10 2.047993e-95
363.20 2.047993e-95
363.30 2.047993e-95
363.40 2.047993e-95
363.50 2.047993e-95
363.60 2.047993e-95
363.70 2.047993e-95
363.80 2.047993e-95
363.90 2.047993e-95
364.00 2.047993e-95
364.10 2.047993e-95
364.20 2.047993e-95
364.30 2.047993e-95
364.40 2.047993e-95
364.50 2.047993e-95
364.60 2.047993e-95
364.70 2.047993e-95
364.80 2.047993e-95
364.90 2.047993e-95
365.00 2.047993e-95
365.10 2.047993e-95
365.20 2.047993e-95
365.30 2.047993e-95
365.40 2.047993e-95
365.50 2.047993e-95
365.60 2.047993e-95
365.70 2.047993e-95
365.80 2.047993e-95
365.90 2.047993e-95
366.00 2.047993e-95
366.10 2.047993e-95
366.20 2.047993e-95
366.30 2.047993e-95
366.40 2.047993e-95
366.50 2.047993e-95
366.60 2.047993e-95
366.70 2.047993e-95
366.80 2.047993e-95
366.90 2.047993e-95
367.00 2.047993e-95
367.10 2.047993e-95
367.20 2.047993e-95
367.30 2.047993e-95
367.40 2.047993e-95
367.50 2.047993e-95
367.60 2.047993e-95
367.70 2.047993e-95
367.80 2.047993e-95
367.90 2.047993e-95
368.00 2.047993e-95
368.10 2.047993e-95
368.20 2.047993e-95
368.30 2.047993e-95
368.40 2.047993e-95
368.50 2.047993e-95
368.60 2.047993e-95
368.70 2.047993e-95
368.80 2.047993e-95
368.90 2.047993e-95
369.00 2.047993e-95
369.10 2.047993e-95
369.20 2.047993e-95
369.30 2.047993e-95
369.40 2.047993e-95
369.50 2.047993e-95
369.60 2.047993e-95
369.70 2.047993e-95
369.80 2.047993e-95
369.90 2.047993e-95
370.00 2.047993e-95
370.10 2.047993e-95
370.20 2.047993e-95
370.30 2.047993e-95
370.40 2.047993e-95
370.50 2.047993e-95
370.60 2.047993e-95
370.70 2.047993e-95
370.80 2.047993e-95
370.90 2.047993e-95
371.00 2.047993e-95
371.10 2.047993e-95
371.20 2.047993e-95
371.30 2.047993e-95
371.40 2.047993e-95
371.50 2.047993e-95
371.60 2.047993e-95
371.70 2.047993e-95
371.80 2.047993e-95
371.90 2.047993e-95
372.00 2.047993e-95
372.10 2.047993e-95
372.20 2.047993e-95
372.30 2.047993e-95
372.40 2.047993e-95
372.50 2.047993e-95
372.60 2.047993e-95
372.70 2.047993e-95
372.80 2.047993e-95
372.90 2.047993e-95
373.00 2.047993e-95
373.10 2.047993e-95
373.20 2.047993e-95
373.30 2.047993e-95
373.40 2.047993e-95
373.50 2.047993e-95
373.60 2.047993e-95
373.70 2.047993e-95
373.80 2.047993e-95
373.90 2.047993e-95
374.00 2.047993e-95
374.10 2.047993e-95
374.20 2.047993e-95
374.30 2.047993e-95
374.40 2.047993e-95
374.50 2.047993e-95
374.60 2.047993e-95
374.70 2.047993e-95
374.80 2.047993e-95
374.90 2.047993e-95
375.00 2.047993e-95
375.10 2.047993e-95
375.20 2.047993e-95
375.30 2.047993e-95
375.40 2.047993e-95
375.50 2.047993e-95
375.60 2.047993e-95
375.70 2.047993e-95
375.80 2.047993e-95
375.90 2.047993e-95
376.00 2.047993e-95
376.10 2.047993e-95
376.20 2.047993e-95
376.30 2.047993e-95
376.40 2.047993e-95
376.50 2.047993e-95
376.60 2.047993e-95
376.70 2.047993e-95
376.80 2.047993e-95
376.90 2.047993e-95
377.00 2.047993e-95
377.10 2.047993e-95
377.20 2.047993e-95
377.30 2.047993e-95
377.40 2.047993e-95
377.50 2.047993e-95
377.60 2.047993e-95
377.70 2.047993e-95
377.80 2.047993e-95
377.90 2.047993e-95
378.00 2.047993e-95
378.10 2.047993e-95
378.20 2.047993e-95
378.30 2.047993e-95
378.40 2.047993e-95
378.50 2.047993e-95
378.60 2.047993e-95
378.70 2.047993e-95
378.80 2.047993e-95
378.90 2.047993e-95
379.00 2.047993e-95
379.10 2.047993e-95
379.20 2.047993e-95
379.30 2.047993e-95
379.40 2.047993e-95
379.50 2.047993e-95
379.60 2.047993e-95
379.70 2.047993e-95
379.80 2.047993e-95
379.90 2.047993e-95
380.00 2.047993e-95
380.10 2.047993e-95
380.20 2.047993e-95
380.30 2.047993e-95
380.40 2.047993e-95
380.50 2.047993e-95
380.60 2.047993e-95
380.70 2.047993e-95
380.80 2.047993e-95
380.90 2.047993e-95
381.00 2.047993e-95
381.10 2.047993e-95
381.20 2.047993e-95
381.30 2.047993e-95
381.40 2.047993e-95
381.50 2.047993e-95
381.60 2.047993e-95
381.70 2.047993e-95
381.80 2.047993e-95
381.90 2.047993e-95
382.00 2.047993e-95
382.10 2.047993e-95
382.20 2.047993e-95
382.30 2.047993e-95
382.40 2.047993e-95
382.50 2.047993e-95
382.60 2.047993e-95
382.70 2.047993e-95
382.80 2.047993e-95
382.90 2.047993e-95
383.00 2.047993e-95
383.10 2.047993e-95
383.20 2.047993e-95
383.30 2.047993e-95
383.40 2.047993e-95
383.50 2.047993e-95
383.60 2.047993e-95
383.70 2.047993e-95
383.80 2.047993e-95
383.90 2.047993e-95
384.00 2.047993e-95
384.10 2.047993e-95
384.20 2.047993e-95
384.30 2.047993e-95
384.40 2.047993e-95
384.50 2.047993e-95
384.60 2.047993e-95
384.70 2.047993e-95
384.80 2.047993e-95
384.90 2.047993e-95
385.00 2.047993e-95
385.10 2.047993e-95
385.20 2.047993e-95
385.30 2.047993e-95
385.40 2.047993e-95
385.50 2.047993e-95
385.60 2.047993e-95
385.70 2.047993e-95
385.80 2.047993e-95
385.90 2.047993e-95
386.00 2.047993e-95
386.10 2.047993e-95
386.20 2.047993e-95
386.30 2.047993e-95
386.40 2.047993e-95
386.50 2.047993e-95
386.60 2.047993e-95
386.70 2.047993e-95
386.80 2.047993e-95
386.90 2.047993e-95
387.00 2.047993e-95
387.10 2.047993e-95
387.20 2.047993e-95
387.30 2.047993e-95
387.40 2.047993e-95
387.50 2.047993e-95
387.60 2.047993e-95
387.70 2.047993e-95
387.80 2.047993e-95
387.90 2.047993e-95
388.00 2.047993e-95
388.10 2.047993e-95
388.20 2.047993e-95
388.30 2.047993e-95
388.40 2.047993e-95
388.50 2.047993e-95
388.60 2.047993e-95
388.70 2.047993e-95
388.80 2.047993e-95
388.90 2.047993e-95
389.00 2.047993e-95
389.10 2.047993e-95
389.20 2.047993e-95
389.30 2.047993e-95
389.40 2.047993e-95
389.50 2.047993e-95
389.60 2.047993e-95
389.70 2.047993e-95
389.80 2.047993e-95
389.90 2.047993e-95
390.00 2.047993e-95
390.10 2.047993e-95
390.20 2.047993e-95
390.30 2.047993e-95
390.40 2.047993e-95
390.50 2.047993e-95
390.60 2.047993e-95
390.70 2.047993e-95
390.80 2.047993e-95
390.90 2.047993e-95
391.00 2.047993e-95
391.10 2.047993e-95
391.20 2.047993e-95
391.30 2.047993e-95
391.40 2.047993e-95
391.50 2.047993e-95
391.60 2.047993e-95
391.70 2.047993e-95
391.80 2.047993e-95
391.90 2.047993e-95
392.00 2.047993e-95
392.10 2.047993e-95
392.20 2.047993e-95
392.30 2.047993e-95
392.40 2.047993e-95
392.50 2.047993e-95
392.60 2.047993e-95
392.70 2.047993e-95
392.80 2.047993e-95
392.90 2.047993e-95
393.00 2.047993e-95
393.10 2.047993e-95
393.20 2.047993e-95
393.30 2.047993e-95
393.40 2.047993e-95
393.50 2.047993e-95
393.60 2.047993e-95
393.70 2.047993e-95
393.80 2.047993e-95
393.90 2.047993e-95
394.00 2.047993e-95
394.10 2.047993e-95
394.20 2.047993e-95
394.30 2.047993e-95
394.40 2.047993e-95
394.50 2.047993e-95
394.60 2.047993e-95
394.70 2.047993e-95
394.80 2.047993e-95
394.90 2.047993e-95
395.00 0.01275717
395.10 0.02638004
395.20 0.04080488
395.30 0.0551531
395.40 0.06779998
395.50 0.07708834
395.60 0.08160922
395.70 0.08160922
395.80 0.08160922
395.90 0.08160922
396.00 0.08160922
396.10 0.08160922
396.20 0.08160922
396.30 0.08160922
396.40 0.08160922
396.50 0.08160922
396.60 0.08160922
396.70 0.08160922
396.80 0.08160922
396.90 0.08160922
397.00 0.08160922
397.10 0.08160922
397.20 0.08376859
397.30 0.08842351
397.40 0.09471937
397.50 0.1021109
397.60 0.1109656
397.70 0.1224675
397.80 0.137879
397.90 0.157322
398.00 0.1797516
398.10 0.203663
398.20 0.2271998
398.30 0.2484695
398.40 0.266306
398.50 0.2808796
398.60 0.2934002
398.70 0.3059221
398.80 0.3211699
398.90 0.341593
399.00 0.3686616
399.10 0.4028672
399.20 0.4438255
399.30 0.4904354
399.40 0.5400598
399.50 0.5885377
399.60 0.6322268
399.70 0.668696
399.80 0.6965364
399.90 0.7147185
400.00 0.7224943
400.10 0.7224943
400.20 0.7224943
400.30 0.7224943
400.40 0.7224943
400.50 0.7224943
400.60 0.7224943
400.70 0.7224943
400.80 0.7224943
400.90 0.7258263
401.00 0.7316193
401.10 0.7387804
401.20 0.7465346
401.30 0.7547753
401.40 0.7646726
401.50 0.7778098
401.60 0.7944334
401.70 0.812458
401.80 0.8286663
401.90 0.8399985
402.00 0.8441751
402.10 0.8441751
402.20 0.8441751
402.30 0.8441751
402.40 0.8441751
402.50 0.8441751
402.60 0.8441751
402.70 0.8441751
402.80 0.8441751
402.90 0.8450507
403.00 0.8496774
403.10 0.8573461
403.20 0.8676287
403.30 0.880154
403.40 0.8951536
403.50 0.9128488
403.60 0.9329303
403.70 0.9545275
403.80 0.9764168
403.90 0.9974866
404.00 1.016762
404.10 1.033694
404.20 1.048348
404.30 1.061627
404.40 1.075202
404.50 1.091181
404.60 1.111648
404.70 1.137871
404.80 1.16951
404.90 1.20512
405.00 1.229928
405.10 1.253283
405.20 1.273048
405.30 1.288858
405.40 1.301705
405.50 1.31298
405.60 1.324461
405.70 1.336567
405.80 1.34532
405.90 1.351508
406.00 1.35636
406.10 1.361108
406.20 1.366574
406.30 1.373237
406.40 1.381005
406.50 1.388998
406.60 1.395738
406.70 1.399559
406.80 1.399559
406.90 1.399559
407.00 1.399559
407.10 1.399559
407.20 1.3974
407.30 1.392745
407.40 1.386449
407.50 1.379058
407.60 1.370203
407.70 1.358701
407.80 1.343289
407.90 1.323846
408.00 1.301417
408.10 1.277506
408.20 1.253969
408.30 1.232699
408.40 1.215837
408.50 1.205392
408.60 1.199914
408.70 1.196486
408.80 1.191248
408.90 1.181107
409.00 1.164307
409.10 1.14014
409.20 1.108726
409.30 1.07077
409.40 1.028181
409.50 0.9838425
409.60 0.9401533
409.70 0.9036841
409.80 0.8758437
409.90 0.8576617
410.00 0.8498859
410.10 0.8498859
410.20 0.8498859
410.30 0.8498859
410.40 0.8498859
410.50 0.8498859
410.60 0.8552099
410.70 0.8688242
410.80 0.8906446
410.90 0.9164175
411.00 0.9453854
411.10 0.9758654
411.20 1.005073
411.30 1.029411
411.40 1.044117
411.50 1.045228
411.60 1.032561
411.70 1.014537
411.80 0.9983284
411.90 0.9869963
412.00 0.9828197
412.10 0.9828197
412.20 0.9828197
412.30 0.9848467
412.40 0.990361
412.50 0.997964
412.60 1.005847
412.70 1.012385
412.80 1.016865
412.90 1.018585
413.00 1.015413
413.10 1.009067
413.20 1.000818
413.30 0.991733
413.40 0.9822582
413.50 0.9723504
413.60 0.9617447
413.70 0.9501369
413.80 0.9370995
413.90 0.9220547
414.00 0.9050276
414.10 0.8880956
414.20 0.8734416
414.30 0.8601631
414.40 0.8465873
414.50 0.8306091
414.60 0.8101419
414.70 0.7839186
414.80 0.7522796
414.90 0.7166696
415.00 0.6791048
415.10 0.6421268
415.20 0.6079367
415.30 0.5777784
415.40 0.5522849
415.50 0.5317209
415.60 0.5157198
415.70 0.5036131
415.80 0.4948609
415.90 0.4886723
416.00 0.4845566
416.10 0.4849167
416.20 0.4906313
416.30 0.5020381
416.40 0.5189823
416.50 0.541162
416.60 0.5681048
416.70 0.5995263
416.80 0.6342651
416.90 0.6662429
417.00 0.6941277
417.10 0.7174732
417.20 0.7361472
417.30 0.7502967
417.40 0.7604625
417.50 0.7677708
417.60 0.7734262
417.70 0.7783408
417.80 0.7831017
417.90 0.7878419
418.00 0.7924361
418.10 0.7963972
418.20 0.7994396
418.30 0.801766
418.40 0.8023966
418.50 0.7985172
418.60 0.7914748
418.70 0.7823811
418.80 0.7723712
418.90 0.7620886
419.00 0.7518203
419.10 0.7417823
419.20 0.7322377
419.30 0.7235838
419.40 0.716548
419.50 0.712409
419.60 0.712409
419.70 0.712409
419.80 0.712409
419.90 0.712409
420.00 0.712409
420.10 0.712409
420.20 0.712409
420.30 0.7164212
420.40 0.7236455
420.50 0.7318282
420.60 0.7333732
420.70 0.7239085
420.80 0.7026347
420.90 0.6735298
421.00 0.6387689
421.10 0.6011278
421.20 0.5641656
421.30 0.5315875
421.40 0.5069842
421.50 0.4927363
421.60 0.490058
421.70 0.4944141
421.80 0.501128
421.90 0.5095523
422.00 0.5190822
422.10 0.529235
422.20 0.5399133
422.30 0.5493454
422.40 0.5568045
422.50 0.5645921
422.60 0.5750524
422.70 0.5899467
422.80 0.6096262
422.90 0.6326025
423.00 0.6562216
423.10 0.6779041
423.20 0.6958036
423.30 0.7085489
423.40 0.7150892
423.50 0.7149848
423.60 0.7088845
423.70 0.698895
423.80 0.6900431
423.90 0.6840181
424.00 0.6817698
424.10 0.6817698
424.20 0.6820758
424.30 0.6856394
424.40 0.6930531
424.50 0.7042792
424.60 0.7190602
424.70 0.7372047
424.80 0.7583168
424.90 0.7816598
425.00 0.8060155
425.10 0.8297841
425.20 0.851208
425.30 0.8687683
425.40 0.8813569
425.50 0.8885403
425.60 0.8908248
425.70 0.8908248
425.80 0.8908248
425.90 0.8908248
426.00 0.8932308
426.10 0.8948386
426.20 0.8932657
426.30 0.8865771
426.40 0.8739514
426.50 0.8558783
426.60 0.8339343
426.70 0.810165
426.80 0.787115
426.90 0.7672969
427.00 0.7519426
427.10 0.7407936
427.20 0.7327143
427.30 0.7269346
427.40 0.7232114
427.50 0.7209115
427.60 0.7193244
427.70 0.718354
427.80 0.7184571
427.90 0.72003
428.00 0.7231912
428.10 0.7279886
428.20 0.7336634
428.30 0.7388384
428.40 0.7426853
428.50 0.7453645
428.60 0.7457855
428.70 0.7457855
428.80 0.7457855
428.90 0.7457855
429.00 0.7457855
429.10 0.7457855
429.20 0.7485244
429.30 0.7545598
429.40 0.763265
429.50 0.7736003
429.60 0.7849062
429.70 0.7970746
429.80 0.8100714
429.90 0.8240756
430.00 0.8396638
430.10 0.8571675
430.20 0.8759484
430.30 0.8909187
430.40 0.9021847
430.50 0.911441
430.60 0.9207715
430.70 0.9321086
430.80 0.9478199
430.90 0.9666188
431.00 0.9884321
431.10 1.012647
431.20 1.038001
431.30 1.062286
431.40 1.082515
431.50 1.096419
431.60 1.102122
431.70 1.098311
431.80 1.091597
431.90 1.083173
432.00 1.073643
432.10 1.06349
432.20 1.052812
432.30 1.041353
432.40 1.028379
432.50 1.013579
432.60 0.9960901
432.70 0.9746574
432.80 0.9504983
432.90 0.9249258
433.00 0.8998521
433.10 0.8768469
433.20 0.8569143
433.30 0.8407286
433.40 0.8286635
433.50 0.8209805
433.60 0.8176148
433.70 0.8190167
433.80 0.8212343
433.90 0.82361
434.00 0.8257607
434.10 0.8276937
434.20 0.8294536
434.30 0.8287537
434.40 0.8258214
434.50 0.8211398
434.60 0.8149689
434.70 0.8078065
434.80 0.8002295
434.90 0.7921785
435.00 0.7829979
435.10 0.7720246
435.20 0.7595241
435.30 0.7466263
435.40 0.7349814
435.50 0.727798
435.60 0.7255135
435.70 0.7255135
435.80 0.7255135
435.90 0.7276159
436.00 0.7303353
436.10 0.7331838
436.20 0.7360341
436.30 0.7390708
436.40 0.7427592
436.50 0.7473492
436.60 0.7526063
436.70 0.7577624
436.80 0.7617344
436.90 0.763751
437.00 0.7629162
437.10 0.758985
437.20 0.7529218
437.30 0.7451069
437.40 0.7386643
437.50 0.7336559
437.60 0.7295875
437.70 0.7256434
437.80 0.7207794
437.90 0.7144663
438.00 0.7084711
438.10 0.7044583
438.20 0.7027463
438.30 0.7032413
438.40 0.7059
438.50 0.7110494
438.60 0.7190243
438.70 0.7284884
438.80 0.739351
438.90 0.7512133
439.00 0.7632237
439.10 0.7741537
439.20 0.7803173
439.30 0.7805668
439.40 0.7749719
439.50 0.7646366
439.60 0.7533307
439.70 0.7411623
439.80 0.7281655
439.90 0.7171246
440.00 0.7074238
440.10 0.6979986
440.20 0.6885173
440.30 0.6788754
440.40 0.6686809
440.50 0.6576552
440.60 0.6453502
440.70 0.631226
440.80 0.6149682
440.90 0.5961693
441.00 0.5743559
441.10 0.5501411
441.20 0.5247874
441.30 0.5005021
441.40 0.4802729
441.50 0.4663694
441.60 0.4593869
441.70 0.4588417
441.80 0.4588417
441.90 0.4588417
442.00 0.4588417
442.10 0.4588417
442.20 0.4588417
442.30 0.4588417
442.40 0.4588417
442.50 0.4582513
442.60 0.4573971
442.70 0.4573971
442.80 0.4573971
442.90 0.4573971
443.00 0.4573971
443.10 0.4573971
443.20 0.4573971
443.30 0.4573971
443.40 0.4573971
443.50 0.4573971
443.60 0.4573874
443.70 0.4559854
443.80 0.4596537
443.90 0.4709439
444.00 0.4904354
444.10 0.5166734
444.20 0.5466905
444.30 0.5772815
444.40 0.6056883
444.50 0.6300958
444.60 0.6495708
444.70 0.6629826
444.80 0.669292
444.90 0.668837
445.00 0.6637517
445.10 0.6570995
445.20 0.6512877
445.30 0.6473403
445.40 0.6463965
445.50 0.6463965
445.60 0.6463965
445.70 0.6463965
445.80 0.6463965
445.90 0.6442941
446.00 0.6384327
446.10 0.6288677
446.20 0.6164106
446.30 0.6019923
446.40 0.5862173
446.50 0.5695278
446.60 0.5525319
446.70 0.5359023
446.80 0.5202416
446.90 0.5060653
447.00 0.4943696
447.10 0.4861042
447.20 0.4851664
447.30 0.4946321
447.40 0.5120366
447.50 0.5365511
447.60 0.5662279
447.70 0.5985516
447.80 0.6308369
447.90 0.6603416
448.00 0.6831018
448.10 0.6967282
448.20 0.701991
448.30 0.7009004
448.40 0.695673
448.50 0.6880558
448.60 0.67966
448.70 0.6701958
448.80 0.6593333
448.90 0.647471
449.00 0.6354605
449.10 0.6254886
449.20 0.6188383
449.30 0.6161239
449.40 0.6175481
449.50 0.6222388
449.60 0.625932
449.70 0.6277858
449.80 0.6277858
449.90 0.6248225
450.00 0.6189351
450.10 0.6108566
450.20 0.6040964
450.30 0.6001822
450.40 0.5997279
450.50 0.6023837
450.60 0.6073432
450.70 0.6137534
450.80 0.6200938
450.90 0.6249462
451.00 0.62845
451.10 0.630861
451.20 0.6326511
451.30 0.6343559
451.40 0.6362964
451.50 0.6383083
451.60 0.6403948
451.70 0.6433416
451.80 0.6478461
451.90 0.6540868
452.00 0.6615289
452.10 0.6689839
452.20 0.6751517
452.30 0.6791691
452.40 0.6810852
452.50 0.6818456
452.60 0.6827104
452.70 0.6849887
452.80 0.6899544
452.90 0.6986023
453.00 0.7112854
453.10 0.7273963
453.20 0.7456881
453.30 0.7651231
453.40 0.78509
453.50 0.8051006
453.60 0.8248711
453.70 0.8444368
453.80 0.858148
453.90 0.8640844
454.00 0.8613542
454.10 0.8504459
454.20 0.833276
454.30 0.8121488
454.40 0.7891416
454.50 0.7662596
454.60 0.7456657
454.70 0.7289503
454.80 0.7168448
454.90 0.7092202
455.00 0.7052324
455.10 0.7039476
455.20 0.7045701
455.30 0.7068523
455.40 0.710114
455.50 0.7143907
455.60 0.7194305
455.70 0.7242
455.80 0.7274419
455.90 0.7279142
456.00 0.7279142
456.10 0.7279142
456.20 0.7279142
456.30 0.7279142
456.40 0.7279142
456.50 0.7279142
456.60 0.7279142
456.70 0.7279142
456.80 0.7285336
456.90 0.7343533
457.00 0.7456171
457.10 0.7618577
457.20 0.7785278
457.30 0.7911672
457.40 0.7968694
457.50 0.794201
457.60 0.7836955
457.70 0.7668386
457.80 0.7458785
457.90 0.723486
458.00 0.7021142
458.10 0.6838468
458.20 0.6715789
458.30 0.6646731
458.40 0.6617894
458.50 0.6613289
458.60 0.6630886
458.70 0.6688685
458.80 0.6790181
458.90 0.6938232
459.00 0.7132813
459.10 0.7362579
459.20 0.7617093
459.30 0.7879583
459.40 0.813048
459.50 0.8352392
459.60 0.8535006
459.70 0.8670878
459.80 0.875227
459.90 0.8760249
460.00 0.8760249
460.10 0.8760249
460.20 0.8734855
460.30 0.868059
460.40 0.8602176
460.50 0.8511485
460.60 0.8422944
460.70 0.8345217
460.80 0.8281813
460.90 0.8233289
461.00 0.8198251
461.10 0.8174141
461.20 0.8170621
461.30 0.8181648
461.40 0.8201841
461.50 0.8227539
461.60 0.8250112
461.70 0.825935
461.80 0.8253534
461.90 0.8236476
462.00 0.8213949
462.10 0.8196431
462.20 0.8196205
462.30 0.8218586
462.40 0.8263787
462.50 0.832948
462.60 0.8409176
462.70 0.8491859
462.80 0.8564096
462.90 0.8613472
463.00 0.8635957
463.10 0.8637618
463.20 0.862922
463.30 0.8618172
463.40 0.8607286
463.50 0.8598905
463.60 0.8591395
463.70 0.8578092
463.80 0.8547057
463.90 0.8488226
464.00 0.8402325
464.10 0.8295094
464.20 0.8171222
464.30 0.8047948
464.40 0.7949137
464.50 0.7868438
464.60 0.7793525
464.70 0.7742571
464.80 0.7736221
464.90 0.7777397
465.00 0.7862189
465.10 0.7978507
465.20 0.8111339
465.30 0.8246831
465.40 0.8368779
465.50 0.8468286
465.60 0.8553706
465.70 0.8643283
465.80 0.875369
465.90 0.8894214
466.00 0.9031417
466.10 0.914705
466.20 0.9228843
466.30 0.9270247
466.40 0.9271625
466.50 0.9271625
466.60 0.9271625
466.70 0.9271625
466.80 0.9265431
466.90 0.9207235
467.00 0.9094596
467.10 0.893219
467.20 0.8729793
467.30 0.8506246
467.40 0.8275758
467.50 0.8057297
467.60 0.7866081
467.70 0.7723021
467.80 0.7642509
467.90 0.7636784
468.00 0.7710602
468.10 0.7853163
468.20 0.8023438
468.30 0.81998
468.40 0.8363441
468.50 0.8502879
468.60 0.8592782
468.70 0.86071
468.80 0.8548397
468.90 0.842788
469.00 0.8262953
469.10 0.8072436
469.20 0.7875229
469.30 0.7689041
469.40 0.752921
469.50 0.741246
469.60 0.7358434
469.70 0.7386932
469.80 0.7504938
469.90 0.7705079
470.00 0.7913216
470.10 0.8112588
470.20 0.8295062
470.30 0.8456696
470.40 0.8601042
470.50 0.8737156
470.60 0.8872506
470.70 0.9012982
470.80 0.9167
470.90 0.9342777
471.00 0.9539021
471.10 0.9742812
471.20 0.9924956
471.30 1.007695
471.40 1.01975
471.50 1.029068
471.60 1.036343
471.70 1.0412
471.80 1.041863
471.90 1.037328
472.00 1.032139
472.10 1.026436
472.20 1.02029
472.30 1.014035
472.40 1.007599
472.50 1.000269
472.60 0.9914347
472.70 0.9821887
472.80 0.9743251
472.90 0.9671264
473.00 0.9595935
473.10 0.9510267
473.20 0.9415249
473.30 0.9314778
473.40 0.9214412
473.50 0.9120091
473.60 0.9035719
473.70 0.896291
473.80 0.890719
473.90 0.8874145
474.00 0.886429
474.10 0.8879254
474.20 0.8921593
474.30 0.8974582
474.40 0.9011162
474.50 0.9034001
474.60 0.9049732
474.70 0.9041908
474.80 0.8998928
474.90 0.8928595
475.00 0.8843722
475.10 0.8757214
475.20 0.8674841
475.30 0.8592164
475.40 0.8500438
475.50 0.8389619
475.60 0.82538
475.70 0.8116529
475.80 0.7973703
475.90 0.7828456
476.00 0.7691252
476.10 0.757562
476.20 0.7493826
476.30 0.7459106
476.40 0.7488669
476.50 0.7541697
476.60 0.7612869
476.70 0.7697252
476.80 0.7791083
476.90 0.7890087
477.00 0.7988651
477.10 0.8085866
477.20 0.8184979
477.30 0.8288454
477.40 0.8403668
477.50 0.852329
477.60 0.8636625
477.70 0.8723375
477.80 0.8767206
477.90 0.8757673
478.00 0.8697724
478.10 0.860657
478.20 0.8514149
478.30 0.8455384
478.40 0.8456694
478.50 0.8525247
478.60 0.8652587
478.70 0.8818711
478.80 0.8996175
478.90 0.9160726
479.00 0.9295744
479.10 0.9388943
479.20 0.9434792
479.30 0.9440047
479.40 0.9418829
479.50 0.9381882
479.60 0.9328915
479.70 0.9250729
479.80 0.9147283
479.90 0.9031356
480.00 0.8918916
480.10 0.8828658
480.20 0.8778409
480.30 0.8774565
480.40 0.8807722
480.50 0.8861404
480.60 0.8920468
480.70 0.8970984
480.80 0.8998655
480.90 0.8991533
481.00 0.8950974
481.10 0.889603
481.20 0.8849863
481.30 0.8832317
481.40 0.8860603
481.50 0.8946722
481.60 0.9093538
481.70 0.9300257
481.80 0.9567894
481.90 0.9884516
482.00 1.01882
482.10 1.04648
482.20 1.070317
482.30 1.090226
482.40 1.107153
482.50 1.122478
482.60 1.137303
482.70 1.150595
482.80 1.160089
482.90 1.165902
483.00 1.168582
483.10 1.168654
483.20 1.166091
483.30 1.160956
483.40 1.153384
483.50 1.143656
483.60 1.133108
483.70 1.123648
483.80 1.116548
483.90 1.112443
484.00 1.111338
484.10 1.112443
484.20 1.114832
484.30 1.117932
484.40 1.121214
484.50 1.123893
484.60 1.12522
484.70 1.12461
484.80 1.121804
484.90 1.117507
485.00 1.111413
485.10 1.103574
485.20 1.094794
485.30 1.086515
485.40 1.080231
485.50 1.077086
485.60 1.077086
485.70 1.077086
485.80 1.077086
485.90 1.077086
486.00 1.077086
486.10 1.077086
486.20 1.077086
486.30 1.076418
486.40 1.073323
486.50 1.068021
486.60 1.060904
486.70 1.053247
486.80 1.049528
486.90 1.049513
487.00 1.052192
487.10 1.055289
487.20 1.055982
487.30 1.05214
487.40 1.043163
487.50 1.031201
487.60 1.019818
487.70 1.009982
487.80 1.002325
487.90 0.9980891
488.00 0.9964958
488.10 0.9952044
488.20 0.9920615
488.30 0.9853941
488.40 0.9743128
488.50 0.9596869
488.60 0.9441
488.70 0.9305185
488.80 0.920939
488.90 0.9157592
489.00 0.9141111
489.10 0.9147686
489.20 0.9165731
489.30 0.91851
489.40 0.9200635
489.50 0.9213051
489.60 0.9225828
489.70 0.9247409
489.80 0.928695
489.90 0.9344682
490.00 0.9411628
490.10 0.9473739
490.20 0.9518838
490.30 0.9541263
490.40 0.9540359
490.50 0.9514526
490.60 0.9459103
490.70 0.9366099
490.80 0.9226501
490.90 0.9057846
491.00 0.890216
491.10 0.8753313
491.20 0.8602955
491.30 0.8440437
491.40 0.8252002
491.50 0.8026884
491.60 0.7763883
491.70 0.746988
491.80 0.7156385
491.90 0.6839763
492.00 0.6536084
492.10 0.6259475
492.20 0.6021112
492.30 0.5822016
492.40 0.565275
492.50 0.5499496
492.60 0.5351247
492.70 0.5205327
492.80 0.5083069
492.90 0.5005064
493.00 0.4983007
493.10 0.5021548
493.20 0.5114839
493.30 0.524184
493.40 0.537663
493.50 0.5499755
493.60 0.5595239
493.70 0.5652941
493.80 0.5672277
493.90 0.5664631
494.00 0.5649116
494.10 0.5644311
494.20 0.5662778
494.30 0.5710762
494.40 0.5788709
494.50 0.5890844
494.60 0.6008487
494.70 0.6134056
494.80 0.6260925
494.90 0.6372909
495.00 0.6465243
495.10 0.6535863
495.20 0.6585926
495.30 0.6617915
495.40 0.6636027
495.50 0.6646462
495.60 0.6653144
495.70 0.665839
495.80 0.6669875
495.90 0.6700234
496.00 0.6758776
496.10 0.6849367
496.20 0.6972931
496.30 0.712788
496.40 0.7307922
496.50 0.7502826
496.60 0.7700071
496.70 0.7880574
496.80 0.7997497
496.90 0.8057682
497.00 0.8083486
497.10 0.8109733
497.20 0.8169
497.30 0.8277571
497.40 0.8434867
497.50 0.8618404
497.60 0.8794899
497.70 0.8959943
497.80 0.9114682
497.90 0.9251282
498.00 0.9372386
498.10 0.9484148
498.20 0.9586808
498.30 0.9678367
498.40 0.9754033
498.50 0.9801307
498.60 0.9805497
498.70 0.9761856
498.80 0.9678288
498.90 0.9573985
499.00 0.9474207
499.10 0.9402754
499.20 0.9377584
499.30 0.9406205
499.40 0.9483381
499.50 0.9595623
499.60 0.9726368
499.70 0.9853643
499.80 0.9951526
499.90 1.000208
500.00 1
500.10 0.9948842
500.20 0.9856937
500.30 0.9736581
500.40 0.9605202
500.50 0.9482842
500.60 0.9386714
500.70 0.9331661
500.80 0.9331182
500.90 0.9372237
501.00 0.9414685
501.10 0.9459747
501.20 0.9511063
501.30 0.9575734
501.40 0.9660382
501.50 0.9769392
501.60 0.9907555
501.70 1.007969
501.80 1.028775
501.90 1.052984
502.00 1.080258
502.10 1.110162
502.20 1.141658
502.30 1.173076
502.40 1.202672
502.50 1.229163
502.60 1.251908
502.70 1.270791
502.80 1.284423
502.90 1.292198
503.00 1.294435
503.10 1.29195
503.20 1.286354
503.30 1.280006
503.40 1.274949
503.50 1.271728
503.60 1.270105
503.70 1.26976
503.80 1.270302
503.90 1.270845
504.00 1.270256
504.10 1.267782
504.20 1.262901
504.30 1.255147
504.40 1.244293
504.50 1.230651
504.60 1.215987
504.70 1.202239
504.80 1.189552
504.90 1.178354
505.00 1.169121
505.10 1.162059
505.20 1.157052
505.30 1.153853
505.40 1.153985
505.50 1.1607
505.60 1.174607
505.70 1.195909
505.80 1.223188
505.90 1.253479
506.00 1.283654
506.10 1.311071
506.20 1.333516
506.30 1.349648
506.40 1.359648
506.50 1.365162
506.60 1.368542
506.70 1.371702
506.80 1.375483
506.90 1.379856
507.00 1.384178
507.10 1.387428
507.20 1.388804
507.30 1.388062
507.40 1.385187
507.50 1.380212
507.60 1.373342
507.70 1.365194
507.80 1.356396
507.90 1.347247
508.00 1.338168
508.10 1.329799
508.20 1.322419
508.30 1.315685
508.40 1.309251
508.50 1.303324
508.60 1.298545
508.70 1.29582
508.80 1.296008
508.90 1.299568
509.00 1.306404
509.10 1.315508
509.20 1.325154
509.30 1.333485
509.40 1.338855
509.50 1.340317
509.60 1.338166
509.70 1.333853
509.80 1.329008
509.90 1.32473
510.00 1.321699
510.10 1.320201
510.20 1.3201
510.30 1.321031
510.40 1.32247
510.50 1.323716
510.60 1.324323
510.70 1.324373
510.80 1.324145
510.90 1.323524
511.00 1.322008
511.10 1.319343
511.20 1.315549
511.30 1.310956
511.40 1.306013
511.50 1.300911
511.60 1.295611
511.70 1.28987
511.80 1.283341
511.90 1.275798
512.00 1.266873
512.10 1.255746
512.20 1.242151
512.30 1.227073
512.40 1.212049
512.50 1.198333
512.60 1.186462
512.70 1.176496
512.80 1.168741
512.90 1.163474
513.00 1.160263
513.10 1.158234
513.20 1.156521
513.30 1.154576
513.40 1.152603
513.50 1.151583
513.60 1.15187
513.70 1.152907
513.80 1.153836
513.90 1.153854
514.00 1.152807
514.10 1.150975
514.20 1.149076
514.30 1.148611
514.40 1.151263
514.50 1.158032
514.60 1.167865
514.70 1.178567
514.80 1.188991
514.90 1.198035
515.00 1.20511
515.10 1.210012
515.20 1.212954
515.30 1.214454
515.40 1.213104
515.50 1.205473
515.60 1.190897
515.70 1.169071
515.80 1.140643
515.90 1.107316
516.00 1.071798
516.10 1.036375
516.20 1.003132
516.30 0.9733729
516.40 0.9470362
516.50 0.922745
516.60 0.8996405
516.70 0.8776489
516.80 0.8565117
516.90 0.8362341
517.00 0.8170149
517.10 0.8016056
517.20 0.7904293
517.30 0.783778
517.40 0.7815903
517.50 0.783349
517.60 0.7882351
517.70 0.794723
517.80 0.8014373
517.90 0.8079069
518.00 0.8140952
518.10 0.8202481
518.20 0.8269302
518.30 0.8351992
518.40 0.8462724
518.50 0.8607822
518.60 0.8783181
518.70 0.8972322
518.80 0.9152923
518.90 0.9302472
519.00 0.939925
519.10 0.9429594
519.20 0.9387239
519.30 0.9276237
519.40 0.9114659
519.50 0.8924748
519.60 0.8725853
519.70 0.8534585
519.80 0.8366335
519.90 0.8235182
520.00 0.8148331
520.10 0.8108127
520.20 0.8116512
520.30 0.8169416
520.40 0.8255452
520.50 0.8360981
520.60 0.8475803
520.70 0.8591666
520.80 0.8701355
520.90 0.8807847
521.00 0.8924284
521.10 0.906259
521.20 0.922565
521.30 0.9408566
521.40 0.9605128
521.50 0.980678
521.60 0.9996332
521.70 1.015455
521.80 1.027018
521.90 1.034172
522.00 1.037699
522.10 1.039154
522.20 1.040147
522.30 1.041566
522.40 1.043635
522.50 1.046316
522.60 1.050056
522.70 1.055649
522.80 1.063538
522.90 1.073955
523.00 1.087318
523.10 1.104003
523.20 1.123525
523.30 1.144703
523.40 1.166009
523.50 1.18595
523.60 1.204272
523.70 1.221563
523.80 1.23853
523.90 1.256092
524.00 1.274359
524.10 1.292232
524.20 1.307892
524.30 1.319207
524.40 1.32469
524.50 1.324194
524.60 1.319022
524.70 1.311626
524.80 1.305085
524.90 1.302328
525.00 1.304824
525.10 1.31256
525.20 1.324504
525.30 1.339064
525.40 1.355079
525.50 1.372212
525.60 1.390618
525.70 1.410699
525.80 1.432762
525.90 1.456699
526.00 1.481639
526.10 1.507051
526.20 1.53208
526.30 1.555589
526.40 1.576847
526.50 1.596083
526.60 1.613533
526.70 1.629386
526.80 1.644355
526.90 1.659166
527.00 1.674151
527.10 1.686638
527.20 1.696151
527.30 1.702206
527.40 1.704429
527.50 1.702935
527.60 1.698313
527.70 1.691356
527.80 1.682336
527.90 1.670735
528.00 1.658573
528.10 1.645659
528.20 1.631448
528.30 1.615665
528.40 1.598045
528.50 1.578562
528.60 1.557489
528.70 1.535422
528.80 1.513084
528.90 1.493412
529.00 1.476398
529.10 1.461718
529.20 1.449552
529.30 1.440067
529.40 1.433132
529.50 1.428617
529.60 1.426218
529.70 1.425259
529.80 1.424989
529.90 1.424719
530.00 1.424079
530.10 1.42296
530.20 1.421314
530.30 1.419365
530.40 1.417809
530.50 1.41764
530.60 1.419683
530.70 1.424639
530.80 1.432857
530.90 1.44362
531.00 1.455094
531.10 1.465201
531.20 1.472238
531.30 1.474778
531.40 1.471863
531.50 1.463722
531.60 1.451746
531.70 1.438098
531.80 1.425179
531.90 1.414898
532.00 1.408354
532.10 1.405854
532.20 1.40673
532.30 1.409604
532.40 1.413052
532.50 1.415697
532.60 1.416084
532.70 1.413251
532.80 1.406981
532.90 1.39777
533.00 1.386841
533.10 1.375511
533.20 1.365062
533.30 1.356399
533.40 1.349844
533.50 1.345257
533.60 1.341958
533.70 1.339256
533.80 1.336784
533.90 1.334148
534.00 1.331286
534.10 1.32889
534.20 1.32795
534.30 1.329063
534.40 1.332099
534.50 1.336709
534.60 1.34239
534.70 1.348431
534.80 1.354101
534.90 1.358748
535.00 1.362304
535.10 1.365149
535.20 1.367804
535.30 1.370912
535.40 1.37466
535.50 1.378387
535.60 1.381006
535.70 1.38157
535.80 1.37964
535.90 1.375329
536.00 1.369015
536.10 1.361256
536.20 1.352846
536.30 1.344733
536.40 1.337661
536.50 1.331621
536.60 1.325589
536.70 1.318351
536.80 1.309333
536.90 1.298369
537.00 1.285764
537.10 1.272347
537.20 1.25936
537.30 1.248439
537.40 1.241307
537.50 1.239507
537.60 1.24422
537.70 1.256061
537.80 1.27488
537.90 1.299889
538.00 1.32661
538.10 1.352321
538.20 1.375344
538.30 1.394664
538.40 1.410397
538.50 1.423899
538.60 1.437039
538.70 1.451486
538.80 1.468593
538.90 1.486725
539.00 1.506432
539.10 1.528281
539.20 1.552567
539.30 1.579468
539.40 1.608967
539.50 1.640662
539.60 1.67376
539.70 1.707209
539.80 1.739688
539.90 1.769934
540.00 1.797365
540.10 1.822093
540.20 1.844372
540.30 1.864906
540.40 1.884593
540.50 1.903682
540.60 1.921851
540.70 1.938667
540.80 1.954006
540.90 1.9682
541.00 1.982281
541.10 1.997797
541.20 2.016326
541.30 2.039147
541.40 2.066494
541.50 2.097141
541.60 2.129182
541.70 2.160023
541.80 2.186449
541.90 2.206053
542.00 2.217878
542.10 2.222321
542.20 2.221458
542.30 2.218524
542.40 2.216649
542.50 2.218384
542.60 2.225336
542.70 2.237551
542.80 2.253705
542.90 2.271242
543.00 2.286839
543.10 2.297922
543.20 2.303717
543.30 2.305246
543.40 2.30447
543.50 2.303388
543.60 2.30331
543.70 2.304611
543.80 2.30703
543.90 2.31
544.00 2.31274
544.10 2.314432
544.20 2.314443
544.30 2.312992
544.40 2.311147
544.50 2.30987
544.60 2.309642
544.70 2.31053
544.80 2.312299
544.90 2.314206
545.00 2.315195
545.10 2.314565
545.20 2.311857
545.30 2.30667
545.40 2.298951
545.50 2.289178
545.60 2.278046
545.70 2.265932
545.80 2.252815
545.90 2.238579
546.00 2.223202
546.10 2.206733
546.20 2.189313
546.30 2.172049
546.40 2.156196
546.50 2.142287
546.60 2.130869
546.70 2.122254
546.80 2.116302
546.90 2.112455
547.00 2.109858
547.10 2.107504
547.20 2.104222
547.30 2.098814
547.40 2.091104
547.50 2.081641
547.60 2.070153
547.70 2.056481
547.80 2.04061
547.90 2.022951
548.00 2.004661
548.10 1.987157
548.20 1.971398
548.30 1.95763
548.40 1.945069
548.50 1.932124
548.60 1.918984
548.70 1.904537
548.80 1.88743
548.90 1.868249
549.00 1.849238
549.10 1.831517
549.20 1.815877
549.30 1.802416
549.40 1.790711
549.50 1.780085
549.60 1.769574
549.70 1.758555
549.80 1.747385
549.90 1.736932
550.00 1.185897
550.10 1.126994
550.20 1.071308
550.30 1.017305
550.40 0.964699
550.50 0.9147601
550.60 0.8674503
550.70 0.8229739
550.80 0.7809196
550.90 0.7411192
551.00 0.7042215
551.10 0.6709316
551.20 0.6417152
551.30 0.6157201
551.40 0.590627
551.50 0.5641731
551.60 0.5388834
551.70 0.5132983
551.80 0.4849909
551.90 0.4563697
552.00 0.43367
552.10 0.4197929
552.20 0.4170753
552.30 0.4263999
552.40 0.446961
552.50 0.4764334
552.60 0.5110891
552.70 0.5482342
552.80 0.5874589
552.90 0.6294278
553.00 0.6741093
553.10 0.7209286
553.20 0.7702424
553.30 0.8208745
553.40 0.8710726
553.50 0.9209957
553.60 0.9703227
553.70 1.017659
553.80 1.060882
553.90 1.098973
554.00 1.132875
554.10 1.164296
554.20 1.194365
554.30 1.2236
554.40 1.251237
554.50 1.275501
554.60 1.296724
554.70 1.31558
554.80 1.333635
554.90 1.351972
555.00 1.371324
555.10 1.394462
555.20 1.427265
555.30 1.474827
555.40 1.534292
555.50 1.605167
555.60 1.691485
555.70 1.801357
555.80 1.94054
555.90 2.106157
556.00 2.287342
556.10 2.472462
556.20 2.648818
556.30 2.805722
556.40 2.934891
556.50 3.030668
556.60 3.091211
556.70 3.119696
556.80 3.128499
556.90 3.127612
557.00 3.118547
557.10 3.102222
557.20 3.079859
557.30 3.054541
557.40 3.031311
557.50 3.01519
557.60 3.010301
557.70 3.019754
557.80 3.045565
557.90 3.08685
558.00 3.138404
558.10 3.193515
558.20 3.247101
558.30 3.296608
558.40 3.340928
558.50 3.380347
558.60 3.415961
558.70 3.448028
558.80 3.475799
558.90 3.498507
559.00 3.51605
559.10 3.527026
559.20 3.526953
559.30 3.512576
559.40 3.488875
559.50 3.456492
559.60 3.404501
559.70 3.321269
559.80 3.199706
559.90 3.039529
560.00 2.847884
560.10 2.639511
560.20 2.42879
560.30 2.228565
560.40 2.052459
560.50 1.908873
560.60 1.803558
560.70 1.736586
560.80 1.696732
560.90 1.673279
561.00 1.66426
561.10 1.668917
561.20 1.684673
561.30 1.706162
561.40 1.7265
561.50 1.739444
561.60 1.741003
561.70 1.729831
561.80 1.706928
561.90 1.675463
562.00 1.640595
562.10 1.607348
562.20 1.578765
562.30 1.555976
562.40 1.538003
562.50 1.52147
562.60 1.503139
562.70 1.482799
562.80 1.462825
562.90 1.446646
563.00 1.43719
563.10 1.436327
563.20 1.444753
563.30 1.460764
563.40 1.480039
563.50 1.498514
563.60 1.514712
563.70 1.529757
563.80 1.546438
563.90 1.56816
564.00 1.597281
564.10 1.631978
564.20 1.671445
564.30 1.71499
564.40 1.758616
564.50 1.800413
564.60 1.837778
564.70 1.868945
564.80 1.893815
564.90 1.913766
565.00 1.930155
565.10 1.943201
565.20 1.95267
565.30 1.957955
565.40 1.95841
565.50 1.953496
565.60 1.942494
565.70 1.925639
565.80 1.904811
565.90 1.883275
566.00 1.866406
566.10 1.859544
566.20 1.8653
566.30 1.882903
566.40 1.909628
566.50 1.942262
566.60 1.976774
566.70 2.008844
566.80 2.03395
566.90 2.048932
567.00 2.05344
567.10 2.048936
567.20 2.038662
567.30 2.027565
567.40 2.020562
567.50 2.022139
567.60 2.036427
567.70 2.066422
567.80 2.111896
567.90 2.169146
568.00 2.233153
568.10 2.298736
568.20 2.362109
568.30 2.420899
568.40 2.473474
568.50 2.519506
568.60 2.559428
568.70 2.593503
568.80 2.621005
568.90 2.640619
569.00 2.651649
569.10 2.654098
569.20 2.649426
569.30 2.641445
569.40 2.634591
569.50 2.632375
569.60 2.637216
569.70 2.649402
569.80 2.666482
569.90 2.683846
570.00 2.694452
570.10 2.692148
570.20 2.674963
570.30 2.643986
570.40 2.602275
570.50 2.554618
570.60 2.5061
570.70 2.460716
570.80 2.423054
570.90 2.397259
571.00 2.384476
571.10 2.383338
571.20 2.390434
571.30 2.400897
571.40 2.409885
571.50 2.412428
571.60 2.403646
571.70 2.379871
571.80 2.340227
571.90 2.286596
572.00 2.222757
572.10 2.15379
572.20 2.083309
572.30 2.013306
572.40 1.945178
572.50 1.879498
572.60 1.816401
572.70 1.755711
572.80 1.698447
572.90 1.646622
573.00 1.601667
573.10 1.56444
573.20 1.535009
573.30 1.512178
573.40 1.494191
573.50 1.479848
573.60 1.468546
573.70 1.460105
573.80 1.455279
573.90 1.455292
574.00 1.460911
574.10 1.471704
574.20 1.485833
574.30 1.502189
574.40 1.520314
574.50 1.539804
574.60 1.560352
574.70 1.581307
574.80 1.60168
574.90 1.619464
575.00 1.63232
575.10 1.639646
575.20 1.641973
575.30 1.640552
575.40 1.63863
575.50 1.640745
575.60 1.649969
575.70 1.665566
575.80 1.684872
575.90 1.704679
576.00 1.721438
576.10 1.732403
576.20 1.735895
576.30 1.732092
576.40 1.723804
576.50 1.714708
576.60 1.708128
576.70 1.706842
576.80 1.711251
576.90 1.71931
577.00 1.728685
577.10 1.737375
577.20 1.742317
577.30 1.740569
577.40 1.731619
577.50 1.71664
577.60 1.697888
577.70 1.678353
577.80 1.659164
577.90 1.639596
578.00 1.619652
578.10 1.600695
578.20 1.584748
578.30 1.572435
578.40 1.562683
578.50 1.554376
578.60 1.548223
578.70 1.545703
578.80 1.545918
578.90 1.547298
579.00 1.549218
579.10 1.550578
579.20 1.551093
579.30 1.551835
579.40 1.552995
579.50 1.552609
579.60 1.546806
579.70 1.532146
579.80 1.506483
579.90 1.469158
580.00 1.421197
580.10 1.378919
580.20 1.343069
580.30 1.313584
580.40 1.288583
580.50 1.265828
580.60 1.243605
580.70 1.223565
580.80 1.213889
580.90 1.214454
581.00 1.224334
581.10 1.242574
581.20 1.269081
581.30 1.302849
581.40 1.340561
581.50 1.377832
581.60 1.410764
581.70 1.437063
581.80 1.457981
581.90 1.478074
582.00 1.501778
582.10 1.529968
582.20 1.559366
582.30 1.584788
582.40 1.602499
582.50 1.610737
582.60 1.608642
582.70 1.596906
582.80 1.577929
582.90 1.554482
583.00 1.528035
583.10 1.498159
583.20 1.462998
583.30 1.420499
583.40 1.37005
583.50 1.314618
583.60 1.261798
583.70 1.221605
583.80 1.202225
583.90 1.207672
584.00 1.237895
584.10 1.276474
584.20 1.321838
584.30 1.370209
584.40 1.416207
584.50 1.454294
584.60 1.4811
584.70 1.493519
584.80 1.485809
584.90 1.463508
585.00 1.432489
585.10 1.397669
585.20 1.36386
585.30 1.334935
585.40 1.311284
585.50 1.288625
585.60 1.260163
585.70 1.220891
585.80 1.181606
585.90 1.137328
586.00 1.083625
586.10 1.019482
586.20 0.948257
586.30 0.8762143
586.40 0.8095074
586.50 0.7520082
586.60 0.704537
586.70 0.6682415
586.80 0.6556953
586.90 0.6621344
587.00 0.6825941
587.10 0.7133628
587.20 0.7517469
587.30 0.7961298
587.40 0.847106
587.50 0.905722
587.60 0.9703843
587.70 1.036608
587.80 1.098552
587.90 1.149954
588.00 1.185532
588.10 1.202273
588.20 1.200102
588.30 1.182193
588.40 1.154469
588.50 1.124575
588.60 1.099334
588.70 1.0837
588.80 1.075856
588.90 1.070689
589.00 1.063992
589.10 1.052874
589.20 1.035264
589.30 1.017357
589.40 1.004272
589.50 1.002311
589.60 1.016831
589.70 1.048887
589.80 1.081902
589.90 1.114376
590.00 1.145627
590.10 1.175578
590.20 1.205133
590.30 1.235737
590.40 1.269107
590.50 1.306612
590.60 1.346529
590.70 1.381206
590.80 1.390461
590.90 1.373183
591.00 1.332558
591.10 1.275295
591.20 1.213091
591.30 1.14944
591.40 1.084723
591.50 1.01921
591.60 0.9515712
591.70 0.8794809
591.80 0.8031415
591.90 0.7295482
592.00 0.663528
592.10 0.6082084
592.20 0.5650158
592.30 0.5345541
592.40 0.5162792
592.50 0.5080867
592.60 0.5102195
592.70 0.5199198
592.80 0.5344135
592.90 0.5523312
593.00 0.572214
593.10 0.5931797
593.20 0.6152361
593.30 0.6324978
593.40 0.6437879
593.50 0.6498168
593.60 0.6526212
593.70 0.654589
593.80 0.6571369
593.90 0.6600481
594.00 0.6626359
594.10 0.6649451
594.20 0.6681005
594.30 0.6739898
594.40 0.6839982
594.50 0.6979017
594.60 0.7148323
594.70 0.7343258
594.80 0.7562057
594.90 0.7798168
595.00 0.8030543
595.10 0.8234858
595.20 0.83706
595.30 0.8493426
595.40 0.8662923
595.50 0.8895205
595.60 0.9188861
595.70 0.9537723
595.80 0.9911323
595.90 1.022959
596.00 1.046534
596.10 1.062769
596.20 1.074579
596.30 1.085262
596.40 1.097542
596.50 1.113671
596.60 1.131489
596.70 1.14876
596.80 1.165744
596.90 1.182663
597.00 1.200508
597.10 1.22051
597.20 1.24398
597.30 1.27165
597.40 1.302074
597.50 1.33244
597.60 1.36078
597.70 1.387024
597.80 1.412798
597.90 1.439264
598.00 1.465509
598.10 1.48957
598.20 1.508435
598.30 1.518282
598.40 1.515739
598.50 1.500308
598.60 1.476299
598.70 1.451469
598.80 1.434659
598.90 1.433905
599.00 1.453755
599.10 1.493708
599.20 1.548998
599.30 1.612533
599.40 1.677699
599.50 1.739362
599.60 1.793849
599.70 1.839084
599.80 1.87513
599.90 1.903647
600.00 2.403328
600.10 2.252865
600.20 2.063023
600.30 1.853611
600.40 1.633444
600.50 1.439061
600.60 1.313554
600.70 1.286133
600.80 1.399252
600.90 1.67965
601.00 2.059681
601.10 2.432972
601.20 2.754584
601.30 3.032687
601.40 3.284643
601.50 3.470843
601.60 3.500232
601.70 3.316182
601.80 2.936246
601.90 2.413766
602.00 1.803612
602.10 1.199583
602.20 0.7244433
602.30 0.4451035
602.40 0.3808944
602.50 0.525697
602.60 0.8400592
602.70 1.298675
602.80 1.861042
602.90 2.432781
603.00 2.949321
603.10 3.381391
603.20 3.676653
603.30 3.782133
603.40 3.692431
603.50 3.46947
603.60 3.183231
603.70 2.908254
603.80 2.753018
603.90 2.798805
604.00 3.055614
604.10 3.433861
604.20 3.814633
604.30 4.124188
604.40 4.287585
604.50 4.25626
604.60 4.059292
604.70 3.75713
604.80 3.394796
604.90 3.004559
605.00 2.64036
605.10 2.358485
605.20 2.172761
605.30 2.089922
605.40 2.098865
605.50 2.163825
605.60 2.240838
605.70 2.300764
605.80 2.349195
605.90 2.385054
606.00 2.37387
606.10 2.290687
606.20 2.161622
606.30 2.041469
606.40 2.002975
606.50 2.136808
606.60 2.482983
606.70 2.982956
606.80 3.533395
606.90 4.015131
607.00 4.311784
607.10 4.358007
607.20 4.16493
607.30 3.801731
607.40 3.359246
607.50 2.909347
607.60 2.509673
607.70 2.203191
607.80 1.987137
607.90 1.825065
608.00 1.680399
608.10 1.512476
608.20 1.307376
608.30 1.113707
608.40 0.9873079
608.50 0.9458041
608.60 0.9722433
608.70 1.034902
608.80 1.13072
608.90 1.287816
609.00 1.523637
609.10 1.850229
609.20 2.265395
609.30 2.71076
609.40 3.111011
609.50 3.469973
609.60 3.821466
609.70 4.160274
609.80 4.462196
609.90 4.707778
610.00 4.881304
610.10 4.985011
610.20 5.025159
610.30 5.007214
610.40 4.938072
610.50 4.769419
610.60 4.486205
610.70 4.166966
610.80 3.902799
610.90 3.722178
611.00 3.608402
611.10 3.547258
611.20 3.532966
611.30 3.562806
611.40 3.632737
611.50 3.709338
611.60 3.740603
611.70 3.693528
611.80 3.556691
611.90 3.391267
612.00 3.260507
612.10 3.168087
612.20 3.103826
612.30 3.047516
612.40 2.954173
612.50 2.789209
612.60 2.560099
612.70 2.30024
612.80 2.042982
612.90 1.83461
613.00 1.730316
613.10 1.756438
613.20 1.924707
613.30 2.187356
613.40 2.455396
613.50 2.67738
613.60 2.848893
613.70 2.995132
613.80 3.172664
613.90 3.432068
614.00 3.789665
614.10 4.217903
614.20 4.640794
614.30 4.949197
614.40 5.059151
614.50 4.956117
614.60 4.662429
614.70 4.267692
614.80 3.885167
614.90 3.584776
615.00 3.399517
615.10 3.357529
615.20 3.458384
615.30 3.633168
615.40 3.791834
615.50 3.879681
615.60 3.910736
615.70 3.953655
615.80 4.071386
615.90 4.281115
616.00 4.562642
616.10 4.866293
616.20 5.107762
616.30 5.202251
616.40 5.107665
616.50 4.828551
616.60 4.428703
616.70 3.994361
616.80 3.57971
616.90 3.231773
617.00 2.978145
617.10 2.805569
617.20 2.678769
617.30 2.552836
617.40 2.4072
617.50 2.240942
617.60 2.083327
617.70 1.996782
617.80 2.021012
617.90 2.14588
618.00 2.328407
618.10 2.548783
618.20 2.78012
618.30 2.959246
618.40 3.044866
618.50 3.029036
618.60 2.924484
618.70 2.771259
618.80 2.6354
618.90 2.580601
619.00 2.652666
619.10 2.848461
619.20 3.120333
619.30 3.406754
619.40 3.595381
619.50 3.607704
619.60 3.494853
619.70 3.363251
619.80 3.266426
619.90 3.214246
620.00 3.231107
620.10 3.338183
620.20 3.511551
620.30 3.696409
620.40 3.838607
620.50 3.889993
620.60 3.825891
620.70 3.658981
620.80 3.466966
620.90 3.306694
621.00 3.159243
621.10 2.989966
621.20 2.810112
621.30 2.6736
621.40 2.589263
621.50 2.510766
621.60 2.421314
621.70 2.341296
621.80 2.268776
621.90 2.192511
622.00 2.130958
622.10 2.103171
622.20 2.103062
622.30 2.133822
622.40 2.214064
622.50 2.368262
622.60 2.600425
622.70 2.875231
622.80 3.171681
622.90 3.506339
623.00 3.86434
623.10 4.209869
623.20 4.517446
623.30 4.763498
623.40 4.902651
623.50 4.895434
623.60 4.756705
623.70 4.523178
623.80 4.223088
623.90 3.881232
624.00 3.547203
624.10 3.285824
624.20 3.137618
624.30 3.110048
624.40 3.190125
624.50 3.334572
624.60 3.495545
624.70 3.641692
624.80 3.746973
624.90 3.793471
625.00 3.772221
625.10 3.706965
625.20 3.670424
625.30 3.70137
625.40 3.776817
625.50 3.885988
625.60 4.011019
625.70 4.106835
625.80 4.137487
625.90 4.101098
626.00 4.026435
626.10 3.946347
626.20 3.888083
626.30 3.834629
626.40 3.757358
626.50 3.645409
626.60 3.471851
626.70 3.242748
626.80 3.001531
626.90 2.787942
627.00 2.657912
627.10 2.665822
627.20 2.819768
627.30 3.095993
627.40 3.440403
627.50 3.767647
627.60 3.990029
627.70 4.078844
627.80 4.050131
627.90 3.92522
628.00 3.756657
628.10 3.625863
628.20 3.59866
628.30 3.703564
628.40 3.919384
628.50 4.199019
628.60 4.5098
628.70 4.785508
628.80 4.955778
628.90 5.008786
629.00 4.972261
629.10 4.883262
629.20 4.780049
629.30 4.703801
629.40 4.687778
629.50 4.722521
629.60 4.823895
629.70 5.043743
629.80 5.36452
629.90 5.720162
630.00 6.026687
630.10 6.223794
630.20 6.282776
630.30 6.190203
630.40 5.977779
630.50 5.714213
630.60 5.460449
630.70 5.25028
630.80 5.086192
630.90 4.98576
631.00 4.952705
631.10 4.929906
631.20 4.917695
631.30 4.941862
631.40 5.010933
631.50 5.133039
631.60 5.29912
631.70 5.484132
631.80 5.642376
631.90 5.727944
632.00 5.73071
632.10 5.680617
632.20 5.625457
632.30 5.60685
632.40 5.623496
632.50 5.638364
632.60 5.592362
632.70 5.453435
632.80 5.222975
632.90 4.927283
633.00 4.622342
633.10 4.370614
633.20 4.225733
633.30 4.234948
633.40 4.417839
633.50 4.730389
633.60 5.09951
633.70 5.477135
633.80 5.836432
633.90 6.177143
634.00 6.516034
634.10 6.84325
634.20 7.13055
634.30 7.350731
634.40 7.48276
634.50 7.524411
634.60 7.503059
634.70 7.433776
634.80 7.318827
634.90 7.170218
635.00 7.023967
635.10 6.895831
635.20 6.786466
635.30 6.68192
635.40 6.548632
635.50 6.390071
635.60 6.217193
635.70 6.052234
635.80 5.967712
635.90 6.030162
636.00 6.263434
636.10 6.668552
636.20 7.205777
636.30 7.817402
636.40 8.400673
636.50 8.837776
636.60 9.03433
636.70 8.951298
636.80 8.630416
636.90 8.154717
637.00 7.65132
637.10 7.23204
637.20 6.92774
637.30 6.737193
637.40 6.654253
637.50 6.656522
637.60 6.706969
637.70 6.738757
637.80 6.697297
637.90 6.551821
638.00 6.31183
638.10 6.039372
638.20 5.800297
638.30 5.629974
638.40 5.550999
638.50 5.570198
638.60 5.667114
638.70 5.802721
638.80 5.926676
638.90 5.998472
639.00 6.015839
639.10 6.02453
639.20 6.078112
639.30 6.208454
639.40 6.394457
639.50 6.57059
639.60 6.679518
639.70 6.7101
639.80 6.675609
639.90 6.593089
640.00 6.480176
640.10 6.3679
640.20 6.305834
640.30 6.319599
640.40 6.39739
640.50 6.507563
640.60 6.604472
640.70 6.647479
640.80 6.646422
640.90 6.638753
641.00 6.650944
641.10 6.67837
641.20 6.685848
641.30 6.657929
641.40 6.604755
641.50 6.527037
641.60 6.412005
641.70 6.264297
641.80 6.124205
641.90 6.035704
642.00 6.035081
642.10 6.139321
642.20 6.33008
642.30 6.560681
642.40 6.765251
642.50 6.904587
642.60 6.978826
642.70 6.99806
642.80 6.994078
642.90 7.015651
643.00 7.089208
643.10 7.206288
643.20 7.327054
643.30 7.412445
643.40 7.448928
643.50 7.439879
643.60 7.370637
643.70 7.220217
643.80 7.003232
643.90 6.757132
644.00 6.544449
644.10 6.428083
644.20 6.435451
644.30 6.561022
644.40 6.778451
644.50 7.056115
644.60 7.354698
644.70 7.62386
644.80 7.814471
644.90 7.894784
645.00 7.873857
645.10 7.780278
645.20 7.637913
645.30 7.471942
645.40 7.278425
645.50 7.053565
645.60 6.825935
645.70 6.632962
645.80 6.517222
645.90 6.508753
646.00 6.611941
646.10 6.792287
646.20 6.986457
646.30 7.13779
646.40 7.20074
646.50 7.174579
646.60 7.100437
646.70 7.00221
646.80 6.911057
646.90 6.862491
647.00 6.852655
647.10 6.857803
647.20 6.850012
647.30 6.815637
647.40 6.764478
647.50 6.717715
647.60 6.693014
647.70 6.69382
647.80 6.725309
647.90 6.786694
648.00 6.865178
648.10 6.961921
648.20 7.069863
648.30 7.169513
648.40 7.258994
648.50 7.352781
648.60 7.464305
648.70 7.583557
648.80 7.672595
648.90 7.68937
649.00 7.623197
649.10 7.502033
649.20 7.383285
649.30 7.323046
649.40 7.377218
649.50 7.576342
649.60 7.898709
649.70 8.283019
649.80 8.638404
649.90 8.884215
650.00 9.002309
650.10 8.997903
650.20 8.881494
650.30 8.715974
650.40 8.597736
650.50 8.617101
650.60 8.804042
650.70 9.126446
650.80 9.499903
650.90 9.837319
651.00 10.06585
651.10 10.12842
651.20 10.03402
651.30 9.826163
651.40 9.534629
651.50 9.228129
651.60 9.010343
651.70 8.944027
651.80 9.010091
651.90 9.136106
652.00 9.271451
652.10 9.390773
652.20 9.481942
652.30 9.539752
652.40 9.574219
652.50 9.612067
652.60 9.677501
652.70 9.804114
652.80 10.01835
652.90 10.31636
653.00 10.66078
653.10 11.01453
653.20 11.3672
653.30 11.6966
653.40 11.97673
653.50 12.20385
653.60 12.38053
653.70 12.4947
653.80 12.54515
653.90 12.55767
654.00 12.5386
654.10 12.47282
654.20 12.36509
654.30 12.21167
654.40 12.00909
654.50 11.78257
654.60 11.55547
654.70 11.34882
654.80 11.18741
654.90 11.09608
655.00 11.10616
655.10 11.2368
655.20 11.4591
655.30 11.70784
655.40 11.95237
655.50 12.17488
655.60 12.32855
655.70 12.4115
655.80 12.49733
655.90 12.68159
656.00 13.02055
656.10 13.50344
656.20 14.05904
656.30 14.58357
656.40 14.97059
656.50 15.1559
656.60 15.1526
656.70 15.00141
656.80 14.71595
656.90 14.32033
657.00 13.87326
657.10 13.42888
657.20 13.03482
657.30 12.7284
657.40 12.54038
657.50 12.52307
657.60 12.70339
657.70 13.02466
657.80 13.38832
657.90 13.70479
658.00 13.89611
658.10 13.91954
658.20 13.7876
658.30 13.55248
658.40 13.28879
658.50 13.07932
658.60 12.95933
658.70 12.89267
658.80 12.83504
658.90 12.74729
659.00 12.59784
659.10 12.4114
659.20 12.21663
659.30 12.01805
659.40 11.84124
659.50 11.72219
659.60 11.68553
659.70 11.73227
659.80 11.85453
659.90 12.03659
660.00 12.25517
660.10 12.48289
660.20 12.67114
660.30 12.77721
660.40 12.80694
660.50 12.78464
660.60 12.7373
660.70 12.69616
660.80 12.67161
660.90 12.65981
661.00 12.64398
661.10 12.61774
661.20 12.56939
661.30 12.4795
661.40 12.35871
661.50 12.25097
661.60 12.22254
661.70 12.31397
661.80 12.48864
661.90 12.66865
662.00 12.78627
662.10 12.79171
662.20 12.66343
662.30 12.42657
662.40 12.15194
662.50 11.91129
662.60 11.77574
662.70 11.80347
662.80 11.98167
662.90 12.24263
663.00 12.50829
663.10 12.71295
663.20 12.82642
663.30 12.85864
663.40 12.85985
663.50 12.88857
663.60 12.98312
663.70 13.15584
663.80 13.39217
663.90 13.6471
664.00 13.85873
664.10 13.98812
664.20 14.0288
664.30 14.0056
664.40 13.96624
664.50 13.94568
664.60 13.94626
664.70 13.94468
664.80 13.91079
664.90 13.84004
665.00 13.73975
665.10 13.62564
665.20 13.53723
665.30 13.5237
665.40 13.60703
665.50 13.77575
665.60 14.00721
665.70 14.24727
665.80 14.42371
665.90 14.48466
666.00 14.41185
666.10 14.22208
666.20 13.95473
666.30 13.65458
666.40 13.38524
666.50 13.2071
666.60 13.14232
666.70 13.19607
666.80 13.36993
666.90 13.64862
667.00 14.00207
667.10 14.40052
667.20 14.79653
667.30 15.14236
667.40 15.42083
667.50 15.61641
667.60 15.70874
667.70 15.6869
667.80 15.54856
667.90 15.30184
668.00 14.98503
668.10 14.66607
668.20 14.41545
668.30 14.28279
668.40 14.28618
668.50 14.4068
668.60 14.58961
668.70 14.76673
668.80 14.85837
668.90 14.81813
669.00 14.66214
669.10 14.44233
669.20 14.22484
669.30 14.0859
669.40 14.08049
669.50 14.20443
669.60 14.42766
669.70 14.71045
669.80 14.98792
669.90 15.19412
670.00 15.28868
670.10 15.24354
670.20 15.06728
670.30 14.79871
670.40 14.46604
670.50 14.09843
670.60 13.72882
670.70 13.37876
670.80 13.07852
670.90 12.88193
671.00 12.81747
671.10 12.86685
671.20 13.00937
671.30 13.24843
671.40 13.58277
671.50 14.00075
671.60 14.47743
671.70 14.96785
671.80 15.42769
671.90 15.81246
672.00 16.09877
672.10 16.29904
672.20 16.42743
672.30 16.48368
672.40 16.47383
672.50 16.43829
672.60 16.42941
672.70 16.44641
672.80 16.47258
672.90 16.50642
673.00 16.52859
673.10 16.51344
673.20 16.45199
673.30 16.372
673.40 16.30777
673.50 16.25776
673.60 16.20935
673.70 16.15131
673.80 16.08645
673.90 16.03302
674.00 16.00212
674.10 16.0125
674.20 16.0801
674.30 16.20148
674.40 16.37505
674.50 16.60385
674.60 16.86772
674.70 17.11331
674.80 17.2816
674.90 17.33614
675.00 17.27523
675.10 17.14421
675.20 16.98831
675.30 16.81792
675.40 16.64577
675.50 16.48968
675.60 16.35405
675.70 16.24165
675.80 16.1673
675.90 16.12459
676.00 16.09494
676.10 16.06509
676.20 16.02963
676.30 16.00544
676.40 16.01294
676.50 16.0438
676.60 16.0775
676.70 16.10084
676.80 16.108
676.90 16.12728
677.00 16.19659
677.10 16.31042
677.20 16.41681
677.30 16.49287
677.40 16.56499
677.50 16.6675
677.60 16.8072
677.70 16.95492
677.80 17.07549
677.90 17.15794
678.00 17.21805
678.10 17.2786
678.20 17.32988
678.30 17.30468
678.40 17.15066
678.50 16.88996
678.60 16.59177
678.70 16.31795
678.80 16.08478
678.90 15.88811
679.00 15.73891
679.10 15.65294
679.20 15.63326
679.30 15.68577
679.40 15.81426
679.50 15.99049
679.60 16.17663
679.70 16.34487
679.80 16.46279
679.90 16.49963
680.00 16.44872
680.10 16.32695
680.20 16.17004
680.30 16.01666
680.40 15.90093
680.50 15.83717
680.60 15.81096
680.70 15.77461
680.80 15.65968
680.90 15.44864
681.00 15.18255
681.10 14.93341
681.20 14.76402
681.30 14.69211
681.40 14.69568
681.50 14.74678
681.60 14.8195
681.70 14.87904
681.80 14.88576
681.90 14.81884
682.00 14.69665
682.10 14.5659
682.20 14.47738
682.30 14.45517
682.40 14.49305
682.50 14.53336
682.60 14.51512
682.70 14.45979
682.80 14.42615
682.90 14.42134
683.00 14.42027
683.10 14.40841
683.20 14.39409
683.30 14.40572
683.40 14.44305
683.50 14.46094
683.60 14.4306
683.70 14.3548
683.80 14.25775
683.90 14.2268
684.00 14.35813
684.10 14.65408
684.20 15.03848
684.30 15.42601
684.40 15.74039
684.50 15.93783
684.60 16.00311
684.70 15.92062
684.80 15.69618
684.90 15.38978
685.00 15.07503
685.10 14.81233
685.20 14.65913
685.30 14.62237
685.40 14.65754
685.50 14.7235
685.60 14.80864
685.70 14.92109
685.80 15.08031
685.90 15.29537
686.00 15.55214
686.10 15.81257
686.20 16.02352
686.30 16.14435
686.40 16.172
686.50 16.13581
686.60 16.04214
686.70 15.89319
686.80 15.71403
686.90 15.52322
687.00 15.34049
687.10 15.18377
687.20 15.062
687.30 14.97065
687.40 14.87898
687.50 14.77202
687.60 14.67561
687.70 14.6022
687.80 14.52399
687.90 14.38254
688.00 14.1573
688.10 13.89921
688.20 13.67905
688.30 13.56154
688.40 13.59631
688.50 13.78902
688.60 14.06755
688.70 14.31473
688.80 14.45749
688.90 14.48655
689.00 14.43069
689.10 14.32763
689.20 14.19535
689.30 14.06442
689.40 13.96071
689.50 13.88008
689.60 13.81622
689.70 13.74283
689.80 13.60648
689.90 13.38104
690.00 13.10836
690.10 12.86613
690.20 12.70178
690.30 12.62265
690.40 12.61969
690.50 12.69239
690.60 12.83708
690.70 13.05353
690.80 13.37183
690.90 13.79026
691.00 14.25048
691.10 14.68042
691.20 14.99927
691.30 15.13156
691.40 15.04347
691.50 14.73572
691.60 14.26063
691.70 13.74921
691.80 13.31819
691.90 13.00263
692.00 12.82266
692.10 12.79036
692.20 12.8716
692.30 13.02674
692.40 13.24441
692.50 13.51882
692.60 13.84502
692.70 14.21583
692.80 14.61215
692.90 15.01733
693.00 15.40624
693.10 15.71588
693.20 15.89126
693.30 15.93305
693.40 15.87675
693.50 15.75333
693.60 15.58828
693.70 15.41273
693.80 15.24483
693.90 15.11258
694.00 15.06152
694.10 15.12875
694.20 15.34865
694.30 15.74598
694.40 16.34209
694.50 17.11873
694.60 17.96805
694.70 18.76945
694.80 19.43533
694.90 19.87253
695.00 19.99867
695.10 19.78847
695.20 19.29684
695.30 18.63038
695.40 17.89386
695.50 17.19812
695.60 16.63523
695.70 16.24856
695.80 16.00128
695.90 15.80974
696.00 15.65122
696.10 15.52942
696.20 15.41358
696.30 15.30557
696.40 15.24809
696.50 15.29274
696.60 15.45966
696.70 15.72189
696.80 16.04694
696.90 16.36697
697.00 16.59765
697.10 16.68468
697.20 16.62972
697.30 16.50398
697.40 16.39311
697.50 16.36322
697.60 16.46743
697.70 16.69777
697.80 17.00579
697.90 17.30999
698.00 17.51738
698.10 17.58946
698.20 17.53649
698.30 17.42042
698.40 17.32138
698.50 17.30214
698.60 17.38577
698.70 17.54167
698.80 17.72164
698.90 17.88099
699.00 17.98918
699.10 18.05005
699.20 18.08071
699.30 18.0961
699.40 18.09454
699.50 18.05391
699.60 17.97264
699.70 17.85342
699.80 17.69134
699.90 17.50718
700.00 17.35114
700.10 17.27948
700.20 17.32976
700.30 17.50779
700.40 17.78126
700.50 18.11837
700.60 18.48204
700.70 18.81042
700.80 19.07983
700.90 19.31525
701.00 19.51615
701.10 19.67558
701.20 19.81201
701.30 19.93589
701.40 20.05668
701.50 20.17802
701.60 20.29143
701.70 20.39039
701.80 20.4778
701.90 20.54515
702.00 20.57273
702.10 20.56487
702.20 20.54045
702.30 20.49346
702.40 20.42439
702.50 20.35167
702.60 20.30457
702.70 20.32325
702.80 20.41824
702.90 20.59658
703.00 20.87154
703.10 21.22855
703.20 21.63527
703.30 22.06416
703.40 22.48961
703.50 22.90116
703.60 23.3188
703.70 23.75784
703.80 24.19706
703.90 24.62316
704.00 25.01424
704.10 25.31948
704.20 25.51298
704.30 25.58961
704.40 25.54206
704.50 25.38036
704.60 25.14982
704.70 24.91775
704.80 24.75637
704.90 24.69247
705.00 24.67841
705.10 24.65403
705.20 24.60219
705.30 24.50468
705.40 24.30959
705.50 23.98586
705.60 23.55178
705.70 23.0514
705.80 22.55329
705.90 22.14019
706.00 21.88355
706.10 21.81737
706.20 21.92318
706.30 22.1573
706.40 22.46955
706.50 22.80929
706.60 23.13128
706.70 23.39706
706.80 23.61479
706.90 23.81426
707.00 23.99367
707.10 24.13757
707.20 24.2484
707.30 24.36574
707.40 24.5315
707.50 24.75245
707.60 25.00967
707.70 25.28004
707.80 25.54986
707.90 25.80033
708.00 25.98109
708.10 26.0467
708.20 25.98552
708.30 25.80989
708.40 25.5542
708.50 25.24696
708.60 24.92108
708.70 24.6031
708.80 24.28234
708.90 23.94031
709.00 23.5883
709.10 23.27289
709.20 23.03409
709.30 22.88277
709.40 22.83084
709.50 22.89572
709.60 23.05502
709.70 23.25573
709.80 23.44417
709.90 23.60366
710.00 23.72964
710.10 23.80013
710.20 23.83445
710.30 23.87487
710.40 23.93842
710.50 24.01369
710.60 24.08517
710.70 24.15408
710.80 24.22879
710.90 24.30301
711.00 24.3803
711.10 24.47619
711.20 24.59957
711.30 24.75223
711.40 24.91748
711.50 25.05739
711.60 25.12253
711.70 25.08378
711.80 24.9494
711.90 24.76391
712.00 24.57069
712.10 24.39696
712.20 24.2629
712.30 24.17406
712.40 24.10705
712.50 24.0357
712.60 23.96608
712.70 23.91902
712.80 23.89989
712.90 23.90219
713.00 23.92992
713.10 23.97756
713.20 23.99755
713.30 23.94367
713.40 23.83527
713.50 23.72898
713.60 23.67345
713.70 23.69655
713.80 23.83175
713.90 24.09733
714.00 24.45591
714.10 24.82408
714.20 25.13647
714.30 25.39589
714.40 25.60693
714.50 25.78149
714.60 25.98682
714.70 26.27198
714.80 26.62431
714.90 26.98804
715.00 27.28192
715.10 27.43795
715.20 27.40894
715.30 27.20185
715.40 26.88432
715.50 26.55545
715.60 26.31258
715.70 26.20355
715.80 26.24275
715.90 26.41411
716.00 26.66448
716.10 26.9295
716.20 27.16107
716.30 27.35217
716.40 27.52722
716.50 27.71829
716.60 27.95027
716.70 28.18675
716.80 28.3508
716.90 28.38643
717.00 28.25968
717.10 27.98219
717.20 27.60926
717.30 27.2185
717.40 26.89324
717.50 26.69532
717.60 26.6574
717.70 26.78145
717.80 27.03707
717.90 27.35454
718.00 27.65522
718.10 27.91601
718.20 28.13552
718.30 28.30439
718.40 28.43791
718.50 28.56047
718.60 28.70063
718.70 28.88258
718.80 29.10722
718.90 29.36295
719.00 29.61771
719.10 29.82352
719.20 29.96141
719.30 30.04203
719.40 30.07183
719.50 30.03584
719.60 29.9262
719.70 29.76543
719.80 29.59417
719.90 29.44795
720.00 29.36193
720.10 29.37384
720.20 29.47916
720.30 29.6309
720.40 29.78189
720.50 29.89036
720.60 29.91758
720.70 29.8596
720.80 29.7424
720.90 29.59745
721.00 29.47112
721.10 29.40927
721.20 29.43121
721.30 29.54326
721.40 29.72067
721.50 29.90249
721.60 30.05616
721.70 30.20128
721.80 30.34923
721.90 30.49295
722.00 30.63766
722.10 30.77075
722.20 30.87393
722.30 30.97284
722.40 31.10228
722.50 31.26393
722.60 31.4242
722.70 31.53102
722.80 31.56897
722.90 31.56151
723.00 31.5265
723.10 31.4629
723.20 31.3986
723.30 31.39876
723.40 31.52938
723.50 31.91489
723.60 32.6469
723.70 33.59967
723.80 34.55725
723.90 35.34435
724.00 35.8469
724.10 36.03265
724.20 35.88314
724.30 35.43491
724.40 34.81362
724.50 34.17016
724.60 33.6545
724.70 33.39386
724.80 33.46218
724.90 33.7943
725.00 34.26509
725.10 34.85617
725.20 35.54427
725.30 36.23245
725.40 36.80105
725.50 37.12687
725.60 37.13322
725.70 36.79162
725.80 36.16438
725.90 35.4175
726.00 34.71439
726.10 34.17574
726.20 33.87641
726.30 33.85761
726.40 34.10668
726.50 34.53194
726.60 35.00683
726.70 35.39966
726.80 35.60121
726.90 35.61995
727.00 35.66113
727.10 36.0469
727.20 36.97196
727.30 38.33344
727.40 39.7987
727.50 41.02224
727.60 41.73531
727.70 41.74576
727.80 41.04958
727.90 39.83183
728.00 38.3865
728.10 37.05544
728.20 36.14102
728.30 35.79522
728.40 35.93395
728.50 36.25057
728.60 36.40791
728.70 36.25609
728.80 35.8666
728.90 35.37103
729.00 34.89114
729.10 34.55901
729.20 34.45739
729.30 34.5974
729.40 34.93959
729.50 35.40766
729.60 35.91531
729.70 36.3984
729.80 36.78568
729.90 37.03278
730.00 37.17373
730.10 37.28702
730.20 37.43381
730.30 37.63195
730.40 37.87652
730.50 38.13792
730.60 38.34227
730.70 38.43479
730.80 38.387
730.90 38.21431
731.00 38.0395
731.10 38.03986
731.20 38.34751
731.30 38.9711
731.40 39.80288
731.50 40.65322
731.60 41.33465
731.70 41.7235
731.80 41.76405
731.90 41.50343
732.00 41.06861
732.10 40.60709
732.20 40.27439
732.30 40.20188
732.40 40.4398
732.50 40.89113
732.60 41.37679
732.70 41.77338
732.80 41.99973
732.90 42.00507
733.00 41.77106
733.10 41.31695
733.20 40.72245
733.30 40.10367
733.40 39.58449
733.50 39.29884
733.60 39.34527
733.70 39.73703
733.80 40.38311
733.90 41.11774
734.00 41.8003
734.10 42.31244
734.20 42.54069
734.30 42.43441
734.40 42.0208
734.50 41.40622
734.60 40.7505
734.70 40.1966
734.80 39.84266
734.90 39.70097
735.00 39.7154
735.10 39.81053
735.20 39.90193
735.30 39.93428
735.40 39.85851
735.50 39.63873
735.60 39.30212
735.70 38.91079
735.80 38.56607
735.90 38.36713
736.00 38.35462
736.10 38.52039
736.20 38.83864
736.30 39.30592
736.40 39.94975
736.50 40.75903
736.60 41.61387
736.70 42.31049
736.80 42.65737
736.90 42.57046
737.00 42.08923
737.10 41.34164
737.20 40.48274
737.30 39.66897
737.40 39.03519
737.50 38.6781
737.60 38.64935
737.70 38.90464
737.80 39.30784
737.90 39.69949
738.00 39.9558
738.10 40.04777
738.20 40.0296
738.30 39.97186
738.40 39.92362
738.50 39.90864
738.60 39.94553
738.70 40.05146
738.80 40.21926
738.90 40.42364
739.00 40.62395
739.10 40.78303
739.20 40.84695
739.30 40.77235
739.40 40.6012
739.50 40.43926
739.60 40.40041
739.70 40.52165
739.80 40.75264
739.90 41.01988
740.00 41.22503
740.10 41.26418
740.20 41.0731
740.30 40.63465
740.40 39.98359
740.50 39.18926
740.60 38.37899
740.70 37.70473
740.80 37.27323
740.90 37.10835
741.00 37.15548
741.10 37.35498
741.20 37.65351
741.30 37.99709
741.40 38.37629
741.50 38.76997
741.60 39.09588
741.70 39.27244
741.80 39.23839
741.90 38.96555
742.00 38.48557
742.10 37.88419
742.20 37.25956
742.30 36.7179
742.40 36.36286
742.50 36.25302
742.60 36.39091
742.70 36.7163
742.80 37.10507
742.90 37.42007
743.00 37.595
743.10 37.6142
743.20 37.50305
743.30 37.35277
743.40 37.22636
743.50 37.13041
743.60 37.09553
743.70 37.13006
743.80 37.17969
743.90 37.17786
744.00 37.08557
744.10 36.91548
744.20 36.70359
744.30 36.50244
744.40 36.37493
744.50 36.36877
744.60 36.49081
744.70 36.67749
744.80 36.85533
744.90 36.99623
745.00 37.07952
745.10 37.10942
745.20 37.12113
745.30 37.13903
745.40 37.17857
745.50 37.24976
745.60 37.3518
745.70 37.46911
745.80 37.57832
745.90 37.66379
746.00 37.71714
746.10 37.75284
746.20 37.83815
746.30 38.02128
746.40 38.27618
746.50 38.53504
746.60 38.72099
746.70 38.79072
746.80 38.74086
746.90 38.58019
747.00 38.29939
747.10 37.88763
747.20 37.36163
747.30 36.79079
747.40 36.2915
747.50 35.97372
747.60 35.88954
747.70 36.00891
747.80 36.25302
747.90 36.57001
748.00 36.93187
748.10 37.2593
748.20 37.44852
748.30 37.44011
748.40 37.25075
748.50 36.97285
748.60 36.74938
748.70 36.68661
748.80 36.80479
748.90 37.05581
749.00 37.35119
749.10 37.62511
749.20 37.83388
749.30 37.91941
749.40 37.84516
749.50 37.65325
749.60 37.43364
749.70 37.26443
749.80 37.17687
749.90 37.15353
750.00 37.14231
750.10 37.07486
750.20 36.92776
750.30 36.73145
750.40 36.53043
750.50 36.38566
750.60 36.37024
750.70 36.53316
750.80 36.87661
750.90 37.34699
751.00 37.83282
751.10 38.20895
751.20 38.41883
751.30 38.48789
751.40 38.44798
751.50 38.33195
751.60 38.17972
751.70 38.00558
751.80 37.84528
751.90 37.7648
752.00 37.80551
752.10 37.9538
752.20 38.1854
752.30 38.46584
752.40 38.73354
752.50 38.93905
752.60 39.04587
752.70 39.01855
752.80 38.86116
752.90 38.59777
753.00 38.2383
753.10 37.8385
753.20 37.4436
753.30 37.03859
753.40 36.61352
753.50 36.20575
753.60 35.86459
753.70 35.65157
753.80 35.63608
753.90 35.84362
754.00 36.23976
754.10 36.72941
754.20 37.18336
754.30 37.52357
754.40 37.74387
754.50 37.85629
754.60 37.87853
754.70 37.8396
754.80 37.78733
754.90 37.76055
755.00 37.75944
755.10 37.77434
755.20 37.80253
755.30 37.83417
755.40 37.86009
755.50 37.89506
755.60 37.97269
755.70 38.0922
755.80 38.20731
755.90 38.26462
756.00 38.22087
756.10 38.0321
756.20 37.68048
756.30 37.19794
756.40 36.66003
756.50 36.15809
756.60 35.80425
756.70 35.68876
756.80 35.81566
756.90 36.10676
757.00 36.43596
757.10 36.70425
757.20 36.8501
757.30 36.81375
757.40 36.58774
757.50 36.25455
757.60 35.91696
757.70 35.66494
757.80 35.56388
757.90 35.62557
758.00 35.80231
758.10 36.00914
758.20 36.15443
758.30 36.20079
758.40 36.11209
758.50 35.79827
758.60 35.21235
758.70 34.3985
758.80 33.44828
758.90 32.47301
759.00 31.56574
759.10 30.80794
759.20 30.29108
759.30 30.06218
759.40 30.09653
759.50 30.3445
759.60 30.77481
759.70 31.30406
759.80 31.84085
759.90 32.36997
760.00 32.8696
760.10 33.19116
760.20 33.16121
760.30 32.7321
760.40 31.91906
760.50 30.74526
760.60 29.29888
760.70 27.75795
760.80 26.38028
760.90 25.42997
761.00 25.05962
761.10 25.27159
761.20 25.93195
761.30 26.82201
761.40 27.67926
761.50 28.32166
761.60 28.64329
761.70 28.52608
761.80 27.96031
761.90 27.09152
762.00 26.11568
762.10 25.21417
762.20 24.48887
762.30 23.96976
762.40 23.64913
762.50 23.51194
762.60 23.5414
762.70 23.63248
762.80 23.62141
762.90 23.40078
763.00 22.93019
763.10 22.22135
763.20 21.34859
763.30 20.40275
763.40 19.48971
763.50 18.71069
763.60 18.11873
763.70 17.72934
763.80 17.53742
763.90 17.47669
764.00 17.42959
764.10 17.28465
764.20 16.96416
764.30 16.43473
764.40 15.70824
764.50 14.81711
764.60 13.81703
764.70 12.81431
764.80 11.89454
764.90 11.1169
765.00 10.54416
765.10 10.17274
765.20 9.909721
765.30 9.661487
765.40 9.357916
765.50 8.952537
765.60 8.461073
765.70 7.935352
765.80 7.430077
765.90 6.9963
766.00 6.656965
766.10 6.395046
766.20 6.15351
766.30 5.880579
766.40 5.548404
766.50 5.150397
766.60 4.723862
766.70 4.335689
766.80 4.065552
766.90 3.98318
767.00 4.110569
767.10 4.414819
767.20 4.83812
767.30 5.339548
767.40 5.89336
767.50 6.472482
767.60 7.06029
767.70 7.638539
767.80 8.202178
767.90 8.757715
768.00 9.300125
768.10 9.806292
768.20 10.2316
768.30 10.5335
768.40 10.69449
768.50 10.71597
768.60 10.59538
768.70 10.31532
768.80 9.879305
768.90 9.325146
769.00 8.716148
769.10 8.143152
769.20 7.653167
769.30 7.218098
769.40 6.80401
769.50 6.381825
769.60 5.919173
769.70 5.416077
769.80 4.901624
769.90 4.42372
770.00 4.054875
770.10 3.874546
770.20 3.928355
770.30 4.222122
770.40 4.727665
770.50 5.369591
770.60 6.098206
770.70 6.943219
770.80 7.96738
770.90 9.175998
771.00 10.53232
771.10 12.00326
771.20 13.49523
771.30 14.81139
771.40 15.76817
771.50 16.3467
771.60 16.65659
771.70 16.83267
771.80 17.0181
771.90 17.33853
772.00 17.83688
772.10 18.46929
772.20 19.14325
772.30 19.81338
772.40 20.44518
772.50 20.92991
772.60 21.21978
772.70 21.41219
772.80 21.61907
772.90 21.87977
773.00 22.19874
773.10 22.56008
773.20 22.9159
773.30 23.23278
773.40 23.52156
773.50 23.82534
773.60 24.16755
773.70 24.51753
773.80 24.85324
773.90 25.19593
774.00 25.56722
774.10 25.96104
774.20 26.33287
774.30 26.632
774.40 26.86615
774.50 27.1418
774.60 27.62229
774.70 28.36024
774.80 29.27653
774.90 30.21283
775.00 30.99031
775.10 31.51052
775.20 31.71662
775.30 31.61172
775.40 31.29107
775.50 30.90967
775.60 30.67048
775.70 30.73004
775.80 31.1006
775.90 31.63823
776.00 32.09683
776.10 32.29558
776.20 32.19683
776.30 31.86736
776.40 31.42923
776.50 30.98788
776.60 30.65677
776.70 30.54913
776.80 30.71654
776.90 31.13324
777.00 31.7137
777.10 32.34563
777.20 32.90748
777.30 33.28719
777.40 33.44607
777.50 33.42639
777.60 33.29647
777.70 33.15391
777.80 33.08995
777.90 33.16884
778.00 33.43108
778.10 33.82893
778.20 34.2251
778.30 34.47849
778.40 34.50292
778.50 34.25822
778.60 33.774
778.70 33.2011
778.80 32.78573
778.90 32.78479
779.00 33.32669
779.10 34.33832
779.20 35.61258
779.30 36.80358
779.40 37.48792
779.50 37.34624
779.60 36.23936
779.70 34.21196
779.80 31.49378
779.90 28.51847
780.00 25.85761
780.10 24.04197
780.20 23.38638
780.30 23.97072
780.40 25.66741
780.50 28.11555
780.60 30.84735
780.70 33.47455
780.80 35.71151
780.90 37.35824
781.00 38.35795
781.10 38.79381
781.20 38.84377
781.30 38.7162
781.40 38.58192
781.50 38.58086
781.60 38.86871
781.70 39.47672
781.80 40.29894
781.90 41.21491
782.00 42.03392
782.10 42.56356
782.20 42.69596
782.30 42.43786
782.40 41.90486
782.50 41.27121
782.60 40.70688
782.70 40.32392
782.80 40.17522
782.90 40.23854
783.00 40.38452
783.10 40.47341
783.20 40.41985
783.30 40.1871
783.40 39.84818
783.50 39.54604
783.60 39.40816
783.70 39.46869
783.80 39.68692
783.90 40.049
784.00 40.54734
784.10 41.12641
784.20 41.73244
784.30 42.34972
784.40 42.94642
784.50 43.47753
784.60 43.93482
784.70 44.39228
784.80 44.97475
784.90 45.71352
785.00 46.56777
785.10 47.46915
785.20 48.30018
785.30 48.9259
785.40 49.25802
785.50 49.28998
785.60 49.03767
785.70 48.5521
785.80 47.93806
785.90 47.30102
786.00 46.75881
786.10 46.38435
786.20 46.13305
786.30 45.93896
786.40 45.80954
786.50 45.82707
786.60 46.04456
786.70 46.40038
786.80 46.74737
786.90 46.92025
787.00 46.79515
787.10 46.3117
787.20 45.48751
787.30 44.47514
787.40 43.48803
787.50 42.73435
787.60 42.42789
787.70 42.74721
787.80 43.71508
787.90 45.12272
788.00 46.68537
788.10 48.15969
788.20 49.33721
788.30 50.09994
788.40 50.48689
788.50 50.58761
788.60 50.48707
788.70 50.27395
788.80 50.02447
788.90 49.80323
789.00 49.6552
789.10 49.56535
789.20 49.45676
789.30 49.322
789.40 49.19984
789.50 49.0894
789.60 48.99948
789.70 48.93148
789.80 48.8362
789.90 48.66419
790.00 48.45366
790.10 48.32822
790.20 48.37501
790.30 48.61237
790.40 48.97043
790.50 49.30242
790.60 49.45811
790.70 49.43352
790.80 49.48222
790.90 49.92348
791.00 50.91941
791.10 52.39312
791.20 54.03884
791.30 55.538
791.40 56.65408
791.50 57.19926
791.60 57.12853
791.70 56.52371
791.80 55.59282
791.90 54.69562
792.00 54.20376
792.10 54.22023
792.20 54.46617
792.30 54.5211
792.40 54.12454
792.50 53.30039
792.60 52.29827
792.70 51.41177
792.80 50.89236
792.90 50.88099
793.00 51.39861
793.10 52.37038
793.20 53.58733
793.30 54.72295
793.40 55.48763
793.50 55.73672
793.60 55.46115
793.70 54.81205
793.80 54.00164
793.90 53.19325
794.00 52.44737
794.10 51.70684
794.20 50.80347
794.30 49.51796
794.40 47.6778
794.50 45.30545
794.60 42.62797
794.70 39.98745
794.80 37.78146
794.90 36.39421
795.00 36.11565
795.10 37.0134
795.20 38.9153
795.30 41.47271
795.40 44.3063
795.50 47.04434
795.60 49.36713
795.70 51.12589
795.80 52.32886
795.90 53.10128
796.00 53.67158
796.10 54.33082
796.20 55.24808
796.30 56.40665
796.40 57.66494
796.50 58.7988
796.60 59.59241
796.70 59.91024
796.80 59.72255
796.90 59.12801
797.00 58.30931
797.10 57.44086
797.20 56.68658
797.30 56.17061
797.40 55.96848
797.50 56.06528
797.60 56.39613
797.70 56.89529
797.80 57.47257
797.90 58.02986
798.00 58.446
798.10 58.6038
798.20 58.39221
798.30 57.74101
798.40 56.69474
798.50 55.42933
798.60 54.19908
798.70 53.22983
798.80 52.65229
798.90 52.54045
799.00 52.97254
799.10 53.99053
799.20 55.48415
799.30 57.18209
799.40 58.80154
799.50 60.11613
799.60 60.97939
799.70 61.35434
799.80 61.29231
799.90 60.91597
800.00 60.36017
800.10 59.78091
800.20 59.34028
800.30 59.10183
800.40 59.00643
800.50 58.93995
800.60 58.83734
800.70 58.7322
800.80 58.72624
800.90 58.97156
801.00 59.57781
801.10 60.51485
801.20 61.63551
801.30 62.74164
801.40 63.65873
801.50 64.23762
801.60 64.38929
801.70 64.126
801.80 63.57125
801.90 62.92211
802.00 62.39314
802.10 62.21182
802.20 62.51457
802.30 63.26437
802.40 64.30817
802.50 65.47337
802.60 66.61866
802.70 67.6379
802.80 68.44838
802.90 68.97355
803.00 69.15767
803.10 69.01617
803.20 68.60291
803.30 67.99228
803.40 67.283
803.50 66.54933
803.60 65.84959
803.70 65.24042
803.80 64.79745
803.90 64.58911
804.00 64.62542
804.10 64.86439
804.20 65.25854
804.30 65.78037
804.40 66.37268
804.50 66.9971
804.60 67.68616
804.70 68.45457
804.80 69.29496
804.90 70.1872
805.00 71.09615
805.10 71.97098
805.20 72.74079
805.30 73.36417
805.40 73.82913
805.50 74.16366
805.60 74.43974
805.70 74.82016
805.80 75.46084
805.90 76.31831
806.00 77.19374
806.10 77.86884
806.20 78.18402
806.30 78.08835
806.40 77.58547
806.50 76.7236
806.60 75.64253
806.70 74.55067
806.80 73.68238
806.90 73.23631
807.00 73.33198
807.10 73.89764
807.20 74.75122
807.30 75.77197
807.40 76.89005
807.50 78.04076
807.60 79.13713
807.70 80.05854
807.80 80.71879
807.90 81.1593
808.00 81.51019
808.10 81.88208
808.20 82.33254
808.30 82.83113
808.40 83.25679
808.50 83.50033
808.60 83.54797
808.70 83.46211
808.80 83.32286
808.90 83.244
809.00 83.33607
809.10 83.65833
809.20 84.20175
809.30 84.82208
809.40 85.29818
809.50 85.4416
809.60 85.1647
809.70 84.51988
809.80 83.66772
809.90 82.80559
810.00 82.08924
810.10 81.59444
810.20 81.28048
810.30 81.05496
810.40 80.87004
810.50 80.73543
810.60 80.69447
810.70 80.81495
810.80 81.17093
810.90 81.7892
811.00 82.60564
811.10 83.4911
811.20 84.27745
811.30 84.80623
811.40 85.01069
811.50 84.93049
811.60 84.73347
811.70 84.59386
811.80 84.60857
811.90 84.84058
812.00 85.32548
812.10 86.05689
812.20 86.97038
812.30 87.98905
812.40 89.06007
812.50 90.13123
812.60 91.16212
812.70 92.11836
812.80 92.92994
812.90 93.53316
813.00 93.90755
813.10 94.07122
813.20 94.07643
813.30 94.00391
813.40 93.95042
813.50 94.00777
813.60 94.22005
813.70 94.55056
813.80 94.88192
813.90 95.08231
814.00 95.03187
814.10 94.66895
814.20 94.04316
814.30 93.23288
814.40 92.30887
814.50 91.41534
814.60 90.70556
814.70 90.22889
814.80 90.00047
814.90 90.03803
815.00 90.31374
815.10 90.74441
815.20 91.23284
815.30 91.69248
815.40 92.1374
815.50 92.64038
815.60 93.19979
815.70 93.81983
815.80 94.53957
815.90 95.3383
816.00 96.19429
816.10 97.12536
816.20 98.08923
816.30 98.99368
816.40 99.77074
816.50 100.4214
816.60 101.0015
816.70 101.5616
816.80 102.0765
816.90 102.4659
817.00 102.7018
817.10 102.7871
817.20 102.7337
817.30 102.5697
817.40 102.3077
817.50 101.9258
817.60 101.3611
817.70 100.4858
817.80 99.12005
817.90 97.09519
818.00 94.35929
818.10 91.06048
818.20 87.5361
818.30 84.28143
818.40 81.85585
818.50 80.72663
818.60 81.08517
818.70 82.75111
818.80 85.18747
818.90 87.65669
819.00 89.38807
819.10 89.75542
819.20 88.47137
819.30 85.71396
819.40 82.09963
819.50 78.48399
819.60 75.7216
819.70 74.43146
819.80 74.86859
819.90 76.873
820.00 79.98559
820.10 83.66457
820.20 87.39544
820.30 90.758
820.40 93.51844
820.50 95.65548
820.60 97.29828
820.70 98.55735
820.80 99.46503
820.90 100.051
821.00 100.3446
821.10 100.3853
821.20 100.1945
821.30 99.8651
821.40 99.54349
821.50 99.29644
821.60 99.1634
821.70 99.17513
821.80 99.35065
821.90 99.68435
822.00 100.1299
822.10 100.6937
822.20 101.4224
822.30 102.2923
822.40 103.23
822.50 104.1749
822.60 105.1221
822.70 106.0202
822.80 106.7599
822.90 107.2856
823.00 107.6135
823.10 107.7672
823.20 107.754
823.30 107.6338
823.40 107.5388
823.50 107.5404
823.60 107.6251
823.70 107.8544
823.80 108.3168
823.90 109.0021
824.00 109.801
824.10 110.6071
824.20 111.4016
824.30 112.1722
824.40 112.8769
824.50 113.5377
824.60 114.2038
824.70 114.8378
824.80 115.3339
824.90 115.6444
825.00 115.7544
825.10 115.5684
825.20 114.9965
825.30 114.0483
825.40 112.8594
825.50 111.6522
825.60 110.6143
825.70 109.9062
825.80 109.6442
825.90 109.8381
826.00 110.4159
826.10 111.2636
826.20 112.2383
826.30 113.1586
826.40 113.872
826.50 114.2866
826.60 114.3882
826.70 114.2565
826.80 113.9998
826.90 113.7285
827.00 113.5425
827.10 113.4754
827.20 113.4814
827.30 113.5078
827.40 113.5562
827.50 113.6899
827.60 113.9847
827.70 114.5647
827.80 115.5366
827.90 116.8108
828.00 118.1299
828.10 119.1636
828.20 119.6803
828.30 119.6396
828.40 119.1202
828.50 118.2557
828.60 117.0937
828.70 115.6166
828.80 113.9054
828.90 112.1087
829.00 110.3698
829.10 108.7535
829.20 107.2605
829.30 106.042
829.40 105.3718
829.50 105.4853
829.60 106.3814
829.70 107.7417
829.80 109.1299
829.90 110.1542
830.00 110.681
830.10 110.768
830.20 110.4366
830.30 109.6948
830.40 108.6243
830.50 107.4369
830.60 106.4359
830.70 105.8375
830.80 105.7006
830.90 105.9495
831.00 106.4656
831.10 107.1648
831.20 107.9671
831.30 108.7865
831.40 109.4956
831.50 110.0048
831.60 110.3337
831.70 110.56
831.80 110.7752
831.90 111.0267
832.00 111.3078
832.10 111.6163
832.20 111.9211
832.30 112.1507
832.40 112.2278
832.50 112.0832
832.60 111.6746
832.70 111.0794
832.80 110.4685
832.90 109.971
833.00 109.6476
833.10 109.5265
833.20 109.6367
833.30 109.9721
833.40 110.5009
833.50 111.1622
833.60 111.8368
833.70 112.4358
833.80 113.0747
833.90 114.0257
834.00 115.5387
834.10 117.624
834.20 120.1081
834.30 122.7377
834.40 125.1857
834.50 127.1462
834.60 128.2715
834.70 128.3043
834.80 127.2266
834.90 125.2636
835.00 122.9416
835.10 120.9217
835.20 119.6296
835.30 119.1326
835.40 119.2203
835.50 119.6184
835.60 120.0841
835.70 120.3762
835.80 120.31
835.90 119.8139
836.00 119.071
836.10 118.3745
836.20 117.9474
836.30 117.9497
836.40 118.3935
836.50 119.1629
836.60 120.077
836.70 120.9197
836.80 121.529
836.90 121.7966
837.00 121.6191
837.10 120.9787
837.20 119.9587
837.30 118.7197
837.40 117.4636
837.50 116.417
837.60 115.8384
837.70 115.9723
837.80 116.8957
837.90 118.4485
838.00 120.319
838.10 122.1535
838.20 123.6118
838.30 124.3613
838.40 124.2036
838.50 123.1782
838.60 121.5205
838.70 119.5267
838.80 117.4921
838.90 115.6709
839.00 114.2353
839.10 113.2517
839.20 112.723
839.30 112.6717
839.40 113.2283
839.50 114.5458
839.60 116.6936
839.70 119.6737
839.80 123.1703
839.90 126.5741
840.00 129.3334
840.10 131.0897
840.20 131.7235
840.30 131.3381
840.40 130.1735
840.50 128.5185
840.60 126.7305
840.70 125.1617
840.80 123.979
840.90 123.204
841.00 122.7931
841.10 122.6653
841.20 122.8995
841.30 123.5917
841.40 124.6318
841.50 125.823
841.60 126.9415
841.70 127.7749
841.80 128.1223
841.90 127.8766
842.00 127.1295
842.10 126.1321
842.20 125.1899
842.30 124.6178
842.40 124.6449
842.50 125.4019
842.60 126.9487
842.70 129.2346
842.80 132.0636
842.90 135.0231
843.00 137.5418
843.10 139.0132
843.20 139.0072
843.30 137.4183
843.40 134.4085
843.50 130.3994
843.60 125.9255
843.70 121.5301
843.80 117.7257
843.90 114.7858
844.00 112.6594
844.10 111.1279
844.20 109.9784
844.30 109.0524
844.40 108.2293
844.50 107.5013
844.60 106.9943
844.70 106.874
844.80 107.2473
844.90 108.0388
845.00 109.0542
845.10 109.9947
845.20 110.5432
845.30 110.5219
845.40 109.8928
845.50 108.7389
845.60 107.2371
845.70 105.664
845.80 104.3623
845.90 103.6154
846.00 103.5981
846.10 104.3106
846.20 105.5074
846.30 106.8098
846.40 107.8947
846.50 108.5782
846.60 108.7686
846.70 108.4146
846.80 107.5276
846.90 106.2225
847.00 104.6492
847.10 102.9749
847.20 101.3752
847.30 100.0362
847.40 99.07496
847.50 98.49665
847.60 98.2893
847.70 98.40288
847.80 98.72312
847.90 99.10014
848.00 99.38361
848.10 99.48595
848.20 99.47851
848.30 99.50597
848.40 99.65545
848.50 99.93703
848.60 100.3253
848.70 100.8304
848.80 101.5128
848.90 102.3708
849.00 103.3073
849.10 104.2847
849.20 105.2881
849.30 106.1885
849.40 106.79
849.50 106.9515
849.60 106.5696
849.70 105.6342
849.80 104.342
849.90 103.1348
850.00 102.5603
850.10 102.9744
850.20 104.3665
850.30 106.4206
850.40 108.7015
850.50 110.7414
850.60 112.1019
850.70 112.4875
850.80 111.8123
850.90 110.2229
851.00 108.0809
851.10 105.8016
851.20 103.7306
851.30 102.0293
851.40 100.6389
851.50 99.33047
851.60 97.78394
851.70 95.76105
851.80 93.16603
851.90 90.02874
852.00 86.61244
852.10 83.45064
852.20 81.18302
852.30 80.34257
852.40 81.16694
852.50 83.59521
852.60 87.32343
852.70 91.79373
852.80 96.30079
852.90 100.2623
853.00 103.3585
853.10 105.5015
853.20 106.8507
853.30 107.7568
853.40 108.5222
853.50 109.2715
853.60 110.013
853.70 110.6778
853.80 111.199
853.90 111.5682
854.00 111.7318
854.10 111.6408
854.20 111.4021
854.30 111.2316
854.40 111.3468
854.50 111.9082
854.60 112.9894
854.70 114.5008
854.80 116.2086
854.90 117.8245
855.00 119.0647
855.10 119.7375
855.20 119.7571
855.30 119.1682
855.40 118.1944
855.50 117.1124
855.60 116.0613
855.70 115.0169
855.80 113.9297
855.90 112.8321
856.00 111.7421
856.10 110.6642
856.20 109.7364
856.30 109.1962
856.40 109.218
856.50 109.8064
856.60 110.8138
856.70 111.9705
856.80 113.0114
856.90 113.7743
857.00 114.2038
857.10 114.3348
857.20 114.2206
857.30 113.9161
857.40 113.5278
857.50 113.1785
857.60 112.9097
857.70 112.7143
857.80 112.6723
857.90 112.9312
858.00 113.5569
858.10 114.54
858.20 115.7953
858.30 117.1607
858.40 118.478
858.50 119.6253
858.60 120.4989
858.70 120.9984
858.80 121.0661
858.90 120.7107
859.00 119.9806
859.10 119.021
859.20 118.0491
859.30 117.285
859.40 116.9542
859.50 117.2055
859.60 117.9853
859.70 119.0601
859.80 120.1502
859.90 120.9851
860.00 121.3933
860.10 121.3397
860.20 120.9026
860.30 120.2457
860.40 119.5297
860.50 118.8158
860.60 118.0262
860.70 116.9775
860.80 115.4853
860.90 113.4338
861.00 110.8238
861.10 107.7362
861.20 104.2272
861.30 100.3867
861.40 96.42132
861.50 92.6297
861.60 89.2641
861.70 86.47187
861.80 84.36822
861.90 83.01983
862.00 82.36777
862.10 82.24914
862.20 82.4432
862.30 82.71566
862.40 82.89224
862.50 82.93787
862.60 82.91602
862.70 82.88275
862.80 82.7839
862.90 82.49947
863.00 81.993
863.10 81.35299
863.20 80.74716
863.30 80.29791
863.40 80.06267
863.50 80.08168
863.60 80.36885
863.70 80.86767
863.80 81.4386
863.90 81.96128
864.00 82.43957
864.10 82.9077
864.20 83.36448
864.30 83.78685
864.40 84.10098
864.50 84.28684
864.60 84.40602
864.70 84.55851
864.80 84.89418
864.90 85.55047
865.00 86.65017
865.10 88.26602
865.20 90.38488
865.30 92.83562
865.40 95.27496
865.50 97.3793
865.60 99.00273
865.70 100.1618
865.80 100.9413
865.90 101.3552
866.00 101.3988
866.10 101.1745
866.20 100.8253
866.30 100.456
866.40 100.0855
866.50 99.72408
866.60 99.42381
866.70 99.22377
866.80 99.07685
866.90 98.90352
867.00 98.65318
867.10 98.28466
867.20 97.86685
867.30 97.5654
867.40 97.52299
867.50 97.82777
867.60 98.49135
867.70 99.43374
867.80 100.4429
867.90 101.1592
868.00 101.2224
868.10 100.49
868.20 99.1102
868.30 97.42822
868.40 95.84121
868.50 94.65996
868.60 94.00617
868.70 93.80949
868.80 93.79256
868.90 93.54169
869.00 92.65219
869.10 90.8179
869.20 87.97514
869.30 84.42185
869.40 80.67751
869.50 77.26834
869.60 74.62456
869.70 72.95992
869.80 72.26513
869.90 72.41104
870.00 73.18042
870.10 74.30309
870.20 75.57486
870.30 76.82117
870.40 77.89794
870.50 78.7448
870.60 79.32499
870.70 79.54807
870.80 79.27384
870.90 78.42474
871.00 77.07076
871.10 75.4565
871.20 73.91707
871.30 72.71975
871.40 71.99023
871.50 71.76226
871.60 71.97176
871.70 72.42843
871.80 72.8658
871.90 73.08989
872.00 73.06402
872.10 72.86384
872.20 72.69785
872.30 72.83019
872.40 73.4989
872.50 74.79934
872.60 76.61329
872.70 78.67754
872.80 80.66258
872.90 82.28846
873.00 83.3821
873.10 83.91278
873.20 83.91535
873.30 83.45679
873.40 82.70408
873.50 81.89963
873.60 81.27773
873.70 81.00425
873.80 81.13336
873.90 81.70475
874.00 82.75602
874.10 84.26579
874.20 86.12648
874.30 88.06874
874.40 89.74648
874.50 90.85186
874.60 91.22583
874.70 90.92584
874.80 90.15136
874.90 89.21851
875.00 88.50891
875.10 88.31552
875.20 88.73269
875.30 89.71855
875.40 91.21081
875.50 93.18215
875.60 95.68961
875.70 98.72561
875.80 102.0486
875.90 105.3271
876.00 108.2112
876.10 110.2785
876.20 111.1346
876.30 110.6904
876.40 109.2283
876.50 107.3129
876.60 105.688
876.70 104.9471
876.80 105.3541
876.90 106.841
877.00 109.1026
877.10 111.6869
877.20 114.1561
877.30 116.2058
877.40 117.8141
877.50 119.1278
877.60 120.0544
877.70 120.3133
877.80 119.7068
877.90 118.1533
878.00 115.6971
878.10 112.5739
878.20 109.1928
878.30 106.033
878.40 103.3865
878.50 101.4447
878.60 100.4588
878.70 100.5532
878.80 101.5701
878.90 103.196
879.00 105.2365
879.10 107.5171
879.20 109.7715
879.30 111.725
879.40 113.1415
879.50 113.8749
879.60 113.8356
879.70 112.9602
879.80 111.29
879.90 108.9859
880.00 106.2369
880.10 103.2812
880.20 100.3464
880.30 97.61302
880.40 95.33353
880.50 93.76737
880.60 93.0753
880.70 93.36196
880.80 94.64317
880.90 96.82229
881.00 99.7591
881.10 103.3426
881.20 107.4665
881.30 111.9533
881.40 116.5293
881.50 120.851
881.60 124.5869
881.70 127.5022
881.80 129.3949
881.90 130.0347
882.00 129.2762
882.10 127.2592
882.20 124.5167
882.30 121.9667
882.40 120.5425
882.50 120.9179
882.60 123.4102
882.70 127.6632
882.80 132.7465
882.90 137.4464
883.00 140.628
883.10 141.5661
883.20 140.2885
883.30 137.7816
883.40 135.3398
883.50 133.8535
883.60 133.7401
883.70 134.9002
883.80 136.8343
883.90 138.6891
884.00 139.4352
884.10 138.4235
884.20 135.4532
884.30 130.7644
884.40 125.0427
884.50 119.2398
884.60 114.2527
884.70 110.6262
884.80 108.772
884.90 109.1163
885.00 111.7589
885.10 116.1955
885.20 121.4686
885.30 126.4807
885.40 130.2238
885.50 132.0226
885.60 131.7206
885.70 129.6394
885.80 126.347
885.90 122.5037
886.00 118.8124
886.10 115.8636
886.20 114.0262
886.30 113.4267
886.40 113.9338
886.50 115.263
886.60 117.0078
886.70 118.6034
886.80 119.3952
886.90 118.8609
887.00 116.808
887.10 113.4546
887.20 109.4604
887.30 105.7739
887.40 103.3199
887.50 102.7249
887.60 104.2049
887.70 107.47
887.80 111.7544
887.90 116.1565
888.00 119.9364
888.10 122.7
888.20 124.5358
888.30 125.8984
888.40 127.4584
888.50 129.779
888.60 133.0144
888.70 136.8545
888.80 140.5785
888.90 143.3309
889.00 144.3661
889.10 143.2096
889.20 139.8045
889.30 134.5051
889.40 128.0141
889.50 121.3265
889.60 115.5363
889.70 111.5351
889.80 109.8937
889.90 110.8259
890.00 114.08
890.10 119.0345
890.20 124.9119
890.30 130.8424
890.40 135.8419
890.50 139.0433
890.60 139.9948
890.70 138.6608
890.80 135.4244
890.90 131.0583
891.00 126.575
891.10 123.002
891.20 120.8778
891.30 120.2607
891.40 121.1601
891.50 123.6057
891.60 127.4187
891.70 132.1978
891.80 137.4674
891.90 142.6737
892.00 147.1448
892.10 150.2079
892.20 151.3836
892.30 150.5118
892.40 147.6859
892.50 143.2119
892.60 137.8699
892.70 132.8256
892.80 129.1299
892.90 127.3755
893.00 127.7375
893.10 129.9701
893.20 133.3964
893.30 137.0586
893.40 139.9917
893.50 141.4776
893.60 141.1198
893.70 138.8128
893.80 134.8317
893.90 129.8438
894.00 124.6269
894.10 119.855
894.20 116.023
894.30 113.4967
894.40 112.4915
894.50 112.8698
894.60 114.2155
894.70 116.0728
894.80 117.9966
894.90 119.6468
895.00 120.8461
895.10 121.7
895.20 122.59
895.30 124.157
895.40 127.1448
895.50 131.8191
895.60 137.7454
895.70 144.0206
895.80 149.5925
895.90 153.5709
896.00 155.3662
896.10 154.6983
896.20 151.6717
896.30 146.8316
896.40 141.0701
896.50 135.4093
896.60 130.8008
896.70 127.7792
896.80 126.3413
896.90 126.3007
897.00 127.4823
897.10 129.6171
897.20 132.2777
897.30 135.011
897.40 137.4066
897.50 139.1844
897.60 140.322
897.70 140.9367
897.80 141.179
897.90 141.2665
898.00 141.3727
898.10 141.6392
898.20 142.3513
898.30 143.8974
898.40 146.5151
898.50 150.0887
898.60 154.1601
898.70 158.089
898.80 161.214
898.90 163.0589
899.00 163.3907
899.10 162.1919
899.20 159.6815
899.30 156.1511
899.40 152.0172
899.50 147.8644
899.60 144.1177
899.70 141.1156
899.80 139.3537
899.90 139.4077
900.00 140.5649
900.10 141.7221
900.20 142.8792
900.30 144.0364
900.40 145.1936
900.50 146.3508
900.60 147.508
900.70 148.6651
900.80 149.8223
900.90 150.9795
901.00 152.1367
901.10 153.2938
901.20 154.451
901.30 155.6082
901.40 156.7654
901.50 157.9226
901.60 159.0797
901.70 160.2369
901.80 161.3941
901.90 162.5513
902.00 163.7084
902.10 164.8656
902.20 166.0228
902.30 167.18
902.40 168.3372
902.50 169.4943
902.60 170.6515
902.70 171.8087
902.80 172.9659
902.90 174.123
903.00 175.2802
903.10 176.4374
903.20 176.6689
903.30 176.8911
903.40 177.1133
903.50 177.3355
903.60 177.5577
903.70 177.7798
903.80 178.002
903.90 178.2242
904.00 178.4464
904.10 178.6686
904.20 178.8908
904.30 179.1129
904.40 179.3351
904.50 179.5573
904.60 179.7795
904.70 180.0017
904.80 180.2239
904.90 180.446
905.00 180.6682
905.10 180.8904
905.20 181.1126
905.30 181.3348
905.40 181.557
905.50 181.7791
905.60 182.0013
905.70 182.2235
905.80 182.4457
905.90 182.6679
906.00 182.8901
906.10 183.1122
906.20 183.3344
906.30 183.5566
906.40 183.7788
906.50 184.001
906.60 184.3135
906.70 184.6648
906.80 185.0161
906.90 185.3674
907.00 185.7187
907.10 186.07
907.20 186.4213
907.30 186.7726
907.40 187.1239
907.50 187.4752
907.60 187.8265
907.70 188.1778
907.80 188.5291
907.90 188.8804
908.00 189.2317
908.10 189.583
908.20 189.9343
908.30 190.2856
908.40 190.6369
908.50 190.9882
908.60 191.3395
908.70 191.6907
908.80 192.042
908.90 192.3933
909.00 192.7446
909.10 193.0959
909.20 193.4472
909.30 193.7985
909.40 194.1498
909.50 194.5011
909.60 194.8524
909.70 195.2037
909.80 195.555
909.90 195.9063
910.00 196.2262
910.10 196.441
910.20 196.6558
910.30 196.8706
910.40 197.0854
910.50 197.3003
910.60 197.5151
910.70 197.7299
910.80 197.9447
910.90 198.1595
911.00 198.3743
911.10 198.5891
911.20 198.8039
911.30 199.0187
911.40 199.2336
911.50 199.4484
911.60 199.6632
911.70 199.878
911.80 200.0928
911.90 200.3076
912.00 200.5224
912.10 200.7372
912.20 200.952
912.30 201.1669
912.40 201.3817
912.50 201.5965
912.60 201.8113
912.70 202.0261
912.80 202.2409
912.90 202.4557
913.00 202.6705
913.10 202.8853
913.20 203.1002
913.30 203.315
913.40 203.5298
913.50 203.8944
913.60 204.372
913.70 204.8496
913.80 205.3272
913.90 205.8049
914.00 206.2825
914.10 206.7601
914.20 207.2377
914.30 207.7153
914.40 208.193
914.50 208.6706
914.60 209.1482
914.70 209.6258
914.80 210.1034
914.90 210.5811
915.00 211.0587
915.10 211.5363
915.20 212.0139
915.30 212.4915
915.40 212.9691
915.50 213.4468
915.60 213.9244
915.70 214.402
915.80 214.8796
915.90 215.3572
916.00 215.8349
916.10 216.3125
916.20 216.7901
916.30 217.2677
916.40 217.7453
916.50 218.223
916.60 218.7006
916.70 219.1782
916.80 219.6558
916.90 220.1334
917.00 220.4437
917.10 220.6953
917.20 220.9468
917.30 221.1983
917.40 221.4498
917.50 221.7014
917.60 221.9529
917.70 222.2044
917.80 222.4559
917.90 222.7075
918.00 222.959
918.10 223.2105
918.20 223.4621
918.30 223.7136
918.40 223.9651
918.50 224.2166
918.60 224.4682
918.70 224.7197
918.80 224.9712
918.90 225.2227
919.00 225.4743
919.10 225.7258
919.20 225.9773
919.30 226.2288
919.40 226.4804
919.50 226.7319
919.60 226.9834
919.70 227.2349
919.80 227.4865
919.90 227.738
920.00 227.9895
920.10 228.2411
920.20 228.4926
920.30 228.7441
920.40 228.9956
920.50 229.3107
920.60 229.648
920.70 229.9853
920.80 230.3227
920.90 230.66
921.00 230.9973
921.10 231.3347
921.20 231.672
921.30 232.0093
921.40 232.3467
921.50 232.684
921.60 233.0213
921.70 233.3587
921.80 233.696
921.90 234.0333
922.00 234.3707
922.10 234.708
922.20 235.0453
922.30 235.3827
922.40 235.72
922.50 236.0573
922.60 236.3947
922.70 236.732
922.80 237.0693
922.90 237.4067
923.00 237.744
923.10 238.0813
923.20 238.4187
923.30 238.756
923.40 239.0933
923.50 239.4307
923.60 239.768
923.70 240.1053
923.80 240.4427
923.90 240.78
924.00 240.7492
924.10 240.4292
924.20 240.1092
924.30 239.7892
924.40 239.4692
924.50 239.1492
924.60 238.8292
924.70 238.5092
924.80 238.1892
924.90 237.8692
925.00 237.5492
925.10 237.2292
925.20 236.9092
925.30 236.5892
925.40 236.2691
925.50 235.9491
925.60 235.6291
925.70 235.3091
925.80 234.9891
925.90 234.6691
926.00 234.3491
926.10 234.0291
926.20 233.7091
926.30 233.3891
926.40 233.0691
926.50 232.7491
926.60 232.4291
926.70 232.1091
926.80 231.7891
926.90 231.4691
927.00 231.149
927.10 230.829
927.20 230.509
927.30 230.189
927.40 229.869
927.50 229.5449
927.60 229.2044
927.70 228.8639
927.80 228.5234
927.90 228.1829
928.00 227.8424
928.10 227.5019
928.20 227.1614
928.30 226.8209
928.40 226.4804
928.50 226.1399
928.60 225.7994
928.70 225.4589
928.80 225.1184
928.90 224.7779
929.00 224.4374
929.10 224.0969
929.20 223.7564
929.30 223.4159
929.40 223.0754
929.50 222.7349
929.60 222.3944
929.70 222.0538
929.80 221.7133
929.90 221.3728
930.00 221.0323
930.10 220.6918
930.20 220.3513
930.30 220.0108
930.40 219.6703
930.50 219.3298
930.60 218.9893
930.70 218.6488
930.80 218.3083
930.90 217.9678
931.00 217.6273
931.10 217.9526
931.20 218.6058
931.30 219.259
931.40 219.9122
931.50 220.5654
931.60 221.2186
931.70 221.8718
931.80 222.525
931.90 223.1782
932.00 223.8314
932.10 224.4846
932.20 225.1378
932.30 225.7909
932.40 226.4441
932.50 227.0973
932.60 227.7505
932.70 228.4037
932.80 229.0569
932.90 229.7101
933.00 230.3633
933.10 231.0165
933.20 231.6697
933.30 232.3229
933.40 232.9761
933.50 233.6293
933.60 234.2825
933.70 234.9357
933.80 235.5889
933.90 236.2421
934.00 236.8953
934.10 237.5485
934.20 238.2017
934.30 238.8549
934.40 239.5081
934.50 240.1613
934.60 240.8145
934.70 241.2954
934.80 241.7709
934.90 242.2465
935.00 242.722
935.10 243.1976
935.20 243.6731
935.30 244.1487
935.40 244.6242
935.50 245.0997
935.60 245.5753
935.70 246.0508
935.80 246.5264
935.90 247.0019
936.00 247.4775
936.10 247.953
936.20 248.4286
936.30 248.9041
936.40 249.3797
936.50 249.8552
936.60 250.3308
936.70 250.8063
936.80 251.2819
936.90 251.7574
937.00 252.233
937.10 252.7085
937.20 253.1841
937.30 253.6596
937.40 254.1352
937.50 254.6107
937.60 255.0863
937.70 255.5618
937.80 256.0374
937.90 256.5129
938.00 256.9885
938.10 257.464
938.20 257.8892
938.30 257.8615
938.40 257.8337
938.50 257.8059
938.60 257.7782
938.70 257.7504
938.80 257.7226
938.90 257.6949
939.00 257.6671
939.10 257.6394
939.20 257.6116
939.30 257.5838
939.40 257.5561
939.50 257.5283
939.60 257.5005
939.70 257.4728
939.80 257.445
939.90 257.4172
940.00 257.3895
940.10 257.3617
940.20 257.3339
940.30 257.3062
940.40 257.2784
940.50 257.2506
940.60 257.2229
940.70 257.1951
940.80 257.1674
940.90 257.1396
941.00 257.1118
941.10 257.0841
941.20 257.0563
941.30 257.0285
941.40 257.0008
941.50 256.973
941.60 256.9452
941.70 256.9175
941.80 256.9065
941.90 257.1184
942.00 257.3303
942.10 257.5423
942.20 257.7542
942.30 257.9661
942.40 258.178
942.50 258.39
942.60 258.6019
942.70 258.8138
942.80 259.0257
942.90 259.2377
943.00 259.4496
943.10 259.6615
943.20 259.8734
943.30 260.0854
943.40 260.2973
943.50 260.5092
943.60 260.7211
943.70 260.9331
943.80 261.145
943.90 261.3569
944.00 261.5688
944.10 261.7808
944.20 261.9927
944.30 262.2046
944.40 262.4165
944.50 262.6285
944.60 262.8404
944.70 263.0523
944.80 263.2642
944.90 263.4762
945.00 263.6881
945.10 263.9
945.20 264.1119
945.30 264.3239
945.40 264.5358
945.50 264.9085
945.60 265.3053
945.70 265.7021
945.80 266.0989
945.90 266.4956
946.00 266.8924
946.10 267.2892
946.20 267.6859
946.30 268.0827
946.40 268.4795
946.50 268.8763
946.60 269.273
946.70 269.6698
946.80 270.0666
946.90 270.4633
947.00 270.8601
947.10 271.2569
947.20 271.6537
947.30 272.0504
947.40 272.4472
947.50 272.844
947.60 273.2408
947.70 273.6375
947.80 274.0343
947.90 274.4311
948.00 274.8278
948.10 275.2246
948.20 275.6214
948.30 276.0182
948.40 276.4149
948.50 276.8117
948.60 277.2085
948.70 277.6052
948.80 278.002
948.90 278.3988
949.00 278.7956
949.10 279.2357
949.20 279.7193
949.30 280.2029
949.40 280.6864
949.50 281.17
949.60 281.6536
949.70 282.1372
949.80 282.6207
949.90 283.1043
950.00 283.5879
950.10 284.0714
950.20 284.555
950.30 285.0386
950.40 285.5221
950.50 286.0057
950.60 286.4893
950.70 286.9729
950.80 287.4564
950.90 287.94
951.00 288.4236
951.10 288.9071
951.20 289.3907
951.30 289.8743
951.40 290.3578
951.50 290.8414
951.60 291.325
951.70 291.8086
951.80 292.2921
951.90 292.7757
952.00 293.2593
952.10 293.7428
952.20 294.2264
952.30 294.71
952.40 295.1935
952.50 295.6771
952.60 296.1607
952.70 296.6443
952.80 296.7141
952.90 296.7712
953.00 296.8283
953.10 296.8854
953.20 296.9425
953.30 296.9996
953.40 297.0566
953.50 297.1137
953.60 297.1708
953.70 297.2279
953.80 297.285
953.90 297.3421
954.00 297.3992
954.10 297.4562
954.20 297.5133
954.30 297.5704
954.40 297.6275
954.50 297.6846
954.60 297.7417
954.70 297.7988
954.80 297.8558
954.90 297.9129
955.00 297.97
955.10 298.0271
955.20 298.0842
955.30 298.1413
955.40 298.1984
955.50 298.2554
955.60 298.3125
955.70 298.3696
955.80 298.4267
955.90 298.4838
956.00 298.5409
956.10 298.598
956.20 298.655
956.30 298.7121
956.40 298.7742
956.50 298.849
956.60 298.9238
956.70 298.9986
956.80 299.0734
956.90 299.1481
957.00 299.2229
957.10 299.2977
957.20 299.3725
957.30 299.4473
957.40 299.5221
957.50 299.5969
957.60 299.6717
957.70 299.7465
957.80 299.8213
957.90 299.8961
958.00 299.9709
958.10 300.0457
958.20 300.1205
958.30 300.1953
958.40 300.2701
958.50 300.3449
958.60 300.4197
958.70 300.4945
958.80 300.5693
958.90 300.6441
959.00 300.7189
959.10 300.7937
959.20 300.8685
959.30 300.9433
959.40 301.0181
959.50 301.0928
959.60 301.1676
959.70 301.2424
959.80 301.3172
959.90 301.392
960.00 301.4668
960.10 301.422
960.20 301.2185
960.30 301.015
960.40 300.8116
960.50 300.6081
960.60 300.4046
960.70 300.2011
960.80 299.9977
960.90 299.7942
961.00 299.5907
961.10 299.3873
961.20 299.1838
961.30 298.9803
961.40 298.7768
961.50 298.5734
961.60 298.3699
961.70 298.1664
961.80 297.963
961.90 297.7595
962.00 297.556
962.10 297.3525
962.20 297.1491
962.30 296.9456
962.40 296.7421
962.50 296.5387
962.60 296.3352
962.70 296.1317
962.80 295.9283
962.90 295.7248
963.00 295.5213
963.10 295.3178
963.20 295.1144
963.30 294.9109
963.40 294.7074
963.50 294.504
963.60 294.3005
963.70 294.097
963.80 294.1601
963.90 294.5911
964.00 295.0222
964.10 295.4533
964.20 295.8844
964.30 296.3154
964.40 296.7465
964.50 297.1776
964.60 297.6086
964.70 298.0397
964.80 298.4708
964.90 298.9019
965.00 299.3329
965.10 299.764
965.20 300.1951
965.30 300.6262
965.40 301.0572
965.50 301.4883
965.60 301.9194
965.70 302.3505
965.80 302.7815
965.90 303.2126
966.00 303.6437
966.10 304.0748
966.20 304.5058
966.30 304.9369
966.40 305.368
966.50 305.7991
966.60 306.2301
966.70 306.6612
966.80 307.0923
966.90 307.5234
967.00 307.9544
967.10 308.3855
967.20 308.8166
967.30 309.2477
967.40 309.6787
967.50 310.0269
967.60 310.1393
967.70 310.2517
967.80 310.3641
967.90 310.4764
968.00 310.5888
968.10 310.7012
968.20 310.8136
968.30 310.9259
968.40 311.0383
968.50 311.1507
968.60 311.2631
968.70 311.3755
968.80 311.4878
968.90 311.6002
969.00 311.7126
969.10 311.825
969.20 311.9373
969.30 312.0497
969.40 312.1621
969.50 312.2745
969.60 312.3868
969.70 312.4992
969.80 312.6116
969.90 312.724
970.00 312.8363
970.10 312.9487
970.20 313.0611
970.30 313.1735
970.40 313.2858
970.50 313.3982
970.60 313.5106
970.70 313.623
970.80 313.7353
970.90 313.8477
971.00 313.9601
971.10 314.0725
971.20 314.1848
971.30 314.5458
971.40 314.9226
971.50 315.2995
971.60 315.6763
971.70 316.0531
971.80 316.43
971.90 316.8068
972.00 317.1836
972.10 317.5604
972.20 317.9373
972.30 318.3141
972.40 318.6909
972.50 319.0678
972.60 319.4446
972.70 319.8214
972.80 320.1982
972.90 320.5751
973.00 320.9519
973.10 321.3287
973.20 321.7055
973.30 322.0824
973.40 322.4592
973.50 322.836
973.60 323.2129
973.70 323.5897
973.80 323.9665
973.90 324.3433
974.00 324.7202
974.10 325.097
974.20 325.4738
974.30 325.8507
974.40 326.2275
974.50 326.6043
974.60 326.9811
974.70 327.358
974.80 327.7348
974.90 328.1116
975.00 328.6207
975.10 329.2788
975.20 329.9369
975.30 330.595
975.40 331.2532
975.50 331.9113
975.60 332.5694
975.70 333.2275
975.80 333.8857
975.90 334.5438
976.00 335.2019
976.10 335.86
976.20 336.5182
976.30 337.1763
976.40 337.8344
976.50 338.4925
976.60 339.1507
976.70 339.8088
976.80 340.4669
976.90 341.125
977.00 341.7831
977.10 342.4413
977.20 343.0994
977.30 343.7575
977.40 344.4156
977.50 345.0738
977.60 345.7319
977.70 346.39
977.80 347.0481
977.90 347.7063
978.00 348.3644
978.10 349.0225
978.20 349.6806
978.30 350.3388
978.40 350.9969
978.50 351.655
978.60 352.3131
978.70 352.9712
978.80 352.9619
978.90 352.8348
979.00 352.7076
979.10 352.5805
979.20 352.4534
979.30 352.3262
979.40 352.1991
979.50 352.0719
979.60 351.9448
979.70 351.8177
979.80 351.6905
979.90 351.5634
980.00 351.4363
980.10 351.3091
980.20 351.182
980.30 351.0548
980.40 350.9277
980.50 350.8006
980.60 350.6734
980.70 350.5463
980.80 350.4192
980.90 350.292
981.00 350.1649
981.10 350.0377
981.20 349.9106
981.30 349.7835
981.40 349.6563
981.50 349.5292
981.60 349.4021
981.70 349.2749
981.80 349.1478
981.90 349.0206
982.00 348.8935
982.10 348.7664
982.20 348.6392
982.30 348.5121
982.40 348.385
982.50 348.2024
982.60 347.383
982.70 346.5635
982.80 345.744
982.90 344.9246
983.00 344.1051
983.10 343.2856
983.20 342.4662
983.30 341.6467
983.40 340.8273
983.50 340.0078
983.60 339.1883
983.70 338.3689
983.80 337.5494
983.90 336.7299
984.00 335.9105
984.10 335.091
984.20 334.2715
984.30 333.4521
984.40 332.6326
984.50 331.8131
984.60 330.9937
984.70 330.1742
984.80 329.3548
984.90 328.5353
985.00 327.7158
985.10 326.8964
985.20 326.0769
985.30 325.2574
985.40 324.438
985.50 323.6185
985.60 322.799
985.70 321.9796
985.80 321.1601
985.90 320.3406
986.00 319.5212
986.10 318.7017
986.20 317.8823
986.30 317.0328
986.40 316.0262
986.50 315.0196
986.60 314.013
986.70 313.0063
986.80 311.9997
986.90 310.9931
987.00 309.9865
987.10 308.9798
987.20 307.9732
987.30 306.9666
987.40 305.96
987.50 304.9533
987.60 303.9467
987.70 302.9401
987.80 301.9334
987.90 300.9268
988.00 299.9202
988.10 298.9136
988.20 297.9069
988.30 296.9003
988.40 295.8937
988.50 294.8871
988.60 293.8804
988.70 292.8738
988.80 291.8672
988.90 290.8606
989.00 289.8539
989.10 288.8473
989.20 287.8407
989.30 286.834
989.40 285.8274
989.50 284.8208
989.60 283.8142
989.70 282.8075
989.80 281.8009
989.90 280.7943
990.00 279.7877
990.10 278.7957
990.20 277.9361
990.30 277.0765
990.40 276.2169
990.50 275.3573
990.60 274.4977
990.70 273.638
990.80 272.7784
990.90 271.9188
991.00 271.0592
991.10 270.1996
991.20 269.34
991.30 268.4803
991.40 267.6207
991.50 266.7611
991.60 265.9015
991.70 265.0419
991.80 264.1823
991.90 263.3226
992.00 262.463
992.10 261.6034
992.20 260.7438
992.30 259.8842
992.40 259.0246
992.50 258.1649
992.60 257.3053
992.70 256.4457
992.80 255.5861
992.90 254.7265
993.00 253.8669
993.10 253.0072
993.20 252.1476
993.30 251.288
993.40 250.4284
993.50 249.5688
993.60 248.7092
993.70 247.8495
993.80 246.9899
993.90 246.1303
994.00 245.5261
994.10 244.9503
994.20 244.3745
994.30 243.7987
994.40 243.2228
994.50 242.647
994.60 242.0712
994.70 241.4954
994.80 240.9196
994.90 240.3438
995.00 239.7679
995.10 239.1921
995.20 238.6163
995.30 238.0405
995.40 237.4647
995.50 236.8889
995.60 236.313
995.70 235.7372
995.80 235.1614
995.90 234.5856
996.00 234.0098
996.10 233.434
996.20 232.8581
996.30 232.2823
996.40 231.7065
996.50 231.1307
996.60 230.5549
996.70 229.9791
996.80 229.4032
996.90 228.8274
997.00 228.2516
997.10 227.6758
997.20 227.1
997.30 226.5242
997.40 225.9483
997.50 225.3725
997.60 224.7967
997.70 224.2209
997.80 224.1744
997.90 224.561
998.00 224.9477
998.10 225.3343
998.20 225.7209
998.30 226.1075
998.40 226.4941
998.50 226.8807
998.60 227.2674
998.70 227.654
998.80 228.0406
998.90 228.4272
999.00 228.8138
999.10 229.2004
999.20 229.5871
999.30 229.9737
999.40 230.3603
999.50 230.7469
999.60 231.1335
999.70 231.5201
999.80 231.9068
999.90 232.2934
1000.00 232.68
1000.10 233.0666
1000.20 233.4532
1000.30 233.8398
1000.40 234.2265
1000.50 234.6131
1000.60 234.9997
1000.70 235.3863
1000.80 235.7729
1000.90 236.1595
1001.00 236.5461
1001.10 236.9328
1001.20 237.3194
1001.30 237.706
1001.40 238.0926
1001.50 238.4792
1001.60 238.8663
1001.70 239.257
1001.80 239.6477
1001.90 240.0384
1002.00 240.4291
1002.10 240.8198
1002.20 241.2106
1002.30 241.6013
1002.40 241.992
1002.50 242.3827
1002.60 242.7734
1002.70 243.1641
1002.80 243.5549
1002.90 243.9456
1003.00 244.3363
1003.10 244.727
1003.20 245.1177
1003.30 245.5084
1003.40 245.8992
1003.50 246.2899
1003.60 246.6806
1003.70 247.0713
1003.80 247.462
1003.90 247.8527
1004.00 248.2435
1004.10 248.6342
1004.20 249.0249
1004.30 249.4156
1004.40 249.8063
1004.50 250.197
1004.60 250.5878
1004.70 250.9785
1004.80 251.3692
1004.90 251.7599
1005.00 252.1506
1005.10 252.5413
1005.20 252.9321
1005.30 253.3228
1005.40 253.7135
1005.50 254.2411
1005.60 254.974
1005.70 255.707
1005.80 256.4399
1005.90 257.1729
1006.00 257.9058
1006.10 258.6387
1006.20 259.3717
1006.30 260.1046
1006.40 260.8376
1006.50 261.5705
1006.60 262.3034
1006.70 263.0364
1006.80 263.7693
1006.90 264.5022
1007.00 265.2352
1007.10 265.9681
1007.20 266.7011
1007.30 267.434
1007.40 268.1669
1007.50 268.8999
1007.60 269.6328
1007.70 270.3658
1007.80 271.0987
1007.90 271.8316
1008.00 272.5646
1008.10 273.2975
1008.20 274.0304
1008.30 274.7634
1008.40 275.4963
1008.50 276.2293
1008.60 276.9622
1008.70 277.6951
1008.80 278.4281
1008.90 279.161
1009.00 279.894
1009.10 280.6269
1009.20 281.3598
1009.30 282.0928
1009.40 282.5316
1009.50 282.8443
1009.60 283.157
1009.70 283.4697
1009.80 283.7824
1009.90 284.0951
1010.00 284.4079
1010.10 284.7206
1010.20 285.0333
1010.30 285.346
1010.40 285.6587
1010.50 285.9714
1010.60 286.2842
1010.70 286.5969
1010.80 286.9096
1010.90 287.2223
1011.00 287.535
1011.10 287.8477
1011.20 288.1605
1011.30 288.4732
1011.40 288.7859
1011.50 289.0986
1011.60 289.4113
1011.70 289.724
1011.80 290.0368
1011.90 290.3495
1012.00 290.6622
1012.10 290.9749
1012.20 291.2876
1012.30 291.6003
1012.40 291.9131
1012.50 292.2258
1012.60 292.5385
1012.70 292.8512
1012.80 293.1639
1012.90 293.4766
1013.00 293.7894
1013.10 294.1021
1013.20 294.4148
1013.30 294.4632
1013.40 294.4455
1013.50 294.4278
1013.60 294.4101
1013.70 294.3925
1013.80 294.3748
1013.90 294.3571
1014.00 294.3394
1014.10 294.3217
1014.20 294.3041
1014.30 294.2864
1014.40 294.2687
1014.50 294.251
1014.60 294.2333
1014.70 294.2157
1014.80 294.198
1014.90 294.1803
1015.00 294.1626
1015.10 294.1449
1015.20 294.1273
1015.30 294.1096
1015.40 294.0919
1015.50 294.0742
1015.60 294.0565
1015.70 294.0389
1015.80 294.0212
1015.90 294.0035
1016.00 293.9858
1016.10 293.9681
1016.20 293.9505
1016.30 293.9328
1016.40 293.9151
1016.50 293.8974
1016.60 293.8797
1016.70 293.8621
1016.80 293.8444
1016.90 293.8267
1017.00 293.809
1017.10 293.7913
1017.20 294.0337
1017.30 294.341
1017.40 294.6483
1017.50 294.9556
1017.60 295.2629
1017.70 295.5702
1017.80 295.8775
1017.90 296.1848
1018.00 296.4921
1018.10 296.7994
1018.20 297.1067
1018.30 297.414
1018.40 297.7213
1018.50 298.0286
1018.60 298.3359
1018.70 298.6432
1018.80 298.9505
1018.90 299.2578
1019.00 299.5651
1019.10 299.8724
1019.20 300.1797
1019.30 300.487
1019.40 300.7943
1019.50 301.1016
1019.60 301.4089
1019.70 301.7162
1019.80 302.0235
1019.90 302.3308
1020.00 302.6381
1020.10 302.9454
1020.20 303.2527
1020.30 303.56
1020.40 303.8673
1020.50 304.1746
1020.60 304.4819
1020.70 304.7892
1020.80 305.0966
1020.90 305.4039
1021.00 305.7112
1021.10 305.8416
1021.20 305.8542
1021.30 305.8668
1021.40 305.8793
1021.50 305.8919
1021.60 305.9045
1021.70 305.917
1021.80 305.9296
1021.90 305.9422
1022.00 305.9548
1022.10 305.9673
1022.20 305.9799
1022.30 305.9925
1022.40 306.005
1022.50 306.0176
1022.60 306.0302
1022.70 306.0428
1022.80 306.0553
1022.90 306.0679
1023.00 306.0805
1023.10 306.093
1023.20 306.1056
1023.30 306.1182
1023.40 306.1307
1023.50 306.1433
1023.60 306.1559
1023.70 306.1685
1023.80 306.181
1023.90 306.1936
1024.00 306.2062
1024.10 306.2187
1024.20 306.2313
1024.30 306.2439
1024.40 306.2565
1024.50 306.269
1024.60 306.2816
1024.70 306.2942
1024.80 306.3067
1024.90 306.3193
1025.00 306.3314
1025.10 306.3427
1025.20 306.3539
1025.30 306.3652
1025.40 306.3765
1025.50 306.3878
1025.60 306.3991
1025.70 306.4104
1025.80 306.4217
1025.90 306.4329
1026.00 306.4442
1026.10 306.4555
1026.20 306.4668
1026.30 306.4781
1026.40 306.4894
1026.50 306.5007
1026.60 306.5119
1026.70 306.5232
1026.80 306.5345
1026.90 306.5458
1027.00 306.5571
1027.10 306.5684
1027.20 306.5797
1027.30 306.591
1027.40 306.6022
1027.50 306.6135
1027.60 306.6248
1027.70 306.6361
1027.80 306.6474
1027.90 306.6587
1028.00 306.67
1028.10 306.6812
1028.20 306.6925
1028.30 306.7038
1028.40 306.7151
1028.50 306.7264
1028.60 306.7377
1028.70 306.749
1028.80 306.7602
1028.90 306.7715
1029.00 307.4269
1029.10 308.0822
1029.20 308.7375
1029.30 309.3928
1029.40 310.0481
1029.50 310.7035
1029.60 311.3588
1029.70 312.0141
1029.80 312.6694
1029.90 313.3248
1030.00 313.9801
1030.10 314.6354
1030.20 315.2907
1030.30 315.946
1030.40 316.6014
1030.50 317.2567
1030.60 317.912
1030.70 318.5673
1030.80 319.2227
1030.90 319.878
1031.00 320.5333
1031.10 321.1886
1031.20 321.844
1031.30 322.4993
1031.40 323.1546
1031.50 323.8099
1031.60 324.4652
1031.70 325.1206
1031.80 325.7759
1031.90 326.4312
1032.00 327.0865
1032.10 327.7419
1032.20 328.3972
1032.30 329.0525
1032.40 329.7078
1032.50 330.3632
1032.60 331.0185
1032.70 331.6738
1032.80 332.3291
1032.90 332.8526
1033.00 333.1785
1033.10 333.5043
1033.20 333.8301
1033.30 334.1559
1033.40 334.4817
1033.50 334.8075
1033.60 335.1334
1033.70 335.4592
1033.80 335.785
1033.90 336.1108
1034.00 336.4366
1034.10 336.7624
1034.20 337.0882
1034.30 337.4141
1034.40 337.7399
1034.50 338.0657
1034.60 338.3915
1034.70 338.7173
1034.80 339.0431
1034.90 339.369
1035.00 339.6948
1035.10 340.0206
1035.20 340.3464
1035.30 340.6722
1035.40 340.998
1035.50 341.3239
1035.60 341.6497
1035.70 341.9755
1035.80 342.3013
1035.90 342.6271
1036.00 342.9529
1036.10 343.2787
1036.20 343.6046
1036.30 343.9304
1036.40 344.2562
1036.50 344.582
1036.60 344.9078
1036.70 345.2336
1036.80 345.5595
1036.90 345.7817
1037.00 345.978
1037.10 346.1743
1037.20 346.3706
1037.30 346.567
1037.40 346.7633
1037.50 346.9596
1037.60 347.1559
1037.70 347.3522
1037.80 347.5486
1037.90 347.7449
1038.00 347.9412
1038.10 348.1375
1038.20 348.3338
1038.30 348.5302
1038.40 348.7265
1038.50 348.9228
1038.60 349.1191
1038.70 349.3154
1038.80 349.5118
1038.90 349.7081
1039.00 349.9044
1039.10 350.1007
1039.20 350.297
1039.30 350.4934
1039.40 350.6897
1039.50 350.886
1039.60 351.0823
1039.70 351.2786
1039.80 351.475
1039.90 351.6713
1040.00 351.8676
1040.10 352.0639
1040.20 352.2602
1040.30 352.4566
1040.40 352.6529
1040.50 352.8492
1040.60 353.0455
1040.70 353.2418
1040.80 353.4382
1040.90 353.5976
1041.00 353.757
1041.10 353.9164
1041.20 354.0757
1041.30 354.2351
1041.40 354.3945
1041.50 354.5539
1041.60 354.7133
1041.70 354.8727
1041.80 355.0321
1041.90 355.1915
1042.00 355.3509
1042.10 355.5103
1042.20 355.6697
1042.30 355.8291
1042.40 355.9885
1042.50 356.1479
1042.60 356.3073
1042.70 356.4667
1042.80 356.6261
1042.90 356.7855
1043.00 356.9449
1043.10 357.1043
1043.20 357.2637
1043.30 357.423
1043.40 357.5824
1043.50 357.7418
1043.60 357.9012
1043.70 358.0606
1043.80 358.22
1043.90 358.3794
1044.00 358.5388
1044.10 358.6982
1044.20 358.8576
1044.30 359.017
1044.40 359.1764
1044.50 359.3358
1044.60 359.4952
1044.70 359.6546
1044.80 359.8237
1044.90 360.0799
1045.00 360.3361
1045.10 360.5923
1045.20 360.8485
1045.30 361.1047
1045.40 361.3609
1045.50 361.6171
1045.60 361.8734
1045.70 362.1296
1045.80 362.3858
1045.90 362.642
1046.00 362.8982
1046.10 363.1544
1046.20 363.4106
1046.30 363.6668
1046.40 363.923
1046.50 364.1793
1046.60 364.4355
1046.70 364.6917
1046.80 364.9479
1046.90 365.2041
1047.00 365.4603
1047.10 365.7165
1047.20 365.9727
1047.30 366.2289
1047.40 366.4852
1047.50 366.7414
1047.60 366.9976
1047.70 367.2538
1047.80 367.51
1047.90 367.7662
1048.00 368.0224
1048.10 368.2786
1048.20 368.5348
1048.30 368.7911
1048.40 369.0473
1048.50 369.3035
1048.60 369.5597
1048.70 369.8159
1048.80 370.0394
1048.90 369.968
1049.00 369.8966
1049.10 369.8253
1049.20 369.7539
1049.30 369.6825
1049.40 369.6112
1049.50 369.5398
1049.60 369.4684
1049.70 369.3971
1049.80 369.3257
1049.90 369.2544
1050.00 369.183
1050.10 369.1116
1050.20 369.0403
1050.30 368.9689
1050.40 368.8975
1050.50 368.8262
1050.60 368.7548
1050.70 368.6834
1050.80 368.6121
1050.90 368.5407
1051.00 368.4693
1051.10 368.398
1051.20 368.3266
1051.30 368.2553
1051.40 368.1839
1051.50 368.1125
1051.60 368.0412
1051.70 367.9698
1051.80 367.8984
1051.90 367.8271
1052.00 367.7557
1052.10 367.6843
1052.20 367.613
1052.30 367.5416
1052.40 367.4703
1052.50 367.3989
1052.60 367.3275
1052.70 367.2562
1052.80 367.1848
1052.90 366.9431
1053.00 366.7014
1053.10 366.4597
1053.20 366.2179
1053.30 365.9762
1053.40 365.7345
1053.50 365.4928
1053.60 365.2511
1053.70 365.0094
1053.80 364.7677
1053.90 364.526
1054.00 364.2843
1054.10 364.0425
1054.20 363.8008
1054.30 363.5591
1054.40 363.3174
1054.50 363.0757
1054.60 362.834
1054.70 362.5923
1054.80 362.3506
1054.90 362.1088
1055.00 361.8671
1055.10 361.6254
1055.20 361.3837
1055.30 361.142
1055.40 360.9003
1055.50 360.6586
1055.60 360.4169
1055.70 360.1752
1055.80 359.9334
1055.90 359.6917
1056.00 359.45
1056.10 359.2083
1056.20 358.9666
1056.30 358.7249
1056.40 358.4832
1056.50 358.2415
1056.60 357.9997
1056.70 357.758
1056.80 357.5163
1056.90 357.5178
1057.00 357.58
1057.10 357.6423
1057.20 357.7046
1057.30 357.7668
1057.40 357.8291
1057.50 357.8913
1057.60 357.9536
1057.70 358.0158
1057.80 358.0781
1057.90 358.1403
1058.00 358.2026
1058.10 358.2649
1058.20 358.3271
1058.30 358.3894
1058.40 358.4516
1058.50 358.5139
1058.60 358.5761
1058.70 358.6384
1058.80 358.7006
1058.90 358.7629
1059.00 358.8252
1059.10 358.8874
1059.20 358.9497
1059.30 359.0119
1059.40 359.0742
1059.50 359.1364
1059.60 359.1987
1059.70 359.261
1059.80 359.3232
1059.90 359.3855
1060.00 359.4477
1060.10 359.51
1060.20 359.5722
1060.30 359.6345
1060.40 359.6967
1060.50 359.759
1060.60 359.8213
1060.70 359.8835
1060.80 359.9458
1060.90 360.1903
1061.00 360.6172
1061.10 361.0441
1061.20 361.471
1061.30 361.8979
1061.40 362.3248
1061.50 362.7517
1061.60 363.1786
1061.70 363.6055
1061.80 364.0324
1061.90 364.4593
1062.00 364.8862
1062.10 365.3131
1062.20 365.74
1062.30 366.1669
1062.40 366.5938
1062.50 367.0207
1062.60 367.4475
1062.70 367.8744
1062.80 368.3013
1062.90 368.7282
1063.00 369.1551
1063.10 369.582
1063.20 370.0089
1063.30 370.4358
1063.40 370.8627
1063.50 371.2896
1063.60 371.7165
1063.70 372.1434
1063.80 372.5703
1063.90 372.9972
1064.00 373.4241
1064.10 373.851
1064.20 374.2779
1064.30 374.7047
1064.40 375.1316
1064.50 375.5585
1064.60 375.9854
1064.70 376.4123
1064.80 376.8392
1064.90 377.2661
1065.00 377.6805
1065.10 378.0948
1065.20 378.5092
1065.30 378.9235
1065.40 379.3378
1065.50 379.7522
1065.60 380.1665
1065.70 380.5809
1065.80 380.9952
1065.90 381.4096
1066.00 381.8239
1066.10 382.2383
1066.20 382.6526
1066.30 383.067
1066.40 383.4813
1066.50 383.8956
1066.60 384.31
1066.70 384.7243
1066.80 385.1387
1066.90 385.553
1067.00 385.9674
1067.10 386.3817
1067.20 386.7961
1067.30 387.2104
1067.40 387.6248
1067.50 388.0391
1067.60 388.4535
1067.70 388.8678
1067.80 389.2821
1067.90 389.6965
1068.00 390.1108
1068.10 390.5252
1068.20 390.9395
1068.30 391.3539
1068.40 391.7682
1068.50 392.1826
1068.60 392.5969
1068.70 393.0113
1068.80 393.4256
1068.90 393.84
1069.00 394.2754
1069.10 394.7318
1069.20 395.1883
1069.30 395.6448
1069.40 396.1012
1069.50 396.5577
1069.60 397.0142
1069.70 397.4706
1069.80 397.9271
1069.90 398.3836
1070.00 398.84
1070.10 399.2965
1070.20 399.753
1070.30 400.2094
1070.40 400.6659
1070.50 401.1224
1070.60 401.5788
1070.70 402.0353
1070.80 402.4918
1070.90 402.9482
1071.00 403.4047
1071.10 403.8612
1071.20 404.3176
1071.30 404.7741
1071.40 405.2306
1071.50 405.687
1071.60 406.1435
1071.70 406.6
1071.80 407.0564
1071.90 407.5129
1072.00 407.9694
1072.10 408.4259
1072.20 408.8823
1072.30 409.3388
1072.40 409.7953
1072.50 410.2517
1072.60 410.7082
1072.70 411.1647
1072.80 411.6211
1072.90 412.0776
1073.00 412.5341
1073.10 412.934
1073.20 413.3277
1073.30 413.7214
1073.40 414.1151
1073.50 414.5089
1073.60 414.9026
1073.70 415.2963
1073.80 415.69
1073.90 416.0837
1074.00 416.4774
1074.10 416.8711
1074.20 417.2648
1074.30 417.6585
1074.40 418.0522
1074.50 418.4459
1074.60 418.8396
1074.70 419.2333
1074.80 419.627
1074.90 420.0207
1075.00 420.4144
1075.10 420.8081
1075.20 421.2018
1075.30 421.5955
1075.40 421.9892
1075.50 422.3829
1075.60 422.7766
1075.70 423.1703
1075.80 423.564
1075.90 423.9578
1076.00 424.3515
1076.10 424.7452
1076.20 425.1389
1076.30 425.5326
1076.40 425.9263
1076.50 426.32
1076.60 426.7137
1076.70 427.1074
1076.80 427.5011
1076.90 427.8948
1077.00 428.2885
1077.10 428.6657
1077.20 428.8945
1077.30 429.1233
1077.40 429.3521
1077.50 429.5808
1077.60 429.8096
1077.70 430.0384
1077.80 430.2672
1077.90 430.496
1078.00 430.7248
1078.10 430.9536
1078.20 431.1823
1078.30 431.4111
1078.40 431.6399
1078.50 431.8687
1078.60 432.0975
1078.70 432.3263
1078.80 432.5551
1078.90 432.7838
1079.00 433.0126
1079.10 433.2414
1079.20 433.4702
1079.30 433.699
1079.40 433.9278
1079.50 434.1566
1079.60 434.3853
1079.70 434.6141
1079.80 434.8429
1079.90 435.0717
1080.00 435.3005
1080.10 435.5293
1080.20 435.7581
1080.30 435.9868
1080.40 436.2156
1080.50 436.4444
1080.60 436.6732
1080.70 436.902
1080.80 437.1308
1080.90 437.3595
1081.00 437.5883
1081.10 437.8171
1081.20 438.2784
1081.30 439.2824
1081.40 440.2863
1081.50 441.2903
1081.60 442.2942
1081.70 443.2982
1081.80 444.3021
1081.90 445.306
1082.00 446.31
1082.10 447.3139
1082.20 448.3179
1082.30 449.3218
1082.40 450.3257
1082.50 451.3297
1082.60 452.3336
1082.70 453.3376
1082.80 454.3415
1082.90 455.3454
1083.00 456.3494
1083.10 457.3533
1083.20 458.3573
1083.30 459.3612
1083.40 460.3651
1083.50 461.3691
1083.60 462.373
1083.70 463.377
1083.80 464.3809
1083.90 465.3848
1084.00 466.3888
1084.10 467.3927
1084.20 468.3967
1084.30 469.4006
1084.40 470.4046
1084.50 471.4085
1084.60 472.4124
1084.70 473.4164
1084.80 474.4203
1084.90 475.4243
1085.00 476.4282
1085.10 477.4321
1085.20 478.4361
1085.30 479.1756
1085.40 479.2979
1085.50 479.4203
1085.60 479.5427
1085.70 479.6651
1085.80 479.7875
1085.90 479.9099
1086.00 480.0323
1086.10 480.1546
1086.20 480.277
1086.30 480.3994
1086.40 480.5218
1086.50 480.6442
1086.60 480.7666
1086.70 480.889
1086.80 481.0113
1086.90 481.1337
1087.00 481.2561
1087.10 481.3785
1087.20 481.5009
1087.30 481.6233
1087.40 481.7457
1087.50 481.8681
1087.60 481.9904
1087.70 482.1128
1087.80 482.2352
1087.90 482.3576
1088.00 482.48
1088.10 482.6024
1088.20 482.7248
1088.30 482.8471
1088.40 482.9695
1088.50 483.0919
1088.60 483.2143
1088.70 483.3367
1088.80 483.4591
1088.90 483.5815
1089.00 483.7038
1089.10 483.8262
1089.20 483.9486
1089.30 484.071
1089.40 484.2267
1089.50 484.4601
1089.60 484.6934
1089.70 484.9268
1089.80 485.1602
1089.90 485.3935
1090.00 485.6269
1090.10 485.8603
1090.20 486.0937
1090.30 486.327
1090.40 486.5604
1090.50 486.7938
1090.60 487.0272
1090.70 487.2605
1090.80 487.4939
1090.90 487.7273
1091.00 487.9606
1091.10 488.194
1091.20 488.4274
1091.30 488.6608
1091.40 488.8941
1091.50 489.1275
1091.60 489.3609
1091.70 489.5943
1091.80 489.8276
1091.90 490.061
1092.00 490.2944
1092.10 490.5278
1092.20 490.7611
1092.30 490.9945
1092.40 491.2279
1092.50 491.4612
1092.60 491.6946
1092.70 491.928
1092.80 492.1614
1092.90 492.3947
1093.00 492.6281
1093.10 492.8615
1093.20 493.0949
1093.30 493.3282
1093.40 493.5616
1093.50 493.7768
1093.60 493.9194
1093.70 494.062
1093.80 494.2046
1093.90 494.3472
1094.00 494.4898
1094.10 494.6324
1094.20 494.775
1094.30 494.9176
1094.40 495.0602
1094.50 495.2028
1094.60 495.3454
1094.70 495.488
1094.80 495.6306
1094.90 495.7732
1095.00 495.9158
1095.10 496.0584
1095.20 496.201
1095.30 496.3436
1095.40 496.4862
1095.50 496.6288
1095.60 496.7714
1095.70 496.914
1095.80 497.0566
1095.90 497.1992
1096.00 497.3418
1096.10 497.4844
1096.20 497.627
1096.30 497.7696
1096.40 497.9122
1096.50 498.0548
1096.60 498.1974
1096.70 498.34
1096.80 498.4826
1096.90 498.6252
1097.00 498.7678
1097.10 498.9104
1097.20 499.053
1097.30 499.1956
1097.40 499.3382
1097.50 499.4808
1097.60 499.6234
1097.70 499.8344
1097.80 500.0453
1097.90 500.2563
1098.00 500.4673
1098.10 500.6782
1098.20 500.8892
1098.30 501.1001
1098.40 501.3111
1098.50 501.5221
1098.60 501.733
1098.70 501.944
1098.80 502.155
1098.90 502.3659
1099.00 502.5769
1099.10 502.7878
1099.20 502.9988
1099.30 503.2098
1099.40 503.4207
1099.50 503.6317
1099.60 503.8427
1099.70 504.0536
1099.80 504.2646
1099.90 504.4755
1100.00 504.6865
1100.10 504.8975
1100.20 505.1084
1100.30 505.3194
1100.40 505.5304
1100.50 505.7413
1100.60 505.9523
1100.70 506.1633
1100.80 506.3742
1100.90 506.5852
1101.00 506.7961
1101.10 507.0071
1101.20 507.2181
1101.30 507.429
1101.40 507.64
1101.50 507.851
1101.60 508.0619
1101.70 508.2729
1101.80 508.0522
1101.90 507.6466
1102.00 507.241
1102.10 506.8354
1102.20 506.4297
1102.30 506.0241
1102.40 505.6185
1102.50 505.2129
1102.60 504.8073
1102.70 504.4016
1102.80 503.996
1102.90 503.5904
1103.00 503.1848
1103.10 502.7791
1103.20 502.3735
1103.30 501.9679
1103.40 501.5623
1103.50 501.1567
1103.60 500.751
1103.70 500.3454
1103.80 499.9398
1103.90 499.5342
1104.00 499.1286
1104.10 498.7229
1104.20 498.3173
1104.30 497.9117
1104.40 497.5061
1104.50 497.1004
1104.60 496.6948
1104.70 496.2892
1104.80 495.8836
1104.90 495.478
1105.00 495.0723
1105.10 494.6667
1105.20 494.2611
1105.30 493.8555
1105.40 493.4499
1105.50 493.0442
1105.60 492.6386
1105.70 492.233
1105.80 491.8274
1105.90 491.5572
1106.00 491.6032
1106.10 491.6491
1106.20 491.6951
1106.30 491.741
1106.40 491.787
1106.50 491.8329
1106.60 491.8789
1106.70 491.9248
1106.80 491.9708
1106.90 492.0167
1107.00 492.0627
1107.10 492.1086
1107.20 492.1546
1107.30 492.2005
1107.40 492.2465
1107.50 492.2924
1107.60 492.3384
1107.70 492.3843
1107.80 492.4303
1107.90 492.4762
1108.00 492.5222
1108.10 492.5681
1108.20 492.6141
1108.30 492.66
1108.40 492.706
1108.50 492.7519
1108.60 492.7979
1108.70 492.8438
1108.80 492.8898
1108.90 492.9358
1109.00 492.9817
1109.10 493.0277
1109.20 493.0736
1109.30 493.1196
1109.40 493.1655
1109.50 493.2115
1109.60 493.2574
1109.70 493.3034
1109.80 493.3493
1109.90 493.3953
1110.00 493.4412
1110.10 493.3464
1110.20 493.2163
1110.30 493.0863
1110.40 492.9562
1110.50 492.8262
1110.60 492.6961
1110.70 492.5661
1110.80 492.436
1110.90 492.306
1111.00 492.1759
1111.10 492.0459
1111.20 491.9158
1111.30 491.7857
1111.40 491.6557
1111.50 491.5256
1111.60 491.3956
1111.70 491.2655
1111.80 491.1355
1111.90 491.0054
1112.00 490.8754
1112.10 490.7453
1112.20 490.6153
1112.30 490.4852
1112.40 490.3552
1112.50 490.2251
1112.60 490.0951
1112.70 489.965
1112.80 489.835
1112.90 489.7049
1113.00 489.5749
1113.10 489.4448
1113.20 489.3148
1113.30 489.1847
1113.40 489.0547
1113.50 488.9246
1113.60 488.7946
1113.70 488.6645
1113.80 488.5345
1113.90 488.4044
1114.00 488.2744
1114.10 488.1443
1114.20 488.1146
1114.30 488.3191
1114.40 488.5236
1114.50 488.728
1114.60 488.9325
1114.70 489.137
1114.80 489.3414
1114.90 489.5459
1115.00 489.7504
1115.10 489.9549
1115.20 490.1593
1115.30 490.3638
1115.40 490.5683
1115.50 490.7728
1115.60 490.9772
1115.70 491.1817
1115.80 491.3862
1115.90 491.5906
1116.00 491.7951
1116.10 491.9996
1116.20 492.2041
1116.30 492.4085
1116.40 492.613
1116.50 492.8175
1116.60 493.022
1116.70 493.2264
1116.80 493.4309
1116.90 493.6354
1117.00 493.8398
1117.10 494.0443
1117.20 494.2488
1117.30 494.4533
1117.40 494.6577
1117.50 494.8622
1117.60 495.0667
1117.70 495.2711
1117.80 495.4756
1117.90 495.6801
1118.00 495.8846
1118.10 496.089
1118.20 496.2935
1118.30 496.498
1118.40 496.699
1118.50 496.8977
1118.60 497.0963
1118.70 497.295
1118.80 497.4937
1118.90 497.6923
1119.00 497.891
1119.10 498.0897
1119.20 498.2884
1119.30 498.487
1119.40 498.6857
1119.50 498.8844
1119.60 499.0831
1119.70 499.2817
1119.80 499.4804
1119.90 499.6791
1120.00 499.8778
1120.10 500.0764
1120.20 500.2751
1120.30 500.4738
1120.40 500.6725
1120.50 500.8711
1120.60 501.0698
1120.70 501.2685
1120.80 501.4672
1120.90 501.6658
1121.00 501.8645
1121.10 502.0632
1121.20 502.2619
1121.30 502.4605
1121.40 502.6592
1121.50 502.8579
1121.60 503.0566
1121.70 503.2552
1121.80 503.4539
1121.90 503.6526
1122.00 503.8513
1122.10 504.0499
1122.20 504.2486
1122.30 504.4473
1122.40 504.646
1122.50 504.8446
1122.60 504.8595
1122.70 504.8539
1122.80 504.8483
1122.90 504.8426
1123.00 504.837
1123.10 504.8314
1123.20 504.8258
1123.30 504.8202
1123.40 504.8146
1123.50 504.809
1123.60 504.8034
1123.70 504.7978
1123.80 504.7922
1123.90 504.7866
1124.00 504.781
1124.10 504.7754
1124.20 504.7698
1124.30 504.7642
1124.40 504.7586
1124.50 504.753
1124.60 504.7474
1124.70 504.7417
1124.80 504.7361
1124.90 504.7305
1125.00 504.7249
1125.10 504.7193
1125.20 504.7137
1125.30 504.7081
1125.40 504.7025
1125.50 504.6969
1125.60 504.6913
1125.70 504.6857
1125.80 504.6801
1125.90 504.6745
1126.00 504.6689
1126.10 504.6633
1126.20 504.6577
1126.30 504.6521
1126.40 504.6465
1126.50 504.6409
1126.60 504.6352
1126.70 504.5905
1126.80 504.3894
1126.90 504.1882
1127.00 503.987
1127.10 503.7858
1127.20 503.5847
1127.30 503.3835
1127.40 503.1823
1127.50 502.9812
1127.60 502.78
1127.70 502.5788
1127.80 502.3776
1127.90 502.1765
1128.00 501.9753
1128.10 501.7741
1128.20 501.573
1128.30 501.3718
1128.40 501.1706
1128.50 500.9695
1128.60 500.7683
1128.70 500.5671
1128.80 500.3659
1128.90 500.1648
1129.00 499.9636
1129.10 499.7624
1129.20 499.5613
1129.30 499.3601
1129.40 499.1589
1129.50 498.9577
1129.60 498.7566
1129.70 498.5554
1129.80 498.3542
1129.90 498.1531
1130.00 497.9519
1130.10 497.7507
1130.20 497.5496
1130.30 497.3484
1130.40 497.1472
1130.50 496.946
1130.60 496.7449
1130.70 496.5437
1130.80 496.3425
1130.90 496.0453
1131.00 495.5238
1131.10 495.0024
1131.20 494.4809
1131.30 493.9595
1131.40 493.438
1131.50 492.9166
1131.60 492.3951
1131.70 491.8737
1131.80 491.3522
1131.90 490.8308
1132.00 490.3093
1132.10 489.7879
1132.20 489.2664
1132.30 488.745
1132.40 488.2235
1132.50 487.702
1132.60 487.1806
1132.70 486.6591
1132.80 486.1377
1132.90 485.6162
1133.00 485.0948
1133.10 484.5733
1133.20 484.0519
1133.30 483.5304
1133.40 483.009
1133.50 482.4875
1133.60 481.9661
1133.70 481.4446
1133.80 480.9232
1133.90 480.4017
1134.00 479.8803
1134.10 479.3588
1134.20 478.8374
1134.30 478.3159
1134.40 477.7945
1134.50 477.273
1134.60 476.7516
1134.70 476.2301
1134.80 475.7087
1134.90 475.1872
1135.00 474.6658
1135.10 474.3181
1135.20 474.231
1135.30 474.1439
1135.40 474.0568
1135.50 473.9697
1135.60 473.8827
1135.70 473.7956
1135.80 473.7085
1135.90 473.6214
1136.00 473.5344
1136.10 473.4473
1136.20 473.3602
1136.30 473.2731
1136.40 473.186
1136.50 473.099
1136.60 473.0119
1136.70 472.9248
1136.80 472.8377
1136.90 472.7506
1137.00 472.6636
1137.10 472.5765
1137.20 472.4894
1137.30 472.4023
1137.40 472.3153
1137.50 472.2282
1137.60 472.1411
1137.70 472.054
1137.80 471.9669
1137.90 471.8799
1138.00 471.7928
1138.10 471.7057
1138.20 471.6186
1138.30 471.5315
1138.40 471.4445
1138.50 471.3574
1138.60 471.2703
1138.70 471.1832
1138.80 471.0962
1138.90 471.0091
1139.00 470.922
1139.10 470.8349
1139.20 470.7478
1139.30 470.8096
1139.40 471.0945
1139.50 471.3794
1139.60 471.6644
1139.70 471.9493
1139.80 472.2342
1139.90 472.5192
1140.00 472.8041
1140.10 473.089
1140.20 473.374
1140.30 473.6589
1140.40 473.9438
1140.50 474.2288
1140.60 474.5137
1140.70 474.7986
1140.80 475.0836
1140.90 475.3685
1141.00 475.6534
1141.10 475.9384
1141.20 476.2233
1141.30 476.5082
1141.40 476.7932
1141.50 477.0781
1141.60 477.363
1141.70 477.648
1141.80 477.9329
1141.90 478.2178
1142.00 478.5028
1142.10 478.7877
1142.20 479.0726
1142.30 479.3576
1142.40 479.6425
1142.50 479.9274
1142.60 480.2124
1142.70 480.4973
1142.80 480.7822
1142.90 481.0672
1143.00 481.3521
1143.10 481.637
1143.20 481.922
1143.30 482.2069
1143.40 482.4918
1143.50 482.9466
1143.60 483.7976
1143.70 484.6487
1143.80 485.4997
1143.90 486.3507
1144.00 487.2018
1144.10 488.0528
1144.20 488.9038
1144.30 489.7549
1144.40 490.6059
1144.50 491.4569
1144.60 492.308
1144.70 493.159
1144.80 494.0101
1144.90 494.8611
1145.00 495.7121
1145.10 496.5632
1145.20 497.4142
1145.30 498.2652
1145.40 499.1163
1145.50 499.9673
1145.60 500.8183
1145.70 501.6694
1145.80 502.5204
1145.90 503.3714
1146.00 504.2225
1146.10 505.0735
1146.20 505.9245
1146.30 506.7756
1146.40 507.6266
1146.50 508.4776
1146.60 509.3287
1146.70 510.1797
1146.80 511.0308
1146.90 511.8818
1147.00 512.7328
1147.10 513.5839
1147.20 514.4349
1147.30 515.2859
1147.40 516.137
1147.50 516.988
1147.60 517.839
1147.70 518.6372
1147.80 519.2241
1147.90 519.811
1148.00 520.3979
1148.10 520.9847
1148.20 521.5716
1148.30 522.1585
1148.40 522.7453
1148.50 523.3322
1148.60 523.9191
1148.70 524.506
1148.80 525.0928
1148.90 525.6797
1149.00 526.2666
1149.10 526.8534
1149.20 527.4403
1149.30 528.0272
1149.40 528.6141
1149.50 529.2009
1149.60 529.7878
1149.70 530.3747
1149.80 530.9616
1149.90 531.5484
1150.00 532.1353
1150.10 532.7222
1150.20 533.309
1150.30 533.8959
1150.40 534.4828
1150.50 535.0697
1150.60 535.6565
1150.70 536.2434
1150.80 536.8303
1150.90 537.4172
1151.00 538.004
1151.10 538.5909
1151.20 539.1778
1151.30 539.7646
1151.40 540.3515
1151.50 540.9384
1151.60 541.5253
1151.70 542.1121
1151.80 542.699
1151.90 543.2859
1152.00 543.2287
1152.10 543.1716
1152.20 543.1144
1152.30 543.0572
1152.40 543.0001
1152.50 542.9429
1152.60 542.8858
1152.70 542.8286
1152.80 542.7715
1152.90 542.7143
1153.00 542.6571
1153.10 542.6
1153.20 542.5428
1153.30 542.4857
1153.40 542.4285
1153.50 542.3713
1153.60 542.3142
1153.70 542.257
1153.80 542.1999
1153.90 542.1427
1154.00 542.0855
1154.10 542.0284
1154.20 541.9712
1154.30 541.9141
1154.40 541.8569
1154.50 541.7998
1154.60 541.7426
1154.70 541.6854
1154.80 541.6283
1154.90 541.5711
1155.00 541.514
1155.10 541.4568
1155.20 541.3996
1155.30 541.3425
1155.40 541.2853
1155.50 541.2282
1155.60 541.171
1155.70 541.1139
1155.80 541.0567
1155.90 540.9995
1156.00 540.9424
1156.10 540.8852
1156.20 540.6118
1156.30 540.2842
1156.40 539.9567
1156.50 539.6292
1156.60 539.3016
1156.70 538.9741
1156.80 538.6466
1156.90 538.319
1157.00 537.9915
1157.10 537.664
1157.20 537.3365
1157.30 537.0089
1157.40 536.6814
1157.50 536.3539
1157.60 536.0263
1157.70 535.6988
1157.80 535.3713
1157.90 535.0437
1158.00 534.7162
1158.10 534.3887
1158.20 534.0611
1158.30 533.7336
1158.40 533.4061
1158.50 533.0785
1158.60 532.751
1158.70 532.4235
1158.80 532.096
1158.90 531.7684
1159.00 531.4409
1159.10 531.1134
1159.20 530.7858
1159.30 530.4583
1159.40 530.1308
1159.50 529.8032
1159.60 529.4757
1159.70 529.1482
1159.80 528.8206
1159.90 528.4931
1160.00 528.1656
1160.10 527.8381
1160.20 527.5105
1160.30 527.183
1160.40 526.8407
1160.50 526.4838
1160.60 526.1268
1160.70 525.7699
1160.80 525.4129
1160.90 525.056
1161.00 524.699
1161.10 524.3421
1161.20 523.9851
1161.30 523.6281
1161.40 523.2712
1161.50 522.9142
1161.60 522.5573
1161.70 522.2003
1161.80 521.8434
1161.90 521.4864
1162.00 521.1295
1162.10 520.7725
1162.20 520.4155
1162.30 520.0586
1162.40 519.7016
1162.50 519.3447
1162.60 518.9877
1162.70 518.6308
1162.80 518.2738
1162.90 517.9169
1163.00 517.5599
1163.10 517.2029
1163.20 516.846
1163.30 516.489
1163.40 516.1321
1163.50 515.7751
1163.60 515.4182
1163.70 515.0612
1163.80 514.7043
1163.90 514.3473
1164.00 513.9903
1164.10 513.6334
1164.20 513.2764
1164.30 512.9195
1164.40 512.5625
1164.50 512.2056
1164.60 511.8556
1164.70 511.5682
1164.80 511.2808
1164.90 510.9934
1165.00 510.706
1165.10 510.4186
1165.20 510.1312
1165.30 509.8438
1165.40 509.5564
1165.50 509.269
1165.60 508.9816
1165.70 508.6942
1165.80 508.4068
1165.90 508.1194
1166.00 507.832
1166.10 507.5446
1166.20 507.2572
1166.30 506.9698
1166.40 506.6824
1166.50 506.395
1166.60 506.1076
1166.70 505.8202
1166.80 505.5328
1166.90 505.2454
1167.00 504.958
1167.10 504.6706
1167.20 504.3832
1167.30 504.0958
1167.40 503.8084
1167.50 503.521
1167.60 503.2336
1167.70 502.9462
1167.80 502.6588
1167.90 502.3714
1168.00 502.084
1168.10 501.7967
1168.20 501.5093
1168.30 501.2219
1168.40 500.9345
1168.50 500.6471
1168.60 500.3597
1168.70 500.0723
1168.80 499.7849
1168.90 499.1899
1169.00 498.463
1169.10 497.7362
1169.20 497.0093
1169.30 496.2825
1169.40 495.5556
1169.50 494.8288
1169.60 494.1019
1169.70 493.3751
1169.80 492.6483
1169.90 491.9214
1170.00 491.1946
1170.10 490.4677
1170.20 489.7409
1170.30 489.014
1170.40 488.2872
1170.50 487.5603
1170.60 486.8335
1170.70 486.1066
1170.80 485.3798
1170.90 484.653
1171.00 483.9261
1171.10 483.1993
1171.20 482.4724
1171.30 481.7456
1171.40 481.0187
1171.50 480.2919
1171.60 479.565
1171.70 478.8382
1171.80 478.1114
1171.90 477.3845
1172.00 476.6577
1172.10 475.9308
1172.20 475.204
1172.30 474.4771
1172.40 473.7503
1172.50 473.0234
1172.60 472.2966
1172.70 471.5697
1172.80 470.8429
1172.90 470.1161
1173.00 469.3892
1173.10 468.8414
1173.20 469.0098
1173.30 469.1782
1173.40 469.3466
1173.50 469.5151
1173.60 469.6835
1173.70 469.8519
1173.80 470.0203
1173.90 470.1887
1174.00 470.3571
1174.10 470.5255
1174.20 470.6939
1174.30 470.8623
1174.40 471.0307
1174.50 471.1991
1174.60 471.3675
1174.70 471.5359
1174.80 471.7044
1174.90 471.8728
1175.00 472.0412
1175.10 472.2096
1175.20 472.378
1175.30 472.5464
1175.40 472.7148
1175.50 472.8832
1175.60 473.0516
1175.70 473.22
1175.80 473.3884
1175.90 473.5568
1176.00 473.7252
1176.10 473.8937
1176.20 474.0621
1176.30 474.2305
1176.40 474.3989
1176.50 474.5673
1176.60 474.7357
1176.70 474.9041
1176.80 475.0725
1176.90 475.2409
1177.00 475.4093
1177.10 475.5777
1177.20 475.7461
1177.30 475.9145
1177.40 476.1509
1177.50 476.4164
1177.60 476.6818
1177.70 476.9473
1177.80 477.2128
1177.90 477.4783
1178.00 477.7438
1178.10 478.0092
1178.20 478.2747
1178.30 478.5402
1178.40 478.8057
1178.50 479.0711
1178.60 479.3366
1178.70 479.6021
1178.80 479.8676
1178.90 480.133
1179.00 480.3985
1179.10 480.664
1179.20 480.9295
1179.30 481.1949
1179.40 481.4604
1179.50 481.7259
1179.60 481.9914
1179.70 482.2568
1179.80 482.5223
1179.90 482.7878
1180.00 483.0533
1180.10 483.3187
1180.20 483.5842
1180.30 483.8497
1180.40 484.1152
1180.50 484.3806
1180.60 484.6461
1180.70 484.9116
1180.80 485.1771
1180.90 485.4425
1181.00 485.708
1181.10 485.9735
1181.20 486.239
1181.30 486.5044
1181.40 486.7699
1181.50 487.0354
1181.60 487.3138
1181.70 487.7081
1181.80 488.1024
1181.90 488.4967
1182.00 488.891
1182.10 489.2853
1182.20 489.6796
1182.30 490.0739
1182.40 490.4682
1182.50 490.8626
1182.60 491.2569
1182.70 491.6512
1182.80 492.0455
1182.90 492.4398
1183.00 492.8341
1183.10 493.2284
1183.20 493.6227
1183.30 494.017
1183.40 494.4114
1183.50 494.8057
1183.60 495.2
1183.70 495.5943
1183.80 495.9886
1183.90 496.3829
1184.00 496.7772
1184.10 497.1715
1184.20 497.5659
1184.30 497.9602
1184.40 498.3545
1184.50 498.7488
1184.60 499.1431
1184.70 499.5374
1184.80 499.9317
1184.90 500.326
1185.00 500.7203
1185.10 501.1147
1185.20 501.509
1185.30 501.9033
1185.40 502.2976
1185.50 502.6919
1185.60 503.0862
1185.70 503.4805
1185.80 503.8748
1185.90 503.9854
1186.00 503.8122
1186.10 503.639
1186.20 503.4658
1186.30 503.2926
1186.40 503.1193
1186.50 502.9461
1186.60 502.7729
1186.70 502.5997
1186.80 502.4265
1186.90 502.2533
1187.00 502.0801
1187.10 501.9069
1187.20 501.7337
1187.30 501.5605
1187.40 501.3873
1187.50 501.214
1187.60 501.0408
1187.70 500.8676
1187.80 500.6944
1187.90 500.5212
1188.00 500.348
1188.10 500.1748
1188.20 500.0016
1188.30 499.8284
1188.40 499.6552
1188.50 499.482
1188.60 499.3088
1188.70 499.1355
1188.80 498.9623
1188.90 498.7891
1189.00 498.6159
1189.10 498.4427
1189.20 498.2695
1189.30 498.0963
1189.40 497.9231
1189.50 497.7499
1189.60 497.5767
1189.70 497.4035
1189.80 497.2303
1189.90 497.057
1190.00 496.8838
1190.10 496.7106
1190.20 496.2446
1190.30 495.7055
1190.40 495.1663
1190.50 494.6271
1190.60 494.0879
1190.70 493.5487
1190.80 493.0095
1190.90 492.4704
1191.00 491.9312
1191.10 491.392
1191.20 490.8528
1191.30 490.3136
1191.40 489.7744
1191.50 489.2353
1191.60 488.6961
1191.70 488.1569
1191.80 487.6177
1191.90 487.0785
1192.00 486.5394
1192.10 486.0002
1192.20 485.461
1192.30 484.9218
1192.40 484.3826
1192.50 483.8434
1192.60 483.3043
1192.70 482.7651
1192.80 482.2259
1192.90 481.6867
1193.00 481.1475
1193.10 480.6083
1193.20 480.0692
1193.30 479.53
1193.40 478.9908
1193.50 478.4516
1193.60 477.9124
1193.70 477.3732
1193.80 476.8341
1193.90 476.2949
1194.00 475.7557
1194.10 475.2165
1194.20 474.6773
1194.30 474.1382
1194.40 473.6158
1194.50 473.2449
1194.60 472.8739
1194.70 472.503
1194.80 472.132
1194.90 471.7611
1195.00 471.3901
1195.10 471.0192
1195.20 470.6483
1195.30 470.2773
1195.40 469.9064
1195.50 469.5354
1195.60 469.1645
1195.70 468.7935
1195.80 468.4226
1195.90 468.0517
1196.00 467.6807
1196.10 467.3098
1196.20 466.9388
1196.30 466.5679
1196.40 466.1969
1196.50 465.826
1196.60 465.4551
1196.70 465.0841
1196.80 464.7132
1196.90 464.3422
1197.00 463.9713
1197.10 463.6003
1197.20 463.2294
1197.30 462.8585
1197.40 462.4875
1197.50 462.1166
1197.60 461.7456
1197.70 461.3747
1197.80 461.0037
1197.90 460.6328
1198.00 460.2619
1198.10 459.8909
1198.20 459.52
1198.30 459.149
1198.40 458.7781
1198.50 458.4071
1198.60 458.0362
1198.70 457.8
1198.80 457.7658
1198.90 457.7316
1199.00 457.6974
1199.10 457.6632
1199.20 457.629
1199.30 457.5948
1199.40 457.5606
1199.50 457.5264
1199.60 457.4922
1199.70 457.458
1199.80 457.4238
1199.90 457.3896
1200.00 457.3554
1200.10 457.3212
1200.20 457.287
1200.30 457.2528
1200.40 457.2187
1200.50 457.1845
1200.60 457.1503
1200.70 457.1161
1200.80 457.0819
1200.90 457.0477
1201.00 457.0135
1201.10 456.9793
1201.20 456.9451
1201.30 456.9109
1201.40 456.8767
1201.50 456.8425
1201.60 456.8083
1201.70 456.7741
1201.80 456.7399
1201.90 456.7057
1202.00 456.6715
1202.10 456.6373
1202.20 456.6031
1202.30 456.569
1202.40 456.5348
1202.50 456.5006
1202.60 456.4664
1202.70 456.4322
1202.80 456.398
1202.90 456.3638
1203.00 456.6188
1203.10 457.0665
1203.20 457.5143
1203.30 457.962
1203.40 458.4098
1203.50 458.8576
1203.60 459.3053
1203.70 459.7531
1203.80 460.2008
1203.90 460.6486
1204.00 461.0964
1204.10 461.5441
1204.20 461.9919
1204.30 462.4396
1204.40 462.8874
1204.50 463.3352
1204.60 463.7829
1204.70 464.2307
1204.80 464.6784
1204.90 465.1262
1205.00 465.574
1205.10 466.0217
1205.20 466.4695
1205.30 466.9172
1205.40 467.365
1205.50 467.8128
1205.60 468.2605
1205.70 468.7083
1205.80 469.156
1205.90 469.6038
1206.00 470.0516
1206.10 470.4993
1206.20 470.9471
1206.30 471.3948
1206.40 471.8426
1206.50 472.2904
1206.60 472.7381
1206.70 473.1859
1206.80 473.6336
1206.90 474.0814
1207.00 474.5292
1207.10 474.9769
1207.20 475.4247
1207.30 476.1118
1207.40 476.8587
1207.50 477.6056
1207.60 478.3526
1207.70 479.0995
1207.80 479.8465
1207.90 480.5934
1208.00 481.3403
1208.10 482.0873
1208.20 482.8342
1208.30 483.5811
1208.40 484.3281
1208.50 485.075
1208.60 485.822
1208.70 486.5689
1208.80 487.3158
1208.90 488.0628
1209.00 488.8097
1209.10 489.5566
1209.20 490.3036
1209.30 491.0505
1209.40 491.7975
1209.50 492.5444
1209.60 493.2913
1209.70 494.0383
1209.80 494.7852
1209.90 495.5321
1210.00 496.2791
1210.10 497.026
1210.20 497.773
1210.30 498.5199
1210.40 499.2668
1210.50 500.0138
1210.60 500.7607
1210.70 501.5076
1210.80 502.2546
1210.90 503.0015
1211.00 503.7485
1211.10 504.4954
1211.20 505.2423
1211.30 505.9893
1211.40 506.7362
1211.50 507.4831
1211.60 507.7584
1211.70 507.9812
1211.80 508.204
1211.90 508.4268
1212.00 508.6496
1212.10 508.8725
1212.20 509.0953
1212.30 509.3181
1212.40 509.5409
1212.50 509.7637
1212.60 509.9866
1212.70 510.2094
1212.80 510.4322
1212.90 510.655
1213.00 510.8778
1213.10 511.1007
1213.20 511.3235
1213.30 511.5463
1213.40 511.7691
1213.50 511.9919
1213.60 512.2147
1213.70 512.4376
1213.80 512.6604
1213.90 512.8832
1214.00 513.106
1214.10 513.3288
1214.20 513.5517
1214.30 513.7745
1214.40 513.9973
1214.50 514.2201
1214.60 514.4429
1214.70 514.6658
1214.80 514.8886
1214.90 515.1114
1215.00 515.3342
1215.10 515.557
1215.20 515.7799
1215.30 516.0027
1215.40 516.2255
1215.50 516.4483
1215.60 516.6711
1215.70 516.8939
1215.80 517.1168
1215.90 517.8201
1216.00 518.5234
1216.10 519.2267
1216.20 519.93
1216.30 520.6334
1216.40 521.3367
1216.50 522.04
1216.60 522.7433
1216.70 523.4466
1216.80 524.15
1216.90 524.8533
1217.00 525.5566
1217.10 526.2599
1217.20 526.9632
1217.30 527.6666
1217.40 528.3699
1217.50 529.0732
1217.60 529.7765
1217.70 530.4798
1217.80 531.1832
1217.90 531.8865
1218.00 532.5898
1218.10 533.2931
1218.20 533.9964
1218.30 534.6998
1218.40 535.4031
1218.50 536.1064
1218.60 536.8097
1218.70 537.513
1218.80 538.2163
1218.90 538.9197
1219.00 539.623
1219.10 540.3263
1219.20 541.0296
1219.30 541.7329
1219.40 542.4363
1219.50 543.1396
1219.60 543.8429
1219.70 544.5462
1219.80 545.2495
1219.90 545.9529
1220.00 546.6562
1220.10 547.3197
1220.20 547.6245
1220.30 547.9294
1220.40 548.2343
1220.50 548.5392
1220.60 548.8441
1220.70 549.1489
1220.80 549.4538
1220.90 549.7587
1221.00 550.0636
1221.10 550.3684
1221.20 550.6733
1221.30 550.9782
1221.40 551.2831
1221.50 551.588
1221.60 551.8928
1221.70 552.1977
1221.80 552.5026
1221.90 552.8075
1222.00 553.1124
1222.10 553.4172
1222.20 553.7221
1222.30 554.027
1222.40 554.3319
1222.50 554.6368
1222.60 554.9416
1222.70 555.2465
1222.80 555.5514
1222.90 555.8563
1223.00 556.1612
1223.10 556.466
1223.20 556.7709
1223.30 557.0758
1223.40 557.3807
1223.50 557.6855
1223.60 557.9904
1223.70 558.2953
1223.80 558.6002
1223.90 558.9051
1224.00 559.2099
1224.10 559.5148
1224.20 559.8197
1224.30 560.1246
1224.40 560.3896
1224.50 560.4953
1224.60 560.6009
1224.70 560.7066
1224.80 560.8122
1224.90 560.9179
1225.00 561.0235
1225.10 561.1292
1225.20 561.2348
1225.30 561.3405
1225.40 561.4461
1225.50 561.5518
1225.60 561.6574
1225.70 561.7631
1225.80 561.8687
1225.90 561.9744
1226.00 562.08
1226.10 562.1857
1226.20 562.2913
1226.30 562.397
1226.40 562.5026
1226.50 562.6083
1226.60 562.7139
1226.70 562.8196
1226.80 562.9252
1226.90 563.0309
1227.00 563.1365
1227.10 563.2422
1227.20 563.3478
1227.30 563.4535
1227.40 563.5591
1227.50 563.6648
1227.60 563.7704
1227.70 563.8761
1227.80 563.9817
1227.90 564.0874
1228.00 564.193
1228.10 564.2987
1228.20 564.4043
1228.30 564.51
1228.40 564.6156
1228.50 564.7213
1228.60 564.8269
1228.70 564.839
1228.80 564.4771
1228.90 564.1152
1229.00 563.7533
1229.10 563.3914
1229.20 563.0295
1229.30 562.6676
1229.40 562.3057
1229.50 561.9438
1229.60 561.5819
1229.70 561.22
1229.80 560.8581
1229.90 560.4962
1230.00 560.1343
1230.10 559.7724
1230.20 559.4105
1230.30 559.0486
1230.40 558.6867
1230.50 558.3248
1230.60 557.9629
1230.70 557.601
1230.80 557.2391
1230.90 556.8772
1231.00 556.5153
1231.10 556.1534
1231.20 555.7915
1231.30 555.4296
1231.40 555.0677
1231.50 554.7058
1231.60 554.3439
1231.70 553.982
1231.80 553.6201
1231.90 553.2582
1232.00 552.8963
1232.10 552.5344
1232.20 552.1725
1232.30 551.8106
1232.40 551.4487
1232.50 551.0868
1232.60 550.7249
1232.70 550.363
1232.80 550.0011
1232.90 549.6392
1233.00 549.2288
1233.10 548.6243
1233.20 548.0199
1233.30 547.4154
1233.40 546.8109
1233.50 546.2064
1233.60 545.6019
1233.70 544.9974
1233.80 544.393
1233.90 543.7885
1234.00 543.184
1234.10 542.5795
1234.20 541.975
1234.30 541.3706
1234.40 540.7661
1234.50 540.1616
1234.60 539.5571
1234.70 538.9526
1234.80 538.3481
1234.90 537.7437
1235.00 537.1392
1235.10 536.5347
1235.20 535.9302
1235.30 535.3257
1235.40 534.7213
1235.50 534.1168
1235.60 533.5123
1235.70 532.9078
1235.80 532.3033
1235.90 531.6988
1236.00 531.0944
1236.10 530.4899
1236.20 529.8854
1236.30 529.2809
1236.40 528.6764
1236.50 528.072
1236.60 527.4675
1236.70 526.863
1236.80 526.2585
1236.90 525.654
1237.00 525.0495
1237.10 524.4451
1237.20 523.8406
1237.30 523.2922
1237.40 522.9682
1237.50 522.6442
1237.60 522.3202
1237.70 521.9961
1237.80 521.6721
1237.90 521.3481
1238.00 521.0241
1238.10 520.7001
1238.20 520.3761
1238.30 520.0521
1238.40 519.728
1238.50 519.404
1238.60 519.08
1238.70 518.756
1238.80 518.432
1238.90 518.108
1239.00 517.784
1239.10 517.46
1239.20 517.1359
1239.30 516.8119
1239.40 516.4879
1239.50 516.1639
1239.60 515.8399
1239.70 515.5159
1239.80 515.1919
1239.90 514.8679
1240.00 514.5438
1240.10 514.2198
1240.20 513.8958
1240.30 513.5718
1240.40 513.2478
1240.50 512.9238
1240.60 512.5998
1240.70 512.2757
1240.80 511.9517
1240.90 511.6277
1241.00 511.3037
1241.10 510.9797
1241.20 510.6557
1241.30 510.3317
1241.40 510.0077
1241.50 509.6836
1241.60 509.3658
1241.70 509.103
1241.80 508.8403
1241.90 508.5776
1242.00 508.3149
1242.10 508.0521
1242.20 507.7894
1242.30 507.5267
1242.40 507.264
1242.50 507.0012
1242.60 506.7385
1242.70 506.4758
1242.80 506.2131
1242.90 505.9503
1243.00 505.6876
1243.10 505.4249
1243.20 505.1622
1243.30 504.8994
1243.40 504.6367
1243.50 504.374
1243.60 504.1113
1243.70 503.8485
1243.80 503.5858
1243.90 503.3231
1244.00 503.0604
1244.10 502.7976
1244.20 502.5349
1244.30 502.2722
1244.40 502.0095
1244.50 501.7467
1244.60 501.484
1244.70 501.2213
1244.80 500.9586
1244.90 500.6958
1245.00 500.4331
1245.10 500.1704
1245.20 499.9077
1245.30 499.6449
1245.40 499.3822
1245.50 499.1195
1245.60 498.8568
1245.70 498.594
1245.80 498.3313
1245.90 498.0686
1246.00 498.5725
1246.10 499.0765
1246.20 499.5805
1246.30 500.0844
1246.40 500.5884
1246.50 501.0923
1246.60 501.5963
1246.70 502.1002
1246.80 502.6042
1246.90 503.1081
1247.00 503.6121
1247.10 504.116
1247.20 504.62
1247.30 505.1239
1247.40 505.6279
1247.50 506.1318
1247.60 506.6358
1247.70 507.1397
1247.80 507.6437
1247.90 508.1476
1248.00 508.6516
1248.10 509.1555
1248.20 509.6595
1248.30 510.1635
1248.40 510.6674
1248.50 511.1714
1248.60 511.6753
1248.70 512.1793
1248.80 512.6832
1248.90 513.1872
1249.00 513.6911
1249.10 514.1951
1249.20 514.699
1249.30 515.203
1249.40 515.7069
1249.50 516.2109
1249.60 516.7148
1249.70 517.2188
1249.80 517.7227
1249.90 518.2267
1250.00 518.7306
1250.10 519.2346
1250.20 519.7385
1250.30 520.1632
1250.40 520.5879
1250.50 521.0126
1250.60 521.4373
1250.70 521.862
1250.80 522.2866
1250.90 522.7113
1251.00 523.136
1251.10 523.5607
1251.20 523.9854
1251.30 524.41
1251.40 524.8347
1251.50 525.2594
1251.60 525.6841
1251.70 526.1088
1251.80 526.5334
1251.90 526.9581
1252.00 527.3828
1252.10 527.8075
1252.20 528.2322
1252.30 528.6569
1252.40 529.0815
1252.50 529.5062
1252.60 529.9309
1252.70 530.3556
1252.80 530.7803
1252.90 531.2049
1253.00 531.6296
1253.10 532.0543
1253.20 532.479
1253.30 532.9037
1253.40 533.3283
1253.50 533.753
1253.60 534.1777
1253.70 534.6024
1253.80 535.0271
1253.90 535.4518
1254.00 535.8764
1254.10 536.3011
1254.20 536.7258
1254.30 537.1505
1254.40 537.5752
1254.50 537.9998
1254.60 538.6978
1254.70 539.4261
1254.80 540.1544
1254.90 540.8827
1255.00 541.6111
1255.10 542.3394
1255.20 543.0677
1255.30 543.796
1255.40 544.5243
1255.50 545.2526
1255.60 545.981
1255.70 546.7093
1255.80 547.4376
1255.90 548.1659
1256.00 548.8942
1256.10 549.6225
1256.20 550.3509
1256.30 551.0792
1256.40 551.8075
1256.50 552.5358
1256.60 553.2641
1256.70 553.9924
1256.80 554.7207
1256.90 555.4491
1257.00 556.1774
1257.10 556.9057
1257.20 557.634
1257.30 558.3623
1257.40 559.0906
1257.50 559.819
1257.60 560.5473
1257.70 561.2756
1257.80 562.0039
1257.90 562.7322
1258.00 563.4605
1258.10 564.1889
1258.20 564.9172
1258.30 565.6455
1258.40 566.3738
1258.50 567.1021
1258.60 567.8304
1258.70 568.5588
1258.80 569.2871
1258.90 570.0418
1259.00 570.8079
1259.10 571.574
1259.20 572.3401
1259.30 573.1061
1259.40 573.8722
1259.50 574.6383
1259.60 575.4044
1259.70 576.1705
1259.80 576.9365
1259.90 577.7026
1260.00 578.4687
1260.10 579.2348
1260.20 580.0009
1260.30 580.7669
1260.40 581.533
1260.50 582.2991
1260.60 583.0652
1260.70 583.8313
1260.80 584.5973
1260.90 585.3634
1261.00 586.1295
1261.10 586.8956
1261.20 587.6617
1261.30 588.4277
1261.40 589.1938
1261.50 589.9599
1261.60 590.726
1261.70 591.4921
1261.80 592.2582
1261.90 593.0242
1262.00 593.7903
1262.10 594.5564
1262.20 595.3225
1262.30 596.0886
1262.40 596.8546
1262.50 597.6207
1262.60 598.3868
1262.70 599.1529
1262.80 599.919
1262.90 600.685
1263.00 601.4511
1263.10 602.2172
1263.20 602.795
1263.30 603.2474
1263.40 603.6997
1263.50 604.152
1263.60 604.6043
1263.70 605.0567
1263.80 605.509
1263.90 605.9613
1264.00 606.4136
1264.10 606.866
1264.20 607.3183
1264.30 607.7706
1264.40 608.223
1264.50 608.6753
1264.60 609.1276
1264.70 609.5799
1264.80 610.0323
1264.90 610.4846
1265.00 610.9369
1265.10 611.3892
1265.20 611.8416
1265.30 612.2939
1265.40 612.7462
1265.50 613.1986
1265.60 613.6509
1265.70 614.1032
1265.80 614.5555
1265.90 615.0079
1266.00 615.4602
1266.10 615.9125
1266.20 616.3648
1266.30 616.8172
1266.40 617.2695
1266.50 617.7218
1266.60 618.1742
1266.70 618.6265
1266.80 619.0788
1266.90 619.5311
1267.00 619.9835
1267.10 620.4358
1267.20 620.8881
1267.30 621.3405
1267.40 621.7928
1267.50 622.2196
1267.60 622.6209
1267.70 623.0222
1267.80 623.4235
1267.90 623.8248
1268.00 624.2261
1268.10 624.6274
1268.20 625.0287
1268.30 625.43
1268.40 625.8313
1268.50 626.2326
1268.60 626.6339
1268.70 627.0352
1268.80 627.4365
1268.90 627.8378
1269.00 628.2391
1269.10 628.6404
1269.20 629.0417
1269.30 629.443
1269.40 629.8443
1269.50 630.2456
1269.60 630.6469
1269.70 631.0482
1269.80 631.4495
1269.90 631.8508
1270.00 632.252
1270.10 632.6533
1270.20 633.0546
1270.30 633.4559
1270.40 633.8572
1270.50 634.2585
1270.60 634.6598
1270.70 635.0611
1270.80 635.4624
1270.90 635.8637
1271.00 636.265
1271.10 636.6663
1271.20 637.0676
1271.30 637.4689
1271.40 637.8702
1271.50 638.2715
1271.60 638.6728
1271.70 639.0741
1271.80 639.364
1271.90 639.394
1272.00 639.424
1272.10 639.454
1272.20 639.4839
1272.30 639.5139
1272.40 639.5439
1272.50 639.5739
1272.60 639.6039
1272.70 639.6339
1272.80 639.6638
1272.90 639.6938
1273.00 639.7238
1273.10 639.7538
1273.20 639.7838
1273.30 639.8137
1273.40 639.8437
1273.50 639.8737
1273.60 639.9037
1273.70 639.9337
1273.80 639.9636
1273.90 639.9936
1274.00 640.0236
1274.10 640.0536
1274.20 640.0836
1274.30 640.1135
1274.40 640.1435
1274.50 640.1735
1274.60 640.2035
1274.70 640.2335
1274.80 640.2634
1274.90 640.2934
1275.00 640.3234
1275.10 640.3534
1275.20 640.3834
1275.30 640.4133
1275.40 640.4433
1275.50 640.4733
1275.60 640.5033
1275.70 640.5333
1275.80 640.5633
1275.90 640.5932
1276.00 640.6232
1276.10 640.6325
1276.20 640.4552
1276.30 640.2779
1276.40 640.1006
1276.50 639.9233
1276.60 639.746
1276.70 639.5687
1276.80 639.3914
1276.90 639.2141
1277.00 639.0368
1277.10 638.8595
1277.20 638.6822
1277.30 638.5049
1277.40 638.3276
1277.50 638.1503
1277.60 637.973
1277.70 637.7957
1277.80 637.6184
1277.90 637.4411
1278.00 637.2638
1278.10 637.0865
1278.20 636.9092
1278.30 636.7319
1278.40 636.5546
1278.50 636.3774
1278.60 636.2001
1278.70 636.0228
1278.80 635.8455
1278.90 635.6682
1279.00 635.4909
1279.10 635.3136
1279.20 635.1363
1279.30 634.959
1279.40 634.7817
1279.50 634.6044
1279.60 634.4271
1279.70 634.2498
1279.80 634.0725
1279.90 633.8952
1280.00 633.7179
1280.10 633.5406
1280.20 633.3633
1280.30 633.186
1280.40 633.0087
1280.50 632.9886
1280.60 632.9685
1280.70 632.9483
1280.80 632.9282
1280.90 632.9081
1281.00 632.8879
1281.10 632.8678
1281.20 632.8477
1281.30 632.8276
1281.40 632.8074
1281.50 632.7873
1281.60 632.7672
1281.70 632.747
1281.80 632.7269
1281.90 632.7068
1282.00 632.6866
1282.10 632.6665
1282.20 632.6464
1282.30 632.6263
1282.40 632.6061
1282.50 632.586
1282.60 632.5659
1282.70 632.5457
1282.80 632.5256
1282.90 632.5055
1283.00 632.4853
1283.10 632.4652
1283.20 632.4451
1283.30 632.425
1283.40 632.4048
1283.50 632.3847
1283.60 632.3646
1283.70 632.3444
1283.80 632.3243
1283.90 632.3042
1284.00 632.284
1284.10 632.2639
1284.20 632.2438
1284.30 632.2237
1284.40 632.2035
1284.50 632.1834
1284.60 632.1633
1284.70 632.1431
1284.80 632.2446
1284.90 632.3766
1285.00 632.5085
1285.10 632.6404
1285.20 632.7723
1285.30 632.9042
1285.40 633.0361
1285.50 633.168
1285.60 633.3
1285.70 633.4319
1285.80 633.5638
1285.90 633.6957
1286.00 633.8276
1286.10 633.9595
1286.20 634.0915
1286.30 634.2234
1286.40 634.3553
1286.50 634.4872
1286.60 634.6191
1286.70 634.751
1286.80 634.8829
1286.90 635.0149
1287.00 635.1468
1287.10 635.2787
1287.20 635.4106
1287.30 635.5425
1287.40 635.6744
1287.50 635.8063
1287.60 635.9383
1287.70 636.0702
1287.80 636.2021
1287.90 636.334
1288.00 636.4659
1288.10 636.5978
1288.20 636.7298
1288.30 636.8617
1288.40 636.9936
1288.50 637.1255
1288.60 637.2574
1288.70 637.3893
1288.80 637.5212
1288.90 637.6532
1289.00 637.7851
1289.10 637.6634
1289.20 637.3727
1289.30 637.082
1289.40 636.7913
1289.50 636.5006
1289.60 636.2099
1289.70 635.9192
1289.80 635.6285
1289.90 635.3378
1290.00 635.0471
1290.10 634.7564
1290.20 634.4657
1290.30 634.175
1290.40 633.8843
1290.50 633.5936
1290.60 633.3029
1290.70 633.0122
1290.80 632.7215
1290.90 632.4308
1291.00 632.1402
1291.10 631.8495
1291.20 631.5588
1291.30 631.2681
1291.40 630.9774
1291.50 630.6867
1291.60 630.396
1291.70 630.1053
1291.80 629.8146
1291.90 629.5239
1292.00 629.2332
1292.10 628.9425
1292.20 628.6518
1292.30 628.3611
1292.40 628.0704
1292.50 627.7797
1292.60 627.489
1292.70 627.1983
1292.80 626.9076
1292.90 626.6169
1293.00 626.3262
1293.10 626.0355
1293.20 625.7448
1293.30 625.4541
1293.40 625.2574
1293.50 625.2016
1293.60 625.1459
1293.70 625.0901
1293.80 625.0344
1293.90 624.9786
1294.00 624.9229
1294.10 624.8671
1294.20 624.8114
1294.30 624.7556
1294.40 624.6999
1294.50 624.6441
1294.60 624.5884
1294.70 624.5326
1294.80 624.4769
1294.90 624.4211
1295.00 624.3654
1295.10 624.3096
1295.20 624.2539
1295.30 624.1981
1295.40 624.1424
1295.50 624.0866
1295.60 624.0309
1295.70 623.9751
1295.80 623.9194
1295.90 623.8636
1296.00 623.8079
1296.10 623.7521
1296.20 623.6964
1296.30 623.6406
1296.40 623.5849
1296.50 623.5291
1296.60 623.4734
1296.70 623.4176
1296.80 623.3619
1296.90 623.3061
1297.00 623.2504
1297.10 623.1946
1297.20 623.1389
1297.30 623.0831
1297.40 623.0274
1297.50 622.9716
1297.60 622.9159
1297.70 622.8831
1297.80 622.9419
1297.90 623.0008
1298.00 623.0596
1298.10 623.1185
1298.20 623.1773
1298.30 623.2362
1298.40 623.295
1298.50 623.3539
1298.60 623.4128
1298.70 623.4716
1298.80 623.5305
1298.90 623.5893
1299.00 623.6482
1299.10 623.707
1299.20 623.7659
1299.30 623.8247
1299.40 623.8836
1299.50 623.9425
1299.60 624.0013
1299.70 624.0602
1299.80 624.119
1299.90 624.1779
