# Version 2.1 - nm, norm@500 to 1, cut digits
# Wavelength(nm)  Flambda(ergs/cm^s/s/nm)
300.00 1.835684e-95
300.10 1.835684e-95
300.20 1.835684e-95
300.30 1.835684e-95
300.40 1.835684e-95
300.50 1.835684e-95
300.60 1.835684e-95
300.70 1.835684e-95
300.80 1.835684e-95
300.90 1.835684e-95
301.00 1.835684e-95
301.10 1.835684e-95
301.20 1.835684e-95
301.30 1.835684e-95
301.40 1.835684e-95
301.50 1.835684e-95
301.60 1.835684e-95
301.70 1.835684e-95
301.80 1.835684e-95
301.90 1.835684e-95
302.00 1.835684e-95
302.10 1.835684e-95
302.20 1.835684e-95
302.30 1.835684e-95
302.40 1.835684e-95
302.50 1.835684e-95
302.60 1.835684e-95
302.70 1.835684e-95
302.80 1.835684e-95
302.90 1.835684e-95
303.00 1.835684e-95
303.10 1.835684e-95
303.20 1.835684e-95
303.30 1.835684e-95
303.40 1.835684e-95
303.50 1.835684e-95
303.60 1.835684e-95
303.70 1.835684e-95
303.80 1.835684e-95
303.90 1.835684e-95
304.00 1.835684e-95
304.10 1.835684e-95
304.20 1.835684e-95
304.30 1.835684e-95
304.40 1.835684e-95
304.50 1.835684e-95
304.60 1.835684e-95
304.70 1.835684e-95
304.80 1.835684e-95
304.90 1.835684e-95
305.00 1.835684e-95
305.10 1.835684e-95
305.20 1.835684e-95
305.30 1.835684e-95
305.40 1.835684e-95
305.50 1.835684e-95
305.60 1.835684e-95
305.70 1.835684e-95
305.80 1.835684e-95
305.90 1.835684e-95
306.00 1.835684e-95
306.10 1.835684e-95
306.20 1.835684e-95
306.30 1.835684e-95
306.40 1.835684e-95
306.50 1.835684e-95
306.60 1.835684e-95
306.70 1.835684e-95
306.80 1.835684e-95
306.90 1.835684e-95
307.00 1.835684e-95
307.10 1.835684e-95
307.20 1.835684e-95
307.30 1.835684e-95
307.40 1.835684e-95
307.50 1.835684e-95
307.60 1.835684e-95
307.70 1.835684e-95
307.80 1.835684e-95
307.90 1.835684e-95
308.00 1.835684e-95
308.10 1.835684e-95
308.20 1.835684e-95
308.30 1.835684e-95
308.40 1.835684e-95
308.50 1.835684e-95
308.60 1.835684e-95
308.70 1.835684e-95
308.80 1.835684e-95
308.90 1.835684e-95
309.00 1.835684e-95
309.10 1.835684e-95
309.20 1.835684e-95
309.30 1.835684e-95
309.40 1.835684e-95
309.50 1.835684e-95
309.60 1.835684e-95
309.70 1.835684e-95
309.80 1.835684e-95
309.90 1.835684e-95
310.00 1.835684e-95
310.10 1.835684e-95
310.20 1.835684e-95
310.30 1.835684e-95
310.40 1.835684e-95
310.50 1.835684e-95
310.60 1.835684e-95
310.70 1.835684e-95
310.80 1.835684e-95
310.90 1.835684e-95
311.00 1.835684e-95
311.10 1.835684e-95
311.20 1.835684e-95
311.30 1.835684e-95
311.40 1.835684e-95
311.50 1.835684e-95
311.60 1.835684e-95
311.70 1.835684e-95
311.80 1.835684e-95
311.90 1.835684e-95
312.00 1.835684e-95
312.10 1.835684e-95
312.20 1.835684e-95
312.30 1.835684e-95
312.40 1.835684e-95
312.50 1.835684e-95
312.60 1.835684e-95
312.70 1.835684e-95
312.80 1.835684e-95
312.90 1.835684e-95
313.00 1.835684e-95
313.10 1.835684e-95
313.20 1.835684e-95
313.30 1.835684e-95
313.40 1.835684e-95
313.50 1.835684e-95
313.60 1.835684e-95
313.70 1.835684e-95
313.80 1.835684e-95
313.90 1.835684e-95
314.00 1.835684e-95
314.10 1.835684e-95
314.20 1.835684e-95
314.30 1.835684e-95
314.40 1.835684e-95
314.50 1.835684e-95
314.60 1.835684e-95
314.70 1.835684e-95
314.80 1.835684e-95
314.90 1.835684e-95
315.00 1.835684e-95
315.10 1.835684e-95
315.20 1.835684e-95
315.30 1.835684e-95
315.40 1.835684e-95
315.50 1.835684e-95
315.60 1.835684e-95
315.70 1.835684e-95
315.80 1.835684e-95
315.90 1.835684e-95
316.00 1.835684e-95
316.10 1.835684e-95
316.20 1.835684e-95
316.30 1.835684e-95
316.40 1.835684e-95
316.50 1.835684e-95
316.60 1.835684e-95
316.70 1.835684e-95
316.80 1.835684e-95
316.90 1.835684e-95
317.00 1.835684e-95
317.10 1.835684e-95
317.20 1.835684e-95
317.30 1.835684e-95
317.40 1.835684e-95
317.50 1.835684e-95
317.60 1.835684e-95
317.70 1.835684e-95
317.80 1.835684e-95
317.90 1.835684e-95
318.00 1.835684e-95
318.10 1.835684e-95
318.20 1.835684e-95
318.30 1.835684e-95
318.40 1.835684e-95
318.50 1.835684e-95
318.60 1.835684e-95
318.70 1.835684e-95
318.80 1.835684e-95
318.90 1.835684e-95
319.00 1.835684e-95
319.10 1.835684e-95
319.20 1.835684e-95
319.30 1.835684e-95
319.40 1.835684e-95
319.50 1.835684e-95
319.60 1.835684e-95
319.70 1.835684e-95
319.80 1.835684e-95
319.90 1.835684e-95
320.00 1.835684e-95
320.10 1.835684e-95
320.20 1.835684e-95
320.30 1.835684e-95
320.40 1.835684e-95
320.50 1.835684e-95
320.60 1.835684e-95
320.70 1.835684e-95
320.80 1.835684e-95
320.90 1.835684e-95
321.00 1.835684e-95
321.10 1.835684e-95
321.20 1.835684e-95
321.30 1.835684e-95
321.40 1.835684e-95
321.50 1.835684e-95
321.60 1.835684e-95
321.70 1.835684e-95
321.80 1.835684e-95
321.90 1.835684e-95
322.00 1.835684e-95
322.10 1.835684e-95
322.20 1.835684e-95
322.30 1.835684e-95
322.40 1.835684e-95
322.50 1.835684e-95
322.60 1.835684e-95
322.70 1.835684e-95
322.80 1.835684e-95
322.90 1.835684e-95
323.00 1.835684e-95
323.10 1.835684e-95
323.20 1.835684e-95
323.30 1.835684e-95
323.40 1.835684e-95
323.50 1.835684e-95
323.60 1.835684e-95
323.70 1.835684e-95
323.80 1.835684e-95
323.90 1.835684e-95
324.00 1.835684e-95
324.10 1.835684e-95
324.20 1.835684e-95
324.30 1.835684e-95
324.40 1.835684e-95
324.50 1.835684e-95
324.60 1.835684e-95
324.70 1.835684e-95
324.80 1.835684e-95
324.90 1.835684e-95
325.00 1.835684e-95
325.10 1.835684e-95
325.20 1.835684e-95
325.30 1.835684e-95
325.40 1.835684e-95
325.50 1.835684e-95
325.60 1.835684e-95
325.70 1.835684e-95
325.80 1.835684e-95
325.90 1.835684e-95
326.00 1.835684e-95
326.10 1.835684e-95
326.20 1.835684e-95
326.30 1.835684e-95
326.40 1.835684e-95
326.50 1.835684e-95
326.60 1.835684e-95
326.70 1.835684e-95
326.80 1.835684e-95
326.90 1.835684e-95
327.00 1.835684e-95
327.10 1.835684e-95
327.20 1.835684e-95
327.30 1.835684e-95
327.40 1.835684e-95
327.50 1.835684e-95
327.60 1.835684e-95
327.70 1.835684e-95
327.80 1.835684e-95
327.90 1.835684e-95
328.00 1.835684e-95
328.10 1.835684e-95
328.20 1.835684e-95
328.30 1.835684e-95
328.40 1.835684e-95
328.50 1.835684e-95
328.60 1.835684e-95
328.70 1.835684e-95
328.80 1.835684e-95
328.90 1.835684e-95
329.00 1.835684e-95
329.10 1.835684e-95
329.20 1.835684e-95
329.30 1.835684e-95
329.40 1.835684e-95
329.50 1.835684e-95
329.60 1.835684e-95
329.70 1.835684e-95
329.80 1.835684e-95
329.90 1.835684e-95
330.00 1.835684e-95
330.10 1.835684e-95
330.20 1.835684e-95
330.30 1.835684e-95
330.40 1.835684e-95
330.50 1.835684e-95
330.60 1.835684e-95
330.70 1.835684e-95
330.80 1.835684e-95
330.90 1.835684e-95
331.00 1.835684e-95
331.10 1.835684e-95
331.20 1.835684e-95
331.30 1.835684e-95
331.40 1.835684e-95
331.50 1.835684e-95
331.60 1.835684e-95
331.70 1.835684e-95
331.80 1.835684e-95
331.90 1.835684e-95
332.00 1.835684e-95
332.10 1.835684e-95
332.20 1.835684e-95
332.30 1.835684e-95
332.40 1.835684e-95
332.50 1.835684e-95
332.60 1.835684e-95
332.70 1.835684e-95
332.80 1.835684e-95
332.90 1.835684e-95
333.00 1.835684e-95
333.10 1.835684e-95
333.20 1.835684e-95
333.30 1.835684e-95
333.40 1.835684e-95
333.50 1.835684e-95
333.60 1.835684e-95
333.70 1.835684e-95
333.80 1.835684e-95
333.90 1.835684e-95
334.00 1.835684e-95
334.10 1.835684e-95
334.20 1.835684e-95
334.30 1.835684e-95
334.40 1.835684e-95
334.50 1.835684e-95
334.60 1.835684e-95
334.70 1.835684e-95
334.80 1.835684e-95
334.90 1.835684e-95
335.00 1.835684e-95
335.10 1.835684e-95
335.20 1.835684e-95
335.30 1.835684e-95
335.40 1.835684e-95
335.50 1.835684e-95
335.60 1.835684e-95
335.70 1.835684e-95
335.80 1.835684e-95
335.90 1.835684e-95
336.00 1.835684e-95
336.10 1.835684e-95
336.20 1.835684e-95
336.30 1.835684e-95
336.40 1.835684e-95
336.50 1.835684e-95
336.60 1.835684e-95
336.70 1.835684e-95
336.80 1.835684e-95
336.90 1.835684e-95
337.00 1.835684e-95
337.10 1.835684e-95
337.20 1.835684e-95
337.30 1.835684e-95
337.40 1.835684e-95
337.50 1.835684e-95
337.60 1.835684e-95
337.70 1.835684e-95
337.80 1.835684e-95
337.90 1.835684e-95
338.00 1.835684e-95
338.10 1.835684e-95
338.20 1.835684e-95
338.30 1.835684e-95
338.40 1.835684e-95
338.50 1.835684e-95
338.60 1.835684e-95
338.70 1.835684e-95
338.80 1.835684e-95
338.90 1.835684e-95
339.00 1.835684e-95
339.10 1.835684e-95
339.20 1.835684e-95
339.30 1.835684e-95
339.40 1.835684e-95
339.50 1.835684e-95
339.60 1.835684e-95
339.70 1.835684e-95
339.80 1.835684e-95
339.90 1.835684e-95
340.00 1.835684e-95
340.10 1.835684e-95
340.20 1.835684e-95
340.30 1.835684e-95
340.40 1.835684e-95
340.50 1.835684e-95
340.60 1.835684e-95
340.70 1.835684e-95
340.80 1.835684e-95
340.90 1.835684e-95
341.00 1.835684e-95
341.10 1.835684e-95
341.20 1.835684e-95
341.30 1.835684e-95
341.40 1.835684e-95
341.50 1.835684e-95
341.60 1.835684e-95
341.70 1.835684e-95
341.80 1.835684e-95
341.90 1.835684e-95
342.00 1.835684e-95
342.10 1.835684e-95
342.20 1.835684e-95
342.30 1.835684e-95
342.40 1.835684e-95
342.50 1.835684e-95
342.60 1.835684e-95
342.70 1.835684e-95
342.80 1.835684e-95
342.90 1.835684e-95
343.00 1.835684e-95
343.10 1.835684e-95
343.20 1.835684e-95
343.30 1.835684e-95
343.40 1.835684e-95
343.50 1.835684e-95
343.60 1.835684e-95
343.70 1.835684e-95
343.80 1.835684e-95
343.90 1.835684e-95
344.00 1.835684e-95
344.10 1.835684e-95
344.20 1.835684e-95
344.30 1.835684e-95
344.40 1.835684e-95
344.50 1.835684e-95
344.60 1.835684e-95
344.70 1.835684e-95
344.80 1.835684e-95
344.90 1.835684e-95
345.00 1.835684e-95
345.10 1.835684e-95
345.20 1.835684e-95
345.30 1.835684e-95
345.40 1.835684e-95
345.50 1.835684e-95
345.60 1.835684e-95
345.70 1.835684e-95
345.80 1.835684e-95
345.90 1.835684e-95
346.00 1.835684e-95
346.10 1.835684e-95
346.20 1.835684e-95
346.30 1.835684e-95
346.40 1.835684e-95
346.50 1.835684e-95
346.60 1.835684e-95
346.70 1.835684e-95
346.80 1.835684e-95
346.90 1.835684e-95
347.00 1.835684e-95
347.10 1.835684e-95
347.20 1.835684e-95
347.30 1.835684e-95
347.40 1.835684e-95
347.50 1.835684e-95
347.60 1.835684e-95
347.70 1.835684e-95
347.80 1.835684e-95
347.90 1.835684e-95
348.00 1.835684e-95
348.10 1.835684e-95
348.20 1.835684e-95
348.30 1.835684e-95
348.40 1.835684e-95
348.50 1.835684e-95
348.60 1.835684e-95
348.70 1.835684e-95
348.80 1.835684e-95
348.90 1.835684e-95
349.00 1.835684e-95
349.10 1.835684e-95
349.20 1.835684e-95
349.30 1.835684e-95
349.40 1.835684e-95
349.50 1.835684e-95
349.60 1.835684e-95
349.70 1.835684e-95
349.80 1.835684e-95
349.90 1.835684e-95
350.00 1.835684e-95
350.10 1.835684e-95
350.20 1.835684e-95
350.30 1.835684e-95
350.40 1.835684e-95
350.50 1.835684e-95
350.60 1.835684e-95
350.70 1.835684e-95
350.80 1.835684e-95
350.90 1.835684e-95
351.00 1.835684e-95
351.10 1.835684e-95
351.20 1.835684e-95
351.30 1.835684e-95
351.40 1.835684e-95
351.50 1.835684e-95
351.60 1.835684e-95
351.70 1.835684e-95
351.80 1.835684e-95
351.90 1.835684e-95
352.00 1.835684e-95
352.10 1.835684e-95
352.20 1.835684e-95
352.30 1.835684e-95
352.40 1.835684e-95
352.50 1.835684e-95
352.60 1.835684e-95
352.70 1.835684e-95
352.80 1.835684e-95
352.90 1.835684e-95
353.00 1.835684e-95
353.10 1.835684e-95
353.20 1.835684e-95
353.30 1.835684e-95
353.40 1.835684e-95
353.50 1.835684e-95
353.60 1.835684e-95
353.70 1.835684e-95
353.80 1.835684e-95
353.90 1.835684e-95
354.00 1.835684e-95
354.10 1.835684e-95
354.20 1.835684e-95
354.30 1.835684e-95
354.40 1.835684e-95
354.50 1.835684e-95
354.60 1.835684e-95
354.70 1.835684e-95
354.80 1.835684e-95
354.90 1.835684e-95
355.00 1.835684e-95
355.10 1.835684e-95
355.20 1.835684e-95
355.30 1.835684e-95
355.40 1.835684e-95
355.50 1.835684e-95
355.60 1.835684e-95
355.70 1.835684e-95
355.80 1.835684e-95
355.90 1.835684e-95
356.00 1.835684e-95
356.10 1.835684e-95
356.20 1.835684e-95
356.30 1.835684e-95
356.40 1.835684e-95
356.50 1.835684e-95
356.60 1.835684e-95
356.70 1.835684e-95
356.80 1.835684e-95
356.90 1.835684e-95
357.00 1.835684e-95
357.10 1.835684e-95
357.20 1.835684e-95
357.30 1.835684e-95
357.40 1.835684e-95
357.50 1.835684e-95
357.60 1.835684e-95
357.70 1.835684e-95
357.80 1.835684e-95
357.90 1.835684e-95
358.00 1.835684e-95
358.10 1.835684e-95
358.20 1.835684e-95
358.30 1.835684e-95
358.40 1.835684e-95
358.50 1.835684e-95
358.60 1.835684e-95
358.70 1.835684e-95
358.80 1.835684e-95
358.90 1.835684e-95
359.00 1.835684e-95
359.10 1.835684e-95
359.20 1.835684e-95
359.30 1.835684e-95
359.40 1.835684e-95
359.50 1.835684e-95
359.60 1.835684e-95
359.70 1.835684e-95
359.80 1.835684e-95
359.90 1.835684e-95
360.00 1.835684e-95
360.10 1.835684e-95
360.20 1.835684e-95
360.30 1.835684e-95
360.40 1.835684e-95
360.50 1.835684e-95
360.60 1.835684e-95
360.70 1.835684e-95
360.80 1.835684e-95
360.90 1.835684e-95
361.00 1.835684e-95
361.10 1.835684e-95
361.20 1.835684e-95
361.30 1.835684e-95
361.40 1.835684e-95
361.50 1.835684e-95
361.60 1.835684e-95
361.70 1.835684e-95
361.80 1.835684e-95
361.90 1.835684e-95
362.00 1.835684e-95
362.10 1.835684e-95
362.20 1.835684e-95
362.30 1.835684e-95
362.40 1.835684e-95
362.50 1.835684e-95
362.60 1.835684e-95
362.70 1.835684e-95
362.80 1.835684e-95
362.90 1.835684e-95
363.00 1.835684e-95
363.10 1.835684e-95
363.20 1.835684e-95
363.30 1.835684e-95
363.40 1.835684e-95
363.50 1.835684e-95
363.60 1.835684e-95
363.70 1.835684e-95
363.80 1.835684e-95
363.90 1.835684e-95
364.00 1.835684e-95
364.10 1.835684e-95
364.20 1.835684e-95
364.30 1.835684e-95
364.40 1.835684e-95
364.50 1.835684e-95
364.60 1.835684e-95
364.70 1.835684e-95
364.80 1.835684e-95
364.90 1.835684e-95
365.00 1.835684e-95
365.10 1.835684e-95
365.20 1.835684e-95
365.30 1.835684e-95
365.40 1.835684e-95
365.50 1.835684e-95
365.60 1.835684e-95
365.70 1.835684e-95
365.80 1.835684e-95
365.90 1.835684e-95
366.00 1.835684e-95
366.10 1.835684e-95
366.20 1.835684e-95
366.30 1.835684e-95
366.40 1.835684e-95
366.50 1.835684e-95
366.60 1.835684e-95
366.70 1.835684e-95
366.80 1.835684e-95
366.90 1.835684e-95
367.00 1.835684e-95
367.10 1.835684e-95
367.20 1.835684e-95
367.30 1.835684e-95
367.40 1.835684e-95
367.50 1.835684e-95
367.60 1.835684e-95
367.70 1.835684e-95
367.80 1.835684e-95
367.90 1.835684e-95
368.00 1.835684e-95
368.10 1.835684e-95
368.20 1.835684e-95
368.30 1.835684e-95
368.40 1.835684e-95
368.50 1.835684e-95
368.60 1.835684e-95
368.70 1.835684e-95
368.80 1.835684e-95
368.90 1.835684e-95
369.00 1.835684e-95
369.10 1.835684e-95
369.20 1.835684e-95
369.30 1.835684e-95
369.40 1.835684e-95
369.50 1.835684e-95
369.60 1.835684e-95
369.70 1.835684e-95
369.80 1.835684e-95
369.90 1.835684e-95
370.00 1.835684e-95
370.10 1.835684e-95
370.20 1.835684e-95
370.30 1.835684e-95
370.40 1.835684e-95
370.50 1.835684e-95
370.60 1.835684e-95
370.70 1.835684e-95
370.80 1.835684e-95
370.90 1.835684e-95
371.00 1.835684e-95
371.10 1.835684e-95
371.20 1.835684e-95
371.30 1.835684e-95
371.40 1.835684e-95
371.50 1.835684e-95
371.60 1.835684e-95
371.70 1.835684e-95
371.80 1.835684e-95
371.90 1.835684e-95
372.00 1.835684e-95
372.10 1.835684e-95
372.20 1.835684e-95
372.30 1.835684e-95
372.40 1.835684e-95
372.50 1.835684e-95
372.60 1.835684e-95
372.70 1.835684e-95
372.80 1.835684e-95
372.90 1.835684e-95
373.00 1.835684e-95
373.10 1.835684e-95
373.20 1.835684e-95
373.30 1.835684e-95
373.40 1.835684e-95
373.50 1.835684e-95
373.60 1.835684e-95
373.70 1.835684e-95
373.80 1.835684e-95
373.90 1.835684e-95
374.00 1.835684e-95
374.10 1.835684e-95
374.20 1.835684e-95
374.30 1.835684e-95
374.40 1.835684e-95
374.50 1.835684e-95
374.60 1.835684e-95
374.70 1.835684e-95
374.80 1.835684e-95
374.90 1.835684e-95
375.00 1.835684e-95
375.10 1.835684e-95
375.20 1.835684e-95
375.30 1.835684e-95
375.40 1.835684e-95
375.50 1.835684e-95
375.60 1.835684e-95
375.70 1.835684e-95
375.80 1.835684e-95
375.90 1.835684e-95
376.00 1.835684e-95
376.10 1.835684e-95
376.20 1.835684e-95
376.30 1.835684e-95
376.40 1.835684e-95
376.50 1.835684e-95
376.60 1.835684e-95
376.70 1.835684e-95
376.80 1.835684e-95
376.90 1.835684e-95
377.00 1.835684e-95
377.10 1.835684e-95
377.20 1.835684e-95
377.30 1.835684e-95
377.40 1.835684e-95
377.50 1.835684e-95
377.60 1.835684e-95
377.70 1.835684e-95
377.80 1.835684e-95
377.90 1.835684e-95
378.00 1.835684e-95
378.10 1.835684e-95
378.20 1.835684e-95
378.30 1.835684e-95
378.40 1.835684e-95
378.50 1.835684e-95
378.60 1.835684e-95
378.70 1.835684e-95
378.80 1.835684e-95
378.90 1.835684e-95
379.00 1.835684e-95
379.10 1.835684e-95
379.20 1.835684e-95
379.30 1.835684e-95
379.40 1.835684e-95
379.50 1.835684e-95
379.60 1.835684e-95
379.70 1.835684e-95
379.80 1.835684e-95
379.90 1.835684e-95
380.00 1.835684e-95
380.10 1.835684e-95
380.20 1.835684e-95
380.30 1.835684e-95
380.40 1.835684e-95
380.50 1.835684e-95
380.60 1.835684e-95
380.70 1.835684e-95
380.80 1.835684e-95
380.90 1.835684e-95
381.00 1.835684e-95
381.10 1.835684e-95
381.20 1.835684e-95
381.30 1.835684e-95
381.40 1.835684e-95
381.50 1.835684e-95
381.60 1.835684e-95
381.70 1.835684e-95
381.80 1.835684e-95
381.90 1.835684e-95
382.00 1.835684e-95
382.10 1.835684e-95
382.20 1.835684e-95
382.30 1.835684e-95
382.40 1.835684e-95
382.50 1.835684e-95
382.60 1.835684e-95
382.70 1.835684e-95
382.80 1.835684e-95
382.90 1.835684e-95
383.00 1.835684e-95
383.10 1.835684e-95
383.20 1.835684e-95
383.30 1.835684e-95
383.40 1.835684e-95
383.50 1.835684e-95
383.60 1.835684e-95
383.70 1.835684e-95
383.80 1.835684e-95
383.90 1.835684e-95
384.00 1.835684e-95
384.10 1.835684e-95
384.20 1.835684e-95
384.30 1.835684e-95
384.40 1.835684e-95
384.50 1.835684e-95
384.60 1.835684e-95
384.70 1.835684e-95
384.80 1.835684e-95
384.90 1.835684e-95
385.00 1.835684e-95
385.10 1.835684e-95
385.20 1.835684e-95
385.30 1.835684e-95
385.40 1.835684e-95
385.50 1.835684e-95
385.60 1.835684e-95
385.70 1.835684e-95
385.80 1.835684e-95
385.90 1.835684e-95
386.00 1.835684e-95
386.10 1.835684e-95
386.20 1.835684e-95
386.30 1.835684e-95
386.40 1.835684e-95
386.50 1.835684e-95
386.60 1.835684e-95
386.70 1.835684e-95
386.80 1.835684e-95
386.90 1.835684e-95
387.00 1.835684e-95
387.10 1.835684e-95
387.20 1.835684e-95
387.30 1.835684e-95
387.40 1.835684e-95
387.50 1.835684e-95
387.60 1.835684e-95
387.70 1.835684e-95
387.80 1.835684e-95
387.90 1.835684e-95
388.00 1.835684e-95
388.10 1.835684e-95
388.20 1.835684e-95
388.30 1.835684e-95
388.40 1.835684e-95
388.50 1.835684e-95
388.60 1.835684e-95
388.70 1.835684e-95
388.80 1.835684e-95
388.90 1.835684e-95
389.00 1.835684e-95
389.10 1.835684e-95
389.20 1.835684e-95
389.30 1.835684e-95
389.40 1.835684e-95
389.50 1.835684e-95
389.60 1.835684e-95
389.70 1.835684e-95
389.80 1.835684e-95
389.90 1.835684e-95
390.00 1.835684e-95
390.10 1.835684e-95
390.20 1.835684e-95
390.30 1.835684e-95
390.40 1.835684e-95
390.50 1.835684e-95
390.60 1.835684e-95
390.70 1.835684e-95
390.80 1.835684e-95
390.90 1.835684e-95
391.00 1.835684e-95
391.10 1.835684e-95
391.20 1.835684e-95
391.30 1.835684e-95
391.40 1.835684e-95
391.50 1.835684e-95
391.60 1.835684e-95
391.70 1.835684e-95
391.80 1.835684e-95
391.90 1.835684e-95
392.00 1.835684e-95
392.10 1.835684e-95
392.20 1.835684e-95
392.30 1.835684e-95
392.40 1.835684e-95
392.50 1.835684e-95
392.60 1.835684e-95
392.70 1.835684e-95
392.80 1.835684e-95
392.90 1.835684e-95
393.00 1.835684e-95
393.10 1.835684e-95
393.20 1.835684e-95
393.30 1.835684e-95
393.40 1.835684e-95
393.50 1.835684e-95
393.60 1.835684e-95
393.70 1.835684e-95
393.80 1.835684e-95
393.90 1.835684e-95
394.00 1.835684e-95
394.10 1.835684e-95
394.20 1.835684e-95
394.30 1.835684e-95
394.40 1.835684e-95
394.50 1.835684e-95
394.60 1.835684e-95
394.70 1.835684e-95
394.80 1.835684e-95
394.90 1.835684e-95
395.00 0.01072143
395.10 0.01072143
395.20 0.01072143
395.30 0.01072143
395.40 0.01072143
395.50 0.01072143
395.60 0.01072143
395.70 0.01072143
395.80 0.01072143
395.90 0.01072143
396.00 0.01072143
396.10 0.01072143
396.20 0.01072143
396.30 0.01072143
396.40 0.01072143
396.50 0.01072143
396.60 0.01072143
396.70 0.01072143
396.80 0.01072143
396.90 0.01072143
397.00 0.01072143
397.10 0.01072143
397.20 0.01072143
397.30 0.01072143
397.40 0.01072143
397.50 0.01132158
397.60 0.01690617
397.70 0.03073119
397.80 0.05607388
397.90 0.09316663
398.00 0.1395987
398.10 0.1912662
398.20 0.2426303
398.30 0.2883091
398.40 0.3254413
398.50 0.3542662
398.60 0.3779473
398.70 0.4019928
398.80 0.4331064
398.90 0.4770762
399.00 0.5371731
399.10 0.6142889
399.20 0.7066359
399.30 0.8100624
399.40 0.9180059
399.50 1.022056
399.60 1.114712
399.70 1.190431
399.80 1.245715
399.90 1.278328
400.00 1.287081
400.10 1.287081
400.20 1.287081
400.30 1.287081
400.40 1.287081
400.50 1.287081
400.60 1.287081
400.70 1.287081
400.80 1.287081
400.90 1.287081
401.00 1.287081
401.10 1.290547
401.20 1.299581
401.30 1.315236
401.40 1.339207
401.50 1.372705
401.60 1.413624
401.70 1.457023
401.80 1.497091
401.90 1.528966
402.00 1.550222
402.10 1.561107
402.20 1.564187
402.30 1.564651
402.40 1.568261
402.50 1.577763
402.60 1.594344
402.70 1.619519
402.80 1.653437
402.90 1.694101
403.00 1.738743
403.10 1.784821
403.20 1.830706
403.30 1.876559
403.40 1.924552
403.50 1.976904
403.60 2.034548
403.70 2.09646
403.80 2.159964
403.90 2.222125
404.00 2.280493
404.10 2.333826
404.20 2.381942
404.30 2.425823
404.40 2.467667
404.50 2.510389
404.60 2.556399
404.70 2.60557
404.80 2.655795
404.90 2.705564
405.00 2.743146
405.10 2.788907
405.20 2.832599
405.30 2.876153
405.40 2.919888
405.50 2.961745
405.60 2.999096
405.70 3.029871
405.80 3.052466
405.90 3.066131
406.00 3.071688
406.10 3.071688
406.20 3.071688
406.30 3.071688
406.40 3.071688
406.50 3.071688
406.60 3.071688
406.70 3.071688
406.80 3.071688
406.90 3.071688
407.00 3.071688
407.10 3.071688
407.20 3.071688
407.30 3.071688
407.40 3.071688
407.50 3.071087
407.60 3.065503
407.70 3.051678
407.80 3.026335
407.90 2.989242
408.00 2.94281
408.10 2.891143
408.20 2.839779
408.30 2.7941
408.40 2.756968
408.50 2.728143
408.60 2.704462
408.70 2.680416
408.80 2.653109
408.90 2.617013
409.00 2.567376
409.10 2.501543
409.20 2.419798
409.30 2.325338
409.40 2.223874
409.50 2.122836
409.60 2.03018
409.70 1.954461
409.80 1.899177
409.90 1.866564
410.00 1.857811
410.10 1.857811
410.20 1.857811
410.30 1.857811
410.40 1.857811
410.50 1.857811
410.60 1.865747
410.70 1.88706
410.80 1.922726
410.90 1.971114
411.00 2.02869
411.10 2.086832
411.20 2.137407
411.30 2.173572
411.40 2.189108
411.50 2.181418
411.60 2.154954
411.70 2.119284
411.80 2.084095
411.90 2.05691
412.00 2.042499
412.10 2.040805
412.20 2.047802
412.30 2.056795
412.40 2.060572
412.50 2.054683
412.60 2.038102
412.70 2.012927
412.80 1.979009
412.90 1.938345
413.00 1.893703
413.10 1.847625
413.20 1.80174
413.30 1.755887
413.40 1.707894
413.50 1.655542
413.60 1.597898
413.70 1.535986
413.80 1.472482
413.90 1.410321
414.00 1.351953
414.10 1.29862
414.20 1.250504
414.30 1.206623
414.40 1.164779
414.50 1.122057
414.60 1.076047
414.70 1.026876
414.80 0.9766515
414.90 0.9268824
415.00 0.8785782
415.10 0.8328181
415.20 0.7891252
415.30 0.7455721
415.40 0.7018364
415.50 0.6599798
415.60 0.622629
415.70 0.5918533
415.80 0.5692589
415.90 0.5580592
416.00 0.5625559
416.10 0.5820989
416.20 0.6121317
416.30 0.6527897
416.40 0.7030347
416.50 0.7603696
416.60 0.820706
416.70 0.8793981
416.80 0.9322043
416.90 0.9760106
417.00 1.009614
417.10 1.033156
417.20 1.047129
417.30 1.052145
417.40 1.052145
417.50 1.052145
417.60 1.052145
417.70 1.052145
417.80 1.052145
417.90 1.052145
418.00 1.052145
418.10 1.052145
418.20 1.052145
418.30 1.052145
418.40 1.052145
418.50 1.052145
418.60 1.052145
418.70 1.052145
418.80 1.048339
418.90 1.040464
419.00 1.030005
419.10 1.018722
419.20 1.00812
419.30 0.999153
419.40 0.9926742
419.50 0.9896619
419.60 0.9896619
419.70 0.9896619
419.80 0.9896619
419.90 0.9896619
420.00 0.9896619
420.10 0.9896619
420.20 0.9896619
420.30 0.9896619
420.40 0.9896619
420.50 0.9896619
420.60 0.9817258
420.70 0.9604128
420.80 0.9247474
420.90 0.8763593
421.00 0.8187836
421.10 0.7571743
421.20 0.6975651
421.30 0.645746
421.40 0.6062386
421.50 0.5814889
421.60 0.5741859
421.70 0.5786726
421.80 0.5896522
421.90 0.6041726
422.00 0.6200477
422.10 0.6363529
422.20 0.6536262
422.30 0.6722965
422.40 0.6921575
422.50 0.7133123
422.60 0.7339572
422.70 0.7486799
422.80 0.7563418
422.90 0.7563418
423.00 0.7563418
423.10 0.7563418
423.20 0.7563418
423.30 0.7563418
423.40 0.7563418
423.50 0.7563418
423.60 0.7563418
423.70 0.7563418
423.80 0.7563418
423.90 0.7563418
424.00 0.7563418
424.10 0.7563418
424.20 0.7563418
424.30 0.7563418
424.40 0.7563418
424.50 0.7603606
424.60 0.7741075
424.70 0.7994216
424.80 0.8365462
424.90 0.884287
425.00 0.9403834
425.10 1.00119
425.20 1.061982
425.30 1.118264
425.40 1.166253
425.50 1.203271
425.60 1.229367
425.70 1.247476
425.80 1.261879
425.90 1.274703
426.00 1.283781
426.10 1.287565
426.20 1.284313
426.30 1.272686
426.40 1.252001
426.50 1.223267
426.60 1.189585
426.70 1.155143
426.80 1.1243
426.90 1.100459
427.00 1.084221
427.10 1.073338
427.20 1.065143
427.30 1.060127
427.40 1.060127
427.50 1.060127
427.60 1.060127
427.70 1.060127
427.80 1.060127
427.90 1.060127
428.00 1.060918
428.10 1.060918
428.20 1.060918
428.30 1.060918
428.40 1.060918
428.50 1.060918
428.60 1.060918
428.70 1.060918
428.80 1.060918
428.90 1.060918
429.00 1.060918
429.10 1.060918
429.20 1.060918
429.30 1.068205
429.40 1.082374
429.50 1.102177
429.60 1.12764
429.70 1.159118
429.80 1.196047
429.90 1.238011
430.00 1.28527
430.10 1.337225
430.20 1.391445
430.30 1.444114
430.40 1.490727
430.50 1.526707
430.60 1.549642
430.70 1.561437
430.80 1.569111
430.90 1.580959
431.00 1.601844
431.10 1.63336
431.20 1.674253
431.30 1.719151
431.40 1.759741
431.50 1.787559
431.60 1.792997
431.70 1.780781
431.80 1.764923
431.90 1.745711
432.00 1.722992
432.10 1.697497
432.20 1.670146
432.30 1.642018
432.40 1.614769
432.50 1.590002
432.60 1.569357
432.70 1.554634
432.80 1.546973
432.90 1.546973
433.00 1.546973
433.10 1.546973
433.20 1.546973
433.30 1.546973
433.40 1.546973
433.50 1.546973
433.60 1.546973
433.70 1.546973
433.80 1.546973
433.90 1.546973
434.00 1.546973
434.10 1.546973
434.20 1.546973
434.30 1.546973
434.40 1.546973
434.50 1.542954
434.60 1.529207
434.70 1.503893
434.80 1.466768
434.90 1.419027
435.00 1.362931
435.10 1.302124
435.20 1.241333
435.30 1.18505
435.40 1.137061
435.50 1.100043
435.60 1.073947
435.70 1.055838
435.80 1.041436
435.90 1.026145
436.00 1.007014
436.10 0.9853048
436.20 0.9620455
436.30 0.9371899
436.40 0.9121652
436.50 0.8893282
436.60 0.8714038
436.70 0.8605095
436.80 0.8574272
436.90 0.8617077
437.00 0.8715447
437.10 0.8845033
437.20 0.8979814
437.30 0.9071219
437.40 0.9071219
437.50 0.9071219
437.60 0.9071219
437.70 0.9071219
437.80 0.9071219
437.90 0.9071219
438.00 0.9063308
438.10 0.9063308
438.20 0.906782
438.30 0.9090536
438.40 0.9113141
438.50 0.9129969
438.60 0.9146091
438.70 0.9168779
438.80 0.920022
438.90 0.9234495
439.00 0.926175
439.10 0.9270846
439.20 0.9270846
439.30 0.9197979
439.40 0.9056283
439.50 0.8858256
439.60 0.8603623
439.70 0.8288844
439.80 0.7919552
439.90 0.7560818
440.00 0.7214538
440.10 0.6867929
440.20 0.6518809
440.30 0.6173392
440.40 0.5849641
440.50 0.5582483
440.60 0.5398709
440.70 0.5292323
440.80 0.5215582
440.90 0.5097109
441.00 0.4888252
441.10 0.4573091
441.20 0.4164169
441.30 0.3715181
441.40 0.3309287
441.50 0.3020525
441.60 0.2894628
441.70 0.2894628
441.80 0.2894628
441.90 0.2894628
442.00 0.2894628
442.10 0.2894628
442.20 0.2894628
442.30 0.2894628
442.40 0.2894628
442.50 0.2894628
442.60 0.2894628
442.70 0.2894628
442.80 0.2894628
442.90 0.2894628
443.00 0.2894628
443.10 0.2894628
443.20 0.2894628
443.30 0.2894628
443.40 0.2894628
443.50 0.2894628
443.60 0.2894628
443.70 0.2946495
443.80 0.3072262
443.90 0.3269013
444.00 0.3539594
444.10 0.3880633
444.20 0.4281031
444.30 0.4737279
444.40 0.5243448
444.50 0.5780507
444.60 0.6323389
444.70 0.6837589
444.80 0.7275697
444.90 0.7598863
445.00 0.7794423
445.10 0.7870978
445.20 0.7870978
445.30 0.7870978
445.40 0.7870978
445.50 0.7870978
445.60 0.7870978
445.70 0.7870978
445.80 0.7870978
445.90 0.7870978
446.00 0.7870978
446.10 0.7854807
446.20 0.7819592
446.30 0.7777833
446.40 0.7732481
446.50 0.7674841
446.60 0.7587548
446.70 0.745399
446.80 0.7265175
446.90 0.7022722
447.00 0.675069
447.10 0.6494519
447.20 0.6301963
447.30 0.6284549
447.40 0.6510102
447.50 0.6884721
447.60 0.7379934
447.70 0.7950522
447.80 0.8542777
447.90 0.9102617
448.00 0.9583483
448.10 0.9956185
448.20 1.02099
448.30 1.034166
448.40 1.039509
448.50 1.040581
448.60 1.039136
448.70 1.036867
448.80 1.033723
448.90 1.030296
449.00 1.027949
449.10 1.030039
449.20 1.035661
449.30 1.042917
449.40 1.05034
449.50 1.056171
449.60 1.058468
449.70 1.058468
449.80 1.058468
449.90 1.052377
450.00 1.039747
450.10 1.022452
450.20 1.004416
450.30 0.9936203
450.40 0.9921012
450.50 0.9990857
450.60 1.011995
450.70 1.027682
450.80 1.041472
450.90 1.048778
451.00 1.048778
451.10 1.048778
451.20 1.048778
451.30 1.048778
451.40 1.048778
451.50 1.048778
451.60 1.048778
451.70 1.048778
451.80 1.048778
451.90 1.048778
452.00 1.048778
452.10 1.048778
452.20 1.049001
452.30 1.049953
452.40 1.050839
452.50 1.051197
452.60 1.051197
452.70 1.051197
452.80 1.051197
452.90 1.051197
453.00 1.051759
453.10 1.054386
453.20 1.060123
453.30 1.06995
453.40 1.084331
453.50 1.103007
453.60 1.125597
453.70 1.146227
453.80 1.162373
453.90 1.173936
454.00 1.17862
454.10 1.173872
454.20 1.158453
454.30 1.131493
454.40 1.093672
454.50 1.048422
454.60 1.001639
454.70 0.9599958
454.80 0.929917
454.90 0.9153446
455.00 0.9158699
455.10 0.9282309
455.20 0.9456853
455.30 0.9591304
455.40 0.9692449
455.50 0.9773862
455.60 0.9841196
455.70 0.988965
455.80 0.9910852
455.90 0.9910852
456.00 0.9910852
456.10 0.9910852
456.20 0.9910852
456.30 0.9910852
456.40 0.9910852
456.50 0.9910852
456.60 0.9910852
456.70 0.9910852
456.80 0.9910852
456.90 0.9910852
457.00 0.9910852
457.10 1.000032
457.20 1.0198
457.30 1.041244
457.40 1.053065
457.50 1.051403
457.60 1.035023
457.70 1.005106
457.80 0.9651395
457.90 0.9196093
458.00 0.8730284
458.10 0.8357583
458.20 0.8099354
458.30 0.7944878
458.40 0.7868843
458.50 0.7841298
458.60 0.7892138
458.70 0.8041618
458.80 0.8286965
458.90 0.8616898
459.00 0.8995935
459.10 0.9366475
459.20 0.9694469
459.30 0.9952975
459.40 1.012623
459.50 1.021679
459.60 1.024411
459.70 1.024411
459.80 1.024411
459.90 1.024411
460.00 1.024411
460.10 1.024411
460.20 1.023139
460.30 1.015808
460.40 1.003089
460.50 0.98684
460.60 0.9693738
460.70 0.95253
460.80 0.9387402
460.90 0.9314334
461.00 0.9314334
461.10 0.9314334
461.20 0.9314334
461.30 0.9314334
461.40 0.9314334
461.50 0.9314334
461.60 0.9314334
461.70 0.9345277
461.80 0.9394018
461.90 0.944259
462.00 0.9473484
462.10 0.9475048
462.20 0.9472823
462.30 0.9463307
462.40 0.945444
462.50 0.9450864
462.60 0.9450864
462.70 0.9450864
462.80 0.9450864
462.90 0.9450864
463.00 0.9445247
463.10 0.9418971
463.20 0.9378951
463.30 0.9347053
463.40 0.9318563
463.50 0.9287728
463.60 0.9244174
463.70 0.9177514
463.80 0.9070373
463.90 0.8904273
464.00 0.8677266
464.10 0.8398518
464.20 0.8152309
464.30 0.7965658
464.40 0.78377
464.50 0.7753145
464.60 0.7678096
464.70 0.7586761
464.80 0.7571462
464.90 0.7620375
465.00 0.7721455
465.10 0.7859536
465.20 0.8018865
465.30 0.8184785
465.40 0.8337412
465.50 0.8464741
465.60 0.8578552
465.70 0.8702505
465.80 0.8857302
465.90 0.9045152
466.00 0.9244021
466.10 0.9442913
466.20 0.9628342
466.30 0.9788908
466.40 0.9912129
466.50 0.9985891
466.60 1.000228
466.70 1.000228
466.80 1.000228
466.90 1.000228
467.00 1.000228
467.10 0.9912814
467.20 0.9715134
467.30 0.9426705
467.40 0.9082941
467.50 0.8724938
467.60 0.8393526
467.70 0.8128484
467.80 0.7979561
467.90 0.7960141
468.00 0.8078138
468.10 0.8261733
468.20 0.84903
468.30 0.874252
468.40 0.8987787
468.50 0.919864
468.60 0.9297657
468.70 0.9219134
468.80 0.8973787
468.90 0.8643854
469.00 0.8261029
469.10 0.7860496
469.20 0.7476281
469.30 0.7145206
469.40 0.6897723
469.50 0.6768264
469.60 0.6816677
469.70 0.7006505
469.80 0.7279299
469.90 0.7603175
470.00 0.793598
470.10 0.8234063
470.20 0.8459238
470.30 0.8591029
470.40 0.8638245
470.50 0.8638245
470.60 0.8638245
470.70 0.8638245
470.80 0.8658174
470.90 0.8751263
471.00 0.8928311
471.10 0.9170644
471.20 0.9447839
471.30 0.9730886
471.40 0.9997959
471.50 1.023267
471.60 1.041964
471.70 1.051
471.80 1.049557
471.90 1.0447
472.00 1.041611
472.10 1.041454
472.20 1.041454
472.30 1.041454
472.40 1.041454
472.50 1.041454
472.60 1.041454
472.70 1.041454
472.80 1.041454
472.90 1.041454
473.00 1.041454
473.10 1.041454
473.20 1.03972
473.30 1.033083
473.40 1.021551
473.50 1.005958
473.60 0.9877228
473.70 0.9685727
473.80 0.9505638
473.90 0.9359361
474.00 0.9268944
474.10 0.9254133
474.20 0.9254133
474.30 0.9254133
474.40 0.9254133
474.50 0.9254133
474.60 0.9254133
474.70 0.9247695
474.80 0.9125675
474.90 0.889932
475.00 0.8597427
475.10 0.8259181
475.20 0.7925309
475.30 0.7624938
475.40 0.7371165
475.50 0.7162424
475.60 0.6981278
475.70 0.6808871
475.80 0.6632873
475.90 0.6445023
476.00 0.6246154
476.10 0.6051926
476.20 0.5931418
476.30 0.5897442
476.40 0.5969034
476.50 0.61631
476.60 0.648463
476.70 0.6877655
476.80 0.7295493
476.90 0.7691992
477.00 0.8013877
477.10 0.8224297
477.20 0.8313677
477.30 0.8313677
477.40 0.8313677
477.50 0.8313677
477.60 0.8313677
477.70 0.8307303
477.80 0.8263634
477.90 0.8178516
478.00 0.8045461
478.10 0.7861866
478.20 0.7702876
478.30 0.7620271
478.40 0.7644686
478.50 0.778018
478.60 0.801025
478.70 0.8303875
478.80 0.8603872
478.90 0.881473
479.00 0.8938203
479.10 0.8990726
479.20 0.899884
479.30 0.899884
479.40 0.899884
479.50 0.8992416
479.60 0.8919445
479.70 0.8766945
479.80 0.8546822
479.90 0.8298998
480.00 0.8069674
480.10 0.7903559
480.20 0.7836826
480.30 0.7878273
480.40 0.8002221
480.50 0.8157883
480.60 0.82874
480.70 0.8384128
480.80 0.8435499
480.90 0.8409306
481.00 0.8319998
481.10 0.8208124
481.20 0.8125153
481.30 0.8129812
481.40 0.8277177
481.50 0.8600798
481.60 0.9104544
481.70 0.9768546
481.80 1.055675
481.90 1.135082
482.00 1.20579
482.10 1.263365
482.20 1.305137
482.30 1.331074
482.40 1.344183
482.50 1.349179
482.60 1.349726
482.70 1.349726
482.80 1.349726
482.90 1.349726
483.00 1.349726
483.10 1.349726
483.20 1.349726
483.30 1.349726
483.40 1.349726
483.50 1.349726
483.60 1.349726
483.70 1.349726
483.80 1.349726
483.90 1.349726
484.00 1.349726
484.10 1.351353
484.20 1.354097
484.30 1.357523
484.40 1.360979
484.50 1.363401
484.60 1.363576
484.70 1.363576
484.80 1.363576
484.90 1.363576
485.00 1.363576
485.10 1.363576
485.20 1.363576
485.30 1.363576
485.40 1.363576
485.50 1.363576
485.60 1.363576
485.70 1.363576
485.80 1.363576
485.90 1.363576
486.00 1.363576
486.10 1.36311
486.20 1.356617
486.30 1.343958
486.40 1.324477
486.50 1.297694
486.60 1.263903
486.70 1.2246
486.80 1.182816
486.90 1.143166
487.00 1.110978
487.10 1.089936
487.20 1.080998
487.30 1.080998
487.40 1.080998
487.50 1.080998
487.60 1.080998
487.70 1.080998
487.80 1.080998
487.90 1.080998
488.00 1.080998
488.10 1.080998
488.20 1.07404
488.30 1.057079
488.40 1.03011
488.50 0.9954758
488.60 0.9573157
488.70 0.921924
488.80 0.8987639
488.90 0.8875816
489.00 0.8856029
489.10 0.8896108
489.20 0.8962736
489.30 0.9017062
489.40 0.9055008
489.50 0.9071498
489.60 0.9073518
489.70 0.907642
489.80 0.9102687
489.90 0.9160471
490.00 0.9243773
490.10 0.9342436
490.20 0.9447404
490.30 0.9553852
490.40 0.9655578
490.50 0.9740593
490.60 0.9789513
490.70 0.9773418
490.80 0.9702118
490.90 0.9635222
491.00 0.9547482
491.10 0.9417022
491.20 0.9222799
491.30 0.8935094
491.40 0.8520655
491.50 0.7962325
491.60 0.7271609
491.70 0.6486299
491.80 0.5663778
491.90 0.4869711
492.00 0.4162635
492.10 0.3586881
492.20 0.3169161
492.30 0.2909793
492.40 0.2778706
492.50 0.2728745
492.60 0.2757466
492.70 0.2841924
492.80 0.2967334
492.90 0.3128962
493.00 0.3324693
493.10 0.3543082
493.20 0.3768672
493.30 0.3984824
493.40 0.4179704
493.50 0.4359071
493.60 0.4541233
493.70 0.4740569
493.80 0.4955049
493.90 0.5177623
494.00 0.5400449
494.10 0.5590294
494.20 0.5730278
494.30 0.5805066
494.40 0.5811097
494.50 0.5786874
494.60 0.5785126
494.70 0.5785126
494.80 0.5785126
494.90 0.5785126
495.00 0.5785126
495.10 0.5785126
495.20 0.5802485
495.30 0.5850569
495.40 0.5903052
495.50 0.5936196
495.60 0.5936196
495.70 0.5936196
495.80 0.5936196
495.90 0.5936196
496.00 0.5936196
496.10 0.5936196
496.20 0.5936196
496.30 0.5936196
496.40 0.5936196
496.50 0.5936196
496.60 0.5939097
496.70 0.5973658
496.80 0.6040399
496.90 0.6139991
497.00 0.6272024
497.10 0.6440009
497.20 0.6649273
497.30 0.6900165
497.40 0.7188263
497.50 0.7505193
497.60 0.7837519
497.70 0.8170974
497.80 0.8490582
497.90 0.8783173
498.00 0.9036085
498.10 0.9236515
498.20 0.9378637
498.30 0.9462154
498.40 0.9488521
498.50 0.9488521
498.60 0.9488521
498.70 0.9477856
498.80 0.940946
498.90 0.9310425
499.00 0.9206739
499.10 0.9114137
499.20 0.9074073
499.30 0.9153971
499.40 0.9340954
499.50 0.9598202
499.60 0.9873268
499.70 1.0102
499.80 1.021656
499.90 1.018089
500.00 1
500.10 0.9769369
500.20 0.9505959
500.30 0.9226274
500.40 0.8953384
500.50 0.8712706
500.60 0.853427
500.70 0.8453637
500.80 0.8453637
500.90 0.8453637
501.00 0.8453637
501.10 0.8453637
501.20 0.8453637
501.30 0.8453637
501.40 0.8453637
501.50 0.853232
501.60 0.8697022
501.70 0.8941546
501.80 0.9247145
501.90 0.9586984
502.00 0.9934642
502.10 1.026786
502.20 1.056482
502.30 1.080524
502.40 1.097124
502.50 1.105193
502.60 1.101774
502.70 1.093328
502.80 1.080787
502.90 1.064624
503.00 1.045051
503.10 1.023212
503.20 1.000653
503.30 0.9790378
503.40 0.9595499
503.50 0.9416132
503.60 0.923397
503.70 0.9034634
503.80 0.8820154
503.90 0.859758
504.00 0.8374753
504.10 0.8185767
504.20 0.8046592
504.30 0.7958388
504.40 0.7917795
504.50 0.7917795
504.60 0.7917795
504.70 0.7917795
504.80 0.7917795
504.90 0.7917795
505.00 0.7917795
505.10 0.7917795
505.20 0.7907064
505.30 0.7865511
505.40 0.7818364
505.50 0.7799951
505.60 0.7840687
505.70 0.7919782
505.80 0.8041702
505.90 0.820767
506.00 0.8418691
506.10 0.8670404
506.20 0.8950576
506.30 0.9241938
506.40 0.9524761
506.50 0.9784122
506.60 1.001169
506.70 1.018125
506.80 1.029585
506.90 1.03541
507.00 1.03579
507.10 1.031353
507.20 1.02256
507.30 1.009688
507.40 0.9921839
507.50 0.9688399
507.60 0.9390224
507.70 0.9056769
507.80 0.8737161
507.90 0.844457
508.00 0.8191658
508.10 0.7991228
508.20 0.7849106
508.30 0.7765589
508.40 0.7739222
508.50 0.7739222
508.60 0.7739222
508.70 0.7739222
508.80 0.7739222
508.90 0.7739222
509.00 0.7781471
509.10 0.7939028
509.20 0.8179724
509.30 0.8422971
509.40 0.8641571
509.50 0.8815063
509.60 0.8939866
509.70 0.9025471
509.80 0.9085949
509.90 0.9130131
510.00 0.9162321
510.10 0.9162321
510.20 0.9162321
510.30 0.9162321
510.40 0.9162321
510.50 0.9162321
510.60 0.9162321
510.70 0.9162321
510.80 0.9185978
510.90 0.9242202
511.00 0.9322872
511.10 0.9420018
511.20 0.9527081
511.30 0.9639868
511.40 0.9752003
511.50 0.9776065
511.60 0.9702019
511.70 0.9538131
511.80 0.9307989
511.90 0.9049421
512.00 0.8805446
512.10 0.8605578
512.20 0.8472889
512.30 0.8434295
512.40 0.8509383
512.50 0.870162
512.60 0.8988028
512.70 0.9266665
512.80 0.9527611
512.90 0.9764975
513.00 0.9964763
513.10 1.011246
513.20 1.020076
513.30 1.023091
513.40 1.023091
513.50 1.023091
513.60 1.023091
513.70 1.023091
513.80 1.023091
513.90 1.023091
514.00 1.023091
514.10 1.021378
514.20 1.018554
514.30 1.017481
514.40 1.02086
514.50 1.02584
514.60 1.031599
514.70 1.037013
514.80 1.040379
514.90 1.040456
515.00 1.040456
515.10 1.040456
515.20 1.039794
515.30 1.03914
515.40 1.039684
515.50 1.040725
515.60 1.038873
515.70 1.031804
515.80 1.019612
515.90 1.00333
516.00 0.9841788
516.10 0.9635069
516.20 0.9429379
516.30 0.9239987
516.40 0.9076106
516.50 0.8930884
516.60 0.8783581
516.70 0.8610018
516.80 0.8428672
516.90 0.8270834
517.00 0.8135001
517.10 0.8011383
517.20 0.7890049
517.30 0.7767873
517.40 0.7654821
517.50 0.7571331
517.60 0.7537179
517.70 0.7537179
517.80 0.7537179
517.90 0.7537179
518.00 0.7537179
518.10 0.7537179
518.20 0.7537179
518.30 0.7537179
518.40 0.7537179
518.50 0.7537179
518.60 0.7537179
518.70 0.7537179
518.80 0.7537179
518.90 0.7573616
519.00 0.7603893
519.10 0.753699
519.20 0.7344339
519.30 0.7016025
519.40 0.6573178
519.50 0.6112961
519.60 0.5685345
519.70 0.5330779
519.80 0.5076798
519.90 0.493445
520.00 0.4896371
520.10 0.4896371
520.20 0.4896371
520.30 0.4896371
520.40 0.4903608
520.50 0.4910726
520.60 0.4910726
520.70 0.4910726
520.80 0.488707
520.90 0.4837626
521.00 0.4814348
521.10 0.4840454
521.20 0.4920274
521.30 0.504795
521.40 0.5214117
521.50 0.5401993
521.60 0.5577593
521.70 0.5703935
521.80 0.5759242
521.90 0.5734392
522.00 0.5630709
522.10 0.5497356
522.20 0.5333089
522.30 0.5131259
522.40 0.4898334
522.50 0.4656221
522.60 0.4423379
522.70 0.4219484
522.80 0.4049998
522.90 0.3918068
523.00 0.3843783
523.10 0.3853204
523.20 0.3956909
523.30 0.4150257
523.40 0.4399592
523.50 0.4667097
523.60 0.4951191
523.70 0.5251197
523.80 0.5557353
523.90 0.5854959
524.00 0.6122457
524.10 0.6332927
524.20 0.6462434
524.30 0.6485464
524.40 0.645168
524.50 0.640188
524.60 0.6344289
524.70 0.6290143
524.80 0.6256489
524.90 0.6255711
525.00 0.6255711
525.10 0.6255711
525.20 0.6259587
525.30 0.6300816
525.40 0.6357504
525.50 0.6427104
525.60 0.6535509
525.70 0.6703023
525.80 0.6926698
525.90 0.7185338
526.00 0.7443474
526.10 0.7660146
526.20 0.7795006
526.30 0.7815407
526.40 0.771037
526.50 0.7596231
526.60 0.7513061
526.70 0.748251
526.80 0.748251
526.90 0.748251
527.00 0.748251
527.10 0.748251
527.20 0.748251
527.30 0.748251
527.40 0.7507228
527.50 0.7544471
527.60 0.7574719
527.70 0.7575949
527.80 0.7575949
527.90 0.7575949
528.00 0.7575949
528.10 0.7575949
528.20 0.7575949
528.30 0.7575949
528.40 0.7575949
528.50 0.7575949
528.60 0.7575949
528.70 0.7575949
528.80 0.7575949
528.90 0.7539512
529.00 0.7466987
529.10 0.7376331
529.20 0.7293609
529.30 0.7244452
529.40 0.724377
529.50 0.724377
529.60 0.724377
529.70 0.724377
529.80 0.724377
529.90 0.724377
530.00 0.724377
530.10 0.724377
530.20 0.724377
530.30 0.7248104
530.40 0.7264336
530.50 0.7292334
530.60 0.7332136
530.70 0.7375323
530.80 0.7426347
530.90 0.748468
531.00 0.75088
531.10 0.7481542
531.20 0.7397757
531.30 0.7255627
531.40 0.7059073
531.50 0.682084
531.60 0.6564547
531.70 0.6357569
531.80 0.6226805
531.90 0.6170384
532.00 0.6182577
532.10 0.6259618
532.20 0.6401556
532.30 0.6585615
532.40 0.6771011
532.50 0.6908669
532.60 0.6966948
532.70 0.6932504
532.80 0.6841043
532.90 0.673561
533.00 0.6610107
533.10 0.6508713
533.20 0.6449411
533.30 0.6427074
533.40 0.6427931
533.50 0.6431691
533.60 0.6407415
533.70 0.6330818
533.80 0.6196098
533.90 0.601026
534.00 0.5795079
534.10 0.5584609
534.20 0.5455102
534.30 0.5421953
534.40 0.5421953
534.50 0.5421953
534.60 0.5421953
534.70 0.5421953
534.80 0.5421953
534.90 0.5421953
535.00 0.5421953
535.10 0.5421953
535.20 0.5418077
535.30 0.5376848
535.40 0.5350828
535.50 0.5338125
535.60 0.5323264
535.70 0.5287102
535.80 0.5213972
535.90 0.5096301
536.00 0.4938952
536.10 0.4761733
536.20 0.4594827
536.30 0.4472457
536.40 0.4458552
536.50 0.4458552
536.60 0.4458552
536.70 0.4458552
536.80 0.4458552
536.90 0.4458552
537.00 0.4458552
537.10 0.4458552
537.20 0.4458552
537.30 0.4458552
537.40 0.4433835
537.50 0.4396592
537.60 0.4366344
537.70 0.4442285
537.80 0.4602045
537.90 0.4826183
538.00 0.5092508
538.10 0.5370511
538.20 0.5625292
538.30 0.5827097
538.40 0.5965177
538.50 0.6048213
538.60 0.609411
538.70 0.6121134
538.80 0.6148178
538.90 0.6195663
539.00 0.6280592
539.10 0.6413666
539.20 0.659757
539.30 0.6823084
539.40 0.7073121
539.50 0.7329434
539.60 0.7575404
539.70 0.7797715
539.80 0.7982645
539.90 0.8121366
540.00 0.8218778
540.10 0.8294
540.20 0.8372831
540.30 0.8473768
540.40 0.859282
540.50 0.8730872
540.60 0.8877922
540.70 0.9020592
540.80 0.9146658
540.90 0.9250913
541.00 0.9342957
541.10 0.9443142
541.20 0.957891
541.30 0.9784695
541.40 1.008267
541.50 1.046913
541.60 1.092162
541.70 1.136366
541.80 1.174396
541.90 1.20357
542.00 1.22179
542.10 1.223966
542.20 1.21148
542.30 1.193074
542.40 1.173719
542.50 1.156871
542.60 1.145687
542.70 1.145946
542.80 1.156182
542.90 1.171976
543.00 1.192283
543.10 1.210413
543.20 1.222905
543.30 1.229287
543.40 1.230379
543.50 1.227883
543.60 1.22354
543.70 1.218238
543.80 1.212959
543.90 1.209182
544.00 1.208132
544.10 1.210123
544.20 1.21029
544.30 1.21029
544.40 1.21029
544.50 1.21029
544.60 1.21029
544.70 1.21029
544.80 1.21029
544.90 1.21029
545.00 1.21029
545.10 1.21029
545.20 1.21029
545.30 1.21029
545.40 1.206146
545.50 1.197943
545.60 1.186366
545.70 1.172391
545.80 1.157337
545.90 1.142925
546.00 1.130895
546.10 1.12245
546.20 1.118206
546.30 1.118206
546.40 1.118206
546.50 1.118206
546.60 1.118206
546.70 1.118206
546.80 1.118206
546.90 1.118206
547.00 1.118206
547.10 1.118206
547.20 1.118206
547.30 1.118206
547.40 1.118206
547.50 1.119647
547.60 1.123674
547.70 1.122414
547.80 1.114506
547.90 1.100926
548.00 1.083069
548.10 1.063448
548.20 1.045541
548.30 1.032283
548.40 1.024844
548.50 1.023051
548.60 1.026665
548.70 1.035661
548.80 1.048989
548.90 1.064033
549.00 1.077579
549.10 1.086812
549.20 1.09
549.30 1.086948
549.40 1.07868
549.50 1.066336
549.60 1.050508
549.70 1.032187
549.80 1.013694
549.90 0.9998222
550.00 0.4774648
550.10 0.4182089
550.20 0.353804
550.30 0.2875596
550.40 0.2222804
550.50 0.1643061
550.60 0.1202766
550.70 0.09382168
550.80 0.08433087
550.90 0.08791581
551.00 0.09939826
551.10 0.1148697
551.20 0.133382
551.30 0.1506863
551.40 0.1666097
551.50 0.182886
551.60 0.2033952
551.70 0.2326415
551.80 0.2727227
551.90 0.3222035
552.00 0.3773007
552.10 0.433651
552.20 0.4875983
552.30 0.5363454
552.40 0.5781844
552.50 0.6114039
552.60 0.6333255
552.70 0.6431022
552.80 0.6431022
552.90 0.6431022
553.00 0.6431022
553.10 0.6431022
553.20 0.6431022
553.30 0.6431022
553.40 0.6431022
553.50 0.6431022
553.60 0.6498685
553.70 0.661763
553.80 0.6749579
553.90 0.6873997
554.00 0.7002538
554.10 0.7159182
554.20 0.7365123
554.30 0.7637678
554.40 0.7987361
554.50 0.8370583
554.60 0.8731597
554.70 0.9045806
554.80 0.9319476
554.90 0.9570106
555.00 0.9824985
555.10 1.011846
555.20 1.057002
555.30 1.13469
555.40 1.24459
555.50 1.395009
555.60 1.611329
555.70 1.907121
555.80 2.280743
555.90 2.717141
556.00 3.190176
556.10 3.665168
556.20 4.105164
556.30 4.479644
556.40 4.769884
556.50 4.973879
556.60 5.100445
556.70 5.165808
556.80 5.205049
556.90 5.23463
557.00 5.255128
557.10 5.266242
557.20 5.270072
557.30 5.271504
557.40 5.276385
557.50 5.290496
557.60 5.312108
557.70 5.34571
557.80 5.397186
557.90 5.469595
558.00 5.558661
558.10 5.656843
558.20 5.75875
558.30 5.861353
558.40 5.962785
558.50 6.063291
558.60 6.163722
558.70 6.261561
558.80 6.350788
558.90 6.425363
559.00 6.481047
559.10 6.51501
559.20 6.515571
559.30 6.46777
559.40 6.376123
559.50 6.235358
559.60 6.018167
559.70 5.706181
559.80 5.298682
559.90 4.812898
560.00 4.284766
560.10 3.753423
560.20 3.25948
560.30 2.836253
560.40 2.504173
560.50 2.266959
560.60 2.118471
560.70 2.043332
560.80 2.004383
560.90 1.976824
561.00 1.960315
561.10 1.957987
561.20 1.970603
561.30 1.993384
561.40 2.01866
561.50 2.039939
561.60 2.052618
561.70 2.053838
561.80 2.040473
561.90 2.010093
562.00 1.965008
562.10 1.910009
562.20 1.848911
562.30 1.783545
562.40 1.711598
562.50 1.627135
562.60 1.525998
562.70 1.411254
562.80 1.292272
562.90 1.180634
563.00 1.087385
563.10 1.020329
563.20 0.9836423
563.30 0.9757741
563.40 0.9873461
563.50 1.006341
563.60 1.023654
563.70 1.035372
563.80 1.043548
563.90 1.054089
564.00 1.068468
564.10 1.091702
564.20 1.125906
564.30 1.170088
564.40 1.220067
564.50 1.269829
564.60 1.31425
564.70 1.351413
564.80 1.382957
564.90 1.41226
565.00 1.444512
565.10 1.48007
565.20 1.515366
565.30 1.545696
565.40 1.566666
565.50 1.573475
565.60 1.561659
565.70 1.52931
565.80 1.479114
565.90 1.424644
566.00 1.367809
566.10 1.325214
566.20 1.303306
566.30 1.301835
566.40 1.321362
566.50 1.364025
566.60 1.429604
566.70 1.513612
566.80 1.606104
566.90 1.694321
567.00 1.766781
567.10 1.816444
567.20 1.842527
567.30 1.849906
567.40 1.848272
567.50 1.852163
567.60 1.880127
567.70 1.948559
567.80 2.061451
567.90 2.209447
568.00 2.376241
568.10 2.54306
568.20 2.693952
568.30 2.818641
568.40 2.912883
568.50 2.978119
568.60 3.019137
568.70 3.042438
568.80 3.05385
568.90 3.056305
569.00 3.051245
569.10 3.039896
569.20 3.025419
569.30 3.014227
569.40 3.012139
569.50 3.021659
569.60 3.042229
569.70 3.070394
569.80 3.099708
569.90 3.115736
570.00 3.118635
570.10 3.102383
570.20 3.062886
570.30 2.999866
570.40 2.920815
570.50 2.831244
570.60 2.734455
570.70 2.635574
570.80 2.545403
570.90 2.476358
571.00 2.435987
571.10 2.425572
571.20 2.440961
571.30 2.474403
571.40 2.514526
571.50 2.544607
571.60 2.545225
571.70 2.499196
571.80 2.39914
571.90 2.251193
572.00 2.071164
572.10 1.88111
572.20 1.696014
572.30 1.527143
572.40 1.382922
572.50 1.267924
572.60 1.182484
572.70 1.122021
572.80 1.078772
572.90 1.044994
573.00 1.013812
573.10 0.982507
573.20 0.9503737
573.30 0.9137771
573.40 0.870922
573.50 0.8237202
573.60 0.7767225
573.70 0.7359847
573.80 0.7094153
573.90 0.7037132
574.00 0.7203083
574.10 0.7493554
574.20 0.7862281
574.30 0.8283459
574.40 0.8679622
574.50 0.9013956
574.60 0.9296256
574.70 0.9530065
574.80 0.9699242
574.90 0.9784848
575.00 0.9781327
575.10 0.9712618
575.20 0.9611453
575.30 0.9509604
575.40 0.9464094
575.50 0.9553755
575.60 0.9835847
575.70 1.03239
575.80 1.099848
575.90 1.179584
576.00 1.262112
576.10 1.337722
576.20 1.404181
576.30 1.460769
576.40 1.508825
576.50 1.550106
576.60 1.584627
576.70 1.612279
576.80 1.633505
576.90 1.648326
577.00 1.656731
577.10 1.656392
577.20 1.65126
577.30 1.644506
577.40 1.638321
577.50 1.633803
577.60 1.630992
577.70 1.629195
577.80 1.625341
577.90 1.615014
578.00 1.597602
578.10 1.588197
578.20 1.589666
578.30 1.603048
578.40 1.626949
578.50 1.658264
578.60 1.694038
578.70 1.731643
578.80 1.766064
578.90 1.791937
579.00 1.805936
579.10 1.80445
579.20 1.785359
579.30 1.749987
579.40 1.699276
579.50 1.631301
579.60 1.543002
579.70 1.447024
579.80 1.35235
579.90 1.261929
580.00 1.178258
580.10 1.102649
580.20 1.036189
580.30 0.9796012
580.40 0.9315449
580.50 0.8902644
580.60 0.8557434
580.70 0.828091
580.80 0.8068647
580.90 0.7920439
581.00 0.7836387
581.10 0.7822889
581.20 0.8026191
581.30 0.8420843
581.40 0.8951068
581.50 0.9549194
581.60 1.014185
581.70 1.066796
581.80 1.109904
581.90 1.1459
582.00 1.179278
582.10 1.200588
582.20 1.21023
582.30 1.206482
582.40 1.188515
582.50 1.157998
582.60 1.119437
582.70 1.079324
582.80 1.043013
582.90 1.013283
583.00 0.9902409
583.10 0.9723609
583.20 0.9575352
583.30 0.9420375
583.40 0.9230026
583.50 0.9031128
583.60 0.8976692
583.70 0.8976692
583.80 0.8990121
583.90 0.9195324
584.00 0.9677523
584.10 1.047514
584.20 1.156609
584.30 1.285678
584.40 1.420124
584.50 1.542965
584.60 1.639913
584.70 1.704229
584.80 1.738166
584.90 1.750721
585.00 1.753518
585.10 1.75843
585.20 1.754191
585.30 1.74389
585.40 1.726904
585.50 1.698307
585.60 1.653428
585.70 1.600817
585.80 1.557709
585.90 1.521713
586.00 1.486254
586.10 1.445302
586.20 1.397318
586.30 1.345566
586.40 1.295087
586.50 1.249797
586.60 1.210102
586.70 1.173443
586.80 1.138312
586.90 1.104353
587.00 1.071797
587.10 1.042084
587.20 1.016684
587.30 0.9975944
587.40 0.9876552
587.50 0.9876552
587.60 0.9876552
587.70 0.9881717
587.80 1.005236
587.90 1.017923
588.00 1.012298
588.10 0.977391
588.20 0.9068346
588.30 0.8013384
588.40 0.6705262
588.50 0.5476843
588.60 0.4507364
588.70 0.3864211
588.80 0.3524834
588.90 0.3399291
589.00 0.3371319
589.10 0.3322193
589.20 0.3162276
589.30 0.3000569
589.40 0.2875689
589.50 0.2860279
589.60 0.3019339
589.70 0.3282863
589.80 0.3481275
589.90 0.3614313
590.00 0.3705167
590.10 0.3793785
590.20 0.3936894
590.30 0.4194497
590.40 0.4611962
590.50 0.5200473
590.60 0.5919388
590.70 0.6679726
590.80 0.7365599
590.90 0.7869908
591.00 0.812452
591.10 0.812452
591.20 0.812452
591.30 0.812452
591.40 0.812452
591.50 0.812452
591.60 0.812452
591.70 0.8119355
591.80 0.7935278
591.90 0.7603205
592.00 0.7177261
592.10 0.6728717
592.20 0.6343324
592.30 0.6107595
592.40 0.6071266
592.50 0.6071266
592.60 0.6071266
592.70 0.6071266
592.80 0.6071266
592.90 0.6071266
593.00 0.6071266
593.10 0.6071266
593.20 0.607027
593.30 0.5940335
593.40 0.5704859
593.50 0.5408108
593.60 0.512343
593.70 0.4900795
593.80 0.4724271
593.90 0.4591233
594.00 0.4500379
594.10 0.4411761
594.20 0.4268652
594.30 0.4011048
594.40 0.3593584
594.50 0.3005072
594.60 0.2286158
594.70 0.1539488
594.80 0.0885412
594.90 0.03811032
595.00 0.01264914
595.10 0.01264914
595.20 0.01264914
595.30 0.01264914
595.40 0.02015176
595.50 0.04418049
595.60 0.08281752
595.70 0.1312386
595.80 0.1833713
595.90 0.2330327
596.00 0.2763007
596.10 0.312248
596.20 0.3419104
596.30 0.3673366
596.40 0.389894
596.50 0.4104448
596.60 0.4300082
596.70 0.4484011
596.80 0.4641521
596.90 0.4765666
597.00 0.4870368
597.10 0.4979662
597.20 0.5119716
597.30 0.5306095
597.40 0.553514
597.50 0.5797424
597.60 0.6089968
597.70 0.6446752
597.80 0.6940724
597.90 0.7565181
598.00 0.8243932
598.10 0.8921033
598.20 0.9565635
598.30 1.015495
598.40 1.065957
598.50 1.106269
598.60 1.137833
598.70 1.163266
598.80 1.18805
598.90 1.22436
599.00 1.273917
599.10 1.337997
599.20 1.415818
599.30 1.505709
599.40 1.59773
599.50 1.677549
599.60 1.738049
599.70 1.773934
599.80 1.783313
599.90 1.767271
600.00 2.715004
600.10 2.708406
600.20 2.578406
600.30 2.357275
600.40 2.018474
600.50 1.612489
600.60 1.262556
600.70 1.071999
600.80 1.118529
600.90 1.452418
601.00 1.982271
601.10 2.563178
601.20 3.112838
601.30 3.595658
601.40 3.980954
601.50 4.153887
601.60 3.965498
601.70 3.372221
601.80 2.460466
601.90 1.344791
602.00 0.1440576
602.10 0
602.20 0
602.30 0
602.40 0
602.50 0
602.60 0
602.70 0
602.80 0.5439273
602.90 1.498168
603.00 2.407763
603.10 3.240871
603.20 3.925983
603.30 4.36863
603.40 4.503443
603.50 4.324297
603.60 3.869424
603.70 3.245035
603.80 2.669073
603.90 2.353067
604.00 2.399814
604.10 2.756397
604.20 3.290884
604.30 3.878715
604.40 4.341355
604.50 4.515617
604.60 4.360968
604.70 3.923009
604.80 3.281801
604.90 2.557764
605.00 1.913078
605.10 1.477963
605.20 1.250795
605.30 1.205514
605.40 1.323803
605.50 1.543868
605.60 1.800176
605.70 2.080334
605.80 2.412353
605.90 2.774652
606.00 3.09455
606.10 3.292447
606.20 3.326648
606.30 3.184552
606.40 2.917812
606.50 2.673608
606.60 2.590851
606.70 2.695485
606.80 2.931876
606.90 3.22978
607.00 3.514618
607.10 3.721392
607.20 3.816641
607.30 3.811792
607.40 3.750392
607.50 3.669734
607.60 3.599351
607.70 3.566308
607.80 3.574253
607.90 3.588778
608.00 3.566681
608.10 3.458625
608.20 3.216618
608.30 2.85989
608.40 2.461988
608.50 2.047019
608.60 1.617091
608.70 1.234984
608.80 1.003147
608.90 1.009904
609.00 1.287929
609.10 1.801975
609.20 2.430805
609.30 2.993804
609.40 3.348224
609.50 3.517409
609.60 3.623359
609.70 3.735707
609.80 3.865207
609.90 4.052689
610.00 4.329753
610.10 4.650816
610.20 4.917605
610.30 5.052644
610.40 5.050223
610.50 4.911925
610.60 4.708751
610.70 4.585493
610.80 4.634757
610.90 4.798823
611.00 4.951901
611.10 5.019383
611.20 4.972145
611.30 4.803849
611.40 4.537566
611.50 4.193493
611.60 3.806221
611.70 3.440593
611.80 3.128638
611.90 2.927401
612.00 2.859086
612.10 2.873242
612.20 2.916915
612.30 2.95908
612.40 2.955425
612.50 2.842183
612.60 2.609188
612.70 2.311125
612.80 2.003111
612.90 1.74245
613.00 1.597334
613.10 1.612593
613.20 1.80414
613.30 2.101087
613.40 2.383465
613.50 2.568464
613.60 2.625398
613.70 2.593749
613.80 2.586288
613.90 2.699873
614.00 2.951933
614.10 3.295773
614.20 3.661672
614.30 3.960573
614.40 4.113683
614.50 4.088449
614.60 3.898018
614.70 3.645946
614.80 3.454535
614.90 3.381038
615.00 3.429917
615.10 3.564284
615.20 3.706297
615.30 3.783934
615.40 3.759148
615.50 3.625529
615.60 3.428581
615.70 3.263884
615.80 3.209257
615.90 3.288983
616.00 3.492718
616.10 3.750594
616.20 3.950671
616.30 4.015629
616.40 3.932104
616.50 3.748287
616.60 3.605239
616.70 3.60725
616.80 3.749554
616.90 4.016512
617.00 4.362089
617.10 4.696623
617.20 4.92594
617.30 4.965248
617.40 4.757257
617.50 4.301743
617.60 3.680118
617.70 3.014111
617.80 2.437466
617.90 2.056644
618.00 1.861145
618.10 1.819638
618.20 1.915658
618.30 2.075849
618.40 2.228662
618.50 2.320659
618.60 2.307546
618.70 2.177559
618.80 1.970138
618.90 1.76778
619.00 1.663868
619.10 1.721878
619.20 1.921559
619.30 2.171493
619.40 2.332476
619.50 2.333212
619.60 2.253595
619.70 2.228293
619.80 2.321023
619.90 2.519892
620.00 2.791907
620.10 3.093221
620.20 3.367887
620.30 3.546946
620.40 3.571181
620.50 3.406921
620.60 3.097089
620.70 2.744886
620.80 2.47432
620.90 2.350412
621.00 2.329402
621.10 2.304609
621.20 2.213389
621.30 2.07423
621.40 1.912554
621.50 1.729237
621.60 1.529126
621.70 1.340474
621.80 1.197899
621.90 1.146619
622.00 1.208546
622.10 1.356377
622.20 1.570343
622.30 1.859162
622.40 2.213558
622.50 2.611682
622.60 3.005659
622.70 3.315353
622.80 3.528587
622.90 3.715651
623.00 3.933112
623.10 4.195957
623.20 4.470799
623.30 4.702046
623.40 4.833587
623.50 4.829084
623.60 4.676371
623.70 4.374894
623.80 3.956732
623.90 3.471904
624.00 3.005121
624.10 2.669194
624.20 2.504026
624.30 2.479113
624.40 2.548719
624.50 2.652597
624.60 2.748898
624.70 2.81417
624.80 2.832539
624.90 2.799602
625.00 2.708806
625.10 2.566223
625.20 2.413984
625.30 2.302365
625.40 2.255467
625.50 2.288738
625.60 2.398039
625.70 2.54136
625.80 2.666896
625.90 2.734822
626.00 2.751924
626.10 2.773823
626.20 2.878329
626.30 3.097157
626.40 3.398758
626.50 3.710744
626.60 3.908904
626.70 3.907116
626.80 3.693559
626.90 3.295639
627.00 2.794134
627.10 2.315081
627.20 1.986012
627.30 1.907647
627.40 2.093083
627.50 2.445645
627.60 2.809105
627.70 3.066686
627.80 3.184272
627.90 3.17053
628.00 3.111
628.10 3.121164
628.20 3.249392
628.30 3.4979
628.40 3.842436
628.50 4.234916
628.60 4.636416
628.70 4.994396
628.80 5.259069
628.90 5.430762
629.00 5.50956
629.10 5.483702
629.20 5.357874
629.30 5.168808
629.40 4.961387
629.50 4.754389
629.60 4.651716
629.70 4.791467
629.80 5.169329
629.90 5.698905
630.00 6.26152
630.10 6.729418
630.20 6.991648
630.30 6.962244
630.40 6.665771
630.50 6.206194
630.60 5.688535
630.70 5.203903
630.80 4.820668
630.90 4.618795
631.00 4.603787
631.10 4.678065
631.20 4.811875
631.30 4.990136
631.40 5.145312
631.50 5.217608
631.60 5.206589
631.70 5.157267
631.80 5.086081
631.90 4.988777
632.00 4.886941
632.10 4.852174
632.20 4.947293
632.30 5.147615
632.40 5.330436
632.50 5.366318
632.60 5.174983
632.70 4.751973
632.80 4.189603
632.90 3.637793
633.00 3.216462
633.10 2.979817
633.20 2.949936
633.30 3.155551
633.40 3.593033
633.50 4.165128
633.60 4.744939
633.70 5.260807
633.80 5.706521
633.90 6.098648
634.00 6.45193
634.10 6.76005
634.20 6.979736
634.30 7.080698
634.40 7.064155
634.50 6.953081
634.60 6.805526
634.70 6.649381
634.80 6.480976
634.90 6.292303
635.00 6.096816
635.10 5.90576
635.20 5.713709
635.30 5.515062
635.40 5.2883
635.50 5.041996
635.60 4.819272
635.70 4.670085
635.80 4.673489
635.90 4.896752
636.00 5.331251
636.10 5.939295
636.20 6.709637
636.30 7.617933
636.40 8.520713
636.50 9.231951
636.60 9.614148
636.70 9.602243
636.80 9.232925
636.90 8.60283
637.00 7.847765
637.10 7.118635
637.20 6.50305
637.30 6.051129
637.40 5.840478
637.50 5.88823
637.60 6.080706
637.70 6.254563
637.80 6.300296
637.90 6.152387
638.00 5.816251
638.10 5.381964
638.20 4.958549
638.30 4.645884
638.40 4.534876
638.50 4.661979
638.60 5.00906
638.70 5.502815
638.80 5.997909
638.90 6.368122
639.00 6.570508
639.10 6.641999
639.20 6.667142
639.30 6.721617
639.40 6.805286
639.50 6.852003
639.60 6.799358
639.70 6.629407
639.80 6.358388
639.90 6.020681
640.00 5.662094
640.10 5.350349
640.20 5.16511
640.30 5.157001
640.40 5.322663
640.50 5.600776
640.60 5.89621
640.70 6.120049
640.80 6.250023
640.90 6.331048
641.00 6.4043
641.10 6.468353
641.20 6.499632
641.30 6.491109
641.40 6.444736
641.50 6.354611
641.60 6.211015
641.70 6.025125
641.80 5.821908
641.90 5.616051
642.00 5.424621
642.10 5.259838
642.20 5.128183
642.30 5.026058
642.40 4.944708
642.50 4.894143
642.60 4.893708
642.70 4.958552
642.80 5.133933
642.90 5.464224
643.00 5.926911
643.10 6.423221
643.20 6.84559
643.30 7.127389
643.40 7.22951
643.50 7.155575
643.60 6.899637
643.70 6.459713
643.80 5.907326
643.90 5.354906
644.00 4.923674
644.10 4.689821
644.20 4.657695
644.30 4.811392
644.40 5.120921
644.50 5.546669
644.60 6.026523
644.70 6.480893
644.80 6.873724
644.90 7.190125
645.00 7.452955
645.10 7.679362
645.20 7.828515
645.30 7.852234
645.40 7.696405
645.50 7.36103
645.60 6.920092
645.70 6.452418
645.80 6.059551
645.90 5.834362
646.00 5.803541
646.10 5.953411
646.20 6.223779
646.30 6.557412
646.40 6.89501
646.50 7.182031
646.60 7.392232
646.70 7.481004
646.80 7.468781
646.90 7.415407
647.00 7.323166
647.10 7.179393
647.20 6.974407
647.30 6.722226
647.40 6.486999
647.50 6.3307
647.60 6.282239
647.70 6.304347
647.80 6.337607
647.90 6.360423
648.00 6.371132
648.10 6.40512
648.20 6.440402
648.30 6.43334
648.40 6.421877
648.50 6.478135
648.60 6.664059
648.70 6.986511
648.80 7.380124
648.90 7.756824
649.00 8.030193
649.10 8.140021
649.20 8.083602
649.30 7.89521
649.40 7.702039
649.50 7.655818
649.60 7.842541
649.70 8.24856
649.80 8.761334
649.90 9.234265
650.00 9.531491
650.10 9.541785
650.20 9.230101
650.30 8.664812
650.40 7.997545
650.50 7.42884
650.60 7.108898
650.70 7.125964
650.80 7.443178
650.90 7.920305
651.00 8.411931
651.10 8.800549
651.20 9.017964
651.30 9.02826
651.40 8.833995
651.50 8.526092
651.60 8.238302
651.70 8.066444
651.80 8.035502
651.90 8.118065
652.00 8.291768
652.10 8.499551
652.20 8.662936
652.30 8.735747
652.40 8.713137
652.50 8.640657
652.60 8.590249
652.70 8.650267
652.80 8.884228
652.90 9.279818
653.00 9.769922
653.10 10.27435
653.20 10.73954
653.30 11.11141
653.40 11.36645
653.50 11.53655
653.60 11.63123
653.70 11.62776
653.80 11.52232
653.90 11.34019
654.00 11.07666
654.10 10.71809
654.20 10.3274
654.30 9.998854
654.40 9.785526
654.50 9.69291
654.60 9.686717
654.70 9.731657
654.80 9.777335
654.90 9.769733
655.00 9.714045
655.10 9.65992
655.20 9.62844
655.30 9.597804
655.40 9.592205
655.50 9.66034
655.60 9.7879
655.70 9.962104
655.80 10.22956
655.90 10.65554
656.00 11.25775
656.10 11.98183
656.20 12.72161
656.30 13.34371
656.40 13.74173
656.50 13.86711
656.60 13.74485
656.70 13.43077
656.80 12.95935
656.90 12.38333
657.00 11.78385
657.10 11.22959
657.20 10.78012
657.30 10.48825
657.40 10.39713
657.50 10.56763
657.60 11.02017
657.70 11.66639
657.80 12.34309
657.90 12.8877
658.00 13.18492
658.10 13.17708
658.20 12.89614
658.30 12.42458
658.40 11.85624
658.50 11.30863
658.60 10.86697
658.70 10.55384
658.80 10.36747
658.90 10.27205
659.00 10.20525
659.10 10.14147
659.20 10.06957
659.30 9.982919
659.40 9.917831
659.50 9.923248
659.60 10.01068
659.70 10.1596
659.80 10.37376
659.90 10.66448
660.00 11.02131
660.10 11.38745
660.20 11.65382
660.30 11.72284
660.40 11.58695
660.50 11.31682
660.60 10.99856
660.70 10.71191
660.80 10.48635
660.90 10.32775
661.00 10.22917
661.10 10.18238
661.20 10.16157
661.30 10.12311
661.40 10.04523
661.50 9.960967
661.60 9.959045
661.70 10.10941
661.80 10.39201
661.90 10.71222
662.00 10.97123
662.10 11.09284
662.20 11.03093
662.30 10.79921
662.40 10.4928
662.50 10.21986
662.60 10.06126
662.70 10.05665
662.80 10.19424
662.90 10.4298
663.00 10.69692
663.10 10.93572
663.20 11.11769
663.30 11.25116
663.40 11.36594
663.50 11.483
663.60 11.63853
663.70 11.85996
663.80 12.12102
663.90 12.35424
664.00 12.49118
664.10 12.53188
664.20 12.51594
664.30 12.48234
664.40 12.47396
664.50 12.49955
664.60 12.51909
664.70 12.47223
664.80 12.33434
664.90 12.12842
665.00 11.87551
665.10 11.61879
665.20 11.43837
665.30 11.41309
665.40 11.58844
665.50 11.93686
665.60 12.37848
665.70 12.81386
665.80 13.16396
665.90 13.37315
666.00 13.41288
666.10 13.30435
666.20 13.09851
666.30 12.84539
666.40 12.59292
666.50 12.38068
666.60 12.22112
666.70 12.12793
666.80 12.14088
666.90 12.31226
667.00 12.68554
667.10 13.27167
667.20 13.96963
667.30 14.61605
667.40 15.09927
667.50 15.35557
667.60 15.35969
667.70 15.134
667.80 14.73729
667.90 14.24042
668.00 13.73991
668.10 13.34312
668.20 13.10619
668.30 13.02289
668.40 13.05918
668.50 13.17048
668.60 13.31497
668.70 13.47176
668.80 13.61466
668.90 13.74337
669.00 13.89413
669.10 14.08333
669.20 14.31204
669.30 14.58633
669.40 14.88045
669.50 15.12462
669.60 15.26053
669.70 15.26215
669.80 15.10739
669.90 14.78112
670.00 14.31277
670.10 13.74694
670.20 13.15235
670.30 12.60085
670.40 12.11042
670.50 11.70221
670.60 11.40725
670.70 11.2224
670.80 11.148
670.90 11.22882
671.00 11.4775
671.10 11.82411
671.20 12.18337
671.30 12.51631
671.40 12.80689
671.50 13.06259
671.60 13.29683
671.70 13.51345
671.80 13.73468
671.90 13.96223
672.00 14.19948
672.10 14.48013
672.20 14.806
672.30 15.10854
672.40 15.31072
672.50 15.40871
672.60 15.44625
672.70 15.42297
672.80 15.33576
672.90 15.22007
673.00 15.10592
673.10 14.99189
673.20 14.85703
673.30 14.71142
673.40 14.58343
673.50 14.47986
673.60 14.39012
673.70 14.29629
673.80 14.19401
673.90 14.11414
674.00 14.09507
674.10 14.15487
674.20 14.3141
674.30 14.59147
674.40 14.99634
674.50 15.54893
674.60 16.22606
674.70 16.92091
674.80 17.47759
674.90 17.74873
675.00 17.67386
675.10 17.3035
675.20 16.73721
675.30 16.04896
675.40 15.31017
675.50 14.63804
675.60 14.1294
675.70 13.82773
675.80 13.73943
675.90 13.78522
676.00 13.85846
676.10 13.92319
676.20 13.97865
676.30 14.02691
676.40 14.06441
676.50 14.06207
676.60 13.99074
676.70 13.84951
676.80 13.6848
676.90 13.58007
677.00 13.60272
677.10 13.75974
677.20 13.98774
677.30 14.24527
677.40 14.54363
677.50 14.90315
677.60 15.31781
677.70 15.73051
677.80 16.10094
677.90 16.44494
678.00 16.79714
678.10 17.16135
678.20 17.46621
678.30 17.60185
678.40 17.50167
678.50 17.1772
678.60 16.70343
678.70 16.16368
678.80 15.61478
678.90 15.08194
679.00 14.6052
679.10 14.25666
679.20 14.07603
679.30 14.08594
679.40 14.30724
679.50 14.68919
679.60 15.12333
679.70 15.49831
679.80 15.71972
679.90 15.74231
680.00 15.59313
680.10 15.34074
680.20 15.05356
680.30 14.78389
680.40 14.56112
680.50 14.39132
680.60 14.24317
680.70 14.04253
680.80 13.71094
680.90 13.27172
681.00 12.83902
681.10 12.52646
681.20 12.3891
681.30 12.41445
681.40 12.5456
681.50 12.73658
681.60 12.96757
681.70 13.19178
681.80 13.35036
681.90 13.40109
682.00 13.34388
682.10 13.19435
682.20 12.95288
682.30 12.62078
682.40 12.21383
682.50 11.73212
682.60 11.22398
682.70 10.82426
682.80 10.64107
682.90 10.67602
683.00 10.86757
683.10 11.16098
683.20 11.5194
683.30 11.91109
683.40 12.28599
683.50 12.6026
683.60 12.83996
683.70 12.97118
683.80 12.99017
683.90 12.99516
684.00 13.11655
684.10 13.37474
684.20 13.70393
684.30 14.02637
684.40 14.27356
684.50 14.4017
684.60 14.39216
684.70 14.24612
684.80 13.97949
684.90 13.62881
685.00 13.26439
685.10 12.97512
685.20 12.82999
685.30 12.83189
685.40 12.92993
685.50 13.08743
685.60 13.32503
685.70 13.66363
685.80 14.07923
685.90 14.50966
686.00 14.877
686.10 15.12543
686.20 15.23646
686.30 15.20936
686.40 15.06911
686.50 14.90489
686.60 14.79844
686.70 14.75949
686.80 14.73863
686.90 14.67404
687.00 14.52243
687.10 14.26076
687.20 13.91464
687.30 13.56118
687.40 13.26534
687.50 13.03939
687.60 12.86184
687.70 12.69907
687.80 12.51092
687.90 12.22417
688.00 11.82014
688.10 11.38315
688.20 11.02126
688.30 10.80111
688.40 10.75442
688.50 10.87925
688.60 11.08299
688.70 11.1967
688.80 11.13692
688.90 10.97613
689.00 10.81971
689.10 10.74162
689.20 10.78279
689.30 10.96473
689.40 11.2699
689.50 11.61482
689.60 11.91185
689.70 12.09857
689.80 12.10309
689.90 11.9175
690.00 11.64546
690.10 11.43243
690.20 11.34907
690.30 11.36154
690.40 11.43407
690.50 11.55398
690.60 11.68929
690.70 11.80549
690.80 11.88645
690.90 11.92119
691.00 11.89609
691.10 11.8018
691.20 11.64091
691.30 11.41129
691.40 11.12557
691.50 10.8088
691.60 10.49715
691.70 10.28114
691.80 10.23933
691.90 10.38813
692.00 10.70105
692.10 11.10761
692.20 11.5301
692.30 11.93265
692.40 12.32265
692.50 12.69558
692.60 13.02805
692.70 13.2967
692.80 13.47179
692.90 13.55905
693.00 13.58839
693.10 13.55659
693.20 13.46355
693.30 13.31637
693.40 13.16601
693.50 13.08709
693.60 13.09366
693.70 13.16645
693.80 13.26598
693.90 13.37805
694.00 13.52503
694.10 13.73475
694.20 14.05756
694.30 14.56258
694.40 15.31555
694.50 16.2948
694.60 17.37085
694.70 18.42295
694.80 19.33914
694.90 19.96756
695.00 20.17479
695.10 19.90151
695.20 19.19163
695.30 18.18022
695.40 17.02679
695.50 15.89209
695.60 14.91272
695.70 14.16172
695.80 13.60037
695.90 13.14755
696.00 12.79437
696.10 12.53929
696.20 12.33621
696.30 12.19285
696.40 12.18591
696.50 12.41724
696.60 12.9198
696.70 13.60162
696.80 14.33482
696.90 14.98351
697.00 15.43325
697.10 15.61534
697.20 15.54563
697.30 15.31521
697.40 15.02005
697.50 14.7566
697.60 14.61093
697.70 14.60575
697.80 14.70733
697.90 14.81823
698.00 14.85361
698.10 14.81563
698.20 14.74452
698.30 14.69668
698.40 14.7084
698.50 14.79396
698.60 14.96539
698.70 15.22496
698.80 15.54383
698.90 15.86471
699.00 16.13744
699.10 16.34882
699.20 16.51017
699.30 16.62278
699.40 16.64509
699.50 16.53723
699.60 16.32364
699.70 16.04921
699.80 15.74692
699.90 15.45968
700.00 15.23432
700.10 15.09677
700.20 15.03933
700.30 15.04281
700.40 15.09715
700.50 15.20537
700.60 15.36498
700.70 15.54296
700.80 15.73917
700.90 15.98465
701.00 16.25613
701.10 16.52821
701.20 16.82135
701.30 17.15491
701.40 17.53905
701.50 17.9745
701.60 18.44811
701.70 18.93305
701.80 19.3846
701.90 19.72856
702.00 19.87349
702.10 19.79567
702.20 19.54031
702.30 19.15529
702.40 18.72266
702.50 18.34311
702.60 18.09532
702.70 18.03444
702.80 18.15205
702.90 18.41256
703.00 18.78575
703.10 19.20643
703.20 19.60056
703.30 19.93622
703.40 20.23179
703.50 20.52738
703.60 20.87103
703.70 21.29527
703.80 21.78359
703.90 22.30995
704.00 22.80984
704.10 23.16452
704.20 23.28625
704.30 23.15064
704.40 22.78937
704.50 22.29062
704.60 21.77722
704.70 21.39225
704.80 21.25244
704.90 21.35531
705.00 21.58625
705.10 21.82724
705.20 22.01395
705.30 22.08383
705.40 21.9793
705.50 21.696
705.60 21.27075
705.70 20.74778
705.80 20.18881
705.90 19.67933
706.00 19.31624
706.10 19.15075
706.20 19.16643
706.30 19.35365
706.40 19.69961
706.50 20.15675
706.60 20.65669
706.70 21.12696
706.80 21.53063
706.90 21.8655
707.00 22.14097
707.10 22.37518
707.20 22.5911
707.30 22.82774
707.40 23.10651
707.50 23.38934
707.60 23.61454
707.70 23.7414
707.80 23.76667
707.90 23.70326
708.00 23.54843
708.10 23.30845
708.20 23.01747
708.30 22.72195
708.40 22.46294
708.50 22.24963
708.60 22.09712
708.70 22.02113
708.80 21.97347
708.90 21.89835
709.00 21.80125
709.10 21.7185
709.20 21.66108
709.30 21.59309
709.40 21.5099
709.50 21.46042
709.60 21.46354
709.70 21.50117
709.80 21.52532
709.90 21.53245
710.00 21.54307
710.10 21.53846
710.20 21.54573
710.30 21.60569
710.40 21.69656
710.50 21.77183
710.60 21.80977
710.70 21.83173
710.80 21.85189
710.90 21.85286
711.00 21.84185
711.10 21.83582
711.20 21.88047
711.30 22.0187
711.40 22.22892
711.50 22.45199
711.60 22.61237
711.70 22.67118
711.80 22.65022
711.90 22.59599
712.00 22.54532
712.10 22.52561
712.20 22.54987
712.30 22.598
712.40 22.61766
712.50 22.59368
712.60 22.56895
712.70 22.58705
712.80 22.67375
712.90 22.8427
713.00 23.08794
713.10 23.35954
713.20 23.54099
713.30 23.52529
713.40 23.29806
713.50 22.90965
713.60 22.44722
713.70 22.0157
713.80 21.73434
713.90 21.67775
714.00 21.81075
714.10 22.02396
714.20 22.25458
714.30 22.52999
714.40 22.88059
714.50 23.31799
714.60 23.87813
714.70 24.54884
714.80 25.2342
714.90 25.81823
715.00 26.17188
715.10 26.18789
715.20 25.81125
715.30 25.08682
715.40 24.18133
715.50 23.31647
715.60 22.66107
715.70 22.29265
715.80 22.2228
715.90 22.40419
716.00 22.74553
716.10 23.14318
716.20 23.51052
716.30 23.78676
716.40 23.96434
716.50 24.09648
716.60 24.25874
716.70 24.47513
716.80 24.70608
716.90 24.9092
717.00 25.04397
717.10 25.05665
717.20 24.90764
717.30 24.62076
717.40 24.27515
717.50 23.95153
717.60 23.73321
717.70 23.68167
717.80 23.81186
717.90 24.09416
718.00 24.47331
718.10 24.90944
718.20 25.34588
718.30 25.70416
718.40 25.9431
718.50 26.07108
718.60 26.14479
718.70 26.22552
718.80 26.3528
718.90 26.56798
719.00 26.85681
719.10 27.16714
719.20 27.46701
719.30 27.71451
719.40 27.8506
719.50 27.80795
719.60 27.5586
719.70 27.14459
719.80 26.63805
719.90 26.10042
720.00 25.60592
720.10 25.24347
720.20 25.04321
720.30 24.9774
720.40 25.02113
720.50 25.1585
720.60 25.35566
720.70 25.58802
720.80 25.84048
720.90 26.08989
721.00 26.32681
721.10 26.53915
721.20 26.7045
721.30 26.83061
721.40 26.89816
721.50 26.84443
721.60 26.65768
721.70 26.40655
721.80 26.18699
721.90 26.0823
722.00 26.15009
722.10 26.39598
722.20 26.79257
722.30 27.33168
722.40 27.98498
722.50 28.65925
722.60 29.22955
722.70 29.57182
722.80 29.64815
722.90 29.51591
723.00 29.26689
723.10 28.97573
723.20 28.7
723.30 28.50905
723.40 28.48293
723.50 28.72881
723.60 29.29896
723.70 30.05885
723.80 30.79689
723.90 31.36053
724.00 31.65755
724.10 31.6729
724.20 31.43178
724.30 31.02738
724.40 30.60739
724.50 30.32015
724.60 30.29047
724.70 30.54167
724.80 31.01631
724.90 31.58524
725.00 32.11967
725.10 32.60586
725.20 33.05797
725.30 33.45658
725.40 33.77422
725.50 33.96127
725.60 33.95098
725.70 33.65628
725.80 33.05719
725.90 32.25083
726.00 31.38457
726.10 30.63618
726.20 30.14816
726.30 29.9989
726.40 30.18172
726.50 30.59663
726.60 31.10775
726.70 31.56671
726.80 31.85661
726.90 31.97769
727.00 32.11912
727.10 32.60082
727.20 33.60194
727.30 34.96001
727.40 36.28672
727.50 37.25189
727.60 37.65901
727.70 37.39401
727.80 36.50963
727.90 35.21943
728.00 33.80937
728.10 32.59516
728.20 31.84674
728.30 31.69385
728.40 32.05311
728.50 32.61975
728.60 33.06437
728.70 33.26894
728.80 33.30198
728.90 33.21026
729.00 33.00472
729.10 32.74137
729.20 32.47279
729.30 32.22785
729.40 32.03528
729.50 31.90996
729.60 31.84702
729.70 31.84268
729.80 31.86131
729.90 31.87138
730.00 31.92059
730.10 32.08487
730.20 32.37808
730.30 32.76476
730.40 33.17257
730.50 33.52617
730.60 33.77303
730.70 33.86347
730.80 33.77187
730.90 33.534
731.00 33.30212
731.10 33.27724
731.20 33.58629
731.30 34.23531
731.40 35.09206
731.50 35.92435
731.60 36.52895
731.70 36.79572
731.80 36.7279
731.90 36.42525
732.00 36.02229
732.10 35.68576
732.20 35.55692
732.30 35.70894
732.40 36.11827
732.50 36.63333
732.60 37.07218
732.70 37.35867
732.80 37.48966
732.90 37.44803
733.00 37.21603
733.10 36.79616
733.20 36.23683
733.30 35.63021
733.40 35.06822
733.50 34.63034
733.60 34.35601
733.70 34.23549
733.80 34.21341
733.90 34.24742
734.00 34.35766
734.10 34.51517
734.20 34.64282
734.30 34.73443
734.40 34.82877
734.50 34.97641
734.60 35.19921
734.70 35.44729
734.80 35.6581
734.90 35.78128
735.00 35.81035
735.10 35.78399
735.20 35.72357
735.30 35.60271
735.40 35.38674
735.50 35.08803
735.60 34.75334
735.70 34.43347
735.80 34.20755
735.90 34.15856
736.00 34.34138
736.10 34.778
736.20 35.43374
736.30 36.2228
736.40 37.03945
736.50 37.74602
736.60 38.1776
736.70 38.19328
736.80 37.73651
736.90 36.88108
737.00 35.81121
737.10 34.76475
737.20 33.9501
737.30 33.47522
737.40 33.34187
737.50 33.4908
737.60 33.8657
737.70 34.40741
737.80 35.02162
737.90 35.5928
738.00 36.0148
738.10 36.25768
738.20 36.34109
738.30 36.29922
738.40 36.17962
738.50 36.01259
738.60 35.82397
738.70 35.66997
738.80 35.60542
738.90 35.63351
739.00 35.67775
739.10 35.65645
739.20 35.54075
739.30 35.34228
739.40 35.12894
739.50 35.00079
739.60 35.03258
739.70 35.19197
739.80 35.31996
739.90 35.26719
740.00 35.00472
740.10 34.57039
740.20 33.99707
740.30 33.35027
740.40 32.75446
740.50 32.31069
740.60 32.05548
740.70 31.99901
740.80 32.13924
740.90 32.41882
741.00 32.7433
741.10 33.06076
741.20 33.40184
741.30 33.81979
741.40 34.31799
741.50 34.81902
741.60 35.19542
741.70 35.3344
741.80 35.15225
741.90 34.60786
742.00 33.75286
742.10 32.72595
742.20 31.69373
742.30 30.83137
742.40 30.29062
742.50 30.15025
742.60 30.40124
742.70 30.94766
742.80 31.60815
742.90 32.19424
743.00 32.60998
743.10 32.82595
743.20 32.85589
743.30 32.78154
743.40 32.67848
743.50 32.58705
743.60 32.56503
743.70 32.64557
743.80 32.79455
743.90 32.94973
744.00 33.06671
744.10 33.13471
744.20 33.14606
744.30 33.09511
744.40 33.01399
744.50 32.95153
744.60 32.95459
744.70 33.03623
744.80 33.16035
744.90 33.27888
745.00 33.33146
745.10 33.30676
745.20 33.26018
745.30 33.23672
745.40 33.25397
745.50 33.31574
745.60 33.42296
745.70 33.57838
745.80 33.77227
745.90 33.9755
746.00 34.11305
746.10 34.12963
746.20 34.10605
746.30 34.16733
746.40 34.36776
746.50 34.65628
746.60 34.90994
746.70 35.03705
746.80 35.00005
746.90 34.78802
747.00 34.38879
747.10 33.82055
747.20 33.14507
747.30 32.46188
747.40 31.93111
747.50 31.68325
747.60 31.71997
747.70 31.94329
747.80 32.23673
747.90 32.54905
748.00 32.87696
748.10 33.17298
748.20 33.36882
748.30 33.44276
748.40 33.43026
748.50 33.39573
748.60 33.40527
748.70 33.48947
748.80 33.61163
748.90 33.70928
749.00 33.74828
749.10 33.73106
749.20 33.66721
749.30 33.53329
749.40 33.30189
749.50 32.9978
749.60 32.68206
749.70 32.40149
749.80 32.1729
749.90 32.00229
750.00 31.89846
750.10 31.85936
750.20 31.88525
750.30 31.98351
750.40 32.13523
750.50 32.32425
750.60 32.56281
750.70 32.86596
750.80 33.24707
750.90 33.69515
751.00 34.14148
751.10 34.49963
751.20 34.74798
751.30 34.92489
751.40 35.03752
751.50 35.07215
751.60 35.02468
751.70 34.86194
751.80 34.57993
751.90 34.24643
752.00 33.95861
752.10 33.79681
752.20 33.86746
752.30 34.21556
752.40 34.75635
752.50 35.36943
752.60 35.91604
752.70 36.24651
752.80 36.27145
752.90 35.97955
753.00 35.40651
753.10 34.67289
753.20 33.91048
753.30 33.18317
753.40 32.51711
753.50 31.94389
753.60 31.42967
753.70 30.97317
753.80 30.6824
753.90 30.63923
754.00 30.85136
754.10 31.25562
754.20 31.74006
754.30 32.20168
754.40 32.59055
754.50 32.88513
754.60 33.07447
754.70 33.1656
754.80 33.18574
754.90 33.16216
755.00 33.11304
755.10 33.04617
755.20 32.92295
755.30 32.70472
755.40 32.41698
755.50 32.12156
755.60 31.89429
755.70 31.78412
755.80 31.79042
755.90 31.88728
756.00 32.02446
756.10 32.11785
756.20 32.09304
756.30 31.91846
756.40 31.59979
756.50 31.18099
756.60 30.78986
756.70 30.57056
756.80 30.58815
756.90 30.84727
757.00 31.2931
757.10 31.84108
757.20 32.40298
757.30 32.87633
757.40 33.19447
757.50 33.35531
757.60 33.38019
757.70 33.30182
757.80 33.1592
757.90 32.9762
758.00 32.75128
758.10 32.4728
758.20 32.13456
758.30 31.75381
758.40 31.34694
758.50 30.89333
758.60 30.37458
758.70 29.8067
758.80 29.21982
758.90 28.65344
759.00 28.11671
759.10 27.61665
759.20 27.20773
759.30 26.93343
759.40 26.85518
759.50 27.06857
759.60 27.64855
759.70 28.56266
759.80 29.65133
759.90 30.71772
760.00 31.61832
760.10 32.16008
760.20 32.11023
760.30 31.39565
760.40 30.06297
760.50 28.22968
760.60 26.15935
760.70 24.22062
760.80 22.73073
760.90 21.88321
761.00 21.72765
761.10 22.18148
761.20 23.06445
761.30 24.12382
761.40 25.0158
761.50 25.49055
761.60 25.48455
761.70 24.97301
761.80 24.06165
761.90 22.98402
762.00 21.92288
762.10 21.00508
762.20 20.30622
762.30 19.83655
762.40 19.57313
762.50 19.5132
762.60 19.71299
762.70 20.1879
762.80 20.81612
762.90 21.37039
763.00 21.60213
763.10 21.33205
763.20 20.51674
763.30 19.23852
763.40 17.6948
763.50 16.14217
763.60 14.82051
763.70 13.94185
763.80 13.65573
763.90 13.90814
764.00 14.43765
764.10 14.93043
764.20 15.14137
764.30 14.98977
764.40 14.5085
764.50 13.75636
764.60 12.85001
764.70 11.96094
764.80 11.24139
764.90 10.80128
765.00 10.70687
765.10 10.89616
765.20 11.15164
765.30 11.26049
765.40 11.08416
765.50 10.57793
765.60 9.832443
765.70 8.964752
765.80 8.096018
765.90 7.378221
766.00 6.911353
766.10 6.713103
766.20 6.694907
766.30 6.72561
766.40 6.689256
766.50 6.492418
766.60 6.124821
766.70 5.664407
766.80 5.237849
766.90 4.951343
767.00 4.82749
767.10 4.823881
767.20 4.899437
767.30 5.045489
767.40 5.248187
767.50 5.468923
767.60 5.710425
767.70 5.996018
767.80 6.338711
767.90 6.754739
768.00 7.232859
768.10 7.730403
768.20 8.181926
768.30 8.519687
768.40 8.715362
768.50 8.789563
768.60 8.761934
768.70 8.618643
768.80 8.351252
768.90 7.974889
769.00 7.509782
769.10 6.985666
769.20 6.420313
769.30 5.804137
769.40 5.144225
769.50 4.462821
769.60 3.793527
769.70 3.183602
769.80 2.671371
769.90 2.297364
770.00 2.113232
770.10 2.157957
770.20 2.432612
770.30 2.914211
770.40 3.557698
770.50 4.279695
770.60 5.025039
770.70 5.80792
770.80 6.654164
770.90 7.542632
771.00 8.469107
771.10 9.503735
771.20 10.70051
771.30 11.93789
771.40 13.01609
771.50 13.85534
771.60 14.48481
771.70 15.00278
771.80 15.51806
771.90 16.08937
772.00 16.69521
772.10 17.27288
772.20 17.80104
772.30 18.32952
772.40 18.85171
772.50 19.233
772.60 19.35777
772.70 19.28458
772.80 19.13943
772.90 19.01529
773.00 18.97937
773.10 19.0089
773.20 19.04115
773.30 19.07909
773.40 19.19386
773.50 19.47639
773.60 19.93943
773.70 20.48757
773.80 21.03891
773.90 21.56056
774.00 22.04817
774.10 22.51849
774.20 22.95976
774.30 23.32311
774.40 23.60093
774.50 23.84692
774.60 24.12437
774.70 24.44856
774.80 24.7855
774.90 25.04959
775.00 25.1574
775.10 25.12718
775.20 24.99691
775.30 24.74979
775.40 24.39897
775.50 24.04161
775.60 23.83989
775.70 23.94021
775.80 24.34857
775.90 24.96292
776.00 25.64379
776.10 26.25541
776.20 26.6871
776.30 26.89281
776.40 26.89141
776.50 26.69513
776.60 26.35949
776.70 26.08023
776.80 26.03721
776.90 26.26926
777.00 26.73616
777.10 27.30839
777.20 27.83528
777.30 28.22581
777.40 28.42901
777.50 28.43487
777.60 28.31414
777.70 28.1834
777.80 28.1391
777.90 28.23851
778.00 28.47738
778.10 28.7702
778.20 29.00738
778.30 29.10852
778.40 29.0258
778.50 28.75914
778.60 28.35689
778.70 27.94373
778.80 27.75174
778.90 27.9933
779.00 28.70695
779.10 29.75987
779.20 30.95575
779.30 32.02779
779.40 32.65099
779.50 32.55494
779.60 31.58771
779.70 29.75663
779.80 27.25891
779.90 24.53675
780.00 22.17963
780.10 20.65758
780.20 20.17225
780.30 20.74677
780.40 22.23331
780.50 24.3015
780.60 26.55929
780.70 28.69263
780.80 30.54236
780.90 32.04671
781.00 33.20172
781.10 34.05839
781.20 34.687
781.30 35.12227
781.40 35.37865
781.50 35.50869
781.60 35.62337
781.70 35.73288
781.80 35.80201
781.90 35.90213
782.00 36.07235
782.10 36.2687
782.20 36.42643
782.30 36.53723
782.40 36.63393
782.50 36.74732
782.60 36.90258
782.70 37.07297
782.80 37.18035
782.90 37.14782
783.00 36.9295
783.10 36.57188
783.20 36.15567
783.30 35.66153
783.40 35.0802
783.50 34.53422
783.60 34.16173
783.70 33.97936
783.80 33.94601
783.90 34.09227
784.00 34.45868
784.10 35.00324
784.20 35.66122
784.30 36.38334
784.40 37.08288
784.50 37.67449
784.60 38.17148
784.70 38.66719
784.80 39.22656
784.90 39.80457
785.00 40.34622
785.10 40.81456
785.20 41.13192
785.30 41.22394
785.40 41.0874
785.50 40.75078
785.60 40.19392
785.70 39.47392
785.80 38.75628
785.90 38.18248
786.00 37.8445
786.10 37.80297
786.20 38.05215
786.30 38.52669
786.40 39.14797
786.50 39.86196
786.60 40.59025
786.70 41.1543
786.80 41.36809
786.90 41.1956
787.00 40.74962
787.10 40.13344
787.20 39.37661
787.30 38.54381
787.40 37.74043
787.50 37.08277
787.60 36.73486
787.70 36.87841
787.80 37.58578
787.90 38.75902
788.00 40.22063
788.10 41.72755
788.20 43.00609
788.30 43.88311
788.40 44.33919
788.50 44.40306
788.60 44.13362
788.70 43.65007
788.80 43.1335
788.90 42.76123
789.00 42.59846
789.10 42.60566
789.20 42.67121
789.30 42.68377
789.40 42.598
789.50 42.45548
789.60 42.33367
789.70 42.27149
789.80 42.23955
789.90 42.18304
790.00 42.14989
790.10 42.28358
790.20 42.63289
790.30 43.14313
790.40 43.70899
790.50 44.16294
790.60 44.34917
790.70 44.27368
790.80 44.19331
790.90 44.40748
791.00 45.0466
791.10 46.00556
791.20 46.97074
791.30 47.69046
791.40 48.03215
791.50 47.9216
791.60 47.40863
791.70 46.60528
791.80 45.7093
791.90 45.04408
792.00 44.89919
792.10 45.33204
792.20 46.06085
792.30 46.67258
792.40 46.9051
792.50 46.73016
792.60 46.34554
792.70 45.99086
792.80 45.8591
792.90 46.04561
793.00 46.536
793.10 47.28368
793.20 48.16756
793.30 48.95602
793.40 49.44244
793.50 49.51771
793.60 49.17368
793.70 48.53699
793.80 47.79628
793.90 47.11812
794.00 46.5544
794.10 46.02687
794.20 45.3544
794.30 44.30908
794.40 42.7081
794.50 40.52438
794.60 37.92524
794.70 35.21719
794.80 32.79547
794.90 31.07473
795.00 30.41609
795.10 30.96794
795.20 32.55474
795.30 34.82338
795.40 37.45645
795.50 40.13101
795.60 42.53035
795.70 44.50245
795.80 46.05169
795.90 47.25521
796.00 48.24953
796.10 49.24186
796.20 50.33442
796.30 51.43494
796.40 52.35011
796.50 52.91131
796.60 53.07515
796.70 52.86165
796.80 52.3067
796.90 51.53411
797.00 50.73653
797.10 50.05744
797.20 49.58797
797.30 49.38914
797.40 49.47003
797.50 49.73078
797.60 50.04682
797.70 50.39827
797.80 50.7948
797.90 51.1796
798.00 51.45401
798.10 51.55119
798.20 51.41778
798.30 50.99662
798.40 50.30847
798.50 49.48512
798.60 48.7132
798.70 48.16491
798.80 47.96085
798.90 48.20403
799.00 48.99977
799.10 50.37423
799.20 52.1777
799.30 54.14037
799.40 56.00729
799.50 57.54233
799.60 58.51002
799.70 58.80888
799.80 58.52332
799.90 57.82766
800.00 56.908
800.10 55.98953
800.20 55.31016
800.30 54.97209
800.40 54.9133
800.50 54.99173
800.60 55.09162
800.70 55.15795
800.80 55.17089
800.90 55.16307
801.00 55.2305
801.10 55.42692
801.20 55.69075
801.30 55.91669
801.40 56.04446
801.50 56.03499
801.60 55.85504
801.70 55.5176
801.80 55.12452
801.90 54.8132
802.00 54.67924
802.10 54.81393
802.20 55.2522
802.30 55.95396
802.40 56.86166
802.50 57.9079
802.60 59.00785
802.70 60.07417
802.80 61.02801
802.90 61.78673
803.00 62.27923
803.10 62.46173
803.20 62.29244
803.30 61.77839
803.40 60.99765
803.50 60.03715
803.60 59.03657
803.70 58.15753
803.80 57.52945
803.90 57.25226
804.00 57.36468
804.10 57.83771
804.20 58.5828
804.30 59.47347
804.40 60.35266
804.50 61.13828
804.60 61.8591
804.70 62.50298
804.80 63.06316
804.90 63.55207
805.00 63.92938
805.10 64.17595
805.20 64.32568
805.30 64.44331
805.40 64.57595
805.50 64.7577
805.60 65.04069
805.70 65.59166
805.80 66.55129
805.90 67.76653
806.00 68.94822
806.10 69.88318
806.20 70.41316
806.30 70.50087
806.40 70.20042
806.50 69.55464
806.60 68.64553
806.70 67.62866
806.80 66.71699
806.90 66.12738
807.00 66.0191
807.10 66.33925
807.20 66.94282
807.30 67.83227
807.40 69.00688
807.50 70.37875
807.60 71.82386
807.70 73.14121
807.80 74.13854
807.90 74.77343
808.00 75.12734
808.10 75.31763
808.20 75.46058
808.30 75.59404
808.40 75.67501
808.50 75.67234
808.60 75.59026
808.70 75.43479
808.80 75.21249
808.90 74.96752
809.00 74.77062
809.10 74.70475
809.20 74.81747
809.30 75.04644
809.40 75.2483
809.50 75.24082
809.60 74.90174
809.70 74.26852
809.80 73.50607
809.90 72.79407
810.00 72.26708
810.10 72.0027
810.20 71.98487
810.30 72.1344
810.40 72.37599
810.50 72.68501
810.60 73.06751
810.70 73.53557
810.80 74.08381
810.90 74.69233
811.00 75.3223
811.10 75.91218
811.20 76.35189
811.30 76.53174
811.40 76.40442
811.50 76.0003
811.60 75.47444
811.70 75.01639
811.80 74.77599
811.90 74.83605
812.00 75.23668
812.10 75.95493
812.20 76.91496
812.30 78.05371
812.40 79.29918
812.50 80.54461
812.60 81.67125
812.70 82.55603
812.80 83.08684
812.90 83.24389
813.00 83.11009
813.10 82.81994
813.20 82.51895
813.30 82.34204
813.40 82.37971
813.50 82.68312
813.60 83.22499
813.70 83.86616
813.80 84.40521
813.90 84.68264
814.00 84.63758
814.10 84.30007
814.20 83.80817
814.30 83.30694
814.40 82.85556
814.50 82.49357
814.60 82.23879
814.70 82.03127
814.80 81.81116
814.90 81.57789
815.00 81.3763
815.10 81.26371
815.20 81.26037
815.30 81.38156
815.40 81.71265
815.50 82.35112
815.60 83.27513
815.70 84.3696
815.80 85.50129
815.90 86.53756
816.00 87.41821
816.10 88.14405
816.20 88.68396
816.30 89.03346
816.40 89.26396
816.50 89.49529
816.60 89.88407
816.70 90.49723
816.80 91.22661
816.90 91.8641
817.00 92.25918
817.10 92.39315
817.20 92.31791
817.30 92.05732
817.40 91.56989
817.50 90.84888
817.60 89.95179
817.70 88.85478
817.80 87.4069
817.90 85.41588
818.00 82.78512
818.10 79.63053
818.20 76.30143
818.30 73.34093
818.40 71.32392
818.50 70.64306
818.60 71.39636
818.70 73.38123
818.80 76.10515
818.90 78.87281
819.00 80.92668
819.10 81.61091
819.20 80.57121
819.30 77.94852
819.40 74.37617
819.50 70.72504
819.60 67.82036
819.70 66.23941
819.80 66.22483
819.90 67.65281
820.00 70.13885
820.10 73.23469
820.20 76.50205
820.30 79.54617
820.40 82.12482
820.50 84.23485
820.60 86.01593
820.70 87.51362
820.80 88.64605
820.90 89.36131
821.00 89.6652
821.10 89.61669
821.20 89.30348
821.30 88.8857
821.40 88.56504
821.50 88.43933
821.60 88.54043
821.70 88.87974
821.80 89.41536
821.90 90.02205
822.00 90.55098
822.10 90.98472
822.20 91.41149
822.30 91.89352
822.40 92.47935
822.50 93.22588
822.60 94.19361
822.70 95.35462
822.80 96.54733
822.90 97.58706
823.00 98.35798
823.10 98.79449
823.20 98.87549
823.30 98.67901
823.40 98.39046
823.50 98.18317
823.60 98.13967
823.70 98.31826
823.80 98.73446
823.90 99.30491
824.00 99.87225
824.10 100.3126
824.20 100.6283
824.30 100.8823
824.40 101.1041
824.50 101.382
824.60 101.8091
824.70 102.3655
824.80 102.9631
824.90 103.4999
825.00 103.8451
825.10 103.7802
825.20 103.163
825.30 102.0475
825.40 100.6116
825.50 99.11028
825.60 97.78426
825.70 96.84036
825.80 96.4745
825.90 96.73979
826.00 97.54794
826.10 98.73358
826.20 100.0432
826.30 101.1802
826.40 101.9013
826.50 102.1073
826.60 101.7989
826.70 101.0717
826.80 100.1484
826.90 99.29799
827.00 98.76221
827.10 98.61388
827.20 98.71922
827.30 98.98004
827.40 99.41713
827.50 100.0339
827.60 100.8068
827.70 101.8205
827.80 103.1935
827.90 104.8487
828.00 106.5422
828.10 107.9728
828.20 108.9001
828.30 109.2089
828.40 108.8944
828.50 108.0966
828.60 106.9555
828.70 105.4657
828.80 103.6761
828.90 101.8144
829.00 100.1003
829.10 98.56058
829.20 97.075
829.30 95.67078
829.40 94.57954
829.50 94.02226
829.60 93.92128
829.70 93.95019
829.80 93.87048
829.90 93.61347
830.00 93.30851
830.10 93.15335
830.20 93.17692
830.30 93.27531
830.40 93.3615
830.50 93.46865
830.60 93.79321
830.70 94.49925
830.80 95.54123
830.90 96.71152
831.00 97.92045
831.10 99.22981
831.20 100.6054
831.30 101.8857
831.40 102.8524
831.50 103.3864
831.60 103.5117
831.70 103.319
831.80 102.9339
831.90 102.4212
832.00 101.7584
832.10 100.9755
832.20 100.1498
832.30 99.3546
832.40 98.64061
832.50 98.02265
832.60 97.46433
832.70 96.95808
832.80 96.57014
832.90 96.34026
833.00 96.26158
833.10 96.30824
833.20 96.46747
833.30 96.7434
833.40 97.17209
833.50 97.75216
833.60 98.3665
833.70 98.90045
833.80 99.46584
833.90 100.3267
834.00 101.7134
834.10 103.6886
834.20 106.1392
834.30 108.7993
834.40 111.2742
834.50 113.2043
834.60 114.3392
834.70 114.5215
834.80 113.5837
834.90 111.5095
835.00 108.7561
835.10 106.0953
835.20 104.1126
835.30 103.0364
835.40 102.8124
835.50 103.2365
835.60 104.065
835.70 105.0278
835.80 105.8922
835.90 106.473
836.00 106.6954
836.10 106.6476
836.20 106.6183
836.30 106.9367
836.40 107.6742
836.50 108.6713
836.60 109.6757
836.70 110.4407
836.80 110.8182
836.90 110.7607
837.00 110.2675
837.10 109.4306
837.20 108.3952
837.30 107.3297
837.40 106.4038
837.50 105.7266
837.60 105.3633
837.70 105.3349
837.80 105.6047
837.90 106.0714
838.00 106.6073
838.10 107.0824
838.20 107.3774
838.30 107.3491
838.40 106.9448
838.50 106.3005
838.60 105.6236
838.70 105.0269
838.80 104.5433
838.90 104.1979
839.00 103.982
839.10 103.8477
839.20 103.7655
839.30 103.7506
839.40 103.8654
839.50 104.2254
839.60 105.0498
839.70 106.6013
839.80 108.8137
839.90 111.2589
840.00 113.5192
840.10 115.3283
840.20 116.5469
840.30 117.1309
840.40 117.0917
840.50 116.4828
840.60 115.4078
840.70 114.0399
840.80 112.6338
840.90 111.4232
841.00 110.495
841.10 109.8519
841.20 109.6011
841.30 109.8174
841.40 110.3473
841.50 111.0138
841.60 111.6932
841.70 112.2282
841.80 112.4331
841.90 112.2242
842.00 111.7435
842.10 111.2922
842.20 111.1604
842.30 111.6427
842.40 112.9434
842.50 115.0263
842.60 117.6972
842.70 120.6329
842.80 123.4587
842.90 125.7353
843.00 126.9506
843.10 126.7506
843.20 125.1187
843.30 122.3577
843.40 118.9215
843.50 115.2707
843.60 111.7621
843.70 108.5969
843.80 105.8962
843.90 103.7391
844.00 102.0843
844.10 100.8663
844.20 100.0586
844.30 99.61161
844.40 99.44556
844.50 99.45808
844.60 99.62927
844.70 100.0025
844.80 100.5525
844.90 101.1534
845.00 101.6292
845.10 101.797
845.20 101.539
845.30 100.8256
845.40 99.67763
845.50 98.14897
845.60 96.36089
845.70 94.57183
845.80 93.14629
845.90 92.39196
846.00 92.45357
846.10 93.28115
846.20 94.67863
846.30 96.37543
846.40 98.07174
846.50 99.48372
846.60 100.3428
846.70 100.4327
846.80 99.71558
846.90 98.36062
847.00 96.58065
847.10 94.53167
847.20 92.38275
847.30 90.40405
847.40 88.84664
847.50 87.81845
847.60 87.27439
847.70 87.04242
847.80 86.92751
847.90 86.79148
848.00 86.58625
848.10 86.33961
848.20 86.14557
848.30 86.11394
848.40 86.31537
848.50 86.75432
848.60 87.33169
848.70 87.92563
848.80 88.478
848.90 88.93139
849.00 89.23041
849.10 89.48461
849.20 89.91306
849.30 90.53993
849.40 91.1783
849.50 91.67853
849.60 91.94613
849.70 91.94611
849.80 91.76985
849.90 91.71449
850.00 92.222
850.10 93.53645
850.20 95.51005
850.30 97.76146
850.40 99.88627
850.50 101.4652
850.60 102.1325
850.70 101.7726
850.80 100.5171
850.90 98.66636
851.00 96.64223
851.10 94.81601
851.20 93.44291
851.30 92.58834
851.40 92.05713
851.50 91.50558
851.60 90.56004
851.70 88.9234
851.80 86.44341
851.90 83.16608
852.00 79.38771
852.10 75.62279
852.20 72.54982
852.30 70.85477
852.40 70.95641
852.50 72.86524
852.60 76.23481
852.70 80.43493
852.80 84.71853
852.90 88.50976
853.00 91.48692
853.10 93.51516
853.20 94.71023
853.30 95.41241
853.40 95.95636
853.50 96.55756
853.60 97.26517
853.70 97.91829
853.80 98.31356
853.90 98.41194
854.00 98.25126
854.10 97.88571
854.20 97.49026
854.30 97.31362
854.40 97.56565
854.50 98.42457
854.60 100.0022
854.70 102.2092
854.80 104.7715
854.90 107.3125
855.00 109.3931
855.10 110.611
855.20 110.7187
855.30 109.7141
855.40 107.8804
855.50 105.6451
855.60 103.34
855.70 101.1215
855.80 99.1488
855.90 97.62511
856.00 96.59705
856.10 95.98113
856.20 95.75096
856.30 95.94289
856.40 96.53588
856.50 97.39507
856.60 98.30266
856.70 99.00729
856.80 99.36118
856.90 99.38646
857.00 99.23232
857.10 99.11704
857.20 99.16168
857.30 99.35902
857.40 99.70854
857.50 100.1748
857.60 100.6134
857.70 100.8887
857.80 101.0473
857.90 101.2616
858.00 101.6636
858.10 102.3533
858.20 103.3544
858.30 104.5678
858.40 105.8245
858.50 106.9092
858.60 107.5986
858.70 107.7347
858.80 107.2797
858.90 106.3313
859.00 105.0702
859.10 103.7769
859.20 102.8073
859.30 102.5036
859.40 103.1363
859.50 104.7801
859.60 107.0876
859.70 109.4457
859.80 111.3736
859.90 112.5443
860.00 112.805
860.10 112.2224
860.20 111.0479
860.30 109.6451
860.40 108.356
860.50 107.3464
860.60 106.5338
860.70 105.6652
860.80 104.4538
860.90 102.6703
861.00 100.3026
861.10 97.46807
861.20 94.14394
861.30 90.35645
861.40 86.38129
861.50 82.62996
861.60 79.45117
861.70 76.99982
861.80 75.26271
861.90 74.16301
862.00 73.57557
862.10 73.32912
862.20 73.24507
862.30 73.17206
862.40 73.04916
862.50 72.91756
862.60 72.87637
862.70 72.99669
862.80 73.18368
862.90 73.28385
863.00 73.22865
863.10 73.07425
863.20 73.00195
863.30 73.11178
863.40 73.3673
863.50 73.71133
863.60 74.09556
863.70 74.41868
863.80 74.53369
863.90 74.43359
864.00 74.33078
864.10 74.40361
864.20 74.6812
864.30 75.08779
864.40 75.47037
864.50 75.72017
864.60 75.81393
864.70 75.87074
864.80 76.13997
864.90 76.86171
865.00 78.19141
865.10 80.15097
865.20 82.59538
865.30 85.04176
865.40 86.83069
865.50 87.60145
865.60 87.51111
865.70 87.01101
865.80 86.53231
865.90 86.36235
866.00 86.66535
866.10 87.51553
866.20 88.80373
866.30 90.25408
866.40 91.49576
866.50 92.2404
866.60 92.41865
866.70 92.24269
866.80 91.95874
866.90 91.60319
867.00 91.00622
867.10 90.0357
867.20 88.8765
867.30 87.84289
867.40 87.16297
867.50 86.99568
867.60 87.44545
867.70 88.43516
867.80 89.70037
867.90 90.84684
868.00 91.46754
868.10 91.3255
868.20 90.46503
868.30 89.19638
868.40 87.96046
868.50 87.06461
868.60 86.49605
868.70 86.06752
868.80 85.503
868.90 84.43955
869.00 82.56657
869.10 79.79562
869.20 76.30519
869.30 72.56455
869.40 69.17171
869.50 66.58934
869.60 65.07423
869.70 64.67288
869.80 65.24722
869.90 66.51331
870.00 68.08422
870.10 69.58014
870.20 70.75946
870.30 71.47326
870.40 71.65151
870.50 71.34892
870.60 70.69072
870.70 69.72486
870.80 68.39725
870.90 66.72479
871.00 64.87075
871.10 63.13957
871.20 61.87772
871.30 61.28521
871.40 61.35771
871.50 61.99312
871.60 63.03978
871.70 64.22771
871.80 65.20572
871.90 65.7304
872.00 65.77228
872.10 65.44268
872.20 64.9925
872.30 64.79096
872.40 65.19754
872.50 66.32811
872.60 67.98647
872.70 69.86667
872.80 71.68423
872.90 73.17627
873.00 74.14635
873.10 74.58087
873.20 74.56192
873.30 74.18302
873.40 73.58428
873.50 72.99279
873.60 72.65044
873.70 72.67968
873.80 73.0762
873.90 73.88473
874.00 75.18488
874.10 76.88833
874.20 78.69119
874.30 80.22341
874.40 81.20476
874.50 81.42816
874.60 80.88562
874.70 79.79904
874.80 78.46259
874.90 77.21256
875.00 76.38522
875.10 76.17386
875.20 76.52053
875.30 77.24976
875.40 78.25096
875.50 79.54206
875.60 81.28329
875.70 83.49455
875.80 85.88934
875.90 88.16282
876.00 90.09804
876.10 91.44296
876.20 91.94808
876.30 91.60441
876.40 90.70579
876.50 89.79605
876.60 89.5474
876.70 90.40801
876.80 92.45041
876.90 95.45522
877.00 98.99452
877.10 102.5841
877.20 105.7719
877.30 108.2115
877.40 109.8529
877.50 110.8175
877.60 111.0006
877.70 110.1886
877.80 108.3529
877.90 105.609
878.00 102.2177
878.10 98.54808
878.20 95.00231
878.30 91.94557
878.40 89.59047
878.50 88.06623
878.60 87.59532
878.70 88.31317
878.80 89.97442
878.90 92.11692
879.00 94.47879
879.10 96.88461
879.20 99.11042
879.30 100.9113
879.40 102.0063
879.50 102.2209
879.60 101.4845
879.70 99.85368
879.80 97.55842
879.90 94.9232
880.00 92.22841
880.10 89.69267
880.20 87.48847
880.30 85.77895
880.40 84.77083
880.50 84.54391
880.60 84.89463
880.70 85.57726
880.80 86.51087
880.90 87.75296
881.00 89.44117
881.10 91.70379
881.20 94.61479
881.30 98.1586
881.40 102.1611
881.50 106.3363
881.60 110.3601
881.70 113.8996
881.80 116.6115
881.90 118.1057
882.00 118.2284
882.10 117.2162
882.20 115.499
882.30 113.5937
882.40 111.9806
882.50 111.0864
882.60 111.3076
882.70 112.7925
882.80 115.2772
882.90 118.0814
883.00 120.4001
883.10 121.6039
883.20 121.4749
883.30 120.5296
883.40 119.5086
883.50 118.8523
883.60 118.8024
883.70 119.3978
883.80 120.5567
883.90 121.9492
884.00 122.856
884.10 122.4876
884.20 120.3583
884.30 116.5438
884.40 111.5963
884.50 106.3525
884.60 101.7054
884.70 98.35378
884.80 96.85105
884.90 97.53905
885.00 100.3687
885.10 104.8309
885.20 110.0022
885.30 114.787
885.40 118.2244
885.50 119.7689
885.60 119.3726
885.70 117.3066
885.80 114.0489
885.90 110.287
886.00 106.836
886.10 104.3051
886.20 102.9624
886.30 102.8637
886.40 103.8292
886.50 105.4526
886.60 107.1745
886.70 108.346
886.80 108.385
886.90 106.9712
887.00 104.1591
887.10 100.4308
887.20 96.61111
887.30 93.57967
887.40 92.01814
887.50 92.31326
887.60 94.51421
887.70 98.24313
887.80 102.7124
887.90 107.0787
888.00 110.8335
888.10 113.7495
888.20 115.8518
888.30 117.3836
888.40 118.7069
888.50 120.2213
888.60 122.2022
888.70 124.635
888.80 127.1008
888.90 128.9397
889.00 129.5138
889.10 128.3775
889.20 125.3727
889.30 120.6408
889.40 114.5423
889.50 107.8581
889.60 101.7471
889.70 97.29671
889.80 95.28031
889.90 95.90566
890.00 98.68435
890.10 102.7595
890.20 107.3009
890.30 111.614
890.40 115.0274
890.50 116.9962
890.60 117.3427
890.70 116.2319
890.80 114.1323
890.90 111.7133
891.00 109.6491
891.10 108.5243
891.20 108.518
891.30 109.4996
891.40 111.3521
891.50 113.9626
891.60 117.1244
891.70 120.5179
891.80 123.8386
891.90 126.814
892.00 129.1728
892.10 130.6766
892.20 131.1486
892.30 130.5199
892.40 128.7798
892.50 125.9491
892.60 122.3441
892.70 118.5531
892.80 115.2772
892.90 113.1918
893.00 112.767
893.10 114.1462
893.20 117.0271
893.30 120.7338
893.40 124.4477
893.50 127.3617
893.60 128.7588
893.70 128.0569
893.80 125.0439
893.90 120.1076
894.00 114.0327
894.10 107.6621
894.20 101.7147
894.30 96.84922
894.40 93.64125
894.50 92.25428
894.60 92.46053
894.70 93.9431
894.80 96.3214
894.90 99.15608
895.00 102.1129
895.10 105.1595
895.20 108.4799
895.30 112.3194
895.40 116.9015
895.50 122.2383
895.60 127.9725
895.70 133.386
895.80 137.6759
895.90 140.3162
896.00 141.1663
896.10 140.2028
896.20 137.4648
896.30 133.3345
896.40 128.5479
896.50 123.9099
896.60 120.0226
896.70 117.1654
896.80 115.4305
896.90 114.8631
897.00 115.4218
897.10 116.9079
897.20 118.9831
897.30 121.282
897.40 123.3788
897.50 124.9218
897.60 125.8398
897.70 126.2005
897.80 126.0586
897.90 125.5635
898.00 125.0246
898.10 124.7892
898.20 125.1269
898.30 126.2416
898.40 128.3436
898.50 131.4349
898.60 135.0296
898.70 138.3942
898.80 140.8421
898.90 141.9983
899.00 141.9051
899.10 140.8383
899.20 139.1603
899.30 137.1241
899.40 134.9063
899.50 132.724
899.60 130.6561
899.70 128.7552
899.80 127.1725
899.90 126.1282
900.00 126.8197
900.10 127.5112
900.20 128.2027
900.30 128.8942
900.40 129.5856
900.50 130.2771
900.60 130.9686
900.70 131.6601
900.80 132.3516
900.90 133.043
901.00 133.7345
901.10 134.426
901.20 135.1175
901.30 135.8089
901.40 136.5004
901.50 137.1919
901.60 137.8834
901.70 138.5749
901.80 139.2663
901.90 139.9578
902.00 140.6493
902.10 141.3408
902.20 142.0322
902.30 142.7237
902.40 143.4152
902.50 144.1067
902.60 144.7982
902.70 145.4896
902.80 146.1811
902.90 146.8726
903.00 147.5641
903.10 148.2555
903.20 148.3939
903.30 148.5267
903.40 148.6594
903.50 148.7922
903.60 148.925
903.70 149.0577
903.80 149.1905
903.90 149.3233
904.00 149.456
904.10 149.5888
904.20 149.7216
904.30 149.8543
904.40 149.9871
904.50 150.1199
904.60 150.2526
904.70 150.3854
904.80 150.5182
904.90 150.6509
905.00 150.7837
905.10 150.9165
905.20 151.0492
905.30 151.182
905.40 151.3148
905.50 151.4475
905.60 151.5803
905.70 151.7131
905.80 151.8458
905.90 151.9786
906.00 152.1114
906.10 152.2441
906.20 152.3769
906.30 152.5097
906.40 152.6424
906.50 152.7752
906.60 152.962
906.70 153.1719
906.80 153.3818
906.90 153.5917
907.00 153.8016
907.10 154.0116
907.20 154.2215
907.30 154.4314
907.40 154.6413
907.50 154.8512
907.60 155.0612
907.70 155.2711
907.80 155.481
907.90 155.6909
908.00 155.9008
908.10 156.1108
908.20 156.3207
908.30 156.5306
908.40 156.7405
908.50 156.9504
908.60 157.1603
908.70 157.3703
908.80 157.5802
908.90 157.7901
909.00 158
909.10 158.2099
909.20 158.4199
909.30 158.6298
909.40 158.8397
909.50 159.0496
909.60 159.2595
909.70 159.4695
909.80 159.6794
909.90 159.8893
910.00 160.0805
910.10 160.2088
910.20 160.3372
910.30 160.4655
910.40 160.5939
910.50 160.7223
910.60 160.8506
910.70 160.979
910.80 161.1073
910.90 161.2357
911.00 161.3641
911.10 161.4924
911.20 161.6208
911.30 161.7492
911.40 161.8775
911.50 162.0059
911.60 162.1342
911.70 162.2626
911.80 162.391
911.90 162.5193
912.00 162.6477
912.10 162.776
912.20 162.9044
912.30 163.0328
912.40 163.1611
912.50 163.2895
912.60 163.4178
912.70 163.5462
912.80 163.6746
912.90 163.8029
913.00 163.9313
913.10 164.0597
913.20 164.188
913.30 164.3164
913.40 164.4447
913.50 164.6626
913.60 164.948
913.70 165.2334
913.80 165.5188
913.90 165.8042
914.00 166.0896
914.10 166.375
914.20 166.6604
914.30 166.9458
914.40 167.2313
914.50 167.5167
914.60 167.8021
914.70 168.0875
914.80 168.3729
914.90 168.6583
915.00 168.9437
915.10 169.2291
915.20 169.5145
915.30 169.7999
915.40 170.0853
915.50 170.3707
915.60 170.6561
915.70 170.9415
915.80 171.2269
915.90 171.5123
916.00 171.7977
916.10 172.0831
916.20 172.3685
916.30 172.6539
916.40 172.9393
916.50 173.2247
916.60 173.5101
916.70 173.7955
916.80 174.0809
916.90 174.3663
917.00 174.5518
917.10 174.7021
917.20 174.8524
917.30 175.0027
917.40 175.153
917.50 175.3033
917.60 175.4536
917.70 175.6039
917.80 175.7542
917.90 175.9045
918.00 176.0548
918.10 176.2051
918.20 176.3554
918.30 176.5057
918.40 176.656
918.50 176.8063
918.60 176.9566
918.70 177.1069
918.80 177.2572
918.90 177.4075
919.00 177.5578
919.10 177.7081
919.20 177.8584
919.30 178.0087
919.40 178.159
919.50 178.3093
919.60 178.4596
919.70 178.6099
919.80 178.7602
919.90 178.9105
920.00 179.0608
920.10 179.2111
920.20 179.3614
920.30 179.5117
920.40 179.662
920.50 179.8502
920.60 180.0518
920.70 180.2534
920.80 180.455
920.90 180.6566
921.00 180.8581
921.10 181.0597
921.20 181.2613
921.30 181.4629
921.40 181.6644
921.50 181.866
921.60 182.0676
921.70 182.2692
921.80 182.4707
921.90 182.6723
922.00 182.8739
922.10 183.0755
922.20 183.277
922.30 183.4786
922.40 183.6802
922.50 183.8818
922.60 184.0833
922.70 184.2849
922.80 184.4865
922.90 184.6881
923.00 184.8896
923.10 185.0912
923.20 185.2928
923.30 185.4944
923.40 185.6959
923.50 185.8975
923.60 186.0991
923.70 186.3007
923.80 186.5022
923.90 186.7038
924.00 186.6854
924.10 186.4942
924.20 186.303
924.30 186.1118
924.40 185.9205
924.50 185.7293
924.60 185.5381
924.70 185.3469
924.80 185.1557
924.90 184.9644
925.00 184.7732
925.10 184.582
925.20 184.3908
925.30 184.1996
925.40 184.0083
925.50 183.8171
925.60 183.6259
925.70 183.4347
925.80 183.2434
925.90 183.0522
926.00 182.861
926.10 182.6698
926.20 182.4786
926.30 182.2873
926.40 182.0961
926.50 181.9049
926.60 181.7137
926.70 181.5225
926.80 181.3312
926.90 181.14
927.00 180.9488
927.10 180.7576
927.20 180.5663
927.30 180.3751
927.40 180.1839
927.50 179.9902
927.60 179.7868
927.70 179.5833
927.80 179.3798
927.90 179.1764
928.00 178.9729
928.10 178.7694
928.20 178.5659
928.30 178.3625
928.40 178.159
928.50 177.9555
928.60 177.7521
928.70 177.5486
928.80 177.3451
928.90 177.1417
929.00 176.9382
929.10 176.7347
929.20 176.5312
929.30 176.3278
929.40 176.1243
929.50 175.9208
929.60 175.7174
929.70 175.5139
929.80 175.3104
929.90 175.107
930.00 174.9035
930.10 174.7
930.20 174.4966
930.30 174.2931
930.40 174.0896
930.50 173.8861
930.60 173.6827
930.70 173.4792
930.80 173.2757
930.90 173.0723
931.00 172.8688
931.10 173.0632
931.20 173.4535
931.30 173.8438
931.40 174.2341
931.50 174.6245
931.60 175.0148
931.70 175.4051
931.80 175.7954
931.90 176.1857
932.00 176.5761
932.10 176.9664
932.20 177.3567
932.30 177.747
932.40 178.1373
932.50 178.5277
932.60 178.918
932.70 179.3083
932.80 179.6986
932.90 180.089
933.00 180.4793
933.10 180.8696
933.20 181.2599
933.30 181.6502
933.40 182.0406
933.50 182.4309
933.60 182.8212
933.70 183.2115
933.80 183.6018
933.90 183.9922
934.00 184.3825
934.10 184.7728
934.20 185.1631
934.30 185.5535
934.40 185.9438
934.50 186.3341
934.60 186.7244
934.70 187.0118
934.80 187.2959
934.90 187.5801
935.00 187.8643
935.10 188.1484
935.20 188.4326
935.30 188.7168
935.40 189.0009
935.50 189.2851
935.60 189.5693
935.70 189.8534
935.80 190.1376
935.90 190.4218
936.00 190.7059
936.10 190.9901
936.20 191.2743
936.30 191.5584
936.40 191.8426
936.50 192.1268
936.60 192.4109
936.70 192.6951
936.80 192.9793
936.90 193.2634
937.00 193.5476
937.10 193.8318
937.20 194.1159
937.30 194.4001
937.40 194.6843
937.50 194.9684
937.60 195.2526
937.70 195.5368
937.80 195.8209
937.90 196.1051
938.00 196.3893
938.10 196.6734
938.20 196.9275
938.30 196.9109
938.40 196.8944
938.50 196.8778
938.60 196.8612
938.70 196.8446
938.80 196.828
938.90 196.8114
939.00 196.7948
939.10 196.7782
939.20 196.7616
939.30 196.745
939.40 196.7284
939.50 196.7119
939.60 196.6953
939.70 196.6787
939.80 196.6621
939.90 196.6455
940.00 196.6289
940.10 196.6123
940.20 196.5957
940.30 196.5791
940.40 196.5625
940.50 196.5459
940.60 196.5294
940.70 196.5128
940.80 196.4962
940.90 196.4796
941.00 196.463
941.10 196.4464
941.20 196.4298
941.30 196.4132
941.40 196.3966
941.50 196.38
941.60 196.3634
941.70 196.3469
941.80 196.3403
941.90 196.4669
942.00 196.5936
942.10 196.7202
942.20 196.8468
942.30 196.9735
942.40 197.1001
942.50 197.2267
942.60 197.3534
942.70 197.48
942.80 197.6067
942.90 197.7333
943.00 197.8599
943.10 197.9866
943.20 198.1132
943.30 198.2398
943.40 198.3665
943.50 198.4931
943.60 198.6198
943.70 198.7464
943.80 198.873
943.90 198.9997
944.00 199.1263
944.10 199.2529
944.20 199.3796
944.30 199.5062
944.40 199.6329
944.50 199.7595
944.60 199.8861
944.70 200.0128
944.80 200.1394
944.90 200.266
945.00 200.3927
945.10 200.5193
945.20 200.6459
945.30 200.7726
945.40 200.8992
945.50 201.122
945.60 201.359
945.70 201.5961
945.80 201.8332
945.90 202.0703
946.00 202.3074
946.10 202.5445
946.20 202.7816
946.30 203.0187
946.40 203.2558
946.50 203.4929
946.60 203.73
946.70 203.9671
946.80 204.2042
946.90 204.4413
947.00 204.6784
947.10 204.9154
947.20 205.1525
947.30 205.3896
947.40 205.6267
947.50 205.8638
947.60 206.1009
947.70 206.338
947.80 206.5751
947.90 206.8122
948.00 207.0493
948.10 207.2864
948.20 207.5235
948.30 207.7606
948.40 207.9977
948.50 208.2348
948.60 208.4718
948.70 208.7089
948.80 208.946
948.90 209.1831
949.00 209.4202
949.10 209.6832
949.20 209.9722
949.30 210.2612
949.40 210.5501
949.50 210.8391
949.60 211.128
949.70 211.417
949.80 211.706
949.90 211.9949
950.00 212.2839
950.10 212.5728
950.20 212.8618
950.30 213.1508
950.40 213.4397
950.50 213.7287
950.60 214.0176
950.70 214.3066
950.80 214.5956
950.90 214.8845
951.00 215.1735
951.10 215.4624
951.20 215.7514
951.30 216.0404
951.40 216.3293
951.50 216.6183
951.60 216.9072
951.70 217.1962
951.80 217.4852
951.90 217.7741
952.00 218.0631
952.10 218.352
952.20 218.641
952.30 218.93
952.40 219.2189
952.50 219.5079
952.60 219.7968
952.70 220.0858
952.80 220.1276
952.90 220.1617
953.00 220.1958
953.10 220.2299
953.20 220.264
953.30 220.2981
953.40 220.3322
953.50 220.3663
953.60 220.4005
953.70 220.4346
953.80 220.4687
953.90 220.5028
954.00 220.5369
954.10 220.571
954.20 220.6051
954.30 220.6392
954.40 220.6734
954.50 220.7075
954.60 220.7416
954.70 220.7757
954.80 220.8098
954.90 220.8439
955.00 220.878
955.10 220.9121
955.20 220.9462
955.30 220.9804
955.40 221.0145
955.50 221.0486
955.60 221.0827
955.70 221.1168
955.80 221.1509
955.90 221.185
956.00 221.2191
956.10 221.2533
956.20 221.2874
956.30 221.3215
956.40 221.3585
956.50 221.4032
956.60 221.4479
956.70 221.4926
956.80 221.5373
956.90 221.582
957.00 221.6267
957.10 221.6714
957.20 221.7161
957.30 221.7608
957.40 221.8055
957.50 221.8502
957.60 221.8949
957.70 221.9396
957.80 221.9843
957.90 222.029
958.00 222.0737
958.10 222.1184
958.20 222.1631
958.30 222.2077
958.40 222.2524
958.50 222.2971
958.60 222.3418
958.70 222.3865
958.80 222.4312
958.90 222.4759
959.00 222.5206
959.10 222.5653
959.20 222.61
959.30 222.6547
959.40 222.6994
959.50 222.7441
959.60 222.7888
959.70 222.8335
959.80 222.8782
959.90 222.9229
960.00 222.9676
960.10 222.9408
960.20 222.8192
960.30 222.6976
960.40 222.576
960.50 222.4544
960.60 222.3328
960.70 222.2112
960.80 222.0897
960.90 221.9681
961.00 221.8465
961.10 221.7249
961.20 221.6033
961.30 221.4817
961.40 221.3601
961.50 221.2386
961.60 221.117
961.70 220.9954
961.80 220.8738
961.90 220.7522
962.00 220.6306
962.10 220.5091
962.20 220.3875
962.30 220.2659
962.40 220.1443
962.50 220.0227
962.60 219.9011
962.70 219.7795
962.80 219.658
962.90 219.5364
963.00 219.4148
963.10 219.2932
963.20 219.1716
963.30 219.05
963.40 218.9284
963.50 218.8069
963.60 218.6853
963.70 218.5637
963.80 218.6014
963.90 218.8589
964.00 219.1165
964.10 219.3741
964.20 219.6317
964.30 219.8893
964.40 220.1469
964.50 220.4045
964.60 220.6621
964.70 220.9197
964.80 221.1773
964.90 221.4349
965.00 221.6924
965.10 221.95
965.20 222.2076
965.30 222.4652
965.40 222.7228
965.50 222.9804
965.60 223.238
965.70 223.4956
965.80 223.7532
965.90 224.0108
966.00 224.2684
966.10 224.5259
966.20 224.7835
966.30 225.0411
966.40 225.2987
966.50 225.5563
966.60 225.8139
966.70 226.0715
966.80 226.3291
966.90 226.5867
967.00 226.8443
967.10 227.1019
967.20 227.3594
967.30 227.617
967.40 227.8746
967.50 228.0827
967.60 228.1499
967.70 228.217
967.80 228.2842
967.90 228.3513
968.00 228.4185
968.10 228.4856
968.20 228.5528
968.30 228.6199
968.40 228.6871
968.50 228.7542
968.60 228.8214
968.70 228.8885
968.80 228.9557
968.90 229.0228
969.00 229.09
969.10 229.1571
969.20 229.2243
969.30 229.2914
969.40 229.3586
969.50 229.4257
969.60 229.4929
969.70 229.56
969.80 229.6272
969.90 229.6943
970.00 229.7615
970.10 229.8286
970.20 229.8958
970.30 229.9629
970.40 230.0301
970.50 230.0972
970.60 230.1644
970.70 230.2315
970.80 230.2987
970.90 230.3658
971.00 230.433
971.10 230.5001
971.20 230.5673
971.30 230.783
971.40 231.0082
971.50 231.2333
971.60 231.4585
971.70 231.6837
971.80 231.9089
971.90 232.134
972.00 232.3592
972.10 232.5844
972.20 232.8096
972.30 233.0347
972.40 233.2599
972.50 233.4851
972.60 233.7103
972.70 233.9354
972.80 234.1606
972.90 234.3858
973.00 234.611
973.10 234.8361
973.20 235.0613
973.30 235.2865
973.40 235.5117
973.50 235.7368
973.60 235.962
973.70 236.1872
973.80 236.4124
973.90 236.6376
974.00 236.8627
974.10 237.0879
974.20 237.3131
974.30 237.5383
974.40 237.7634
974.50 237.9886
974.60 238.2138
974.70 238.439
974.80 238.6641
974.90 238.8893
975.00 239.1935
975.10 239.5868
975.20 239.98
975.30 240.3733
975.40 240.7666
975.50 241.1598
975.60 241.5531
975.70 241.9463
975.80 242.3396
975.90 242.7329
976.00 243.1261
976.10 243.5194
976.20 243.9127
976.30 244.3059
976.40 244.6992
976.50 245.0925
976.60 245.4857
976.70 245.879
976.80 246.2723
976.90 246.6655
977.00 247.0588
977.10 247.4521
977.20 247.8453
977.30 248.2386
977.40 248.6319
977.50 249.0251
977.60 249.4184
977.70 249.8117
977.80 250.2049
977.90 250.5982
978.00 250.9915
978.10 251.3847
978.20 251.778
978.30 252.1712
978.40 252.5645
978.50 252.9578
978.60 253.351
978.70 253.7443
978.80 253.7387
978.90 253.6628
979.00 253.5868
979.10 253.5108
979.20 253.4348
979.30 253.3589
979.40 253.2829
979.50 253.2069
979.60 253.131
979.70 253.055
979.80 252.979
979.90 252.903
980.00 252.8271
980.10 252.7511
980.20 252.6751
980.30 252.5992
980.40 252.5232
980.50 252.4472
980.60 252.3712
980.70 252.2953
980.80 252.2193
980.90 252.1433
981.00 252.0673
981.10 251.9914
981.20 251.9154
981.30 251.8394
981.40 251.7635
981.50 251.6875
981.60 251.6115
981.70 251.5355
981.80 251.4596
981.90 251.3836
982.00 251.3076
982.10 251.2317
982.20 251.1557
982.30 251.0797
982.40 251.0037
982.50 250.8947
982.60 250.405
982.70 249.9153
982.80 249.4257
982.90 248.936
983.00 248.4463
983.10 247.9566
983.20 247.467
983.30 246.9773
983.40 246.4876
983.50 245.9979
983.60 245.5082
983.70 245.0186
983.80 244.5289
983.90 244.0392
984.00 243.5495
984.10 243.0599
984.20 242.5702
984.30 242.0805
984.40 241.5908
984.50 241.1012
984.60 240.6115
984.70 240.1218
984.80 239.6321
984.90 239.1425
985.00 238.6528
985.10 238.1631
985.20 237.6734
985.30 237.1838
985.40 236.6941
985.50 236.2044
985.60 235.7147
985.70 235.2251
985.80 234.7354
985.90 234.2457
986.00 233.756
986.10 233.2664
986.20 232.7767
986.30 232.2691
986.40 231.6676
986.50 231.0661
986.60 230.4646
986.70 229.8631
986.80 229.2615
986.90 228.66
987.00 228.0585
987.10 227.457
987.20 226.8555
987.30 226.254
987.40 225.6525
987.50 225.0509
987.60 224.4494
987.70 223.8479
987.80 223.2464
987.90 222.6449
988.00 222.0434
988.10 221.4418
988.20 220.8403
988.30 220.2388
988.40 219.6373
988.50 219.0358
988.60 218.4343
988.70 217.8328
988.80 217.2312
988.90 216.6297
989.00 216.0282
989.10 215.4267
989.20 214.8252
989.30 214.2237
989.40 213.6221
989.50 213.0206
989.60 212.4191
989.70 211.8176
989.80 211.2161
989.90 210.6146
990.00 210.0131
990.10 209.4203
990.20 208.9067
990.30 208.393
990.40 207.8793
990.50 207.3657
990.60 206.852
990.70 206.3383
990.80 205.8246
990.90 205.311
991.00 204.7973
991.10 204.2836
991.20 203.77
991.30 203.2563
991.40 202.7426
991.50 202.229
991.60 201.7153
991.70 201.2016
991.80 200.688
991.90 200.1743
992.00 199.6606
992.10 199.147
992.20 198.6333
992.30 198.1196
992.40 197.6059
992.50 197.0923
992.60 196.5786
992.70 196.0649
992.80 195.5513
992.90 195.0376
993.00 194.5239
993.10 194.0103
993.20 193.4966
993.30 192.9829
993.40 192.4693
993.50 191.9556
993.60 191.4419
993.70 190.9283
993.80 190.4146
993.90 189.9009
994.00 189.5399
994.10 189.1958
994.20 188.8517
994.30 188.5076
994.40 188.1635
994.50 187.8195
994.60 187.4754
994.70 187.1313
994.80 186.7872
994.90 186.4431
995.00 186.0991
995.10 185.755
995.20 185.4109
995.30 185.0668
995.40 184.7227
995.50 184.3786
995.60 184.0346
995.70 183.6905
995.80 183.3464
995.90 183.0023
996.00 182.6582
996.10 182.3142
996.20 181.9701
996.30 181.626
996.40 181.2819
996.50 180.9378
996.60 180.5937
996.70 180.2497
996.80 179.9056
996.90 179.5615
997.00 179.2174
997.10 178.8733
997.20 178.5292
997.30 178.1852
997.40 177.8411
997.50 177.497
997.60 177.1529
997.70 176.8088
997.80 176.7811
997.90 177.0121
998.00 177.2431
998.10 177.4741
998.20 177.7052
998.30 177.9362
998.40 178.1672
998.50 178.3982
998.60 178.6293
998.70 178.8603
998.80 179.0913
998.90 179.3223
999.00 179.5534
999.10 179.7844
999.20 180.0154
999.30 180.2464
999.40 180.4775
999.50 180.7085
999.60 180.9395
999.70 181.1705
999.80 181.4016
999.90 181.6326
1000.00 181.8636
1000.10 182.0946
1000.20 182.3257
1000.30 182.5567
1000.40 182.7877
1000.50 183.0187
1000.60 183.2498
1000.70 183.4808
1000.80 183.7118
1000.90 183.9428
1001.00 184.1739
1001.10 184.4049
1001.20 184.6359
1001.30 184.8669
1001.40 185.098
1001.50 185.329
1001.60 185.5603
1001.70 185.7937
1001.80 186.0272
1001.90 186.2607
1002.00 186.4942
1002.10 186.7276
1002.20 186.9611
1002.30 187.1946
1002.40 187.4281
1002.50 187.6615
1002.60 187.895
1002.70 188.1285
1002.80 188.3619
1002.90 188.5954
1003.00 188.8289
1003.10 189.0624
1003.20 189.2958
1003.30 189.5293
1003.40 189.7628
1003.50 189.9963
1003.60 190.2297
1003.70 190.4632
1003.80 190.6967
1003.90 190.9302
1004.00 191.1636
1004.10 191.3971
1004.20 191.6306
1004.30 191.8641
1004.40 192.0975
1004.50 192.331
1004.60 192.5645
1004.70 192.798
1004.80 193.0314
1004.90 193.2649
1005.00 193.4984
1005.10 193.7319
1005.20 193.9653
1005.30 194.1988
1005.40 194.4323
1005.50 194.7476
1005.60 195.1855
1005.70 195.6235
1005.80 196.0615
1005.90 196.4995
1006.00 196.9374
1006.10 197.3754
1006.20 197.8134
1006.30 198.2513
1006.40 198.6893
1006.50 199.1273
1006.60 199.5653
1006.70 200.0032
1006.80 200.4412
1006.90 200.8792
1007.00 201.3171
1007.10 201.7551
1007.20 202.1931
1007.30 202.6311
1007.40 203.069
1007.50 203.507
1007.60 203.945
1007.70 204.3829
1007.80 204.8209
1007.90 205.2589
1008.00 205.6969
1008.10 206.1348
1008.20 206.5728
1008.30 207.0108
1008.40 207.4487
1008.50 207.8867
1008.60 208.3247
1008.70 208.7627
1008.80 209.2006
1008.90 209.6386
1009.00 210.0766
1009.10 210.5145
1009.20 210.9525
1009.30 211.3905
1009.40 211.6527
1009.50 211.8396
1009.60 212.0264
1009.70 212.2133
1009.80 212.4001
1009.90 212.587
1010.00 212.7739
1010.10 212.9607
1010.20 213.1476
1010.30 213.3345
1010.40 213.5213
1010.50 213.7082
1010.60 213.8951
1010.70 214.0819
1010.80 214.2688
1010.90 214.4557
1011.00 214.6425
1011.10 214.8294
1011.20 215.0163
1011.30 215.2031
1011.40 215.39
1011.50 215.5769
1011.60 215.7637
1011.70 215.9506
1011.80 216.1375
1011.90 216.3243
1012.00 216.5112
1012.10 216.6981
1012.20 216.8849
1012.30 217.0718
1012.40 217.2587
1012.50 217.4455
1012.60 217.6324
1012.70 217.8192
1012.80 218.0061
1012.90 218.193
1013.00 218.3798
1013.10 218.5667
1013.20 218.7536
1013.30 218.7825
1013.40 218.7719
1013.50 218.7614
1013.60 218.7508
1013.70 218.7402
1013.80 218.7297
1013.90 218.7191
1014.00 218.7085
1014.10 218.698
1014.20 218.6874
1014.30 218.6769
1014.40 218.6663
1014.50 218.6557
1014.60 218.6452
1014.70 218.6346
1014.80 218.624
1014.90 218.6135
1015.00 218.6029
1015.10 218.5923
1015.20 218.5818
1015.30 218.5712
1015.40 218.5606
1015.50 218.5501
1015.60 218.5395
1015.70 218.5289
1015.80 218.5184
1015.90 218.5078
1016.00 218.4972
1016.10 218.4867
1016.20 218.4761
1016.30 218.4656
1016.40 218.455
1016.50 218.4444
1016.60 218.4339
1016.70 218.4233
1016.80 218.4127
1016.90 218.4022
1017.00 218.3916
1017.10 218.381
1017.20 218.5258
1017.30 218.7095
1017.40 218.8931
1017.50 219.0767
1017.60 219.2603
1017.70 219.444
1017.80 219.6276
1017.90 219.8112
1018.00 219.9949
1018.10 220.1785
1018.20 220.3621
1018.30 220.5458
1018.40 220.7294
1018.50 220.913
1018.60 221.0967
1018.70 221.2803
1018.80 221.4639
1018.90 221.6475
1019.00 221.8312
1019.10 222.0148
1019.20 222.1984
1019.30 222.3821
1019.40 222.5657
1019.50 222.7493
1019.60 222.933
1019.70 223.1166
1019.80 223.3002
1019.90 223.4838
1020.00 223.6675
1020.10 223.8511
1020.20 224.0347
1020.30 224.2184
1020.40 224.402
1020.50 224.5856
1020.60 224.7693
1020.70 224.9529
1020.80 225.1365
1020.90 225.3202
1021.00 225.5038
1021.10 225.5817
1021.20 225.5893
1021.30 225.5968
1021.40 225.6043
1021.50 225.6118
1021.60 225.6193
1021.70 225.6268
1021.80 225.6343
1021.90 225.6418
1022.00 225.6493
1022.10 225.6569
1022.20 225.6644
1022.30 225.6719
1022.40 225.6794
1022.50 225.6869
1022.60 225.6944
1022.70 225.7019
1022.80 225.7094
1022.90 225.717
1023.00 225.7245
1023.10 225.732
1023.20 225.7395
1023.30 225.747
1023.40 225.7545
1023.50 225.762
1023.60 225.7695
1023.70 225.777
1023.80 225.7846
1023.90 225.7921
1024.00 225.7996
1024.10 225.8071
1024.20 225.8146
1024.30 225.8221
1024.40 225.8296
1024.50 225.8371
1024.60 225.8447
1024.70 225.8522
1024.80 225.8597
1024.90 225.8672
1025.00 225.8744
1025.10 225.8811
1025.20 225.8879
1025.30 225.8946
1025.40 225.9014
1025.50 225.9081
1025.60 225.9149
1025.70 225.9216
1025.80 225.9283
1025.90 225.9351
1026.00 225.9418
1026.10 225.9486
1026.20 225.9553
1026.30 225.9621
1026.40 225.9688
1026.50 225.9756
1026.60 225.9823
1026.70 225.989
1026.80 225.9958
1026.90 226.0025
1027.00 226.0093
1027.10 226.016
1027.20 226.0228
1027.30 226.0295
1027.40 226.0363
1027.50 226.043
1027.60 226.0497
1027.70 226.0565
1027.80 226.0632
1027.90 226.07
1028.00 226.0767
1028.10 226.0835
1028.20 226.0902
1028.30 226.097
1028.40 226.1037
1028.50 226.1104
1028.60 226.1172
1028.70 226.1239
1028.80 226.1307
1028.90 226.1374
1029.00 226.529
1029.10 226.9206
1029.20 227.3122
1029.30 227.7038
1029.40 228.0954
1029.50 228.487
1029.60 228.8786
1029.70 229.2701
1029.80 229.6617
1029.90 230.0533
1030.00 230.4449
1030.10 230.8365
1030.20 231.2281
1030.30 231.6197
1030.40 232.0113
1030.50 232.4029
1030.60 232.7945
1030.70 233.1861
1030.80 233.5777
1030.90 233.9693
1031.00 234.3608
1031.10 234.7524
1031.20 235.144
1031.30 235.5356
1031.40 235.9272
1031.50 236.3188
1031.60 236.7104
1031.70 237.102
1031.80 237.4936
1031.90 237.8852
1032.00 238.2768
1032.10 238.6684
1032.20 239.0599
1032.30 239.4515
1032.40 239.8431
1032.50 240.2347
1032.60 240.6263
1032.70 241.0179
1032.80 241.4095
1032.90 241.7223
1033.00 241.917
1033.10 242.1117
1033.20 242.3064
1033.30 242.5011
1033.40 242.6958
1033.50 242.8905
1033.60 243.0852
1033.70 243.2799
1033.80 243.4746
1033.90 243.6693
1034.00 243.8639
1034.10 244.0586
1034.20 244.2533
1034.30 244.448
1034.40 244.6427
1034.50 244.8374
1034.60 245.0321
1034.70 245.2268
1034.80 245.4215
1034.90 245.6162
1035.00 245.8109
1035.10 246.0056
1035.20 246.2003
1035.30 246.395
1035.40 246.5897
1035.50 246.7843
1035.60 246.979
1035.70 247.1737
1035.80 247.3684
1035.90 247.5631
1036.00 247.7578
1036.10 247.9525
1036.20 248.1472
1036.30 248.3419
1036.40 248.5366
1036.50 248.7313
1036.60 248.926
1036.70 249.1207
1036.80 249.3154
1036.90 249.4481
1037.00 249.5655
1037.10 249.6828
1037.20 249.8001
1037.30 249.9174
1037.40 250.0347
1037.50 250.152
1037.60 250.2693
1037.70 250.3866
1037.80 250.504
1037.90 250.6213
1038.00 250.7386
1038.10 250.8559
1038.20 250.9732
1038.30 251.0905
1038.40 251.2078
1038.50 251.3251
1038.60 251.4424
1038.70 251.5598
1038.80 251.6771
1038.90 251.7944
1039.00 251.9117
1039.10 252.029
1039.20 252.1463
1039.30 252.2636
1039.40 252.3809
1039.50 252.4983
1039.60 252.6156
1039.70 252.7329
1039.80 252.8502
1039.90 252.9675
1040.00 253.0848
1040.10 253.2021
1040.20 253.3194
1040.30 253.4368
1040.40 253.5541
1040.50 253.6714
1040.60 253.7887
1040.70 253.906
1040.80 254.0233
1040.90 254.1186
1041.00 254.2138
1041.10 254.3091
1041.20 254.4043
1041.30 254.4996
1041.40 254.5948
1041.50 254.6901
1041.60 254.7853
1041.70 254.8805
1041.80 254.9758
1041.90 255.071
1042.00 255.1663
1042.10 255.2615
1042.20 255.3568
1042.30 255.452
1042.40 255.5473
1042.50 255.6425
1042.60 255.7378
1042.70 255.833
1042.80 255.9283
1042.90 256.0235
1043.00 256.1188
1043.10 256.214
1043.20 256.3093
1043.30 256.4045
1043.40 256.4998
1043.50 256.595
1043.60 256.6903
1043.70 256.7855
1043.80 256.8807
1043.90 256.976
1044.00 257.0712
1044.10 257.1665
1044.20 257.2617
1044.30 257.357
1044.40 257.4522
1044.50 257.5475
1044.60 257.6427
1044.70 257.738
1044.80 257.839
1044.90 257.9921
1045.00 258.1452
1045.10 258.2983
1045.20 258.4514
1045.30 258.6045
1045.40 258.7576
1045.50 258.9107
1045.60 259.0638
1045.70 259.2169
1045.80 259.37
1045.90 259.5231
1046.00 259.6762
1046.10 259.8293
1046.20 259.9824
1046.30 260.1355
1046.40 260.2886
1046.50 260.4417
1046.60 260.5948
1046.70 260.7479
1046.80 260.901
1046.90 261.0541
1047.00 261.2072
1047.10 261.3603
1047.20 261.5134
1047.30 261.6665
1047.40 261.8196
1047.50 261.9727
1047.60 262.1258
1047.70 262.2789
1047.80 262.432
1047.90 262.5851
1048.00 262.7382
1048.10 262.8913
1048.20 263.0444
1048.30 263.1975
1048.40 263.3506
1048.50 263.5037
1048.60 263.6568
1048.70 263.8099
1048.80 263.9435
1048.90 263.9008
1049.00 263.8582
1049.10 263.8155
1049.20 263.7729
1049.30 263.7302
1049.40 263.6876
1049.50 263.6449
1049.60 263.6023
1049.70 263.5597
1049.80 263.517
1049.90 263.4744
1050.00 263.4317
1050.10 263.3891
1050.20 263.3464
1050.30 263.3038
1050.40 263.2611
1050.50 263.2185
1050.60 263.1759
1050.70 263.1332
1050.80 263.0906
1050.90 263.0479
1051.00 263.0053
1051.10 262.9626
1051.20 262.92
1051.30 262.8774
1051.40 262.8347
1051.50 262.7921
1051.60 262.7494
1051.70 262.7068
1051.80 262.6641
1051.90 262.6215
1052.00 262.5788
1052.10 262.5362
1052.20 262.4936
1052.30 262.4509
1052.40 262.4083
1052.50 262.3656
1052.60 262.323
1052.70 262.2803
1052.80 262.2377
1052.90 262.0933
1053.00 261.9488
1053.10 261.8044
1053.20 261.6599
1053.30 261.5155
1053.40 261.3711
1053.50 261.2266
1053.60 261.0822
1053.70 260.9378
1053.80 260.7933
1053.90 260.6489
1054.00 260.5045
1054.10 260.36
1054.20 260.2156
1054.30 260.0711
1054.40 259.9267
1054.50 259.7823
1054.60 259.6378
1054.70 259.4934
1054.80 259.349
1054.90 259.2045
1055.00 259.0601
1055.10 258.9157
1055.20 258.7712
1055.30 258.6268
1055.40 258.4823
1055.50 258.3379
1055.60 258.1935
1055.70 258.049
1055.80 257.9046
1055.90 257.7602
1056.00 257.6157
1056.10 257.4713
1056.20 257.3269
1056.30 257.1824
1056.40 257.038
1056.50 256.8936
1056.60 256.7491
1056.70 256.6047
1056.80 256.4602
1056.90 256.4611
1057.00 256.4983
1057.10 256.5355
1057.20 256.5727
1057.30 256.6099
1057.40 256.6471
1057.50 256.6843
1057.60 256.7215
1057.70 256.7587
1057.80 256.7959
1057.90 256.8331
1058.00 256.8703
1058.10 256.9075
1058.20 256.9447
1058.30 256.9819
1058.40 257.0191
1058.50 257.0563
1058.60 257.0935
1058.70 257.1307
1058.80 257.1679
1058.90 257.2051
1059.00 257.2423
1059.10 257.2795
1059.20 257.3167
1059.30 257.354
1059.40 257.3912
1059.50 257.4284
1059.60 257.4656
1059.70 257.5028
1059.80 257.54
1059.90 257.5772
1060.00 257.6144
1060.10 257.6516
1060.20 257.6888
1060.30 257.726
1060.40 257.7632
1060.50 257.8004
1060.60 257.8376
1060.70 257.8748
1060.80 257.912
1060.90 258.0581
1061.00 258.3132
1061.10 258.5683
1061.20 258.8234
1061.30 259.0785
1061.40 259.3336
1061.50 259.5887
1061.60 259.8438
1061.70 260.0989
1061.80 260.354
1061.90 260.609
1062.00 260.8641
1062.10 261.1192
1062.20 261.3743
1062.30 261.6294
1062.40 261.8845
1062.50 262.1396
1062.60 262.3947
1062.70 262.6498
1062.80 262.9049
1062.90 263.16
1063.00 263.4151
1063.10 263.6702
1063.20 263.9253
1063.30 264.1804
1063.40 264.4354
1063.50 264.6905
1063.60 264.9456
1063.70 265.2007
1063.80 265.4558
1063.90 265.7109
1064.00 265.966
1064.10 266.2211
1064.20 266.4762
1064.30 266.7313
1064.40 266.9864
1064.50 267.2415
1064.60 267.4966
1064.70 267.7517
1064.80 268.0067
1064.90 268.2618
1065.00 268.5094
1065.10 268.757
1065.20 269.0046
1065.30 269.2522
1065.40 269.4998
1065.50 269.7474
1065.60 269.995
1065.70 270.2426
1065.80 270.4902
1065.90 270.7378
1066.00 270.9854
1066.10 271.233
1066.20 271.4806
1066.30 271.7282
1066.40 271.9758
1066.50 272.2234
1066.60 272.4709
1066.70 272.7185
1066.80 272.9661
1066.90 273.2137
1067.00 273.4613
1067.10 273.7089
1067.20 273.9565
1067.30 274.2041
1067.40 274.4517
1067.50 274.6993
1067.60 274.9469
1067.70 275.1945
1067.80 275.4421
1067.90 275.6897
1068.00 275.9373
1068.10 276.1849
1068.20 276.4325
1068.30 276.6801
1068.40 276.9277
1068.50 277.1753
1068.60 277.4228
1068.70 277.6704
1068.80 277.918
1068.90 278.1656
1069.00 278.4258
1069.10 278.6986
1069.20 278.9713
1069.30 279.2441
1069.40 279.5169
1069.50 279.7896
1069.60 280.0624
1069.70 280.3352
1069.80 280.6079
1069.90 280.8807
1070.00 281.1535
1070.10 281.4262
1070.20 281.699
1070.30 281.9717
1070.40 282.2445
1070.50 282.5173
1070.60 282.79
1070.70 283.0628
1070.80 283.3356
1070.90 283.6083
1071.00 283.8811
1071.10 284.1539
1071.20 284.4266
1071.30 284.6994
1071.40 284.9722
1071.50 285.2449
1071.60 285.5177
1071.70 285.7905
1071.80 286.0632
1071.90 286.336
1072.00 286.6087
1072.10 286.8815
1072.20 287.1543
1072.30 287.427
1072.40 287.6998
1072.50 287.9726
1072.60 288.2453
1072.70 288.5181
1072.80 288.7909
1072.90 289.0636
1073.00 289.3364
1073.10 289.5754
1073.20 289.8107
1073.30 290.0459
1073.40 290.2812
1073.50 290.5164
1073.60 290.7517
1073.70 290.987
1073.80 291.2222
1073.90 291.4575
1074.00 291.6927
1074.10 291.928
1074.20 292.1633
1074.30 292.3985
1074.40 292.6338
1074.50 292.869
1074.60 293.1043
1074.70 293.3396
1074.80 293.5748
1074.90 293.8101
1075.00 294.0453
1075.10 294.2806
1075.20 294.5159
1075.30 294.7511
1075.40 294.9864
1075.50 295.2216
1075.60 295.4569
1075.70 295.6922
1075.80 295.9274
1075.90 296.1627
1076.00 296.3979
1076.10 296.6332
1076.20 296.8685
1076.30 297.1037
1076.40 297.339
1076.50 297.5742
1076.60 297.8095
1076.70 298.0448
1076.80 298.28
1076.90 298.5153
1077.00 298.7505
1077.10 298.9759
1077.20 299.1127
1077.30 299.2494
1077.40 299.3861
1077.50 299.5228
1077.60 299.6595
1077.70 299.7962
1077.80 299.9329
1077.90 300.0696
1078.00 300.2064
1078.10 300.3431
1078.20 300.4798
1078.30 300.6165
1078.40 300.7532
1078.50 300.8899
1078.60 301.0266
1078.70 301.1633
1078.80 301.3
1078.90 301.4368
1079.00 301.5735
1079.10 301.7102
1079.20 301.8469
1079.30 301.9836
1079.40 302.1203
1079.50 302.257
1079.60 302.3937
1079.70 302.5305
1079.80 302.6672
1079.90 302.8039
1080.00 302.9406
1080.10 303.0773
1080.20 303.214
1080.30 303.3507
1080.40 303.4874
1080.50 303.6242
1080.60 303.7609
1080.70 303.8976
1080.80 304.0343
1080.90 304.171
1081.00 304.3077
1081.10 304.4444
1081.20 304.7201
1081.30 305.32
1081.40 305.9199
1081.50 306.5198
1081.60 307.1197
1081.70 307.7196
1081.80 308.3196
1081.90 308.9195
1082.00 309.5194
1082.10 310.1193
1082.20 310.7192
1082.30 311.3191
1082.40 311.919
1082.50 312.5189
1082.60 313.1188
1082.70 313.7187
1082.80 314.3187
1082.90 314.9186
1083.00 315.5185
1083.10 316.1184
1083.20 316.7183
1083.30 317.3182
1083.40 317.9181
1083.50 318.518
1083.60 319.1179
1083.70 319.7178
1083.80 320.3178
1083.90 320.9177
1084.00 321.5176
1084.10 322.1175
1084.20 322.7174
1084.30 323.3173
1084.40 323.9172
1084.50 324.5171
1084.60 325.117
1084.70 325.717
1084.80 326.3169
1084.90 326.9168
1085.00 327.5167
1085.10 328.1166
1085.20 328.7165
1085.30 329.1584
1085.40 329.2315
1085.50 329.3046
1085.60 329.3778
1085.70 329.4509
1085.80 329.524
1085.90 329.5972
1086.00 329.6703
1086.10 329.7434
1086.20 329.8166
1086.30 329.8897
1086.40 329.9628
1086.50 330.036
1086.60 330.1091
1086.70 330.1822
1086.80 330.2554
1086.90 330.3285
1087.00 330.4016
1087.10 330.4748
1087.20 330.5479
1087.30 330.621
1087.40 330.6942
1087.50 330.7673
1087.60 330.8404
1087.70 330.9136
1087.80 330.9867
1087.90 331.0598
1088.00 331.133
1088.10 331.2061
1088.20 331.2792
1088.30 331.3524
1088.40 331.4255
1088.50 331.4986
1088.60 331.5718
1088.70 331.6449
1088.80 331.718
1088.90 331.7912
1089.00 331.8643
1089.10 331.9374
1089.20 332.0106
1089.30 332.0837
1089.40 332.1767
1089.50 332.3162
1089.60 332.4556
1089.70 332.5951
1089.80 332.7345
1089.90 332.874
1090.00 333.0134
1090.10 333.1529
1090.20 333.2923
1090.30 333.4318
1090.40 333.5712
1090.50 333.7107
1090.60 333.8502
1090.70 333.9896
1090.80 334.1291
1090.90 334.2685
1091.00 334.408
1091.10 334.5474
1091.20 334.6869
1091.30 334.8263
1091.40 334.9658
1091.50 335.1052
1091.60 335.2447
1091.70 335.3841
1091.80 335.5236
1091.90 335.663
1092.00 335.8025
1092.10 335.9419
1092.20 336.0814
1092.30 336.2209
1092.40 336.3603
1092.50 336.4998
1092.60 336.6392
1092.70 336.7787
1092.80 336.9181
1092.90 337.0576
1093.00 337.197
1093.10 337.3365
1093.20 337.4759
1093.30 337.6154
1093.40 337.7548
1093.50 337.8834
1093.60 337.9687
1093.70 338.0539
1093.80 338.1391
1093.90 338.2243
1094.00 338.3095
1094.10 338.3947
1094.20 338.4799
1094.30 338.5651
1094.40 338.6503
1094.50 338.7356
1094.60 338.8208
1094.70 338.906
1094.80 338.9912
1094.90 339.0764
1095.00 339.1616
1095.10 339.2468
1095.20 339.332
1095.30 339.4172
1095.40 339.5025
1095.50 339.5877
1095.60 339.6729
1095.70 339.7581
1095.80 339.8433
1095.90 339.9285
1096.00 340.0137
1096.10 340.0989
1096.20 340.1842
1096.30 340.2694
1096.40 340.3546
1096.50 340.4398
1096.60 340.525
1096.70 340.6102
1096.80 340.6954
1096.90 340.7806
1097.00 340.8658
1097.10 340.9511
1097.20 341.0363
1097.30 341.1215
1097.40 341.2067
1097.50 341.2919
1097.60 341.3771
1097.70 341.5032
1097.80 341.6292
1097.90 341.7553
1098.00 341.8814
1098.10 342.0074
1098.20 342.1335
1098.30 342.2595
1098.40 342.3856
1098.50 342.5117
1098.60 342.6377
1098.70 342.7638
1098.80 342.8899
1098.90 343.0159
1099.00 343.142
1099.10 343.268
1099.20 343.3941
1099.30 343.5202
1099.40 343.6462
1099.50 343.7723
1099.60 343.8983
1099.70 344.0244
1099.80 344.1505
1099.90 344.2765
1100.00 344.4026
1100.10 344.5287
1100.20 344.6547
1100.30 344.7808
1100.40 344.9068
1100.50 345.0329
1100.60 345.159
1100.70 345.285
1100.80 345.4111
1100.90 345.5372
1101.00 345.6632
1101.10 345.7893
1101.20 345.9153
1101.30 346.0414
1101.40 346.1675
1101.50 346.2935
1101.60 346.4196
1101.70 346.5456
1101.80 346.4138
1101.90 346.1714
1102.00 345.929
1102.10 345.6867
1102.20 345.4443
1102.30 345.2019
1102.40 344.9595
1102.50 344.7171
1102.60 344.4747
1102.70 344.2324
1102.80 343.99
1102.90 343.7476
1103.00 343.5052
1103.10 343.2628
1103.20 343.0205
1103.30 342.7781
1103.40 342.5357
1103.50 342.2933
1103.60 342.0509
1103.70 341.8086
1103.80 341.5662
1103.90 341.3238
1104.00 341.0814
1104.10 340.839
1104.20 340.5966
1104.30 340.3543
1104.40 340.1119
1104.50 339.8695
1104.60 339.6271
1104.70 339.3847
1104.80 339.1424
1104.90 338.9
1105.00 338.6576
1105.10 338.4152
1105.20 338.1728
1105.30 337.9304
1105.40 337.6881
1105.50 337.4457
1105.60 337.2033
1105.70 336.9609
1105.80 336.7185
1105.90 336.5571
1106.00 336.5846
1106.10 336.612
1106.20 336.6395
1106.30 336.6669
1106.40 336.6944
1106.50 336.7219
1106.60 336.7493
1106.70 336.7768
1106.80 336.8042
1106.90 336.8317
1107.00 336.8592
1107.10 336.8866
1107.20 336.9141
1107.30 336.9415
1107.40 336.969
1107.50 336.9964
1107.60 337.0239
1107.70 337.0514
1107.80 337.0788
1107.90 337.1063
1108.00 337.1337
1108.10 337.1612
1108.20 337.1887
1108.30 337.2161
1108.40 337.2436
1108.50 337.271
1108.60 337.2985
1108.70 337.3259
1108.80 337.3534
1108.90 337.3809
1109.00 337.4083
1109.10 337.4358
1109.20 337.4632
1109.30 337.4907
1109.40 337.5182
1109.50 337.5456
1109.60 337.5731
1109.70 337.6005
1109.80 337.628
1109.90 337.6554
1110.00 337.6829
1110.10 337.6262
1110.20 337.5485
1110.30 337.4708
1110.40 337.3931
1110.50 337.3154
1110.60 337.2377
1110.70 337.1599
1110.80 337.0822
1110.90 337.0045
1111.00 336.9268
1111.10 336.8491
1111.20 336.7714
1111.30 336.6937
1111.40 336.616
1111.50 336.5382
1111.60 336.4605
1111.70 336.3828
1111.80 336.3051
1111.90 336.2274
1112.00 336.1497
1112.10 336.072
1112.20 335.9943
1112.30 335.9165
1112.40 335.8388
1112.50 335.7611
1112.60 335.6834
1112.70 335.6057
1112.80 335.528
1112.90 335.4503
1113.00 335.3726
1113.10 335.2948
1113.20 335.2171
1113.30 335.1394
1113.40 335.0617
1113.50 334.984
1113.60 334.9063
1113.70 334.8286
1113.80 334.7508
1113.90 334.6731
1114.00 334.5954
1114.10 334.5177
1114.20 334.5
1114.30 334.6221
1114.40 334.7443
1114.50 334.8665
1114.60 334.9887
1114.70 335.1109
1114.80 335.2331
1114.90 335.3552
1115.00 335.4774
1115.10 335.5996
1115.20 335.7218
1115.30 335.844
1115.40 335.9662
1115.50 336.0884
1115.60 336.2105
1115.70 336.3327
1115.80 336.4549
1115.90 336.5771
1116.00 336.6993
1116.10 336.8215
1116.20 336.9436
1116.30 337.0658
1116.40 337.188
1116.50 337.3102
1116.60 337.4324
1116.70 337.5546
1116.80 337.6767
1116.90 337.7989
1117.00 337.9211
1117.10 338.0433
1117.20 338.1655
1117.30 338.2877
1117.40 338.4098
1117.50 338.532
1117.60 338.6542
1117.70 338.7764
1117.80 338.8986
1117.90 339.0208
1118.00 339.1429
1118.10 339.2651
1118.20 339.3873
1118.30 339.5095
1118.40 339.6296
1118.50 339.7483
1118.60 339.867
1118.70 339.9858
1118.80 340.1045
1118.90 340.2232
1119.00 340.3419
1119.10 340.4606
1119.20 340.5794
1119.30 340.6981
1119.40 340.8168
1119.50 340.9355
1119.60 341.0542
1119.70 341.1729
1119.80 341.2917
1119.90 341.4104
1120.00 341.5291
1120.10 341.6478
1120.20 341.7665
1120.30 341.8853
1120.40 342.004
1120.50 342.1227
1120.60 342.2414
1120.70 342.3601
1120.80 342.4789
1120.90 342.5976
1121.00 342.7163
1121.10 342.835
1121.20 342.9537
1121.30 343.0725
1121.40 343.1912
1121.50 343.3099
1121.60 343.4286
1121.70 343.5473
1121.80 343.6661
1121.90 343.7848
1122.00 343.9035
1122.10 344.0222
1122.20 344.1409
1122.30 344.2596
1122.40 344.3784
1122.50 344.4971
1122.60 344.5059
1122.70 344.5026
1122.80 344.4992
1122.90 344.4959
1123.00 344.4925
1123.10 344.4892
1123.20 344.4858
1123.30 344.4825
1123.40 344.4791
1123.50 344.4758
1123.60 344.4724
1123.70 344.4691
1123.80 344.4657
1123.90 344.4624
1124.00 344.459
1124.10 344.4557
1124.20 344.4523
1124.30 344.449
1124.40 344.4456
1124.50 344.4423
1124.60 344.439
1124.70 344.4356
1124.80 344.4323
1124.90 344.4289
1125.00 344.4256
1125.10 344.4222
1125.20 344.4189
1125.30 344.4155
1125.40 344.4122
1125.50 344.4088
1125.60 344.4055
1125.70 344.4021
1125.80 344.3988
1125.90 344.3954
1126.00 344.3921
1126.10 344.3887
1126.20 344.3854
1126.30 344.382
1126.40 344.3787
1126.50 344.3753
1126.60 344.372
1126.70 344.3452
1126.80 344.225
1126.90 344.1048
1127.00 343.9846
1127.10 343.8644
1127.20 343.7442
1127.30 343.624
1127.40 343.5038
1127.50 343.3836
1127.60 343.2633
1127.70 343.1431
1127.80 343.0229
1127.90 342.9027
1128.00 342.7825
1128.10 342.6623
1128.20 342.5421
1128.30 342.4219
1128.40 342.3017
1128.50 342.1814
1128.60 342.0612
1128.70 341.941
1128.80 341.8208
1128.90 341.7006
1129.00 341.5804
1129.10 341.4602
1129.20 341.34
1129.30 341.2198
1129.40 341.0995
1129.50 340.9793
1129.60 340.8591
1129.70 340.7389
1129.80 340.6187
1129.90 340.4985
1130.00 340.3783
1130.10 340.2581
1130.20 340.1379
1130.30 340.0177
1130.40 339.8974
1130.50 339.7772
1130.60 339.657
1130.70 339.5368
1130.80 339.4166
1130.90 339.239
1131.00 338.9274
1131.10 338.6158
1131.20 338.3042
1131.30 337.9926
1131.40 337.681
1131.50 337.3694
1131.60 337.0578
1131.70 336.7462
1131.80 336.4346
1131.90 336.123
1132.00 335.8114
1132.10 335.4998
1132.20 335.1882
1132.30 334.8766
1132.40 334.565
1132.50 334.2534
1132.60 333.9418
1132.70 333.6302
1132.80 333.3186
1132.90 333.0071
1133.00 332.6955
1133.10 332.3839
1133.20 332.0723
1133.30 331.7607
1133.40 331.4491
1133.50 331.1375
1133.60 330.8259
1133.70 330.5143
1133.80 330.2027
1133.90 329.8911
1134.00 329.5795
1134.10 329.2679
1134.20 328.9563
1134.30 328.6447
1134.40 328.3331
1134.50 328.0215
1134.60 327.7099
1134.70 327.3983
1134.80 327.0867
1134.90 326.7751
1135.00 326.4635
1135.10 326.2558
1135.20 326.2037
1135.30 326.1517
1135.40 326.0997
1135.50 326.0476
1135.60 325.9956
1135.70 325.9436
1135.80 325.8915
1135.90 325.8395
1136.00 325.7875
1136.10 325.7354
1136.20 325.6834
1136.30 325.6314
1136.40 325.5793
1136.50 325.5273
1136.60 325.4752
1136.70 325.4232
1136.80 325.3712
1136.90 325.3191
1137.00 325.2671
1137.10 325.2151
1137.20 325.163
1137.30 325.111
1137.40 325.059
1137.50 325.0069
1137.60 324.9549
1137.70 324.9029
1137.80 324.8508
1137.90 324.7988
1138.00 324.7468
1138.10 324.6947
1138.20 324.6427
1138.30 324.5907
1138.40 324.5386
1138.50 324.4866
1138.60 324.4346
1138.70 324.3825
1138.80 324.3305
1138.90 324.2785
1139.00 324.2264
1139.10 324.1744
1139.20 324.1224
1139.30 324.1592
1139.40 324.3295
1139.50 324.4998
1139.60 324.67
1139.70 324.8403
1139.80 325.0106
1139.90 325.1808
1140.00 325.3511
1140.10 325.5213
1140.20 325.6916
1140.30 325.8619
1140.40 326.0321
1140.50 326.2024
1140.60 326.3727
1140.70 326.5429
1140.80 326.7132
1140.90 326.8835
1141.00 327.0537
1141.10 327.224
1141.20 327.3942
1141.30 327.5645
1141.40 327.7348
1141.50 327.905
1141.60 328.0753
1141.70 328.2456
1141.80 328.4158
1141.90 328.5861
1142.00 328.7564
1142.10 328.9266
1142.20 329.0969
1142.30 329.2671
1142.40 329.4374
1142.50 329.6077
1142.60 329.7779
1142.70 329.9482
1142.80 330.1185
1142.90 330.2887
1143.00 330.459
1143.10 330.6293
1143.20 330.7995
1143.30 330.9698
1143.40 331.14
1143.50 331.4118
1143.60 331.9203
1143.70 332.4289
1143.80 332.9374
1143.90 333.446
1144.00 333.9545
1144.10 334.463
1144.20 334.9716
1144.30 335.4801
1144.40 335.9887
1144.50 336.4972
1144.60 337.0057
1144.70 337.5143
1144.80 338.0228
1144.90 338.5314
1145.00 339.0399
1145.10 339.5484
1145.20 340.057
1145.30 340.5655
1145.40 341.0741
1145.50 341.5826
1145.60 342.0911
1145.70 342.5997
1145.80 343.1082
1145.90 343.6168
1146.00 344.1253
1146.10 344.6338
1146.20 345.1424
1146.30 345.6509
1146.40 346.1595
1146.50 346.668
1146.60 347.1765
1146.70 347.6851
1146.80 348.1936
1146.90 348.7022
1147.00 349.2107
1147.10 349.7193
1147.20 350.2278
1147.30 350.7363
1147.40 351.2449
1147.50 351.7534
1147.60 352.262
1147.70 352.7389
1147.80 353.0896
1147.90 353.4403
1148.00 353.791
1148.10 354.1417
1148.20 354.4924
1148.30 354.8431
1148.40 355.1937
1148.50 355.5444
1148.60 355.8951
1148.70 356.2458
1148.80 356.5965
1148.90 356.9472
1149.00 357.2979
1149.10 357.6486
1149.20 357.9993
1149.30 358.3499
1149.40 358.7006
1149.50 359.0513
1149.60 359.402
1149.70 359.7527
1149.80 360.1034
1149.90 360.4541
1150.00 360.8048
1150.10 361.1555
1150.20 361.5061
1150.30 361.8568
1150.40 362.2075
1150.50 362.5582
1150.60 362.9089
1150.70 363.2596
1150.80 363.6103
1150.90 363.961
1151.00 364.3117
1151.10 364.6623
1151.20 365.013
1151.30 365.3637
1151.40 365.7144
1151.50 366.0651
1151.60 366.4158
1151.70 366.7665
1151.80 367.1172
1151.90 367.4679
1152.00 367.4337
1152.10 367.3995
1152.20 367.3654
1152.30 367.3312
1152.40 367.2971
1152.50 367.2629
1152.60 367.2288
1152.70 367.1946
1152.80 367.1605
1152.90 367.1263
1153.00 367.0921
1153.10 367.058
1153.20 367.0238
1153.30 366.9897
1153.40 366.9555
1153.50 366.9214
1153.60 366.8872
1153.70 366.8531
1153.80 366.8189
1153.90 366.7847
1154.00 366.7506
1154.10 366.7164
1154.20 366.6823
1154.30 366.6481
1154.40 366.614
1154.50 366.5798
1154.60 366.5457
1154.70 366.5115
1154.80 366.4773
1154.90 366.4432
1155.00 366.409
1155.10 366.3749
1155.20 366.3407
1155.30 366.3066
1155.40 366.2724
1155.50 366.2383
1155.60 366.2041
1155.70 366.17
1155.80 366.1358
1155.90 366.1016
1156.00 366.0675
1156.10 366.0333
1156.20 365.8699
1156.30 365.6742
1156.40 365.4785
1156.50 365.2828
1156.60 365.0871
1156.70 364.8913
1156.80 364.6956
1156.90 364.4999
1157.00 364.3042
1157.10 364.1085
1157.20 363.9127
1157.30 363.717
1157.40 363.5213
1157.50 363.3256
1157.60 363.1299
1157.70 362.9342
1157.80 362.7384
1157.90 362.5427
1158.00 362.347
1158.10 362.1513
1158.20 361.9556
1158.30 361.7598
1158.40 361.5641
1158.50 361.3684
1158.60 361.1727
1158.70 360.977
1158.80 360.7813
1158.90 360.5855
1159.00 360.3898
1159.10 360.1941
1159.20 359.9984
1159.30 359.8027
1159.40 359.6069
1159.50 359.4112
1159.60 359.2155
1159.70 359.0198
1159.80 358.8241
1159.90 358.6284
1160.00 358.4326
1160.10 358.2369
1160.20 358.0412
1160.30 357.8455
1160.40 357.641
1160.50 357.4277
1160.60 357.2144
1160.70 357.0011
1160.80 356.7878
1160.90 356.5745
1161.00 356.3612
1161.10 356.1479
1161.20 355.9346
1161.30 355.7213
1161.40 355.508
1161.50 355.2947
1161.60 355.0814
1161.70 354.8681
1161.80 354.6548
1161.90 354.4415
1162.00 354.2282
1162.10 354.0149
1162.20 353.8016
1162.30 353.5883
1162.40 353.375
1162.50 353.1617
1162.60 352.9484
1162.70 352.7351
1162.80 352.5218
1162.90 352.3085
1163.00 352.0952
1163.10 351.8819
1163.20 351.6686
1163.30 351.4553
1163.40 351.242
1163.50 351.0287
1163.60 350.8154
1163.70 350.602
1163.80 350.3887
1163.90 350.1754
1164.00 349.9621
1164.10 349.7488
1164.20 349.5355
1164.30 349.3222
1164.40 349.1089
1164.50 348.8956
1164.60 348.6865
1164.70 348.5148
1164.80 348.343
1164.90 348.1713
1165.00 347.9996
1165.10 347.8278
1165.20 347.6561
1165.30 347.4843
1165.40 347.3126
1165.50 347.1409
1165.60 346.9691
1165.70 346.7974
1165.80 346.6257
1165.90 346.4539
1166.00 346.2822
1166.10 346.1105
1166.20 345.9387
1166.30 345.767
1166.40 345.5953
1166.50 345.4235
1166.60 345.2518
1166.70 345.08
1166.80 344.9083
1166.90 344.7366
1167.00 344.5648
1167.10 344.3931
1167.20 344.2214
1167.30 344.0496
1167.40 343.8779
1167.50 343.7062
1167.60 343.5344
1167.70 343.3627
1167.80 343.191
1167.90 343.0192
1168.00 342.8475
1168.10 342.6757
1168.20 342.504
1168.30 342.3323
1168.40 342.1605
1168.50 341.9888
1168.60 341.8171
1168.70 341.6453
1168.80 341.4736
1168.90 341.118
1169.00 340.6837
1169.10 340.2494
1169.20 339.815
1169.30 339.3807
1169.40 338.9464
1169.50 338.5121
1169.60 338.0777
1169.70 337.6434
1169.80 337.2091
1169.90 336.7747
1170.00 336.3404
1170.10 335.9061
1170.20 335.4717
1170.30 335.0374
1170.40 334.6031
1170.50 334.1688
1170.60 333.7344
1170.70 333.3001
1170.80 332.8658
1170.90 332.4314
1171.00 331.9971
1171.10 331.5628
1171.20 331.1284
1171.30 330.6941
1171.40 330.2598
1171.50 329.8255
1171.60 329.3911
1171.70 328.9568
1171.80 328.5225
1171.90 328.0881
1172.00 327.6538
1172.10 327.2195
1172.20 326.7851
1172.30 326.3508
1172.40 325.9165
1172.50 325.4822
1172.60 325.0478
1172.70 324.6135
1172.80 324.1792
1172.90 323.7448
1173.00 323.3105
1173.10 322.9832
1173.20 323.0838
1173.30 323.1844
1173.40 323.2851
1173.50 323.3857
1173.60 323.4863
1173.70 323.587
1173.80 323.6876
1173.90 323.7882
1174.00 323.8889
1174.10 323.9895
1174.20 324.0901
1174.30 324.1908
1174.40 324.2914
1174.50 324.392
1174.60 324.4927
1174.70 324.5933
1174.80 324.6939
1174.90 324.7946
1175.00 324.8952
1175.10 324.9958
1175.20 325.0965
1175.30 325.1971
1175.40 325.2977
1175.50 325.3984
1175.60 325.499
1175.70 325.5996
1175.80 325.7003
1175.90 325.8009
1176.00 325.9015
1176.10 326.0022
1176.20 326.1028
1176.30 326.2034
1176.40 326.3041
1176.50 326.4047
1176.60 326.5053
1176.70 326.6059
1176.80 326.7066
1176.90 326.8072
1177.00 326.9078
1177.10 327.0085
1177.20 327.1091
1177.30 327.2097
1177.40 327.351
1177.50 327.5096
1177.60 327.6683
1177.70 327.8269
1177.80 327.9855
1177.90 328.1442
1178.00 328.3028
1178.10 328.4614
1178.20 328.6201
1178.30 328.7787
1178.40 328.9373
1178.50 329.096
1178.60 329.2546
1178.70 329.4133
1178.80 329.5719
1178.90 329.7305
1179.00 329.8892
1179.10 330.0478
1179.20 330.2064
1179.30 330.3651
1179.40 330.5237
1179.50 330.6823
1179.60 330.841
1179.70 330.9996
1179.80 331.1583
1179.90 331.3169
1180.00 331.4755
1180.10 331.6342
1180.20 331.7928
1180.30 331.9514
1180.40 332.1101
1180.50 332.2687
1180.60 332.4273
1180.70 332.586
1180.80 332.7446
1180.90 332.9033
1181.00 333.0619
1181.10 333.2205
1181.20 333.3792
1181.30 333.5378
1181.40 333.6964
1181.50 333.8551
1181.60 334.0214
1181.70 334.257
1181.80 334.4927
1181.90 334.7283
1182.00 334.9639
1182.10 335.1995
1182.20 335.4351
1182.30 335.6708
1182.40 335.9064
1182.50 336.142
1182.60 336.3776
1182.70 336.6133
1182.80 336.8489
1182.90 337.0845
1183.00 337.3201
1183.10 337.5558
1183.20 337.7914
1183.30 338.027
1183.40 338.2626
1183.50 338.4982
1183.60 338.7339
1183.70 338.9695
1183.80 339.2051
1183.90 339.4407
1184.00 339.6764
1184.10 339.912
1184.20 340.1476
1184.30 340.3832
1184.40 340.6189
1184.50 340.8545
1184.60 341.0901
1184.70 341.3257
1184.80 341.5613
1184.90 341.797
1185.00 342.0326
1185.10 342.2682
1185.20 342.5038
1185.30 342.7395
1185.40 342.9751
1185.50 343.2107
1185.60 343.4463
1185.70 343.6819
1185.80 343.9176
1185.90 343.9836
1186.00 343.8801
1186.10 343.7766
1186.20 343.6731
1186.30 343.5696
1186.40 343.4661
1186.50 343.3626
1186.60 343.2591
1186.70 343.1556
1186.80 343.0521
1186.90 342.9486
1187.00 342.8451
1187.10 342.7416
1187.20 342.6381
1187.30 342.5346
1187.40 342.4311
1187.50 342.3276
1187.60 342.2241
1187.70 342.1206
1187.80 342.0171
1187.90 341.9136
1188.00 341.8101
1188.10 341.7066
1188.20 341.6031
1188.30 341.4996
1188.40 341.3961
1188.50 341.2926
1188.60 341.1891
1188.70 341.0856
1188.80 340.9821
1188.90 340.8786
1189.00 340.7751
1189.10 340.6716
1189.20 340.5681
1189.30 340.4646
1189.40 340.3611
1189.50 340.2576
1189.60 340.1541
1189.70 340.0506
1189.80 339.9471
1189.90 339.8436
1190.00 339.7401
1190.10 339.6366
1190.20 339.3581
1190.30 339.0359
1190.40 338.7137
1190.50 338.3915
1190.60 338.0693
1190.70 337.7471
1190.80 337.425
1190.90 337.1028
1191.00 336.7806
1191.10 336.4584
1191.20 336.1362
1191.30 335.814
1191.40 335.4918
1191.50 335.1696
1191.60 334.8474
1191.70 334.5252
1191.80 334.203
1191.90 333.8809
1192.00 333.5587
1192.10 333.2365
1192.20 332.9143
1192.30 332.5921
1192.40 332.2699
1192.50 331.9477
1192.60 331.6255
1192.70 331.3033
1192.80 330.9811
1192.90 330.6589
1193.00 330.3367
1193.10 330.0146
1193.20 329.6924
1193.30 329.3702
1193.40 329.048
1193.50 328.7258
1193.60 328.4036
1193.70 328.0814
1193.80 327.7592
1193.90 327.437
1194.00 327.1148
1194.10 326.7926
1194.20 326.4704
1194.30 326.1483
1194.40 325.8361
1194.50 325.6145
1194.60 325.3928
1194.70 325.1711
1194.80 324.9495
1194.90 324.7278
1195.00 324.5062
1195.10 324.2845
1195.20 324.0628
1195.30 323.8412
1195.40 323.6195
1195.50 323.3979
1195.60 323.1762
1195.70 322.9546
1195.80 322.7329
1195.90 322.5112
1196.00 322.2896
1196.10 322.0679
1196.20 321.8463
1196.30 321.6246
1196.40 321.4029
1196.50 321.1813
1196.60 320.9596
1196.70 320.738
1196.80 320.5163
1196.90 320.2946
1197.00 320.073
1197.10 319.8513
1197.20 319.6297
1197.30 319.408
1197.40 319.1864
1197.50 318.9647
1197.60 318.743
1197.70 318.5214
1197.80 318.2997
1197.90 318.0781
1198.00 317.8564
1198.10 317.6347
1198.20 317.4131
1198.30 317.1914
1198.40 316.9698
1198.50 316.7481
1198.60 316.5264
1198.70 316.3853
1198.80 316.3648
1198.90 316.3444
1199.00 316.324
1199.10 316.3035
1199.20 316.2831
1199.30 316.2627
1199.40 316.2422
1199.50 316.2218
1199.60 316.2014
1199.70 316.1809
1199.80 316.1605
1199.90 316.1401
1200.00 316.1196
1200.10 316.0992
1200.20 316.0788
1200.30 316.0583
1200.40 316.0379
1200.50 316.0175
1200.60 315.997
1200.70 315.9766
1200.80 315.9562
1200.90 315.9357
1201.00 315.9153
1201.10 315.8949
1201.20 315.8744
1201.30 315.854
1201.40 315.8336
1201.50 315.8131
1201.60 315.7927
1201.70 315.7723
1201.80 315.7518
1201.90 315.7314
1202.00 315.711
1202.10 315.6905
1202.20 315.6701
1202.30 315.6497
1202.40 315.6292
1202.50 315.6088
1202.60 315.5884
1202.70 315.5679
1202.80 315.5475
1202.90 315.5271
1203.00 315.6794
1203.10 315.947
1203.20 316.2146
1203.30 316.4821
1203.40 316.7497
1203.50 317.0173
1203.60 317.2848
1203.70 317.5524
1203.80 317.8199
1203.90 318.0875
1204.00 318.3551
1204.10 318.6226
1204.20 318.8902
1204.30 319.1577
1204.40 319.4253
1204.50 319.6929
1204.60 319.9604
1204.70 320.228
1204.80 320.4956
1204.90 320.7631
1205.00 321.0307
1205.10 321.2982
1205.20 321.5658
1205.30 321.8334
1205.40 322.1009
1205.50 322.3685
1205.60 322.636
1205.70 322.9036
1205.80 323.1712
1205.90 323.4387
1206.00 323.7063
1206.10 323.9738
1206.20 324.2414
1206.30 324.509
1206.40 324.7765
1206.50 325.0441
1206.60 325.3117
1206.70 325.5792
1206.80 325.8468
1206.90 326.1143
1207.00 326.3819
1207.10 326.6495
1207.20 326.917
1207.30 327.3276
1207.40 327.7739
1207.50 328.2203
1207.60 328.6666
1207.70 329.1129
1207.80 329.5593
1207.90 330.0056
1208.00 330.452
1208.10 330.8983
1208.20 331.3446
1208.30 331.791
1208.40 332.2373
1208.50 332.6836
1208.60 333.13
1208.70 333.5763
1208.80 334.0227
1208.90 334.469
1209.00 334.9153
1209.10 335.3617
1209.20 335.808
1209.30 336.2543
1209.40 336.7007
1209.50 337.147
1209.60 337.5933
1209.70 338.0397
1209.80 338.486
1209.90 338.9324
1210.00 339.3787
1210.10 339.825
1210.20 340.2714
1210.30 340.7177
1210.40 341.164
1210.50 341.6104
1210.60 342.0567
1210.70 342.503
1210.80 342.9494
1210.90 343.3957
1211.00 343.8421
1211.10 344.2884
1211.20 344.7347
1211.30 345.1811
1211.40 345.6274
1211.50 346.0737
1211.60 346.2382
1211.70 346.3713
1211.80 346.5045
1211.90 346.6376
1212.00 346.7708
1212.10 346.9039
1212.20 347.0371
1212.30 347.1702
1212.40 347.3034
1212.50 347.4365
1212.60 347.5697
1212.70 347.7028
1212.80 347.836
1212.90 347.9691
1213.00 348.1023
1213.10 348.2354
1213.20 348.3685
1213.30 348.5017
1213.40 348.6348
1213.50 348.768
1213.60 348.9011
1213.70 349.0343
1213.80 349.1674
1213.90 349.3006
1214.00 349.4337
1214.10 349.5669
1214.20 349.7
1214.30 349.8332
1214.40 349.9663
1214.50 350.0995
1214.60 350.2326
1214.70 350.3657
1214.80 350.4989
1214.90 350.632
1215.00 350.7652
1215.10 350.8983
1215.20 351.0315
1215.30 351.1646
1215.40 351.2978
1215.50 351.4309
1215.60 351.5641
1215.70 351.6972
1215.80 351.8304
1215.90 352.2506
1216.00 352.6709
1216.10 353.0912
1216.20 353.5114
1216.30 353.9317
1216.40 354.352
1216.50 354.7723
1216.60 355.1925
1216.70 355.6128
1216.80 356.0331
1216.90 356.4534
1217.00 356.8736
1217.10 357.2939
1217.20 357.7142
1217.30 358.1344
1217.40 358.5547
1217.50 358.975
1217.60 359.3953
1217.70 359.8155
1217.80 360.2358
1217.90 360.6561
1218.00 361.0764
1218.10 361.4966
1218.20 361.9169
1218.30 362.3372
1218.40 362.7574
1218.50 363.1777
1218.60 363.598
1218.70 364.0183
1218.80 364.4385
1218.90 364.8588
1219.00 365.2791
1219.10 365.6993
1219.20 366.1196
1219.30 366.5399
1219.40 366.9602
1219.50 367.3804
1219.60 367.8007
1219.70 368.221
1219.80 368.6413
1219.90 369.0615
1220.00 369.4818
1220.10 369.8783
1220.20 370.0604
1220.30 370.2426
1220.40 370.4248
1220.50 370.607
1220.60 370.7892
1220.70 370.9714
1220.80 371.1535
1220.90 371.3357
1221.00 371.5179
1221.10 371.7001
1221.20 371.8823
1221.30 372.0644
1221.40 372.2466
1221.50 372.4288
1221.60 372.611
1221.70 372.7932
1221.80 372.9754
1221.90 373.1575
1222.00 373.3397
1222.10 373.5219
1222.20 373.7041
1222.30 373.8863
1222.40 374.0685
1222.50 374.2506
1222.60 374.4328
1222.70 374.615
1222.80 374.7972
1222.90 374.9794
1223.00 375.1615
1223.10 375.3437
1223.20 375.5259
1223.30 375.7081
1223.40 375.8903
1223.50 376.0725
1223.60 376.2546
1223.70 376.4368
1223.80 376.619
1223.90 376.8012
1224.00 376.9834
1224.10 377.1656
1224.20 377.3477
1224.30 377.5299
1224.40 377.6883
1224.50 377.7514
1224.60 377.8146
1224.70 377.8777
1224.80 377.9408
1224.90 378.0039
1225.00 378.0671
1225.10 378.1302
1225.20 378.1933
1225.30 378.2565
1225.40 378.3196
1225.50 378.3827
1225.60 378.4459
1225.70 378.509
1225.80 378.5721
1225.90 378.6353
1226.00 378.6984
1226.10 378.7615
1226.20 378.8247
1226.30 378.8878
1226.40 378.9509
1226.50 379.0141
1226.60 379.0772
1226.70 379.1403
1226.80 379.2034
1226.90 379.2666
1227.00 379.3297
1227.10 379.3928
1227.20 379.456
1227.30 379.5191
1227.40 379.5822
1227.50 379.6454
1227.60 379.7085
1227.70 379.7716
1227.80 379.8348
1227.90 379.8979
1228.00 379.961
1228.10 380.0242
1228.20 380.0873
1228.30 380.1504
1228.40 380.2136
1228.50 380.2767
1228.60 380.3398
1228.70 380.3471
1228.80 380.1308
1228.90 379.9146
1229.00 379.6983
1229.10 379.482
1229.20 379.2658
1229.30 379.0495
1229.40 378.8333
1229.50 378.617
1229.60 378.4008
1229.70 378.1845
1229.80 377.9683
1229.90 377.752
1230.00 377.5357
1230.10 377.3195
1230.20 377.1032
1230.30 376.887
1230.40 376.6707
1230.50 376.4545
1230.60 376.2382
1230.70 376.022
1230.80 375.8057
1230.90 375.5894
1231.00 375.3732
1231.10 375.1569
1231.20 374.9407
1231.30 374.7244
1231.40 374.5082
1231.50 374.2919
1231.60 374.0757
1231.70 373.8594
1231.80 373.6432
1231.90 373.4269
1232.00 373.2106
1232.10 372.9944
1232.20 372.7781
1232.30 372.5619
1232.40 372.3456
1232.50 372.1294
1232.60 371.9131
1232.70 371.6969
1232.80 371.4806
1232.90 371.2643
1233.00 371.0191
1233.10 370.6579
1233.20 370.2967
1233.30 369.9355
1233.40 369.5742
1233.50 369.213
1233.60 368.8518
1233.70 368.4906
1233.80 368.1294
1233.90 367.7682
1234.00 367.407
1234.10 367.0458
1234.20 366.6846
1234.30 366.3233
1234.40 365.9621
1234.50 365.6009
1234.60 365.2397
1234.70 364.8785
1234.80 364.5173
1234.90 364.1561
1235.00 363.7949
1235.10 363.4337
1235.20 363.0724
1235.30 362.7112
1235.40 362.35
1235.50 361.9888
1235.60 361.6276
1235.70 361.2664
1235.80 360.9052
1235.90 360.544
1236.00 360.1827
1236.10 359.8215
1236.20 359.4603
1236.30 359.0991
1236.40 358.7379
1236.50 358.3767
1236.60 358.0155
1236.70 357.6543
1236.80 357.2931
1236.90 356.9318
1237.00 356.5706
1237.10 356.2094
1237.20 355.8482
1237.30 355.5205
1237.40 355.3269
1237.50 355.1333
1237.60 354.9397
1237.70 354.7461
1237.80 354.5524
1237.90 354.3588
1238.00 354.1652
1238.10 353.9716
1238.20 353.778
1238.30 353.5844
1238.40 353.3907
1238.50 353.1971
1238.60 353.0035
1238.70 352.8099
1238.80 352.6163
1238.90 352.4227
1239.00 352.2291
1239.10 352.0354
1239.20 351.8418
1239.30 351.6482
1239.40 351.4546
1239.50 351.261
1239.60 351.0674
1239.70 350.8737
1239.80 350.6801
1239.90 350.4865
1240.00 350.2929
1240.10 350.0993
1240.20 349.9057
1240.30 349.712
1240.40 349.5184
1240.50 349.3248
1240.60 349.1312
1240.70 348.9376
1240.80 348.744
1240.90 348.5504
1241.00 348.3567
1241.10 348.1631
1241.20 347.9695
1241.30 347.7759
1241.40 347.5823
1241.50 347.3887
1241.60 347.1987
1241.70 347.0417
1241.80 346.8847
1241.90 346.7277
1242.00 346.5707
1242.10 346.4137
1242.20 346.2567
1242.30 346.0998
1242.40 345.9428
1242.50 345.7858
1242.60 345.6288
1242.70 345.4718
1242.80 345.3148
1242.90 345.1578
1243.00 345.0008
1243.10 344.8438
1243.20 344.6868
1243.30 344.5298
1243.40 344.3728
1243.50 344.2158
1243.60 344.0589
1243.70 343.9019
1243.80 343.7449
1243.90 343.5879
1244.00 343.4309
1244.10 343.2739
1244.20 343.1169
1244.30 342.9599
1244.40 342.8029
1244.50 342.6459
1244.60 342.4889
1244.70 342.3319
1244.80 342.1749
1244.90 342.0179
1245.00 341.861
1245.10 341.704
1245.20 341.547
1245.30 341.39
1245.40 341.233
1245.50 341.076
1245.60 340.919
1245.70 340.762
1245.80 340.605
1245.90 340.448
1246.00 340.7492
1246.10 341.0503
1246.20 341.3514
1246.30 341.6526
1246.40 341.9537
1246.50 342.2549
1246.60 342.556
1246.70 342.8571
1246.80 343.1583
1246.90 343.4594
1247.00 343.7606
1247.10 344.0617
1247.20 344.3628
1247.30 344.664
1247.40 344.9651
1247.50 345.2663
1247.60 345.5674
1247.70 345.8685
1247.80 346.1697
1247.90 346.4708
1248.00 346.772
1248.10 347.0731
1248.20 347.3742
1248.30 347.6754
1248.40 347.9765
1248.50 348.2776
1248.60 348.5788
1248.70 348.8799
1248.80 349.1811
1248.90 349.4822
1249.00 349.7833
1249.10 350.0845
1249.20 350.3856
1249.30 350.6868
1249.40 350.9879
1249.50 351.289
1249.60 351.5902
1249.70 351.8913
1249.80 352.1925
1249.90 352.4936
1250.00 352.7947
1250.10 353.0959
1250.20 353.397
1250.30 353.6508
1250.40 353.9046
1250.50 354.1583
1250.60 354.4121
1250.70 354.6659
1250.80 354.9196
1250.90 355.1734
1251.00 355.4272
1251.10 355.681
1251.20 355.9347
1251.30 356.1885
1251.40 356.4423
1251.50 356.696
1251.60 356.9498
1251.70 357.2036
1251.80 357.4574
1251.90 357.7111
1252.00 357.9649
1252.10 358.2187
1252.20 358.4724
1252.30 358.7262
1252.40 358.98
1252.50 359.2337
1252.60 359.4875
1252.70 359.7413
1252.80 359.9951
1252.90 360.2488
1253.00 360.5026
1253.10 360.7564
1253.20 361.0101
1253.30 361.2639
1253.40 361.5177
1253.50 361.7715
1253.60 362.0252
1253.70 362.279
1253.80 362.5328
1253.90 362.7865
1254.00 363.0403
1254.10 363.2941
1254.20 363.5478
1254.30 363.8016
1254.40 364.0554
1254.50 364.3092
1254.60 364.7262
1254.70 365.1614
1254.80 365.5966
1254.90 366.0318
1255.00 366.4671
1255.10 366.9023
1255.20 367.3375
1255.30 367.7727
1255.40 368.2079
1255.50 368.6431
1255.60 369.0783
1255.70 369.5135
1255.80 369.9487
1255.90 370.3839
1256.00 370.8192
1256.10 371.2544
1256.20 371.6896
1256.30 372.1248
1256.40 372.56
1256.50 372.9952
1256.60 373.4304
1256.70 373.8656
1256.80 374.3008
1256.90 374.736
1257.00 375.1712
1257.10 375.6065
1257.20 376.0417
1257.30 376.4769
1257.40 376.9121
1257.50 377.3473
1257.60 377.7825
1257.70 378.2177
1257.80 378.6529
1257.90 379.0881
1258.00 379.5233
1258.10 379.9585
1258.20 380.3938
1258.30 380.829
1258.40 381.2642
1258.50 381.6994
1258.60 382.1346
1258.70 382.5698
1258.80 383.005
1258.90 383.456
1259.00 383.9138
1259.10 384.3716
1259.20 384.8293
1259.30 385.2871
1259.40 385.7449
1259.50 386.2027
1259.60 386.6604
1259.70 387.1182
1259.80 387.576
1259.90 388.0338
1260.00 388.4915
1260.10 388.9493
1260.20 389.4071
1260.30 389.8649
1260.40 390.3226
1260.50 390.7804
1260.60 391.2382
1260.70 391.696
1260.80 392.1538
1260.90 392.6115
1261.00 393.0693
1261.10 393.5271
1261.20 393.9849
1261.30 394.4426
1261.40 394.9004
1261.50 395.3582
1261.60 395.816
1261.70 396.2737
1261.80 396.7315
1261.90 397.1893
1262.00 397.6471
1262.10 398.1048
1262.20 398.5626
1262.30 399.0204
1262.40 399.4782
1262.50 399.9359
1262.60 400.3937
1262.70 400.8515
1262.80 401.3093
1262.90 401.767
1263.00 402.2248
1263.10 402.6826
1263.20 403.0279
1263.30 403.2982
1263.40 403.5685
1263.50 403.8387
1263.60 404.109
1263.70 404.3793
1263.80 404.6496
1263.90 404.9199
1264.00 405.1902
1264.10 405.4605
1264.20 405.7308
1264.30 406.0011
1264.40 406.2714
1264.50 406.5417
1264.60 406.8119
1264.70 407.0822
1264.80 407.3525
1264.90 407.6228
1265.00 407.8931
1265.10 408.1634
1265.20 408.4337
1265.30 408.704
1265.40 408.9743
1265.50 409.2446
1265.60 409.5148
1265.70 409.7851
1265.80 410.0554
1265.90 410.3257
1266.00 410.596
1266.10 410.8663
1266.20 411.1366
1266.30 411.4069
1266.40 411.6772
1266.50 411.9475
1266.60 412.2178
1266.70 412.488
1266.80 412.7583
1266.90 413.0286
1267.00 413.2989
1267.10 413.5692
1267.20 413.8395
1267.30 414.1098
1267.40 414.3801
1267.50 414.6351
1267.60 414.8749
1267.70 415.1147
1267.80 415.3545
1267.90 415.5943
1268.00 415.8341
1268.10 416.0739
1268.20 416.3137
1268.30 416.5535
1268.40 416.7933
1268.50 417.0331
1268.60 417.2729
1268.70 417.5127
1268.80 417.7525
1268.90 417.9923
1269.00 418.2321
1269.10 418.4719
1269.20 418.7117
1269.30 418.9515
1269.40 419.1913
1269.50 419.4311
1269.60 419.6709
1269.70 419.9107
1269.80 420.1505
1269.90 420.3903
1270.00 420.6301
1270.10 420.8699
1270.20 421.1097
1270.30 421.3495
1270.40 421.5893
1270.50 421.8291
1270.60 422.0689
1270.70 422.3087
1270.80 422.5485
1270.90 422.7883
1271.00 423.0281
1271.10 423.2679
1271.20 423.5077
1271.30 423.7475
1271.40 423.9873
1271.50 424.227
1271.60 424.4668
1271.70 424.7066
1271.80 424.8799
1271.90 424.8978
1272.00 424.9157
1272.10 424.9336
1272.20 424.9515
1272.30 424.9695
1272.40 424.9874
1272.50 425.0053
1272.60 425.0232
1272.70 425.0411
1272.80 425.059
1272.90 425.0769
1273.00 425.0949
1273.10 425.1128
1273.20 425.1307
1273.30 425.1486
1273.40 425.1665
1273.50 425.1844
1273.60 425.2023
1273.70 425.2203
1273.80 425.2382
1273.90 425.2561
1274.00 425.274
1274.10 425.2919
1274.20 425.3098
1274.30 425.3278
1274.40 425.3457
1274.50 425.3636
1274.60 425.3815
1274.70 425.3994
1274.80 425.4173
1274.90 425.4352
1275.00 425.4532
1275.10 425.4711
1275.20 425.489
1275.30 425.5069
1275.40 425.5248
1275.50 425.5427
1275.60 425.5607
1275.70 425.5786
1275.80 425.5965
1275.90 425.6144
1276.00 425.6323
1276.10 425.6378
1276.20 425.5319
1276.30 425.426
1276.40 425.32
1276.50 425.2141
1276.60 425.1081
1276.70 425.0022
1276.80 424.8962
1276.90 424.7903
1277.00 424.6843
1277.10 424.5784
1277.20 424.4725
1277.30 424.3665
1277.40 424.2606
1277.50 424.1546
1277.60 424.0487
1277.70 423.9427
1277.80 423.8368
1277.90 423.7308
1278.00 423.6249
1278.10 423.519
1278.20 423.413
1278.30 423.3071
1278.40 423.2011
1278.50 423.0952
1278.60 422.9892
1278.70 422.8833
1278.80 422.7773
1278.90 422.6714
1279.00 422.5655
1279.10 422.4595
1279.20 422.3536
1279.30 422.2476
1279.40 422.1417
1279.50 422.0357
1279.60 421.9298
1279.70 421.8238
1279.80 421.7179
1279.90 421.612
1280.00 421.506
1280.10 421.4001
1280.20 421.2941
1280.30 421.1882
1280.40 421.0822
1280.50 421.0702
1280.60 421.0582
1280.70 421.0461
1280.80 421.0341
1280.90 421.0221
1281.00 421.0101
1281.10 420.998
1281.20 420.986
1281.30 420.974
1281.40 420.9619
1281.50 420.9499
1281.60 420.9379
1281.70 420.9259
1281.80 420.9138
1281.90 420.9018
1282.00 420.8898
1282.10 420.8777
1282.20 420.8657
1282.30 420.8537
1282.40 420.8417
1282.50 420.8296
1282.60 420.8176
1282.70 420.8056
1282.80 420.7935
1282.90 420.7815
1283.00 420.7695
1283.10 420.7575
1283.20 420.7454
1283.30 420.7334
1283.40 420.7214
1283.50 420.7093
1283.60 420.6973
1283.70 420.6853
1283.80 420.6733
1283.90 420.6612
1284.00 420.6492
1284.10 420.6372
1284.20 420.6251
1284.30 420.6131
1284.40 420.6011
1284.50 420.5891
1284.60 420.577
1284.70 420.565
1284.80 420.6257
1284.90 420.7045
1285.00 420.7833
1285.10 420.8621
1285.20 420.941
1285.30 421.0198
1285.40 421.0986
1285.50 421.1774
1285.60 421.2563
1285.70 421.3351
1285.80 421.4139
1285.90 421.4927
1286.00 421.5716
1286.10 421.6504
1286.20 421.7292
1286.30 421.8081
1286.40 421.8869
1286.50 421.9657
1286.60 422.0445
1286.70 422.1234
1286.80 422.2022
1286.90 422.281
1287.00 422.3598
1287.10 422.4387
1287.20 422.5175
1287.30 422.5963
1287.40 422.6751
1287.50 422.754
1287.60 422.8328
1287.70 422.9116
1287.80 422.9904
1287.90 423.0693
1288.00 423.1481
1288.10 423.2269
1288.20 423.3058
1288.30 423.3846
1288.40 423.4634
1288.50 423.5422
1288.60 423.6211
1288.70 423.6999
1288.80 423.7787
1288.90 423.8575
1289.00 423.9364
1289.10 423.8637
1289.20 423.69
1289.30 423.5163
1289.40 423.3425
1289.50 423.1688
1289.60 422.9951
1289.70 422.8214
1289.80 422.6477
1289.90 422.474
1290.00 422.3003
1290.10 422.1266
1290.20 421.9529
1290.30 421.7792
1290.40 421.6055
1290.50 421.4318
1290.60 421.258
1290.70 421.0843
1290.80 420.9106
1290.90 420.7369
1291.00 420.5632
1291.10 420.3895
1291.20 420.2158
1291.30 420.0421
1291.40 419.8684
1291.50 419.6947
1291.60 419.521
1291.70 419.3473
1291.80 419.1735
1291.90 418.9998
1292.00 418.8261
1292.10 418.6524
1292.20 418.4787
1292.30 418.305
1292.40 418.1313
1292.50 417.9576
1292.60 417.7839
1292.70 417.6102
1292.80 417.4365
1292.90 417.2628
1293.00 417.089
1293.10 416.9153
1293.20 416.7416
1293.30 416.5679
1293.40 416.4504
1293.50 416.4171
1293.60 416.3837
1293.70 416.3504
1293.80 416.3171
1293.90 416.2838
1294.00 416.2505
1294.10 416.2172
1294.20 416.1839
1294.30 416.1505
1294.40 416.1172
1294.50 416.0839
1294.60 416.0506
1294.70 416.0173
1294.80 415.984
1294.90 415.9507
1295.00 415.9174
1295.10 415.884
1295.20 415.8507
1295.30 415.8174
1295.40 415.7841
1295.50 415.7508
1295.60 415.7175
1295.70 415.6842
1295.80 415.6508
1295.90 415.6175
1296.00 415.5842
1296.10 415.5509
1296.20 415.5176
1296.30 415.4843
1296.40 415.451
1296.50 415.4177
1296.60 415.3843
1296.70 415.351
1296.80 415.3177
1296.90 415.2844
1297.00 415.2511
1297.10 415.2178
1297.20 415.1845
1297.30 415.1511
1297.40 415.1178
1297.50 415.0845
1297.60 415.0512
1297.70 415.0316
1297.80 415.0668
1297.90 415.1019
1298.00 415.1371
1298.10 415.1723
1298.20 415.2074
1298.30 415.2426
1298.40 415.2778
1298.50 415.3129
1298.60 415.3481
1298.70 415.3833
1298.80 415.4184
1298.90 415.4536
1299.00 415.4888
1299.10 415.524
1299.20 415.5591
1299.30 415.5943
1299.40 415.6295
1299.50 415.6646
1299.60 415.6998
1299.70 415.735
1299.80 415.7701
1299.90 415.8053
