# Version 2.1 - nm, norm@500 to 1, cut digits
# Wavelength(nm)  Flambda(ergs/cm^s/s/nm)
300.00 1.232401e-95
300.10 1.232401e-95
300.20 1.232401e-95
300.30 1.232401e-95
300.40 1.232401e-95
300.50 1.232401e-95
300.60 1.232401e-95
300.70 1.232401e-95
300.80 1.232401e-95
300.90 1.232401e-95
301.00 1.232401e-95
301.10 1.232401e-95
301.20 1.232401e-95
301.30 1.232401e-95
301.40 1.232401e-95
301.50 1.232401e-95
301.60 1.232401e-95
301.70 1.232401e-95
301.80 1.232401e-95
301.90 1.232401e-95
302.00 1.232401e-95
302.10 1.232401e-95
302.20 1.232401e-95
302.30 1.232401e-95
302.40 1.232401e-95
302.50 1.232401e-95
302.60 1.232401e-95
302.70 1.232401e-95
302.80 1.232401e-95
302.90 1.232401e-95
303.00 1.232401e-95
303.10 1.232401e-95
303.20 1.232401e-95
303.30 1.232401e-95
303.40 1.232401e-95
303.50 1.232401e-95
303.60 1.232401e-95
303.70 1.232401e-95
303.80 1.232401e-95
303.90 1.232401e-95
304.00 1.232401e-95
304.10 1.232401e-95
304.20 1.232401e-95
304.30 1.232401e-95
304.40 1.232401e-95
304.50 1.232401e-95
304.60 1.232401e-95
304.70 1.232401e-95
304.80 1.232401e-95
304.90 1.232401e-95
305.00 1.232401e-95
305.10 1.232401e-95
305.20 1.232401e-95
305.30 1.232401e-95
305.40 1.232401e-95
305.50 1.232401e-95
305.60 1.232401e-95
305.70 1.232401e-95
305.80 1.232401e-95
305.90 1.232401e-95
306.00 1.232401e-95
306.10 1.232401e-95
306.20 1.232401e-95
306.30 1.232401e-95
306.40 1.232401e-95
306.50 1.232401e-95
306.60 1.232401e-95
306.70 1.232401e-95
306.80 1.232401e-95
306.90 1.232401e-95
307.00 1.232401e-95
307.10 1.232401e-95
307.20 1.232401e-95
307.30 1.232401e-95
307.40 1.232401e-95
307.50 1.232401e-95
307.60 1.232401e-95
307.70 1.232401e-95
307.80 1.232401e-95
307.90 1.232401e-95
308.00 1.232401e-95
308.10 1.232401e-95
308.20 1.232401e-95
308.30 1.232401e-95
308.40 1.232401e-95
308.50 1.232401e-95
308.60 1.232401e-95
308.70 1.232401e-95
308.80 1.232401e-95
308.90 1.232401e-95
309.00 1.232401e-95
309.10 1.232401e-95
309.20 1.232401e-95
309.30 1.232401e-95
309.40 1.232401e-95
309.50 1.232401e-95
309.60 1.232401e-95
309.70 1.232401e-95
309.80 1.232401e-95
309.90 1.232401e-95
310.00 1.232401e-95
310.10 1.232401e-95
310.20 1.232401e-95
310.30 1.232401e-95
310.40 1.232401e-95
310.50 1.232401e-95
310.60 1.232401e-95
310.70 1.232401e-95
310.80 1.232401e-95
310.90 1.232401e-95
311.00 1.232401e-95
311.10 1.232401e-95
311.20 1.232401e-95
311.30 1.232401e-95
311.40 1.232401e-95
311.50 1.232401e-95
311.60 1.232401e-95
311.70 1.232401e-95
311.80 1.232401e-95
311.90 1.232401e-95
312.00 1.232401e-95
312.10 1.232401e-95
312.20 1.232401e-95
312.30 1.232401e-95
312.40 1.232401e-95
312.50 1.232401e-95
312.60 1.232401e-95
312.70 1.232401e-95
312.80 1.232401e-95
312.90 1.232401e-95
313.00 1.232401e-95
313.10 1.232401e-95
313.20 1.232401e-95
313.30 1.232401e-95
313.40 1.232401e-95
313.50 1.232401e-95
313.60 1.232401e-95
313.70 1.232401e-95
313.80 1.232401e-95
313.90 1.232401e-95
314.00 1.232401e-95
314.10 1.232401e-95
314.20 1.232401e-95
314.30 1.232401e-95
314.40 1.232401e-95
314.50 1.232401e-95
314.60 1.232401e-95
314.70 1.232401e-95
314.80 1.232401e-95
314.90 1.232401e-95
315.00 1.232401e-95
315.10 1.232401e-95
315.20 1.232401e-95
315.30 1.232401e-95
315.40 1.232401e-95
315.50 1.232401e-95
315.60 1.232401e-95
315.70 1.232401e-95
315.80 1.232401e-95
315.90 1.232401e-95
316.00 1.232401e-95
316.10 1.232401e-95
316.20 1.232401e-95
316.30 1.232401e-95
316.40 1.232401e-95
316.50 1.232401e-95
316.60 1.232401e-95
316.70 1.232401e-95
316.80 1.232401e-95
316.90 1.232401e-95
317.00 1.232401e-95
317.10 1.232401e-95
317.20 1.232401e-95
317.30 1.232401e-95
317.40 1.232401e-95
317.50 1.232401e-95
317.60 1.232401e-95
317.70 1.232401e-95
317.80 1.232401e-95
317.90 1.232401e-95
318.00 1.232401e-95
318.10 1.232401e-95
318.20 1.232401e-95
318.30 1.232401e-95
318.40 1.232401e-95
318.50 1.232401e-95
318.60 1.232401e-95
318.70 1.232401e-95
318.80 1.232401e-95
318.90 1.232401e-95
319.00 1.232401e-95
319.10 1.232401e-95
319.20 1.232401e-95
319.30 1.232401e-95
319.40 1.232401e-95
319.50 1.232401e-95
319.60 1.232401e-95
319.70 1.232401e-95
319.80 1.232401e-95
319.90 1.232401e-95
320.00 1.232401e-95
320.10 1.232401e-95
320.20 1.232401e-95
320.30 1.232401e-95
320.40 1.232401e-95
320.50 1.232401e-95
320.60 1.232401e-95
320.70 1.232401e-95
320.80 1.232401e-95
320.90 1.232401e-95
321.00 1.232401e-95
321.10 1.232401e-95
321.20 1.232401e-95
321.30 1.232401e-95
321.40 1.232401e-95
321.50 1.232401e-95
321.60 1.232401e-95
321.70 1.232401e-95
321.80 1.232401e-95
321.90 1.232401e-95
322.00 1.232401e-95
322.10 1.232401e-95
322.20 1.232401e-95
322.30 1.232401e-95
322.40 1.232401e-95
322.50 1.232401e-95
322.60 1.232401e-95
322.70 1.232401e-95
322.80 1.232401e-95
322.90 1.232401e-95
323.00 1.232401e-95
323.10 1.232401e-95
323.20 1.232401e-95
323.30 1.232401e-95
323.40 1.232401e-95
323.50 1.232401e-95
323.60 1.232401e-95
323.70 1.232401e-95
323.80 1.232401e-95
323.90 1.232401e-95
324.00 1.232401e-95
324.10 1.232401e-95
324.20 1.232401e-95
324.30 1.232401e-95
324.40 1.232401e-95
324.50 1.232401e-95
324.60 1.232401e-95
324.70 1.232401e-95
324.80 1.232401e-95
324.90 1.232401e-95
325.00 1.232401e-95
325.10 1.232401e-95
325.20 1.232401e-95
325.30 1.232401e-95
325.40 1.232401e-95
325.50 1.232401e-95
325.60 1.232401e-95
325.70 1.232401e-95
325.80 1.232401e-95
325.90 1.232401e-95
326.00 1.232401e-95
326.10 1.232401e-95
326.20 1.232401e-95
326.30 1.232401e-95
326.40 1.232401e-95
326.50 1.232401e-95
326.60 1.232401e-95
326.70 1.232401e-95
326.80 1.232401e-95
326.90 1.232401e-95
327.00 1.232401e-95
327.10 1.232401e-95
327.20 1.232401e-95
327.30 1.232401e-95
327.40 1.232401e-95
327.50 1.232401e-95
327.60 1.232401e-95
327.70 1.232401e-95
327.80 1.232401e-95
327.90 1.232401e-95
328.00 1.232401e-95
328.10 1.232401e-95
328.20 1.232401e-95
328.30 1.232401e-95
328.40 1.232401e-95
328.50 1.232401e-95
328.60 1.232401e-95
328.70 1.232401e-95
328.80 1.232401e-95
328.90 1.232401e-95
329.00 1.232401e-95
329.10 1.232401e-95
329.20 1.232401e-95
329.30 1.232401e-95
329.40 1.232401e-95
329.50 1.232401e-95
329.60 1.232401e-95
329.70 1.232401e-95
329.80 1.232401e-95
329.90 1.232401e-95
330.00 1.232401e-95
330.10 1.232401e-95
330.20 1.232401e-95
330.30 1.232401e-95
330.40 1.232401e-95
330.50 1.232401e-95
330.60 1.232401e-95
330.70 1.232401e-95
330.80 1.232401e-95
330.90 1.232401e-95
331.00 1.232401e-95
331.10 1.232401e-95
331.20 1.232401e-95
331.30 1.232401e-95
331.40 1.232401e-95
331.50 1.232401e-95
331.60 1.232401e-95
331.70 1.232401e-95
331.80 1.232401e-95
331.90 1.232401e-95
332.00 1.232401e-95
332.10 1.232401e-95
332.20 1.232401e-95
332.30 1.232401e-95
332.40 1.232401e-95
332.50 1.232401e-95
332.60 1.232401e-95
332.70 1.232401e-95
332.80 1.232401e-95
332.90 1.232401e-95
333.00 1.232401e-95
333.10 1.232401e-95
333.20 1.232401e-95
333.30 1.232401e-95
333.40 1.232401e-95
333.50 1.232401e-95
333.60 1.232401e-95
333.70 1.232401e-95
333.80 1.232401e-95
333.90 1.232401e-95
334.00 1.232401e-95
334.10 1.232401e-95
334.20 1.232401e-95
334.30 1.232401e-95
334.40 1.232401e-95
334.50 1.232401e-95
334.60 1.232401e-95
334.70 1.232401e-95
334.80 1.232401e-95
334.90 1.232401e-95
335.00 1.232401e-95
335.10 1.232401e-95
335.20 1.232401e-95
335.30 1.232401e-95
335.40 1.232401e-95
335.50 1.232401e-95
335.60 1.232401e-95
335.70 1.232401e-95
335.80 1.232401e-95
335.90 1.232401e-95
336.00 1.232401e-95
336.10 1.232401e-95
336.20 1.232401e-95
336.30 1.232401e-95
336.40 1.232401e-95
336.50 1.232401e-95
336.60 1.232401e-95
336.70 1.232401e-95
336.80 1.232401e-95
336.90 1.232401e-95
337.00 1.232401e-95
337.10 1.232401e-95
337.20 1.232401e-95
337.30 1.232401e-95
337.40 1.232401e-95
337.50 1.232401e-95
337.60 1.232401e-95
337.70 1.232401e-95
337.80 1.232401e-95
337.90 1.232401e-95
338.00 1.232401e-95
338.10 1.232401e-95
338.20 1.232401e-95
338.30 1.232401e-95
338.40 1.232401e-95
338.50 1.232401e-95
338.60 1.232401e-95
338.70 1.232401e-95
338.80 1.232401e-95
338.90 1.232401e-95
339.00 1.232401e-95
339.10 1.232401e-95
339.20 1.232401e-95
339.30 1.232401e-95
339.40 1.232401e-95
339.50 1.232401e-95
339.60 1.232401e-95
339.70 1.232401e-95
339.80 1.232401e-95
339.90 1.232401e-95
340.00 1.232401e-95
340.10 1.232401e-95
340.20 1.232401e-95
340.30 1.232401e-95
340.40 1.232401e-95
340.50 1.232401e-95
340.60 1.232401e-95
340.70 1.232401e-95
340.80 1.232401e-95
340.90 1.232401e-95
341.00 1.232401e-95
341.10 1.232401e-95
341.20 1.232401e-95
341.30 1.232401e-95
341.40 1.232401e-95
341.50 1.232401e-95
341.60 1.232401e-95
341.70 1.232401e-95
341.80 1.232401e-95
341.90 1.232401e-95
342.00 1.232401e-95
342.10 1.232401e-95
342.20 1.232401e-95
342.30 1.232401e-95
342.40 1.232401e-95
342.50 1.232401e-95
342.60 1.232401e-95
342.70 1.232401e-95
342.80 1.232401e-95
342.90 1.232401e-95
343.00 1.232401e-95
343.10 1.232401e-95
343.20 1.232401e-95
343.30 1.232401e-95
343.40 1.232401e-95
343.50 1.232401e-95
343.60 1.232401e-95
343.70 1.232401e-95
343.80 1.232401e-95
343.90 1.232401e-95
344.00 1.232401e-95
344.10 1.232401e-95
344.20 1.232401e-95
344.30 1.232401e-95
344.40 1.232401e-95
344.50 1.232401e-95
344.60 1.232401e-95
344.70 1.232401e-95
344.80 1.232401e-95
344.90 1.232401e-95
345.00 1.232401e-95
345.10 1.232401e-95
345.20 1.232401e-95
345.30 1.232401e-95
345.40 1.232401e-95
345.50 1.232401e-95
345.60 1.232401e-95
345.70 1.232401e-95
345.80 1.232401e-95
345.90 1.232401e-95
346.00 1.232401e-95
346.10 1.232401e-95
346.20 1.232401e-95
346.30 1.232401e-95
346.40 1.232401e-95
346.50 1.232401e-95
346.60 1.232401e-95
346.70 1.232401e-95
346.80 1.232401e-95
346.90 1.232401e-95
347.00 1.232401e-95
347.10 1.232401e-95
347.20 1.232401e-95
347.30 1.232401e-95
347.40 1.232401e-95
347.50 1.232401e-95
347.60 1.232401e-95
347.70 1.232401e-95
347.80 1.232401e-95
347.90 1.232401e-95
348.00 1.232401e-95
348.10 1.232401e-95
348.20 1.232401e-95
348.30 1.232401e-95
348.40 1.232401e-95
348.50 1.232401e-95
348.60 1.232401e-95
348.70 1.232401e-95
348.80 1.232401e-95
348.90 1.232401e-95
349.00 1.232401e-95
349.10 1.232401e-95
349.20 1.232401e-95
349.30 1.232401e-95
349.40 1.232401e-95
349.50 1.232401e-95
349.60 1.232401e-95
349.70 1.232401e-95
349.80 1.232401e-95
349.90 1.232401e-95
350.00 1.232401e-95
350.10 1.232401e-95
350.20 1.232401e-95
350.30 1.232401e-95
350.40 1.232401e-95
350.50 1.232401e-95
350.60 1.232401e-95
350.70 1.232401e-95
350.80 1.232401e-95
350.90 1.232401e-95
351.00 1.232401e-95
351.10 1.232401e-95
351.20 1.232401e-95
351.30 1.232401e-95
351.40 1.232401e-95
351.50 1.232401e-95
351.60 1.232401e-95
351.70 1.232401e-95
351.80 1.232401e-95
351.90 1.232401e-95
352.00 1.232401e-95
352.10 1.232401e-95
352.20 1.232401e-95
352.30 1.232401e-95
352.40 1.232401e-95
352.50 1.232401e-95
352.60 1.232401e-95
352.70 1.232401e-95
352.80 1.232401e-95
352.90 1.232401e-95
353.00 1.232401e-95
353.10 1.232401e-95
353.20 1.232401e-95
353.30 1.232401e-95
353.40 1.232401e-95
353.50 1.232401e-95
353.60 1.232401e-95
353.70 1.232401e-95
353.80 1.232401e-95
353.90 1.232401e-95
354.00 1.232401e-95
354.10 1.232401e-95
354.20 1.232401e-95
354.30 1.232401e-95
354.40 1.232401e-95
354.50 1.232401e-95
354.60 1.232401e-95
354.70 1.232401e-95
354.80 1.232401e-95
354.90 1.232401e-95
355.00 1.232401e-95
355.10 1.232401e-95
355.20 1.232401e-95
355.30 1.232401e-95
355.40 1.232401e-95
355.50 1.232401e-95
355.60 1.232401e-95
355.70 1.232401e-95
355.80 1.232401e-95
355.90 1.232401e-95
356.00 1.232401e-95
356.10 1.232401e-95
356.20 1.232401e-95
356.30 1.232401e-95
356.40 1.232401e-95
356.50 1.232401e-95
356.60 1.232401e-95
356.70 1.232401e-95
356.80 1.232401e-95
356.90 1.232401e-95
357.00 1.232401e-95
357.10 1.232401e-95
357.20 1.232401e-95
357.30 1.232401e-95
357.40 1.232401e-95
357.50 1.232401e-95
357.60 1.232401e-95
357.70 1.232401e-95
357.80 1.232401e-95
357.90 1.232401e-95
358.00 1.232401e-95
358.10 1.232401e-95
358.20 1.232401e-95
358.30 1.232401e-95
358.40 1.232401e-95
358.50 1.232401e-95
358.60 1.232401e-95
358.70 1.232401e-95
358.80 1.232401e-95
358.90 1.232401e-95
359.00 1.232401e-95
359.10 1.232401e-95
359.20 1.232401e-95
359.30 1.232401e-95
359.40 1.232401e-95
359.50 1.232401e-95
359.60 1.232401e-95
359.70 1.232401e-95
359.80 1.232401e-95
359.90 1.232401e-95
360.00 1.232401e-95
360.10 1.232401e-95
360.20 1.232401e-95
360.30 1.232401e-95
360.40 1.232401e-95
360.50 1.232401e-95
360.60 1.232401e-95
360.70 1.232401e-95
360.80 1.232401e-95
360.90 1.232401e-95
361.00 1.232401e-95
361.10 1.232401e-95
361.20 1.232401e-95
361.30 1.232401e-95
361.40 1.232401e-95
361.50 1.232401e-95
361.60 1.232401e-95
361.70 1.232401e-95
361.80 1.232401e-95
361.90 1.232401e-95
362.00 1.232401e-95
362.10 1.232401e-95
362.20 1.232401e-95
362.30 1.232401e-95
362.40 1.232401e-95
362.50 1.232401e-95
362.60 1.232401e-95
362.70 1.232401e-95
362.80 1.232401e-95
362.90 1.232401e-95
363.00 1.232401e-95
363.10 1.232401e-95
363.20 1.232401e-95
363.30 1.232401e-95
363.40 1.232401e-95
363.50 1.232401e-95
363.60 1.232401e-95
363.70 1.232401e-95
363.80 1.232401e-95
363.90 1.232401e-95
364.00 1.232401e-95
364.10 1.232401e-95
364.20 1.232401e-95
364.30 1.232401e-95
364.40 1.232401e-95
364.50 1.232401e-95
364.60 1.232401e-95
364.70 1.232401e-95
364.80 1.232401e-95
364.90 1.232401e-95
365.00 1.232401e-95
365.10 1.232401e-95
365.20 1.232401e-95
365.30 1.232401e-95
365.40 1.232401e-95
365.50 1.232401e-95
365.60 1.232401e-95
365.70 1.232401e-95
365.80 1.232401e-95
365.90 1.232401e-95
366.00 1.232401e-95
366.10 1.232401e-95
366.20 1.232401e-95
366.30 1.232401e-95
366.40 1.232401e-95
366.50 1.232401e-95
366.60 1.232401e-95
366.70 1.232401e-95
366.80 1.232401e-95
366.90 1.232401e-95
367.00 1.232401e-95
367.10 1.232401e-95
367.20 1.232401e-95
367.30 1.232401e-95
367.40 1.232401e-95
367.50 1.232401e-95
367.60 1.232401e-95
367.70 1.232401e-95
367.80 1.232401e-95
367.90 1.232401e-95
368.00 1.232401e-95
368.10 1.232401e-95
368.20 1.232401e-95
368.30 1.232401e-95
368.40 1.232401e-95
368.50 1.232401e-95
368.60 1.232401e-95
368.70 1.232401e-95
368.80 1.232401e-95
368.90 1.232401e-95
369.00 1.232401e-95
369.10 1.232401e-95
369.20 1.232401e-95
369.30 1.232401e-95
369.40 1.232401e-95
369.50 1.232401e-95
369.60 1.232401e-95
369.70 1.232401e-95
369.80 1.232401e-95
369.90 1.232401e-95
370.00 1.232401e-95
370.10 1.232401e-95
370.20 1.232401e-95
370.30 1.232401e-95
370.40 1.232401e-95
370.50 1.232401e-95
370.60 1.232401e-95
370.70 1.232401e-95
370.80 1.232401e-95
370.90 1.232401e-95
371.00 1.232401e-95
371.10 1.232401e-95
371.20 1.232401e-95
371.30 1.232401e-95
371.40 1.232401e-95
371.50 1.232401e-95
371.60 1.232401e-95
371.70 1.232401e-95
371.80 1.232401e-95
371.90 1.232401e-95
372.00 1.232401e-95
372.10 1.232401e-95
372.20 1.232401e-95
372.30 1.232401e-95
372.40 1.232401e-95
372.50 1.232401e-95
372.60 1.232401e-95
372.70 1.232401e-95
372.80 1.232401e-95
372.90 1.232401e-95
373.00 1.232401e-95
373.10 1.232401e-95
373.20 1.232401e-95
373.30 1.232401e-95
373.40 1.232401e-95
373.50 1.232401e-95
373.60 1.232401e-95
373.70 1.232401e-95
373.80 1.232401e-95
373.90 1.232401e-95
374.00 1.232401e-95
374.10 1.232401e-95
374.20 1.232401e-95
374.30 1.232401e-95
374.40 1.232401e-95
374.50 1.232401e-95
374.60 1.232401e-95
374.70 1.232401e-95
374.80 1.232401e-95
374.90 1.232401e-95
375.00 1.232401e-95
375.10 1.232401e-95
375.20 1.232401e-95
375.30 1.232401e-95
375.40 1.232401e-95
375.50 1.232401e-95
375.60 1.232401e-95
375.70 1.232401e-95
375.80 1.232401e-95
375.90 1.232401e-95
376.00 1.232401e-95
376.10 1.232401e-95
376.20 1.232401e-95
376.30 1.232401e-95
376.40 1.232401e-95
376.50 1.232401e-95
376.60 1.232401e-95
376.70 1.232401e-95
376.80 1.232401e-95
376.90 1.232401e-95
377.00 1.232401e-95
377.10 1.232401e-95
377.20 1.232401e-95
377.30 1.232401e-95
377.40 1.232401e-95
377.50 1.232401e-95
377.60 1.232401e-95
377.70 1.232401e-95
377.80 1.232401e-95
377.90 1.232401e-95
378.00 1.232401e-95
378.10 1.232401e-95
378.20 1.232401e-95
378.30 1.232401e-95
378.40 1.232401e-95
378.50 1.232401e-95
378.60 1.232401e-95
378.70 1.232401e-95
378.80 1.232401e-95
378.90 1.232401e-95
379.00 1.232401e-95
379.10 1.232401e-95
379.20 1.232401e-95
379.30 1.232401e-95
379.40 1.232401e-95
379.50 1.232401e-95
379.60 1.232401e-95
379.70 1.232401e-95
379.80 1.232401e-95
379.90 1.232401e-95
380.00 1.232401e-95
380.10 1.232401e-95
380.20 1.232401e-95
380.30 1.232401e-95
380.40 1.232401e-95
380.50 1.232401e-95
380.60 1.232401e-95
380.70 1.232401e-95
380.80 1.232401e-95
380.90 1.232401e-95
381.00 1.232401e-95
381.10 1.232401e-95
381.20 1.232401e-95
381.30 1.232401e-95
381.40 1.232401e-95
381.50 1.232401e-95
381.60 1.232401e-95
381.70 1.232401e-95
381.80 1.232401e-95
381.90 1.232401e-95
382.00 1.232401e-95
382.10 1.232401e-95
382.20 1.232401e-95
382.30 1.232401e-95
382.40 1.232401e-95
382.50 1.232401e-95
382.60 1.232401e-95
382.70 1.232401e-95
382.80 1.232401e-95
382.90 1.232401e-95
383.00 1.232401e-95
383.10 1.232401e-95
383.20 1.232401e-95
383.30 1.232401e-95
383.40 1.232401e-95
383.50 1.232401e-95
383.60 1.232401e-95
383.70 1.232401e-95
383.80 1.232401e-95
383.90 1.232401e-95
384.00 1.232401e-95
384.10 1.232401e-95
384.20 1.232401e-95
384.30 1.232401e-95
384.40 1.232401e-95
384.50 1.232401e-95
384.60 1.232401e-95
384.70 1.232401e-95
384.80 1.232401e-95
384.90 1.232401e-95
385.00 1.232401e-95
385.10 1.232401e-95
385.20 1.232401e-95
385.30 1.232401e-95
385.40 1.232401e-95
385.50 1.232401e-95
385.60 1.232401e-95
385.70 1.232401e-95
385.80 1.232401e-95
385.90 1.232401e-95
386.00 1.232401e-95
386.10 1.232401e-95
386.20 1.232401e-95
386.30 1.232401e-95
386.40 1.232401e-95
386.50 1.232401e-95
386.60 1.232401e-95
386.70 1.232401e-95
386.80 1.232401e-95
386.90 1.232401e-95
387.00 1.232401e-95
387.10 1.232401e-95
387.20 1.232401e-95
387.30 1.232401e-95
387.40 1.232401e-95
387.50 1.232401e-95
387.60 1.232401e-95
387.70 1.232401e-95
387.80 1.232401e-95
387.90 1.232401e-95
388.00 1.232401e-95
388.10 1.232401e-95
388.20 1.232401e-95
388.30 1.232401e-95
388.40 1.232401e-95
388.50 1.232401e-95
388.60 1.232401e-95
388.70 1.232401e-95
388.80 1.232401e-95
388.90 1.232401e-95
389.00 1.232401e-95
389.10 1.232401e-95
389.20 1.232401e-95
389.30 1.232401e-95
389.40 1.232401e-95
389.50 1.232401e-95
389.60 1.232401e-95
389.70 1.232401e-95
389.80 1.232401e-95
389.90 1.232401e-95
390.00 1.232401e-95
390.10 1.232401e-95
390.20 1.232401e-95
390.30 1.232401e-95
390.40 1.232401e-95
390.50 1.232401e-95
390.60 1.232401e-95
390.70 1.232401e-95
390.80 1.232401e-95
390.90 1.232401e-95
391.00 1.232401e-95
391.10 1.232401e-95
391.20 1.232401e-95
391.30 1.232401e-95
391.40 1.232401e-95
391.50 1.232401e-95
391.60 1.232401e-95
391.70 1.232401e-95
391.80 1.232401e-95
391.90 1.232401e-95
392.00 1.232401e-95
392.10 1.232401e-95
392.20 1.232401e-95
392.30 1.232401e-95
392.40 1.232401e-95
392.50 1.232401e-95
392.60 1.232401e-95
392.70 1.232401e-95
392.80 1.232401e-95
392.90 1.232401e-95
393.00 1.232401e-95
393.10 1.232401e-95
393.20 1.232401e-95
393.30 1.232401e-95
393.40 1.232401e-95
393.50 1.232401e-95
393.60 1.232401e-95
393.70 1.232401e-95
393.80 1.232401e-95
393.90 1.232401e-95
394.00 1.232401e-95
394.10 1.232401e-95
394.20 1.232401e-95
394.30 1.232401e-95
394.40 1.232401e-95
394.50 1.232401e-95
394.60 1.232401e-95
394.70 1.232401e-95
394.80 1.232401e-95
394.90 1.232401e-95
395.00 0.006559454
395.10 0.006559454
395.20 0.006559454
395.30 0.006559454
395.40 0.006559454
395.50 0.006559454
395.60 0.006559454
395.70 0.006559454
395.80 0.006559454
395.90 0.006559454
396.00 0.006559454
396.10 0.007674449
396.20 0.008048849
396.30 0.008048849
396.40 0.008048849
396.50 0.008048849
396.60 0.008048849
396.70 0.008048849
396.80 0.008048849
396.90 0.008048849
397.00 0.008048849
397.10 0.008048849
397.20 0.008048849
397.30 0.008048849
397.40 0.008048849
397.50 0.008048849
397.60 0.009692588
397.70 0.02212095
397.80 0.04945492
397.90 0.09196071
398.00 0.1467003
398.10 0.2084523
398.20 0.2700294
398.30 0.3245197
398.40 0.3683761
398.50 0.4018374
398.60 0.4288881
398.70 0.4565084
398.80 0.4930138
398.90 0.5455061
399.00 0.6179297
399.10 0.7112868
399.20 0.8230858
399.30 0.9477062
399.40 1.076984
399.50 1.201082
399.60 1.311174
399.70 1.400528
399.80 1.464791
399.90 1.501291
400.00 1.508764
400.10 1.508764
400.20 1.508764
400.30 1.508764
400.40 1.508764
400.50 1.508764
400.60 1.508764
400.70 1.508764
400.80 1.508764
400.90 1.508764
401.00 1.508764
401.10 1.508764
401.20 1.516694
401.30 1.534605
401.40 1.564215
401.50 1.606149
401.60 1.656911
401.70 1.710434
401.80 1.760195
401.90 1.801036
402.00 1.830981
402.10 1.85117
402.20 1.865116
402.30 1.878967
402.40 1.899066
402.50 1.927733
402.60 1.965191
402.70 2.01231
402.80 2.068701
402.90 2.131699
403.00 2.197918
403.10 2.263946
403.20 2.327575
403.30 2.389353
403.40 2.4525
403.50 2.520312
403.60 2.594498
403.70 2.674156
403.80 2.756071
403.90 2.836542
404.00 2.91251
404.10 2.982471
404.20 3.046087
404.30 3.104173
404.40 3.158829
404.50 3.212932
404.60 3.268586
404.70 3.324572
404.80 3.377863
404.90 3.427255
405.00 3.466224
405.10 3.508238
405.20 3.549251
405.30 3.593279
405.40 3.641337
405.50 3.690406
405.60 3.736077
405.70 3.774574
405.80 3.802946
405.90 3.819388
406.00 3.824198
406.10 3.823083
406.20 3.822709
406.30 3.822709
406.40 3.822709
406.50 3.822709
406.60 3.822709
406.70 3.822709
406.80 3.822709
406.90 3.822709
407.00 3.822709
407.10 3.822709
407.20 3.822709
407.30 3.822709
407.40 3.822709
407.50 3.822709
407.60 3.821065
407.70 3.808637
407.80 3.781303
407.90 3.738797
408.00 3.684057
408.10 3.622306
408.20 3.560728
408.30 3.506238
408.40 3.462382
408.50 3.42892
408.60 3.40187
408.70 3.374249
408.80 3.337744
408.90 3.289337
409.00 3.225059
409.10 3.141323
409.20 3.038474
409.30 2.920957
409.40 2.796183
409.50 2.673482
409.60 2.56339
409.70 2.474037
409.80 2.409774
409.90 2.373273
410.00 2.365801
410.10 2.365801
410.20 2.365801
410.30 2.365801
410.40 2.365801
410.50 2.365801
410.60 2.373961
410.70 2.396425
410.80 2.434787
410.90 2.487235
411.00 2.549537
411.10 2.615847
411.20 2.671637
411.30 2.708762
411.40 2.7213
411.50 2.708362
411.60 2.677069
411.70 2.63902
411.80 2.604581
411.90 2.580527
412.00 2.569697
412.10 2.569377
412.20 2.573084
412.30 2.572421
412.40 2.559471
412.50 2.530804
412.60 2.493346
412.70 2.446227
412.80 2.389836
412.90 2.326838
413.00 2.260619
413.10 2.194591
413.20 2.130962
413.30 2.069184
413.40 2.006037
413.50 1.938225
413.60 1.864039
413.70 1.784381
413.80 1.702466
413.90 1.621995
414.00 1.546027
414.10 1.476066
414.20 1.41245
414.30 1.354364
414.40 1.299708
414.50 1.245604
414.60 1.189951
414.70 1.133965
414.80 1.080674
414.90 1.031282
415.00 0.9857534
415.10 0.9437393
415.20 0.9027267
415.30 0.8586982
415.40 0.8106408
415.50 0.7615719
415.60 0.7159002
415.70 0.6774038
415.80 0.6490319
415.90 0.6378225
416.00 0.6481689
416.10 0.6746841
416.20 0.7127605
416.30 0.7619526
416.40 0.8208337
416.50 0.8864402
416.60 0.9539318
416.70 1.017596
416.80 1.072444
416.90 1.11541
417.00 1.145677
417.10 1.163823
417.20 1.170729
417.30 1.170729
417.40 1.170729
417.50 1.170729
417.60 1.170729
417.70 1.170729
417.80 1.170729
417.90 1.170729
418.00 1.170729
418.10 1.170729
418.20 1.170729
418.30 1.170729
418.40 1.170729
418.50 1.170729
418.60 1.170729
418.70 1.170729
418.80 1.170729
418.90 1.166644
419.00 1.158498
419.10 1.148877
419.20 1.139927
419.30 1.132824
419.40 1.12832
419.50 1.126922
419.60 1.126922
419.70 1.126922
419.80 1.126922
419.90 1.126922
420.00 1.126922
420.10 1.126922
420.20 1.126922
420.30 1.126922
420.40 1.126922
420.50 1.126922
420.60 1.118762
420.70 1.096299
420.80 1.057936
420.90 1.005489
421.00 0.9431865
421.10 0.8768766
421.20 0.8131554
421.30 0.7581195
421.40 0.7159716
421.50 0.6906361
421.60 0.6813449
421.70 0.6815114
421.80 0.6856449
421.90 0.6921934
422.00 0.7010218
422.10 0.7129455
422.20 0.7295701
422.30 0.7512494
422.40 0.7763768
422.50 0.8028261
422.60 0.8204487
422.70 0.8263154
422.80 0.8263154
422.90 0.8263154
423.00 0.8263154
423.10 0.8263154
423.20 0.8263154
423.30 0.8263154
423.40 0.8263154
423.50 0.8263154
423.60 0.8263154
423.70 0.8263154
423.80 0.8263154
423.90 0.8263154
424.00 0.8263154
424.10 0.8263154
424.20 0.8263154
424.30 0.8263154
424.40 0.8263154
424.50 0.8263154
424.60 0.8359906
424.70 0.861087
424.80 0.9023035
424.90 0.9583603
425.00 1.026693
425.10 1.102877
425.20 1.180917
425.30 1.254995
425.40 1.320069
425.50 1.372294
425.60 1.41134
425.70 1.44054
425.80 1.464594
425.90 1.483436
426.00 1.495726
426.10 1.500363
426.20 1.496531
426.30 1.483684
426.40 1.461411
426.50 1.4309
426.60 1.395743
426.70 1.360861
426.80 1.33104
426.90 1.309594
427.00 1.296477
427.10 1.288374
427.20 1.282018
427.30 1.282018
427.40 1.282018
427.50 1.282018
427.60 1.282018
427.70 1.282018
427.80 1.282018
427.90 1.282018
428.00 1.282018
428.10 1.282018
428.20 1.282018
428.30 1.282018
428.40 1.282018
428.50 1.282018
428.60 1.282018
428.70 1.282018
428.80 1.282018
428.90 1.282018
429.00 1.282018
429.10 1.282018
429.20 1.282018
429.30 1.28859
429.40 1.303802
429.50 1.326531
429.60 1.357348
429.70 1.396895
429.80 1.444316
429.90 1.498816
430.00 1.56034
430.10 1.627685
430.20 1.697551
430.30 1.764826
430.40 1.82301
430.50 1.865381
430.60 1.88831
430.70 1.894362
430.80 1.894362
430.90 1.897838
431.00 1.913053
431.10 1.942994
431.20 1.98671
431.30 2.037558
431.40 2.084911
431.50 2.11533
431.60 2.119271
431.70 2.103631
431.80 2.084176
431.90 2.06084
432.00 2.032896
432.10 2.001104
432.20 1.966827
432.30 1.931959
432.40 1.899683
432.50 1.873234
432.60 1.855611
432.70 1.849744
432.80 1.849744
432.90 1.849744
433.00 1.849744
433.10 1.849744
433.20 1.849744
433.30 1.849744
433.40 1.849744
433.50 1.849744
433.60 1.849744
433.70 1.849744
433.80 1.849744
433.90 1.849744
434.00 1.849744
434.10 1.849744
434.20 1.849744
434.30 1.849744
434.40 1.849744
434.50 1.849744
434.60 1.840069
434.70 1.814973
434.80 1.773756
434.90 1.717699
435.00 1.649366
435.10 1.573183
435.20 1.495142
435.30 1.421065
435.40 1.355991
435.50 1.303766
435.60 1.264719
435.70 1.235519
435.80 1.211466
435.90 1.187391
436.00 1.159944
436.10 1.128792
436.20 1.094548
436.30 1.058202
436.40 1.021594
436.50 0.9864984
436.60 0.9542019
436.70 0.9329989
436.80 0.9249836
436.90 0.930071
437.00 0.9461505
437.10 0.9696044
437.20 0.9955825
437.30 1.009456
437.40 1.009456
437.50 1.009456
437.60 1.009456
437.70 1.009456
437.80 1.009456
437.90 1.009456
438.00 1.009456
438.10 1.009456
438.20 1.009456
438.30 1.009456
438.40 1.009456
438.50 1.009456
438.60 1.009456
438.70 1.009456
438.80 1.009456
438.90 1.009456
439.00 1.009456
439.10 1.009456
439.20 1.009456
439.30 1.002884
439.40 0.9876717
439.50 0.9649432
439.60 0.9341261
439.70 0.8945793
439.80 0.8471576
439.90 0.7998205
440.00 0.7533591
440.10 0.706625
440.20 0.6595426
440.30 0.6131691
440.40 0.570633
440.50 0.5376293
440.60 0.5187138
440.70 0.5133811
440.80 0.5133811
440.90 0.5099055
441.00 0.49469
441.10 0.4647486
441.20 0.4210333
441.30 0.3701846
441.40 0.322832
441.50 0.288753
441.60 0.2746334
441.70 0.2746334
441.80 0.2746334
441.90 0.2746334
442.00 0.2746334
442.10 0.2755913
442.20 0.2783311
442.30 0.2804604
442.40 0.2804604
442.50 0.2804604
442.60 0.2804604
442.70 0.2804604
442.80 0.2804604
442.90 0.2804604
443.00 0.2804604
443.10 0.2804604
443.20 0.2804604
443.30 0.2804604
443.40 0.2804604
443.50 0.2804604
443.60 0.2810581
443.70 0.2896271
443.80 0.3046061
443.90 0.3244624
444.00 0.3494844
444.10 0.3803052
444.20 0.4172859
444.30 0.461915
444.40 0.5148186
444.50 0.5741147
444.60 0.6366233
444.70 0.6976004
444.80 0.7503079
444.90 0.7890275
445.00 0.8115665
445.10 0.8186298
445.20 0.8186298
445.30 0.8186298
445.40 0.8186298
445.50 0.8186298
445.60 0.8186298
445.70 0.8186298
445.80 0.8186298
445.90 0.8186298
446.00 0.8186298
446.10 0.8186298
446.20 0.8186298
446.30 0.8186298
446.40 0.8186298
446.50 0.8186298
446.60 0.8185919
446.70 0.8110128
446.80 0.7940002
446.90 0.7673943
447.00 0.7341645
447.10 0.7006669
447.20 0.6741388
447.30 0.6638161
447.40 0.6851846
447.50 0.7241995
447.60 0.7779636
447.70 0.8414114
447.80 0.9082843
447.90 0.9723102
448.00 1.027964
448.10 1.071607
448.20 1.102215
448.30 1.120873
448.40 1.13047
448.50 1.134416
448.60 1.135082
448.70 1.135082
448.80 1.135082
448.90 1.135082
449.00 1.135747
449.10 1.139677
449.20 1.146677
449.30 1.15518
449.40 1.163169
449.50 1.16854
449.60 1.169174
449.70 1.169174
449.80 1.169174
449.90 1.162011
450.00 1.146949
450.10 1.126339
450.20 1.103554
450.30 1.089783
450.40 1.087768
450.50 1.096578
450.60 1.112821
450.70 1.132252
450.80 1.148766
450.90 1.156319
451.00 1.156319
451.10 1.156319
451.20 1.156319
451.30 1.156319
451.40 1.156319
451.50 1.156319
451.60 1.156319
451.70 1.156319
451.80 1.156319
451.90 1.156319
452.00 1.156319
452.10 1.155361
452.20 1.152621
452.30 1.150492
452.40 1.150492
452.50 1.150492
452.60 1.150492
452.70 1.150492
452.80 1.150492
452.90 1.150492
453.00 1.150492
453.10 1.150492
453.20 1.150492
453.30 1.150492
453.40 1.156999
453.50 1.170201
453.60 1.189128
453.70 1.205301
453.80 1.219593
453.90 1.232943
454.00 1.242472
454.10 1.243786
454.20 1.233409
454.30 1.208128
454.40 1.167341
454.50 1.114815
454.60 1.058052
454.70 1.006231
454.80 0.9688248
454.90 0.9521147
455.00 0.9561371
455.10 0.9765316
455.20 1.000878
455.30 1.019535
455.40 1.032762
455.50 1.042084
455.60 1.048588
455.70 1.052352
455.80 1.053072
455.90 1.053072
456.00 1.053072
456.10 1.053072
456.20 1.053072
456.30 1.053072
456.40 1.053072
456.50 1.053072
456.60 1.053072
456.70 1.053072
456.80 1.053072
456.90 1.053072
457.00 1.053072
457.10 1.054056
457.20 1.068764
457.30 1.092215
457.40 1.106158
457.50 1.105696
457.60 1.088465
457.70 1.055125
457.80 1.009335
457.90 0.9559784
458.00 0.9003246
458.10 0.8566817
458.20 0.8260733
458.30 0.8074154
458.40 0.7978183
458.50 0.7938729
458.60 0.8000207
458.70 0.8187992
458.80 0.8490893
458.90 0.8888946
459.00 0.932587
459.10 0.972197
459.20 1.003156
459.30 1.022591
459.40 1.029601
459.50 1.025982
459.60 1.025348
459.70 1.025348
459.80 1.025348
459.90 1.025348
460.00 1.025348
460.10 1.025348
460.20 1.025348
460.30 1.018218
460.40 1.004585
460.50 0.9864074
460.60 0.9661506
460.70 0.9460011
460.80 0.9294866
460.90 0.9219338
461.00 0.9219338
461.10 0.9219338
461.20 0.9219338
461.30 0.9219338
461.40 0.9219338
461.50 0.9219338
461.60 0.9219338
461.70 0.9236754
461.80 0.9281632
461.90 0.9321334
462.00 0.9328092
462.10 0.9328092
462.20 0.9328092
462.30 0.9328092
462.40 0.9328092
462.50 0.9328092
462.60 0.9328092
462.70 0.9328092
462.80 0.9328092
462.90 0.9328092
463.00 0.9328092
463.10 0.9328092
463.20 0.9328092
463.30 0.9328092
463.40 0.9292197
463.50 0.9250618
463.60 0.9188417
463.70 0.9094668
463.80 0.8951732
463.90 0.8738739
464.00 0.8452054
464.10 0.8130701
464.20 0.786467
464.30 0.7671189
464.40 0.7550023
464.50 0.7482318
464.60 0.7424859
464.70 0.7333305
464.80 0.7314434
464.90 0.7358019
465.00 0.7448329
465.10 0.7571306
465.20 0.7714316
465.30 0.7865519
465.40 0.8006765
465.50 0.8126387
465.60 0.8236135
465.70 0.8358437
465.80 0.851234
465.90 0.8690069
466.00 0.8891512
466.10 0.91103
466.20 0.9335149
466.30 0.9553454
466.40 0.9745375
466.50 0.9886812
466.60 0.9956444
466.70 0.9956444
466.80 0.9956444
466.90 0.9956444
467.00 0.9956444
467.10 0.9946603
467.20 0.9799522
467.30 0.952951
467.40 0.9176399
467.50 0.8790869
467.60 0.8425533
467.70 0.8125128
467.80 0.7956438
467.90 0.793061
468.00 0.805455
468.10 0.8226927
468.20 0.8448359
468.30 0.8701958
468.40 0.8954872
468.50 0.9173296
468.60 0.9256273
468.70 0.9121778
468.80 0.8818877
468.90 0.8420825
469.00 0.7977251
469.10 0.7541853
469.20 0.716226
469.30 0.6882888
469.40 0.6732893
469.50 0.6715374
469.60 0.673718
469.70 0.6887791
469.80 0.7155136
469.90 0.7495503
470.00 0.7849845
470.10 0.8156827
470.20 0.8363158
470.30 0.8439921
470.40 0.8439921
470.50 0.8439921
470.60 0.8439921
470.70 0.8439921
470.80 0.8439921
470.90 0.8444711
471.00 0.8564602
471.10 0.8780706
471.20 0.9057249
471.30 0.9356169
471.40 0.9646044
471.50 0.9902191
471.60 1.010186
471.70 1.020444
471.80 1.017652
471.90 1.013682
472.00 1.013006
472.10 1.013006
472.20 1.013006
472.30 1.013006
472.40 1.013006
472.50 1.013006
472.60 1.013006
472.70 1.013006
472.80 1.013006
472.90 1.013006
473.00 1.013006
473.10 1.013006
473.20 1.013006
473.30 1.013006
473.40 1.010088
473.50 1.001045
473.60 0.9877398
473.70 0.9723723
473.80 0.9573949
473.90 0.9454881
474.00 0.939606
474.10 0.939606
474.20 0.939606
474.30 0.939606
474.40 0.939606
474.50 0.939606
474.60 0.939606
474.70 0.939606
474.80 0.9261914
474.90 0.8998234
475.00 0.864231
475.10 0.8244756
475.20 0.7858283
475.30 0.7520511
475.40 0.724699
475.50 0.703415
475.60 0.6859358
475.70 0.6699422
475.80 0.6538316
475.90 0.6360587
476.00 0.6159144
476.10 0.597819
476.20 0.5868961
476.30 0.5843595
476.40 0.5932025
476.50 0.6167594
476.60 0.6570205
476.70 0.7118175
476.80 0.7697433
476.90 0.8239114
477.00 0.8664265
477.10 0.8915888
477.20 0.8976185
477.30 0.8976185
477.40 0.8976185
477.50 0.8976185
477.60 0.8976185
477.70 0.8975514
477.80 0.8933374
477.90 0.8852509
478.00 0.8728569
478.10 0.8556191
478.20 0.8381287
478.30 0.8299036
478.40 0.8336231
478.50 0.8493479
478.60 0.8751713
478.70 0.9078388
478.80 0.9371612
478.90 0.9547802
479.00 0.9609099
479.10 0.9609099
479.20 0.9609099
479.30 0.9609099
479.40 0.9609099
479.50 0.9609099
479.60 0.9587293
479.70 0.9436682
479.80 0.917486
479.90 0.8879656
480.00 0.8610635
480.10 0.8422835
480.20 0.8358614
480.30 0.8426626
480.40 0.8552335
480.50 0.8643898
480.60 0.8690799
480.70 0.8690799
480.80 0.8690799
480.90 0.8686008
481.00 0.8578649
481.10 0.8447483
481.20 0.835455
481.30 0.8375926
481.40 0.8584079
481.50 0.9021934
481.60 0.9693256
481.70 1.056756
481.80 1.158755
481.90 1.257741
482.00 1.344139
482.10 1.412138
482.20 1.458448
482.30 1.483104
482.40 1.490058
482.50 1.490058
482.60 1.490058
482.70 1.490058
482.80 1.490058
482.90 1.490058
483.00 1.490058
483.10 1.490058
483.20 1.490058
483.30 1.490058
483.40 1.490058
483.50 1.490058
483.60 1.490058
483.70 1.490058
483.80 1.490058
483.90 1.490058
484.00 1.490058
484.10 1.490058
484.20 1.490058
484.30 1.490058
484.40 1.490058
484.50 1.490058
484.60 1.490058
484.70 1.490058
484.80 1.490058
484.90 1.490058
485.00 1.490058
485.10 1.490058
485.20 1.490058
485.30 1.490058
485.40 1.490058
485.50 1.490058
485.60 1.490058
485.70 1.490058
485.80 1.490058
485.90 1.490058
486.00 1.490058
486.10 1.486274
486.20 1.474712
486.30 1.455418
486.40 1.427383
486.50 1.389683
486.60 1.342459
486.70 1.287661
486.80 1.229736
486.90 1.175568
487.00 1.133053
487.10 1.10789
487.20 1.10186
487.30 1.10186
487.40 1.10186
487.50 1.10186
487.60 1.10186
487.70 1.10186
487.80 1.10186
487.90 1.10186
488.00 1.10186
488.10 1.10186
488.20 1.097208
488.30 1.080073
488.40 1.051062
488.50 1.013495
488.60 0.9725594
488.70 0.9345629
488.80 0.9059686
488.90 0.8926075
489.00 0.8908303
489.10 0.8934131
489.20 0.89359
489.30 0.89359
489.40 0.89359
489.50 0.89359
489.60 0.89359
489.70 0.89359
489.80 0.8945322
489.90 0.8989519
490.00 0.9066299
490.10 0.9171019
490.20 0.9299267
490.30 0.9448024
490.40 0.9608104
490.50 0.9762008
490.60 0.9883108
490.70 0.9930799
490.80 0.9930799
490.90 0.9930799
491.00 0.9918268
491.10 0.983333
491.20 0.9649719
491.30 0.9329424
491.40 0.8831395
491.50 0.8137394
491.60 0.7266404
491.70 0.6272108
491.80 0.5235159
491.90 0.4245293
492.00 0.3381313
492.10 0.270133
492.20 0.2238223
492.30 0.1991666
492.40 0.1922128
492.50 0.1922128
492.60 0.199013
492.70 0.2126375
492.80 0.2310037
492.90 0.2527933
493.00 0.2771377
493.10 0.3020117
493.20 0.3255431
493.30 0.3466876
493.40 0.3653818
493.50 0.3835911
493.60 0.404438
493.70 0.4298351
493.80 0.4588156
493.90 0.489233
494.00 0.5187793
494.10 0.5441186
494.20 0.5615216
494.30 0.568016
494.40 0.568016
494.50 0.568016
494.60 0.568016
494.70 0.568016
494.80 0.568016
494.90 0.568016
495.00 0.568016
495.10 0.568016
495.20 0.568016
495.30 0.5729818
495.40 0.57975
495.50 0.5841048
495.60 0.5841048
495.70 0.5841048
495.80 0.5841048
495.90 0.5841048
496.00 0.5841048
496.10 0.5841048
496.20 0.5841048
496.30 0.5841048
496.40 0.5841048
496.50 0.5841048
496.60 0.5841048
496.70 0.5841048
496.80 0.5841048
496.90 0.5869451
497.00 0.5955001
497.10 0.6094245
497.20 0.6289225
497.30 0.6540488
497.40 0.684471
497.50 0.7193921
497.60 0.75729
497.70 0.7962835
497.80 0.8339347
497.90 0.8677253
498.00 0.8952665
498.10 0.9145241
498.20 0.9248259
498.30 0.9264768
498.40 0.9264768
498.50 0.9264768
498.60 0.9264768
498.70 0.9264768
498.80 0.9257486
498.90 0.9214907
499.00 0.9171382
499.10 0.9145554
499.20 0.9143786
499.30 0.9221458
499.40 0.9406997
499.50 0.9663765
499.60 0.9932661
499.70 1.015053
499.80 1.025146
499.90 1.01621
500.00 1
500.10 0.9776098
500.20 0.9505741
500.30 0.9212209
500.40 0.892642
500.50 0.8680953
500.60 0.8512952
500.70 0.8465261
500.80 0.8465261
500.90 0.8465261
501.00 0.8465261
501.10 0.8465261
501.20 0.8465261
501.30 0.8465261
501.40 0.8465261
501.50 0.8501055
501.60 0.8648206
501.70 0.8893138
501.80 0.9204923
501.90 0.9543041
502.00 0.986882
502.10 1.015087
502.20 1.036336
502.30 1.048789
502.40 1.051047
502.50 1.051047
502.60 1.044247
502.70 1.030622
502.80 1.012256
502.90 0.9904665
503.00 0.9661222
503.10 0.9412482
503.20 0.9177167
503.30 0.8965723
503.40 0.8778781
503.50 0.8596688
503.60 0.8388219
503.70 0.8134248
503.80 0.7844443
503.90 0.7540268
504.00 0.7244806
504.10 0.6991413
504.20 0.6817383
504.30 0.6752439
504.40 0.6752439
504.50 0.6752439
504.60 0.6752439
504.70 0.6752439
504.80 0.6752439
504.90 0.6752439
505.00 0.6768847
505.10 0.6818688
505.20 0.6872859
505.30 0.6853757
505.40 0.6786074
505.50 0.6742526
505.60 0.6742526
505.70 0.6742526
505.80 0.6742526
505.90 0.6742526
506.00 0.6784017
506.10 0.688566
506.20 0.704532
506.30 0.7247979
506.40 0.7466333
506.50 0.7671996
506.60 0.7847654
506.70 0.7990949
506.80 0.8105435
506.90 0.8161588
507.00 0.8132868
507.10 0.8037288
507.20 0.7888502
507.30 0.7692824
507.40 0.7441684
507.50 0.7115913
507.60 0.6736934
507.70 0.6346998
507.80 0.5970487
507.90 0.5632581
508.00 0.5357169
508.10 0.5164593
508.20 0.5061575
508.30 0.5045066
508.40 0.5045066
508.50 0.5045066
508.60 0.5045066
508.70 0.5045066
508.80 0.5045066
508.90 0.5045066
509.00 0.5045066
509.10 0.5156934
509.20 0.541579
509.30 0.5729995
509.40 0.6029348
509.50 0.6289393
509.60 0.6502156
509.70 0.6670858
509.80 0.6804467
509.90 0.6900928
510.00 0.6900928
510.10 0.6900928
510.20 0.6900928
510.30 0.6900928
510.40 0.6900928
510.50 0.6900928
510.60 0.6900928
510.70 0.6900928
510.80 0.6906429
510.90 0.6966547
511.00 0.7071021
511.10 0.7208428
511.20 0.7365409
511.30 0.7527054
511.40 0.7674454
511.50 0.7753087
511.60 0.7679616
511.70 0.7468946
511.80 0.7160813
511.90 0.6822695
512.00 0.6512113
512.10 0.6288297
512.20 0.6189518
512.30 0.625004
512.40 0.6488211
512.50 0.6813255
512.60 0.7174662
512.70 0.7539597
512.80 0.7888434
512.90 0.820484
513.00 0.8462457
513.10 0.8636682
513.20 0.871557
513.30 0.871557
513.40 0.871557
513.50 0.871557
513.60 0.871557
513.70 0.871557
513.80 0.871557
513.90 0.871557
514.00 0.871557
514.10 0.871557
514.20 0.871557
514.30 0.871557
514.40 0.8716065
514.50 0.8727456
514.60 0.8738777
514.70 0.8738777
514.80 0.8738777
514.90 0.8738777
515.00 0.8722368
515.10 0.8672527
515.20 0.8618357
515.30 0.8587801
515.40 0.8599916
515.50 0.8638272
515.60 0.8673982
515.70 0.8689704
515.80 0.869046
515.90 0.8695469
516.00 0.8680444
516.10 0.8640834
516.20 0.8585344
516.30 0.8527435
516.40 0.8482027
516.50 0.8449437
516.60 0.8410421
516.70 0.8332786
516.80 0.82183
516.90 0.8133744
517.00 0.8076914
517.10 0.803325
517.20 0.7987056
517.30 0.7931471
517.40 0.7878389
517.50 0.7854949
517.60 0.7854949
517.70 0.7854949
517.80 0.7854949
517.90 0.7854949
518.00 0.7854949
518.10 0.7854949
518.20 0.7854949
518.30 0.7854949
518.40 0.7854949
518.50 0.7854949
518.60 0.7854949
518.70 0.7854949
518.80 0.7854949
518.90 0.7854949
519.00 0.7854949
519.10 0.7743082
519.20 0.7484226
519.30 0.7092348
519.40 0.6607456
519.50 0.6090643
519.60 0.5608984
519.70 0.5222411
519.80 0.4972927
519.90 0.4876467
520.00 0.4876467
520.10 0.4876467
520.20 0.4876467
520.30 0.4876467
520.40 0.4876467
520.50 0.4876467
520.60 0.4876467
520.70 0.4876467
520.80 0.4870966
520.90 0.4810847
521.00 0.4706374
521.10 0.46363
521.20 0.4630508
521.30 0.468375
521.40 0.4786339
521.50 0.4918853
521.60 0.5041845
521.70 0.5112812
521.80 0.510916
521.90 0.510916
522.00 0.5093964
522.10 0.5035727
522.20 0.4922023
522.30 0.4736964
522.40 0.4476215
522.50 0.4151171
522.60 0.3789764
522.70 0.3425489
522.80 0.3096688
522.90 0.2806443
523.00 0.2582852
523.10 0.246374
523.20 0.2469563
523.30 0.2589115
523.40 0.274683
523.50 0.2941021
523.60 0.3172879
523.70 0.3440265
523.80 0.3725741
523.90 0.4002048
524.00 0.4234051
524.10 0.438541
524.20 0.4428792
524.30 0.4428792
524.40 0.4428297
524.50 0.4416905
524.60 0.4405585
524.70 0.4405585
524.80 0.4405585
524.90 0.4405585
525.00 0.4405585
525.10 0.4405585
525.20 0.4405585
525.30 0.4405585
525.40 0.439347
525.50 0.4365032
525.60 0.4386274
525.70 0.4484995
525.80 0.4657601
525.90 0.4870629
526.00 0.5074896
526.10 0.5210424
526.20 0.522086
526.30 0.507611
526.40 0.4903164
526.50 0.4730091
526.60 0.4593448
526.70 0.4527788
526.80 0.4527788
526.90 0.4527788
527.00 0.4527788
527.10 0.4527788
527.20 0.4527788
527.30 0.4527788
527.40 0.4527788
527.50 0.4527788
527.60 0.4527788
527.70 0.4527788
527.80 0.4527788
527.90 0.4527788
528.00 0.4527788
528.10 0.4527788
528.20 0.4527788
528.30 0.4527788
528.40 0.4527788
528.50 0.4527788
528.60 0.4527788
528.70 0.4527788
528.80 0.4527788
528.90 0.4527788
529.00 0.4527788
529.10 0.4527788
529.20 0.4527788
529.30 0.4527788
529.40 0.4527788
529.50 0.4527788
529.60 0.4527788
529.70 0.4527788
529.80 0.4527788
529.90 0.4527788
530.00 0.4527788
530.10 0.4527788
530.20 0.4527788
530.30 0.4527788
530.40 0.4527788
530.50 0.4527788
530.60 0.4527788
530.70 0.4527788
530.80 0.4527788
530.90 0.4527788
531.00 0.4527788
531.10 0.4460455
531.20 0.4309266
531.30 0.4094379
531.40 0.3844389
531.50 0.3597448
531.60 0.3400777
531.70 0.3295547
531.80 0.3295547
531.90 0.3295547
532.00 0.3295547
532.10 0.3295547
532.20 0.3359275
532.30 0.3482054
532.40 0.3624082
532.50 0.3742769
532.60 0.3797608
532.70 0.3796947
532.80 0.3776912
532.90 0.3750751
533.00 0.3716724
533.10 0.3661611
533.20 0.3652555
533.30 0.3687071
533.40 0.3741009
533.50 0.3783699
533.60 0.3772142
533.70 0.3673829
533.80 0.3482625
533.90 0.3212661
534.00 0.2980659
534.10 0.28293
534.20 0.2785918
534.30 0.2785918
534.40 0.2785918
534.50 0.2785918
534.60 0.2785918
534.70 0.2785918
534.80 0.2785918
534.90 0.2785918
535.00 0.2785918
535.10 0.2785918
535.20 0.2785918
535.30 0.2785918
535.40 0.2785918
535.50 0.2776
535.60 0.273171
535.70 0.2670539
535.80 0.2571463
535.90 0.2421723
536.00 0.22259
536.10 0.2028339
536.20 0.1913734
536.30 0.1913734
536.40 0.1913734
536.50 0.1913734
536.60 0.1913734
536.70 0.1913734
536.80 0.1913734
536.90 0.1913734
537.00 0.1913734
537.10 0.1913734
537.20 0.1913734
537.30 0.1913734
537.40 0.1913734
537.50 0.1913734
537.60 0.1913734
537.70 0.1913734
537.80 0.1977929
537.90 0.2122523
538.00 0.2325327
538.10 0.255453
538.20 0.2768922
538.30 0.293003
538.40 0.30201
538.50 0.3041842
538.60 0.3041842
538.70 0.3041842
538.80 0.3041842
538.90 0.3041842
539.00 0.3041842
539.10 0.3041842
539.20 0.3094147
539.30 0.3197309
539.40 0.3327697
539.50 0.3459385
539.60 0.3569765
539.70 0.3641946
539.80 0.3659834
539.90 0.3659834
540.00 0.3659834
540.10 0.3659834
540.20 0.3659834
540.30 0.3659834
540.40 0.3659834
540.50 0.3659834
540.60 0.3659834
540.70 0.3659834
540.80 0.3659834
540.90 0.3659834
541.00 0.3659834
541.10 0.3659834
541.20 0.3687324
541.30 0.3798445
541.40 0.4011279
541.50 0.4309839
541.60 0.4652868
541.70 0.4988383
541.80 0.5268411
541.90 0.545952
542.00 0.5546139
542.10 0.5546139
542.20 0.548241
542.30 0.5359631
542.40 0.5217604
542.50 0.5098917
542.60 0.5044078
542.70 0.5044078
542.80 0.5044078
542.90 0.5085695
543.00 0.5203777
543.10 0.5386032
543.20 0.5535224
543.30 0.5622926
543.40 0.5646267
543.50 0.561584
543.60 0.5548429
543.70 0.5454942
543.80 0.536067
543.90 0.5354326
544.00 0.5354326
544.10 0.5354326
544.20 0.5354326
544.30 0.5354326
544.40 0.5354326
544.50 0.5354326
544.60 0.5354326
544.70 0.5354326
544.80 0.5354326
544.90 0.5354326
545.00 0.5354326
545.10 0.5354326
545.20 0.5354326
545.30 0.5354326
545.40 0.5354326
545.50 0.5354326
545.60 0.5341665
545.70 0.5288393
545.80 0.5214106
545.90 0.5145809
546.00 0.5110899
546.10 0.5110899
546.20 0.5110899
546.30 0.5110899
546.40 0.5110899
546.50 0.5110899
546.60 0.5110899
546.70 0.5110899
546.80 0.5110899
546.90 0.5110899
547.00 0.5110899
547.10 0.5110899
547.20 0.5110899
547.30 0.5110899
547.40 0.5110899
547.50 0.5114358
547.60 0.5143195
547.70 0.5195757
547.80 0.5199228
547.90 0.5128179
548.00 0.4995195
548.10 0.4828277
548.20 0.467422
548.30 0.4576981
548.40 0.4561243
548.50 0.4637018
548.60 0.4777042
548.70 0.4977154
548.80 0.5237444
548.90 0.5536322
549.00 0.5841148
549.10 0.6119609
549.20 0.6295048
549.30 0.6355235
549.40 0.631963
549.50 0.6211525
549.60 0.6101145
549.70 0.6028964
549.80 0.6011076
549.90 0.6011076
550.00 0.3296989
550.10 0.2841351
550.20 0.2279235
550.30 0.167481
550.40 0.1087325
550.50 0.0579839
550.60 0.02697061
550.70 0.02121438
550.80 0.03813096
550.90 0.05651711
551.00 0.07397227
551.10 0.08954341
551.20 0.1046271
551.30 0.1205944
551.40 0.1391773
551.50 0.1635565
551.60 0.1985625
551.70 0.2485905
551.80 0.3136631
551.90 0.3883826
552.00 0.4645892
552.10 0.5342044
552.20 0.5911405
552.30 0.6319777
552.40 0.6556734
552.50 0.6615692
552.60 0.6615692
552.70 0.6615692
552.80 0.6615692
552.90 0.6615692
553.00 0.6615692
553.10 0.6615692
553.20 0.6615692
553.30 0.6615692
553.40 0.6615692
553.50 0.6615692
553.60 0.6615692
553.70 0.6615692
553.80 0.6615692
553.90 0.6615692
554.00 0.6615692
554.10 0.6615692
554.20 0.669704
554.30 0.6889433
554.40 0.7202434
554.50 0.7608076
554.60 0.8003319
554.70 0.8344239
554.80 0.862808
554.90 0.8873565
555.00 0.9117566
555.10 0.9391638
555.20 0.9835823
555.30 1.067119
555.40 1.191565
555.50 1.370331
555.60 1.637063
555.70 2.008051
555.80 2.479371
555.90 3.030107
556.00 3.625743
556.10 4.22129
556.20 4.769045
556.30 5.229776
556.40 5.5808
556.50 5.823512
556.60 5.959893
556.70 6.007827
556.80 6.016689
556.90 6.019255
557.00 6.019255
557.10 6.019255
557.20 6.019255
557.30 6.019255
557.40 6.019255
557.50 6.019255
557.60 6.028054
557.70 6.053759
557.80 6.099678
557.90 6.16891
558.00 6.260002
558.10 6.368914
558.20 6.485557
558.30 6.606563
558.40 6.729896
558.50 6.855712
558.60 6.984462
558.70 7.111999
558.80 7.22949
558.90 7.328091
559.00 7.401245
559.10 7.445642
559.20 7.446579
559.30 7.383234
559.40 7.258685
559.50 7.064159
559.60 6.765645
559.70 6.344629
559.80 5.808236
559.90 5.182781
560.00 4.510938
560.10 3.845776
560.20 3.241085
560.30 2.739516
560.40 2.364797
560.50 2.11619
560.60 1.979808
560.70 1.931874
560.80 1.923012
560.90 1.920446
561.00 1.920446
561.10 1.920446
561.20 1.920446
561.30 1.920822
561.40 1.930109
561.50 1.948042
561.60 1.966651
561.70 1.977526
561.80 1.974966
561.90 1.952621
562.00 1.909972
562.10 1.850492
562.20 1.777716
562.30 1.693604
562.40 1.59532
562.50 1.476274
562.60 1.33255
562.70 1.169123
562.80 1.006331
562.90 0.8647951
563.00 0.7497863
563.10 0.6624107
563.20 0.6019717
563.30 0.5767993
563.40 0.5794617
563.50 0.5943933
563.60 0.6085191
563.70 0.6138728
563.80 0.6138728
563.90 0.6138728
564.00 0.6138728
564.10 0.6224305
564.20 0.6443443
564.30 0.6778517
564.40 0.7169551
564.50 0.753588
564.60 0.7814691
564.70 0.7986404
564.80 0.8079266
564.90 0.8160323
565.00 0.8307729
565.10 0.8570825
565.20 0.8947506
565.30 0.9380226
565.40 0.970508
565.50 0.985116
565.60 0.9754333
565.70 0.9388527
565.80 0.8954942
565.90 0.848608
566.00 0.8001645
566.10 0.7507326
566.20 0.7117964
566.30 0.6953688
566.40 0.7045145
566.50 0.7451629
566.60 0.820201
566.70 0.9260685
566.80 1.043247
566.90 1.149052
567.00 1.235466
567.10 1.299901
567.20 1.345212
567.30 1.365677
567.40 1.368734
567.50 1.373566
567.60 1.405907
567.70 1.48904
567.80 1.624403
567.90 1.802381
568.00 2.009756
568.10 2.218458
568.20 2.403984
568.30 2.552139
568.40 2.657587
568.50 2.722845
568.60 2.755069
568.70 2.764229
568.80 2.760041
568.90 2.751935
569.00 2.737194
569.10 2.71745
569.20 2.698521
569.30 2.687392
569.40 2.689621
569.50 2.706312
569.60 2.73465
569.70 2.768426
569.80 2.782077
569.90 2.782077
570.00 2.782077
570.10 2.782077
570.20 2.769012
570.30 2.729306
570.40 2.66381
570.50 2.574964
570.60 2.468166
570.70 2.350956
570.80 2.23992
570.90 2.152459
571.00 2.099473
571.10 2.084072
571.20 2.102485
571.30 2.146477
571.40 2.202118
571.50 2.2472
571.60 2.255214
571.70 2.202186
571.80 2.077257
571.90 1.899279
572.00 1.691904
572.10 1.474644
572.20 1.267204
572.30 1.085541
572.40 0.9409907
572.50 0.8390999
572.60 0.7789947
572.70 0.7526636
572.80 0.7475654
572.90 0.7475654
573.00 0.7475654
573.10 0.7409999
573.20 0.722261
573.30 0.6897413
573.40 0.645741
573.50 0.596509
573.60 0.5504453
573.70 0.51667
573.80 0.503018
573.90 0.503018
574.00 0.503018
574.10 0.5044629
574.20 0.5158696
574.30 0.5345626
574.40 0.5572071
574.50 0.5807137
574.60 0.602556
574.70 0.6210956
574.80 0.6312514
574.90 0.6303922
575.00 0.6195257
575.10 0.6028845
575.20 0.5851696
575.30 0.5703552
575.40 0.5647686
575.50 0.5771165
575.60 0.6139059
575.70 0.6778447
575.80 0.7680273
575.90 0.8662909
576.00 0.9587048
576.10 1.043225
576.20 1.11857
576.30 1.183558
576.40 1.238779
576.50 1.285187
576.60 1.321434
576.70 1.346093
576.80 1.359101
576.90 1.360732
577.00 1.360732
577.10 1.360732
577.20 1.360732
577.30 1.360732
577.40 1.360732
577.50 1.360732
577.60 1.360732
577.70 1.360732
577.80 1.360732
577.90 1.360732
578.00 1.360732
578.10 1.361209
578.20 1.376307
578.30 1.407148
578.40 1.452414
578.50 1.508133
578.60 1.569111
578.70 1.63004
578.80 1.683788
578.90 1.723212
579.00 1.7436
579.10 1.740182
579.20 1.709863
579.30 1.653856
579.40 1.579602
579.50 1.493789
579.60 1.399296
579.70 1.299899
579.80 1.199282
579.90 1.101019
580.00 1.008605
580.10 0.9240845
580.20 0.8487392
580.30 0.7837518
580.40 0.7285309
580.50 0.6821227
580.60 0.6458758
580.70 0.6212163
580.80 0.6082089
580.90 0.6065772
581.00 0.6065772
581.10 0.6065772
581.20 0.6065772
581.30 0.6256377
581.40 0.6672308
581.50 0.7227631
581.60 0.7813314
581.70 0.832237
581.80 0.8682457
581.90 0.8891069
582.00 0.9015644
582.10 0.9123293
582.20 0.9038455
582.30 0.8775771
582.40 0.835221
582.50 0.7808068
582.60 0.7220811
582.70 0.6686609
582.80 0.6270059
582.90 0.5992466
583.00 0.5843708
583.10 0.5803326
583.20 0.5853194
583.30 0.5951412
583.40 0.5996863
583.50 0.5996863
583.60 0.5996863
583.70 0.5996863
583.80 0.5996863
583.90 0.6140266
584.00 0.6651377
584.10 0.7591307
584.20 0.8936316
584.30 1.057008
584.40 1.23071
584.50 1.392583
584.60 1.522945
584.70 1.611151
584.80 1.658021
584.90 1.673541
585.00 1.673541
585.10 1.673541
585.20 1.684618
585.30 1.69169
585.40 1.684056
585.50 1.65744
585.60 1.609974
585.70 1.559068
585.80 1.523059
585.90 1.502198
586.00 1.48974
586.10 1.477053
586.20 1.459033
586.30 1.435768
586.40 1.410214
586.50 1.385401
586.60 1.361307
586.70 1.335259
586.80 1.306867
586.90 1.277718
587.00 1.249644
587.10 1.224708
587.20 1.204031
587.30 1.189586
587.40 1.185041
587.50 1.185041
587.60 1.185041
587.70 1.185041
587.80 1.185041
587.90 1.170701
588.00 1.133343
588.10 1.065229
588.20 0.9564445
588.30 0.8055539
588.40 0.6318525
588.50 0.4699793
588.60 0.3396177
588.70 0.2514112
588.80 0.2045417
588.90 0.189021
589.00 0.189021
589.10 0.189021
589.20 0.1785011
589.30 0.167537
589.40 0.1584728
589.50 0.1576325
589.60 0.1708996
589.70 0.1864604
589.80 0.1910521
589.90 0.1910521
590.00 0.1910521
590.10 0.1910521
590.20 0.1910521
590.30 0.2068506
590.40 0.2454717
590.50 0.3075704
590.60 0.3881609
590.70 0.4771884
590.80 0.5606313
590.90 0.6242791
591.00 0.6574203
591.10 0.6574203
591.20 0.6574203
591.30 0.6574203
591.40 0.6574203
591.50 0.6574203
591.60 0.6574203
591.70 0.6574203
591.80 0.6574203
591.90 0.6574203
592.00 0.6436672
592.10 0.6177883
592.20 0.5920718
592.30 0.5795857
592.40 0.5795857
592.50 0.5795857
592.60 0.5795857
592.70 0.5795857
592.80 0.5795857
592.90 0.5795857
593.00 0.5795857
593.10 0.5795857
593.20 0.5790284
593.30 0.5638608
593.40 0.5389656
593.50 0.5108896
593.60 0.4865207
593.70 0.4709599
593.80 0.4663681
593.90 0.4663681
594.00 0.4663681
594.10 0.4663681
594.20 0.4663681
594.30 0.4505697
594.40 0.4119485
594.50 0.3498498
594.60 0.2692593
594.70 0.1802318
594.80 0.09678897
594.90 0.03314112
595.00 0
595.10 0
595.20 0
595.30 0
595.40 0
595.50 0.01749519
595.60 0.05152775
595.70 0.09715532
595.80 0.1488457
595.90 0.2011042
596.00 0.2499682
596.10 0.2932536
596.20 0.3302443
596.30 0.3615032
596.40 0.3869857
596.50 0.4062377
596.60 0.4196212
596.70 0.4267936
596.80 0.4267936
596.90 0.4267936
597.00 0.4267936
597.10 0.4267936
597.20 0.4267936
597.30 0.4267936
597.40 0.4267936
597.50 0.4267936
597.60 0.4274058
597.70 0.4413458
597.80 0.472942
597.90 0.5211368
598.00 0.5792556
598.10 0.6401342
598.20 0.6997296
598.30 0.7548655
598.40 0.8011493
598.50 0.8354328
598.60 0.8585295
598.70 0.8747136
598.80 0.8904509
598.90 0.9136397
599.00 0.949956
599.10 1.001534
599.20 1.068188
599.30 1.148171
599.40 1.23819
599.50 1.313751
599.60 1.364807
599.70 1.384726
599.80 1.370496
599.90 1.322486
600.00 2.324754
600.10 2.435142
600.20 2.383816
600.30 2.205435
600.40 1.851353
600.50 1.37134
600.60 0.9238692
600.70 0.6473626
600.80 0.6294914
600.90 0.9275521
601.00 1.452652
601.10 2.063133
601.20 2.666132
601.30 3.199336
601.40 3.600746
601.50 3.722248
601.60 3.403556
601.70 2.621859
601.80 1.498435
601.90 0.1699401
602.00 0
602.10 0
602.20 0
602.30 0
602.40 0
602.50 0
602.60 0
602.70 0
602.80 0
602.90 0.3949481
603.00 1.405385
603.10 2.36378
603.20 3.200106
603.30 3.80888
603.40 4.092039
603.50 3.990297
603.60 3.507401
603.70 2.749923
603.80 1.972231
603.90 1.440469
604.00 1.307649
604.10 1.562752
604.20 2.094515
604.30 2.766982
604.40 3.360607
604.50 3.658722
604.60 3.5745
604.70 3.130876
604.80 2.417141
604.90 1.596043
605.00 0.8783543
605.10 0.422907
605.20 0.2160638
605.30 0.211596
605.40 0.3897205
605.50 0.6823326
605.60 1.022049
605.70 1.412835
605.80 1.894084
605.90 2.432855
606.00 2.942949
606.10 3.319697
606.20 3.476827
606.30 3.350639
606.40 2.963675
606.50 2.473748
606.60 2.066357
606.70 1.829115
606.80 1.75778
606.90 1.837927
607.00 2.046106
607.10 2.332932
607.20 2.637054
607.30 2.92087
607.40 3.179713
607.50 3.414337
607.60 3.624759
607.70 3.818901
607.80 4.004698
607.90 4.15749
608.00 4.238946
608.10 4.204409
608.20 3.989867
608.30 3.586441
608.40 3.064543
608.50 2.447794
608.60 1.753099
608.70 1.104254
608.80 0.6642015
608.90 0.5487396
609.00 0.7950564
609.10 1.338271
609.20 1.990227
609.30 2.514827
609.40 2.748887
609.50 2.725903
609.60 2.609855
609.70 2.514006
609.80 2.474623
609.90 2.571271
610.00 2.866064
610.10 3.2858
610.20 3.671513
610.30 3.89745
610.40 3.949132
610.50 3.867807
610.60 3.77677
610.70 3.839827
610.80 4.128954
610.90 4.530884
611.00 4.861968
611.10 5.016737
611.20 4.954207
611.30 4.666629
611.40 4.193387
611.50 3.592936
611.60 2.961189
611.70 2.426203
611.80 2.047315
611.90 1.864804
612.00 1.862704
612.10 1.959032
612.20 2.079006
612.30 2.190237
612.40 2.259405
612.50 2.214371
612.60 2.033209
612.70 1.77479
612.80 1.498696
612.90 1.257557
613.00 1.113913
613.10 1.116857
613.20 1.281904
613.30 1.536337
613.40 1.763622
613.50 1.875314
613.60 1.826889
613.70 1.659976
613.80 1.505846
613.90 1.475646
614.00 1.583581
614.10 1.778611
614.20 2.012487
614.30 2.23327
614.40 2.384896
614.50 2.428036
614.60 2.365364
614.70 2.28721
614.80 2.29428
614.90 2.420166
615.00 2.645377
615.10 2.889552
615.20 3.031095
615.30 3.012475
615.40 2.846343
615.50 2.566546
615.60 2.233109
615.70 1.940676
615.80 1.760642
615.90 1.717257
616.00 1.810524
616.10 1.970855
616.20 2.090533
616.30 2.116477
616.40 2.061527
616.50 1.997522
616.60 2.094256
616.70 2.445897
616.80 3.001511
616.90 3.698868
617.00 4.443711
617.10 5.106226
617.20 5.567188
617.30 5.729805
617.40 5.520838
617.50 4.940672
617.60 4.093359
617.70 3.119497
617.80 2.19674
617.90 1.499995
618.00 1.047295
618.10 0.8054573
618.20 0.7702598
618.30 0.8774784
618.40 1.048162
618.50 1.204978
618.60 1.268323
618.70 1.187638
618.80 0.9717181
618.90 0.6986926
619.00 0.4780925
619.10 0.4118709
619.20 0.5065349
619.30 0.6682487
619.40 0.7690838
619.50 0.7603493
619.60 0.7261754
619.70 0.7921301
619.80 1.015079
619.90 1.368474
620.00 1.781057
620.10 2.167153
620.20 2.458317
620.30 2.590493
620.40 2.514366
620.50 2.215822
620.60 1.781902
620.70 1.364095
620.80 1.094316
620.90 1.028807
621.00 1.114202
621.10 1.211183
621.20 1.212591
621.30 1.104128
621.40 0.9185313
621.50 0.694347
621.60 0.4526439
621.70 0.2213225
621.80 0.05616563
621.90 0.03702489
622.00 0.1834212
622.10 0.4372939
622.20 0.7725585
622.30 1.200314
622.40 1.691094
622.50 2.191035
622.60 2.621925
622.70 2.886571
622.80 2.982747
622.90 3.007272
623.00 3.060683
623.10 3.195196
623.20 3.378952
623.30 3.543782
623.40 3.638193
623.50 3.636929
623.60 3.509013
623.70 3.224118
623.80 2.809843
623.90 2.324647
624.00 1.861438
624.10 1.544925
624.20 1.405102
624.30 1.388196
624.40 1.432984
624.50 1.479812
624.60 1.501513
624.70 1.4865
624.80 1.430803
624.90 1.3419
625.00 1.216718
625.10 1.045719
625.20 0.8365559
625.30 0.6368755
625.40 0.5028738
625.50 0.4674011
625.60 0.5383021
625.70 0.6859367
625.80 0.8579959
625.90 0.9935988
626.00 1.080296
626.10 1.178858
626.20 1.389314
626.30 1.774997
626.40 2.309454
626.50 2.888002
626.60 3.337673
626.70 3.518692
626.80 3.377695
626.90 2.925725
627.00 2.244446
627.10 1.487664
627.20 0.8486576
627.30 0.5042717
627.40 0.5184206
627.50 0.8081459
627.60 1.199079
627.70 1.53132
627.80 1.738556
627.90 1.817252
628.00 1.859244
628.10 1.980108
628.20 2.202802
628.30 2.507921
628.40 2.874474
628.50 3.26493
628.60 3.644527
628.70 3.984089
628.80 4.262085
628.90 4.488511
629.00 4.641254
629.10 4.672155
629.20 4.557859
629.30 4.322864
629.40 4.010795
629.50 3.658655
629.60 3.416481
629.70 3.459006
629.80 3.793553
629.90 4.337787
630.00 4.973185
630.10 5.547999
630.20 5.911458
630.30 5.939673
630.40 5.645685
630.50 5.137229
630.60 4.529922
630.70 3.939374
630.80 3.470692
630.90 3.235038
631.00 3.23805
631.10 3.3727
631.20 3.592109
631.30 3.851966
631.40 4.03963
631.50 4.054911
631.60 3.904395
631.70 3.678688
631.80 3.440208
631.90 3.219127
632.00 3.057381
632.10 3.043111
632.20 3.236373
632.30 3.565106
632.40 3.83814
632.50 3.882419
632.60 3.619603
632.70 3.068425
632.80 2.37238
632.90 1.745216
633.00 1.329869
633.10 1.161138
633.20 1.230575
633.30 1.545277
633.40 2.08385
633.50 2.729265
633.60 3.341376
633.70 3.846498
633.80 4.256429
633.90 4.597328
634.00 4.878835
634.10 5.098965
634.20 5.212589
634.30 5.194085
634.40 5.062237
634.50 4.854822
634.60 4.640809
634.70 4.451796
634.80 4.280218
634.90 4.103897
635.00 3.915011
635.10 3.718531
635.20 3.505431
635.30 3.278133
635.40 3.029855
635.50 2.771239
635.60 2.56105
635.70 2.459701
635.80 2.532851
635.90 2.832486
636.00 3.325965
636.10 3.95342
636.20 4.72912
636.30 5.661232
636.40 6.607451
636.50 7.370898
636.60 7.811908
636.70 7.859878
636.80 7.538799
636.90 6.933431
637.00 6.154519
637.10 5.348745
637.20 4.628584
637.30 4.073535
637.40 3.810097
637.50 3.883079
637.60 4.144117
637.70 4.390959
637.80 4.495865
637.90 4.380889
638.00 4.046887
638.10 3.585181
638.20 3.113723
638.30 2.76059
638.40 2.650062
638.50 2.833765
638.60 3.299707
638.70 3.96437
638.80 4.640481
638.90 5.162814
639.00 5.465919
639.10 5.570936
639.20 5.567332
639.30 5.548086
639.40 5.529916
639.50 5.461778
639.60 5.291911
639.70 5.001146
639.80 4.604268
639.90 4.141459
640.00 3.670328
640.10 3.272062
640.20 3.031685
640.30 3.007938
640.40 3.205033
640.50 3.5523
640.60 3.937342
640.70 4.253479
640.80 4.457932
640.90 4.59101
641.00 4.695979
641.10 4.774313
641.20 4.817312
641.30 4.826361
641.40 4.796381
641.50 4.717557
641.60 4.584911
641.70 4.412226
641.80 4.206289
641.90 3.954821
642.00 3.655447
642.10 3.313677
642.20 2.954385
642.30 2.609383
642.40 2.317813
642.50 2.126807
642.60 2.06656
642.70 2.152706
642.80 2.430636
642.90 2.930728
643.00 3.596508
643.10 4.28004
643.20 4.844786
643.30 5.217711
643.40 5.348412
643.50 5.239852
643.60 4.894481
643.70 4.326029
643.80 3.634811
643.90 2.966903
644.00 2.462023
644.10 2.189058
644.20 2.13282
644.30 2.272835
644.40 2.58326
644.50 3.027412
644.60 3.539536
644.70 4.035345
644.80 4.49778
644.90 4.928983
645.00 5.357498
645.10 5.787248
645.20 6.135121
645.30 6.305444
645.40 6.216606
645.50 5.871655
645.60 5.363563
645.70 4.785783
645.80 4.263221
645.90 3.917258
646.00 3.786184
646.10 3.876255
646.20 4.143995
646.30 4.545209
646.40 5.023549
646.50 5.494158
646.60 5.882926
646.70 6.100799
646.80 6.154789
646.90 6.110144
647.00 5.97354
647.10 5.74419
647.20 5.42933
647.30 5.061869
647.40 4.734433
647.50 4.527111
647.60 4.471015
647.70 4.505001
647.80 4.531838
647.90 4.518326
648.00 4.472131
648.10 4.447751
648.20 4.416415
648.30 4.325398
648.40 4.235646
648.50 4.248525
648.60 4.450294
648.70 4.859734
648.80 5.40489
648.90 5.981532
649.00 6.462857
649.10 6.732119
649.20 6.739016
649.30 6.492232
649.40 6.146165
649.50 5.913993
649.60 5.947844
649.70 6.275524
649.80 6.793643
649.90 7.337264
650.00 7.708116
650.10 7.727777
650.20 7.332924
650.30 6.580202
650.40 5.629796
650.50 4.723383
650.60 4.072201
650.70 3.840254
650.80 4.03753
650.90 4.514225
651.00 5.100994
651.10 5.659561
651.20 6.075885
651.30 6.258788
651.40 6.188384
651.50 5.951971
651.60 5.675888
651.70 5.459882
651.80 5.358405
651.90 5.386632
652.00 5.550144
652.10 5.779899
652.20 5.962692
652.30 6.030368
652.40 5.967294
652.50 5.823386
652.60 5.691922
652.70 5.684352
652.80 5.878958
652.90 6.259543
653.00 6.750953
653.10 7.257315
653.20 7.703069
653.30 8.021302
653.40 8.196073
653.50 8.280299
653.60 8.28685
653.70 8.18982
653.80 7.984162
653.90 7.688815
654.00 7.291297
654.10 6.782373
654.20 6.256795
654.30 5.865223
654.40 5.693584
654.50 5.730243
654.60 5.902756
654.70 6.138958
654.80 6.340022
654.90 6.401393
655.00 6.306072
655.10 6.116463
655.20 5.88879
655.30 5.641221
655.40 5.436257
655.50 5.364458
655.60 5.44098
655.70 5.647316
655.80 5.997416
655.90 6.516887
656.00 7.188275
656.10 7.935112
656.20 8.648195
656.30 9.201866
656.40 9.51483
656.50 9.562552
656.60 9.37369
656.70 9.002987
656.80 8.493534
656.90 7.908635
657.00 7.328246
657.10 6.816542
657.20 6.428623
657.30 6.217269
657.40 6.225385
657.50 6.506357
657.60 7.070587
657.70 7.825124
657.80 8.593398
657.90 9.192604
658.00 9.504691
658.10 9.473615
658.20 9.139384
658.30 8.589322
658.40 7.910595
658.50 7.220832
658.60 6.625243
658.70 6.18821
658.80 5.942507
658.90 5.863425
659.00 5.878693
659.10 5.928381
659.20 5.972012
659.30 5.995608
659.40 6.035513
659.50 6.139518
659.60 6.305884
659.70 6.501678
659.80 6.739068
659.90 7.048403
660.00 7.431999
660.10 7.822849
660.20 8.089076
660.30 8.112093
660.40 7.875371
660.50 7.4701
660.60 7.009524
660.70 6.593498
660.80 6.259846
660.90 6.020872
661.00 5.87915
661.10 5.826907
661.20 5.833093
661.30 5.844977
661.40 5.819891
661.50 5.774335
661.60 5.794139
661.70 5.956317
661.80 6.258871
661.90 6.616052
662.00 6.927416
662.10 7.11356
662.20 7.119492
662.30 6.946552
662.40 6.686915
662.50 6.452435
662.60 6.312743
662.70 6.283282
662.80 6.355829
662.90 6.515458
663.00 6.720747
663.10 6.930624
663.20 7.124645
663.30 7.307865
663.40 7.486695
663.50 7.647026
663.60 7.814808
663.70 8.023104
663.80 8.242434
663.90 8.403232
664.00 8.447944
664.10 8.407876
664.20 8.350267
664.30 8.316244
664.40 8.334705
664.50 8.391282
664.60 8.421426
664.70 8.349298
664.80 8.160481
664.90 7.894677
665.00 7.578946
665.10 7.268356
665.20 7.056658
665.30 7.027919
665.40 7.235747
665.50 7.646176
665.60 8.152254
665.70 8.641668
665.80 9.048546
665.90 9.327333
666.00 9.447993
666.10 9.430239
666.20 9.322303
666.30 9.166604
666.40 8.987223
666.50 8.797672
666.60 8.599699
666.70 8.410594
666.80 8.291386
666.90 8.336247
667.00 8.637403
667.10 9.235874
667.20 10.01149
667.30 10.74663
667.40 11.28016
667.50 11.52475
667.60 11.45711
667.70 11.1211
667.80 10.61063
667.90 10.03026
668.00 9.500388
668.10 9.134747
668.20 8.964665
668.30 8.940622
668.40 8.994744
668.50 9.072318
668.60 9.151983
668.70 9.255488
668.80 9.405813
668.90 9.639726
669.00 10.00104
669.10 10.4738
669.20 11.00658
669.30 11.54772
669.40 12.01281
669.50 12.29586
669.60 12.32965
669.70 12.10529
669.80 11.64024
669.90 10.9637
670.00 10.15415
670.10 9.303991
670.20 8.513991
670.30 7.865548
670.40 7.364201
670.50 7.019689
670.60 6.854194
670.70 6.845501
670.80 6.969843
670.90 7.254186
671.00 7.695464
671.10 8.198811
671.20 8.647243
671.30 8.976977
671.40 9.163922
671.50 9.22911
671.60 9.21358
671.70 9.159418
671.80 9.137029
671.90 9.184779
672.00 9.326698
672.10 9.605666
672.20 10.01312
672.30 10.4419
672.40 10.76653
672.50 10.94855
672.60 11.01448
672.70 10.96437
672.80 10.80676
672.90 10.59839
673.00 10.40178
673.10 10.2353
673.20 10.07335
673.30 9.90943
673.40 9.760477
673.50 9.638349
673.60 9.53661
673.70 9.4362
673.80 9.328021
673.90 9.245772
674.00 9.24069
674.10 9.326046
674.20 9.521238
674.30 9.85835
674.40 10.35332
674.50 11.03536
674.60 11.88438
674.70 12.77581
674.80 13.51283
674.90 13.8938
675.00 13.82539
675.10 13.35034
675.20 12.58834
675.30 11.6469
675.40 10.62772
675.50 9.700062
675.60 9.012095
675.70 8.629708
675.80 8.551047
675.90 8.657048
676.00 8.795566
676.10 8.920918
676.20 9.036247
676.30 9.131256
676.40 9.183974
676.50 9.15556
676.60 9.016776
676.70 8.776806
676.80 8.513041
676.90 8.333522
677.00 8.313388
677.10 8.468038
677.20 8.739831
677.30 9.082228
677.40 9.491746
677.50 9.972681
677.60 10.51016
677.70 11.03813
677.80 11.52168
677.90 11.99439
678.00 12.49789
678.10 13.01985
678.20 13.45627
678.30 13.68897
678.40 13.6556
678.50 13.35649
678.60 12.85359
678.70 12.22776
678.80 11.555
678.90 10.87809
679.00 10.251
679.10 9.773989
679.20 9.506817
679.30 9.48022
679.40 9.72379
679.50 10.18071
679.60 10.71144
679.70 11.16387
679.80 11.4161
679.90 11.42192
680.00 11.22908
680.10 10.93142
680.20 10.60744
680.30 10.30806
680.40 10.05195
680.50 9.83711
680.60 9.626073
680.70 9.340926
680.80 8.913709
680.90 8.394993
681.00 7.930673
681.10 7.640928
681.20 7.561668
681.30 7.659091
681.40 7.861667
681.50 8.119836
681.60 8.423327
681.70 8.726789
681.80 8.969821
681.90 9.102975
682.00 9.111401
682.10 8.982051
682.20 8.674817
682.30 8.172401
682.40 7.504525
682.50 6.71759
682.60 5.936216
682.70 5.354452
682.80 5.094465
682.90 5.153084
683.00 5.453994
683.10 5.923141
683.20 6.496097
683.30 7.100344
683.40 7.657683
683.50 8.139287
683.60 8.535467
683.70 8.801832
683.80 8.909455
683.90 8.942102
684.00 9.026885
684.10 9.193887
684.20 9.401142
684.30 9.595315
684.40 9.730293
684.50 9.772608
684.60 9.705293
684.70 9.54271
684.80 9.3051
684.90 9.001612
685.00 8.683274
685.10 8.440913
685.20 8.336488
685.30 8.368959
685.40 8.494319
685.50 8.688125
685.60 8.992004
685.70 9.432205
685.80 9.955481
685.90 10.4572
686.00 10.82663
686.10 11.00684
686.20 11.0115
686.30 10.87211
686.40 10.63022
686.50 10.40201
686.60 10.31041
686.70 10.3689
686.80 10.47999
686.90 10.5319
687.00 10.44101
687.10 10.15685
687.20 9.712348
687.30 9.231948
687.40 8.842074
687.50 8.573925
687.60 8.373156
687.70 8.177082
687.80 7.945094
687.90 7.60939
688.00 7.157194
688.10 6.679724
688.20 6.289484
688.30 6.038886
688.40 5.937852
688.50 5.978776
688.60 6.074467
688.70 6.054262
688.80 5.846082
688.90 5.570879
689.00 5.370677
689.10 5.331033
689.20 5.501664
689.30 5.89173
689.40 6.452977
689.50 7.057983
689.60 7.574517
689.70 7.925904
689.80 8.042387
689.90 7.932537
690.00 7.725182
690.10 7.585815
690.20 7.587105
690.30 7.670124
690.40 7.786112
690.50 7.915619
690.60 8.011492
690.70 8.01985
690.80 7.89129
690.90 7.609978
691.00 7.201414
691.10 6.708747
691.20 6.200887
691.30 5.735041
691.40 5.358146
691.50 5.108847
691.60 5.001833
691.70 5.073788
691.80 5.354112
691.90 5.840398
692.00 6.474986
692.10 7.137782
692.20 7.734423
692.30 8.24055
692.40 8.676836
692.50 9.04086
692.60 9.299955
692.70 9.423268
692.80 9.379559
692.90 9.191162
693.00 8.925086
693.10 8.626829
693.20 8.340368
693.30 8.076282
693.40 7.885911
693.50 7.861309
693.60 8.004026
693.70 8.258905
693.80 8.549537
693.90 8.831201
694.00 9.102409
694.10 9.377
694.20 9.706248
694.30 10.17855
694.40 10.87979
694.50 11.79067
694.60 12.79484
694.70 13.79997
694.80 14.7009
694.90 15.33454
695.00 15.55796
695.10 15.29852
695.20 14.58094
695.30 13.53131
695.40 12.3154
695.50 11.09612
695.60 10.01357
695.70 9.147376
695.80 8.466423
695.90 7.910756
696.00 7.484689
696.10 7.18283
696.20 6.957641
696.30 6.819742
696.40 6.854984
696.50 7.181548
696.60 7.83487
696.70 8.69255
696.80 9.580305
696.90 10.33969
697.00 10.85913
697.10 11.07455
697.20 11.00945
697.30 10.74937
697.40 10.37597
697.50 9.987247
697.60 9.675447
697.70 9.482517
697.80 9.394504
697.90 9.324157
698.00 9.213174
698.10 9.095849
698.20 9.026952
698.30 9.045149
698.40 9.142967
698.50 9.292439
698.60 9.493884
698.70 9.775406
698.80 10.13052
698.90 10.50534
699.00 10.84576
699.10 11.12805
699.20 11.3562
699.30 11.52025
699.40 11.55646
699.50 11.42009
699.60 11.15072
699.70 10.81647
699.80 10.47297
699.90 10.17078
700.00 9.942947
700.10 9.784976
700.20 9.654647
700.30 9.51726
700.40 9.382963
700.50 9.282013
700.60 9.24025
700.70 9.255587
700.80 9.34678
700.90 9.542444
701.00 9.806519
701.10 10.10481
701.20 10.45456
701.30 10.87769
701.40 11.38253
701.50 11.9673
701.60 12.61822
701.70 13.29848
701.80 13.9357
701.90 14.42048
702.00 14.62537
702.10 14.50979
702.20 14.12936
702.30 13.56392
702.40 12.94163
702.50 12.40541
702.60 12.05503
702.70 11.94467
702.80 12.0527
702.90 12.3177
703.00 12.68168
703.10 13.05423
703.20 13.34532
703.30 13.52701
703.40 13.64865
703.50 13.78149
703.60 13.98473
703.70 14.29703
703.80 14.70958
703.90 15.19225
704.00 15.66153
704.10 15.97224
704.20 16.00769
704.30 15.73376
704.40 15.20599
704.50 14.55443
704.60 13.93516
704.70 13.51831
704.80 13.42877
704.90 13.6412
705.00 14.01424
705.10 14.41132
705.20 14.74539
705.30 14.93309
705.40 14.92587
705.50 14.74183
705.60 14.42395
705.70 14.00621
705.80 13.53023
705.90 13.06358
706.00 12.70071
706.10 12.49457
706.20 12.43425
706.30 12.53968
706.40 12.83108
706.50 13.27461
706.60 13.79942
706.70 14.32285
706.80 14.7805
706.90 15.14504
707.00 15.43261
707.10 15.68404
707.20 15.93335
707.30 16.2099
707.40 16.5136
707.50 16.77937
707.60 16.92577
707.70 16.90758
707.80 16.73067
707.90 16.43037
708.00 16.04279
708.10 15.61423
708.20 15.20749
708.30 14.88547
708.40 14.68488
708.50 14.59726
708.60 14.61982
708.70 14.7559
708.80 14.93861
708.90 15.09535
709.00 15.22569
709.10 15.34912
709.20 15.45077
709.30 15.46568
709.40 15.37703
709.50 15.24745
709.60 15.12454
709.70 15.02245
709.80 14.90908
709.90 14.79229
710.00 14.70785
710.10 14.64407
710.20 14.62792
710.30 14.68942
710.40 14.78076
710.50 14.83828
710.60 14.84036
710.70 14.81948
710.80 14.79112
710.90 14.73309
711.00 14.65383
711.10 14.56745
711.20 14.5384
711.30 14.63245
711.40 14.82917
711.50 15.06635
711.60 15.26532
711.70 15.38853
711.80 15.46352
711.90 15.5274
712.00 15.60306
712.10 15.71157
712.20 15.85713
712.30 16.00382
712.40 16.08838
712.50 16.10805
712.60 16.12517
712.70 16.19128
712.80 16.34245
712.90 16.60527
713.00 16.96718
713.10 17.35443
713.20 17.62262
713.30 17.64126
713.40 17.37229
713.50 16.84913
713.60 16.16927
713.70 15.47477
713.80 14.92554
713.90 14.6238
714.00 14.54443
714.10 14.58304
714.20 14.69367
714.30 14.91694
714.40 15.29682
714.50 15.84196
714.60 16.55467
714.70 17.37655
714.80 18.16747
714.90 18.79051
715.00 19.10872
715.10 19.00861
715.20 18.44186
715.30 17.47321
715.40 16.30953
715.50 15.21859
715.60 14.38678
715.70 13.89712
715.80 13.75626
715.90 13.90291
716.00 14.23674
716.10 14.64702
716.20 15.03667
716.30 15.31607
716.40 15.45379
716.50 15.50748
716.60 15.57553
716.70 15.72477
716.80 15.95492
716.90 16.24453
717.00 16.55734
717.10 16.79985
717.20 16.86564
717.30 16.72977
717.40 16.44934
717.50 16.10119
717.60 15.78962
717.70 15.60935
717.80 15.60819
717.90 15.79569
718.00 16.14839
718.10 16.62234
718.20 17.1299
718.30 17.55566
718.40 17.82284
718.50 17.92497
718.60 17.92798
718.70 17.90845
718.80 17.9276
718.90 18.05949
719.00 18.30755
719.10 18.62855
719.20 18.98766
719.30 19.31068
719.40 19.49996
719.50 19.46202
719.60 19.15939
719.70 18.63983
719.80 17.98374
719.90 17.25886
720.00 16.55326
720.10 15.97592
720.20 15.57771
720.30 15.35286
720.40 15.30023
720.50 15.42838
720.60 15.71539
720.70 16.1259
720.80 16.61542
720.90 17.12242
721.00 17.59492
721.10 17.97716
721.20 18.21859
721.30 18.32623
721.40 18.2897
721.50 18.05967
721.60 17.64382
721.70 17.13398
721.80 16.67134
721.90 16.39202
722.00 16.38212
722.10 16.66052
722.20 17.19899
722.30 17.96414
722.40 18.88369
722.50 19.81023
722.60 20.57501
722.70 21.02548
722.80 21.1146
722.90 20.91342
723.00 20.55143
723.10 20.14635
723.20 19.76601
723.30 19.46677
723.40 19.32105
723.50 19.3969
723.60 19.70271
723.70 20.12862
723.80 20.51647
723.90 20.76788
724.00 20.82994
724.10 20.70495
724.20 20.4472
724.30 20.17333
724.40 20.01391
724.50 20.08023
724.60 20.44747
724.70 21.0501
724.80 21.73881
724.90 22.36356
725.00 22.82301
725.10 23.11037
725.20 23.2665
725.30 23.33878
725.40 23.38014
725.50 23.41174
725.60 23.39053
725.70 23.20297
725.80 22.76774
725.90 22.10384
726.00 21.31098
726.10 20.57082
726.20 20.0465
726.30 19.82775
726.40 19.91431
726.50 20.22306
726.60 20.6427
726.70 21.04648
726.80 21.3389
726.90 21.51353
727.00 21.70204
727.10 22.1471
727.20 22.97314
727.30 24.00817
727.40 24.91083
727.50 25.44106
727.60 25.50669
727.70 25.08317
727.80 24.25637
727.90 23.21233
728.00 22.16313
728.10 21.32904
728.20 20.89032
728.30 20.92827
728.40 21.37975
728.50 22.01335
728.60 22.58359
728.70 23.02587
728.80 23.39014
728.90 23.64408
729.00 23.70714
729.10 23.56108
729.20 23.22188
729.30 22.72584
729.40 22.14963
729.50 21.57777
729.60 21.07185
729.70 20.67745
729.80 20.39589
729.90 20.21342
730.00 20.17742
730.10 20.34386
730.20 20.68539
730.30 21.13215
730.40 21.57476
730.50 21.91894
730.60 22.14168
730.70 22.20912
730.80 22.10398
730.90 21.86991
731.00 21.64694
731.10 21.60767
731.20 21.84495
731.30 22.36131
731.40 23.03604
731.50 23.65755
731.60 24.05792
731.70 24.16383
731.80 24.02504
731.90 23.76004
732.00 23.47768
732.10 23.32081
732.20 23.38592
732.30 23.68224
732.40 24.13257
732.50 24.57727
732.60 24.87508
732.70 25.00566
732.80 25.02924
732.90 24.95974
733.00 24.78407
733.10 24.49069
733.20 24.0915
733.30 23.6377
733.40 23.17391
733.50 22.71717
733.60 22.25018
733.70 21.74706
733.80 21.19408
733.90 20.65793
734.00 20.28297
734.10 20.1188
734.20 20.13564
734.30 20.3644
734.40 20.84405
734.50 21.56843
734.60 22.44356
734.70 23.2766
734.80 23.89082
734.90 24.19746
735.00 24.23142
735.10 24.1138
735.20 23.94583
735.30 23.73055
735.40 23.45302
735.50 23.16143
735.60 22.90721
735.70 22.72011
735.80 22.6428
735.90 22.72569
736.00 23.02211
736.10 23.57305
736.20 24.34493
736.30 25.20608
736.40 25.96878
736.50 26.42631
736.60 26.41649
736.70 25.88213
736.80 24.88828
736.90 23.61797
737.00 22.32813
737.10 21.28868
737.20 20.70168
737.30 20.6107
737.40 20.91031
737.50 21.43013
737.60 22.04048
737.70 22.68423
737.80 23.32289
737.90 23.9034
738.00 24.35881
738.10 24.66549
738.20 24.81073
738.30 24.79147
738.40 24.64283
738.50 24.39318
738.60 24.06812
738.70 23.74189
738.80 23.50613
738.90 23.38615
739.00 23.29474
739.10 23.13373
739.20 22.9012
739.30 22.65015
739.40 22.45328
739.50 22.38247
739.60 22.46344
739.70 22.61584
739.80 22.63101
739.90 22.33392
740.00 21.75815
740.10 21.04637
740.20 20.30157
740.30 19.64015
740.40 19.2292
740.50 19.17135
740.60 19.42168
740.70 19.87421
740.80 20.44009
740.90 21.01035
741.00 21.48083
741.10 21.81806
741.20 22.11284
741.30 22.49189
741.40 22.96807
741.50 23.43706
741.60 23.7652
741.70 23.84126
741.80 23.58325
741.90 22.94936
742.00 21.99511
742.10 20.86897
742.20 19.75318
742.30 18.83688
742.40 18.27467
742.50 18.14291
742.60 18.42545
742.70 19.02033
742.80 19.74306
742.90 20.40843
743.00 20.91934
743.10 21.24225
743.20 21.37834
743.30 21.38244
743.40 21.32242
743.50 21.25618
743.60 21.24967
743.70 21.34814
743.80 21.54169
743.90 21.78626
744.00 22.04354
744.10 22.28654
744.20 22.47432
744.30 22.5559
744.40 22.53114
744.50 22.43824
744.60 22.34511
744.70 22.32322
744.80 22.37497
744.90 22.44758
745.00 22.46314
745.10 22.40045
745.20 22.31808
745.30 22.26698
745.40 22.26228
745.50 22.30192
745.60 22.388
745.70 22.53735
745.80 22.75344
745.90 23.00323
746.00 23.17591
746.10 23.17324
746.20 23.06784
746.30 23.01691
746.40 23.12636
746.50 23.37064
746.60 23.61879
746.70 23.76196
746.80 23.74401
746.90 23.54078
747.00 23.14069
747.10 22.58091
747.20 21.94481
747.30 21.3326
747.40 20.90175
747.50 20.76844
747.60 20.89352
747.70 21.14756
747.80 21.41137
747.90 21.6463
748.00 21.86962
748.10 22.07063
748.20 22.22559
748.30 22.34817
748.40 22.48052
748.50 22.6494
748.60 22.84364
748.70 23.0259
748.80 23.12245
748.90 23.07402
749.00 22.8981
749.10 22.65135
749.20 22.38382
749.30 22.10541
749.40 21.8025
749.50 21.48013
749.60 21.16172
749.70 20.85797
749.80 20.57013
749.90 20.3216
750.00 20.16796
750.10 20.16082
750.20 20.3194
750.30 20.63084
750.40 21.0298
750.50 21.44206
750.60 21.82814
750.70 22.1723
750.80 22.49374
750.90 22.81824
751.00 23.12762
751.10 23.38688
751.20 23.60752
751.30 23.82923
751.40 24.0377
751.50 24.18505
751.60 24.23282
751.70 24.11761
751.80 23.80446
751.90 23.34661
752.00 22.86307
752.10 22.49064
752.20 22.41548
752.30 22.73578
752.40 23.36813
752.50 24.16362
752.60 24.93419
752.70 25.4738
752.80 25.63914
752.90 25.39321
753.00 24.78396
753.10 23.95552
753.20 23.07805
753.30 22.26367
753.40 21.56133
753.50 20.99057
753.60 20.45877
753.70 19.91457
753.80 19.47152
753.90 19.23737
754.00 19.25183
754.10 19.49223
754.20 19.88689
754.30 20.33705
754.40 20.76946
754.50 21.14072
754.60 21.41947
754.70 21.59346
754.80 21.66695
754.90 21.65149
755.00 21.57545
755.10 21.45874
755.20 21.2431
755.30 20.87586
755.40 20.40431
755.50 19.91348
755.60 19.49518
755.70 19.2267
755.80 19.14422
755.90 19.24996
756.00 19.49996
756.10 19.79771
756.20 20.04096
756.30 20.15466
756.40 20.08704
756.50 19.83372
756.60 19.50492
756.70 19.25406
756.80 19.17979
756.90 19.35214
757.00 19.7864
757.10 20.42955
757.20 21.19275
757.30 21.96341
757.40 22.64312
757.50 23.1624
757.60 23.47224
757.70 23.5517
757.80 23.40937
757.90 23.07318
758.00 22.57904
758.10 21.97686
758.20 21.33044
758.30 20.69679
758.40 20.1306
758.50 19.67181
758.60 19.3293
758.70 19.09269
758.80 18.93576
758.90 18.83102
759.00 18.71818
759.10 18.54286
759.20 18.31699
759.30 18.07095
759.40 17.92082
759.50 18.05613
759.60 18.6194
759.70 19.62672
759.80 20.90143
759.90 22.14739
760.00 23.15731
760.10 23.74799
760.20 23.69392
760.30 22.91881
760.40 21.48353
760.50 19.55346
760.60 17.47079
760.70 15.67012
760.80 14.44158
760.90 13.87642
761.00 13.92987
761.10 14.47074
761.20 15.32407
761.30 16.26944
761.40 16.97891
761.50 17.20717
761.60 16.93972
761.70 16.23244
761.80 15.25874
761.90 14.2677
762.00 13.38839
762.10 12.67398
762.20 12.16115
762.30 11.84191
762.40 11.68654
762.50 11.70273
762.60 11.99205
762.70 12.66292
762.80 13.6559
762.90 14.70121
763.00 15.4418
763.10 15.58745
763.20 15.01052
763.30 13.76709
763.40 12.08142
763.50 10.27427
763.60 8.678842
763.70 7.614838
763.80 7.320616
763.90 7.76475
764.00 8.632012
764.10 9.520246
764.20 10.10782
764.30 10.29513
764.40 10.12412
764.50 9.660898
764.60 9.043503
764.70 8.4553
764.80 8.066107
764.90 8.000615
765.00 8.312253
765.10 8.906778
765.20 9.518022
765.30 9.887707
765.40 9.855049
765.50 9.387292
765.60 8.613817
765.70 7.676389
765.80 6.720922
765.90 5.944532
766.00 5.485447
766.10 5.385039
766.20 5.550329
766.30 5.817412
766.40 6.026982
766.50 6.037975
766.60 5.804363
766.70 5.394572
766.80 4.943113
766.90 4.560392
767.00 4.264166
767.10 4.014399
767.20 3.793123
767.30 3.619595
767.40 3.492772
767.50 3.373899
767.60 3.280585
767.70 3.264011
767.80 3.348606
767.90 3.554582
768.00 3.868356
768.10 4.241637
768.20 4.607703
768.30 4.894575
768.40 5.071935
768.50 5.170938
768.60 5.224413
768.70 5.224645
768.80 5.155617
768.90 5.01067
769.00 4.770707
769.10 4.409421
769.20 3.916932
769.30 3.300769
769.40 2.599258
769.50 1.870578
769.60 1.193335
769.70 0.6415443
769.80 0.2519035
769.90 0.04946554
770.00 0.05696427
770.10 0.2717124
770.20 0.6587867
770.30 1.177508
770.40 1.779911
770.50 2.395872
770.60 2.978852
770.70 3.527244
770.80 4.031154
770.90 4.453208
771.00 4.816293
771.10 5.256835
771.20 5.934509
771.30 6.816842
771.40 7.738179
771.50 8.588687
771.60 9.326102
771.70 9.996226
771.80 10.65464
771.90 11.2925
772.00 11.84169
772.10 12.2392
772.20 12.52582
772.30 12.816
772.40 13.12711
772.50 13.33547
772.60 13.29834
772.70 13.0293
772.80 12.63594
772.90 12.23232
773.00 11.92011
773.10 11.67645
773.20 11.44149
773.30 11.24666
773.40 11.19476
773.50 11.3936
773.60 11.84438
773.70 12.42223
773.80 13.01656
773.90 13.55876
774.00 14.02471
774.10 14.44547
774.20 14.83839
774.30 15.16757
774.40 15.41491
774.50 15.57909
774.60 15.62819
774.70 15.54395
774.80 15.33658
774.90 14.99903
775.00 14.54411
775.10 14.07938
775.20 13.70996
775.30 13.40701
775.40 13.11472
775.50 12.86094
775.60 12.73685
775.70 12.84622
775.80 13.1886
775.90 13.7196
776.00 14.41823
776.10 15.21688
776.20 15.97234
776.30 16.55894
776.40 16.90829
776.50 16.95492
776.60 16.6948
776.70 16.34371
776.80 16.142
776.90 16.17116
777.00 16.43684
777.10 16.82621
777.20 17.20079
777.30 17.50789
777.40 17.69874
777.50 17.7237
777.60 17.63882
777.70 17.54839
777.80 17.53031
777.90 17.62274
778.00 17.78652
778.10 17.92602
778.20 17.97968
778.30 17.93482
778.40 17.78564
778.50 17.56425
778.60 17.32264
778.70 17.13509
778.80 17.1676
778.90 17.54676
779.00 18.2299
779.10 19.06763
779.20 19.91858
779.30 20.64234
779.40 21.0695
779.50 21.03271
779.60 20.40565
779.70 19.16393
779.80 17.43218
779.90 15.55514
780.00 13.99765
780.10 13.07012
780.20 12.83587
780.30 13.26701
780.40 14.23434
780.50 15.5099
780.60 16.85488
780.70 18.08884
780.80 19.19162
780.90 20.22694
781.00 21.23416
781.10 22.22641
781.20 23.17106
781.30 23.95525
781.40 24.46462
781.50 24.66918
781.60 24.61787
781.70 24.30157
781.80 23.75016
781.90 23.17208
782.00 22.78158
782.10 22.66423
782.20 22.80508
782.30 23.18572
782.40 23.76486
782.50 24.45089
782.60 25.1469
782.70 25.72107
782.80 26.00859
782.90 25.90683
783.00 25.44771
783.10 24.81617
783.20 24.20716
783.30 23.61984
783.40 22.98111
783.50 22.36825
783.60 21.89538
783.70 21.56112
783.80 21.33379
783.90 21.2724
784.00 21.44653
784.10 21.83497
784.20 22.37945
784.30 23.01537
784.40 23.63245
784.50 24.13306
784.60 24.54469
784.70 24.95418
784.80 25.3631
784.90 25.6758
785.00 25.8389
785.10 25.84933
785.20 25.67969
785.30 25.32181
785.40 24.84144
785.50 24.28848
785.60 23.6186
785.70 22.88031
785.80 22.2488
785.90 21.86107
786.00 21.76667
786.10 22.00205
786.20 22.59403
786.30 23.49312
786.40 24.5702
786.50 25.6746
786.60 26.64096
786.70 27.23905
786.80 27.29556
786.90 26.88664
787.00 26.28838
787.10 25.71104
787.20 25.18675
787.30 24.69443
787.40 24.22795
787.50 23.80243
787.60 23.50331
787.70 23.47199
787.80 23.80351
787.90 24.51199
788.00 25.5478
788.10 26.72548
788.20 27.78353
788.30 28.54541
788.40 28.9494
788.50 28.96862
788.60 28.62722
788.70 28.04073
788.80 27.43169
788.90 27.02606
789.00 26.88984
789.10 26.97321
789.20 27.16301
789.30 27.29082
789.40 27.25448
789.50 27.11984
789.60 27.00117
789.70 26.95832
789.80 26.98472
789.90 27.03423
790.00 27.1512
790.10 27.46128
790.20 27.97093
790.30 28.57977
790.40 29.1789
790.50 29.62365
790.60 29.79047
790.70 29.69194
790.80 29.52697
790.90 29.50842
791.00 29.71052
791.10 30.03031
791.20 30.22183
791.30 30.14641
791.40 29.78619
791.50 29.1756
791.60 28.42878
791.70 27.65561
791.80 26.99895
791.90 26.67674
792.00 26.84442
792.10 27.50925
792.20 28.45361
792.30 29.36782
792.40 30.05023
792.50 30.43744
792.60 30.63899
792.70 30.79466
792.80 31.00501
792.90 31.30629
793.00 31.65918
793.10 32.05073
793.20 32.45891
793.30 32.78287
793.40 32.93131
793.50 32.84935
793.60 32.53155
793.70 32.05498
793.80 31.54487
793.90 31.13114
794.00 30.84654
794.10 30.61431
794.20 30.28571
794.30 29.67964
794.40 28.64815
794.50 27.13081
794.60 25.20751
794.70 23.08396
794.80 21.06031
794.90 19.47782
795.00 18.66956
795.10 18.81372
795.20 19.77347
795.30 21.27536
795.40 23.12655
795.50 25.11938
795.60 27.01428
795.70 28.69245
795.80 30.15413
795.90 31.4197
796.00 32.51972
796.10 33.54527
796.20 34.5208
796.30 35.3152
796.40 35.73923
796.50 35.7086
796.60 35.3285
796.70 34.73904
796.80 34.0203
796.90 33.28706
797.00 32.69455
797.10 32.32754
797.20 32.19732
797.30 32.29983
797.40 32.58872
797.50 32.91953
797.60 33.14915
797.70 33.29919
797.80 33.45717
797.90 33.61283
798.00 33.70879
798.10 33.73443
798.20 33.69519
798.30 33.55795
798.40 33.31942
798.50 33.04495
798.60 32.82282
798.70 32.7416
798.80 32.88533
798.90 33.356
799.00 34.25583
799.10 35.59216
799.20 37.21889
799.30 38.93108
799.40 40.55624
799.50 41.90614
799.60 42.72939
799.70 42.89671
799.80 42.49915
799.90 41.71135
800.00 40.71666
800.10 39.74264
800.20 39.03193
800.30 38.69367
800.40 38.67813
800.50 38.85432
800.60 39.09313
800.70 39.28139
800.80 39.30645
800.90 39.09737
801.00 38.71657
801.10 38.27243
801.20 37.78656
801.30 37.25301
801.40 36.71733
801.50 36.23801
801.60 35.83444
801.70 35.51709
801.80 35.34642
801.90 35.37959
802.00 35.59414
802.10 35.95063
802.20 36.39426
802.30 36.89197
802.40 37.4764
802.50 38.18043
802.60 38.9846
802.70 39.8372
802.80 40.68111
802.90 41.44826
803.00 42.07205
803.10 42.47146
803.20 42.53784
803.30 42.22253
803.40 41.56859
803.50 40.65262
803.60 39.64664
803.70 38.75839
803.80 38.12991
803.90 37.86286
804.00 38.00982
804.10 38.55909
804.20 39.41004
804.30 40.38659
804.40 41.28859
804.50 42.01826
804.60 42.59457
804.70 42.98668
804.80 43.18991
804.90 43.23991
805.00 43.10168
805.10 42.78601
805.20 42.4029
805.30 42.08701
805.40 41.92173
805.50 41.93804
805.60 42.15982
805.70 42.71769
805.80 43.70689
805.90 44.92259
806.00 46.07131
806.10 46.99426
806.20 47.57158
806.30 47.78575
806.40 47.71858
806.50 47.39849
806.60 46.84175
806.70 46.12488
806.80 45.39342
806.90 44.82769
807.00 44.5813
807.10 44.62897
807.20 44.8896
807.30 45.46393
807.40 46.40686
807.50 47.63263
807.60 49.01673
807.70 50.34107
807.80 51.37363
807.90 52.01474
808.00 52.28761
808.10 52.28732
808.20 52.14983
808.30 51.95884
808.40 51.74416
808.50 51.54457
808.60 51.37778
808.70 51.20312
808.80 50.96662
808.90 50.64613
809.00 50.26382
809.10 49.90207
809.20 49.64264
809.30 49.5036
809.40 49.43782
809.50 49.31103
809.60 49.00202
809.70 48.52747
809.80 48.01681
809.90 47.59318
810.00 47.34241
810.10 47.32527
810.20 47.54924
810.30 47.96443
810.40 48.49124
810.50 49.08333
810.60 49.71538
810.70 50.35193
810.80 50.92513
810.90 51.38231
811.00 51.71408
811.10 51.92769
811.20 51.98557
811.30 51.84305
811.40 51.47954
811.50 50.91084
811.60 50.24517
811.70 49.63964
811.80 49.25125
811.90 49.15918
812.00 49.39772
812.10 49.936
812.20 50.70696
812.30 51.67348
812.40 52.76519
812.50 53.85671
812.60 54.79447
812.70 55.41324
812.80 55.59358
812.90 55.35561
813.00 54.84562
813.10 54.25978
813.20 53.78409
813.30 53.56516
813.40 53.66709
813.50 54.09635
813.60 54.77488
813.70 55.51408
813.80 56.09264
813.90 56.36645
814.00 56.33634
814.10 56.09881
814.20 55.83037
814.30 55.6953
814.40 55.7296
814.50 55.87946
814.60 56.04983
814.70 56.10721
814.80 55.94569
814.90 55.55012
815.00 55.01312
815.10 54.4912
815.20 54.09408
815.30 53.91513
815.40 54.07681
815.50 54.6734
815.60 55.67202
815.70 56.88902
815.80 58.08433
815.90 59.06681
816.00 59.75953
816.10 60.14952
816.20 60.22193
816.30 60.04375
816.40 59.78135
816.50 59.62171
816.60 59.76527
816.70 60.27636
816.80 61.00579
816.90 61.69202
817.00 62.12162
817.10 62.26305
817.20 62.18801
817.30 61.91144
817.40 61.35807
817.50 60.53503
817.60 59.58281
817.70 58.56665
817.80 57.39435
817.90 55.90005
818.00 53.97411
818.10 51.67923
818.20 49.29196
818.30 47.26571
818.40 46.05221
818.50 45.89167
818.60 46.78405
818.70 48.55668
818.80 50.8689
818.90 53.22328
819.00 55.0515
819.10 55.8286
819.20 55.23017
819.30 53.33411
819.40 50.63798
819.50 47.81947
819.60 45.48568
819.70 44.04426
819.80 43.67069
819.90 44.29939
820.00 45.6964
820.10 47.59422
820.20 49.7191
820.30 51.78977
820.40 53.6144
820.50 55.20511
820.60 56.67707
820.70 58.013
820.80 59.05869
820.90 59.70895
821.00 59.94944
821.10 59.84081
821.20 59.50328
821.30 59.1131
821.40 58.86883
821.50 58.87012
821.60 59.13524
821.70 59.65735
821.80 60.35559
821.90 61.03821
822.00 61.5093
822.10 61.7364
822.20 61.82023
822.30 61.87743
822.40 62.04276
822.50 62.45404
822.60 63.21003
822.70 64.30813
822.80 65.58307
822.90 66.78998
823.00 67.73452
823.10 68.295
823.20 68.43251
823.30 68.22115
823.40 67.84532
823.50 67.51934
823.60 67.38325
823.70 67.47904
823.80 67.76
823.90 68.10373
824.00 68.35153
824.10 68.39459
824.20 68.25163
824.30 68.03124
824.40 67.81325
824.50 67.71844
824.60 67.85302
824.70 68.21589
824.80 68.75402
824.90 69.34569
825.00 69.7983
825.10 69.84588
825.20 69.33785
825.30 68.35117
825.40 67.05571
825.50 65.67254
825.60 64.42813
825.70 63.51763
825.80 63.15476
825.90 63.41471
826.00 64.21713
826.10 65.39426
826.20 66.66371
826.30 67.70642
826.40 68.2636
826.50 68.25372
826.60 67.68905
826.70 66.65562
826.80 65.41517
826.90 64.30069
827.00 63.61064
827.10 63.43209
827.20 63.59232
827.30 63.97972
827.40 64.62558
827.50 65.48446
827.60 66.45861
827.70 67.5813
827.80 68.95227
827.90 70.5228
828.00 72.11728
828.10 73.52896
828.20 74.56697
828.30 75.08348
828.40 75.00746
828.50 74.4513
828.60 73.59617
828.70 72.44743
828.80 71.01713
828.90 69.54239
829.00 68.25232
829.10 67.13723
829.20 66.00794
829.30 64.78595
829.40 63.61423
829.50 62.65014
829.60 61.77298
829.70 60.72685
829.80 59.48816
829.90 58.26373
830.00 57.36329
830.10 57.05048
830.20 57.3533
830.30 58.10262
830.40 59.09652
830.50 60.2171
830.60 61.52865
830.70 63.11477
830.80 64.8569
830.90 66.49043
831.00 67.97016
831.10 69.46028
831.20 70.97135
831.30 72.31958
831.40 73.26495
831.50 73.69298
831.60 73.62528
831.70 73.14181
831.80 72.36595
831.90 71.36095
832.00 70.09714
832.10 68.62325
832.20 67.08518
832.30 65.65532
832.40 64.475
832.50 63.62296
832.60 63.07626
832.70 62.7607
832.80 62.64318
832.90 62.6822
833.00 62.81845
833.10 62.98873
833.20 63.14974
833.30 63.31287
833.40 63.56014
833.50 63.9382
833.60 64.35935
833.70 64.71518
833.80 65.0882
833.90 65.67373
834.00 66.63205
834.10 68.05311
834.20 69.89878
834.30 71.95593
834.40 73.86881
834.50 75.31934
834.60 76.19427
834.70 76.45349
834.80 75.84915
834.90 74.17489
835.00 71.72468
835.10 69.1773
835.20 67.10798
835.30 65.82095
835.40 65.39971
835.50 65.74463
835.60 66.66885
835.70 67.94274
835.80 69.34989
835.90 70.65774
836.00 71.60213
836.10 72.08621
836.20 72.38295
836.30 72.87992
836.40 73.679
836.50 74.62382
836.60 75.46371
836.70 75.98586
836.80 76.08849
836.90 75.78367
837.00 75.15343
837.10 74.35635
837.20 73.55276
837.30 72.87777
837.40 72.43518
837.50 72.21401
837.60 72.10922
837.70 71.95722
837.80 71.63889
837.90 71.12421
838.00 70.46289
838.10 69.73513
838.20 69.02731
838.30 68.38168
838.40 67.87468
838.50 67.68824
838.60 67.95781
838.70 68.62292
838.80 69.4978
838.90 70.41792
839.00 71.23164
839.10 71.81048
839.20 72.1059
839.30 72.12358
839.40 71.85691
839.50 71.36372
839.60 70.93191
839.70 70.97126
839.80 71.63143
839.90 72.7308
840.00 74.05769
840.10 75.48247
840.20 76.88293
840.30 78.10706
840.40 78.9799
840.50 79.354
840.60 79.10457
840.70 78.22047
840.80 76.96681
840.90 75.6922
841.00 74.56781
841.10 73.66301
841.20 73.08227
841.30 72.8657
841.40 72.86122
841.50 72.94952
841.60 73.11644
841.70 73.28579
841.80 73.32806
841.90 73.19793
842.00 73.04433
842.10 73.13768
842.20 73.68713
842.30 74.90177
842.40 76.91746
842.50 79.57305
842.60 82.51585
842.70 85.28061
842.80 87.43737
842.90 88.62911
843.00 88.51203
843.10 87.01816
843.20 84.46655
843.30 81.41635
843.40 78.44842
843.50 75.94615
843.60 74.03953
843.70 72.60792
843.80 71.42974
843.90 70.40939
844.00 69.52332
844.10 68.84399
844.20 68.50105
844.30 68.54384
844.40 68.94415
844.50 69.54787
844.60 70.22285
844.70 70.90394
844.80 71.46611
844.90 71.77232
845.00 71.70294
845.10 71.21124
845.20 70.36704
845.30 69.26647
845.40 67.97296
845.50 66.50417
845.60 64.90811
845.70 63.36768
845.80 62.179
845.90 61.59661
846.00 61.70702
846.10 62.43178
846.20 63.66066
846.30 65.27375
846.40 67.0605
846.50 68.72398
846.60 69.91688
846.70 70.34191
846.80 69.93012
846.90 68.85471
847.00 67.32871
847.10 65.46236
847.20 63.37958
847.30 61.35432
847.40 59.68587
847.50 58.53921
847.60 57.85332
847.70 57.39881
847.80 56.96185
847.90 56.44626
848.00 55.89732
848.10 55.42885
848.20 55.13085
848.30 55.05928
848.40 55.25488
848.50 55.71657
848.60 56.3095
848.70 56.83463
848.80 57.15237
848.90 57.17422
849.00 56.89128
849.10 56.50522
849.20 56.37134
849.30 56.63088
849.40 57.14828
849.50 57.80233
849.60 58.52791
849.70 59.27839
849.80 60.03914
849.90 60.92099
850.00 62.17691
850.10 63.90379
850.20 65.87848
850.30 67.75722
850.40 69.25567
850.50 70.09224
850.60 70.04612
850.70 69.17284
850.80 67.74786
850.90 66.12394
851.00 64.67178
851.10 63.63981
851.20 63.15051
851.30 63.17688
851.40 63.46029
851.50 63.6461
851.60 63.40576
851.70 62.46502
851.80 60.66222
851.90 58.04549
852.00 54.86771
852.10 51.50683
852.20 48.51244
852.30 46.53147
852.40 46.02926
852.50 47.07112
852.60 49.35824
852.70 52.351
852.80 55.44503
852.90 58.20546
853.00 60.385
853.10 61.84281
853.20 62.63239
853.30 63.00528
853.40 63.24329
853.50 63.58388
853.60 64.09739
853.70 64.58715
853.80 64.78811
853.90 64.646
854.00 64.26301
854.10 63.76343
854.20 63.33546
854.30 63.1956
854.40 63.49798
854.50 64.39297
854.60 65.99685
854.70 68.24146
854.80 70.88506
854.90 73.56907
855.00 75.8332
855.10 77.20121
855.20 77.35423
855.30 76.25308
855.40 74.16185
855.50 71.52834
855.60 68.76082
855.70 66.12345
855.80 63.90553
855.90 62.39933
856.00 61.66344
856.10 61.56348
856.20 61.94731
856.30 62.68145
856.40 63.59284
856.50 64.46667
856.60 65.0801
856.70 65.25588
856.80 64.97505
856.90 64.40254
857.00 63.81645
857.10 63.53081
857.20 63.69237
857.30 64.24578
857.40 65.10484
857.50 66.11558
857.60 67.01827
857.70 67.60632
857.80 67.88842
857.90 68.01647
858.00 68.14412
858.10 68.4358
858.20 68.9968
858.30 69.80203
858.40 70.71382
858.50 71.49246
858.60 71.87141
858.70 71.6838
858.80 70.91673
858.90 69.71627
859.00 68.32648
859.10 67.07058
859.20 66.33143
859.30 66.46879
859.40 67.72534
859.50 70.09871
859.60 73.08774
859.70 75.91933
859.80 78.06472
859.90 79.22869
860.00 79.30967
860.10 78.43995
860.20 76.95079
860.30 75.2804
860.40 73.83553
860.50 72.82677
860.60 72.18735
860.70 71.66805
860.80 70.96781
860.90 69.81987
861.00 68.20504
861.10 66.242
861.20 63.85022
861.30 60.99848
861.40 57.95303
861.50 55.11878
861.60 52.83958
861.70 51.23986
861.80 50.20653
861.90 49.56574
862.00 49.1687
862.10 48.87782
862.20 48.59044
862.30 48.25747
862.40 47.92326
862.50 47.6805
862.60 47.63351
862.70 47.84869
862.80 48.22091
862.90 48.60604
863.00 48.92594
863.10 49.19758
863.20 49.57041
863.30 50.10291
863.40 50.69192
863.50 51.21559
863.60 51.58707
863.70 51.69303
863.80 51.41511
863.90 50.83892
864.00 50.29412
864.10 50.0326
864.20 50.10094
864.30 50.39899
864.40 50.74626
864.50 50.98846
864.60 51.0397
864.70 51.00634
864.80 51.15877
864.90 51.7628
865.00 52.96345
865.10 54.73661
865.20 56.86573
865.30 58.73163
865.40 59.5768
865.50 59.09579
865.60 57.65172
865.70 55.93831
865.80 54.56303
865.90 53.96468
866.00 54.40434
866.10 55.91614
866.20 58.21431
866.30 60.78253
866.40 63.02489
866.50 64.48138
866.60 65.00153
866.70 64.88639
866.80 64.55947
866.90 64.14158
867.00 63.40728
867.10 62.18264
867.20 60.70198
867.30 59.3247
867.40 58.29361
867.50 57.78703
867.60 57.95918
867.70 58.75343
867.80 59.92565
867.90 61.14689
868.00 62.06848
868.10 62.4337
868.20 62.19282
868.30 61.555
868.40 60.89227
868.50 60.43669
868.60 60.07061
868.70 59.55712
868.80 58.68638
868.90 57.22176
869.00 55.00142
869.10 52.13247
869.20 48.94558
869.30 45.93683
869.40 43.62622
869.50 42.31627
869.60 42.06407
869.70 42.77097
869.80 44.22814
869.90 46.0944
870.00 47.93793
870.10 49.38051
870.20 50.20752
870.30 50.32571
870.40 49.74099
870.50 48.58751
870.60 47.09093
870.70 45.39893
870.80 43.53924
870.90 41.60061
871.00 39.78262
871.10 38.36593
871.20 37.62438
871.30 37.65689
871.40 38.35579
871.50 39.53408
871.60 41.00557
871.70 42.50005
871.80 43.68119
871.90 44.3233
872.00 44.40966
872.10 44.05395
872.20 43.48193
872.30 43.06003
872.40 43.16041
872.50 43.88804
872.60 45.03045
872.70 46.31953
872.80 47.57406
872.90 48.60683
873.00 49.24898
873.10 49.50386
873.20 49.47212
873.30 49.2465
873.40 48.9125
873.50 48.63138
873.60 48.59406
873.70 48.8593
873.80 49.37685
873.90 50.18496
874.00 51.37816
874.10 52.83526
874.20 54.16653
874.30 55.00839
874.40 55.19954
874.50 54.6626
874.60 53.51265
874.70 52.05122
874.80 50.57907
874.90 49.36937
875.00 48.64268
875.10 48.46675
875.20 48.67511
875.30 49.02644
875.40 49.39751
875.50 49.83832
875.60 50.55412
875.70 51.58212
875.80 52.66737
875.90 53.59831
876.00 54.31575
876.10 54.76385
876.20 54.86831
876.30 54.68631
876.40 54.45173
876.50 54.56347
876.60 55.47766
876.70 57.42025
876.80 60.29318
876.90 63.80719
877.00 67.53692
877.10 71.08648
877.20 74.09904
877.30 76.27607
877.40 77.55692
877.50 78.01395
877.60 77.5573
877.70 76.07753
877.80 73.68847
877.90 70.63667
878.00 67.29498
878.10 64.05236
878.20 61.21075
878.30 58.95757
878.40 57.39173
878.50 56.56204
878.60 56.61536
878.70 57.66417
878.80 59.45055
878.90 61.50228
879.00 63.565
879.10 65.50386
879.20 67.18175
879.30 68.43543
879.40 69.01428
879.50 68.76199
879.60 67.63993
879.70 65.78761
879.80 63.53219
879.90 61.25282
880.00 59.23704
880.10 57.63636
880.20 56.5382
880.30 56.05331
880.40 56.30304
880.50 57.20418
880.60 58.30885
880.70 59.1482
880.80 59.58272
880.90 59.78005
881.00 60.06829
881.10 60.7375
881.20 61.98879
881.30 63.94021
881.40 66.53858
881.50 69.61152
881.60 72.91732
881.70 76.12289
881.80 78.85243
881.90 80.67977
882.00 81.48051
882.10 81.51319
882.20 81.02367
882.30 80.08498
882.40 78.70093
882.50 76.99898
882.60 75.34569
882.70 74.25946
882.80 74.07317
882.90 74.69505
883.00 75.77453
883.10 76.9075
883.20 77.73049
883.30 78.26121
883.40 78.62094
883.50 78.78531
883.60 78.79811
883.70 78.80003
883.80 79.06358
883.90 79.75671
884.00 80.57861
884.10 80.81337
884.20 79.86097
884.30 77.64753
884.40 74.48805
884.50 70.92963
884.60 67.65135
884.70 65.31072
884.80 64.44443
884.90 65.24592
885.00 67.55831
885.10 70.98857
885.20 74.85859
885.30 78.33264
885.40 80.71401
885.50 81.69016
885.60 81.31166
885.70 79.7452
885.80 77.28361
885.90 74.47426
886.00 72.03
886.10 70.43122
886.20 69.80209
886.30 70.12852
886.40 71.2342
886.50 72.71074
886.60 74.00813
886.70 74.56305
886.80 73.9888
886.90 72.20287
887.00 69.4448
887.10 66.29502
887.20 63.51616
887.30 61.72528
887.40 61.2481
887.50 62.18783
887.60 64.44811
887.70 67.66972
887.80 71.23328
887.90 74.5412
888.00 77.39028
888.10 79.74082
888.20 81.56108
888.30 82.86738
888.40 83.68865
888.50 84.19901
888.60 84.70611
888.70 85.43608
888.80 86.31086
888.90 86.98314
889.00 87.05182
889.10 86.19972
889.20 84.22473
889.30 81.0643
889.40 76.71901
889.50 71.61386
889.60 66.6867
889.70 62.92556
889.80 61.08385
889.90 61.3155
890.00 63.05745
890.10 65.46584
890.20 67.86434
890.30 69.86252
890.40 71.19823
890.50 71.71377
890.60 71.49302
890.70 70.82343
890.80 70.13102
890.90 69.84489
891.00 70.20833
891.10 71.31311
891.20 73.00765
891.30 75.04043
891.40 77.22081
891.50 79.34789
891.60 81.24147
891.70 82.72286
891.80 83.69677
891.90 84.18053
892.00 84.28815
892.10 84.18628
892.20 83.98222
892.30 83.69684
892.40 83.23834
892.50 82.39381
892.60 81.0326
892.70 79.14142
892.80 76.97484
892.90 75.11574
893.00 74.15995
893.10 74.52902
893.20 76.29291
893.30 79.16108
893.40 82.62557
893.50 85.99811
893.60 88.47387
893.70 89.22527
893.80 87.69966
893.90 83.96899
894.00 78.63833
894.10 72.48745
894.20 66.24542
894.30 60.65071
894.40 56.43194
894.50 53.95574
894.60 53.19905
894.70 54.0313
894.80 56.21338
894.90 59.32991
895.00 62.99942
895.10 67.08685
895.20 71.57427
895.30 76.3314
895.40 81.11204
895.50 85.72175
895.60 89.94952
895.70 93.39482
895.80 95.64433
895.90 96.58832
896.00 96.47961
896.10 95.50617
896.20 93.64542
896.30 91.05881
896.40 88.1832
896.50 85.45982
896.60 83.06803
896.70 81.0165
896.80 79.45242
896.90 78.59628
897.00 78.52328
897.10 79.13843
897.20 80.2545
897.30 81.66269
897.40 83.02519
897.50 84.01594
897.60 84.54129
897.70 84.61317
897.80 84.19647
897.90 83.35069
898.00 82.42133
898.10 81.83862
898.20 81.79628
898.30 82.30199
898.40 83.4944
898.50 85.46965
898.60 87.83414
898.70 89.95241
898.80 91.27968
898.90 91.61062
899.00 91.19842
899.10 90.48916
899.20 89.87486
899.30 89.51763
899.40 89.36037
899.50 89.2737
899.60 89.04043
899.70 88.47151
899.80 87.40593
899.90 85.72671
900.00 85.88145
900.10 86.03619
900.20 86.19093
900.30 86.34568
900.40 86.50042
900.50 86.65516
900.60 86.80991
900.70 86.96465
900.80 87.11939
900.90 87.27414
901.00 87.42888
901.10 87.58362
901.20 87.73836
901.30 87.89311
901.40 88.04785
901.50 88.20259
901.60 88.35734
901.70 88.51208
901.80 88.66682
901.90 88.82157
902.00 88.97631
902.10 89.13105
902.20 89.28579
902.30 89.44054
902.40 89.59528
902.50 89.75002
902.60 89.90477
902.70 90.05951
902.80 90.21425
902.90 90.36899
903.00 90.52374
903.10 90.67848
903.20 90.70944
903.30 90.73915
903.40 90.76887
903.50 90.79858
903.60 90.82829
903.70 90.858
903.80 90.88771
903.90 90.91742
904.00 90.94713
904.10 90.97684
904.20 91.00656
904.30 91.03627
904.40 91.06598
904.50 91.09569
904.60 91.1254
904.70 91.15511
904.80 91.18482
904.90 91.21453
905.00 91.24425
905.10 91.27396
905.20 91.30367
905.30 91.33338
905.40 91.36309
905.50 91.3928
905.60 91.42251
905.70 91.45222
905.80 91.48194
905.90 91.51165
906.00 91.54136
906.10 91.57107
906.20 91.60078
906.30 91.63049
906.40 91.6602
906.50 91.68992
906.60 91.73171
906.70 91.77869
906.80 91.82567
906.90 91.87264
907.00 91.91962
907.10 91.9666
907.20 92.01357
907.30 92.06055
907.40 92.10753
907.50 92.1545
907.60 92.20148
907.70 92.24846
907.80 92.29543
907.90 92.34241
908.00 92.38939
908.10 92.43637
908.20 92.48334
908.30 92.53032
908.40 92.5773
908.50 92.62427
908.60 92.67125
908.70 92.71823
908.80 92.7652
908.90 92.81218
909.00 92.85916
909.10 92.90613
909.20 92.95311
909.30 93.00009
909.40 93.04706
909.50 93.09404
909.60 93.14102
909.70 93.188
909.80 93.23497
909.90 93.28195
910.00 93.32473
910.10 93.35345
910.20 93.38218
910.30 93.4109
910.40 93.43963
910.50 93.46836
910.60 93.49708
910.70 93.52581
910.80 93.55453
910.90 93.58326
911.00 93.61198
911.10 93.64071
911.20 93.66943
911.30 93.69816
911.40 93.72688
911.50 93.75561
911.60 93.78434
911.70 93.81306
911.80 93.84179
911.90 93.87051
912.00 93.89924
912.10 93.92796
912.20 93.95669
912.30 93.98541
912.40 94.01414
912.50 94.04286
912.60 94.07159
912.70 94.10032
912.80 94.12904
912.90 94.15777
913.00 94.18649
913.10 94.21522
913.20 94.24394
913.30 94.27267
913.40 94.30139
913.50 94.35015
913.60 94.41402
913.70 94.47789
913.80 94.54176
913.90 94.60563
914.00 94.6695
914.10 94.73337
914.20 94.79724
914.30 94.86111
914.40 94.92498
914.50 94.98885
914.60 95.05271
914.70 95.11658
914.80 95.18045
914.90 95.24432
915.00 95.30819
915.10 95.37206
915.20 95.43593
915.30 95.4998
915.40 95.56367
915.50 95.62754
915.60 95.69141
915.70 95.75528
915.80 95.81915
915.90 95.88302
916.00 95.94688
916.10 96.01075
916.20 96.07462
916.30 96.13849
916.40 96.20236
916.50 96.26623
916.60 96.3301
916.70 96.39397
916.80 96.45784
916.90 96.52171
917.00 96.5632
917.10 96.59684
917.20 96.63048
917.30 96.66411
917.40 96.69775
917.50 96.73138
917.60 96.76502
917.70 96.79865
917.80 96.83229
917.90 96.86592
918.00 96.89956
918.10 96.93319
918.20 96.96683
918.30 97.00046
918.40 97.0341
918.50 97.06773
918.60 97.10137
918.70 97.135
918.80 97.16864
918.90 97.20227
919.00 97.23591
919.10 97.26954
919.20 97.30318
919.30 97.33681
919.40 97.37045
919.50 97.40409
919.60 97.43772
919.70 97.47136
919.80 97.50499
919.90 97.53863
920.00 97.57226
920.10 97.6059
920.20 97.63953
920.30 97.67317
920.40 97.7068
920.50 97.74893
920.60 97.79404
920.70 97.83915
920.80 97.88426
920.90 97.92937
921.00 97.97448
921.10 98.01959
921.20 98.0647
921.30 98.10981
921.40 98.15492
921.50 98.20003
921.60 98.24514
921.70 98.29025
921.80 98.33536
921.90 98.38047
922.00 98.42558
922.10 98.47069
922.20 98.5158
922.30 98.56091
922.40 98.60602
922.50 98.65112
922.60 98.69623
922.70 98.74134
922.80 98.78645
922.90 98.83156
923.00 98.87667
923.10 98.92178
923.20 98.96689
923.30 99.012
923.40 99.05711
923.50 99.10222
923.60 99.14733
923.70 99.19244
923.80 99.23755
923.90 99.28266
924.00 99.27855
924.10 99.23575
924.20 99.19296
924.30 99.15017
924.40 99.10738
924.50 99.06458
924.60 99.02179
924.70 98.979
924.80 98.93621
924.90 98.89341
925.00 98.85062
925.10 98.80783
925.20 98.76503
925.30 98.72224
925.40 98.67945
925.50 98.63666
925.60 98.59386
925.70 98.55107
925.80 98.50828
925.90 98.46549
926.00 98.42269
926.10 98.3799
926.20 98.33711
926.30 98.29432
926.40 98.25152
926.50 98.20873
926.60 98.16594
926.70 98.12314
926.80 98.08035
926.90 98.03756
927.00 97.99477
927.10 97.95197
927.20 97.90918
927.30 97.86639
927.40 97.8236
927.50 97.78025
927.60 97.73472
927.70 97.68919
927.80 97.64365
927.90 97.59812
928.00 97.55259
928.10 97.50705
928.20 97.46152
928.30 97.41599
928.40 97.37045
928.50 97.32492
928.60 97.27939
928.70 97.23385
928.80 97.18832
928.90 97.14278
929.00 97.09725
929.10 97.05172
929.20 97.00618
929.30 96.96065
929.40 96.91512
929.50 96.86958
929.60 96.82405
929.70 96.77852
929.80 96.73298
929.90 96.68745
930.00 96.64192
930.10 96.59638
930.20 96.55085
930.30 96.50531
930.40 96.45978
930.50 96.41425
930.60 96.36871
930.70 96.32318
930.80 96.27765
930.90 96.23211
931.00 96.18658
931.10 96.23008
931.20 96.31743
931.30 96.40477
931.40 96.49212
931.50 96.57947
931.60 96.66682
931.70 96.75417
931.80 96.84152
931.90 96.92886
932.00 97.01621
932.10 97.10356
932.20 97.19091
932.30 97.27826
932.40 97.36561
932.50 97.45295
932.60 97.5403
932.70 97.62765
932.80 97.715
932.90 97.80235
933.00 97.8897
933.10 97.97705
933.20 98.06439
933.30 98.15174
933.40 98.23909
933.50 98.32644
933.60 98.41379
933.70 98.50114
933.80 98.58848
933.90 98.67583
934.00 98.76318
934.10 98.85053
934.20 98.93788
934.30 99.02523
934.40 99.11257
934.50 99.19992
934.60 99.28727
934.70 99.35158
934.80 99.41517
934.90 99.47876
935.00 99.54235
935.10 99.60595
935.20 99.66954
935.30 99.73313
935.40 99.79672
935.50 99.86032
935.60 99.92391
935.70 99.9875
935.80 100.0511
935.90 100.1147
936.00 100.1783
936.10 100.2419
936.20 100.3055
936.30 100.3691
936.40 100.4326
936.50 100.4962
936.60 100.5598
936.70 100.6234
936.80 100.687
936.90 100.7506
937.00 100.8142
937.10 100.8778
937.20 100.9414
937.30 101.005
937.40 101.0686
937.50 101.1322
937.60 101.1958
937.70 101.2594
937.80 101.3229
937.90 101.3865
938.00 101.4501
938.10 101.5137
938.20 101.5706
938.30 101.5669
938.40 101.5632
938.50 101.5594
938.60 101.5557
938.70 101.552
938.80 101.5483
938.90 101.5446
939.00 101.5409
939.10 101.5372
939.20 101.5335
939.30 101.5297
939.40 101.526
939.50 101.5223
939.60 101.5186
939.70 101.5149
939.80 101.5112
939.90 101.5075
940.00 101.5038
940.10 101.5
940.20 101.4963
940.30 101.4926
940.40 101.4889
940.50 101.4852
940.60 101.4815
940.70 101.4778
940.80 101.4741
940.90 101.4703
941.00 101.4666
941.10 101.4629
941.20 101.4592
941.30 101.4555
941.40 101.4518
941.50 101.4481
941.60 101.4443
941.70 101.4406
941.80 101.4392
941.90 101.4675
942.00 101.4958
942.10 101.5242
942.20 101.5525
942.30 101.5809
942.40 101.6092
942.50 101.6375
942.60 101.6659
942.70 101.6942
942.80 101.7226
942.90 101.7509
943.00 101.7792
943.10 101.8076
943.20 101.8359
943.30 101.8643
943.40 101.8926
943.50 101.9209
943.60 101.9493
943.70 101.9776
943.80 102.006
943.90 102.0343
944.00 102.0626
944.10 102.091
944.20 102.1193
944.30 102.1477
944.40 102.176
944.50 102.2043
944.60 102.2327
944.70 102.261
944.80 102.2894
944.90 102.3177
945.00 102.346
945.10 102.3744
945.20 102.4027
945.30 102.4311
945.40 102.4594
945.50 102.5092
945.60 102.5623
945.70 102.6154
945.80 102.6684
945.90 102.7215
946.00 102.7745
946.10 102.8276
946.20 102.8806
946.30 102.9337
946.40 102.9868
946.50 103.0398
946.60 103.0929
946.70 103.1459
946.80 103.199
946.90 103.252
947.00 103.3051
947.10 103.3582
947.20 103.4112
947.30 103.4643
947.40 103.5173
947.50 103.5704
947.60 103.6235
947.70 103.6765
947.80 103.7296
947.90 103.7826
948.00 103.8357
948.10 103.8887
948.20 103.9418
948.30 103.9949
948.40 104.0479
948.50 104.101
948.60 104.154
948.70 104.2071
948.80 104.2602
948.90 104.3132
949.00 104.3663
949.10 104.4251
949.20 104.4898
949.30 104.5545
949.40 104.6191
949.50 104.6838
949.60 104.7485
949.70 104.8131
949.80 104.8778
949.90 104.9425
950.00 105.0071
950.10 105.0718
950.20 105.1364
950.30 105.2011
950.40 105.2658
950.50 105.3304
950.60 105.3951
950.70 105.4598
950.80 105.5244
950.90 105.5891
951.00 105.6538
951.10 105.7184
951.20 105.7831
951.30 105.8478
951.40 105.9124
951.50 105.9771
951.60 106.0418
951.70 106.1064
951.80 106.1711
951.90 106.2358
952.00 106.3004
952.10 106.3651
952.20 106.4298
952.30 106.4944
952.40 106.5591
952.50 106.6237
952.60 106.6884
952.70 106.7531
952.80 106.7624
952.90 106.7701
953.00 106.7777
953.10 106.7853
953.20 106.793
953.30 106.8006
953.40 106.8082
953.50 106.8159
953.60 106.8235
953.70 106.8311
953.80 106.8388
953.90 106.8464
954.00 106.854
954.10 106.8617
954.20 106.8693
954.30 106.8769
954.40 106.8846
954.50 106.8922
954.60 106.8998
954.70 106.9075
954.80 106.9151
954.90 106.9227
955.00 106.9304
955.10 106.938
955.20 106.9456
955.30 106.9533
955.40 106.9609
955.50 106.9685
955.60 106.9762
955.70 106.9838
955.80 106.9914
955.90 106.9991
956.00 107.0067
956.10 107.0143
956.20 107.022
956.30 107.0296
956.40 107.0379
956.50 107.0479
956.60 107.0579
956.70 107.0679
956.80 107.0779
956.90 107.0879
957.00 107.0979
957.10 107.1079
957.20 107.1179
957.30 107.1279
957.40 107.1379
957.50 107.1479
957.60 107.1579
957.70 107.1679
957.80 107.1779
957.90 107.1879
958.00 107.1979
958.10 107.2079
958.20 107.2179
958.30 107.2279
958.40 107.2379
958.50 107.2479
958.60 107.2579
958.70 107.2679
958.80 107.2779
958.90 107.288
959.00 107.298
959.10 107.308
959.20 107.318
959.30 107.328
959.40 107.338
959.50 107.348
959.60 107.358
959.70 107.368
959.80 107.378
959.90 107.388
960.00 107.398
960.10 107.392
960.20 107.3648
960.30 107.3376
960.40 107.3103
960.50 107.2831
960.60 107.2559
960.70 107.2287
960.80 107.2015
960.90 107.1743
961.00 107.1471
961.10 107.1199
961.20 107.0927
961.30 107.0655
961.40 107.0383
961.50 107.011
961.60 106.9838
961.70 106.9566
961.80 106.9294
961.90 106.9022
962.00 106.875
962.10 106.8478
962.20 106.8206
962.30 106.7934
962.40 106.7662
962.50 106.739
962.60 106.7117
962.70 106.6845
962.80 106.6573
962.90 106.6301
963.00 106.6029
963.10 106.5757
963.20 106.5485
963.30 106.5213
963.40 106.4941
963.50 106.4669
963.60 106.4397
963.70 106.4124
963.80 106.4209
963.90 106.4785
964.00 106.5362
964.10 106.5938
964.20 106.6515
964.30 106.7091
964.40 106.7668
964.50 106.8244
964.60 106.882
964.70 106.9397
964.80 106.9973
964.90 107.055
965.00 107.1126
965.10 107.1703
965.20 107.2279
965.30 107.2856
965.40 107.3432
965.50 107.4008
965.60 107.4585
965.70 107.5161
965.80 107.5738
965.90 107.6314
966.00 107.6891
966.10 107.7467
966.20 107.8044
966.30 107.862
966.40 107.9197
966.50 107.9773
966.60 108.0349
966.70 108.0926
966.80 108.1502
966.90 108.2079
967.00 108.2655
967.10 108.3232
967.20 108.3808
967.30 108.4385
967.40 108.4961
967.50 108.5427
967.60 108.5577
967.70 108.5727
967.80 108.5878
967.90 108.6028
968.00 108.6178
968.10 108.6328
968.20 108.6479
968.30 108.6629
968.40 108.6779
968.50 108.6929
968.60 108.708
968.70 108.723
968.80 108.738
968.90 108.7531
969.00 108.7681
969.10 108.7831
969.20 108.7981
969.30 108.8132
969.40 108.8282
969.50 108.8432
969.60 108.8582
969.70 108.8733
969.80 108.8883
969.90 108.9033
970.00 108.9184
970.10 108.9334
970.20 108.9484
970.30 108.9634
970.40 108.9785
970.50 108.9935
970.60 109.0085
970.70 109.0235
970.80 109.0386
970.90 109.0536
971.00 109.0686
971.10 109.0837
971.20 109.0987
971.30 109.147
971.40 109.1973
971.50 109.2477
971.60 109.2981
971.70 109.3485
971.80 109.3989
971.90 109.4493
972.00 109.4997
972.10 109.5501
972.20 109.6005
972.30 109.6509
972.40 109.7013
972.50 109.7516
972.60 109.802
972.70 109.8524
972.80 109.9028
972.90 109.9532
973.00 110.0036
973.10 110.054
973.20 110.1044
973.30 110.1548
973.40 110.2052
973.50 110.2556
973.60 110.306
973.70 110.3563
973.80 110.4067
973.90 110.4571
974.00 110.5075
974.10 110.5579
974.20 110.6083
974.30 110.6587
974.40 110.7091
974.50 110.7595
974.60 110.8099
974.70 110.8603
974.80 110.9106
974.90 110.961
975.00 111.0291
975.10 111.1171
975.20 111.2051
975.30 111.2931
975.40 111.3811
975.50 111.4691
975.60 111.5572
975.70 111.6452
975.80 111.7332
975.90 111.8212
976.00 111.9092
976.10 111.9972
976.20 112.0852
976.30 112.1732
976.40 112.2612
976.50 112.3492
976.60 112.4372
976.70 112.5252
976.80 112.6132
976.90 112.7012
977.00 112.7893
977.10 112.8773
977.20 112.9653
977.30 113.0533
977.40 113.1413
977.50 113.2293
977.60 113.3173
977.70 113.4053
977.80 113.4933
977.90 113.5813
978.00 113.6693
978.10 113.7573
978.20 113.8453
978.30 113.9333
978.40 114.0214
978.50 114.1094
978.60 114.1974
978.70 114.2854
978.80 114.2841
978.90 114.2671
979.00 114.2501
979.10 114.2331
979.20 114.2161
979.30 114.1991
979.40 114.1821
979.50 114.1651
979.60 114.1481
979.70 114.1311
979.80 114.1141
979.90 114.0971
980.00 114.0801
980.10 114.0631
980.20 114.0461
980.30 114.0291
980.40 114.0121
980.50 113.9951
980.60 113.9781
980.70 113.9611
980.80 113.9441
980.90 113.9271
981.00 113.9101
981.10 113.8931
981.20 113.8761
981.30 113.8591
981.40 113.8421
981.50 113.8251
981.60 113.8081
981.70 113.7911
981.80 113.7741
981.90 113.7571
982.00 113.7401
982.10 113.7231
982.20 113.7061
982.30 113.6891
982.40 113.6721
982.50 113.6477
982.60 113.5381
982.70 113.4285
982.80 113.3189
982.90 113.2093
983.00 113.0998
983.10 112.9902
983.20 112.8806
983.30 112.771
983.40 112.6614
983.50 112.5518
983.60 112.4423
983.70 112.3327
983.80 112.2231
983.90 112.1135
984.00 112.0039
984.10 111.8943
984.20 111.7848
984.30 111.6752
984.40 111.5656
984.50 111.456
984.60 111.3464
984.70 111.2369
984.80 111.1273
984.90 111.0177
985.00 110.9081
985.10 110.7985
985.20 110.6889
985.30 110.5794
985.40 110.4698
985.50 110.3602
985.60 110.2506
985.70 110.141
985.80 110.0314
985.90 109.9219
986.00 109.8123
986.10 109.7027
986.20 109.5931
986.30 109.4795
986.40 109.3449
986.50 109.2103
986.60 109.0757
986.70 108.9411
986.80 108.8065
986.90 108.6719
987.00 108.5373
987.10 108.4026
987.20 108.268
987.30 108.1334
987.40 107.9988
987.50 107.8642
987.60 107.7296
987.70 107.595
987.80 107.4604
987.90 107.3258
988.00 107.1912
988.10 107.0565
988.20 106.9219
988.30 106.7873
988.40 106.6527
988.50 106.5181
988.60 106.3835
988.70 106.2489
988.80 106.1143
988.90 105.9797
989.00 105.845
989.10 105.7104
989.20 105.5758
989.30 105.4412
989.40 105.3066
989.50 105.172
989.60 105.0374
989.70 104.9028
989.80 104.7682
989.90 104.6335
990.00 104.4989
990.10 104.3663
990.20 104.2513
990.30 104.1364
990.40 104.0214
990.50 103.9065
990.60 103.7915
990.70 103.6766
990.80 103.5616
990.90 103.4467
991.00 103.3317
991.10 103.2168
991.20 103.1018
991.30 102.9869
991.40 102.8719
991.50 102.757
991.60 102.642
991.70 102.5271
991.80 102.4121
991.90 102.2972
992.00 102.1822
992.10 102.0673
992.20 101.9523
992.30 101.8374
992.40 101.7224
992.50 101.6075
992.60 101.4925
992.70 101.3775
992.80 101.2626
992.90 101.1476
993.00 101.0327
993.10 100.9177
993.20 100.8028
993.30 100.6878
993.40 100.5729
993.50 100.4579
993.60 100.343
993.70 100.228
993.80 100.1131
993.90 99.99813
994.00 99.91733
994.10 99.84033
994.20 99.76333
994.30 99.68633
994.40 99.60933
994.50 99.53233
994.60 99.45533
994.70 99.37833
994.80 99.30132
994.90 99.22432
995.00 99.14732
995.10 99.07032
995.20 98.99332
995.30 98.91632
995.40 98.83932
995.50 98.76232
995.60 98.68532
995.70 98.60832
995.80 98.53132
995.90 98.45432
996.00 98.37732
996.10 98.30032
996.20 98.22331
996.30 98.14631
996.40 98.06931
996.50 97.99231
996.60 97.91531
996.70 97.83831
996.80 97.76131
996.90 97.68431
997.00 97.60731
997.10 97.53031
997.20 97.45331
997.30 97.37631
997.40 97.29931
997.50 97.22231
997.60 97.1453
997.70 97.0683
997.80 97.06209
997.90 97.11379
998.00 97.16549
998.10 97.21719
998.20 97.26889
998.30 97.32059
998.40 97.37229
998.50 97.42399
998.60 97.47569
998.70 97.52739
998.80 97.57909
998.90 97.63079
999.00 97.68249
999.10 97.73419
999.20 97.78589
999.30 97.83759
999.40 97.88929
999.50 97.94099
999.60 97.99269
999.70 98.04439
999.80 98.09609
999.90 98.14779
1000.00 98.19949
1000.10 98.25119
1000.20 98.30289
1000.30 98.35459
1000.40 98.40629
1000.50 98.45799
1000.60 98.50969
1000.70 98.56139
1000.80 98.61309
1000.90 98.66479
1001.00 98.71649
1001.10 98.76819
1001.20 98.81989
1001.30 98.87159
1001.40 98.92329
1001.50 98.97499
1001.60 99.02675
1001.70 99.079
1001.80 99.13124
1001.90 99.18349
1002.00 99.23574
1002.10 99.28799
1002.20 99.34024
1002.30 99.39249
1002.40 99.44473
1002.50 99.49698
1002.60 99.54923
1002.70 99.60148
1002.80 99.65373
1002.90 99.70598
1003.00 99.75822
1003.10 99.81047
1003.20 99.86272
1003.30 99.91497
1003.40 99.96722
1003.50 100.0195
1003.60 100.0717
1003.70 100.124
1003.80 100.1762
1003.90 100.2285
1004.00 100.2807
1004.10 100.333
1004.20 100.3852
1004.30 100.4375
1004.40 100.4897
1004.50 100.542
1004.60 100.5942
1004.70 100.6464
1004.80 100.6987
1004.90 100.7509
1005.00 100.8032
1005.10 100.8554
1005.20 100.9077
1005.30 100.9599
1005.40 101.0122
1005.50 101.0827
1005.60 101.1808
1005.70 101.2788
1005.80 101.3768
1005.90 101.4748
1006.00 101.5728
1006.10 101.6708
1006.20 101.7688
1006.30 101.8668
1006.40 101.9648
1006.50 102.0629
1006.60 102.1609
1006.70 102.2589
1006.80 102.3569
1006.90 102.4549
1007.00 102.5529
1007.10 102.6509
1007.20 102.7489
1007.30 102.847
1007.40 102.945
1007.50 103.043
1007.60 103.141
1007.70 103.239
1007.80 103.337
1007.90 103.435
1008.00 103.533
1008.10 103.631
1008.20 103.7291
1008.30 103.8271
1008.40 103.9251
1008.50 104.0231
1008.60 104.1211
1008.70 104.2191
1008.80 104.3171
1008.90 104.4151
1009.00 104.5132
1009.10 104.6112
1009.20 104.7092
1009.30 104.8072
1009.40 104.8659
1009.50 104.9077
1009.60 104.9495
1009.70 104.9913
1009.80 105.0331
1009.90 105.075
1010.00 105.1168
1010.10 105.1586
1010.20 105.2004
1010.30 105.2422
1010.40 105.284
1010.50 105.3259
1010.60 105.3677
1010.70 105.4095
1010.80 105.4513
1010.90 105.4931
1011.00 105.535
1011.10 105.5768
1011.20 105.6186
1011.30 105.6604
1011.40 105.7022
1011.50 105.744
1011.60 105.7859
1011.70 105.8277
1011.80 105.8695
1011.90 105.9113
1012.00 105.9531
1012.10 105.9949
1012.20 106.0368
1012.30 106.0786
1012.40 106.1204
1012.50 106.1622
1012.60 106.204
1012.70 106.2459
1012.80 106.2877
1012.90 106.3295
1013.00 106.3713
1013.10 106.4131
1013.20 106.4549
1013.30 106.4614
1013.40 106.4591
1013.50 106.4567
1013.60 106.4543
1013.70 106.452
1013.80 106.4496
1013.90 106.4472
1014.00 106.4449
1014.10 106.4425
1014.20 106.4401
1014.30 106.4378
1014.40 106.4354
1014.50 106.433
1014.60 106.4307
1014.70 106.4283
1014.80 106.426
1014.90 106.4236
1015.00 106.4212
1015.10 106.4189
1015.20 106.4165
1015.30 106.4141
1015.40 106.4118
1015.50 106.4094
1015.60 106.407
1015.70 106.4047
1015.80 106.4023
1015.90 106.3999
1016.00 106.3976
1016.10 106.3952
1016.20 106.3929
1016.30 106.3905
1016.40 106.3881
1016.50 106.3858
1016.60 106.3834
1016.70 106.381
1016.80 106.3787
1016.90 106.3763
1017.00 106.3739
1017.10 106.3716
1017.20 106.404
1017.30 106.4451
1017.40 106.4862
1017.50 106.5273
1017.60 106.5684
1017.70 106.6094
1017.80 106.6505
1017.90 106.6916
1018.00 106.7327
1018.10 106.7738
1018.20 106.8149
1018.30 106.856
1018.40 106.8971
1018.50 106.9382
1018.60 106.9793
1018.70 107.0204
1018.80 107.0615
1018.90 107.1026
1019.00 107.1437
1019.10 107.1848
1019.20 107.2259
1019.30 107.2669
1019.40 107.308
1019.50 107.3491
1019.60 107.3902
1019.70 107.4313
1019.80 107.4724
1019.90 107.5135
1020.00 107.5546
1020.10 107.5957
1020.20 107.6368
1020.30 107.6779
1020.40 107.719
1020.50 107.7601
1020.60 107.8012
1020.70 107.8423
1020.80 107.8834
1020.90 107.9245
1021.00 107.9655
1021.10 107.983
1021.20 107.9847
1021.30 107.9864
1021.40 107.988
1021.50 107.9897
1021.60 107.9914
1021.70 107.9931
1021.80 107.9948
1021.90 107.9964
1022.00 107.9981
1022.10 107.9998
1022.20 108.0015
1022.30 108.0032
1022.40 108.0048
1022.50 108.0065
1022.60 108.0082
1022.70 108.0099
1022.80 108.0116
1022.90 108.0132
1023.00 108.0149
1023.10 108.0166
1023.20 108.0183
1023.30 108.02
1023.40 108.0217
1023.50 108.0233
1023.60 108.025
1023.70 108.0267
1023.80 108.0284
1023.90 108.0301
1024.00 108.0317
1024.10 108.0334
1024.20 108.0351
1024.30 108.0368
1024.40 108.0385
1024.50 108.0401
1024.60 108.0418
1024.70 108.0435
1024.80 108.0452
1024.90 108.0469
1025.00 108.0485
1025.10 108.05
1025.20 108.0515
1025.30 108.053
1025.40 108.0545
1025.50 108.056
1025.60 108.0575
1025.70 108.059
1025.80 108.0606
1025.90 108.0621
1026.00 108.0636
1026.10 108.0651
1026.20 108.0666
1026.30 108.0681
1026.40 108.0696
1026.50 108.0711
1026.60 108.0726
1026.70 108.0741
1026.80 108.0756
1026.90 108.0772
1027.00 108.0787
1027.10 108.0802
1027.20 108.0817
1027.30 108.0832
1027.40 108.0847
1027.50 108.0862
1027.60 108.0877
1027.70 108.0892
1027.80 108.0907
1027.90 108.0922
1028.00 108.0938
1028.10 108.0953
1028.20 108.0968
1028.30 108.0983
1028.40 108.0998
1028.50 108.1013
1028.60 108.1028
1028.70 108.1043
1028.80 108.1058
1028.90 108.1073
1029.00 108.195
1029.10 108.2826
1029.20 108.3702
1029.30 108.4579
1029.40 108.5455
1029.50 108.6331
1029.60 108.7208
1029.70 108.8084
1029.80 108.896
1029.90 108.9837
1030.00 109.0713
1030.10 109.1589
1030.20 109.2466
1030.30 109.3342
1030.40 109.4218
1030.50 109.5095
1030.60 109.5971
1030.70 109.6847
1030.80 109.7724
1030.90 109.86
1031.00 109.9476
1031.10 110.0353
1031.20 110.1229
1031.30 110.2105
1031.40 110.2982
1031.50 110.3858
1031.60 110.4734
1031.70 110.5611
1031.80 110.6487
1031.90 110.7363
1032.00 110.824
1032.10 110.9116
1032.20 110.9992
1032.30 111.0869
1032.40 111.1745
1032.50 111.2621
1032.60 111.3498
1032.70 111.4374
1032.80 111.525
1032.90 111.595
1033.00 111.6386
1033.10 111.6822
1033.20 111.7257
1033.30 111.7693
1033.40 111.8129
1033.50 111.8564
1033.60 111.9
1033.70 111.9436
1033.80 111.9872
1033.90 112.0307
1034.00 112.0743
1034.10 112.1179
1034.20 112.1614
1034.30 112.205
1034.40 112.2486
1034.50 112.2921
1034.60 112.3357
1034.70 112.3793
1034.80 112.4228
1034.90 112.4664
1035.00 112.51
1035.10 112.5536
1035.20 112.5971
1035.30 112.6407
1035.40 112.6843
1035.50 112.7278
1035.60 112.7714
1035.70 112.815
1035.80 112.8585
1035.90 112.9021
1036.00 112.9457
1036.10 112.9893
1036.20 113.0328
1036.30 113.0764
1036.40 113.12
1036.50 113.1635
1036.60 113.2071
1036.70 113.2507
1036.80 113.2942
1036.90 113.324
1037.00 113.3502
1037.10 113.3765
1037.20 113.4027
1037.30 113.429
1037.40 113.4552
1037.50 113.4815
1037.60 113.5077
1037.70 113.534
1037.80 113.5602
1037.90 113.5865
1038.00 113.6127
1038.10 113.639
1038.20 113.6652
1038.30 113.6915
1038.40 113.7177
1038.50 113.744
1038.60 113.7703
1038.70 113.7965
1038.80 113.8228
1038.90 113.849
1039.00 113.8753
1039.10 113.9015
1039.20 113.9278
1039.30 113.954
1039.40 113.9803
1039.50 114.0065
1039.60 114.0328
1039.70 114.059
1039.80 114.0853
1039.90 114.1115
1040.00 114.1378
1040.10 114.164
1040.20 114.1903
1040.30 114.2165
1040.40 114.2428
1040.50 114.2691
1040.60 114.2953
1040.70 114.3216
1040.80 114.3478
1040.90 114.3691
1041.00 114.3904
1041.10 114.4118
1041.20 114.4331
1041.30 114.4544
1041.40 114.4757
1041.50 114.497
1041.60 114.5183
1041.70 114.5396
1041.80 114.561
1041.90 114.5823
1042.00 114.6036
1042.10 114.6249
1042.20 114.6462
1042.30 114.6675
1042.40 114.6889
1042.50 114.7102
1042.60 114.7315
1042.70 114.7528
1042.80 114.7741
1042.90 114.7954
1043.00 114.8167
1043.10 114.8381
1043.20 114.8594
1043.30 114.8807
1043.40 114.902
1043.50 114.9233
1043.60 114.9446
1043.70 114.9659
1043.80 114.9873
1043.90 115.0086
1044.00 115.0299
1044.10 115.0512
1044.20 115.0725
1044.30 115.0938
1044.40 115.1152
1044.50 115.1365
1044.60 115.1578
1044.70 115.1791
1044.80 115.2017
1044.90 115.236
1045.00 115.2702
1045.10 115.3045
1045.20 115.3388
1045.30 115.373
1045.40 115.4073
1045.50 115.4415
1045.60 115.4758
1045.70 115.5101
1045.80 115.5443
1045.90 115.5786
1046.00 115.6129
1046.10 115.6471
1046.20 115.6814
1046.30 115.7156
1046.40 115.7499
1046.50 115.7842
1046.60 115.8184
1046.70 115.8527
1046.80 115.8869
1046.90 115.9212
1047.00 115.9555
1047.10 115.9897
1047.20 116.024
1047.30 116.0583
1047.40 116.0925
1047.50 116.1268
1047.60 116.161
1047.70 116.1953
1047.80 116.2296
1047.90 116.2638
1048.00 116.2981
1048.10 116.3323
1048.20 116.3666
1048.30 116.4009
1048.40 116.4351
1048.50 116.4694
1048.60 116.5037
1048.70 116.5379
1048.80 116.5678
1048.90 116.5583
1049.00 116.5487
1049.10 116.5392
1049.20 116.5296
1049.30 116.5201
1049.40 116.5105
1049.50 116.501
1049.60 116.4915
1049.70 116.4819
1049.80 116.4724
1049.90 116.4628
1050.00 116.4533
1050.10 116.4437
1050.20 116.4342
1050.30 116.4247
1050.40 116.4151
1050.50 116.4056
1050.60 116.396
1050.70 116.3865
1050.80 116.3769
1050.90 116.3674
1051.00 116.3578
1051.10 116.3483
1051.20 116.3388
1051.30 116.3292
1051.40 116.3197
1051.50 116.3101
1051.60 116.3006
1051.70 116.291
1051.80 116.2815
1051.90 116.272
1052.00 116.2624
1052.10 116.2529
1052.20 116.2433
1052.30 116.2338
1052.40 116.2242
1052.50 116.2147
1052.60 116.2052
1052.70 116.1956
1052.80 116.1861
1052.90 116.1538
1053.00 116.1214
1053.10 116.0891
1053.20 116.0568
1053.30 116.0245
1053.40 115.9921
1053.50 115.9598
1053.60 115.9275
1053.70 115.8952
1053.80 115.8628
1053.90 115.8305
1054.00 115.7982
1054.10 115.7659
1054.20 115.7336
1054.30 115.7012
1054.40 115.6689
1054.50 115.6366
1054.60 115.6043
1054.70 115.5719
1054.80 115.5396
1054.90 115.5073
1055.00 115.475
1055.10 115.4426
1055.20 115.4103
1055.30 115.378
1055.40 115.3457
1055.50 115.3134
1055.60 115.281
1055.70 115.2487
1055.80 115.2164
1055.90 115.1841
1056.00 115.1517
1056.10 115.1194
1056.20 115.0871
1056.30 115.0548
1056.40 115.0225
1056.50 114.9901
1056.60 114.9578
1056.70 114.9255
1056.80 114.8932
1056.90 114.8934
1057.00 114.9017
1057.10 114.91
1057.20 114.9183
1057.30 114.9267
1057.40 114.935
1057.50 114.9433
1057.60 114.9516
1057.70 114.96
1057.80 114.9683
1057.90 114.9766
1058.00 114.9849
1058.10 114.9933
1058.20 115.0016
1058.30 115.0099
1058.40 115.0182
1058.50 115.0266
1058.60 115.0349
1058.70 115.0432
1058.80 115.0515
1058.90 115.0599
1059.00 115.0682
1059.10 115.0765
1059.20 115.0848
1059.30 115.0932
1059.40 115.1015
1059.50 115.1098
1059.60 115.1181
1059.70 115.1265
1059.80 115.1348
1059.90 115.1431
1060.00 115.1514
1060.10 115.1598
1060.20 115.1681
1060.30 115.1764
1060.40 115.1847
1060.50 115.1931
1060.60 115.2014
1060.70 115.2097
1060.80 115.218
1060.90 115.2507
1061.00 115.3078
1061.10 115.3649
1061.20 115.422
1061.30 115.4791
1061.40 115.5362
1061.50 115.5933
1061.60 115.6503
1061.70 115.7074
1061.80 115.7645
1061.90 115.8216
1062.00 115.8787
1062.10 115.9358
1062.20 115.9929
1062.30 116.05
1062.40 116.107
1062.50 116.1641
1062.60 116.2212
1062.70 116.2783
1062.80 116.3354
1062.90 116.3925
1063.00 116.4496
1063.10 116.5066
1063.20 116.5637
1063.30 116.6208
1063.40 116.6779
1063.50 116.735
1063.60 116.7921
1063.70 116.8492
1063.80 116.9062
1063.90 116.9633
1064.00 117.0204
1064.10 117.0775
1064.20 117.1346
1064.30 117.1917
1064.40 117.2488
1064.50 117.3058
1064.60 117.3629
1064.70 117.42
1064.80 117.4771
1064.90 117.5342
1065.00 117.5896
1065.10 117.645
1065.20 117.7004
1065.30 117.7558
1065.40 117.8112
1065.50 117.8666
1065.60 117.922
1065.70 117.9775
1065.80 118.0329
1065.90 118.0883
1066.00 118.1437
1066.10 118.1991
1066.20 118.2545
1066.30 118.3099
1066.40 118.3653
1066.50 118.4207
1066.60 118.4761
1066.70 118.5315
1066.80 118.5869
1066.90 118.6424
1067.00 118.6978
1067.10 118.7532
1067.20 118.8086
1067.30 118.864
1067.40 118.9194
1067.50 118.9748
1067.60 119.0302
1067.70 119.0856
1067.80 119.141
1067.90 119.1964
1068.00 119.2518
1068.10 119.3073
1068.20 119.3627
1068.30 119.4181
1068.40 119.4735
1068.50 119.5289
1068.60 119.5843
1068.70 119.6397
1068.80 119.6951
1068.90 119.7505
1069.00 119.8087
1069.10 119.8698
1069.20 119.9308
1069.30 119.9919
1069.40 120.0529
1069.50 120.1139
1069.60 120.175
1069.70 120.236
1069.80 120.2971
1069.90 120.3581
1070.00 120.4192
1070.10 120.4802
1070.20 120.5412
1070.30 120.6023
1070.40 120.6633
1070.50 120.7244
1070.60 120.7854
1070.70 120.8464
1070.80 120.9075
1070.90 120.9685
1071.00 121.0296
1071.10 121.0906
1071.20 121.1516
1071.30 121.2127
1071.40 121.2737
1071.50 121.3348
1071.60 121.3958
1071.70 121.4568
1071.80 121.5179
1071.90 121.5789
1072.00 121.64
1072.10 121.701
1072.20 121.7621
1072.30 121.8231
1072.40 121.8841
1072.50 121.9452
1072.60 122.0062
1072.70 122.0673
1072.80 122.1283
1072.90 122.1893
1073.00 122.2504
1073.10 122.3039
1073.20 122.3565
1073.30 122.4092
1073.40 122.4618
1073.50 122.5145
1073.60 122.5671
1073.70 122.6198
1073.80 122.6724
1073.90 122.725
1074.00 122.7777
1074.10 122.8303
1074.20 122.883
1074.30 122.9356
1074.40 122.9883
1074.50 123.0409
1074.60 123.0936
1074.70 123.1462
1074.80 123.1989
1074.90 123.2515
1075.00 123.3042
1075.10 123.3568
1075.20 123.4095
1075.30 123.4621
1075.40 123.5148
1075.50 123.5674
1075.60 123.6201
1075.70 123.6727
1075.80 123.7254
1075.90 123.778
1076.00 123.8307
1076.10 123.8833
1076.20 123.936
1076.30 123.9886
1076.40 124.0412
1076.50 124.0939
1076.60 124.1465
1076.70 124.1992
1076.80 124.2518
1076.90 124.3045
1077.00 124.3571
1077.10 124.4076
1077.20 124.4382
1077.30 124.4688
1077.40 124.4994
1077.50 124.53
1077.60 124.5605
1077.70 124.5911
1077.80 124.6217
1077.90 124.6523
1078.00 124.6829
1078.10 124.7135
1078.20 124.7441
1078.30 124.7747
1078.40 124.8053
1078.50 124.8359
1078.60 124.8665
1078.70 124.8971
1078.80 124.9277
1078.90 124.9583
1079.00 124.9889
1079.10 125.0195
1079.20 125.0501
1079.30 125.0806
1079.40 125.1112
1079.50 125.1418
1079.60 125.1724
1079.70 125.203
1079.80 125.2336
1079.90 125.2642
1080.00 125.2948
1080.10 125.3254
1080.20 125.356
1080.30 125.3866
1080.40 125.4172
1080.50 125.4478
1080.60 125.4784
1080.70 125.509
1080.80 125.5396
1080.90 125.5702
1081.00 125.6007
1081.10 125.6313
1081.20 125.693
1081.30 125.8273
1081.40 125.9615
1081.50 126.0958
1081.60 126.23
1081.70 126.3643
1081.80 126.4985
1081.90 126.6328
1082.00 126.767
1082.10 126.9013
1082.20 127.0355
1082.30 127.1698
1082.40 127.3041
1082.50 127.4383
1082.60 127.5726
1082.70 127.7068
1082.80 127.8411
1082.90 127.9753
1083.00 128.1096
1083.10 128.2438
1083.20 128.3781
1083.30 128.5123
1083.40 128.6466
1083.50 128.7808
1083.60 128.9151
1083.70 129.0493
1083.80 129.1836
1083.90 129.3178
1084.00 129.4521
1084.10 129.5863
1084.20 129.7206
1084.30 129.8548
1084.40 129.9891
1084.50 130.1233
1084.60 130.2576
1084.70 130.3918
1084.80 130.5261
1084.90 130.6603
1085.00 130.7946
1085.10 130.9288
1085.20 131.0631
1085.30 131.162
1085.40 131.1783
1085.50 131.1947
1085.60 131.2111
1085.70 131.2274
1085.80 131.2438
1085.90 131.2602
1086.00 131.2765
1086.10 131.2929
1086.20 131.3093
1086.30 131.3256
1086.40 131.342
1086.50 131.3584
1086.60 131.3747
1086.70 131.3911
1086.80 131.4075
1086.90 131.4238
1087.00 131.4402
1087.10 131.4566
1087.20 131.4729
1087.30 131.4893
1087.40 131.5057
1087.50 131.522
1087.60 131.5384
1087.70 131.5548
1087.80 131.5711
1087.90 131.5875
1088.00 131.6039
1088.10 131.6202
1088.20 131.6366
1088.30 131.653
1088.40 131.6693
1088.50 131.6857
1088.60 131.7021
1088.70 131.7184
1088.80 131.7348
1088.90 131.7512
1089.00 131.7675
1089.10 131.7839
1089.20 131.8003
1089.30 131.8166
1089.40 131.8374
1089.50 131.8686
1089.60 131.8999
1089.70 131.9311
1089.80 131.9623
1089.90 131.9935
1090.00 132.0247
1090.10 132.0559
1090.20 132.0871
1090.30 132.1183
1090.40 132.1495
1090.50 132.1807
1090.60 132.2119
1090.70 132.2431
1090.80 132.2743
1090.90 132.3056
1091.00 132.3368
1091.10 132.368
1091.20 132.3992
1091.30 132.4304
1091.40 132.4616
1091.50 132.4928
1091.60 132.524
1091.70 132.5552
1091.80 132.5864
1091.90 132.6176
1092.00 132.6488
1092.10 132.68
1092.20 132.7113
1092.30 132.7425
1092.40 132.7737
1092.50 132.8049
1092.60 132.8361
1092.70 132.8673
1092.80 132.8985
1092.90 132.9297
1093.00 132.9609
1093.10 132.9921
1093.20 133.0233
1093.30 133.0545
1093.40 133.0857
1093.50 133.1145
1093.60 133.1336
1093.70 133.1527
1093.80 133.1717
1093.90 133.1908
1094.00 133.2099
1094.10 133.2289
1094.20 133.248
1094.30 133.2671
1094.40 133.2861
1094.50 133.3052
1094.60 133.3243
1094.70 133.3434
1094.80 133.3624
1094.90 133.3815
1095.00 133.4006
1095.10 133.4196
1095.20 133.4387
1095.30 133.4578
1095.40 133.4768
1095.50 133.4959
1095.60 133.515
1095.70 133.534
1095.80 133.5531
1095.90 133.5722
1096.00 133.5913
1096.10 133.6103
1096.20 133.6294
1096.30 133.6485
1096.40 133.6675
1096.50 133.6866
1096.60 133.7057
1096.70 133.7247
1096.80 133.7438
1096.90 133.7629
1097.00 133.7819
1097.10 133.801
1097.20 133.8201
1097.30 133.8391
1097.40 133.8582
1097.50 133.8773
1097.60 133.8964
1097.70 133.9246
1097.80 133.9528
1097.90 133.981
1098.00 134.0092
1098.10 134.0374
1098.20 134.0656
1098.30 134.0938
1098.40 134.122
1098.50 134.1503
1098.60 134.1785
1098.70 134.2067
1098.80 134.2349
1098.90 134.2631
1099.00 134.2913
1099.10 134.3195
1099.20 134.3477
1099.30 134.3759
1099.40 134.4042
1099.50 134.4324
1099.60 134.4606
1099.70 134.4888
1099.80 134.517
1099.90 134.5452
1100.00 134.5734
1100.10 134.6016
1100.20 134.6298
1100.30 134.658
1100.40 134.6863
1100.50 134.7145
1100.60 134.7427
1100.70 134.7709
1100.80 134.7991
1100.90 134.8273
1101.00 134.8555
1101.10 134.8837
1101.20 134.9119
1101.30 134.9402
1101.40 134.9684
1101.50 134.9966
1101.60 135.0248
1101.70 135.053
1101.80 135.0235
1101.90 134.9693
1102.00 134.915
1102.10 134.8608
1102.20 134.8065
1102.30 134.7523
1102.40 134.698
1102.50 134.6438
1102.60 134.5896
1102.70 134.5353
1102.80 134.4811
1102.90 134.4268
1103.00 134.3726
1103.10 134.3184
1103.20 134.2641
1103.30 134.2099
1103.40 134.1556
1103.50 134.1014
1103.60 134.0471
1103.70 133.9929
1103.80 133.9387
1103.90 133.8844
1104.00 133.8302
1104.10 133.7759
1104.20 133.7217
1104.30 133.6675
1104.40 133.6132
1104.50 133.559
1104.60 133.5047
1104.70 133.4505
1104.80 133.3962
1104.90 133.342
1105.00 133.2878
1105.10 133.2335
1105.20 133.1793
1105.30 133.125
1105.40 133.0708
1105.50 133.0166
1105.60 132.9623
1105.70 132.9081
1105.80 132.8538
1105.90 132.8177
1106.00 132.8239
1106.10 132.83
1106.20 132.8361
1106.30 132.8423
1106.40 132.8484
1106.50 132.8546
1106.60 132.8607
1106.70 132.8669
1106.80 132.873
1106.90 132.8792
1107.00 132.8853
1107.10 132.8914
1107.20 132.8976
1107.30 132.9037
1107.40 132.9099
1107.50 132.916
1107.60 132.9222
1107.70 132.9283
1107.80 132.9345
1107.90 132.9406
1108.00 132.9467
1108.10 132.9529
1108.20 132.959
1108.30 132.9652
1108.40 132.9713
1108.50 132.9775
1108.60 132.9836
1108.70 132.9898
1108.80 132.9959
1108.90 133.0021
1109.00 133.0082
1109.10 133.0143
1109.20 133.0205
1109.30 133.0266
1109.40 133.0328
1109.50 133.0389
1109.60 133.0451
1109.70 133.0512
1109.80 133.0574
1109.90 133.0635
1110.00 133.0696
1110.10 133.057
1110.20 133.0396
1110.30 133.0222
1110.40 133.0048
1110.50 132.9874
1110.60 132.97
1110.70 132.9526
1110.80 132.9352
1110.90 132.9178
1111.00 132.9004
1111.10 132.8831
1111.20 132.8657
1111.30 132.8483
1111.40 132.8309
1111.50 132.8135
1111.60 132.7961
1111.70 132.7787
1111.80 132.7613
1111.90 132.7439
1112.00 132.7265
1112.10 132.7091
1112.20 132.6917
1112.30 132.6744
1112.40 132.657
1112.50 132.6396
1112.60 132.6222
1112.70 132.6048
1112.80 132.5874
1112.90 132.57
1113.00 132.5526
1113.10 132.5352
1113.20 132.5178
1113.30 132.5004
1113.40 132.4831
1113.50 132.4657
1113.60 132.4483
1113.70 132.4309
1113.80 132.4135
1113.90 132.3961
1114.00 132.3787
1114.10 132.3613
1114.20 132.3573
1114.30 132.3847
1114.40 132.412
1114.50 132.4394
1114.60 132.4667
1114.70 132.4941
1114.80 132.5214
1114.90 132.5487
1115.00 132.5761
1115.10 132.6034
1115.20 132.6308
1115.30 132.6581
1115.40 132.6855
1115.50 132.7128
1115.60 132.7401
1115.70 132.7675
1115.80 132.7948
1115.90 132.8222
1116.00 132.8495
1116.10 132.8769
1116.20 132.9042
1116.30 132.9316
1116.40 132.9589
1116.50 132.9862
1116.60 133.0136
1116.70 133.0409
1116.80 133.0683
1116.90 133.0956
1117.00 133.123
1117.10 133.1503
1117.20 133.1776
1117.30 133.205
1117.40 133.2323
1117.50 133.2597
1117.60 133.287
1117.70 133.3144
1117.80 133.3417
1117.90 133.369
1118.00 133.3964
1118.10 133.4237
1118.20 133.4511
1118.30 133.4784
1118.40 133.5053
1118.50 133.5319
1118.60 133.5584
1118.70 133.585
1118.80 133.6116
1118.90 133.6381
1119.00 133.6647
1119.10 133.6913
1119.20 133.7178
1119.30 133.7444
1119.40 133.771
1119.50 133.7975
1119.60 133.8241
1119.70 133.8507
1119.80 133.8772
1119.90 133.9038
1120.00 133.9304
1120.10 133.9569
1120.20 133.9835
1120.30 134.0101
1120.40 134.0366
1120.50 134.0632
1120.60 134.0898
1120.70 134.1163
1120.80 134.1429
1120.90 134.1695
1121.00 134.196
1121.10 134.2226
1121.20 134.2492
1121.30 134.2758
1121.40 134.3023
1121.50 134.3289
1121.60 134.3555
1121.70 134.382
1121.80 134.4086
1121.90 134.4352
1122.00 134.4617
1122.10 134.4883
1122.20 134.5149
1122.30 134.5414
1122.40 134.568
1122.50 134.5946
1122.60 134.5965
1122.70 134.5958
1122.80 134.595
1122.90 134.5943
1123.00 134.5935
1123.10 134.5928
1123.20 134.592
1123.30 134.5913
1123.40 134.5905
1123.50 134.5898
1123.60 134.589
1123.70 134.5883
1123.80 134.5875
1123.90 134.5868
1124.00 134.5861
1124.10 134.5853
1124.20 134.5846
1124.30 134.5838
1124.40 134.5831
1124.50 134.5823
1124.60 134.5816
1124.70 134.5808
1124.80 134.5801
1124.90 134.5793
1125.00 134.5786
1125.10 134.5778
1125.20 134.5771
1125.30 134.5763
1125.40 134.5756
1125.50 134.5748
1125.60 134.5741
1125.70 134.5733
1125.80 134.5726
1125.90 134.5718
1126.00 134.5711
1126.10 134.5703
1126.20 134.5696
1126.30 134.5688
1126.40 134.5681
1126.50 134.5673
1126.60 134.5666
1126.70 134.5606
1126.80 134.5337
1126.90 134.5068
1127.00 134.4799
1127.10 134.453
1127.20 134.4261
1127.30 134.3992
1127.40 134.3723
1127.50 134.3454
1127.60 134.3185
1127.70 134.2916
1127.80 134.2647
1127.90 134.2378
1128.00 134.2109
1128.10 134.184
1128.20 134.1571
1128.30 134.1302
1128.40 134.1033
1128.50 134.0764
1128.60 134.0495
1128.70 134.0226
1128.80 133.9957
1128.90 133.9687
1129.00 133.9418
1129.10 133.9149
1129.20 133.888
1129.30 133.8611
1129.40 133.8342
1129.50 133.8073
1129.60 133.7804
1129.70 133.7535
1129.80 133.7266
1129.90 133.6997
1130.00 133.6728
1130.10 133.6459
1130.20 133.619
1130.30 133.5921
1130.40 133.5652
1130.50 133.5383
1130.60 133.5114
1130.70 133.4845
1130.80 133.4576
1130.90 133.4179
1131.00 133.3481
1131.10 133.2784
1131.20 133.2087
1131.30 133.1389
1131.40 133.0692
1131.50 132.9995
1131.60 132.9298
1131.70 132.86
1131.80 132.7903
1131.90 132.7206
1132.00 132.6508
1132.10 132.5811
1132.20 132.5114
1132.30 132.4416
1132.40 132.3719
1132.50 132.3022
1132.60 132.2324
1132.70 132.1627
1132.80 132.093
1132.90 132.0233
1133.00 131.9535
1133.10 131.8838
1133.20 131.8141
1133.30 131.7443
1133.40 131.6746
1133.50 131.6049
1133.60 131.5351
1133.70 131.4654
1133.80 131.3957
1133.90 131.3259
1134.00 131.2562
1134.10 131.1865
1134.20 131.1168
1134.30 131.047
1134.40 130.9773
1134.50 130.9076
1134.60 130.8378
1134.70 130.7681
1134.80 130.6984
1134.90 130.6286
1135.00 130.5589
1135.10 130.5124
1135.20 130.5008
1135.30 130.4891
1135.40 130.4775
1135.50 130.4658
1135.60 130.4542
1135.70 130.4425
1135.80 130.4309
1135.90 130.4193
1136.00 130.4076
1136.10 130.396
1136.20 130.3843
1136.30 130.3727
1136.40 130.361
1136.50 130.3494
1136.60 130.3377
1136.70 130.3261
1136.80 130.3145
1136.90 130.3028
1137.00 130.2912
1137.10 130.2795
1137.20 130.2679
1137.30 130.2562
1137.40 130.2446
1137.50 130.2329
1137.60 130.2213
1137.70 130.2097
1137.80 130.198
1137.90 130.1864
1138.00 130.1747
1138.10 130.1631
1138.20 130.1514
1138.30 130.1398
1138.40 130.1281
1138.50 130.1165
1138.60 130.1049
1138.70 130.0932
1138.80 130.0816
1138.90 130.0699
1139.00 130.0583
1139.10 130.0466
1139.20 130.035
1139.30 130.0432
1139.40 130.0813
1139.50 130.1194
1139.60 130.1575
1139.70 130.1957
1139.80 130.2338
1139.90 130.2719
1140.00 130.31
1140.10 130.3481
1140.20 130.3862
1140.30 130.4243
1140.40 130.4624
1140.50 130.5005
1140.60 130.5386
1140.70 130.5767
1140.80 130.6148
1140.90 130.6529
1141.00 130.691
1141.10 130.7291
1141.20 130.7672
1141.30 130.8053
1141.40 130.8434
1141.50 130.8815
1141.60 130.9196
1141.70 130.9577
1141.80 130.9958
1141.90 131.0339
1142.00 131.072
1142.10 131.1101
1142.20 131.1482
1142.30 131.1863
1142.40 131.2244
1142.50 131.2625
1142.60 131.3006
1142.70 131.3387
1142.80 131.3768
1142.90 131.4149
1143.00 131.453
1143.10 131.4911
1143.20 131.5292
1143.30 131.5673
1143.40 131.6054
1143.50 131.6663
1143.60 131.7801
1143.70 131.8939
1143.80 132.0077
1143.90 132.1215
1144.00 132.2353
1144.10 132.3491
1144.20 132.4629
1144.30 132.5767
1144.40 132.6905
1144.50 132.8043
1144.60 132.9181
1144.70 133.0319
1144.80 133.1457
1144.90 133.2595
1145.00 133.3733
1145.10 133.4871
1145.20 133.6009
1145.30 133.7147
1145.40 133.8285
1145.50 133.9423
1145.60 134.0561
1145.70 134.17
1145.80 134.2838
1145.90 134.3976
1146.00 134.5114
1146.10 134.6252
1146.20 134.739
1146.30 134.8528
1146.40 134.9666
1146.50 135.0804
1146.60 135.1942
1146.70 135.308
1146.80 135.4218
1146.90 135.5356
1147.00 135.6494
1147.10 135.7632
1147.20 135.877
1147.30 135.9908
1147.40 136.1046
1147.50 136.2184
1147.60 136.3322
1147.70 136.439
1147.80 136.5174
1147.90 136.5959
1148.00 136.6744
1148.10 136.7529
1148.20 136.8314
1148.30 136.9098
1148.40 136.9883
1148.50 137.0668
1148.60 137.1453
1148.70 137.2238
1148.80 137.3022
1148.90 137.3807
1149.00 137.4592
1149.10 137.5377
1149.20 137.6162
1149.30 137.6946
1149.40 137.7731
1149.50 137.8516
1149.60 137.9301
1149.70 138.0086
1149.80 138.087
1149.90 138.1655
1150.00 138.244
1150.10 138.3225
1150.20 138.4009
1150.30 138.4794
1150.40 138.5579
1150.50 138.6364
1150.60 138.7149
1150.70 138.7933
1150.80 138.8718
1150.90 138.9503
1151.00 139.0288
1151.10 139.1073
1151.20 139.1857
1151.30 139.2642
1151.40 139.3427
1151.50 139.4212
1151.60 139.4997
1151.70 139.5781
1151.80 139.6566
1151.90 139.7351
1152.00 139.7275
1152.10 139.7198
1152.20 139.7122
1152.30 139.7045
1152.40 139.6969
1152.50 139.6892
1152.60 139.6816
1152.70 139.6739
1152.80 139.6663
1152.90 139.6587
1153.00 139.651
1153.10 139.6434
1153.20 139.6357
1153.30 139.6281
1153.40 139.6204
1153.50 139.6128
1153.60 139.6052
1153.70 139.5975
1153.80 139.5899
1153.90 139.5822
1154.00 139.5746
1154.10 139.5669
1154.20 139.5593
1154.30 139.5517
1154.40 139.544
1154.50 139.5364
1154.60 139.5287
1154.70 139.5211
1154.80 139.5134
1154.90 139.5058
1155.00 139.4981
1155.10 139.4905
1155.20 139.4829
1155.30 139.4752
1155.40 139.4676
1155.50 139.4599
1155.60 139.4523
1155.70 139.4446
1155.80 139.437
1155.90 139.4294
1156.00 139.4217
1156.10 139.4141
1156.20 139.3775
1156.30 139.3337
1156.40 139.2899
1156.50 139.2461
1156.60 139.2023
1156.70 139.1585
1156.80 139.1147
1156.90 139.0709
1157.00 139.0271
1157.10 138.9833
1157.20 138.9395
1157.30 138.8957
1157.40 138.8519
1157.50 138.8081
1157.60 138.7643
1157.70 138.7205
1157.80 138.6767
1157.90 138.6329
1158.00 138.5891
1158.10 138.5453
1158.20 138.5015
1158.30 138.4577
1158.40 138.4139
1158.50 138.3701
1158.60 138.3263
1158.70 138.2825
1158.80 138.2387
1158.90 138.1949
1159.00 138.1511
1159.10 138.1073
1159.20 138.0635
1159.30 138.0197
1159.40 137.9759
1159.50 137.9321
1159.60 137.8883
1159.70 137.8445
1159.80 137.8007
1159.90 137.7569
1160.00 137.7131
1160.10 137.6693
1160.20 137.6255
1160.30 137.5817
1160.40 137.536
1160.50 137.4882
1160.60 137.4405
1160.70 137.3928
1160.80 137.345
1160.90 137.2973
1161.00 137.2496
1161.10 137.2018
1161.20 137.1541
1161.30 137.1064
1161.40 137.0586
1161.50 137.0109
1161.60 136.9632
1161.70 136.9154
1161.80 136.8677
1161.90 136.82
1162.00 136.7722
1162.10 136.7245
1162.20 136.6768
1162.30 136.629
1162.40 136.5813
1162.50 136.5336
1162.60 136.4858
1162.70 136.4381
1162.80 136.3904
1162.90 136.3426
1163.00 136.2949
1163.10 136.2472
1163.20 136.1994
1163.30 136.1517
1163.40 136.104
1163.50 136.0562
1163.60 136.0085
1163.70 135.9608
1163.80 135.913
1163.90 135.8653
1164.00 135.8176
1164.10 135.7698
1164.20 135.7221
1164.30 135.6744
1164.40 135.6266
1164.50 135.5789
1164.60 135.5321
1164.70 135.4937
1164.80 135.4552
1164.90 135.4168
1165.00 135.3784
1165.10 135.3399
1165.20 135.3015
1165.30 135.2631
1165.40 135.2246
1165.50 135.1862
1165.60 135.1478
1165.70 135.1093
1165.80 135.0709
1165.90 135.0325
1166.00 134.994
1166.10 134.9556
1166.20 134.9172
1166.30 134.8787
1166.40 134.8403
1166.50 134.8019
1166.60 134.7635
1166.70 134.725
1166.80 134.6866
1166.90 134.6482
1167.00 134.6097
1167.10 134.5713
1167.20 134.5329
1167.30 134.4944
1167.40 134.456
1167.50 134.4176
1167.60 134.3791
1167.70 134.3407
1167.80 134.3023
1167.90 134.2638
1168.00 134.2254
1168.10 134.187
1168.20 134.1485
1168.30 134.1101
1168.40 134.0717
1168.50 134.0332
1168.60 133.9948
1168.70 133.9564
1168.80 133.9179
1168.90 133.8384
1169.00 133.7412
1169.10 133.644
1169.20 133.5468
1169.30 133.4496
1169.40 133.3524
1169.50 133.2552
1169.60 133.158
1169.70 133.0608
1169.80 132.9636
1169.90 132.8664
1170.00 132.7692
1170.10 132.672
1170.20 132.5748
1170.30 132.4776
1170.40 132.3804
1170.50 132.2832
1170.60 132.186
1170.70 132.0888
1170.80 131.9916
1170.90 131.8944
1171.00 131.7972
1171.10 131.7
1171.20 131.6028
1171.30 131.5057
1171.40 131.4085
1171.50 131.3113
1171.60 131.2141
1171.70 131.1169
1171.80 131.0197
1171.90 130.9225
1172.00 130.8253
1172.10 130.7281
1172.20 130.6309
1172.30 130.5337
1172.40 130.4365
1172.50 130.3393
1172.60 130.2421
1172.70 130.1449
1172.80 130.0477
1172.90 129.9505
1173.00 129.8533
1173.10 129.7801
1173.20 129.8026
1173.30 129.8251
1173.40 129.8476
1173.50 129.8701
1173.60 129.8927
1173.70 129.9152
1173.80 129.9377
1173.90 129.9602
1174.00 129.9827
1174.10 130.0053
1174.20 130.0278
1174.30 130.0503
1174.40 130.0728
1174.50 130.0953
1174.60 130.1179
1174.70 130.1404
1174.80 130.1629
1174.90 130.1854
1175.00 130.2079
1175.10 130.2305
1175.20 130.253
1175.30 130.2755
1175.40 130.298
1175.50 130.3205
1175.60 130.3431
1175.70 130.3656
1175.80 130.3881
1175.90 130.4106
1176.00 130.4331
1176.10 130.4557
1176.20 130.4782
1176.30 130.5007
1176.40 130.5232
1176.50 130.5457
1176.60 130.5683
1176.70 130.5908
1176.80 130.6133
1176.90 130.6358
1177.00 130.6583
1177.10 130.6809
1177.20 130.7034
1177.30 130.7259
1177.40 130.7575
1177.50 130.793
1177.60 130.8285
1177.70 130.864
1177.80 130.8995
1177.90 130.935
1178.00 130.9705
1178.10 131.006
1178.20 131.0415
1178.30 131.077
1178.40 131.1125
1178.50 131.148
1178.60 131.1835
1178.70 131.219
1178.80 131.2545
1178.90 131.29
1179.00 131.3255
1179.10 131.361
1179.20 131.3965
1179.30 131.432
1179.40 131.4675
1179.50 131.503
1179.60 131.5385
1179.70 131.574
1179.80 131.6095
1179.90 131.645
1180.00 131.6805
1180.10 131.716
1180.20 131.7515
1180.30 131.787
1180.40 131.8225
1180.50 131.858
1180.60 131.8935
1180.70 131.929
1180.80 131.9645
1180.90 132
1181.00 132.0355
1181.10 132.071
1181.20 132.1065
1181.30 132.142
1181.40 132.1775
1181.50 132.213
1181.60 132.2503
1181.70 132.303
1181.80 132.3557
1181.90 132.4084
1182.00 132.4612
1182.10 132.5139
1182.20 132.5666
1182.30 132.6194
1182.40 132.6721
1182.50 132.7248
1182.60 132.7775
1182.70 132.8303
1182.80 132.883
1182.90 132.9357
1183.00 132.9885
1183.10 133.0412
1183.20 133.0939
1183.30 133.1466
1183.40 133.1994
1183.50 133.2521
1183.60 133.3048
1183.70 133.3576
1183.80 133.4103
1183.90 133.463
1184.00 133.5158
1184.10 133.5685
1184.20 133.6212
1184.30 133.6739
1184.40 133.7267
1184.50 133.7794
1184.60 133.8321
1184.70 133.8849
1184.80 133.9376
1184.90 133.9903
1185.00 134.043
1185.10 134.0958
1185.20 134.1485
1185.30 134.2012
1185.40 134.254
1185.50 134.3067
1185.60 134.3594
1185.70 134.4121
1185.80 134.4649
1185.90 134.4797
1186.00 134.4565
1186.10 134.4333
1186.20 134.4102
1186.30 134.387
1186.40 134.3638
1186.50 134.3407
1186.60 134.3175
1186.70 134.2944
1186.80 134.2712
1186.90 134.248
1187.00 134.2249
1187.10 134.2017
1187.20 134.1785
1187.30 134.1554
1187.40 134.1322
1187.50 134.1091
1187.60 134.0859
1187.70 134.0627
1187.80 134.0396
1187.90 134.0164
1188.00 133.9933
1188.10 133.9701
1188.20 133.9469
1188.30 133.9238
1188.40 133.9006
1188.50 133.8774
1188.60 133.8543
1188.70 133.8311
1188.80 133.808
1188.90 133.7848
1189.00 133.7616
1189.10 133.7385
1189.20 133.7153
1189.30 133.6921
1189.40 133.669
1189.50 133.6458
1189.60 133.6227
1189.70 133.5995
1189.80 133.5763
1189.90 133.5532
1190.00 133.53
1190.10 133.5068
1190.20 133.4445
1190.30 133.3724
1190.40 133.3003
1190.50 133.2282
1190.60 133.1561
1190.70 133.084
1190.80 133.0119
1190.90 132.9398
1191.00 132.8677
1191.10 132.7956
1191.20 132.7235
1191.30 132.6514
1191.40 132.5793
1191.50 132.5072
1191.60 132.4351
1191.70 132.363
1191.80 132.2909
1191.90 132.2188
1192.00 132.1467
1192.10 132.0746
1192.20 132.0025
1192.30 131.9304
1192.40 131.8583
1192.50 131.7862
1192.60 131.7141
1192.70 131.642
1192.80 131.5699
1192.90 131.4978
1193.00 131.4257
1193.10 131.3536
1193.20 131.2815
1193.30 131.2094
1193.40 131.1373
1193.50 131.0652
1193.60 130.9931
1193.70 130.921
1193.80 130.8489
1193.90 130.7768
1194.00 130.7047
1194.10 130.6326
1194.20 130.5605
1194.30 130.4884
1194.40 130.4185
1194.50 130.3689
1194.60 130.3193
1194.70 130.2697
1194.80 130.2201
1194.90 130.1705
1195.00 130.1209
1195.10 130.0713
1195.20 130.0217
1195.30 129.9721
1195.40 129.9225
1195.50 129.8729
1195.60 129.8233
1195.70 129.7736
1195.80 129.724
1195.90 129.6744
1196.00 129.6248
1196.10 129.5752
1196.20 129.5256
1196.30 129.476
1196.40 129.4264
1196.50 129.3768
1196.60 129.3272
1196.70 129.2776
1196.80 129.228
1196.90 129.1784
1197.00 129.1288
1197.10 129.0792
1197.20 129.0296
1197.30 128.98
1197.40 128.9304
1197.50 128.8808
1197.60 128.8312
1197.70 128.7816
1197.80 128.732
1197.90 128.6824
1198.00 128.6328
1198.10 128.5831
1198.20 128.5335
1198.30 128.4839
1198.40 128.4343
1198.50 128.3847
1198.60 128.3351
1198.70 128.3035
1198.80 128.299
1198.90 128.2944
1199.00 128.2898
1199.10 128.2852
1199.20 128.2807
1199.30 128.2761
1199.40 128.2715
1199.50 128.267
1199.60 128.2624
1199.70 128.2578
1199.80 128.2532
1199.90 128.2487
1200.00 128.2441
1200.10 128.2395
1200.20 128.2349
1200.30 128.2304
1200.40 128.2258
1200.50 128.2212
1200.60 128.2167
1200.70 128.2121
1200.80 128.2075
1200.90 128.2029
1201.00 128.1984
1201.10 128.1938
1201.20 128.1892
1201.30 128.1846
1201.40 128.1801
1201.50 128.1755
1201.60 128.1709
1201.70 128.1664
1201.80 128.1618
1201.90 128.1572
1202.00 128.1526
1202.10 128.1481
1202.20 128.1435
1202.30 128.1389
1202.40 128.1343
1202.50 128.1298
1202.60 128.1252
1202.70 128.1206
1202.80 128.1161
1202.90 128.1115
1203.00 128.1456
1203.10 128.2055
1203.20 128.2653
1203.30 128.3252
1203.40 128.3851
1203.50 128.445
1203.60 128.5048
1203.70 128.5647
1203.80 128.6246
1203.90 128.6845
1204.00 128.7443
1204.10 128.8042
1204.20 128.8641
1204.30 128.924
1204.40 128.9839
1204.50 129.0437
1204.60 129.1036
1204.70 129.1635
1204.80 129.2234
1204.90 129.2832
1205.00 129.3431
1205.10 129.403
1205.20 129.4629
1205.30 129.5227
1205.40 129.5826
1205.50 129.6425
1205.60 129.7024
1205.70 129.7622
1205.80 129.8221
1205.90 129.882
1206.00 129.9419
1206.10 130.0018
1206.20 130.0616
1206.30 130.1215
1206.40 130.1814
1206.50 130.2413
1206.60 130.3011
1206.70 130.361
1206.80 130.4209
1206.90 130.4808
1207.00 130.5406
1207.10 130.6005
1207.20 130.6604
1207.30 130.7523
1207.40 130.8522
1207.50 130.952
1207.60 131.0519
1207.70 131.1518
1207.80 131.2517
1207.90 131.3516
1208.00 131.4515
1208.10 131.5513
1208.20 131.6512
1208.30 131.7511
1208.40 131.851
1208.50 131.9509
1208.60 132.0508
1208.70 132.1506
1208.80 132.2505
1208.90 132.3504
1209.00 132.4503
1209.10 132.5502
1209.20 132.6501
1209.30 132.75
1209.40 132.8498
1209.50 132.9497
1209.60 133.0496
1209.70 133.1495
1209.80 133.2494
1209.90 133.3493
1210.00 133.4491
1210.10 133.549
1210.20 133.6489
1210.30 133.7488
1210.40 133.8487
1210.50 133.9486
1210.60 134.0484
1210.70 134.1483
1210.80 134.2482
1210.90 134.3481
1211.00 134.448
1211.10 134.5479
1211.20 134.6477
1211.30 134.7476
1211.40 134.8475
1211.50 134.9474
1211.60 134.9842
1211.70 135.014
1211.80 135.0438
1211.90 135.0736
1212.00 135.1034
1212.10 135.1332
1212.20 135.163
1212.30 135.1928
1212.40 135.2226
1212.50 135.2524
1212.60 135.2822
1212.70 135.312
1212.80 135.3418
1212.90 135.3716
1213.00 135.4013
1213.10 135.4311
1213.20 135.4609
1213.30 135.4907
1213.40 135.5205
1213.50 135.5503
1213.60 135.5801
1213.70 135.6099
1213.80 135.6397
1213.90 135.6695
1214.00 135.6993
1214.10 135.7291
1214.20 135.7589
1214.30 135.7887
1214.40 135.8185
1214.50 135.8483
1214.60 135.8781
1214.70 135.9079
1214.80 135.9377
1214.90 135.9675
1215.00 135.9973
1215.10 136.0271
1215.20 136.0569
1215.30 136.0867
1215.40 136.1165
1215.50 136.1463
1215.60 136.1761
1215.70 136.2058
1215.80 136.2356
1215.90 136.3297
1216.00 136.4237
1216.10 136.5178
1216.20 136.6118
1216.30 136.7059
1216.40 136.8
1216.50 136.894
1216.60 136.9881
1216.70 137.0821
1216.80 137.1762
1216.90 137.2702
1217.00 137.3643
1217.10 137.4583
1217.20 137.5524
1217.30 137.6464
1217.40 137.7405
1217.50 137.8345
1217.60 137.9286
1217.70 138.0226
1217.80 138.1167
1217.90 138.2107
1218.00 138.3048
1218.10 138.3988
1218.20 138.4929
1218.30 138.5869
1218.40 138.681
1218.50 138.775
1218.60 138.8691
1218.70 138.9631
1218.80 139.0572
1218.90 139.1512
1219.00 139.2453
1219.10 139.3393
1219.20 139.4334
1219.30 139.5274
1219.40 139.6215
1219.50 139.7155
1219.60 139.8096
1219.70 139.9036
1219.80 139.9977
1219.90 140.0917
1220.00 140.1858
1220.10 140.2745
1220.20 140.3153
1220.30 140.3561
1220.40 140.3968
1220.50 140.4376
1220.60 140.4784
1220.70 140.5191
1220.80 140.5599
1220.90 140.6007
1221.00 140.6414
1221.10 140.6822
1221.20 140.723
1221.30 140.7637
1221.40 140.8045
1221.50 140.8453
1221.60 140.8861
1221.70 140.9268
1221.80 140.9676
1221.90 141.0084
1222.00 141.0491
1222.10 141.0899
1222.20 141.1307
1222.30 141.1714
1222.40 141.2122
1222.50 141.253
1222.60 141.2938
1222.70 141.3345
1222.80 141.3753
1222.90 141.4161
1223.00 141.4568
1223.10 141.4976
1223.20 141.5384
1223.30 141.5791
1223.40 141.6199
1223.50 141.6607
1223.60 141.7015
1223.70 141.7422
1223.80 141.783
1223.90 141.8238
1224.00 141.8645
1224.10 141.9053
1224.20 141.9461
1224.30 141.9868
1224.40 142.0223
1224.50 142.0364
1224.60 142.0505
1224.70 142.0647
1224.80 142.0788
1224.90 142.0929
1225.00 142.1071
1225.10 142.1212
1225.20 142.1353
1225.30 142.1494
1225.40 142.1636
1225.50 142.1777
1225.60 142.1918
1225.70 142.2059
1225.80 142.2201
1225.90 142.2342
1226.00 142.2483
1226.10 142.2625
1226.20 142.2766
1226.30 142.2907
1226.40 142.3048
1226.50 142.319
1226.60 142.3331
1226.70 142.3472
1226.80 142.3614
1226.90 142.3755
1227.00 142.3896
1227.10 142.4037
1227.20 142.4179
1227.30 142.432
1227.40 142.4461
1227.50 142.4603
1227.60 142.4744
1227.70 142.4885
1227.80 142.5026
1227.90 142.5168
1228.00 142.5309
1228.10 142.545
1228.20 142.5591
1228.30 142.5733
1228.40 142.5874
1228.50 142.6015
1228.60 142.6157
1228.70 142.6173
1228.80 142.5689
1228.90 142.5205
1229.00 142.4721
1229.10 142.4237
1229.20 142.3753
1229.30 142.3269
1229.40 142.2785
1229.50 142.2301
1229.60 142.1817
1229.70 142.1333
1229.80 142.0849
1229.90 142.0365
1230.00 141.9881
1230.10 141.9398
1230.20 141.8914
1230.30 141.843
1230.40 141.7946
1230.50 141.7462
1230.60 141.6978
1230.70 141.6494
1230.80 141.601
1230.90 141.5526
1231.00 141.5042
1231.10 141.4558
1231.20 141.4074
1231.30 141.359
1231.40 141.3106
1231.50 141.2622
1231.60 141.2138
1231.70 141.1654
1231.80 141.117
1231.90 141.0686
1232.00 141.0202
1232.10 140.9719
1232.20 140.9235
1232.30 140.8751
1232.40 140.8267
1232.50 140.7783
1232.60 140.7299
1232.70 140.6815
1232.80 140.6331
1232.90 140.5847
1233.00 140.5298
1233.10 140.449
1233.20 140.3681
1233.30 140.2873
1233.40 140.2065
1233.50 140.1256
1233.60 140.0448
1233.70 139.964
1233.80 139.8831
1233.90 139.8023
1234.00 139.7215
1234.10 139.6406
1234.20 139.5598
1234.30 139.479
1234.40 139.3981
1234.50 139.3173
1234.60 139.2365
1234.70 139.1556
1234.80 139.0748
1234.90 138.994
1235.00 138.9131
1235.10 138.8323
1235.20 138.7515
1235.30 138.6706
1235.40 138.5898
1235.50 138.509
1235.60 138.4281
1235.70 138.3473
1235.80 138.2665
1235.90 138.1856
1236.00 138.1048
1236.10 138.024
1236.20 137.9431
1236.30 137.8623
1236.40 137.7815
1236.50 137.7006
1236.60 137.6198
1236.70 137.539
1236.80 137.4581
1236.90 137.3773
1237.00 137.2965
1237.10 137.2156
1237.20 137.1348
1237.30 137.0615
1237.40 137.0181
1237.50 136.9748
1237.60 136.9315
1237.70 136.8881
1237.80 136.8448
1237.90 136.8015
1238.00 136.7582
1238.10 136.7148
1238.20 136.6715
1238.30 136.6282
1238.40 136.5848
1238.50 136.5415
1238.60 136.4982
1238.70 136.4549
1238.80 136.4115
1238.90 136.3682
1239.00 136.3249
1239.10 136.2815
1239.20 136.2382
1239.30 136.1949
1239.40 136.1516
1239.50 136.1082
1239.60 136.0649
1239.70 136.0216
1239.80 135.9782
1239.90 135.9349
1240.00 135.8916
1240.10 135.8483
1240.20 135.8049
1240.30 135.7616
1240.40 135.7183
1240.50 135.6749
1240.60 135.6316
1240.70 135.5883
1240.80 135.545
1240.90 135.5016
1241.00 135.4583
1241.10 135.415
1241.20 135.3716
1241.30 135.3283
1241.40 135.285
1241.50 135.2417
1241.60 135.1991
1241.70 135.164
1241.80 135.1289
1241.90 135.0937
1242.00 135.0586
1242.10 135.0235
1242.20 134.9884
1242.30 134.9532
1242.40 134.9181
1242.50 134.883
1242.60 134.8478
1242.70 134.8127
1242.80 134.7776
1242.90 134.7424
1243.00 134.7073
1243.10 134.6722
1243.20 134.637
1243.30 134.6019
1243.40 134.5668
1243.50 134.5316
1243.60 134.4965
1243.70 134.4614
1243.80 134.4262
1243.90 134.3911
1244.00 134.356
1244.10 134.3208
1244.20 134.2857
1244.30 134.2506
1244.40 134.2154
1244.50 134.1803
1244.60 134.1452
1244.70 134.11
1244.80 134.0749
1244.90 134.0398
1245.00 134.0046
1245.10 133.9695
1245.20 133.9344
1245.30 133.8992
1245.40 133.8641
1245.50 133.829
1245.60 133.7938
1245.70 133.7587
1245.80 133.7236
1245.90 133.6884
1246.00 133.7558
1246.10 133.8232
1246.20 133.8906
1246.30 133.958
1246.40 134.0254
1246.50 134.0928
1246.60 134.1602
1246.70 134.2276
1246.80 134.295
1246.90 134.3623
1247.00 134.4297
1247.10 134.4971
1247.20 134.5645
1247.30 134.6319
1247.40 134.6993
1247.50 134.7667
1247.60 134.8341
1247.70 134.9015
1247.80 134.9689
1247.90 135.0363
1248.00 135.1036
1248.10 135.171
1248.20 135.2384
1248.30 135.3058
1248.40 135.3732
1248.50 135.4406
1248.60 135.508
1248.70 135.5754
1248.80 135.6428
1248.90 135.7102
1249.00 135.7776
1249.10 135.8449
1249.20 135.9123
1249.30 135.9797
1249.40 136.0471
1249.50 136.1145
1249.60 136.1819
1249.70 136.2493
1249.80 136.3167
1249.90 136.3841
1250.00 136.4515
1250.10 136.5189
1250.20 136.5862
1250.30 136.643
1250.40 136.6998
1250.50 136.7566
1250.60 136.8134
1250.70 136.8702
1250.80 136.927
1250.90 136.9838
1251.00 137.0406
1251.10 137.0974
1251.20 137.1541
1251.30 137.2109
1251.40 137.2677
1251.50 137.3245
1251.60 137.3813
1251.70 137.4381
1251.80 137.4949
1251.90 137.5517
1252.00 137.6085
1252.10 137.6653
1252.20 137.722
1252.30 137.7788
1252.40 137.8356
1252.50 137.8924
1252.60 137.9492
1252.70 138.006
1252.80 138.0628
1252.90 138.1196
1253.00 138.1764
1253.10 138.2332
1253.20 138.29
1253.30 138.3467
1253.40 138.4035
1253.50 138.4603
1253.60 138.5171
1253.70 138.5739
1253.80 138.6307
1253.90 138.6875
1254.00 138.7443
1254.10 138.8011
1254.20 138.8579
1254.30 138.9146
1254.40 138.9714
1254.50 139.0282
1254.60 139.1216
1254.70 139.219
1254.80 139.3163
1254.90 139.4137
1255.00 139.5111
1255.10 139.6085
1255.20 139.7059
1255.30 139.8033
1255.40 139.9007
1255.50 139.9981
1255.60 140.0955
1255.70 140.1929
1255.80 140.2903
1255.90 140.3877
1256.00 140.4851
1256.10 140.5825
1256.20 140.6799
1256.30 140.7772
1256.40 140.8746
1256.50 140.972
1256.60 141.0694
1256.70 141.1668
1256.80 141.2642
1256.90 141.3616
1257.00 141.459
1257.10 141.5564
1257.20 141.6538
1257.30 141.7512
1257.40 141.8486
1257.50 141.946
1257.60 142.0434
1257.70 142.1408
1257.80 142.2382
1257.90 142.3355
1258.00 142.4329
1258.10 142.5303
1258.20 142.6277
1258.30 142.7251
1258.40 142.8225
1258.50 142.9199
1258.60 143.0173
1258.70 143.1147
1258.80 143.2121
1258.90 143.313
1259.00 143.4155
1259.10 143.5179
1259.20 143.6204
1259.30 143.7228
1259.40 143.8252
1259.50 143.9277
1259.60 144.0301
1259.70 144.1326
1259.80 144.235
1259.90 144.3375
1260.00 144.4399
1260.10 144.5423
1260.20 144.6448
1260.30 144.7472
1260.40 144.8497
1260.50 144.9521
1260.60 145.0546
1260.70 145.157
1260.80 145.2594
1260.90 145.3619
1261.00 145.4643
1261.10 145.5668
1261.20 145.6692
1261.30 145.7717
1261.40 145.8741
1261.50 145.9766
1261.60 146.079
1261.70 146.1814
1261.80 146.2839
1261.90 146.3863
1262.00 146.4888
1262.10 146.5912
1262.20 146.6937
1262.30 146.7961
1262.40 146.8985
1262.50 147.001
1262.60 147.1034
1262.70 147.2059
1262.80 147.3083
1262.90 147.4108
1263.00 147.5132
1263.10 147.6157
1263.20 147.6929
1263.30 147.7534
1263.40 147.8139
1263.50 147.8744
1263.60 147.9349
1263.70 147.9954
1263.80 148.0558
1263.90 148.1163
1264.00 148.1768
1264.10 148.2373
1264.20 148.2978
1264.30 148.3583
1264.40 148.4188
1264.50 148.4793
1264.60 148.5397
1264.70 148.6002
1264.80 148.6607
1264.90 148.7212
1265.00 148.7817
1265.10 148.8422
1265.20 148.9027
1265.30 148.9632
1265.40 149.0236
1265.50 149.0841
1265.60 149.1446
1265.70 149.2051
1265.80 149.2656
1265.90 149.3261
1266.00 149.3866
1266.10 149.4471
1266.20 149.5075
1266.30 149.568
1266.40 149.6285
1266.50 149.689
1266.60 149.7495
1266.70 149.81
1266.80 149.8705
1266.90 149.931
1267.00 149.9914
1267.10 150.0519
1267.20 150.1124
1267.30 150.1729
1267.40 150.2334
1267.50 150.2905
1267.60 150.3441
1267.70 150.3978
1267.80 150.4515
1267.90 150.5051
1268.00 150.5588
1268.10 150.6124
1268.20 150.6661
1268.30 150.7198
1268.40 150.7734
1268.50 150.8271
1268.60 150.8808
1268.70 150.9344
1268.80 150.9881
1268.90 151.0418
1269.00 151.0954
1269.10 151.1491
1269.20 151.2027
1269.30 151.2564
1269.40 151.3101
1269.50 151.3637
1269.60 151.4174
1269.70 151.4711
1269.80 151.5247
1269.90 151.5784
1270.00 151.632
1270.10 151.6857
1270.20 151.7394
1270.30 151.793
1270.40 151.8467
1270.50 151.9004
1270.60 151.954
1270.70 152.0077
1270.80 152.0614
1270.90 152.115
1271.00 152.1687
1271.10 152.2223
1271.20 152.276
1271.30 152.3297
1271.40 152.3833
1271.50 152.437
1271.60 152.4907
1271.70 152.5443
1271.80 152.5831
1271.90 152.5871
1272.00 152.5911
1272.10 152.5951
1272.20 152.5991
1272.30 152.6031
1272.40 152.6071
1272.50 152.6112
1272.60 152.6152
1272.70 152.6192
1272.80 152.6232
1272.90 152.6272
1273.00 152.6312
1273.10 152.6352
1273.20 152.6392
1273.30 152.6432
1273.40 152.6472
1273.50 152.6512
1273.60 152.6553
1273.70 152.6593
1273.80 152.6633
1273.90 152.6673
1274.00 152.6713
1274.10 152.6753
1274.20 152.6793
1274.30 152.6833
1274.40 152.6873
1274.50 152.6913
1274.60 152.6954
1274.70 152.6994
1274.80 152.7034
1274.90 152.7074
1275.00 152.7114
1275.10 152.7154
1275.20 152.7194
1275.30 152.7234
1275.40 152.7274
1275.50 152.7314
1275.60 152.7354
1275.70 152.7395
1275.80 152.7435
1275.90 152.7475
1276.00 152.7515
1276.10 152.7527
1276.20 152.729
1276.30 152.7053
1276.40 152.6816
1276.50 152.6579
1276.60 152.6342
1276.70 152.6105
1276.80 152.5868
1276.90 152.563
1277.00 152.5393
1277.10 152.5156
1277.20 152.4919
1277.30 152.4682
1277.40 152.4445
1277.50 152.4208
1277.60 152.3971
1277.70 152.3734
1277.80 152.3497
1277.90 152.326
1278.00 152.3022
1278.10 152.2785
1278.20 152.2548
1278.30 152.2311
1278.40 152.2074
1278.50 152.1837
1278.60 152.16
1278.70 152.1363
1278.80 152.1126
1278.90 152.0889
1279.00 152.0652
1279.10 152.0415
1279.20 152.0177
1279.30 151.994
1279.40 151.9703
1279.50 151.9466
1279.60 151.9229
1279.70 151.8992
1279.80 151.8755
1279.90 151.8518
1280.00 151.8281
1280.10 151.8044
1280.20 151.7807
1280.30 151.7569
1280.40 151.7332
1280.50 151.7305
1280.60 151.7279
1280.70 151.7252
1280.80 151.7225
1280.90 151.7198
1281.00 151.7171
1281.10 151.7144
1281.20 151.7117
1281.30 151.709
1281.40 151.7063
1281.50 151.7036
1281.60 151.7009
1281.70 151.6982
1281.80 151.6955
1281.90 151.6929
1282.00 151.6902
1282.10 151.6875
1282.20 151.6848
1282.30 151.6821
1282.40 151.6794
1282.50 151.6767
1282.60 151.674
1282.70 151.6713
1282.80 151.6686
1282.90 151.6659
1283.00 151.6632
1283.10 151.6606
1283.20 151.6579
1283.30 151.6552
1283.40 151.6525
1283.50 151.6498
1283.60 151.6471
1283.70 151.6444
1283.80 151.6417
1283.90 151.639
1284.00 151.6363
1284.10 151.6336
1284.20 151.6309
1284.30 151.6283
1284.40 151.6256
1284.50 151.6229
1284.60 151.6202
1284.70 151.6175
1284.80 151.6311
1284.90 151.6487
1285.00 151.6663
1285.10 151.684
1285.20 151.7016
1285.30 151.7193
1285.40 151.7369
1285.50 151.7545
1285.60 151.7722
1285.70 151.7898
1285.80 151.8075
1285.90 151.8251
1286.00 151.8427
1286.10 151.8604
1286.20 151.878
1286.30 151.8957
1286.40 151.9133
1286.50 151.9309
1286.60 151.9486
1286.70 151.9662
1286.80 151.9839
1286.90 152.0015
1287.00 152.0191
1287.10 152.0368
1287.20 152.0544
1287.30 152.0721
1287.40 152.0897
1287.50 152.1073
1287.60 152.125
1287.70 152.1426
1287.80 152.1603
1287.90 152.1779
1288.00 152.1955
1288.10 152.2132
1288.20 152.2308
1288.30 152.2485
1288.40 152.2661
1288.50 152.2837
1288.60 152.3014
1288.70 152.319
1288.80 152.3367
1288.90 152.3543
1289.00 152.3719
1289.10 152.3557
1289.20 152.3168
1289.30 152.2779
1289.40 152.2391
1289.50 152.2002
1289.60 152.1613
1289.70 152.1224
1289.80 152.0836
1289.90 152.0447
1290.00 152.0058
1290.10 151.9669
1290.20 151.9281
1290.30 151.8892
1290.40 151.8503
1290.50 151.8115
1290.60 151.7726
1290.70 151.7337
1290.80 151.6948
1290.90 151.656
1291.00 151.6171
1291.10 151.5782
1291.20 151.5393
1291.30 151.5005
1291.40 151.4616
1291.50 151.4227
1291.60 151.3838
1291.70 151.345
1291.80 151.3061
1291.90 151.2672
1292.00 151.2284
1292.10 151.1895
1292.20 151.1506
1292.30 151.1117
1292.40 151.0729
1292.50 151.034
1292.60 150.9951
1292.70 150.9562
1292.80 150.9174
1292.90 150.8785
1293.00 150.8396
1293.10 150.8007
1293.20 150.7619
1293.30 150.723
1293.40 150.6967
1293.50 150.6892
1293.60 150.6818
1293.70 150.6743
1293.80 150.6669
1293.90 150.6594
1294.00 150.652
1294.10 150.6445
1294.20 150.637
1294.30 150.6296
1294.40 150.6221
1294.50 150.6147
1294.60 150.6072
1294.70 150.5998
1294.80 150.5923
1294.90 150.5849
1295.00 150.5774
1295.10 150.57
1295.20 150.5625
1295.30 150.555
1295.40 150.5476
1295.50 150.5401
1295.60 150.5327
1295.70 150.5252
1295.80 150.5178
1295.90 150.5103
1296.00 150.5029
1296.10 150.4954
1296.20 150.4879
1296.30 150.4805
1296.40 150.473
1296.50 150.4656
1296.60 150.4581
1296.70 150.4507
1296.80 150.4432
1296.90 150.4358
1297.00 150.4283
1297.10 150.4209
1297.20 150.4134
1297.30 150.4059
1297.40 150.3985
1297.50 150.391
1297.60 150.3836
1297.70 150.3792
1297.80 150.3871
1297.90 150.3949
1298.00 150.4028
1298.10 150.4107
1298.20 150.4185
1298.30 150.4264
1298.40 150.4343
1298.50 150.4421
1298.60 150.45
1298.70 150.4579
1298.80 150.4658
1298.90 150.4736
1299.00 150.4815
1299.10 150.4894
1299.20 150.4972
1299.30 150.5051
1299.40 150.513
1299.50 150.5209
1299.60 150.5287
1299.70 150.5366
1299.80 150.5445
1299.90 150.5523
