# Version 2.1 - nm, norm@500 to 1, cut digits
# Wavelength(nm)  Flambda(ergs/cm^s/s/nm)
300.00 1.283032e-95
300.10 1.283032e-95
300.20 1.283032e-95
300.30 1.283032e-95
300.40 1.283032e-95
300.50 1.283032e-95
300.60 1.283032e-95
300.70 1.283032e-95
300.80 1.283032e-95
300.90 1.283032e-95
301.00 1.283032e-95
301.10 1.283032e-95
301.20 1.283032e-95
301.30 1.283032e-95
301.40 1.283032e-95
301.50 1.283032e-95
301.60 1.283032e-95
301.70 1.283032e-95
301.80 1.283032e-95
301.90 1.283032e-95
302.00 1.283032e-95
302.10 1.283032e-95
302.20 1.283032e-95
302.30 1.283032e-95
302.40 1.283032e-95
302.50 1.283032e-95
302.60 1.283032e-95
302.70 1.283032e-95
302.80 1.283032e-95
302.90 1.283032e-95
303.00 1.283032e-95
303.10 1.283032e-95
303.20 1.283032e-95
303.30 1.283032e-95
303.40 1.283032e-95
303.50 1.283032e-95
303.60 1.283032e-95
303.70 1.283032e-95
303.80 1.283032e-95
303.90 1.283032e-95
304.00 1.283032e-95
304.10 1.283032e-95
304.20 1.283032e-95
304.30 1.283032e-95
304.40 1.283032e-95
304.50 1.283032e-95
304.60 1.283032e-95
304.70 1.283032e-95
304.80 1.283032e-95
304.90 1.283032e-95
305.00 1.283032e-95
305.10 1.283032e-95
305.20 1.283032e-95
305.30 1.283032e-95
305.40 1.283032e-95
305.50 1.283032e-95
305.60 1.283032e-95
305.70 1.283032e-95
305.80 1.283032e-95
305.90 1.283032e-95
306.00 1.283032e-95
306.10 1.283032e-95
306.20 1.283032e-95
306.30 1.283032e-95
306.40 1.283032e-95
306.50 1.283032e-95
306.60 1.283032e-95
306.70 1.283032e-95
306.80 1.283032e-95
306.90 1.283032e-95
307.00 1.283032e-95
307.10 1.283032e-95
307.20 1.283032e-95
307.30 1.283032e-95
307.40 1.283032e-95
307.50 1.283032e-95
307.60 1.283032e-95
307.70 1.283032e-95
307.80 1.283032e-95
307.90 1.283032e-95
308.00 1.283032e-95
308.10 1.283032e-95
308.20 1.283032e-95
308.30 1.283032e-95
308.40 1.283032e-95
308.50 1.283032e-95
308.60 1.283032e-95
308.70 1.283032e-95
308.80 1.283032e-95
308.90 1.283032e-95
309.00 1.283032e-95
309.10 1.283032e-95
309.20 1.283032e-95
309.30 1.283032e-95
309.40 1.283032e-95
309.50 1.283032e-95
309.60 1.283032e-95
309.70 1.283032e-95
309.80 1.283032e-95
309.90 1.283032e-95
310.00 1.283032e-95
310.10 1.283032e-95
310.20 1.283032e-95
310.30 1.283032e-95
310.40 1.283032e-95
310.50 1.283032e-95
310.60 1.283032e-95
310.70 1.283032e-95
310.80 1.283032e-95
310.90 1.283032e-95
311.00 1.283032e-95
311.10 1.283032e-95
311.20 1.283032e-95
311.30 1.283032e-95
311.40 1.283032e-95
311.50 1.283032e-95
311.60 1.283032e-95
311.70 1.283032e-95
311.80 1.283032e-95
311.90 1.283032e-95
312.00 1.283032e-95
312.10 1.283032e-95
312.20 1.283032e-95
312.30 1.283032e-95
312.40 1.283032e-95
312.50 1.283032e-95
312.60 1.283032e-95
312.70 1.283032e-95
312.80 1.283032e-95
312.90 1.283032e-95
313.00 1.283032e-95
313.10 1.283032e-95
313.20 1.283032e-95
313.30 1.283032e-95
313.40 1.283032e-95
313.50 1.283032e-95
313.60 1.283032e-95
313.70 1.283032e-95
313.80 1.283032e-95
313.90 1.283032e-95
314.00 1.283032e-95
314.10 1.283032e-95
314.20 1.283032e-95
314.30 1.283032e-95
314.40 1.283032e-95
314.50 1.283032e-95
314.60 1.283032e-95
314.70 1.283032e-95
314.80 1.283032e-95
314.90 1.283032e-95
315.00 1.283032e-95
315.10 1.283032e-95
315.20 1.283032e-95
315.30 1.283032e-95
315.40 1.283032e-95
315.50 1.283032e-95
315.60 1.283032e-95
315.70 1.283032e-95
315.80 1.283032e-95
315.90 1.283032e-95
316.00 1.283032e-95
316.10 1.283032e-95
316.20 1.283032e-95
316.30 1.283032e-95
316.40 1.283032e-95
316.50 1.283032e-95
316.60 1.283032e-95
316.70 1.283032e-95
316.80 1.283032e-95
316.90 1.283032e-95
317.00 1.283032e-95
317.10 1.283032e-95
317.20 1.283032e-95
317.30 1.283032e-95
317.40 1.283032e-95
317.50 1.283032e-95
317.60 1.283032e-95
317.70 1.283032e-95
317.80 1.283032e-95
317.90 1.283032e-95
318.00 1.283032e-95
318.10 1.283032e-95
318.20 1.283032e-95
318.30 1.283032e-95
318.40 1.283032e-95
318.50 1.283032e-95
318.60 1.283032e-95
318.70 1.283032e-95
318.80 1.283032e-95
318.90 1.283032e-95
319.00 1.283032e-95
319.10 1.283032e-95
319.20 1.283032e-95
319.30 1.283032e-95
319.40 1.283032e-95
319.50 1.283032e-95
319.60 1.283032e-95
319.70 1.283032e-95
319.80 1.283032e-95
319.90 1.283032e-95
320.00 1.283032e-95
320.10 1.283032e-95
320.20 1.283032e-95
320.30 1.283032e-95
320.40 1.283032e-95
320.50 1.283032e-95
320.60 1.283032e-95
320.70 1.283032e-95
320.80 1.283032e-95
320.90 1.283032e-95
321.00 1.283032e-95
321.10 1.283032e-95
321.20 1.283032e-95
321.30 1.283032e-95
321.40 1.283032e-95
321.50 1.283032e-95
321.60 1.283032e-95
321.70 1.283032e-95
321.80 1.283032e-95
321.90 1.283032e-95
322.00 1.283032e-95
322.10 1.283032e-95
322.20 1.283032e-95
322.30 1.283032e-95
322.40 1.283032e-95
322.50 1.283032e-95
322.60 1.283032e-95
322.70 1.283032e-95
322.80 1.283032e-95
322.90 1.283032e-95
323.00 1.283032e-95
323.10 1.283032e-95
323.20 1.283032e-95
323.30 1.283032e-95
323.40 1.283032e-95
323.50 1.283032e-95
323.60 1.283032e-95
323.70 1.283032e-95
323.80 1.283032e-95
323.90 1.283032e-95
324.00 1.283032e-95
324.10 1.283032e-95
324.20 1.283032e-95
324.30 1.283032e-95
324.40 1.283032e-95
324.50 1.283032e-95
324.60 1.283032e-95
324.70 1.283032e-95
324.80 1.283032e-95
324.90 1.283032e-95
325.00 1.283032e-95
325.10 1.283032e-95
325.20 1.283032e-95
325.30 1.283032e-95
325.40 1.283032e-95
325.50 1.283032e-95
325.60 1.283032e-95
325.70 1.283032e-95
325.80 1.283032e-95
325.90 1.283032e-95
326.00 1.283032e-95
326.10 1.283032e-95
326.20 1.283032e-95
326.30 1.283032e-95
326.40 1.283032e-95
326.50 1.283032e-95
326.60 1.283032e-95
326.70 1.283032e-95
326.80 1.283032e-95
326.90 1.283032e-95
327.00 1.283032e-95
327.10 1.283032e-95
327.20 1.283032e-95
327.30 1.283032e-95
327.40 1.283032e-95
327.50 1.283032e-95
327.60 1.283032e-95
327.70 1.283032e-95
327.80 1.283032e-95
327.90 1.283032e-95
328.00 1.283032e-95
328.10 1.283032e-95
328.20 1.283032e-95
328.30 1.283032e-95
328.40 1.283032e-95
328.50 1.283032e-95
328.60 1.283032e-95
328.70 1.283032e-95
328.80 1.283032e-95
328.90 1.283032e-95
329.00 1.283032e-95
329.10 1.283032e-95
329.20 1.283032e-95
329.30 1.283032e-95
329.40 1.283032e-95
329.50 1.283032e-95
329.60 1.283032e-95
329.70 1.283032e-95
329.80 1.283032e-95
329.90 1.283032e-95
330.00 1.283032e-95
330.10 1.283032e-95
330.20 1.283032e-95
330.30 1.283032e-95
330.40 1.283032e-95
330.50 1.283032e-95
330.60 1.283032e-95
330.70 1.283032e-95
330.80 1.283032e-95
330.90 1.283032e-95
331.00 1.283032e-95
331.10 1.283032e-95
331.20 1.283032e-95
331.30 1.283032e-95
331.40 1.283032e-95
331.50 1.283032e-95
331.60 1.283032e-95
331.70 1.283032e-95
331.80 1.283032e-95
331.90 1.283032e-95
332.00 1.283032e-95
332.10 1.283032e-95
332.20 1.283032e-95
332.30 1.283032e-95
332.40 1.283032e-95
332.50 1.283032e-95
332.60 1.283032e-95
332.70 1.283032e-95
332.80 1.283032e-95
332.90 1.283032e-95
333.00 1.283032e-95
333.10 1.283032e-95
333.20 1.283032e-95
333.30 1.283032e-95
333.40 1.283032e-95
333.50 1.283032e-95
333.60 1.283032e-95
333.70 1.283032e-95
333.80 1.283032e-95
333.90 1.283032e-95
334.00 1.283032e-95
334.10 1.283032e-95
334.20 1.283032e-95
334.30 1.283032e-95
334.40 1.283032e-95
334.50 1.283032e-95
334.60 1.283032e-95
334.70 1.283032e-95
334.80 1.283032e-95
334.90 1.283032e-95
335.00 1.283032e-95
335.10 1.283032e-95
335.20 1.283032e-95
335.30 1.283032e-95
335.40 1.283032e-95
335.50 1.283032e-95
335.60 1.283032e-95
335.70 1.283032e-95
335.80 1.283032e-95
335.90 1.283032e-95
336.00 1.283032e-95
336.10 1.283032e-95
336.20 1.283032e-95
336.30 1.283032e-95
336.40 1.283032e-95
336.50 1.283032e-95
336.60 1.283032e-95
336.70 1.283032e-95
336.80 1.283032e-95
336.90 1.283032e-95
337.00 1.283032e-95
337.10 1.283032e-95
337.20 1.283032e-95
337.30 1.283032e-95
337.40 1.283032e-95
337.50 1.283032e-95
337.60 1.283032e-95
337.70 1.283032e-95
337.80 1.283032e-95
337.90 1.283032e-95
338.00 1.283032e-95
338.10 1.283032e-95
338.20 1.283032e-95
338.30 1.283032e-95
338.40 1.283032e-95
338.50 1.283032e-95
338.60 1.283032e-95
338.70 1.283032e-95
338.80 1.283032e-95
338.90 1.283032e-95
339.00 1.283032e-95
339.10 1.283032e-95
339.20 1.283032e-95
339.30 1.283032e-95
339.40 1.283032e-95
339.50 1.283032e-95
339.60 1.283032e-95
339.70 1.283032e-95
339.80 1.283032e-95
339.90 1.283032e-95
340.00 1.283032e-95
340.10 1.283032e-95
340.20 1.283032e-95
340.30 1.283032e-95
340.40 1.283032e-95
340.50 1.283032e-95
340.60 1.283032e-95
340.70 1.283032e-95
340.80 1.283032e-95
340.90 1.283032e-95
341.00 1.283032e-95
341.10 1.283032e-95
341.20 1.283032e-95
341.30 1.283032e-95
341.40 1.283032e-95
341.50 1.283032e-95
341.60 1.283032e-95
341.70 1.283032e-95
341.80 1.283032e-95
341.90 1.283032e-95
342.00 1.283032e-95
342.10 1.283032e-95
342.20 1.283032e-95
342.30 1.283032e-95
342.40 1.283032e-95
342.50 1.283032e-95
342.60 1.283032e-95
342.70 1.283032e-95
342.80 1.283032e-95
342.90 1.283032e-95
343.00 1.283032e-95
343.10 1.283032e-95
343.20 1.283032e-95
343.30 1.283032e-95
343.40 1.283032e-95
343.50 1.283032e-95
343.60 1.283032e-95
343.70 1.283032e-95
343.80 1.283032e-95
343.90 1.283032e-95
344.00 1.283032e-95
344.10 1.283032e-95
344.20 1.283032e-95
344.30 1.283032e-95
344.40 1.283032e-95
344.50 1.283032e-95
344.60 1.283032e-95
344.70 1.283032e-95
344.80 1.283032e-95
344.90 1.283032e-95
345.00 1.283032e-95
345.10 1.283032e-95
345.20 1.283032e-95
345.30 1.283032e-95
345.40 1.283032e-95
345.50 1.283032e-95
345.60 1.283032e-95
345.70 1.283032e-95
345.80 1.283032e-95
345.90 1.283032e-95
346.00 1.283032e-95
346.10 1.283032e-95
346.20 1.283032e-95
346.30 1.283032e-95
346.40 1.283032e-95
346.50 1.283032e-95
346.60 1.283032e-95
346.70 1.283032e-95
346.80 1.283032e-95
346.90 1.283032e-95
347.00 1.283032e-95
347.10 1.283032e-95
347.20 1.283032e-95
347.30 1.283032e-95
347.40 1.283032e-95
347.50 1.283032e-95
347.60 1.283032e-95
347.70 1.283032e-95
347.80 1.283032e-95
347.90 1.283032e-95
348.00 1.283032e-95
348.10 1.283032e-95
348.20 1.283032e-95
348.30 1.283032e-95
348.40 1.283032e-95
348.50 1.283032e-95
348.60 1.283032e-95
348.70 1.283032e-95
348.80 1.283032e-95
348.90 1.283032e-95
349.00 1.283032e-95
349.10 1.283032e-95
349.20 1.283032e-95
349.30 1.283032e-95
349.40 1.283032e-95
349.50 1.283032e-95
349.60 1.283032e-95
349.70 1.283032e-95
349.80 1.283032e-95
349.90 1.283032e-95
350.00 1.283032e-95
350.10 1.283032e-95
350.20 1.283032e-95
350.30 1.283032e-95
350.40 1.283032e-95
350.50 1.283032e-95
350.60 1.283032e-95
350.70 1.283032e-95
350.80 1.283032e-95
350.90 1.283032e-95
351.00 1.283032e-95
351.10 1.283032e-95
351.20 1.283032e-95
351.30 1.283032e-95
351.40 1.283032e-95
351.50 1.283032e-95
351.60 1.283032e-95
351.70 1.283032e-95
351.80 1.283032e-95
351.90 1.283032e-95
352.00 1.283032e-95
352.10 1.283032e-95
352.20 1.283032e-95
352.30 1.283032e-95
352.40 1.283032e-95
352.50 1.283032e-95
352.60 1.283032e-95
352.70 1.283032e-95
352.80 1.283032e-95
352.90 1.283032e-95
353.00 1.283032e-95
353.10 1.283032e-95
353.20 1.283032e-95
353.30 1.283032e-95
353.40 1.283032e-95
353.50 1.283032e-95
353.60 1.283032e-95
353.70 1.283032e-95
353.80 1.283032e-95
353.90 1.283032e-95
354.00 1.283032e-95
354.10 1.283032e-95
354.20 1.283032e-95
354.30 1.283032e-95
354.40 1.283032e-95
354.50 1.283032e-95
354.60 1.283032e-95
354.70 1.283032e-95
354.80 1.283032e-95
354.90 1.283032e-95
355.00 1.283032e-95
355.10 1.283032e-95
355.20 1.283032e-95
355.30 1.283032e-95
355.40 1.283032e-95
355.50 1.283032e-95
355.60 1.283032e-95
355.70 1.283032e-95
355.80 1.283032e-95
355.90 1.283032e-95
356.00 1.283032e-95
356.10 1.283032e-95
356.20 1.283032e-95
356.30 1.283032e-95
356.40 1.283032e-95
356.50 1.283032e-95
356.60 1.283032e-95
356.70 1.283032e-95
356.80 1.283032e-95
356.90 1.283032e-95
357.00 1.283032e-95
357.10 1.283032e-95
357.20 1.283032e-95
357.30 1.283032e-95
357.40 1.283032e-95
357.50 1.283032e-95
357.60 1.283032e-95
357.70 1.283032e-95
357.80 1.283032e-95
357.90 1.283032e-95
358.00 1.283032e-95
358.10 1.283032e-95
358.20 1.283032e-95
358.30 1.283032e-95
358.40 1.283032e-95
358.50 1.283032e-95
358.60 1.283032e-95
358.70 1.283032e-95
358.80 1.283032e-95
358.90 1.283032e-95
359.00 1.283032e-95
359.10 1.283032e-95
359.20 1.283032e-95
359.30 1.283032e-95
359.40 1.283032e-95
359.50 1.283032e-95
359.60 1.283032e-95
359.70 1.283032e-95
359.80 1.283032e-95
359.90 1.283032e-95
360.00 1.283032e-95
360.10 1.283032e-95
360.20 1.283032e-95
360.30 1.283032e-95
360.40 1.283032e-95
360.50 1.283032e-95
360.60 1.283032e-95
360.70 1.283032e-95
360.80 1.283032e-95
360.90 1.283032e-95
361.00 1.283032e-95
361.10 1.283032e-95
361.20 1.283032e-95
361.30 1.283032e-95
361.40 1.283032e-95
361.50 1.283032e-95
361.60 1.283032e-95
361.70 1.283032e-95
361.80 1.283032e-95
361.90 1.283032e-95
362.00 1.283032e-95
362.10 1.283032e-95
362.20 1.283032e-95
362.30 1.283032e-95
362.40 1.283032e-95
362.50 1.283032e-95
362.60 1.283032e-95
362.70 1.283032e-95
362.80 1.283032e-95
362.90 1.283032e-95
363.00 1.283032e-95
363.10 1.283032e-95
363.20 1.283032e-95
363.30 1.283032e-95
363.40 1.283032e-95
363.50 1.283032e-95
363.60 1.283032e-95
363.70 1.283032e-95
363.80 1.283032e-95
363.90 1.283032e-95
364.00 1.283032e-95
364.10 1.283032e-95
364.20 1.283032e-95
364.30 1.283032e-95
364.40 1.283032e-95
364.50 1.283032e-95
364.60 1.283032e-95
364.70 1.283032e-95
364.80 1.283032e-95
364.90 1.283032e-95
365.00 1.283032e-95
365.10 1.283032e-95
365.20 1.283032e-95
365.30 1.283032e-95
365.40 1.283032e-95
365.50 1.283032e-95
365.60 1.283032e-95
365.70 1.283032e-95
365.80 1.283032e-95
365.90 1.283032e-95
366.00 1.283032e-95
366.10 1.283032e-95
366.20 1.283032e-95
366.30 1.283032e-95
366.40 1.283032e-95
366.50 1.283032e-95
366.60 1.283032e-95
366.70 1.283032e-95
366.80 1.283032e-95
366.90 1.283032e-95
367.00 1.283032e-95
367.10 1.283032e-95
367.20 1.283032e-95
367.30 1.283032e-95
367.40 1.283032e-95
367.50 1.283032e-95
367.60 1.283032e-95
367.70 1.283032e-95
367.80 1.283032e-95
367.90 1.283032e-95
368.00 1.283032e-95
368.10 1.283032e-95
368.20 1.283032e-95
368.30 1.283032e-95
368.40 1.283032e-95
368.50 1.283032e-95
368.60 1.283032e-95
368.70 1.283032e-95
368.80 1.283032e-95
368.90 1.283032e-95
369.00 1.283032e-95
369.10 1.283032e-95
369.20 1.283032e-95
369.30 1.283032e-95
369.40 1.283032e-95
369.50 1.283032e-95
369.60 1.283032e-95
369.70 1.283032e-95
369.80 1.283032e-95
369.90 1.283032e-95
370.00 1.283032e-95
370.10 1.283032e-95
370.20 1.283032e-95
370.30 1.283032e-95
370.40 1.283032e-95
370.50 1.283032e-95
370.60 1.283032e-95
370.70 1.283032e-95
370.80 1.283032e-95
370.90 1.283032e-95
371.00 1.283032e-95
371.10 1.283032e-95
371.20 1.283032e-95
371.30 1.283032e-95
371.40 1.283032e-95
371.50 1.283032e-95
371.60 1.283032e-95
371.70 1.283032e-95
371.80 1.283032e-95
371.90 1.283032e-95
372.00 1.283032e-95
372.10 1.283032e-95
372.20 1.283032e-95
372.30 1.283032e-95
372.40 1.283032e-95
372.50 1.283032e-95
372.60 1.283032e-95
372.70 1.283032e-95
372.80 1.283032e-95
372.90 1.283032e-95
373.00 1.283032e-95
373.10 1.283032e-95
373.20 1.283032e-95
373.30 1.283032e-95
373.40 1.283032e-95
373.50 1.283032e-95
373.60 1.283032e-95
373.70 1.283032e-95
373.80 1.283032e-95
373.90 1.283032e-95
374.00 1.283032e-95
374.10 1.283032e-95
374.20 1.283032e-95
374.30 1.283032e-95
374.40 1.283032e-95
374.50 1.283032e-95
374.60 1.283032e-95
374.70 1.283032e-95
374.80 1.283032e-95
374.90 1.283032e-95
375.00 1.283032e-95
375.10 1.283032e-95
375.20 1.283032e-95
375.30 1.283032e-95
375.40 1.283032e-95
375.50 1.283032e-95
375.60 1.283032e-95
375.70 1.283032e-95
375.80 1.283032e-95
375.90 1.283032e-95
376.00 1.283032e-95
376.10 1.283032e-95
376.20 1.283032e-95
376.30 1.283032e-95
376.40 1.283032e-95
376.50 1.283032e-95
376.60 1.283032e-95
376.70 1.283032e-95
376.80 1.283032e-95
376.90 1.283032e-95
377.00 1.283032e-95
377.10 1.283032e-95
377.20 1.283032e-95
377.30 1.283032e-95
377.40 1.283032e-95
377.50 1.283032e-95
377.60 1.283032e-95
377.70 1.283032e-95
377.80 1.283032e-95
377.90 1.283032e-95
378.00 1.283032e-95
378.10 1.283032e-95
378.20 1.283032e-95
378.30 1.283032e-95
378.40 1.283032e-95
378.50 1.283032e-95
378.60 1.283032e-95
378.70 1.283032e-95
378.80 1.283032e-95
378.90 1.283032e-95
379.00 1.283032e-95
379.10 1.283032e-95
379.20 1.283032e-95
379.30 1.283032e-95
379.40 1.283032e-95
379.50 1.283032e-95
379.60 1.283032e-95
379.70 1.283032e-95
379.80 1.283032e-95
379.90 1.283032e-95
380.00 1.283032e-95
380.10 1.283032e-95
380.20 1.283032e-95
380.30 1.283032e-95
380.40 1.283032e-95
380.50 1.283032e-95
380.60 1.283032e-95
380.70 1.283032e-95
380.80 1.283032e-95
380.90 1.283032e-95
381.00 1.283032e-95
381.10 1.283032e-95
381.20 1.283032e-95
381.30 1.283032e-95
381.40 1.283032e-95
381.50 1.283032e-95
381.60 1.283032e-95
381.70 1.283032e-95
381.80 1.283032e-95
381.90 1.283032e-95
382.00 1.283032e-95
382.10 1.283032e-95
382.20 1.283032e-95
382.30 1.283032e-95
382.40 1.283032e-95
382.50 1.283032e-95
382.60 1.283032e-95
382.70 1.283032e-95
382.80 1.283032e-95
382.90 1.283032e-95
383.00 1.283032e-95
383.10 1.283032e-95
383.20 1.283032e-95
383.30 1.283032e-95
383.40 1.283032e-95
383.50 1.283032e-95
383.60 1.283032e-95
383.70 1.283032e-95
383.80 1.283032e-95
383.90 1.283032e-95
384.00 1.283032e-95
384.10 1.283032e-95
384.20 1.283032e-95
384.30 1.283032e-95
384.40 1.283032e-95
384.50 1.283032e-95
384.60 1.283032e-95
384.70 1.283032e-95
384.80 1.283032e-95
384.90 1.283032e-95
385.00 1.283032e-95
385.10 1.283032e-95
385.20 1.283032e-95
385.30 1.283032e-95
385.40 1.283032e-95
385.50 1.283032e-95
385.60 1.283032e-95
385.70 1.283032e-95
385.80 1.283032e-95
385.90 1.283032e-95
386.00 1.283032e-95
386.10 1.283032e-95
386.20 1.283032e-95
386.30 1.283032e-95
386.40 1.283032e-95
386.50 1.283032e-95
386.60 1.283032e-95
386.70 1.283032e-95
386.80 1.283032e-95
386.90 1.283032e-95
387.00 1.283032e-95
387.10 1.283032e-95
387.20 1.283032e-95
387.30 1.283032e-95
387.40 1.283032e-95
387.50 1.283032e-95
387.60 1.283032e-95
387.70 1.283032e-95
387.80 1.283032e-95
387.90 1.283032e-95
388.00 1.283032e-95
388.10 1.283032e-95
388.20 1.283032e-95
388.30 1.283032e-95
388.40 1.283032e-95
388.50 1.283032e-95
388.60 1.283032e-95
388.70 1.283032e-95
388.80 1.283032e-95
388.90 1.283032e-95
389.00 1.283032e-95
389.10 1.283032e-95
389.20 1.283032e-95
389.30 1.283032e-95
389.40 1.283032e-95
389.50 1.283032e-95
389.60 1.283032e-95
389.70 1.283032e-95
389.80 1.283032e-95
389.90 1.283032e-95
390.00 1.283032e-95
390.10 1.283032e-95
390.20 1.283032e-95
390.30 1.283032e-95
390.40 1.283032e-95
390.50 1.283032e-95
390.60 1.283032e-95
390.70 1.283032e-95
390.80 1.283032e-95
390.90 1.283032e-95
391.00 1.283032e-95
391.10 1.283032e-95
391.20 1.283032e-95
391.30 1.283032e-95
391.40 1.283032e-95
391.50 1.283032e-95
391.60 1.283032e-95
391.70 1.283032e-95
391.80 1.283032e-95
391.90 1.283032e-95
392.00 1.283032e-95
392.10 1.283032e-95
392.20 1.283032e-95
392.30 1.283032e-95
392.40 1.283032e-95
392.50 1.283032e-95
392.60 1.283032e-95
392.70 1.283032e-95
392.80 1.283032e-95
392.90 1.283032e-95
393.00 1.283032e-95
393.10 1.283032e-95
393.20 1.283032e-95
393.30 1.283032e-95
393.40 1.283032e-95
393.50 1.283032e-95
393.60 1.283032e-95
393.70 1.283032e-95
393.80 1.283032e-95
393.90 1.283032e-95
394.00 1.283032e-95
394.10 1.283032e-95
394.20 1.283032e-95
394.30 1.283032e-95
394.40 1.283032e-95
394.50 1.283032e-95
394.60 1.283032e-95
394.70 1.283032e-95
394.80 1.283032e-95
394.90 1.283032e-95
395.00 0.0217089
395.10 0.02235539
395.20 0.02235539
395.30 0.02235539
395.40 0.02235539
395.50 0.02235539
395.60 0.02235539
395.70 0.02235539
395.80 0.02235539
395.90 0.02235539
396.00 0.02904832
396.10 0.0395208
396.20 0.0494876
396.30 0.05381172
396.40 0.05381172
396.50 0.05381172
396.60 0.05381172
396.70 0.05381172
396.80 0.05381172
396.90 0.05381172
397.00 0.05381172
397.10 0.05381172
397.20 0.05381172
397.30 0.05381172
397.40 0.05381172
397.50 0.05566246
397.60 0.06567438
397.70 0.08776095
397.80 0.1258861
397.90 0.180003
398.00 0.2468501
398.10 0.3206872
398.20 0.3936134
398.30 0.4580716
398.40 0.5101999
398.50 0.5503432
398.60 0.5831172
398.70 0.6164632
398.80 0.6594605
398.90 0.7197038
399.00 0.8012509
399.10 0.9045632
399.20 1.026202
399.30 1.159409
399.40 1.294817
399.50 1.421792
399.60 1.531192
399.70 1.616244
399.80 1.67279
399.90 1.698626
400.00 1.698626
400.10 1.698626
400.20 1.698626
400.30 1.698626
400.40 1.698626
400.50 1.698626
400.60 1.698626
400.70 1.698626
400.80 1.698626
400.90 1.698626
401.00 1.69984
401.10 1.707175
401.20 1.722879
401.30 1.748514
401.40 1.785357
401.50 1.833501
401.60 1.889348
401.70 1.947392
401.80 2.001905
401.90 2.048357
402.00 2.084975
402.10 2.112525
402.20 2.134064
402.30 2.155372
402.40 2.182481
402.50 2.217586
402.60 2.260945
402.70 2.313566
402.80 2.37517
402.90 2.443165
403.00 2.514181
403.10 2.584562
403.20 2.651858
403.30 2.716508
403.40 2.78165
403.50 2.850833
403.60 2.926451
403.70 3.008321
403.80 3.093697
403.90 3.178831
404.00 3.260228
404.10 3.336016
404.20 3.405521
404.30 3.469
404.40 3.527815
404.50 3.584331
404.60 3.640589
404.70 3.695575
404.80 3.746666
404.90 3.793074
405.00 3.813203
405.10 3.850192
405.20 3.886429
405.30 3.925715
405.40 3.969331
405.50 4.01423
405.60 4.05582
405.70 4.09026
405.80 4.114815
405.90 4.127943
406.00 4.123418
406.10 4.112945
406.20 4.102979
406.30 4.098654
406.40 4.098654
406.50 4.098654
406.60 4.098654
406.70 4.098654
406.80 4.098654
406.90 4.098654
407.00 4.098654
407.10 4.098654
407.20 4.098654
407.30 4.098654
407.40 4.098654
407.50 4.096804
407.60 4.086792
407.70 4.064705
407.80 4.02658
407.90 3.972463
408.00 3.905616
408.10 3.831779
408.20 3.758853
408.30 3.694395
408.40 3.642266
408.50 3.602123
408.60 3.569349
408.70 3.536003
408.80 3.493006
408.90 3.435715
409.00 3.361687
409.10 3.268043
409.20 3.156239
409.30 3.031902
409.40 2.903582
409.50 2.781369
409.60 2.67384
409.70 2.588788
409.80 2.532277
409.90 2.50779
410.00 2.509814
410.10 2.511245
410.20 2.511245
410.30 2.511245
410.40 2.511245
410.50 2.514061
410.60 2.528088
410.70 2.556927
410.80 2.601521
410.90 2.659347
411.00 2.724418
411.10 2.785853
411.20 2.834999
411.30 2.864566
411.40 2.869748
411.50 2.851165
411.60 2.816925
411.70 2.778508
411.80 2.745443
411.90 2.723245
412.00 2.713408
412.10 2.712448
412.20 2.713461
412.30 2.707843
412.40 2.687864
412.50 2.65276
412.60 2.609401
412.70 2.556779
412.80 2.495175
412.90 2.42718
413.00 2.356164
413.10 2.285783
413.20 2.218488
413.30 2.153837
413.40 2.088695
413.50 2.019512
413.60 1.943894
413.70 1.862024
413.80 1.776648
413.90 1.691514
414.00 1.610117
414.10 1.534329
414.20 1.464824
414.30 1.401346
414.40 1.342531
414.50 1.286014
414.60 1.229756
414.70 1.174771
414.80 1.123679
414.90 1.077271
415.00 1.035433
415.10 0.9977981
415.20 0.9615611
415.30 0.922275
415.40 0.8786583
415.50 0.8337595
415.60 0.7921698
415.70 0.7577295
415.80 0.7331749
415.90 0.723707
416.00 0.7344268
416.10 0.7584042
416.20 0.7939926
416.30 0.8408289
416.40 0.8975731
416.50 0.9613961
416.60 1.027458
416.70 1.089867
416.80 1.143435
416.90 1.185053
417.00 1.213974
417.10 1.230816
417.20 1.23647
417.30 1.23647
417.40 1.23647
417.50 1.23647
417.60 1.23647
417.70 1.23647
417.80 1.23647
417.90 1.23647
418.00 1.23647
418.10 1.23647
418.20 1.23647
418.30 1.23647
418.40 1.23647
418.50 1.23647
418.60 1.23647
418.70 1.23647
418.80 1.23647
418.90 1.233518
419.00 1.225998
419.10 1.21633
419.20 1.206496
419.30 1.197625
419.40 1.190537
419.50 1.185775
419.60 1.183905
419.70 1.183905
419.80 1.18387
419.90 1.18252
420.00 1.180497
420.10 1.179065
420.20 1.179065
420.30 1.179065
420.40 1.179065
420.50 1.17625
420.60 1.162222
420.70 1.133384
420.80 1.088789
420.90 1.030963
421.00 0.9646784
421.10 0.8959092
421.20 0.8310589
421.30 0.7758572
421.40 0.733832
421.50 0.7062877
421.60 0.6922096
421.70 0.6853901
421.80 0.681161
421.90 0.6792775
422.00 0.6811203
422.10 0.6884705
422.20 0.7031845
422.30 0.7254087
422.40 0.752669
422.50 0.7793557
422.60 0.7948654
422.70 0.7964154
422.80 0.7964154
422.90 0.7964154
423.00 0.7964154
423.10 0.7964154
423.20 0.7964154
423.30 0.7964154
423.40 0.7964154
423.50 0.7964154
423.60 0.7964154
423.70 0.7964154
423.80 0.7964154
423.90 0.7964154
424.00 0.7964154
424.10 0.7964154
424.20 0.7964154
424.30 0.7964154
424.40 0.7964154
424.50 0.7965342
424.60 0.8083992
424.70 0.8350064
424.80 0.8770961
424.90 0.9335785
425.00 1.002255
425.10 1.079146
425.20 1.158555
425.30 1.234798
425.40 1.302974
425.50 1.359208
425.60 1.402843
425.70 1.436622
425.80 1.464593
425.90 1.487896
426.00 1.504268
426.10 1.512476
426.20 1.512019
426.30 1.502984
426.40 1.485352
426.50 1.460276
426.60 1.431183
426.70 1.402835
426.80 1.379768
426.90 1.364943
427.00 1.357887
427.10 1.354935
427.20 1.352688
427.30 1.352688
427.40 1.352688
427.50 1.352688
427.60 1.352688
427.70 1.352688
427.80 1.352688
427.90 1.352688
428.00 1.352688
428.10 1.352688
428.20 1.352688
428.30 1.352688
428.40 1.352688
428.50 1.352688
428.60 1.352688
428.70 1.352688
428.80 1.352688
428.90 1.352688
429.00 1.352688
429.10 1.352688
429.20 1.352688
429.30 1.361106
429.40 1.377597
429.50 1.401305
429.60 1.43312
429.70 1.473955
429.80 1.522973
429.90 1.579224
430.00 1.642595
430.10 1.711853
430.20 1.783556
430.30 1.852328
430.40 1.910988
430.50 1.951833
430.60 1.970621
430.70 1.970621
430.80 1.970621
430.90 1.970621
431.00 1.975985
431.10 1.997016
431.20 2.033255
431.30 2.078194
431.40 2.121028
431.50 2.149556
431.60 2.153116
431.70 2.140308
431.80 2.12309
431.90 2.100719
432.00 2.072095
432.10 2.038156
432.20 2.000889
432.30 1.962975
432.40 1.928585
432.50 1.901898
432.60 1.886388
432.70 1.884838
432.80 1.884838
432.90 1.884838
433.00 1.884838
433.10 1.884838
433.20 1.884838
433.30 1.884838
433.40 1.884838
433.50 1.884838
433.60 1.884838
433.70 1.884838
433.80 1.884838
433.90 1.884838
434.00 1.884838
434.10 1.884838
434.20 1.884838
434.30 1.884838
434.40 1.884838
434.50 1.884719
434.60 1.872854
434.70 1.846247
434.80 1.804158
434.90 1.747675
435.00 1.678998
435.10 1.602108
435.20 1.522699
435.30 1.446455
435.40 1.37828
435.50 1.322046
435.60 1.278411
435.70 1.244632
435.80 1.21666
435.90 1.189698
436.00 1.160438
436.10 1.128252
436.20 1.093121
436.30 1.055319
436.40 1.016207
436.50 0.9774607
436.60 0.9404912
436.70 0.9099239
436.80 0.8927015
436.90 0.8890895
437.00 0.8974644
437.10 0.9145531
437.20 0.9356419
437.30 0.9482584
437.40 0.9482584
437.50 0.9482584
437.60 0.9482584
437.70 0.9482584
437.80 0.9482584
437.90 0.9482584
438.00 0.9482584
438.10 0.9482584
438.20 0.9482584
438.30 0.9482584
438.40 0.9482584
438.50 0.9482584
438.60 0.9482584
438.70 0.9482584
438.80 0.9482584
438.90 0.9482584
439.00 0.9482584
439.10 0.9482584
439.20 0.9482584
439.30 0.9398409
439.40 0.9233501
439.50 0.8996421
439.60 0.8678266
439.70 0.8269918
439.80 0.7779742
439.90 0.7285755
440.00 0.681646
440.10 0.6362341
440.20 0.5921172
440.30 0.5498094
440.40 0.5120526
440.50 0.484507
440.60 0.4716638
440.70 0.4721164
440.80 0.4721164
440.90 0.4721164
441.00 0.4667532
441.10 0.4457218
441.20 0.4094824
441.30 0.3645436
441.40 0.3217102
441.50 0.2911646
441.60 0.2800756
441.70 0.2800756
441.80 0.2800756
441.90 0.2800756
442.00 0.2800756
442.10 0.2822278
442.20 0.2856675
442.30 0.2879305
442.40 0.2879305
442.50 0.2879305
442.60 0.2879305
442.70 0.2879305
442.80 0.2879305
442.90 0.2879305
443.00 0.2879305
443.10 0.2879305
443.20 0.2879305
443.30 0.2879305
443.40 0.2879305
443.50 0.2879305
443.60 0.2879305
443.70 0.2924873
443.80 0.3017784
443.90 0.3148891
444.00 0.333022
444.10 0.3578236
444.20 0.3904425
444.30 0.4327033
444.40 0.4849946
444.50 0.5447941
444.60 0.6082517
444.70 0.6701416
444.80 0.7233602
444.90 0.7619221
445.00 0.7835632
445.10 0.7890193
445.20 0.7890193
445.30 0.7890193
445.40 0.7890193
445.50 0.7890193
445.60 0.7890193
445.70 0.7890193
445.80 0.7890193
445.90 0.7890193
446.00 0.7890193
446.10 0.7890193
446.20 0.7890193
446.30 0.7890193
446.40 0.7890193
446.50 0.7890193
446.60 0.7890193
446.70 0.7855258
446.80 0.7722479
446.90 0.7490662
447.00 0.7188259
447.10 0.6878478
447.20 0.6633513
447.30 0.653769
447.40 0.6748992
447.50 0.7135952
447.60 0.7668045
447.70 0.8295192
447.80 0.8957582
447.90 0.9596468
448.00 1.01593
448.10 1.061003
448.20 1.093704
448.30 1.114892
448.40 1.127117
448.50 1.133466
448.60 1.136116
448.70 1.1362
448.80 1.1362
448.90 1.136609
449.00 1.140273
449.10 1.148071
449.20 1.159699
449.30 1.173208
449.40 1.186136
449.50 1.195932
449.60 1.200023
449.70 1.200023
449.80 1.200023
449.90 1.19317
450.00 1.176729
450.10 1.152882
450.20 1.125296
450.30 1.104703
450.40 1.096638
450.50 1.101444
450.60 1.116502
450.70 1.137579
450.80 1.155628
450.90 1.164234
451.00 1.164234
451.10 1.164234
451.20 1.164234
451.30 1.164234
451.40 1.164234
451.50 1.164234
451.60 1.164234
451.70 1.164234
451.80 1.164234
451.90 1.164234
452.00 1.164234
452.10 1.162082
452.20 1.158642
452.30 1.156379
452.40 1.157349
452.50 1.159424
452.60 1.160789
452.70 1.160789
452.80 1.160789
452.90 1.160789
453.00 1.160789
453.10 1.160789
453.20 1.160789
453.30 1.160789
453.40 1.167479
453.50 1.180798
453.60 1.200055
453.70 1.219291
453.80 1.237754
453.90 1.256242
454.00 1.271475
454.10 1.27843
454.20 1.273002
454.30 1.251532
454.40 1.213327
454.50 1.162285
454.60 1.105972
454.70 1.053505
454.80 1.014474
454.90 0.9955939
455.00 0.9974466
455.10 1.016203
455.20 1.037601
455.30 1.054077
455.40 1.066387
455.50 1.076474
455.60 1.08565
455.70 1.093822
455.80 1.100023
455.90 1.102615
456.00 1.102615
456.10 1.102615
456.20 1.102615
456.30 1.102615
456.40 1.102615
456.50 1.102615
456.60 1.102615
456.70 1.102615
456.80 1.102615
456.90 1.102615
457.00 1.102615
457.10 1.102615
457.20 1.115094
457.30 1.137419
457.40 1.150516
457.50 1.149721
457.60 1.132781
457.70 1.100323
457.80 1.055745
457.90 1.003468
458.00 0.9480909
458.10 0.9030185
458.20 0.8703175
458.30 0.8491291
458.40 0.8369046
458.50 0.8305555
458.60 0.8328884
458.70 0.8496346
458.80 0.8781725
458.90 0.9162193
459.00 0.9558091
459.10 0.9903504
459.20 1.015114
459.30 1.02741
459.40 1.026702
459.50 1.016906
459.60 1.012815
459.70 1.012815
459.80 1.012815
459.90 1.012815
460.00 1.012815
460.10 1.012815
460.20 1.012815
460.30 1.006944
460.40 0.9941061
460.50 0.9760004
460.60 0.9549968
460.70 0.9334676
460.80 0.9154182
460.90 0.9068124
461.00 0.9068124
461.10 0.9068124
461.20 0.9068124
461.30 0.9068124
461.40 0.9068124
461.50 0.9068124
461.60 0.9068124
461.70 0.9068124
461.80 0.9068124
461.90 0.9068124
462.00 0.9068124
462.10 0.9068124
462.20 0.9068124
462.30 0.9068124
462.40 0.9058423
462.50 0.9037679
462.60 0.9024023
462.70 0.9024023
462.80 0.9024023
462.90 0.9024023
463.00 0.9024023
463.10 0.9024023
463.20 0.9024023
463.30 0.9024023
463.40 0.8957131
463.50 0.8881326
463.60 0.8790888
463.70 0.8680555
463.80 0.8533771
463.90 0.8326146
464.00 0.8048538
464.10 0.7730972
464.20 0.7459068
464.30 0.7251153
464.40 0.7110295
464.50 0.7022722
464.60 0.6951279
464.70 0.6857047
464.80 0.6842124
464.90 0.6900436
465.00 0.7014528
465.10 0.7167431
465.20 0.7343401
465.30 0.7525804
465.40 0.7689691
465.50 0.7816259
465.60 0.7911799
465.70 0.799635
465.80 0.8091661
465.90 0.8228782
466.00 0.8407809
466.10 0.860262
466.20 0.8809311
466.30 0.9021533
466.40 0.9222354
466.50 0.9386266
466.60 0.9486612
466.70 0.9493974
466.80 0.9493974
466.90 0.9493974
467.00 0.9493974
467.10 0.9493974
467.20 0.9369176
467.30 0.9115585
467.40 0.8773315
467.50 0.8394306
467.60 0.8031611
467.70 0.7729042
467.80 0.7562587
467.90 0.7540644
468.00 0.7668248
468.10 0.784832
468.20 0.807023
468.30 0.8316478
468.40 0.8554834
468.50 0.8753413
468.60 0.8831479
468.70 0.8690865
468.80 0.8405485
468.90 0.8020923
469.00 0.7588389
469.10 0.7164994
469.20 0.6801086
469.30 0.6543028
469.40 0.6420835
469.50 0.6420835
469.60 0.6420835
469.70 0.6550555
469.80 0.6810494
469.90 0.7152748
470.00 0.7512042
470.10 0.7821439
470.20 0.8024837
470.30 0.8093701
470.40 0.8093701
470.50 0.8093701
470.60 0.8093701
470.70 0.8093701
470.80 0.8093701
470.90 0.8101303
471.00 0.8232528
471.10 0.8466789
471.20 0.8765361
471.30 0.9086297
471.40 0.9394231
471.50 0.9661907
471.60 0.9865319
471.70 0.998076
471.80 0.9986117
471.90 0.9986117
472.00 0.9986117
472.10 0.9986117
472.20 0.9986117
472.30 0.9986117
472.40 0.9986117
472.50 0.9986117
472.60 0.9986117
472.70 0.9986117
472.80 0.9986117
472.90 0.9986117
473.00 0.9986117
473.10 0.9986117
473.20 0.9986117
473.30 0.9986117
473.40 0.9986117
473.50 0.9928728
473.60 0.9826594
473.70 0.9699
473.80 0.9568247
473.90 0.9459878
474.00 0.9403828
474.10 0.9403828
474.20 0.9403828
474.30 0.9403828
474.40 0.9403828
474.50 0.9403828
474.60 0.9403828
474.70 0.9403828
474.80 0.9276876
474.90 0.9021743
475.00 0.8672712
475.10 0.8277682
475.20 0.788773
475.30 0.754057
475.40 0.7253583
475.50 0.7026148
475.60 0.6838851
475.70 0.6672575
475.80 0.6515254
475.90 0.6352216
476.00 0.6173189
476.10 0.5993163
476.20 0.5872975
476.30 0.5823546
476.40 0.5878475
476.50 0.6077722
476.60 0.6449231
476.70 0.7003126
476.80 0.7606012
476.90 0.8174614
477.00 0.8621728
477.10 0.8883554
477.20 0.8937928
477.30 0.8937928
477.40 0.8937928
477.50 0.8937928
477.60 0.8937928
477.70 0.8937928
477.80 0.8887775
477.90 0.8793602
478.00 0.8656936
478.10 0.8476864
478.20 0.8322339
478.30 0.8272476
478.40 0.8352729
478.50 0.8560516
478.60 0.887333
478.70 0.9255261
478.80 0.9573711
478.90 0.9768213
479.00 0.9838495
479.10 0.9838495
479.20 0.9838495
479.30 0.9838495
479.40 0.9838495
479.50 0.9838495
479.60 0.9838495
479.70 0.9708775
479.80 0.9448836
479.90 0.9140615
480.00 0.8862668
480.10 0.8674711
480.20 0.8618538
480.30 0.8697226
480.40 0.8819921
480.50 0.8902679
480.60 0.8937225
480.70 0.8937225
480.80 0.8937225
480.90 0.8929623
481.00 0.8823457
481.10 0.8701561
481.20 0.8629368
481.30 0.8685445
481.40 0.8942772
481.50 0.9442174
481.60 1.018336
481.70 1.113068
481.80 1.221944
481.90 1.324911
482.00 1.413153
482.10 1.480833
482.20 1.524965
482.30 1.546045
482.40 1.548615
482.50 1.548615
482.60 1.548615
482.70 1.548615
482.80 1.548615
482.90 1.548615
483.00 1.548615
483.10 1.548615
483.20 1.548615
483.30 1.548615
483.40 1.548615
483.50 1.548615
483.60 1.548615
483.70 1.548615
483.80 1.548615
483.90 1.548615
484.00 1.548615
484.10 1.548615
484.20 1.548615
484.30 1.549393
484.40 1.55089
484.50 1.551543
484.60 1.551543
484.70 1.551543
484.80 1.551543
484.90 1.551543
485.00 1.551543
485.10 1.551543
485.20 1.551543
485.30 1.551543
485.40 1.551543
485.50 1.551543
485.60 1.551543
485.70 1.551543
485.80 1.551543
485.90 1.551543
486.00 1.551543
486.10 1.550065
486.20 1.541415
486.30 1.525135
486.40 1.49956
486.50 1.463245
486.60 1.416059
486.70 1.359933
486.80 1.299645
486.90 1.242785
487.00 1.198073
487.10 1.171891
487.20 1.166453
487.30 1.166453
487.40 1.166453
487.50 1.166453
487.60 1.166453
487.70 1.166453
487.80 1.166453
487.90 1.166453
488.00 1.166453
488.10 1.166453
488.20 1.159715
488.30 1.140076
488.40 1.108215
488.50 1.067579
488.60 1.023507
488.70 0.9825456
488.80 0.9507006
488.90 0.9339009
489.00 0.9297509
489.10 0.9310361
489.20 0.9310361
489.30 0.9310361
489.40 0.9310361
489.50 0.9310361
489.60 0.9310361
489.70 0.9310361
489.80 0.9342469
489.90 0.9421919
490.00 0.9530366
490.10 0.9661241
490.20 0.9810882
490.30 0.9977927
490.40 1.015364
490.50 1.031941
490.60 1.044681
490.70 1.048056
490.80 1.048056
490.90 1.048056
491.00 1.04555
491.10 1.034313
491.20 1.011675
491.30 0.9739741
491.40 0.9174481
491.50 0.8407403
491.60 0.7462808
491.70 0.6400043
491.80 0.5305929
491.90 0.427626
492.00 0.3393833
492.10 0.2717032
492.20 0.2275715
492.30 0.2064917
492.40 0.2039212
492.50 0.2047975
492.60 0.213911
492.70 0.230009
492.80 0.2509893
492.90 0.2755629
493.00 0.3027324
493.10 0.3300916
493.20 0.3555774
493.30 0.3782889
493.40 0.3984025
493.50 0.4182273
493.60 0.4412719
493.70 0.4695963
493.80 0.5020814
493.90 0.5363141
494.00 0.5696205
494.10 0.5981422
494.20 0.6176425
494.30 0.6240431
494.40 0.6225468
494.50 0.6218929
494.60 0.6218929
494.70 0.6218929
494.80 0.6218929
494.90 0.6218929
495.00 0.6218929
495.10 0.6218929
495.20 0.6218929
495.30 0.6253288
495.40 0.6306346
495.50 0.6330219
495.60 0.6330219
495.70 0.6330219
495.80 0.6330219
495.90 0.6330219
496.00 0.6330219
496.10 0.6330219
496.20 0.6330219
496.30 0.6330219
496.40 0.6330219
496.50 0.6330219
496.60 0.6330219
496.70 0.6330219
496.80 0.6330219
496.90 0.6330389
497.00 0.6383835
497.10 0.648463
497.20 0.6634652
497.30 0.683655
497.40 0.7090481
497.50 0.7392189
497.60 0.7729393
497.70 0.8085297
497.80 0.843568
497.90 0.8754309
498.00 0.9016634
498.10 0.9202323
498.20 0.93054
498.30 0.9329436
498.40 0.9329436
498.50 0.9329436
498.60 0.9329436
498.70 0.9329436
498.80 0.9329436
498.90 0.9302931
499.00 0.927415
499.10 0.9261297
499.20 0.9261297
499.30 0.9315815
499.40 0.9478576
499.50 0.97192
499.60 0.9982032
499.70 1.020388
499.80 1.029828
499.90 1.018979
500.00 1
500.10 0.9747684
500.20 0.945082
500.30 0.9136222
500.40 0.8837818
500.50 0.8589289
500.60 0.8427341
500.70 0.8393593
500.80 0.8393593
500.90 0.8393593
501.00 0.8393593
501.10 0.8393593
501.20 0.8393593
501.30 0.8393593
501.40 0.8393593
501.50 0.8418077
501.60 0.8548642
501.70 0.8767319
501.80 0.9040266
501.90 0.9326506
502.00 0.958867
502.10 0.9798238
502.20 0.9933107
502.30 0.997979
502.40 0.997979
502.50 0.9971028
502.60 0.9879893
502.70 0.9718913
502.80 0.9509109
502.90 0.9263373
503.00 0.8991679
503.10 0.8718087
503.20 0.8463228
503.30 0.8236114
503.40 0.8034978
503.50 0.7836729
503.60 0.7606283
503.70 0.732304
503.80 0.6998189
503.90 0.6655862
504.00 0.6322797
504.10 0.603758
504.20 0.5842578
504.30 0.5770792
504.40 0.5770792
504.50 0.5770792
504.60 0.5770792
504.70 0.5770792
504.80 0.5770792
504.90 0.5770792
505.00 0.5778366
505.10 0.5832379
505.20 0.5900044
505.30 0.5912662
505.40 0.5864976
505.50 0.5841103
505.60 0.5841103
505.70 0.5841103
505.80 0.5841103
505.90 0.5841103
506.00 0.5856626
506.10 0.5941034
506.20 0.6095076
506.30 0.6302719
506.40 0.6531323
506.50 0.6746618
506.60 0.692702
506.70 0.7068268
506.80 0.7174096
506.90 0.7243472
507.00 0.7225553
507.10 0.7142289
507.20 0.7009859
507.30 0.6835029
507.40 0.6607781
507.50 0.6306073
507.60 0.5968868
507.70 0.5612964
507.80 0.5262582
507.90 0.4943952
508.00 0.4681628
508.10 0.4495939
508.20 0.4392861
508.30 0.4368826
508.40 0.4368826
508.50 0.4368826
508.60 0.4368826
508.70 0.4368826
508.80 0.4368826
508.90 0.4368826
509.00 0.4368826
509.10 0.4487039
509.20 0.4751564
509.30 0.5093977
509.40 0.5421571
509.50 0.5704038
509.60 0.5928891
509.70 0.6096896
509.80 0.6217478
509.90 0.6298824
510.00 0.6298824
510.10 0.6298824
510.20 0.6298824
510.30 0.6298824
510.40 0.6298824
510.50 0.6298824
510.60 0.6298824
510.70 0.6298824
510.80 0.6298824
510.90 0.6316148
511.00 0.639404
511.10 0.652019
511.20 0.6677659
511.30 0.6845343
511.40 0.6995753
511.50 0.7077389
511.60 0.6995913
511.70 0.6777236
511.80 0.6504289
511.90 0.6218049
512.00 0.5955885
512.10 0.5746318
512.20 0.5677134
512.30 0.5784449
512.40 0.6032711
512.50 0.6363477
512.60 0.6746563
512.70 0.7145048
512.80 0.7533978
512.90 0.7891249
513.00 0.8185386
513.10 0.8388176
513.20 0.8484568
513.30 0.8484568
513.40 0.8484568
513.50 0.8484568
513.60 0.8484568
513.70 0.8484568
513.80 0.8484568
513.90 0.8484568
514.00 0.8484568
514.10 0.8484568
514.20 0.8484568
514.30 0.8484568
514.40 0.8505408
514.50 0.8541407
514.60 0.8574759
514.70 0.8587452
514.80 0.8587452
514.90 0.8587452
515.00 0.8579879
515.10 0.8525866
515.20 0.84582
515.30 0.8411224
515.40 0.8405851
515.50 0.8436578
515.60 0.8467483
515.70 0.8479175
515.80 0.8479175
515.90 0.8479372
516.00 0.8485547
516.10 0.8460268
516.20 0.8410632
516.30 0.8351385
516.40 0.8303866
516.50 0.8275718
516.60 0.8251461
516.70 0.8197648
516.80 0.8091819
516.90 0.8022274
517.00 0.7986747
517.10 0.7969216
517.20 0.7951624
517.30 0.7924555
517.40 0.7897873
517.50 0.7897873
517.60 0.7897873
517.70 0.7897873
517.80 0.7897873
517.90 0.7897873
518.00 0.7897873
518.10 0.7897873
518.20 0.7897873
518.30 0.7897873
518.40 0.7897873
518.50 0.7897873
518.60 0.7897873
518.70 0.7897873
518.80 0.7897873
518.90 0.7897873
519.00 0.7897873
519.10 0.7779661
519.20 0.7515135
519.30 0.7118204
519.40 0.662785
519.50 0.6104759
519.60 0.5617074
519.70 0.5227224
519.80 0.4980132
519.90 0.4893788
520.00 0.4893788
520.10 0.4893788
520.20 0.4893788
520.30 0.4893788
520.40 0.4893788
520.50 0.4893788
520.60 0.4893788
520.70 0.4893788
520.80 0.4893788
520.90 0.4876463
521.00 0.4798571
521.10 0.4728247
521.20 0.4714809
521.30 0.4758092
521.40 0.4852998
521.50 0.4982711
521.60 0.5108969
521.70 0.5183078
521.80 0.5183078
521.90 0.5183078
522.00 0.5183078
522.10 0.5183078
522.20 0.5117392
522.30 0.4963393
522.40 0.4715131
522.50 0.4384365
522.60 0.400128
522.70 0.3618567
522.80 0.3258999
522.90 0.2929649
523.00 0.2663386
523.10 0.2501816
523.20 0.2469434
523.30 0.2564222
523.40 0.2696466
523.50 0.2867471
523.60 0.3081194
523.70 0.3336896
523.80 0.3615913
523.90 0.3887287
524.00 0.4111901
524.10 0.4251647
524.20 0.4279819
524.30 0.4279819
524.40 0.4258978
524.50 0.4222979
524.60 0.4189627
524.70 0.4176934
524.80 0.4176934
524.90 0.4176934
525.00 0.4176934
525.10 0.4176934
525.20 0.4176934
525.30 0.4176934
525.40 0.4176934
525.50 0.4146207
525.60 0.4162855
525.70 0.425568
525.80 0.4418729
525.90 0.4627005
526.00 0.4827523
526.10 0.4957342
526.20 0.4957564
526.30 0.4809169
526.40 0.4628083
526.50 0.4440937
526.60 0.4284792
526.70 0.4197357
526.80 0.4197357
526.90 0.4197357
527.00 0.4197357
527.10 0.4197357
527.20 0.4197357
527.30 0.4197357
527.40 0.4197357
527.50 0.4197357
527.60 0.4197357
527.70 0.4197357
527.80 0.4197357
527.90 0.4197357
528.00 0.4197357
528.10 0.4197357
528.20 0.4197357
528.30 0.4197357
528.40 0.4197357
528.50 0.4197357
528.60 0.4197357
528.70 0.4197357
528.80 0.4197357
528.90 0.4197357
529.00 0.4197357
529.10 0.4197357
529.20 0.4197357
529.30 0.4197357
529.40 0.4197357
529.50 0.4197357
529.60 0.4197357
529.70 0.4197357
529.80 0.4197357
529.90 0.4197357
530.00 0.4197357
530.10 0.4197357
530.20 0.4197357
530.30 0.4197357
530.40 0.4197357
530.50 0.4197357
530.60 0.4197357
530.70 0.4197357
530.80 0.4197357
530.90 0.4197357
531.00 0.4197357
531.10 0.4141531
531.20 0.39975
531.30 0.3786533
531.40 0.3541217
531.50 0.3305384
531.60 0.3130037
531.70 0.3055928
531.80 0.3055928
531.90 0.3055928
532.00 0.3055928
532.10 0.3055928
532.20 0.3118803
532.30 0.3243491
532.40 0.3384439
532.50 0.3496618
532.60 0.3539458
532.70 0.3523685
532.80 0.3494323
532.90 0.3466402
533.00 0.3438528
533.10 0.3397309
533.20 0.3409916
533.30 0.3467123
533.40 0.3537656
533.50 0.3586139
533.60 0.3566289
533.70 0.3446181
533.80 0.3224735
533.90 0.2953362
534.00 0.2728747
534.10 0.2589001
534.20 0.256083
534.30 0.256083
534.40 0.256083
534.50 0.256083
534.60 0.256083
534.70 0.256083
534.80 0.256083
534.90 0.256083
535.00 0.256083
535.10 0.256083
535.20 0.256083
535.30 0.256083
535.40 0.256083
535.50 0.256083
535.60 0.2513277
535.70 0.2418414
535.80 0.2285068
535.90 0.20966
536.00 0.1874384
536.10 0.1685436
536.20 0.1580807
536.30 0.1580807
536.40 0.1580807
536.50 0.1580807
536.60 0.1580807
536.70 0.1580807
536.80 0.1580807
536.90 0.1580807
537.00 0.1580807
537.10 0.1580807
537.20 0.1580807
537.30 0.1580807
537.40 0.1580807
537.50 0.1580807
537.60 0.1580807
537.70 0.1580807
537.80 0.1633764
537.90 0.1771083
538.00 0.1970932
538.10 0.2203719
538.20 0.2429694
538.30 0.2610385
538.40 0.2726022
538.50 0.2775245
538.60 0.2775245
538.70 0.2775245
538.80 0.2775245
538.90 0.2775245
539.00 0.2775245
539.10 0.2775245
539.20 0.2811336
539.30 0.2903712
539.40 0.3027915
539.50 0.3155255
539.60 0.3259218
539.70 0.3318688
539.80 0.3318688
539.90 0.3318688
540.00 0.3318688
540.10 0.3318688
540.20 0.3318688
540.30 0.3318688
540.40 0.3318688
540.50 0.3318688
540.60 0.3318688
540.70 0.3318688
540.80 0.3318688
540.90 0.3318688
541.00 0.3318688
541.10 0.3318688
541.20 0.3318688
541.30 0.3343259
541.40 0.3467346
541.50 0.3684846
541.60 0.3962158
541.70 0.425161
541.80 0.4505631
541.90 0.4685812
542.00 0.4768341
542.10 0.4768341
542.20 0.4705465
542.30 0.4580778
542.40 0.443983
542.50 0.4327651
542.60 0.4284811
542.70 0.4284811
542.80 0.4284811
542.90 0.4284811
543.00 0.4366677
543.10 0.4524862
543.20 0.4657187
543.30 0.4734568
543.40 0.475427
543.50 0.472587
543.60 0.4664451
543.70 0.4577484
543.80 0.4519913
543.90 0.4519913
544.00 0.4519913
544.10 0.4519913
544.20 0.4519913
544.30 0.4519913
544.40 0.4519913
544.50 0.4519913
544.60 0.4519913
544.70 0.4519913
544.80 0.4519913
544.90 0.4519913
545.00 0.4519913
545.10 0.4519913
545.20 0.4519913
545.30 0.4519913
545.40 0.4519913
545.50 0.4519913
545.60 0.4519913
545.70 0.4510258
545.80 0.4480555
545.90 0.4460551
546.00 0.4460551
546.10 0.4460551
546.20 0.4460551
546.30 0.4460551
546.40 0.4460551
546.50 0.4460551
546.60 0.4460551
546.70 0.4460551
546.80 0.4460551
546.90 0.4460551
547.00 0.4460551
547.10 0.4460551
547.20 0.4460551
547.30 0.4479176
547.40 0.4519761
547.50 0.4581918
547.60 0.4666284
547.70 0.4769872
547.80 0.4831867
547.90 0.4813251
548.00 0.4727485
548.10 0.46009
548.20 0.4479183
548.30 0.440666
548.40 0.4409752
548.50 0.4500652
548.60 0.4679207
548.70 0.4912898
548.80 0.5201827
548.90 0.5524238
549.00 0.584701
549.10 0.6136729
549.20 0.6332287
549.30 0.6401542
549.40 0.636725
549.50 0.6256823
549.60 0.615286
549.70 0.609339
549.80 0.609339
549.90 0.609339
550.00 0.2977878
550.10 0.2582415
550.20 0.2060061
550.30 0.1533181
550.40 0.1078446
550.50 0.07561208
550.60 0.06359008
550.70 0.07733036
550.80 0.1060682
550.90 0.135744
551.00 0.1642649
551.10 0.1908152
551.20 0.2168797
551.30 0.2439219
551.40 0.2736041
551.50 0.3086348
551.60 0.3532736
551.70 0.4116963
551.80 0.4839285
551.90 0.5645313
552.00 0.6452244
552.10 0.7176541
552.20 0.7755663
552.30 0.815974
552.40 0.8384518
552.50 0.8426801
552.60 0.8426801
552.70 0.8426801
552.80 0.8426801
552.90 0.8426801
553.00 0.8426801
553.10 0.8426801
553.20 0.8426801
553.30 0.8426801
553.40 0.8426801
553.50 0.8426801
553.60 0.8426801
553.70 0.8426801
553.80 0.8426801
553.90 0.8426801
554.00 0.8426801
554.10 0.8426801
554.20 0.8456773
554.30 0.8601016
554.40 0.8863158
554.50 0.9214931
554.60 0.958663
554.70 0.9914506
554.80 1.01746
554.90 1.03698
555.00 1.053384
555.10 1.070442
555.20 1.104009
555.30 1.178198
555.40 1.294291
555.50 1.465167
555.60 1.724879
555.70 2.089267
555.80 2.554035
555.90 3.098554
556.00 3.689285
556.10 4.282523
556.20 4.831365
556.30 5.296406
556.40 5.653791
556.50 5.90369
556.60 6.04444
556.70 6.094013
556.80 6.102713
556.90 6.104536
557.00 6.104536
557.10 6.104536
557.20 6.104536
557.30 6.104536
557.40 6.104536
557.50 6.104536
557.60 6.110623
557.70 6.133489
557.80 6.177643
557.90 6.247744
558.00 6.343533
558.10 6.461674
558.20 6.597435
558.30 6.736816
558.40 6.876241
558.50 7.015079
558.60 7.153674
558.70 7.288189
558.80 7.410553
558.90 7.512924
559.00 7.589179
559.10 7.636109
559.20 7.638003
559.30 7.572892
559.40 7.44569
559.50 7.249828
559.60 6.952111
559.70 6.533867
559.80 5.999657
559.90 5.375687
560.00 4.704262
560.10 4.038595
560.20 3.431841
560.30 2.926392
560.40 2.546529
560.50 2.292402
560.60 2.151652
560.70 2.102079
560.80 2.093379
560.90 2.091556
561.00 2.091556
561.10 2.091556
561.20 2.091556
561.30 2.091556
561.40 2.091556
561.50 2.09952
561.60 2.11111
561.70 2.115361
561.80 2.105023
561.90 2.072049
562.00 2.015171
562.10 1.937933
562.20 1.844535
562.30 1.738104
562.40 1.617029
562.50 1.475707
562.60 1.31102
562.70 1.128404
562.80 0.9512928
562.90 0.7997258
563.00 0.678546
563.10 0.5880069
563.20 0.5264824
563.30 0.4927901
563.40 0.4892103
563.50 0.4994305
563.60 0.5095102
563.70 0.5113677
563.80 0.5085778
563.90 0.5074261
564.00 0.5074261
564.10 0.5120136
564.20 0.5277488
564.30 0.5529489
564.40 0.5816009
564.50 0.6059222
564.60 0.6204119
564.70 0.6240795
564.80 0.6240795
564.90 0.6240795
565.00 0.6299887
565.10 0.6497511
565.20 0.6828592
565.30 0.7232199
565.40 0.761831
565.50 0.782319
565.60 0.777389
565.70 0.7502719
565.80 0.7164558
565.90 0.6793286
566.00 0.6404182
566.10 0.5995147
566.20 0.5707759
566.30 0.5638483
566.40 0.5812597
566.50 0.6292967
566.60 0.7120766
566.70 0.8279143
566.80 0.9561788
566.90 1.075948
567.00 1.179351
567.10 1.26303
567.20 1.328794
567.30 1.378209
567.40 1.406315
567.50 1.430602
567.60 1.476412
567.70 1.567877
567.80 1.709374
567.90 1.890324
568.00 2.097337
568.10 2.306139
568.20 2.490522
568.30 2.636368
568.40 2.738446
568.50 2.799182
568.60 2.825751
568.70 2.828728
568.80 2.828728
568.90 2.828728
569.00 2.822819
569.10 2.803056
569.20 2.783895
569.30 2.773292
569.40 2.776923
569.50 2.795967
569.60 2.826614
569.70 2.855949
569.80 2.862933
569.90 2.862933
570.00 2.862933
570.10 2.862933
570.20 2.846311
570.30 2.801208
570.40 2.729086
570.50 2.632817
570.60 2.517867
570.70 2.391446
570.80 2.266543
570.90 2.164486
571.00 2.095213
571.10 2.06165
571.20 2.060664
571.30 2.085485
571.40 2.123928
571.50 2.155259
571.60 2.153477
571.70 2.094058
571.80 1.965206
571.90 1.784255
572.00 1.577242
572.10 1.363853
572.20 1.163735
572.30 0.9926889
572.40 0.8619585
572.50 0.7769018
572.60 0.7358433
572.70 0.7291985
572.80 0.7291985
572.90 0.7291985
573.00 0.7291985
573.10 0.7291985
573.20 0.7152515
573.30 0.6854938
573.40 0.6432514
573.50 0.5957545
573.60 0.5523623
573.70 0.5230273
573.80 0.5160434
573.90 0.5160434
574.00 0.5160434
574.10 0.5160434
574.20 0.5238388
574.30 0.5376591
574.40 0.5543898
574.50 0.5712503
574.60 0.5859624
574.70 0.5970063
574.80 0.6017499
574.90 0.5921129
575.00 0.5695161
575.10 0.5390204
575.20 0.5060835
575.30 0.4751088
575.40 0.4528291
575.50 0.4481509
575.60 0.4679575
575.70 0.5163624
575.80 0.5942509
575.90 0.68562
576.00 0.7744615
576.10 0.8582588
576.20 0.9348349
576.30 1.001661
576.40 1.057867
576.50 1.10322
576.60 1.135563
576.70 1.153191
576.80 1.156645
576.90 1.156645
577.00 1.156645
577.10 1.156645
577.20 1.156645
577.30 1.156645
577.40 1.156645
577.50 1.156645
577.60 1.156645
577.70 1.156645
577.80 1.156645
577.90 1.156645
578.00 1.156645
578.10 1.171054
578.20 1.201162
578.30 1.246894
578.40 1.306403
578.50 1.375195
578.60 1.447424
578.70 1.51729
578.80 1.57773
578.90 1.621966
579.00 1.645713
579.10 1.644583
579.20 1.615759
579.30 1.570071
579.40 1.510809
579.50 1.439603
579.60 1.359055
579.70 1.27218
579.80 1.181646
579.90 1.090277
580.00 1.001435
580.10 0.9176382
580.20 0.8410621
580.30 0.7742362
580.40 0.7180299
580.50 0.6726771
580.60 0.6403339
580.70 0.622706
580.80 0.6192518
580.90 0.6192518
581.00 0.6192518
581.10 0.6192518
581.20 0.6192518
581.30 0.6365101
581.40 0.6770607
581.50 0.7317514
581.60 0.7887835
581.70 0.8364686
581.80 0.8667225
581.90 0.8789213
582.00 0.8802963
582.10 0.8663604
582.20 0.8348513
582.30 0.7888252
582.40 0.7305713
582.50 0.663853
582.60 0.596023
582.70 0.5363567
582.80 0.4911626
582.90 0.4627152
583.00 0.4505191
583.10 0.4532361
583.20 0.4695336
583.30 0.4856649
583.40 0.4948512
583.50 0.4948512
583.60 0.4948512
583.70 0.4948512
583.80 0.4948512
583.90 0.5156721
584.00 0.5730814
584.10 0.6735199
584.20 0.8146809
584.30 0.9848224
584.40 1.165274
584.50 1.333844
584.60 1.470603
584.70 1.564522
584.80 1.616426
584.90 1.636593
585.00 1.640191
585.10 1.643686
585.20 1.659354
585.30 1.671951
585.40 1.667374
585.50 1.641269
585.60 1.592222
585.70 1.544537
585.80 1.514283
585.90 1.502084
586.00 1.500709
586.10 1.500236
586.20 1.493842
586.30 1.480315
586.40 1.46233
586.50 1.443396
586.60 1.424284
586.70 1.403041
586.80 1.379691
586.90 1.355827
587.00 1.332742
587.10 1.311535
587.20 1.29222
587.30 1.276089
587.40 1.266903
587.50 1.266903
587.60 1.266903
587.70 1.266903
587.80 1.266903
587.90 1.246082
588.00 1.188672
588.10 1.104935
588.20 0.9846914
588.30 0.8252669
588.40 0.6448157
588.50 0.4762453
588.60 0.3394862
588.70 0.2455668
588.80 0.1936633
588.90 0.173496
589.00 0.1698978
589.10 0.1664031
589.20 0.1513367
589.30 0.1375596
589.40 0.1266817
589.50 0.1242892
589.60 0.1360827
589.70 0.1444946
589.80 0.1444946
589.90 0.1444946
590.00 0.1444946
590.10 0.1444946
590.20 0.1444946
590.30 0.1478959
590.40 0.177293
590.50 0.2346976
590.60 0.3159409
590.70 0.4109182
590.80 0.5042852
590.90 0.5793558
591.00 0.6224399
591.10 0.6260632
591.20 0.6260632
591.30 0.6260632
591.40 0.6260632
591.50 0.6260632
591.60 0.6260632
591.70 0.6260632
591.80 0.6260632
591.90 0.6260632
592.00 0.6260632
592.10 0.6093618
592.20 0.5884447
592.30 0.5777278
592.40 0.5777278
592.50 0.5777278
592.60 0.5777278
592.70 0.5777278
592.80 0.5777278
592.90 0.5777278
593.00 0.5777278
593.10 0.5777278
593.20 0.5771266
593.30 0.5610481
593.40 0.5359526
593.50 0.509759
593.60 0.4899805
593.70 0.4815686
593.80 0.4815686
593.90 0.4815686
594.00 0.4815686
594.10 0.4815686
594.20 0.4815686
594.30 0.4781673
594.40 0.4487702
594.50 0.3913656
594.60 0.3101223
594.70 0.215145
594.80 0.121778
594.90 0.0467074
595.00 0.003623309
595.10 0
595.20 0
595.30 0
595.40 0
595.50 0.01431128
595.60 0.04301751
595.70 0.0814245
595.80 0.1246652
595.90 0.1681391
596.00 0.2090107
596.10 0.2462168
596.20 0.2801466
596.30 0.3121874
596.40 0.3422747
596.50 0.3688532
596.60 0.3906454
596.70 0.405967
596.80 0.4123376
596.90 0.4123376
597.00 0.4123376
597.10 0.4123376
597.20 0.4123376
597.30 0.4123376
597.40 0.4123376
597.50 0.4123376
597.60 0.4123376
597.70 0.4163569
597.80 0.4401276
597.90 0.4824273
598.00 0.5359748
598.10 0.59287
598.20 0.6484305
598.30 0.6991299
598.40 0.7407399
598.50 0.7709613
598.60 0.7918826
598.70 0.8089412
598.80 0.8290497
598.90 0.8593676
599.00 0.9036126
599.10 0.9615159
599.20 1.03088
599.30 1.108764
599.40 1.191585
599.50 1.258549
599.60 1.299939
599.70 1.31074
599.80 1.289051
599.90 1.245577
600.00 2.141899
600.10 2.27581
600.20 2.222418
600.30 2.027976
600.40 1.664401
600.50 1.208856
600.60 0.83685
600.70 0.6823471
600.80 0.8043394
600.90 1.212716
601.00 1.769798
601.10 2.316132
601.20 2.774578
601.30 3.115329
601.40 3.312877
601.50 3.250976
601.60 2.803875
601.70 1.968293
601.80 0.8620971
601.90 0
602.00 0
602.10 0
602.20 0
602.30 0
602.40 0
602.50 0
602.60 0
602.70 0
602.80 0
602.90 0
603.00 0.7580442
603.10 1.819512
603.20 2.795171
603.30 3.576759
603.40 4.054734
603.50 4.123945
603.60 3.747027
603.70 3.024426
603.80 2.220644
603.90 1.616077
604.00 1.38032
604.10 1.531845
604.20 1.996309
604.30 2.653864
604.40 3.270878
604.50 3.597468
604.60 3.513732
604.70 3.030861
604.80 2.252375
604.90 1.374426
605.00 0.629173
605.10 0.168118
605.20 0
605.30 0
605.40 0.08080257
605.50 0.3263028
605.60 0.611585
605.70 0.9544775
605.80 1.412446
605.90 1.962389
606.00 2.523084
606.10 2.990822
606.20 3.267393
606.30 3.265659
606.40 2.974087
606.50 2.524209
606.60 2.09968
606.70 1.805846
606.80 1.652911
606.90 1.633444
607.00 1.742279
607.10 1.956501
607.20 2.236681
607.30 2.557603
607.40 2.910433
607.50 3.279094
607.60 3.646107
607.70 3.99891
607.80 4.336112
607.90 4.628943
608.00 4.826301
608.10 4.867686
608.20 4.68074
608.30 4.256794
608.40 3.671236
608.50 2.955811
608.60 2.139424
608.70 1.366706
608.80 0.8249451
608.90 0.6424867
609.00 0.8516533
609.10 1.372701
609.20 1.993035
609.30 2.455049
609.40 2.588787
609.50 2.440017
609.60 2.193399
609.70 1.974665
609.80 1.823355
609.90 1.83251
610.00 2.083456
610.10 2.506073
610.20 2.932289
610.30 3.218968
610.40 3.334029
610.50 3.31562
610.60 3.296228
610.70 3.443831
610.80 3.827485
610.90 4.321626
611.00 4.724754
611.10 4.926692
611.20 4.89478
611.30 4.621133
611.40 4.139298
611.50 3.511816
611.60 2.842364
611.70 2.266786
611.80 1.857681
611.90 1.671182
612.00 1.696869
612.10 1.844864
612.20 2.017029
612.30 2.162065
612.40 2.246163
612.50 2.194593
612.60 1.980258
612.70 1.664109
612.80 1.31788
612.90 1.014314
613.00 0.8412487
613.10 0.8717195
613.20 1.123931
613.30 1.497105
613.40 1.835061
613.50 2.01832
613.60 1.987951
613.70 1.780339
613.80 1.527925
613.90 1.362393
614.00 1.326621
614.10 1.393994
614.20 1.537314
614.30 1.714821
614.40 1.869755
614.50 1.959156
614.60 1.980756
614.70 2.014614
614.80 2.148695
614.90 2.409329
615.00 2.775863
615.10 3.157623
615.20 3.412125
615.30 3.463573
615.40 3.320141
615.50 3.029928
615.60 2.668148
615.70 2.336589
615.80 2.105236
615.90 1.99183
616.00 1.99554
616.10 2.058244
616.20 2.092472
616.30 2.063457
616.40 1.989977
616.50 1.942181
616.60 2.090138
616.70 2.524213
616.80 3.179878
616.90 3.974184
617.00 4.792142
617.10 5.49179
617.20 5.959756
617.30 6.124868
617.40 5.94189
617.50 5.42265
617.60 4.661348
617.70 3.764476
617.80 2.876448
617.90 2.161252
618.00 1.634027
618.10 1.269892
618.20 1.092249
618.30 1.067076
618.40 1.137599
618.50 1.241852
618.60 1.299167
618.70 1.231185
618.80 1.009372
618.90 0.6951696
619.00 0.402592
619.10 0.25415
619.20 0.2748702
619.30 0.3767291
619.40 0.436138
619.50 0.4006815
619.60 0.3409431
619.70 0.3796871
619.80 0.5816
619.90 0.9214971
620.00 1.3273
620.10 1.71741
620.20 2.031312
620.30 2.203111
620.40 2.175003
620.50 1.924863
620.60 1.541804
620.70 1.190084
620.80 1.002799
620.90 1.034399
621.00 1.232017
621.10 1.434897
621.20 1.508138
621.30 1.43069
621.40 1.244682
621.50 1.004351
621.60 0.7440627
621.70 0.5039986
621.80 0.3426099
621.90 0.3381963
622.00 0.496585
622.10 0.7344177
622.20 1.020258
622.30 1.367392
622.40 1.748054
622.50 2.122489
622.60 2.434067
622.70 2.605266
622.80 2.647265
622.90 2.658109
623.00 2.728616
623.10 2.891431
623.20 3.097351
623.30 3.269999
623.40 3.362797
623.50 3.362971
623.60 3.241724
623.70 2.964545
623.80 2.557554
623.90 2.085534
624.00 1.651365
624.10 1.384061
624.20 1.306269
624.30 1.350765
624.40 1.439565
624.50 1.499117
624.60 1.49186
624.70 1.408059
624.80 1.263872
624.90 1.090218
625.00 0.8980725
625.10 0.6886997
625.20 0.4779767
625.30 0.31065
625.40 0.2330332
625.50 0.2623794
625.60 0.3991954
625.70 0.6105983
625.80 0.8358136
625.90 1.007383
626.00 1.117358
626.10 1.228014
626.20 1.425859
626.30 1.778519
626.40 2.285732
626.50 2.862561
626.60 3.341286
626.70 3.57823
626.80 3.509662
626.90 3.122214
627.00 2.460912
627.10 1.66261
627.20 0.9353373
627.30 0.4827211
627.40 0.3931732
627.50 0.6064853
627.60 0.9737256
627.70 1.337565
627.80 1.614113
627.90 1.778311
628.00 1.897875
628.10 2.068483
628.20 2.303452
628.30 2.596415
628.40 2.94998
628.50 3.338843
628.60 3.726865
628.70 4.073317
628.80 4.340797
628.90 4.529976
629.00 4.615836
629.10 4.555884
629.20 4.341813
629.30 4.012603
629.40 3.623917
629.50 3.245175
629.60 3.04529
629.70 3.17287
629.80 3.595197
629.90 4.195814
630.00 4.841317
630.10 5.389451
630.20 5.720889
630.30 5.739827
630.40 5.465353
630.50 4.979338
630.60 4.372051
630.70 3.770397
630.80 3.303342
630.90 3.080673
631.00 3.102642
631.10 3.27749
631.20 3.5686
631.30 3.927819
631.40 4.222391
631.50 4.322606
631.60 4.210233
631.70 3.972709
631.80 3.688431
631.90 3.422298
632.00 3.245709
632.10 3.253744
632.20 3.505372
632.30 3.910769
632.40 4.254047
632.50 4.344252
632.60 4.094722
632.70 3.527999
632.80 2.80464
632.90 2.158636
633.00 1.734856
633.10 1.546904
633.20 1.566466
633.30 1.80089
633.40 2.239534
633.50 2.776229
633.60 3.281708
633.70 3.693887
633.80 4.030258
633.90 4.315354
634.00 4.559043
634.10 4.759476
634.20 4.862799
634.30 4.837388
634.40 4.709398
634.50 4.530885
634.60 4.383596
634.70 4.298909
634.80 4.256661
634.90 4.211003
635.00 4.124477
635.10 3.978823
635.20 3.747406
635.30 3.432915
635.40 3.051587
635.50 2.646955
635.60 2.318675
635.70 2.158182
635.80 2.234298
635.90 2.590439
636.00 3.172389
636.10 3.883159
636.20 4.713645
636.30 5.667091
636.40 6.602106
636.50 7.329724
636.60 7.733867
636.70 7.767681
636.80 7.45556
636.90 6.862585
637.00 6.074773
637.10 5.233784
637.20 4.467452
637.30 3.866826
637.40 3.580929
637.50 3.690108
637.60 4.050242
637.70 4.43349
637.80 4.680359
637.90 4.682188
638.00 4.412951
638.10 3.94445
638.20 3.401615
638.30 2.947892
638.40 2.74243
638.50 2.853219
638.60 3.279231
638.70 3.945034
638.80 4.654263
638.90 5.218876
639.00 5.557714
639.10 5.685692
639.20 5.689279
639.30 5.664077
639.40 5.633271
639.50 5.552641
639.60 5.371172
639.70 5.060247
639.80 4.631658
639.90 4.13634
640.00 3.642683
640.10 3.239807
640.20 3.015473
640.30 3.023437
640.40 3.258193
640.50 3.640306
640.60 4.053664
640.70 4.384603
640.80 4.581271
640.90 4.688104
641.00 4.760042
641.10 4.813658
641.20 4.852334
641.30 4.875522
641.40 4.86758
641.50 4.804402
641.60 4.677548
641.70 4.51501
641.80 4.331443
641.90 4.107586
642.00 3.828798
642.10 3.491532
642.20 3.118962
642.30 2.74081
642.40 2.397589
642.50 2.142389
642.60 2.013613
642.70 2.037015
642.80 2.268473
642.90 2.751221
643.00 3.428114
643.10 4.132491
643.20 4.713339
643.30 5.088531
643.40 5.198309
643.50 5.047061
643.60 4.64818
643.70 4.029074
643.80 3.305787
643.90 2.63726
644.00 2.16747
644.10 1.962626
644.20 1.999923
644.30 2.245277
644.40 2.659856
644.50 3.196396
644.60 3.773783
644.70 4.300522
644.80 4.77226
644.90 5.202914
645.00 5.627682
645.10 6.059151
645.20 6.416394
645.30 6.599351
645.40 6.521828
645.50 6.182017
645.60 5.665653
645.70 5.06094
645.80 4.494552
645.90 4.093876
646.00 3.907774
646.10 3.957216
646.20 4.209198
646.30 4.628782
646.40 5.156824
646.50 5.689534
646.60 6.131784
646.70 6.379033
646.80 6.433497
646.90 6.363466
647.00 6.184335
647.10 5.908726
647.20 5.551964
647.30 5.143304
647.40 4.775838
647.50 4.537034
647.60 4.460015
647.70 4.477341
647.80 4.49018
647.90 4.472451
648.00 4.434392
648.10 4.430094
648.20 4.427868
648.30 4.369755
648.40 4.314018
648.50 4.360091
648.60 4.597383
648.70 5.054184
648.80 5.663368
648.90 6.318879
649.00 6.883815
649.10 7.22492
649.20 7.281949
649.30 7.065008
649.40 6.735788
649.50 6.515038
649.60 6.559246
649.70 6.898909
649.80 7.427394
649.90 7.968933
650.00 8.309031
650.10 8.256884
650.20 7.749825
650.30 6.849209
650.40 5.730742
650.50 4.666333
650.60 3.892351
650.70 3.584235
650.80 3.755801
650.90 4.251525
651.00 4.894144
651.10 5.538508
651.20 6.061186
651.30 6.356937
651.40 6.391784
651.50 6.245396
651.60 6.039602
651.70 5.875592
651.80 5.813986
651.90 5.868046
652.00 6.038767
652.10 6.257196
652.20 6.409749
652.30 6.431721
652.40 6.31272
652.50 6.108827
652.60 5.922334
652.70 5.871162
652.80 6.029442
652.90 6.373133
653.00 6.82839
653.10 7.303175
653.20 7.721968
653.30 8.022153
653.40 8.193587
653.50 8.285617
653.60 8.301692
653.70 8.204445
653.80 7.979375
653.90 7.644422
654.00 7.192106
654.10 6.624415
654.20 6.061737
654.30 5.681759
654.40 5.571869
654.50 5.698431
654.60 5.964486
654.70 6.283334
654.80 6.546519
654.90 6.645712
655.00 6.56774
655.10 6.379737
655.20 6.143202
655.30 5.879426
655.40 5.650484
655.50 5.549767
655.60 5.595412
655.70 5.768321
655.80 6.086874
655.90 6.585159
656.00 7.249248
656.10 7.996859
656.20 8.70745
656.30 9.247187
656.40 9.53656
656.50 9.559387
656.60 9.349883
656.70 8.963472
656.80 8.446127
656.90 7.86409
657.00 7.291049
657.10 6.778732
657.20 6.372801
657.30 6.124658
657.40 6.073856
657.50 6.280705
657.60 6.778121
657.70 7.488122
657.80 8.238147
657.90 8.84844
658.00 9.199855
658.10 9.225621
658.20 8.948301
658.30 8.434707
658.40 7.765388
658.50 7.068595
658.60 6.461347
658.70 6.021899
658.80 5.805888
658.90 5.797724
659.00 5.912247
659.10 6.068302
659.20 6.203704
659.30 6.289157
659.40 6.357172
659.50 6.461167
659.60 6.610335
659.70 6.786756
659.80 7.014689
659.90 7.327103
660.00 7.724445
660.10 8.130362
660.20 8.397314
660.30 8.394051
660.40 8.093477
660.50 7.590955
660.60 7.020972
660.70 6.509864
660.80 6.120591
660.90 5.884096
661.00 5.806367
661.10 5.864387
661.20 5.99849
661.30 6.128567
661.40 6.188285
661.50 6.176255
661.60 6.173812
661.70 6.268109
661.80 6.486747
661.90 6.77501
662.00 7.049948
662.10 7.234897
662.20 7.263219
662.30 7.117344
662.40 6.876294
662.50 6.653676
662.60 6.525024
662.70 6.504572
662.80 6.583534
662.90 6.75173
663.00 6.969295
663.10 7.192629
663.20 7.399024
663.30 7.590875
663.40 7.776141
663.50 7.947405
663.60 8.132763
663.70 8.365523
663.80 8.618144
663.90 8.817612
664.00 8.895333
664.10 8.872987
664.20 8.819412
664.30 8.777888
664.40 8.777439
664.50 8.80133
664.60 8.778253
664.70 8.636366
664.80 8.369865
664.90 8.024034
665.00 7.641243
665.10 7.296489
665.20 7.089829
665.30 7.098174
665.40 7.367548
665.50 7.854298
665.60 8.432269
665.70 8.976324
665.80 9.422924
665.90 9.738612
666.00 9.905218
666.10 9.943589
666.20 9.893882
666.30 9.7895
666.40 9.645047
666.50 9.461748
666.60 9.235182
666.70 8.985504
666.80 8.788515
666.90 8.763402
667.00 9.027141
667.10 9.633743
667.20 10.45597
667.30 11.25187
667.40 11.83211
667.50 12.08909
667.60 11.99633
667.70 11.60917
667.80 11.03685
667.90 10.40392
668.00 9.848998
668.10 9.498426
668.20 9.38431
668.30 9.442401
668.40 9.580382
668.50 9.722923
668.60 9.840553
668.70 9.956661
668.80 10.10735
668.90 10.34717
669.00 10.72872
669.10 11.23036
669.20 11.78886
669.30 12.33682
669.40 12.77919
669.50 13.01004
669.60 12.96552
669.70 12.64323
669.80 12.06997
669.90 11.28111
670.00 10.36295
670.10 9.422365
670.20 8.564717
670.30 7.859125
670.40 7.296542
670.50 6.885981
670.60 6.661774
670.70 6.618201
670.80 6.738372
670.90 7.043447
671.00 7.524197
671.10 8.083594
671.20 8.603464
671.30 9.01157
671.40 9.270235
671.50 9.385744
671.60 9.395566
671.70 9.352964
671.80 9.340131
671.90 9.403023
672.00 9.566867
672.10 9.873548
672.20 10.31703
672.30 10.79101
672.40 11.16331
672.50 11.38087
672.60 11.4551
672.70 11.38373
672.80 11.18299
672.90 10.92526
673.00 10.68786
673.10 10.49836
673.20 10.33956
673.30 10.20478
673.40 10.1058
673.50 10.04589
673.60 10.00276
673.70 9.94286
673.80 9.847487
673.90 9.749518
674.00 9.709387
674.10 9.752945
674.20 9.917072
674.30 10.25009
674.40 10.77419
674.50 11.51444
674.60 12.43949
674.70 13.41141
674.80 14.21513
674.90 14.62773
675.00 14.55283
675.10 14.04747
675.20 13.25494
675.30 12.30139
675.40 11.29369
675.50 10.40657
675.60 9.785629
675.70 9.478463
675.80 9.458628
675.90 9.589361
676.00 9.711458
676.10 9.787125
676.20 9.837873
676.30 9.87085
676.40 9.871006
676.50 9.800938
676.60 9.632335
676.70 9.380563
676.80 9.136564
676.90 9.007354
677.00 9.050387
677.10 9.268037
677.20 9.603164
677.30 10.0092
677.40 10.4752
677.50 10.99322
677.60 11.54081
677.70 12.05266
677.80 12.49963
677.90 12.92607
678.00 13.38524
678.10 13.87032
678.20 14.27766
678.30 14.49743
678.40 14.48031
678.50 14.22579
678.60 13.77454
678.70 13.18214
678.80 12.51025
678.90 11.79866
679.00 11.10262
679.10 10.52988
679.20 10.15923
679.30 10.04042
679.40 10.21737
679.50 10.64187
679.60 11.17523
679.70 11.6568
679.80 11.94756
679.90 11.98769
680.00 11.8246
680.10 11.56191
680.20 11.28442
680.30 11.02983
680.40 10.79659
680.50 10.57841
680.60 10.33738
680.70 9.997121
680.80 9.498827
680.90 8.91066
681.00 8.39855
681.10 8.092872
681.20 8.032717
681.30 8.184212
681.40 8.469827
681.50 8.822985
681.60 9.214331
681.70 9.592006
681.80 9.896192
681.90 10.07031
682.00 10.09301
682.10 9.951027
682.20 9.609117
682.30 9.0523
682.40 8.3115
682.50 7.441278
682.60 6.579044
682.70 5.925836
682.80 5.595432
682.90 5.577247
683.00 5.794161
683.10 6.184915
683.20 6.708583
683.30 7.30099
683.40 7.883226
683.50 8.430928
683.60 8.925743
683.70 9.302744
683.80 9.512054
683.90 9.621074
684.00 9.748764
684.10 9.926966
684.20 10.12982
684.30 10.32065
684.40 10.46704
684.50 10.52992
684.60 10.4711
684.70 10.30013
684.80 10.04078
684.90 9.696627
685.00 9.317775
685.10 9.007521
685.20 8.841368
685.30 8.827716
685.40 8.923505
685.50 9.097552
685.60 9.387288
685.70 9.814668
685.80 10.32046
685.90 10.80014
686.00 11.14458
686.10 11.29839
686.20 11.27871
686.30 11.12318
686.40 10.87859
686.50 10.66275
686.60 10.60739
686.70 10.73136
686.80 10.93669
686.90 11.1091
687.00 11.14504
687.10 10.96619
687.20 10.58036
687.30 10.09945
687.40 9.655866
687.50 9.291628
687.60 8.962618
687.70 8.622823
687.80 8.259103
687.90 7.835115
688.00 7.349244
688.10 6.883439
688.20 6.534349
688.30 6.334727
688.40 6.276934
688.50 6.341924
688.60 6.43983
688.70 6.399714
688.80 6.154926
688.90 5.844667
689.00 5.63129
689.10 5.607441
689.20 5.81421
689.30 6.244027
689.40 6.838302
689.50 7.465199
689.60 7.983686
689.70 8.310684
689.80 8.382917
689.90 8.227128
690.00 7.990131
690.10 7.849953
690.20 7.881354
690.30 8.014203
690.40 8.187541
690.50 8.372837
690.60 8.516383
690.70 8.551957
690.80 8.407164
690.90 8.047485
691.00 7.499857
691.10 6.83093
691.20 6.140277
691.30 5.512362
691.40 5.023047
691.50 4.734661
691.60 4.665349
691.70 4.833259
691.80 5.238794
691.90 5.856204
692.00 6.600319
692.10 7.325987
692.20 7.936929
692.30 8.429867
692.40 8.854366
692.50 9.220723
692.60 9.498694
692.70 9.653149
692.80 9.633836
692.90 9.442376
693.00 9.136868
693.10 8.773743
693.20 8.419593
693.30 8.099845
693.40 7.886079
693.50 7.895618
693.60 8.134025
693.70 8.525353
693.80 8.95816
693.90 9.356363
694.00 9.701508
694.10 10.00964
694.20 10.33583
694.30 10.76574
694.40 11.39383
694.50 12.21448
694.60 13.12606
694.70 14.05114
694.80 14.89164
694.90 15.48697
695.00 15.69605
695.10 15.4446
695.20 14.75198
695.30 13.73898
695.40 12.56256
695.50 11.36571
695.60 10.27794
695.70 9.390275
695.80 8.684886
695.90 8.113687
696.00 7.687538
696.10 7.398989
696.20 7.193499
696.30 7.070716
696.40 7.110794
696.50 7.432427
696.60 8.077002
696.70 8.930428
696.80 9.821468
696.90 10.59704
697.00 11.15636
697.10 11.43717
697.20 11.45732
697.30 11.29311
697.40 11.01317
697.50 10.70315
697.60 10.43975
697.70 10.25655
697.80 10.1396
697.90 10.00907
698.00 9.821797
698.10 9.622666
698.20 9.475246
698.30 9.421933
698.40 9.455138
698.50 9.552169
698.60 9.723346
698.70 9.99932
698.80 10.36294
698.90 10.75142
699.00 11.11321
699.10 11.42425
699.20 11.68155
699.30 11.86928
699.40 11.9169
699.50 11.7754
699.60 11.48315
699.70 11.11711
699.80 10.74585
699.90 10.42309
700.00 10.17517
700.10 9.992666
700.20 9.835936
700.30 9.668866
700.40 9.499142
700.50 9.357167
700.60 9.27358
700.70 9.262511
700.80 9.357857
700.90 9.592869
701.00 9.930891
701.10 10.328
701.20 10.78791
701.30 11.32296
701.40 11.93169
701.50 12.60199
701.60 13.31126
701.70 14.01842
701.80 14.64888
701.90 15.09667
702.00 15.24471
702.10 15.04998
702.20 14.56146
702.30 13.87524
702.40 13.15115
702.50 12.56164
702.60 12.22415
702.70 12.19479
702.80 12.4357
702.90 12.8571
703.00 13.37306
703.10 13.8642
703.20 14.21936
703.30 14.40669
703.40 14.48614
703.50 14.55262
703.60 14.6922
703.70 14.95719
703.80 15.34352
703.90 15.82111
704.00 16.29364
704.10 16.59163
704.20 16.58081
704.30 16.2302
704.40 15.61648
704.50 14.90204
704.60 14.26899
704.70 13.89802
704.80 13.90365
704.90 14.22628
705.00 14.68781
705.10 15.13415
705.20 15.47106
705.30 15.61703
705.40 15.54697
705.50 15.3105
705.60 14.97101
705.70 14.5669
705.80 14.12769
705.90 13.70101
706.00 13.36443
706.10 13.15827
706.20 13.06402
706.30 13.11465
706.40 13.35993
706.50 13.78385
706.60 14.32053
706.70 14.88356
706.80 15.3869
706.90 15.78153
707.00 16.0819
707.10 16.33544
707.20 16.58085
707.30 16.85107
707.40 17.14878
707.50 17.40979
707.60 17.55889
707.70 17.56023
707.80 17.41876
707.90 17.16189
708.00 16.81639
708.10 16.42017
708.20 16.03595
708.30 15.73506
708.40 15.55821
708.50 15.49387
708.60 15.5346
708.70 15.68217
708.80 15.86985
708.90 16.02679
709.00 16.15872
709.10 16.28448
709.20 16.37949
709.30 16.37367
709.40 16.25605
709.50 16.09733
709.60 15.95041
709.70 15.82785
709.80 15.6892
709.90 15.53476
710.00 15.39757
710.10 15.26928
710.20 15.18211
710.30 15.16907
710.40 15.18478
710.50 15.17718
710.60 15.14296
710.70 15.12144
710.80 15.11763
710.90 15.09225
711.00 15.03644
711.10 14.95358
711.20 14.90861
711.30 14.97353
711.40 15.14328
711.50 15.37517
711.60 15.60344
711.70 15.80152
711.80 16.0016
711.90 16.22419
712.00 16.46338
712.10 16.71347
712.20 16.95713
712.30 17.14469
712.40 17.21266
712.50 17.17468
712.60 17.12303
712.70 17.13936
712.80 17.27626
712.90 17.56677
713.00 17.99664
713.10 18.47566
713.20 18.83324
713.30 18.91497
713.40 18.66609
713.50 18.11471
713.60 17.36343
713.70 16.56967
713.80 15.9134
713.90 15.51648
714.00 15.36523
714.10 15.36034
714.20 15.45834
714.30 15.69244
714.40 16.10249
714.50 16.69418
714.60 17.45836
714.70 18.32159
714.80 19.13085
714.90 19.74577
715.00 20.03594
715.10 19.89613
715.20 19.28538
715.30 18.26843
715.40 17.05119
715.50 15.90805
715.60 15.03304
715.70 14.51501
715.80 14.35804
715.90 14.49434
716.00 14.81991
716.10 15.22671
716.20 15.62306
716.30 15.91509
716.40 16.0638
716.50 16.121
716.60 16.17919
716.70 16.30929
716.80 16.52015
716.90 16.79738
717.00 17.11181
717.10 17.36907
717.20 17.45333
717.30 17.33287
717.40 17.06194
717.50 16.71706
717.60 16.4074
717.70 16.23468
717.80 16.25209
717.90 16.47625
718.00 16.8922
718.10 17.45129
718.20 18.04977
718.30 18.55379
718.40 18.87096
718.50 18.98631
718.60 18.9625
718.70 18.87779
718.80 18.80774
718.90 18.84858
719.00 19.01747
719.10 19.28136
719.20 19.6147
719.30 19.94236
719.40 20.15471
719.50 20.14369
719.60 19.85999
719.70 19.34488
719.80 18.67215
719.90 17.91023
720.00 17.15739
720.10 16.53338
720.20 16.09725
720.30 15.84789
720.40 15.79047
720.50 15.93386
720.60 16.24484
720.70 16.6746
720.80 17.17471
720.90 17.69109
721.00 18.17866
721.10 18.5756
721.20 18.81956
721.30 18.91051
721.40 18.83772
721.50 18.55835
721.60 18.0859
721.70 17.51682
721.80 17.0023
721.90 16.69174
722.00 16.67894
722.10 16.99018
722.20 17.60106
722.30 18.46466
722.40 19.48172
722.50 20.48593
722.60 21.30349
722.70 21.77788
722.80 21.85787
722.90 21.61402
723.00 21.1868
723.10 20.71181
723.20 20.26442
723.30 19.90168
723.40 19.6999
723.50 19.71297
723.60 19.91814
723.70 20.20141
723.80 20.43157
723.90 20.54193
724.00 20.49636
724.10 20.29838
724.20 20.00385
724.30 19.74251
724.40 19.66045
724.50 19.86365
724.60 20.40708
724.70 21.20003
724.80 22.06671
724.90 22.84763
725.00 23.44408
725.10 23.83514
725.20 24.04068
725.30 24.09823
725.40 24.07281
725.50 24.02282
725.60 23.94174
725.70 23.72637
725.80 23.27696
725.90 22.59588
726.00 21.78487
726.10 21.02922
726.20 20.48681
726.30 20.23721
726.40 20.27703
726.50 20.5329
726.60 20.91084
726.70 21.29838
726.80 21.59738
726.90 21.78173
727.00 21.96913
727.10 22.38815
727.20 23.14398
727.30 24.06068
727.40 24.81524
727.50 25.21242
727.60 25.21406
727.70 24.82671
727.80 24.13333
727.90 23.2903
728.00 22.46363
728.10 21.83113
728.20 21.55016
728.30 21.69401
728.40 22.19698
728.50 22.84519
728.60 23.43378
728.70 23.93178
728.80 24.39006
728.90 24.74689
729.00 24.89168
729.10 24.79924
729.20 24.49137
729.30 24.00915
729.40 23.43149
729.50 22.83929
729.60 22.28637
729.70 21.8083
729.80 21.40157
729.90 21.0618
730.00 20.84729
730.10 20.8258
730.20 20.99761
730.30 21.32823
730.40 21.72506
730.50 22.08947
730.60 22.38846
730.70 22.5672
730.80 22.57922
730.90 22.42559
731.00 22.21554
731.10 22.1217
731.20 22.25326
731.30 22.64218
731.40 23.21121
731.50 23.78603
731.60 24.20838
731.70 24.39279
731.80 24.36616
731.90 24.21499
732.00 24.0143
732.10 23.88854
732.20 23.91753
732.30 24.11043
732.40 24.40753
732.50 24.68546
732.60 24.85721
732.70 24.93456
732.80 24.98052
732.90 25.00058
733.00 24.96386
733.10 24.82836
733.20 24.57549
733.30 24.23326
733.40 23.81866
733.50 23.32701
733.60 22.75566
733.70 22.11134
733.80 21.40276
733.90 20.71915
734.00 20.22792
734.10 19.99736
734.20 20.01215
734.30 20.30454
734.40 20.90336
734.50 21.78383
734.60 22.81953
734.70 23.78157
734.80 24.48148
734.90 24.83168
735.00 24.86341
735.10 24.70462
735.20 24.48226
735.30 24.21603
735.40 23.88995
735.50 23.54577
735.60 23.23053
735.70 22.97575
735.80 22.83243
735.90 22.86165
736.00 23.1283
736.10 23.6828
736.20 24.47626
736.30 25.33767
736.40 26.04858
736.50 26.40287
736.60 26.2543
736.70 25.56385
736.80 24.42982
736.90 23.08217
737.00 21.80911
737.10 20.88404
737.20 20.48263
737.30 20.60264
737.40 21.09083
737.50 21.73675
737.60 22.39758
737.70 23.03902
737.80 23.65409
737.90 24.20387
738.00 24.63192
738.10 24.92804
738.20 25.07748
738.30 25.05934
738.40 24.89448
738.50 24.61043
738.60 24.24171
738.70 23.87308
738.80 23.60451
738.90 23.46104
739.00 23.34592
739.10 23.15152
739.20 22.88766
739.30 22.62801
739.40 22.44296
739.50 22.3824
739.60 22.44317
739.70 22.53387
739.80 22.45615
739.90 22.04541
740.00 21.35648
740.10 20.56316
740.20 19.78988
740.30 19.16074
740.40 18.83681
740.50 18.90449
740.60 19.28008
740.70 19.81882
740.80 20.42174
740.90 20.98651
741.00 21.42603
741.10 21.71807
741.20 21.96437
741.30 22.31475
741.40 22.7883
741.50 23.26781
741.60 23.60796
741.70 23.69021
741.80 23.43176
741.90 22.79275
742.00 21.83
742.10 20.68571
742.20 19.53691
742.30 18.57119
742.40 17.9354
742.50 17.71203
742.60 17.90954
742.70 18.45027
742.80 19.16734
742.90 19.88205
743.00 20.49016
743.10 20.94363
743.20 21.2281
743.30 21.38315
743.40 21.47144
743.50 21.54993
743.60 21.66749
743.70 21.859
743.80 22.1331
743.90 22.45801
744.00 22.77912
744.10 23.04394
744.20 23.19731
744.30 23.18993
744.40 23.03391
744.50 22.78636
744.60 22.53859
744.70 22.38416
744.80 22.33657
744.90 22.34709
745.00 22.33924
745.10 22.28217
745.20 22.2135
745.30 22.17162
745.40 22.17077
745.50 22.20499
745.60 22.27224
745.70 22.3907
745.80 22.56744
745.90 22.77461
746.00 22.9041
746.10 22.8603
746.20 22.72272
746.30 22.65358
746.40 22.76648
746.50 23.04502
746.60 23.35529
746.70 23.56894
746.80 23.60742
746.90 23.44111
747.00 23.06668
747.10 22.53527
747.20 21.94342
747.30 21.3903
747.40 21.02255
747.50 20.94118
747.60 21.08091
747.70 21.29786
747.80 21.48343
747.90 21.61616
748.00 21.73824
748.10 21.86922
748.20 22.00353
748.30 22.15064
748.40 22.33659
748.50 22.56718
748.60 22.81076
748.70 23.01742
748.80 23.10571
748.90 23.0166
749.00 22.782
749.10 22.47285
749.20 22.14147
749.30 21.79459
749.40 21.4137
749.50 21.0065
749.60 20.60642
749.70 20.23352
749.80 19.89915
749.90 19.63453
750.00 19.49555
750.10 19.5306
750.20 19.74949
750.30 20.1263
750.40 20.58451
750.50 21.03786
750.60 21.44073
750.70 21.78275
750.80 22.09258
750.90 22.39655
751.00 22.67446
751.10 22.89963
751.20 23.08524
751.30 23.26541
751.40 23.43121
751.50 23.5448
751.60 23.56871
751.70 23.4259
751.80 23.06548
751.90 22.53265
752.00 21.93837
752.10 21.40849
752.20 21.13772
752.30 21.25574
752.40 21.71695
752.50 22.40151
752.60 23.13876
752.70 23.73325
752.80 24.02979
752.90 23.95866
753.00 23.5404
753.10 22.90289
753.20 22.19978
753.30 21.52346
753.40 20.91525
753.50 20.40479
753.60 19.89769
753.70 19.32834
753.80 18.8078
753.90 18.4534
754.00 18.32349
754.10 18.41446
754.20 18.67352
754.30 19.02552
754.40 19.41349
754.50 19.79266
754.60 20.11865
754.70 20.36381
754.80 20.50953
754.90 20.53967
755.00 20.46262
755.10 20.28846
755.20 19.95552
755.30 19.42324
755.40 18.77395
755.50 18.13296
755.60 17.62084
755.70 17.32564
755.80 17.2817
755.90 17.48473
756.00 17.87096
756.10 18.31082
756.20 18.66478
756.30 18.83298
756.40 18.76863
756.50 18.4811
756.60 18.08721
756.70 17.74257
756.80 17.54798
756.90 17.59296
757.00 17.92614
757.10 18.52142
757.20 19.29957
757.30 20.14443
757.40 20.93774
757.50 21.57625
757.60 21.98618
757.70 22.13154
757.80 22.00439
757.90 21.6304
758.00 21.05602
758.10 20.35257
758.20 19.6153
758.30 18.91115
758.40 18.29488
758.50 17.81473
758.60 17.48561
758.70 17.29426
758.80 17.21309
758.90 17.21667
759.00 17.24077
759.10 17.20433
759.20 17.06357
759.30 16.81411
759.40 16.60036
759.50 16.66891
759.60 17.20988
759.70 18.26111
759.80 19.64142
759.90 21.05154
760.00 22.27052
760.10 23.07493
760.20 23.19224
760.30 22.51299
760.40 21.08445
760.50 19.09421
760.60 16.94559
760.70 15.12183
760.80 13.9024
760.90 13.33073
761.00 13.31046
761.10 13.69974
761.20 14.34753
761.30 15.03853
761.40 15.46507
761.50 15.43562
761.60 14.99028
761.70 14.22521
761.80 13.31978
761.90 12.48538
762.00 11.78725
762.10 11.22116
762.20 10.80185
762.30 10.52038
762.40 10.35466
762.50 10.34103
762.60 10.61915
762.70 11.32842
762.80 12.41155
762.90 13.5631
763.00 14.3853
763.10 14.55597
763.20 13.93143
763.30 12.57776
763.40 10.74875
763.50 8.800855
763.60 7.094969
763.70 5.981024
763.80 5.729853
763.90 6.305474
764.00 7.350839
764.10 8.420576
764.20 9.166289
764.30 9.484711
764.40 9.412627
764.50 9.002809
764.60 8.391435
764.70 7.771555
764.80 7.338893
764.90 7.250627
765.00 7.590659
765.10 8.276145
765.20 9.013407
765.30 9.504573
765.40 9.555943
765.50 9.107127
765.60 8.273774
765.70 7.205309
765.80 6.080588
765.90 5.146013
766.00 4.586286
766.10 4.474033
766.20 4.726401
766.30 5.164569
766.40 5.58244
766.50 5.787882
766.60 5.710256
766.70 5.404254
766.80 4.99877
766.90 4.61904
767.00 4.302901
767.10 4.023089
767.20 3.767788
767.30 3.554465
767.40 3.376612
767.50 3.192727
767.60 3.020112
767.70 2.911333
767.80 2.893341
767.90 2.989228
768.00 3.18951
768.10 3.458325
768.20 3.746301
768.30 3.992198
768.40 4.169096
768.50 4.304093
768.60 4.421378
768.70 4.501581
768.80 4.515731
768.90 4.447477
769.00 4.264501
769.10 3.923128
769.20 3.41381
769.30 2.761443
769.40 2.016008
769.50 1.241089
769.60 0.531721
769.70 0
769.80 0
769.90 0
770.00 0
770.10 0
770.20 0.3096099
770.30 0.8872354
770.40 1.517471
770.50 2.127552
770.60 2.65925
770.70 3.088239
770.80 3.383273
770.90 3.502897
771.00 3.456675
771.10 3.38064
771.20 3.519682
771.30 3.9451
771.40 4.536706
771.50 5.208281
771.60 5.946567
771.70 6.812635
771.80 7.833691
771.90 8.924752
772.00 9.927858
772.10 10.70954
772.20 11.27755
772.30 11.73592
772.40 12.12135
772.50 12.35315
772.60 12.28206
772.70 11.9056
772.80 11.36635
772.90 10.81915
773.00 10.37652
773.10 10.00398
773.20 9.639049
773.30 9.3416
773.40 9.249817
773.50 9.480954
773.60 10.01774
773.70 10.70063
773.80 11.38965
773.90 11.99709
774.00 12.48817
774.10 12.89664
774.20 13.26114
774.30 13.56241
774.40 13.76701
774.50 13.85558
774.60 13.80615
774.70 13.61971
774.80 13.31606
774.90 12.91117
775.00 12.45141
775.10 12.05568
775.20 11.81971
775.30 11.68464
775.40 11.5508
775.50 11.40212
775.60 11.29637
775.70 11.34499
775.80 11.59322
775.90 12.04898
776.00 12.72366
776.10 13.55908
776.20 14.40729
776.30 15.11236
776.40 15.55692
776.50 15.64205
776.60 15.34747
776.70 14.89246
776.80 14.54176
776.90 14.41808
777.00 14.56595
777.10 14.88437
777.20 15.24924
777.30 15.62272
777.40 15.93693
777.50 16.09815
777.60 16.12511
777.70 16.10005
777.80 16.09934
777.90 16.17349
778.00 16.30056
778.10 16.40511
778.20 16.44691
778.30 16.42342
778.40 16.32847
778.50 16.19785
778.60 16.06655
778.70 15.96354
778.80 16.01854
778.90 16.33585
779.00 16.85477
779.10 17.44234
779.20 18.00709
779.30 18.47609
779.40 18.74107
779.50 18.66465
779.60 18.12117
779.70 17.06312
779.80 15.57069
779.90 13.9259
780.00 12.5371
780.10 11.68194
780.20 11.40358
780.30 11.67447
780.40 12.40189
780.50 13.39958
780.60 14.46225
780.70 15.44139
780.80 16.35638
780.90 17.31365
781.00 18.3703
781.10 19.53645
781.20 20.76535
781.30 21.90665
781.40 22.7847
781.50 23.28827
781.60 23.38165
781.70 23.02946
781.80 22.30237
781.90 21.47977
782.00 20.86472
782.10 20.6179
782.20 20.76055
782.30 21.27815
782.40 22.10655
782.50 23.10143
782.60 24.09267
782.70 24.8852
782.80 25.28104
782.90 25.18774
783.00 24.69697
783.10 24.04406
783.20 23.4317
783.30 22.85162
783.40 22.20753
783.50 21.55642
783.60 21.0056
783.70 20.55313
783.80 20.17706
783.90 19.94052
784.00 19.92358
784.10 20.13535
784.20 20.54445
784.30 21.09972
784.40 21.69252
784.50 22.21831
784.60 22.69799
784.70 23.17866
784.80 23.58219
784.90 23.7624
785.00 23.65726
785.10 23.29553
785.20 22.73853
785.30 22.0827
785.40 21.46635
785.50 20.96435
785.60 20.51878
785.70 20.13925
785.80 19.95186
785.90 20.04014
786.00 20.39094
786.10 21.00612
786.20 21.92382
786.30 23.09785
786.40 24.38508
786.50 25.60841
786.60 26.56653
786.70 27.0339
786.80 26.88672
786.90 26.26782
787.00 25.52404
787.10 24.91731
787.20 24.48487
787.30 24.16919
787.40 23.91181
787.50 23.67451
787.60 23.50074
787.70 23.49799
787.80 23.75563
787.90 24.328
788.00 25.22125
788.10 26.28763
788.20 27.27531
788.30 27.99586
788.40 28.37549
788.50 28.37887
788.60 28.01004
788.70 27.35998
788.80 26.63512
788.90 26.071
789.00 25.76831
789.10 25.72108
789.20 25.85802
789.30 26.0299
789.40 26.1296
789.50 26.20981
789.60 26.36492
789.70 26.62829
789.80 26.94907
789.90 27.22936
790.00 27.48907
790.10 27.85081
790.20 28.33298
790.30 28.8511
790.40 29.30961
790.50 29.59696
790.60 29.63392
790.70 29.44541
790.80 29.18926
790.90 29.03122
791.00 29.04808
791.10 29.17918
791.20 29.22549
791.30 29.08308
791.40 28.74334
791.50 28.23249
791.60 27.63791
791.70 27.02513
791.80 26.49969
791.90 26.24043
792.00 26.37525
792.10 26.93905
792.20 27.79263
792.30 28.70058
792.40 29.4806
792.50 30.03564
792.60 30.43194
792.70 30.77647
792.80 31.1415
792.90 31.54682
793.00 31.9385
793.10 32.30473
793.20 32.6451
793.30 32.88658
793.40 32.9538
793.50 32.79132
793.60 32.40174
793.70 31.87507
793.80 31.34835
793.90 30.96097
794.00 30.73954
794.10 30.58106
794.20 30.30678
794.30 29.70385
794.40 28.61703
794.50 26.98998
794.60 24.90455
794.70 22.5896
794.80 20.38548
794.90 18.67208
795.00 17.81003
795.10 17.99669
795.20 19.09197
795.30 20.80083
795.40 22.90281
795.50 25.15358
795.60 27.27643
795.70 29.13371
795.80 30.72082
795.90 32.06348
796.00 33.18686
796.10 34.1567
796.20 34.98056
796.30 35.53911
796.40 35.68267
796.50 35.38124
796.60 34.79189
796.70 34.09142
796.80 33.3788
796.90 32.76889
797.00 32.39843
797.10 32.31208
797.20 32.45386
797.30 32.75259
797.40 33.13542
797.50 33.47708
797.60 33.6723
797.70 33.78358
797.80 33.92845
797.90 34.09833
798.00 34.2368
798.10 34.33418
798.20 34.38472
798.30 34.34576
798.40 34.20651
798.50 34.02453
798.60 33.88185
798.70 33.85228
798.80 34.00253
798.90 34.43881
799.00 35.26878
799.10 36.48114
799.20 37.93472
799.30 39.48153
799.40 41.01215
799.50 42.38407
799.60 43.35632
799.70 43.77319
799.80 43.68669
799.90 43.22431
800.00 42.52758
800.10 41.79617
800.20 41.2525
800.30 40.98988
800.40 40.96753
800.50 41.10284
800.60 41.30381
800.70 41.44831
800.80 41.40187
800.90 41.07793
801.00 40.53623
801.10 39.90301
801.20 39.22634
801.30 38.52324
801.40 37.85129
801.50 37.2805
801.60 36.84816
801.70 36.57137
801.80 36.50145
801.90 36.67085
802.00 37.01541
802.10 37.44944
802.20 37.86939
802.30 38.21171
802.40 38.54221
802.50 38.97216
802.60 39.55694
802.70 40.29401
802.80 41.15096
802.90 42.06419
803.00 42.93923
803.10 43.63876
803.20 43.9902
803.30 43.88939
803.40 43.34902
803.50 42.45308
803.60 41.41474
803.70 40.49117
803.80 39.84348
803.90 39.56403
804.00 39.69848
804.10 40.24558
804.20 41.11444
804.30 42.12467
804.40 43.07822
804.50 43.88009
804.60 44.5341
804.70 44.98311
804.80 45.20097
804.90 45.20969
805.00 44.96828
805.10 44.5065
805.20 43.97331
805.30 43.53723
805.40 43.29751
805.50 43.27822
805.60 43.4899
805.70 44.04059
805.80 45.00157
805.90 46.16555
806.00 47.25477
806.10 48.13735
806.20 48.72296
806.30 49.01844
806.40 49.12205
806.50 49.05152
806.60 48.7847
806.70 48.35233
806.80 47.85698
806.90 47.44677
807.00 47.2562
807.10 47.26677
807.20 47.41497
807.30 47.81891
807.40 48.55571
807.50 49.5688
807.60 50.76273
807.70 51.94271
807.80 52.88347
807.90 53.46782
808.00 53.69543
808.10 53.6523
808.20 53.47987
808.30 53.27532
808.40 53.08551
808.50 52.94987
808.60 52.86111
808.70 52.73963
808.80 52.50789
808.90 52.14022
809.00 51.66717
809.10 51.191
809.20 50.81837
809.30 50.59952
809.40 50.51563
809.50 50.43276
809.60 50.20506
809.70 49.81044
809.80 49.33836
809.90 48.88975
810.00 48.55545
810.10 48.42861
810.20 48.56926
810.30 48.97046
810.40 49.57658
810.50 50.34466
810.60 51.23175
810.70 52.16861
810.80 53.03226
810.90 53.71249
811.00 54.16099
811.10 54.37846
811.20 54.35262
811.30 54.08547
811.40 53.60013
811.50 52.93554
811.60 52.19871
811.70 51.54274
811.80 51.12341
811.90 51.01271
812.00 51.23645
812.10 51.75458
812.20 52.50414
812.30 53.45875
812.40 54.5461
812.50 55.63143
812.60 56.55642
812.70 57.14726
812.80 57.27211
812.90 56.94239
813.00 56.3073
813.10 55.57813
813.20 54.95943
813.30 54.61803
813.40 54.63719
813.50 55.03802
813.60 55.73779
813.70 56.52689
813.80 57.16778
813.90 57.50598
814.00 57.53279
814.10 57.34089
814.20 57.11798
814.30 57.06058
814.40 57.23157
814.50 57.56526
814.60 57.9225
814.70 58.11007
814.80 57.9765
814.90 57.49138
815.00 56.76136
815.10 55.98998
815.20 55.34712
815.30 54.98713
815.40 55.07727
815.50 55.72623
815.60 56.89093
815.70 58.33846
815.80 59.74897
815.90 60.87507
816.00 61.63051
816.10 62.02308
816.20 62.06129
816.30 61.8313
816.40 61.52666
816.50 61.35955
816.60 61.53998
816.70 62.11669
816.80 62.91285
816.90 63.64396
817.00 64.08214
817.10 64.19906
817.20 64.07796
817.30 63.71962
817.40 63.01621
817.50 61.97423
817.60 60.77223
817.70 59.5353
817.80 58.22307
817.90 56.69037
818.00 54.82388
818.10 52.66857
818.20 50.48143
818.30 48.69399
818.40 47.71737
818.50 47.73656
818.60 48.71308
818.70 50.48581
818.80 52.75336
818.90 55.03354
819.00 56.75115
819.10 57.37285
819.20 56.58495
819.30 54.49442
819.40 51.63875
819.50 48.74151
819.60 46.42983
819.70 45.10142
819.80 44.9122
819.90 45.77486
820.00 47.43228
820.10 49.58568
820.20 51.93358
820.30 54.18654
820.40 56.15956
820.50 57.87311
820.60 59.43831
820.70 60.8354
820.80 61.91233
820.90 62.55929
821.00 62.75806
821.10 62.57296
821.20 62.14291
821.30 61.6709
821.40 61.37905
821.50 61.38577
821.60 61.71008
821.70 62.32855
821.80 63.13512
821.90 63.9109
822.00 64.44844
822.10 64.71269
822.20 64.80036
822.30 64.83146
822.40 64.94977
822.50 65.31497
822.60 66.05049
822.70 67.16857
822.80 68.5064
822.90 69.8039
823.00 70.83459
823.10 71.43981
823.20 71.56078
823.30 71.27146
823.40 70.7661
823.50 70.28081
823.60 69.98947
823.70 69.96036
823.80 70.16844
823.90 70.49242
824.00 70.75043
824.10 70.81161
824.20 70.67177
824.30 70.42615
824.40 70.15686
824.50 69.99886
824.60 70.07441
824.70 70.3972
824.80 70.93146
824.90 71.56373
825.00 72.09511
825.10 72.24246
825.20 71.82668
825.30 70.90045
825.40 69.61675
825.50 68.18506
825.60 66.84705
825.70 65.8321
825.80 65.39586
825.90 65.6458
826.00 66.50905
826.10 67.80392
826.20 69.21408
826.30 70.37742
826.40 70.99061
826.50 70.94687
826.60 70.26966
826.70 69.07473
826.80 67.66837
826.90 66.43876
827.00 65.72637
827.10 65.6239
827.20 65.92995
827.30 66.51296
827.40 67.38945
827.50 68.46506
827.60 69.58374
827.70 70.74477
827.80 72.05184
827.90 73.48461
828.00 74.89751
828.10 76.1213
828.20 76.99207
828.30 77.36787
828.40 77.19225
828.50 76.61913
828.60 75.87705
828.70 74.95103
828.80 73.79186
828.90 72.60957
829.00 71.60427
829.10 70.72012
829.20 69.72656
829.30 68.52784
829.40 67.28007
829.50 66.17136
829.60 65.0914
829.70 63.79137
829.80 62.2968
829.90 60.87217
830.00 59.8525
830.10 59.5227
830.20 59.92943
830.30 60.88506
830.40 62.13734
830.50 63.50975
830.60 65.02661
830.70 66.74832
830.80 68.5332
830.90 70.10698
831.00 71.4791
831.10 72.88837
831.20 74.35746
831.30 75.68339
831.40 76.6251
831.50 77.09152
831.60 77.11589
831.70 76.76198
831.80 76.14038
831.90 75.29987
832.00 74.17385
832.10 72.76582
832.20 71.2012
832.30 69.65999
832.40 68.30696
832.50 67.26721
832.60 66.57928
832.70 66.21486
832.80 66.15683
832.90 66.33687
833.00 66.64169
833.10 66.95673
833.20 67.19699
833.30 67.35113
833.40 67.50387
833.50 67.73242
833.60 67.98478
833.70 68.18538
833.80 68.44707
833.90 68.98249
834.00 69.94145
834.10 71.37202
834.20 73.15217
834.30 74.99158
834.40 76.54221
834.50 77.56483
834.60 78.066
834.70 78.11224
834.80 77.49068
834.90 75.96379
835.00 73.76659
835.10 71.51541
835.20 69.74012
835.30 68.71263
835.40 68.49371
835.50 68.98483
835.60 70.04083
835.70 71.48149
835.80 73.09057
835.90 74.60214
836.00 75.70378
836.10 76.27989
836.20 76.64096
836.30 77.22248
836.40 78.15805
836.50 79.29234
836.60 80.33534
836.70 81.02462
836.80 81.20358
836.90 80.84252
837.00 80.03671
837.10 78.99402
837.20 77.93268
837.30 77.05167
837.40 76.49569
837.50 76.2255
837.60 76.07609
837.70 75.84778
837.80 75.41691
837.90 74.74545
838.00 73.88378
838.10 72.94529
838.20 72.07079
838.30 71.35556
838.40 70.8942
838.50 70.86472
838.60 71.39164
838.70 72.37767
838.80 73.57667
838.90 74.78506
839.00 75.83013
839.10 76.56395
839.20 76.92274
839.30 76.93266
839.40 76.62601
839.50 76.08427
839.60 75.60418
839.70 75.59279
839.80 76.20633
839.90 77.2671
840.00 78.5529
840.10 79.93097
840.20 81.29343
840.30 82.50689
840.40 83.41119
840.50 83.85904
840.60 83.71351
840.70 82.95698
840.80 81.85474
840.90 80.73827
841.00 79.76137
841.10 78.98853
841.20 78.51069
841.30 78.35609
841.40 78.36414
841.50 78.4061
841.60 78.46899
841.70 78.48656
841.80 78.34523
841.90 78.03907
842.00 77.76567
842.10 77.81784
842.20 78.38997
842.30 79.6451
842.40 81.65911
842.50 84.22376
842.60 86.97812
842.70 89.47002
842.80 91.30172
842.90 92.16769
843.00 91.77346
843.10 90.1162
843.20 87.5761
843.30 84.71978
843.40 82.0871
843.50 79.98125
843.60 78.43782
843.70 77.26525
843.80 76.21443
843.90 75.20241
844.00 74.24018
844.10 73.46637
844.20 73.08254
844.30 73.18776
844.40 73.77799
844.50 74.67149
844.60 75.67457
844.70 76.66125
844.80 77.44361
844.90 77.84603
845.00 77.73818
845.10 77.08864
845.20 76.01285
845.30 74.6586
845.40 73.13003
845.50 71.46419
845.60 69.72537
845.70 68.11931
845.80 66.94196
845.90 66.43029
846.00 66.62924
846.10 67.38842
846.20 68.53631
846.30 69.92931
846.40 71.40839
846.50 72.79207
846.60 73.82639
846.70 74.25804
846.80 74.02591
846.90 73.27717
847.00 72.17416
847.10 70.73705
847.20 69.00616
847.30 67.20398
847.40 65.61245
847.50 64.42222
847.60 63.62297
847.70 63.04308
847.80 62.49073
847.90 61.8522
848.00 61.16645
848.10 60.56484
848.20 60.15895
848.30 60.02591
848.40 60.20799
848.50 60.69549
848.60 61.34044
848.70 61.91376
848.80 62.2413
848.90 62.21554
849.00 61.83909
849.10 61.33853
849.20 61.09835
849.30 61.29057
849.40 61.80159
849.50 62.51796
849.60 63.37084
849.70 64.30031
849.80 65.26024
849.90 66.31648
850.00 67.67644
850.10 69.39817
850.20 71.23792
850.30 72.87708
850.40 74.09204
850.50 74.66819
850.60 74.43774
850.70 73.48285
850.80 72.08611
850.90 70.59811
851.00 69.37488
851.10 68.63331
851.20 68.45492
851.30 68.76449
851.40 69.24606
851.50 69.49138
851.60 69.13873
851.70 67.88645
851.80 65.55834
851.90 62.23443
852.00 58.24919
852.10 54.09958
852.20 50.46404
852.30 48.09784
852.40 47.52428
852.50 48.79379
852.60 51.53656
852.70 55.12524
852.80 58.86857
852.90 62.25077
853.00 64.96315
853.10 66.83201
853.20 67.90086
853.30 68.4265
853.40 68.71606
853.50 69.04489
853.60 69.51956
853.70 69.95652
853.80 70.09215
853.90 69.88806
854.00 69.47777
854.10 69.00114
854.20 68.6307
854.30 68.55566
854.40 68.90559
854.50 69.83805
854.60 71.50789
854.70 73.88779
854.80 76.74707
854.90 79.69968
855.00 82.2386
855.10 83.83497
855.20 84.12677
855.30 83.04743
855.40 80.84559
855.50 77.98225
855.60 74.93325
855.70 72.06671
855.80 69.76213
855.90 68.33834
856.00 67.82079
856.10 68.02107
856.20 68.73344
856.30 69.76436
856.40 70.86761
856.50 71.77415
856.60 72.25259
856.70 72.16245
856.80 71.54633
856.90 70.64414
857.00 69.7992
857.10 69.37144
857.20 69.53123
857.30 70.21887
857.40 71.32472
857.50 72.64117
857.60 73.83236
857.70 74.63294
857.80 75.02833
857.90 75.17373
858.00 75.24719
858.10 75.43775
858.20 75.87207
858.30 76.54683
858.40 77.3416
858.50 78.02812
858.60 78.34385
858.70 78.12709
858.80 77.36465
858.90 76.20035
859.00 74.88093
859.10 73.73348
859.20 73.14448
859.30 73.46769
859.40 74.92022
859.50 77.47536
859.60 80.61027
859.70 83.52896
859.80 85.69724
859.90 86.82149
860.00 86.79868
860.10 85.76328
860.20 84.06494
860.30 82.16048
860.40 80.47127
860.50 79.221
860.60 78.34906
860.70 77.61134
860.80 76.6929
860.90 75.28989
861.00 73.36026
861.10 71.02898
861.20 68.23503
861.30 64.96564
861.40 61.51593
861.50 58.33926
861.60 55.82327
861.70 54.09679
861.80 52.99901
861.90 52.29115
862.00 51.76872
862.10 51.26708
862.20 50.70542
862.30 50.09611
862.40 49.54937
862.50 49.1972
862.60 49.14199
862.70 49.43303
862.80 49.93843
862.90 50.4477
863.00 50.78471
863.10 50.90526
863.20 50.98
863.30 51.13565
863.40 51.34991
863.50 51.572
863.60 51.75511
863.70 51.78881
863.80 51.54016
863.90 51.0878
864.00 50.76286
864.10 50.78897
864.20 51.1462
864.30 51.68713
864.40 52.24015
864.50 52.67572
864.60 52.91253
864.70 53.06141
864.80 53.4035
864.90 54.19063
865.00 55.53005
865.10 57.39224
865.20 59.58282
865.30 61.46581
865.40 62.24797
865.50 61.63956
865.60 60.08513
865.70 58.35171
865.80 57.05429
865.90 56.61381
866.00 57.28497
866.10 59.08858
866.20 61.70427
866.30 64.5894
866.40 67.13001
866.50 68.81512
866.60 69.43282
866.70 69.28095
866.80 68.83118
866.90 68.2333
867.00 67.2612
867.10 65.77685
867.20 64.09475
867.30 62.64181
867.40 61.6717
867.50 61.31454
867.60 61.65699
867.70 62.57922
867.80 63.7986
867.90 64.98738
868.00 65.81518
868.10 66.04274
868.20 65.64516
868.30 64.8864
868.40 64.20644
868.50 63.86127
868.60 63.69439
868.70 63.39549
868.80 62.67275
868.90 61.22703
869.00 58.86741
869.10 55.71558
869.20 52.16032
869.30 48.77591
869.40 46.16872
869.50 44.7105
869.60 44.48059
869.70 45.36206
869.80 47.0954
869.90 49.26126
870.00 51.34614
870.10 52.92014
870.20 53.75687
870.30 53.77407
870.40 52.9968
870.50 51.57622
870.60 49.7648
870.70 47.74159
870.80 45.55868
870.90 43.33758
871.00 41.31432
871.10 39.7929
871.20 39.05825
871.30 39.2012
871.40 40.08511
871.50 41.47266
871.60 43.12092
871.70 44.72951
871.80 45.96789
871.90 46.63364
872.00 46.72677
872.10 46.37752
872.20 45.82897
872.30 45.45058
872.40 45.60593
872.50 46.38872
872.60 47.57063
872.70 48.87748
872.80 50.14184
872.90 51.19186
873.00 51.8702
873.10 52.18104
873.20 52.21681
873.30 52.06946
873.40 51.83197
873.50 51.66865
873.60 51.75715
873.70 52.13818
873.80 52.75104
873.90 53.62332
874.00 54.84302
874.10 56.28171
874.20 57.543
874.30 58.28097
874.40 58.36744
874.50 57.75486
874.60 56.58004
874.70 55.14663
874.80 53.73371
874.90 52.58429
875.00 51.9005
875.10 51.73511
875.20 51.90246
875.30 52.15226
875.40 52.36672
875.50 52.60612
875.60 53.06034
875.70 53.74338
875.80 54.39649
875.90 54.83723
876.00 55.07243
876.10 55.12536
876.20 54.98552
876.30 54.72463
876.40 54.53897
876.50 54.77178
876.60 55.81264
876.70 57.80887
876.80 60.63249
876.90 64.04535
877.00 67.72637
877.10 71.40013
877.20 74.78589
877.30 77.56811
877.40 79.56368
877.50 80.64954
877.60 80.55743
877.70 79.10307
877.80 76.45741
877.90 72.98948
878.00 69.20311
878.10 65.6266
878.20 62.62609
878.30 60.3544
878.40 58.85959
878.50 58.126
878.60 58.24297
878.70 59.3156
878.80 61.12427
878.90 63.25678
879.00 65.48885
879.10 67.66618
879.20 69.60916
879.30 71.11536
879.40 71.90819
879.50 71.80853
879.60 70.77704
879.70 68.98267
879.80 66.77807
879.90 64.54978
880.00 62.57362
880.10 60.96545
880.20 59.78232
880.30 59.14337
880.40 59.21513
880.50 59.96676
880.60 60.95809
880.70 61.69401
880.80 62.0332
880.90 62.16902
881.00 62.46229
881.10 63.21689
881.20 64.6248
881.30 66.79085
881.40 69.64476
881.50 72.99582
881.60 76.57153
881.70 79.99019
881.80 82.85294
881.90 84.7452
882.00 85.57491
882.10 85.63371
882.20 85.17923
882.30 84.26062
882.40 82.81326
882.50 80.86021
882.60 78.68868
882.70 76.87918
882.80 75.91858
882.90 75.87427
883.00 76.53454
883.10 77.58372
883.20 78.65413
883.30 79.64651
883.40 80.52145
883.50 81.11507
883.60 81.37376
883.70 81.41272
883.80 81.56432
883.90 82.13873
884.00 82.98499
884.10 83.40206
884.20 82.72786
884.30 80.81997
884.40 77.89589
884.50 74.40904
884.60 71.00226
884.70 68.38697
884.80 67.18681
884.90 67.67044
885.00 69.73611
885.10 73.03648
885.20 76.91814
885.30 80.52283
885.40 83.10215
885.50 84.29931
885.60 84.12445
885.70 82.69823
885.80 80.32221
885.90 77.62744
886.00 75.40991
886.10 74.16463
886.20 73.96744
886.30 74.73548
886.40 76.21606
886.50 77.89725
886.60 79.13481
886.70 79.35522
886.80 78.26517
886.90 75.91351
887.00 72.67366
887.10 69.25116
887.20 66.46933
887.30 64.91465
887.40 64.8322
887.50 66.2531
887.60 69.02315
887.70 72.72783
887.80 76.71515
887.90 80.37388
888.00 83.50687
888.10 86.06791
888.20 87.96989
888.30 89.15393
888.40 89.5859
888.50 89.4498
888.60 89.17525
888.70 89.16661
888.80 89.48848
888.90 89.88119
889.00 89.97306
889.10 89.40836
889.20 87.88819
889.30 85.22177
889.40 81.27483
889.50 76.36505
889.60 71.41034
889.70 67.46887
889.80 65.3793
889.90 65.31765
890.00 66.68012
890.10 68.58175
890.20 70.3638
890.30 71.70837
890.40 72.46089
890.50 72.57578
890.60 72.20657
890.70 71.66992
890.80 71.38611
890.90 71.73593
891.00 72.84939
891.10 74.68113
891.20 77.00588
891.30 79.56345
891.40 82.16047
891.50 84.56432
891.60 86.56132
891.70 87.94399
891.80 88.58889
891.90 88.50416
892.00 87.85551
892.10 86.93578
892.20 85.99309
892.30 85.16461
892.40 84.44899
892.50 83.67238
892.60 82.65679
892.70 81.28217
892.80 79.70418
892.90 78.45699
893.00 78.10004
893.10 79.01788
893.20 81.2604
893.30 84.53467
893.40 88.32446
893.50 91.90034
893.60 94.40841
893.70 94.97854
893.80 93.03507
893.90 88.67597
894.00 82.58404
894.10 75.61307
894.20 68.5378
894.30 62.16115
894.40 57.31065
894.50 54.44358
894.60 53.58336
894.70 54.60069
894.80 57.21862
894.90 60.94835
895.00 65.34095
895.10 70.19938
895.20 75.42334
895.30 80.79663
895.40 86.00629
895.50 90.86209
895.60 95.20266
895.70 98.67097
895.80 100.9003
895.90 101.811
896.00 101.6678
896.10 100.6653
896.20 98.77635
896.30 96.14895
896.40 93.19149
896.50 90.32793
896.60 87.74961
896.70 85.48716
896.80 83.72864
896.90 82.75652
897.00 82.71813
897.10 83.55266
897.20 85.03219
897.30 86.88056
897.40 88.69247
897.50 90.06677
897.60 90.84327
897.70 90.99344
897.80 90.47169
897.90 89.36351
898.00 88.09993
898.10 87.22564
898.20 87.00551
898.30 87.46711
898.40 88.75096
898.50 90.92571
898.60 93.51618
898.70 95.74561
898.80 96.96304
898.90 96.9799
899.00 96.14132
899.10 95.01318
899.20 94.1059
899.30 93.66916
899.40 93.63939
899.50 93.78143
899.60 93.77973
899.70 93.37148
899.80 92.31333
899.90 90.42295
900.00 90.416
900.10 90.40905
900.20 90.40209
900.30 90.39514
900.40 90.38818
900.50 90.38123
900.60 90.37427
900.70 90.36732
900.80 90.36036
900.90 90.35341
901.00 90.34646
901.10 90.3395
901.20 90.33255
901.30 90.32559
901.40 90.31864
901.50 90.31168
901.60 90.30473
901.70 90.29777
901.80 90.29082
901.90 90.28387
902.00 90.27691
902.10 90.26996
902.20 90.263
902.30 90.25605
902.40 90.24909
902.50 90.24214
902.60 90.25511
902.70 90.34306
902.80 90.43101
902.90 90.51896
903.00 90.6069
903.10 90.69485
903.20 90.7828
903.30 90.87074
903.40 90.95869
903.50 91.04664
903.60 91.13459
903.70 91.22253
903.80 91.31048
903.90 91.39843
904.00 91.48637
904.10 91.57432
904.20 91.66227
904.30 91.75022
904.40 91.83816
904.50 91.92611
904.60 92.01406
904.70 92.102
904.80 92.18995
904.90 92.2779
905.00 92.36585
905.10 92.45379
905.20 92.54174
905.30 92.62969
905.40 92.71763
905.50 92.80558
905.60 92.89353
905.70 92.98148
905.80 93.06942
905.90 93.15737
906.00 93.24532
906.10 93.30231
906.20 93.35768
906.30 93.41304
906.40 93.46841
906.50 93.52377
906.60 93.57914
906.70 93.6345
906.80 93.68987
906.90 93.74523
907.00 93.8006
907.10 93.85597
907.20 93.91133
907.30 93.9667
907.40 94.02206
907.50 94.07743
907.60 94.13279
907.70 94.18816
907.80 94.24352
907.90 94.29889
908.00 94.35425
908.10 94.40962
908.20 94.46498
908.30 94.52035
908.40 94.57571
908.50 94.63108
908.60 94.68645
908.70 94.74181
908.80 94.79718
908.90 94.85254
909.00 94.90791
909.10 94.96327
909.20 95.01864
909.30 95.074
909.40 95.12937
909.50 95.18087
909.60 95.22865
909.70 95.27643
909.80 95.32421
909.90 95.372
910.00 95.41978
910.10 95.46756
910.20 95.51534
910.30 95.56312
910.40 95.61091
910.50 95.65869
910.60 95.70647
910.70 95.75425
910.80 95.80203
910.90 95.84982
911.00 95.8976
911.10 95.94538
911.20 95.99316
911.30 96.04095
911.40 96.08873
911.50 96.13651
911.60 96.18429
911.70 96.23207
911.80 96.27986
911.90 96.32764
912.00 96.37542
912.10 96.4232
912.20 96.47099
912.30 96.51877
912.40 96.56655
912.50 96.61433
912.60 96.66211
912.70 96.7099
912.80 96.75768
912.90 96.80546
913.00 96.82479
913.10 96.84024
913.20 96.85569
913.30 96.87114
913.40 96.88659
913.50 96.90204
913.60 96.91749
913.70 96.93294
913.80 96.94839
913.90 96.96384
914.00 96.97929
914.10 96.99474
914.20 97.01019
914.30 97.02564
914.40 97.04109
914.50 97.05654
914.60 97.07199
914.70 97.08744
914.80 97.10288
914.90 97.11833
915.00 97.13378
915.10 97.14923
915.20 97.16468
915.30 97.18013
915.40 97.19558
915.50 97.21103
915.60 97.22648
915.70 97.24193
915.80 97.25738
915.90 97.27283
916.00 97.28828
916.10 97.30373
916.20 97.31918
916.30 97.33463
916.40 97.35145
916.50 97.38399
916.60 97.41652
916.70 97.44906
916.80 97.4816
916.90 97.51414
917.00 97.54667
917.10 97.57921
917.20 97.61175
917.30 97.64429
917.40 97.67682
917.50 97.70936
917.60 97.7419
917.70 97.77444
917.80 97.80698
917.90 97.83951
918.00 97.87205
918.10 97.90459
918.20 97.93713
918.30 97.96966
918.40 98.0022
918.50 98.03474
918.60 98.06728
918.70 98.09982
918.80 98.13235
918.90 98.16489
919.00 98.19743
919.10 98.22997
919.20 98.2625
919.30 98.29504
919.40 98.32758
919.50 98.36012
919.60 98.39266
919.70 98.42519
919.80 98.45773
919.90 98.48749
920.00 98.49221
920.10 98.49694
920.20 98.50166
920.30 98.50638
920.40 98.51111
920.50 98.51583
920.60 98.52056
920.70 98.52528
920.80 98.53
920.90 98.53473
921.00 98.53945
921.10 98.54418
921.20 98.5489
921.30 98.55362
921.40 98.55835
921.50 98.56307
921.60 98.5678
921.70 98.57252
921.80 98.57724
921.90 98.58197
922.00 98.58669
922.10 98.59142
922.20 98.59614
922.30 98.60086
922.40 98.60559
922.50 98.61031
922.60 98.61504
922.70 98.61976
922.80 98.62449
922.90 98.62921
923.00 98.63393
923.10 98.63866
923.20 98.64338
923.30 98.64811
923.40 98.65283
923.50 98.71422
923.60 98.77923
923.70 98.84424
923.80 98.90925
923.90 98.97426
924.00 99.03927
924.10 99.10428
924.20 99.16928
924.30 99.23429
924.40 99.2993
924.50 99.36431
924.60 99.42932
924.70 99.49433
924.80 99.55934
924.90 99.62435
925.00 99.68936
925.10 99.75437
925.20 99.81937
925.30 99.88438
925.40 99.94939
925.50 100.0144
925.60 100.0794
925.70 100.1444
925.80 100.2094
925.90 100.2744
926.00 100.3394
926.10 100.4045
926.20 100.4695
926.30 100.5345
926.40 100.5995
926.50 100.6645
926.60 100.7295
926.70 100.7945
926.80 100.8595
926.90 100.9245
927.00 100.9635
927.10 100.9858
927.20 101.008
927.30 101.0303
927.40 101.0526
927.50 101.0749
927.60 101.0972
927.70 101.1195
927.80 101.1418
927.90 101.164
928.00 101.1863
928.10 101.2086
928.20 101.2309
928.30 101.2532
928.40 101.2755
928.50 101.2978
928.60 101.32
928.70 101.3423
928.80 101.3646
928.90 101.3869
929.00 101.4092
929.10 101.4315
929.20 101.4538
929.30 101.476
929.40 101.4983
929.50 101.5206
929.60 101.5429
929.70 101.5652
929.80 101.5875
929.90 101.6098
930.00 101.632
930.10 101.6543
930.20 101.6766
930.30 101.6989
930.40 101.7212
930.50 101.7421
930.60 101.7517
930.70 101.7613
930.80 101.7709
930.90 101.7805
931.00 101.7902
931.10 101.7998
931.20 101.8094
931.30 101.819
931.40 101.8286
931.50 101.8382
931.60 101.8479
931.70 101.8575
931.80 101.8671
931.90 101.8767
932.00 101.8863
932.10 101.8959
932.20 101.9056
932.30 101.9152
932.40 101.9248
932.50 101.9344
932.60 101.944
932.70 101.9537
932.80 101.9633
932.90 101.9729
933.00 101.9825
933.10 101.9921
933.20 102.0017
933.30 102.0114
933.40 102.021
933.50 102.0306
933.60 102.0402
933.70 102.0498
933.80 102.0594
933.90 102.0691
934.00 102.0787
934.10 102.1035
934.20 102.1477
934.30 102.1919
934.40 102.2361
934.50 102.2802
934.60 102.3244
934.70 102.3686
934.80 102.4128
934.90 102.457
935.00 102.5012
935.10 102.5453
935.20 102.5895
935.30 102.6337
935.40 102.6779
935.50 102.7221
935.60 102.7663
935.70 102.8105
935.80 102.8546
935.90 102.8988
936.00 102.943
936.10 102.9872
936.20 103.0314
936.30 103.0756
936.40 103.1197
936.50 103.1639
936.60 103.2081
936.70 103.2523
936.80 103.2965
936.90 103.3407
937.00 103.3848
937.10 103.429
937.20 103.4732
937.30 103.5174
937.40 103.5616
937.50 103.6058
937.60 103.6499
937.70 103.6863
937.80 103.7175
937.90 103.7487
938.00 103.7799
938.10 103.8111
938.20 103.8423
938.30 103.8735
938.40 103.9047
938.50 103.9358
938.60 103.967
938.70 103.9982
938.80 104.0294
938.90 104.0606
939.00 104.0918
939.10 104.123
939.20 104.1542
939.30 104.1854
939.40 104.2166
939.50 104.2477
939.60 104.2789
939.70 104.3101
939.80 104.3413
939.90 104.3725
940.00 104.4037
940.10 104.4349
940.20 104.4661
940.30 104.4973
940.40 104.5284
940.50 104.5596
940.60 104.5908
940.70 104.622
940.80 104.6532
940.90 104.6844
941.00 104.7156
941.10 104.7468
941.20 104.778
941.30 104.8254
941.40 104.8841
941.50 104.9428
941.60 105.0014
941.70 105.0601
941.80 105.1188
941.90 105.1775
942.00 105.2362
942.10 105.2949
942.20 105.3536
942.30 105.4123
942.40 105.471
942.50 105.5297
942.60 105.5883
942.70 105.647
942.80 105.7057
942.90 105.7644
943.00 105.8231
943.10 105.8818
943.20 105.9405
943.30 105.9992
943.40 106.0579
943.50 106.1165
943.60 106.1752
943.70 106.2339
943.80 106.2926
943.90 106.3513
944.00 106.41
944.10 106.4687
944.20 106.5274
944.30 106.5861
944.40 106.6448
944.50 106.7034
944.60 106.7621
944.70 106.8208
944.80 106.8795
944.90 106.9321
945.00 106.9759
945.10 107.0197
945.20 107.0635
945.30 107.1073
945.40 107.1511
945.50 107.1949
945.60 107.2387
945.70 107.2825
945.80 107.3263
945.90 107.3701
946.00 107.4139
946.10 107.4577
946.20 107.5015
946.30 107.5453
946.40 107.5891
946.50 107.6329
946.60 107.6767
946.70 107.7205
946.80 107.7643
946.90 107.8081
947.00 107.8519
947.10 107.8957
947.20 107.9395
947.30 107.9833
947.40 108.0271
947.50 108.0709
947.60 108.1147
947.70 108.1585
947.80 108.2023
947.90 108.2461
948.00 108.2899
948.10 108.3337
948.20 108.3775
948.30 108.4213
948.40 108.4651
948.50 108.5054
948.60 108.4987
948.70 108.4921
948.80 108.4854
948.90 108.4787
949.00 108.4721
949.10 108.4654
949.20 108.4587
949.30 108.452
949.40 108.4454
949.50 108.4387
949.60 108.432
949.70 108.4254
949.80 108.4187
949.90 108.412
950.00 108.4054
950.10 108.3987
950.20 108.392
950.30 108.3853
950.40 108.3787
950.50 108.372
950.60 108.3653
950.70 108.3587
950.80 108.352
950.90 108.3453
951.00 108.3387
951.10 108.332
951.20 108.3253
951.30 108.3186
951.40 108.312
951.50 108.3053
951.60 108.2986
951.70 108.292
951.80 108.2853
951.90 108.2786
952.00 108.272
952.10 108.2653
952.20 108.2803
952.30 108.3123
952.40 108.3442
952.50 108.3762
952.60 108.4082
952.70 108.4402
952.80 108.4722
952.90 108.5042
953.00 108.5362
953.10 108.5682
953.20 108.6002
953.30 108.6322
953.40 108.6641
953.50 108.6961
953.60 108.7281
953.70 108.7601
953.80 108.7921
953.90 108.8241
954.00 108.8561
954.10 108.8881
954.20 108.9201
954.30 108.9521
954.40 108.984
954.50 109.016
954.60 109.048
954.70 109.08
954.80 109.112
954.90 109.144
955.00 109.176
955.10 109.208
955.20 109.24
955.30 109.272
955.40 109.3039
955.50 109.3359
955.60 109.3679
955.70 109.3999
955.80 109.4319
955.90 109.4411
956.00 109.4477
956.10 109.4543
956.20 109.4609
956.30 109.4675
956.40 109.4742
956.50 109.4808
956.60 109.4874
956.70 109.494
956.80 109.5006
956.90 109.5073
957.00 109.5139
957.10 109.5205
957.20 109.5271
957.30 109.5337
957.40 109.5404
957.50 109.547
957.60 109.5536
957.70 109.5602
957.80 109.5668
957.90 109.5735
958.00 109.5801
958.10 109.5867
958.20 109.5933
958.30 109.5999
958.40 109.6066
958.50 109.6132
958.60 109.6198
958.70 109.6264
958.80 109.633
958.90 109.6397
959.00 109.6463
959.10 109.6529
959.20 109.6595
959.30 109.6661
959.40 109.6728
959.50 109.6791
959.60 109.6821
959.70 109.685
959.80 109.688
959.90 109.691
960.00 109.6939
960.10 109.6969
960.20 109.6998
960.30 109.7028
960.40 109.7057
960.50 109.7087
960.60 109.7117
960.70 109.7146
960.80 109.7176
960.90 109.7205
961.00 109.7235
961.10 109.7265
961.20 109.7294
961.30 109.7324
961.40 109.7353
961.50 109.7383
961.60 109.7412
961.70 109.7442
961.80 109.7472
961.90 109.7501
962.00 109.7531
962.10 109.756
962.20 109.759
962.30 109.762
962.40 109.7649
962.50 109.7679
962.60 109.7708
962.70 109.7738
962.80 109.7768
962.90 109.7797
963.00 109.7827
963.10 109.7856
963.20 109.7923
963.30 109.8369
963.40 109.8814
963.50 109.9259
963.60 109.9705
963.70 110.015
963.80 110.0595
963.90 110.1041
964.00 110.1486
964.10 110.1932
964.20 110.2377
964.30 110.2822
964.40 110.3268
964.50 110.3713
964.60 110.4158
964.70 110.4604
964.80 110.5049
964.90 110.5495
965.00 110.594
965.10 110.6385
965.20 110.6831
965.30 110.7276
965.40 110.7721
965.50 110.8167
965.60 110.8612
965.70 110.9057
965.80 110.9503
965.90 110.9948
966.00 111.0394
966.10 111.0839
966.20 111.1284
966.30 111.173
966.40 111.2175
966.50 111.262
966.60 111.3066
966.70 111.3511
966.80 111.3957
966.90 111.4402
967.00 111.4781
967.10 111.5156
967.20 111.5532
967.30 111.5907
967.40 111.6283
967.50 111.6658
967.60 111.7034
967.70 111.7409
967.80 111.7784
967.90 111.816
968.00 111.8535
968.10 111.8911
968.20 111.9286
968.30 111.9662
968.40 112.0037
968.50 112.0413
968.60 112.0788
968.70 112.1163
968.80 112.1539
968.90 112.1914
969.00 112.229
969.10 112.2665
969.20 112.3041
969.30 112.3416
969.40 112.3792
969.50 112.4167
969.60 112.4542
969.70 112.4918
969.80 112.5293
969.90 112.5669
970.00 112.6044
970.10 112.642
970.20 112.6795
970.30 112.7171
970.40 112.7546
970.50 112.7922
970.60 112.8297
970.70 112.9115
970.80 113.0172
970.90 113.1229
971.00 113.2286
971.10 113.3343
971.20 113.44
971.30 113.5457
971.40 113.6514
971.50 113.7571
971.60 113.8627
971.70 113.9684
971.80 114.0741
971.90 114.1798
972.00 114.2855
972.10 114.3912
972.20 114.4969
972.30 114.6026
972.40 114.7083
972.50 114.814
972.60 114.9197
972.70 115.0253
972.80 115.131
972.90 115.2367
973.00 115.3424
973.10 115.4481
973.20 115.5538
973.30 115.6595
973.40 115.7652
973.50 115.8709
973.60 115.9766
973.70 116.0822
973.80 116.1879
973.90 116.2936
974.00 116.3993
974.10 116.505
974.20 116.6107
974.30 116.7164
974.40 116.7954
974.50 116.774
974.60 116.7527
974.70 116.7313
974.80 116.71
974.90 116.6886
975.00 116.6673
975.10 116.6459
975.20 116.6246
975.30 116.6032
975.40 116.5819
975.50 116.5605
975.60 116.5392
975.70 116.5178
975.80 116.4965
975.90 116.4751
976.00 116.4537
976.10 116.4324
976.20 116.411
976.30 116.3897
976.40 116.3683
976.50 116.347
976.60 116.3256
976.70 116.3043
976.80 116.2829
976.90 116.2616
977.00 116.2402
977.10 116.2189
977.20 116.1975
977.30 116.1761
977.40 116.1548
977.50 116.1334
977.60 116.1121
977.70 116.0907
977.80 116.0694
977.90 116.048
978.00 116.0267
978.10 116.0053
978.20 115.9874
978.30 115.9717
978.40 115.956
978.50 115.9403
978.60 115.9246
978.70 115.9088
978.80 115.8931
978.90 115.8774
979.00 115.8617
979.10 115.846
979.20 115.8303
979.30 115.8146
979.40 115.7989
979.50 115.7831
979.60 115.7674
979.70 115.7517
979.80 115.736
979.90 115.7203
980.00 115.7046
980.10 115.6889
980.20 115.6732
980.30 115.6574
980.40 115.6417
980.50 115.626
980.60 115.6103
980.70 115.5946
980.80 115.5789
980.90 115.5632
981.00 115.5475
981.10 115.5317
981.20 115.516
981.30 115.5003
981.40 115.4846
981.50 115.4689
981.60 115.4532
981.70 115.4375
981.80 115.4218
981.90 115.406
982.00 115.3683
982.10 115.327
982.20 115.2857
982.30 115.2444
982.40 115.203
982.50 115.1617
982.60 115.1204
982.70 115.0791
982.80 115.0377
982.90 114.9964
983.00 114.9551
983.10 114.9138
983.20 114.8725
983.30 114.8311
983.40 114.7898
983.50 114.7485
983.60 114.7072
983.70 114.6659
983.80 114.6245
983.90 114.5832
984.00 114.5419
984.10 114.5006
984.20 114.4593
984.30 114.4179
984.40 114.3766
984.50 114.3353
984.60 114.294
984.70 114.2527
984.80 114.2113
984.90 114.17
985.00 114.1287
985.10 114.0874
985.20 114.0461
985.30 114.0047
985.40 113.9634
985.50 113.9221
985.60 113.8808
985.70 113.8395
985.80 113.7185
985.90 113.5951
986.00 113.4717
986.10 113.3483
986.20 113.2249
986.30 113.1016
986.40 112.9782
986.50 112.8548
986.60 112.7314
986.70 112.608
986.80 112.4846
986.90 112.3612
987.00 112.2378
987.10 112.1144
987.20 111.991
987.30 111.8676
987.40 111.7442
987.50 111.6208
987.60 111.4974
987.70 111.374
987.80 111.2506
987.90 111.1272
988.00 111.0038
988.10 110.8804
988.20 110.757
988.30 110.6336
988.40 110.5102
988.50 110.3868
988.60 110.2635
988.70 110.1401
988.80 110.0167
988.90 109.8933
989.00 109.7699
989.10 109.6465
989.20 109.5231
989.30 109.3997
989.40 109.2763
989.50 109.1529
989.60 109.0513
989.70 108.9514
989.80 108.8515
989.90 108.7516
990.00 108.6517
990.10 108.5518
990.20 108.4519
990.30 108.352
990.40 108.2521
990.50 108.1522
990.60 108.0523
990.70 107.9524
990.80 107.8525
990.90 107.7525
991.00 107.6526
991.10 107.5527
991.20 107.4528
991.30 107.3529
991.40 107.253
991.50 107.1531
991.60 107.0532
991.70 106.9533
991.80 106.8534
991.90 106.7535
992.00 106.6536
992.10 106.5537
992.20 106.4537
992.30 106.3538
992.40 106.2539
992.50 106.154
992.60 106.0541
992.70 105.9542
992.80 105.8543
992.90 105.7544
993.00 105.6545
993.10 105.5546
993.20 105.4547
993.30 105.3548
993.40 105.2747
993.50 105.2013
993.60 105.1278
993.70 105.0544
993.80 104.981
993.90 104.9075
994.00 104.8341
994.10 104.7607
994.20 104.6872
994.30 104.6138
994.40 104.5404
994.50 104.4669
994.60 104.3935
994.70 104.3201
994.80 104.2466
994.90 104.1732
995.00 104.0997
995.10 104.0263
995.20 103.9529
995.30 103.8794
995.40 103.806
995.50 103.7326
995.60 103.6591
995.70 103.5857
995.80 103.5123
995.90 103.4388
996.00 103.3654
996.10 103.292
996.20 103.2185
996.30 103.1451
996.40 103.0716
996.50 102.9982
996.60 102.9248
996.70 102.8513
996.80 102.7779
996.90 102.7045
997.00 102.631
997.10 102.5576
997.20 102.5366
997.30 102.588
997.40 102.6394
997.50 102.6908
997.60 102.7422
997.70 102.7936
997.80 102.845
997.90 102.8965
998.00 102.9479
998.10 102.9993
998.20 103.0507
998.30 103.1021
998.40 103.1535
998.50 103.2049
998.60 103.2563
998.70 103.3077
998.80 103.3591
998.90 103.4105
999.00 103.462
999.10 103.5134
999.20 103.5648
999.30 103.6162
999.40 103.6676
999.50 103.719
999.60 103.7704
999.70 103.8218
999.80 103.8732
999.90 103.9246
1000.00 103.976
1000.10 104.0275
1000.20 104.0789
1000.30 104.1303
1000.40 104.1817
1000.50 104.2331
1000.60 104.2845
1000.70 104.3359
1000.80 104.3873
1000.90 104.4387
1001.00 104.4901
1001.10 104.5295
1001.20 104.5689
1001.30 104.6083
1001.40 104.6477
1001.50 104.6871
1001.60 104.7265
1001.70 104.7659
1001.80 104.8053
1001.90 104.8447
1002.00 104.8841
1002.10 104.9235
1002.20 104.9629
1002.30 105.0023
1002.40 105.0416
1002.50 105.081
1002.60 105.1204
1002.70 105.1598
1002.80 105.1992
1002.90 105.2386
1003.00 105.278
1003.10 105.3174
1003.20 105.3568
1003.30 105.3962
1003.40 105.4356
1003.50 105.475
1003.60 105.5144
1003.70 105.5538
1003.80 105.5932
1003.90 105.6325
1004.00 105.6719
1004.10 105.7113
1004.20 105.7507
1004.30 105.7901
1004.40 105.8295
1004.50 105.8689
1004.60 105.9083
1004.70 105.9477
1004.80 105.9871
1004.90 106.0338
1005.00 106.0916
1005.10 106.1494
1005.20 106.2072
1005.30 106.265
1005.40 106.3228
1005.50 106.3806
1005.60 106.4384
1005.70 106.4962
1005.80 106.554
1005.90 106.6117
1006.00 106.6695
1006.10 106.7273
1006.20 106.7851
1006.30 106.8429
1006.40 106.9007
1006.50 106.9585
1006.60 107.0163
1006.70 107.0741
1006.80 107.1319
1006.90 107.1896
1007.00 107.2474
1007.10 107.3052
1007.20 107.363
1007.30 107.4208
1007.40 107.4786
1007.50 107.5364
1007.60 107.5942
1007.70 107.652
1007.80 107.7098
1007.90 107.7675
1008.00 107.8253
1008.10 107.8831
1008.20 107.9409
1008.30 107.9987
1008.40 108.0565
1008.50 108.1143
1008.60 108.1721
1008.70 108.2299
1008.80 108.2841
1008.90 108.3359
1009.00 108.3877
1009.10 108.4395
1009.20 108.4913
1009.30 108.5431
1009.40 108.5949
1009.50 108.6467
1009.60 108.6985
1009.70 108.7503
1009.80 108.8021
1009.90 108.8539
1010.00 108.9057
1010.10 108.9575
1010.20 109.0093
1010.30 109.0611
1010.40 109.1129
1010.50 109.1647
1010.60 109.2165
1010.70 109.2683
1010.80 109.3201
1010.90 109.3719
1011.00 109.4237
1011.10 109.4755
1011.20 109.5273
1011.30 109.5791
1011.40 109.6309
1011.50 109.6827
1011.60 109.7345
1011.70 109.7863
1011.80 109.8381
1011.90 109.8899
1012.00 109.9417
1012.10 109.9935
1012.20 110.0453
1012.30 110.0971
1012.40 110.1489
1012.50 110.2007
1012.60 110.2525
1012.70 110.2832
1012.80 110.3087
1012.90 110.3341
1013.00 110.3595
1013.10 110.3849
1013.20 110.4103
1013.30 110.4358
1013.40 110.4612
1013.50 110.4866
1013.60 110.512
1013.70 110.5374
1013.80 110.5629
1013.90 110.5883
1014.00 110.6137
1014.10 110.6391
1014.20 110.6645
1014.30 110.69
1014.40 110.7154
1014.50 110.7408
1014.60 110.7662
1014.70 110.7916
1014.80 110.8171
1014.90 110.8425
1015.00 110.8679
1015.10 110.8933
1015.20 110.9187
1015.30 110.9442
1015.40 110.9696
1015.50 110.995
1015.60 111.0204
1015.70 111.0459
1015.80 111.0713
1015.90 111.0967
1016.00 111.1221
1016.10 111.1475
1016.20 111.173
1016.30 111.1984
1016.40 111.2238
1016.50 111.2492
1016.60 111.2392
1016.70 111.2203
1016.80 111.2015
1016.90 111.1826
1017.00 111.1637
1017.10 111.1449
1017.20 111.126
1017.30 111.1071
1017.40 111.0882
1017.50 111.0694
1017.60 111.0505
1017.70 111.0316
1017.80 111.0128
1017.90 110.9939
1018.00 110.975
1018.10 110.9561
1018.20 110.9373
1018.30 110.9184
1018.40 110.8995
1018.50 110.8807
1018.60 110.8618
1018.70 110.8429
1018.80 110.8241
1018.90 110.8052
1019.00 110.7863
1019.10 110.7674
1019.20 110.7486
1019.30 110.7297
1019.40 110.7108
1019.50 110.692
1019.60 110.6731
1019.70 110.6542
1019.80 110.6354
1019.90 110.6165
1020.00 110.5976
1020.10 110.5787
1020.20 110.5599
1020.30 110.541
1020.40 110.5221
1020.50 110.5553
1020.60 110.6231
1020.70 110.691
1020.80 110.7588
1020.90 110.8266
1021.00 110.8945
1021.10 110.9623
1021.20 111.0301
1021.30 111.098
1021.40 111.1658
1021.50 111.2336
1021.60 111.3015
1021.70 111.3693
1021.80 111.4371
1021.90 111.505
1022.00 111.5728
1022.10 111.6407
1022.20 111.7085
1022.30 111.7763
1022.40 111.8442
1022.50 111.912
1022.60 111.9798
1022.70 112.0477
1022.80 112.1155
1022.90 112.1833
1023.00 112.2512
1023.10 112.319
1023.20 112.3868
1023.30 112.4547
1023.40 112.5225
1023.50 112.5904
1023.60 112.6582
1023.70 112.726
1023.80 112.7939
1023.90 112.8617
1024.00 112.9295
1024.10 112.9974
1024.20 113.0652
1024.30 113.133
1024.40 113.1746
1024.50 113.1766
1024.60 113.1787
1024.70 113.1807
1024.80 113.1828
1024.90 113.1849
1025.00 113.1869
1025.10 113.189
1025.20 113.191
1025.30 113.1931
1025.40 113.1952
1025.50 113.1972
1025.60 113.1993
1025.70 113.2014
1025.80 113.2034
1025.90 113.2055
1026.00 113.2075
1026.10 113.2096
1026.20 113.2117
1026.30 113.2137
1026.40 113.2158
1026.50 113.2178
1026.60 113.2199
1026.70 113.222
1026.80 113.224
1026.90 113.2261
1027.00 113.2281
1027.10 113.2302
1027.20 113.2323
1027.30 113.2343
1027.40 113.2364
1027.50 113.2385
1027.60 113.2405
1027.70 113.2426
1027.80 113.2446
1027.90 113.2467
1028.00 113.2488
1028.10 113.2508
1028.20 113.2529
1028.30 113.2549
1028.40 113.3248
1028.50 113.3947
1028.60 113.4646
1028.70 113.5345
1028.80 113.6044
1028.90 113.6743
1029.00 113.7441
1029.10 113.814
1029.20 113.8839
1029.30 113.9538
1029.40 114.0237
1029.50 114.0936
1029.60 114.1635
1029.70 114.2333
1029.80 114.3032
1029.90 114.3731
1030.00 114.443
1030.10 114.5129
1030.20 114.5828
1030.30 114.6527
1030.40 114.7225
1030.50 114.7924
1030.60 114.8623
1030.70 114.9322
1030.80 115.0021
1030.90 115.072
1031.00 115.1419
1031.10 115.2117
1031.20 115.2816
1031.30 115.3515
1031.40 115.4214
1031.50 115.4913
1031.60 115.5612
1031.70 115.6311
1031.80 115.7009
1031.90 115.7708
1032.00 115.8407
1032.10 115.9106
1032.20 115.9805
1032.30 116.0298
1032.40 116.0585
1032.50 116.0871
1032.60 116.1158
1032.70 116.1445
1032.80 116.1732
1032.90 116.2019
1033.00 116.2306
1033.10 116.2592
1033.20 116.2879
1033.30 116.3166
1033.40 116.3453
1033.50 116.374
1033.60 116.4027
1033.70 116.4314
1033.80 116.46
1033.90 116.4887
1034.00 116.5174
1034.10 116.5461
1034.20 116.5748
1034.30 116.6035
1034.40 116.6321
1034.50 116.6608
1034.60 116.6895
1034.70 116.7182
1034.80 116.7469
1034.90 116.7756
1035.00 116.8042
1035.10 116.8329
1035.20 116.8616
1035.30 116.8903
1035.40 116.919
1035.50 116.9477
1035.60 116.9764
1035.70 117.005
1035.80 117.0337
1035.90 117.0624
1036.00 117.0911
1036.10 117.1198
1036.20 117.1485
1036.30 117.204
1036.40 117.2663
1036.50 117.3286
1036.60 117.3909
1036.70 117.4532
1036.80 117.5154
1036.90 117.5777
1037.00 117.64
1037.10 117.7023
1037.20 117.7646
1037.30 117.8269
1037.40 117.8891
1037.50 117.9514
1037.60 118.0137
1037.70 118.076
1037.80 118.1383
1037.90 118.2005
1038.00 118.2628
1038.10 118.3251
1038.20 118.3874
1038.30 118.4497
1038.40 118.512
1038.50 118.5742
1038.60 118.6365
1038.70 118.6988
1038.80 118.7611
1038.90 118.8234
1039.00 118.8857
1039.10 118.9479
1039.20 119.0102
1039.30 119.0725
1039.40 119.1348
1039.50 119.1971
1039.60 119.2594
1039.70 119.3216
1039.80 119.3839
1039.90 119.4462
1040.00 119.5085
1040.10 119.5708
1040.20 119.6343
1040.30 119.7095
1040.40 119.7847
1040.50 119.8599
1040.60 119.9351
1040.70 120.0103
1040.80 120.0855
1040.90 120.1607
1041.00 120.2359
1041.10 120.3111
1041.20 120.3863
1041.30 120.4615
1041.40 120.5367
1041.50 120.6119
1041.60 120.6871
1041.70 120.7623
1041.80 120.8375
1041.90 120.9127
1042.00 120.9879
1042.10 121.0631
1042.20 121.1383
1042.30 121.2135
1042.40 121.2887
1042.50 121.3639
1042.60 121.4391
1042.70 121.5143
1042.80 121.5895
1042.90 121.6647
1043.00 121.7399
1043.10 121.8151
1043.20 121.8903
1043.30 121.9655
1043.40 122.0407
1043.50 122.1159
1043.60 122.1911
1043.70 122.2663
1043.80 122.3415
1043.90 122.4167
1044.00 122.4919
1044.10 122.5671
1044.20 122.6288
1044.30 122.6366
1044.40 122.6444
1044.50 122.6521
1044.60 122.6599
1044.70 122.6677
1044.80 122.6755
1044.90 122.6832
1045.00 122.691
1045.10 122.6988
1045.20 122.7066
1045.30 122.7144
1045.40 122.7221
1045.50 122.7299
1045.60 122.7377
1045.70 122.7455
1045.80 122.7533
1045.90 122.761
1046.00 122.7688
1046.10 122.7766
1046.20 122.7844
1046.30 122.7922
1046.40 122.7999
1046.50 122.8077
1046.60 122.8155
1046.70 122.8233
1046.80 122.831
1046.90 122.8388
1047.00 122.8466
1047.10 122.8544
1047.20 122.8622
1047.30 122.8699
1047.40 122.8777
1047.50 122.8855
1047.60 122.8933
1047.70 122.9011
1047.80 122.9088
1047.90 122.9166
1048.00 122.9244
1048.10 122.9322
1048.20 122.9316
1048.30 122.9116
1048.40 122.8917
1048.50 122.8717
1048.60 122.8517
1048.70 122.8317
1048.80 122.8118
1048.90 122.7918
1049.00 122.7718
1049.10 122.7518
1049.20 122.7318
1049.30 122.7119
1049.40 122.6919
1049.50 122.6719
1049.60 122.6519
1049.70 122.632
1049.80 122.612
1049.90 122.592
1050.00 122.572
1050.10 122.5521
1050.20 122.5321
1050.30 122.5121
1050.40 122.4921
1050.50 122.4721
1050.60 122.4522
1050.70 122.4322
1050.80 122.4122
1050.90 122.3922
1051.00 122.3723
1051.10 122.3523
1051.20 122.3323
1051.30 122.3123
1051.40 122.2923
1051.50 122.2724
1051.60 122.2524
1051.70 122.2324
1051.80 122.2124
1051.90 122.1925
1052.00 122.1725
1052.10 122.1525
1052.20 122.1545
1052.30 122.2445
1052.40 122.3345
1052.50 122.4245
1052.60 122.5145
1052.70 122.6045
1052.80 122.6945
1052.90 122.7845
1053.00 122.8745
1053.10 122.9645
1053.20 123.0545
1053.30 123.1445
1053.40 123.2345
1053.50 123.3245
1053.60 123.4145
1053.70 123.5045
1053.80 123.5945
1053.90 123.6845
1054.00 123.7745
1054.10 123.8645
1054.20 123.9545
1054.30 124.0445
1054.40 124.1345
1054.50 124.2245
1054.60 124.3145
1054.70 124.4045
1054.80 124.4945
1054.90 124.5845
1055.00 124.6745
1055.10 124.7645
1055.20 124.8545
1055.30 124.9445
1055.40 125.0345
1055.50 125.1245
1055.60 125.2145
1055.70 125.3045
1055.80 125.3945
1055.90 125.4845
1056.00 125.5745
1056.10 125.6645
1056.20 125.7545
1056.30 125.7475
1056.40 125.7404
1056.50 125.7334
1056.60 125.7264
1056.70 125.7193
1056.80 125.7123
1056.90 125.7053
1057.00 125.6982
1057.10 125.6912
1057.20 125.6842
1057.30 125.6772
1057.40 125.6701
1057.50 125.6631
1057.60 125.6561
1057.70 125.649
1057.80 125.642
1057.90 125.635
1058.00 125.6279
1058.10 125.6209
1058.20 125.6139
1058.30 125.6068
1058.40 125.5998
1058.50 125.5928
1058.60 125.5857
1058.70 125.5787
1058.80 125.5717
1058.90 125.5646
1059.00 125.5576
1059.10 125.5506
1059.20 125.5436
1059.30 125.5365
1059.40 125.5295
1059.50 125.5225
1059.60 125.5154
1059.70 125.5084
1059.80 125.5014
1059.90 125.4943
1060.00 125.4873
1060.10 125.4803
1060.20 125.4732
1060.30 125.4943
1060.40 125.5342
1060.50 125.5741
1060.60 125.6139
1060.70 125.6538
1060.80 125.6936
1060.90 125.7335
1061.00 125.7733
1061.10 125.8132
1061.20 125.8531
1061.30 125.8929
1061.40 125.9328
1061.50 125.9726
1061.60 126.0125
1061.70 126.0524
1061.80 126.0922
1061.90 126.1321
1062.00 126.1719
1062.10 126.2118
1062.20 126.2516
1062.30 126.2915
1062.40 126.3314
1062.50 126.3712
1062.60 126.4111
1062.70 126.4509
1062.80 126.4908
1062.90 126.5306
1063.00 126.5705
1063.10 126.6104
1063.20 126.6502
1063.30 126.6901
1063.40 126.7299
1063.50 126.7698
1063.60 126.8097
1063.70 126.8495
1063.80 126.8894
1063.90 126.9292
1064.00 126.9691
1064.10 127.0089
1064.20 127.0488
1064.30 127.0865
1064.40 127.1155
1064.50 127.1445
1064.60 127.1735
1064.70 127.2026
1064.80 127.2316
1064.90 127.2606
1065.00 127.2896
1065.10 127.3186
1065.20 127.3477
1065.30 127.3767
1065.40 127.4057
1065.50 127.4347
1065.60 127.4637
1065.70 127.4927
1065.80 127.5218
1065.90 127.5508
1066.00 127.5798
1066.10 127.6088
1066.20 127.6378
1066.30 127.6669
1066.40 127.6959
1066.50 127.7249
1066.60 127.7539
1066.70 127.7829
1066.80 127.8119
1066.90 127.841
1067.00 127.87
1067.10 127.899
1067.20 127.928
1067.30 127.957
1067.40 127.9861
1067.50 128.0151
1067.60 128.0441
1067.70 128.0731
1067.80 128.1021
1067.90 128.1311
1068.00 128.1602
1068.10 128.1892
1068.20 128.2182
1068.30 128.2472
1068.40 128.3018
1068.50 128.3674
1068.60 128.433
1068.70 128.4986
1068.80 128.5642
1068.90 128.6298
1069.00 128.6954
1069.10 128.761
1069.20 128.8266
1069.30 128.8922
1069.40 128.9578
1069.50 129.0234
1069.60 129.089
1069.70 129.1546
1069.80 129.2202
1069.90 129.2858
1070.00 129.3514
1070.10 129.417
1070.20 129.4826
1070.30 129.5482
1070.40 129.6138
1070.50 129.6794
1070.60 129.745
1070.70 129.8106
1070.80 129.8762
1070.90 129.9418
1071.00 130.0074
1071.10 130.073
1071.20 130.1386
1071.30 130.2042
1071.40 130.2698
1071.50 130.3354
1071.60 130.401
1071.70 130.4666
1071.80 130.5322
1071.90 130.5978
1072.00 130.6634
1072.10 130.729
1072.20 130.7946
1072.30 130.8602
1072.40 130.9203
1072.50 130.9303
1072.60 130.9403
1072.70 130.9503
1072.80 130.9603
1072.90 130.9703
1073.00 130.9803
1073.10 130.9903
1073.20 131.0003
1073.30 131.0103
1073.40 131.0203
1073.50 131.0303
1073.60 131.0403
1073.70 131.0503
1073.80 131.0603
1073.90 131.0703
1074.00 131.0803
1074.10 131.0904
1074.20 131.1004
1074.30 131.1104
1074.40 131.1204
1074.50 131.1304
1074.60 131.1404
1074.70 131.1504
1074.80 131.1604
1074.90 131.1704
1075.00 131.1804
1075.10 131.1904
1075.20 131.2004
1075.30 131.2104
1075.40 131.2204
1075.50 131.2304
1075.60 131.2404
1075.70 131.2504
1075.80 131.2604
1075.90 131.2705
1076.00 131.2805
1076.10 131.2905
1076.20 131.3005
1076.30 131.3105
1076.40 131.3205
1076.50 131.353
1076.60 131.4194
1076.70 131.4857
1076.80 131.552
1076.90 131.6184
1077.00 131.6847
1077.10 131.7511
1077.20 131.8174
1077.30 131.8838
1077.40 131.9501
1077.50 132.0164
1077.60 132.0828
1077.70 132.1491
1077.80 132.2155
1077.90 132.2818
1078.00 132.3481
1078.10 132.4145
1078.20 132.4808
1078.30 132.5472
1078.40 132.6135
1078.50 132.6798
1078.60 132.7462
1078.70 132.8125
1078.80 132.8789
1078.90 132.9452
1079.00 133.0116
1079.10 133.0779
1079.20 133.1442
1079.30 133.2106
1079.40 133.2769
1079.50 133.3433
1079.60 133.4096
1079.70 133.4759
1079.80 133.5423
1079.90 133.6086
1080.00 133.675
1080.10 133.7413
1080.20 133.8076
1080.30 133.874
1080.40 133.9403
1080.50 134.0067
1080.60 134.0514
1080.70 134.0744
1080.80 134.0974
1080.90 134.1205
1081.00 134.1435
1081.10 134.1665
1081.20 134.1896
1081.30 134.2126
1081.40 134.2356
1081.50 134.2587
1081.60 134.2817
1081.70 134.3047
1081.80 134.3278
1081.90 134.3508
1082.00 134.3738
1082.10 134.3969
1082.20 134.4199
1082.30 134.4429
1082.40 134.466
1082.50 134.489
1082.60 134.512
1082.70 134.5351
1082.80 134.5581
1082.90 134.5811
1083.00 134.6042
1083.10 134.6272
1083.20 134.6502
1083.30 134.6733
1083.40 134.6963
1083.50 134.7193
1083.60 134.7424
1083.70 134.7654
1083.80 134.7884
1083.90 134.8115
1084.00 134.8345
1084.10 134.8575
1084.20 134.8806
1084.30 134.9036
1084.40 134.9266
1084.50 134.9497
1084.60 134.9727
1084.70 135.0136
1084.80 135.0664
1084.90 135.1191
1085.00 135.1719
1085.10 135.2247
1085.20 135.2775
1085.30 135.3302
1085.40 135.383
1085.50 135.4358
1085.60 135.4886
1085.70 135.5413
1085.80 135.5941
1085.90 135.6469
1086.00 135.6997
1086.10 135.7524
1086.20 135.8052
1086.30 135.858
1086.40 135.9108
1086.50 135.9635
1086.60 136.0163
1086.70 136.0691
1086.80 136.1219
1086.90 136.1746
1087.00 136.2274
1087.10 136.2802
1087.20 136.3329
1087.30 136.3857
1087.40 136.4385
1087.50 136.4913
1087.60 136.544
1087.70 136.5968
1087.80 136.6496
1087.90 136.7024
1088.00 136.7551
1088.10 136.8079
1088.20 136.8607
1088.30 136.9135
1088.40 136.9662
1088.50 137.019
1088.60 137.0718
1088.70 137.1246
1088.80 137.1687
1088.90 137.2071
1089.00 137.2455
1089.10 137.2839
1089.20 137.3223
1089.30 137.3607
1089.40 137.3991
1089.50 137.4375
1089.60 137.4759
1089.70 137.5143
1089.80 137.5527
1089.90 137.5911
1090.00 137.6295
1090.10 137.6679
1090.20 137.7063
1090.30 137.7447
1090.40 137.7831
1090.50 137.8215
1090.60 137.8599
1090.70 137.8983
1090.80 137.9367
1090.90 137.9751
1091.00 138.0135
1091.10 138.0519
1091.20 138.0903
1091.30 138.1287
1091.40 138.1671
1091.50 138.2055
1091.60 138.2439
1091.70 138.2823
1091.80 138.3207
1091.90 138.3591
1092.00 138.3975
1092.10 138.4359
1092.20 138.4743
1092.30 138.5127
1092.40 138.5511
1092.50 138.5895
1092.60 138.6279
1092.70 138.6663
1092.80 138.7046
1092.90 138.7452
1093.00 138.7879
1093.10 138.8306
1093.20 138.8733
1093.30 138.916
1093.40 138.9587
1093.50 139.0014
1093.60 139.0441
1093.70 139.0869
1093.80 139.1296
1093.90 139.1723
1094.00 139.215
1094.10 139.2577
1094.20 139.3004
1094.30 139.3431
1094.40 139.3858
1094.50 139.4285
1094.60 139.4712
1094.70 139.5139
1094.80 139.5566
1094.90 139.5993
1095.00 139.642
1095.10 139.6847
1095.20 139.7275
1095.30 139.7702
1095.40 139.8129
1095.50 139.8556
1095.60 139.8983
1095.70 139.941
1095.80 139.9837
1095.90 140.0264
1096.00 140.0691
1096.10 140.1118
1096.20 140.1545
1096.30 140.1972
1096.40 140.2399
1096.50 140.2826
1096.60 140.3254
1096.70 140.3681
1096.80 140.4108
1096.90 140.4535
1097.00 140.4794
1097.10 140.4662
1097.20 140.453
1097.30 140.4398
1097.40 140.4265
1097.50 140.4133
1097.60 140.4001
1097.70 140.3869
1097.80 140.3737
1097.90 140.3605
1098.00 140.3473
1098.10 140.3341
1098.20 140.3208
1098.30 140.3076
1098.40 140.2944
1098.50 140.2812
1098.60 140.268
1098.70 140.2548
1098.80 140.2416
1098.90 140.2283
1099.00 140.2151
1099.10 140.2019
1099.20 140.1887
1099.30 140.1755
1099.40 140.1623
1099.50 140.1491
1099.60 140.1358
1099.70 140.1226
1099.80 140.1094
1099.90 140.0962
1100.00 140.083
1100.10 140.0698
1100.20 140.0566
1100.30 140.0434
1100.40 140.0301
1100.50 140.0169
1100.60 140.0037
1100.70 139.9905
1100.80 139.9773
1100.90 139.9641
1101.00 139.9509
1101.10 139.9376
1101.20 139.9374
1101.30 139.9372
1101.40 139.937
1101.50 139.9368
1101.60 139.9366
1101.70 139.9364
1101.80 139.9362
1101.90 139.936
1102.00 139.9358
1102.10 139.9356
1102.20 139.9354
1102.30 139.9352
1102.40 139.935
1102.50 139.9347
1102.60 139.9345
1102.70 139.9343
1102.80 139.9341
1102.90 139.9339
1103.00 139.9337
1103.10 139.9335
1103.20 139.9333
1103.30 139.9331
1103.40 139.9329
1103.50 139.9327
1103.60 139.9325
1103.70 139.9323
1103.80 139.9321
1103.90 139.9318
1104.00 139.9316
1104.10 139.9314
1104.20 139.9312
1104.30 139.931
1104.40 139.9308
1104.50 139.9306
1104.60 139.9304
1104.70 139.9302
1104.80 139.93
1104.90 139.9298
1105.00 139.9296
1105.10 139.9294
1105.20 139.9292
1105.30 139.9219
1105.40 139.91
1105.50 139.898
1105.60 139.8861
1105.70 139.8741
1105.80 139.8622
1105.90 139.8502
1106.00 139.8383
1106.10 139.8263
1106.20 139.8144
1106.30 139.8024
1106.40 139.7905
1106.50 139.7785
1106.60 139.7666
1106.70 139.7546
1106.80 139.7427
1106.90 139.7307
1107.00 139.7188
1107.10 139.7068
1107.20 139.6949
1107.30 139.6829
1107.40 139.671
1107.50 139.659
1107.60 139.6471
1107.70 139.6351
1107.80 139.6232
1107.90 139.6112
1108.00 139.5993
1108.10 139.5873
1108.20 139.5754
1108.30 139.5634
1108.40 139.5515
1108.50 139.5395
1108.60 139.5276
1108.70 139.5156
1108.80 139.5037
1108.90 139.4917
1109.00 139.4798
1109.10 139.4678
1109.20 139.4559
1109.30 139.4439
1109.40 139.4378
1109.50 139.4551
1109.60 139.4723
1109.70 139.4896
1109.80 139.5069
1109.90 139.5241
1110.00 139.5414
1110.10 139.5586
1110.20 139.5759
1110.30 139.5932
1110.40 139.6104
1110.50 139.6277
1110.60 139.6449
1110.70 139.6622
1110.80 139.6795
1110.90 139.6967
1111.00 139.714
1111.10 139.7312
1111.20 139.7485
1111.30 139.7658
1111.40 139.783
1111.50 139.8003
1111.60 139.8175
1111.70 139.8348
1111.80 139.8521
1111.90 139.8693
1112.00 139.8866
1112.10 139.9038
1112.20 139.9211
1112.30 139.9383
1112.40 139.9556
1112.50 139.9729
1112.60 139.9901
1112.70 140.0074
1112.80 140.0246
1112.90 140.0419
1113.00 140.0592
1113.10 140.0764
1113.20 140.0937
1113.30 140.1109
1113.40 140.1282
1113.50 140.1455
1113.60 140.1694
1113.70 140.1977
1113.80 140.226
1113.90 140.2543
1114.00 140.2826
1114.10 140.3109
1114.20 140.3392
1114.30 140.3676
1114.40 140.3959
1114.50 140.4242
1114.60 140.4525
1114.70 140.4808
1114.80 140.5091
1114.90 140.5375
1115.00 140.5658
1115.10 140.5941
1115.20 140.6224
1115.30 140.6507
1115.40 140.679
1115.50 140.7074
1115.60 140.7357
1115.70 140.764
1115.80 140.7923
1115.90 140.8206
1116.00 140.8489
1116.10 140.8772
1116.20 140.9056
1116.30 140.9339
1116.40 140.9622
1116.50 140.9905
1116.60 141.0188
1116.70 141.0471
1116.80 141.0755
1116.90 141.1038
1117.00 141.1321
1117.10 141.1604
1117.20 141.1887
1117.30 141.217
1117.40 141.2453
1117.50 141.2737
1117.60 141.302
1117.70 141.3303
1117.80 141.3526
1117.90 141.3748
1118.00 141.3971
1118.10 141.4194
1118.20 141.4417
1118.30 141.464
1118.40 141.4862
1118.50 141.5085
1118.60 141.5308
1118.70 141.5531
1118.80 141.5753
1118.90 141.5976
1119.00 141.6199
1119.10 141.6422
1119.20 141.6644
1119.30 141.6867
1119.40 141.709
1119.50 141.7313
1119.60 141.7535
1119.70 141.7758
1119.80 141.7981
1119.90 141.8204
1120.00 141.8427
1120.10 141.8649
1120.20 141.8872
1120.30 141.9095
1120.40 141.9318
1120.50 141.954
1120.60 141.9763
1120.70 141.9986
1120.80 142.0209
1120.90 142.0431
1121.00 142.0654
1121.10 142.0877
1121.20 142.11
1121.30 142.1322
1121.40 142.1545
1121.50 142.1768
1121.60 142.1991
1121.70 142.2214
1121.80 142.2436
1121.90 142.252
1122.00 142.2277
1122.10 142.2035
1122.20 142.1793
1122.30 142.155
1122.40 142.1308
1122.50 142.1066
1122.60 142.0823
1122.70 142.0581
1122.80 142.0339
1122.90 142.0096
1123.00 141.9854
1123.10 141.9612
1123.20 141.9369
1123.30 141.9127
1123.40 141.8885
1123.50 141.8642
1123.60 141.84
1123.70 141.8158
1123.80 141.7915
1123.90 141.7673
1124.00 141.7431
1124.10 141.7188
1124.20 141.6946
1124.30 141.6704
1124.40 141.6461
1124.50 141.6219
1124.60 141.5977
1124.70 141.5734
1124.80 141.5492
1124.90 141.525
1125.00 141.5007
1125.10 141.4765
1125.20 141.4523
1125.30 141.428
1125.40 141.4038
1125.50 141.3796
1125.60 141.3553
1125.70 141.3311
1125.80 141.3069
1125.90 141.2826
1126.00 141.2584
1126.10 141.2281
1126.20 141.1916
1126.30 141.1552
1126.40 141.1188
1126.50 141.0823
1126.60 141.0459
1126.70 141.0094
1126.80 140.973
1126.90 140.9365
1127.00 140.9001
1127.10 140.8637
1127.20 140.8272
1127.30 140.7908
1127.40 140.7543
1127.50 140.7179
1127.60 140.6814
1127.70 140.645
1127.80 140.6086
1127.90 140.5721
1128.00 140.5357
1128.10 140.4992
1128.20 140.4628
1128.30 140.4264
1128.40 140.3899
1128.50 140.3535
1128.60 140.317
1128.70 140.2806
1128.80 140.2441
1128.90 140.2077
1129.00 140.1713
1129.10 140.1348
1129.20 140.0984
1129.30 140.0619
1129.40 140.0255
1129.50 139.9891
1129.60 139.9526
1129.70 139.9162
1129.80 139.8797
1129.90 139.8433
1130.00 139.8068
1130.10 139.7704
1130.20 139.734
1130.30 139.6766
1130.40 139.6103
1130.50 139.544
1130.60 139.4776
1130.70 139.4113
1130.80 139.345
1130.90 139.2787
1131.00 139.2124
1131.10 139.146
1131.20 139.0797
1131.30 139.0134
1131.40 138.9471
1131.50 138.8808
1131.60 138.8144
1131.70 138.7481
1131.80 138.6818
1131.90 138.6155
1132.00 138.5492
1132.10 138.4828
1132.20 138.4165
1132.30 138.3502
1132.40 138.2839
1132.50 138.2176
1132.60 138.1512
1132.70 138.0849
1132.80 138.0186
1132.90 137.9523
1133.00 137.886
1133.10 137.8196
1133.20 137.7533
1133.30 137.687
1133.40 137.6207
1133.50 137.5544
1133.60 137.488
1133.70 137.4217
1133.80 137.3554
1133.90 137.2891
1134.00 137.2227
1134.10 137.1564
1134.20 137.0901
1134.30 137.0238
1134.40 136.9575
1134.50 136.9343
1134.60 136.922
1134.70 136.9097
1134.80 136.8974
1134.90 136.885
1135.00 136.8727
1135.10 136.8604
1135.20 136.848
1135.30 136.8357
1135.40 136.8234
1135.50 136.8111
1135.60 136.7987
1135.70 136.7864
1135.80 136.7741
1135.90 136.7617
1136.00 136.7494
1136.10 136.7371
1136.20 136.7247
1136.30 136.7124
1136.40 136.7001
1136.50 136.6878
1136.60 136.6754
1136.70 136.6631
1136.80 136.6508
1136.90 136.6384
1137.00 136.6261
1137.10 136.6138
1137.20 136.6015
1137.30 136.5891
1137.40 136.5768
1137.50 136.5645
1137.60 136.5521
1137.70 136.5398
1137.80 136.5275
1137.90 136.5152
1138.00 136.5028
1138.10 136.4905
1138.20 136.4782
1138.30 136.4658
1138.40 136.4535
1138.50 136.4412
1138.60 136.4288
1138.70 136.4713
1138.80 136.5275
1138.90 136.5836
1139.00 136.6398
1139.10 136.696
1139.20 136.7521
1139.30 136.8083
1139.40 136.8645
1139.50 136.9206
1139.60 136.9768
1139.70 137.033
1139.80 137.0891
1139.90 137.1453
1140.00 137.2015
1140.10 137.2576
1140.20 137.3138
1140.30 137.37
1140.40 137.4261
1140.50 137.4823
1140.60 137.5385
1140.70 137.5946
1140.80 137.6508
1140.90 137.707
1141.00 137.7631
1141.10 137.8193
1141.20 137.8754
1141.30 137.9316
1141.40 137.9878
1141.50 138.0439
1141.60 138.1001
1141.70 138.1563
1141.80 138.2124
1141.90 138.2686
1142.00 138.3248
1142.10 138.3809
1142.20 138.4371
1142.30 138.4933
1142.40 138.5494
1142.50 138.6056
1142.60 138.6618
1142.70 138.7179
1142.80 138.7741
1142.90 138.9107
1143.00 139.0674
1143.10 139.2242
1143.20 139.3809
1143.30 139.5376
1143.40 139.6943
1143.50 139.8511
1143.60 140.0078
1143.70 140.1645
1143.80 140.3213
1143.90 140.478
1144.00 140.6347
1144.10 140.7914
1144.20 140.9482
1144.30 141.1049
1144.40 141.2616
1144.50 141.4183
1144.60 141.5751
1144.70 141.7318
1144.80 141.8885
1144.90 142.0453
1145.00 142.202
1145.10 142.3587
1145.20 142.5154
1145.30 142.6722
1145.40 142.8289
1145.50 142.9856
1145.60 143.1424
1145.70 143.2991
1145.80 143.4558
1145.90 143.6125
1146.00 143.7693
1146.10 143.926
1146.20 144.0827
1146.30 144.2394
1146.40 144.3962
1146.50 144.5529
1146.60 144.7096
1146.70 144.8664
1146.80 145.0231
1146.90 145.1798
1147.00 145.3365
1147.10 145.4155
1147.20 145.4425
1147.30 145.4695
1147.40 145.4966
1147.50 145.5236
1147.60 145.5506
1147.70 145.5777
1147.80 145.6047
1147.90 145.6317
1148.00 145.6588
1148.10 145.6858
1148.20 145.7128
1148.30 145.7399
1148.40 145.7669
1148.50 145.7939
1148.60 145.821
1148.70 145.848
1148.80 145.875
1148.90 145.9021
1149.00 145.9291
1149.10 145.9562
1149.20 145.9832
1149.30 146.0102
1149.40 146.0373
1149.50 146.0643
1149.60 146.0913
1149.70 146.1184
1149.80 146.1454
1149.90 146.1724
1150.00 146.1995
1150.10 146.2265
1150.20 146.2535
1150.30 146.2806
1150.40 146.3076
1150.50 146.3346
1150.60 146.3617
1150.70 146.3887
1150.80 146.4157
1150.90 146.4428
1151.00 146.4698
1151.10 146.4969
1151.20 146.5239
1151.30 146.5581
1151.40 146.5994
1151.50 146.6407
1151.60 146.682
1151.70 146.7234
1151.80 146.7647
1151.90 146.806
1152.00 146.8474
1152.10 146.8887
1152.20 146.93
1152.30 146.9713
1152.40 147.0127
1152.50 147.054
1152.60 147.0953
1152.70 147.1367
1152.80 147.178
1152.90 147.2193
1153.00 147.2606
1153.10 147.302
1153.20 147.3433
1153.30 147.3846
1153.40 147.4259
1153.50 147.4673
1153.60 147.5086
1153.70 147.5499
1153.80 147.5913
1153.90 147.6326
1154.00 147.6739
1154.10 147.7152
1154.20 147.7566
1154.30 147.7979
1154.40 147.8392
1154.50 147.8806
1154.60 147.9219
1154.70 147.9632
1154.80 148.0045
1154.90 148.0459
1155.00 148.0872
1155.10 148.1285
1155.20 148.1698
1155.30 148.2112
1155.40 148.2525
1155.50 148.279
1155.60 148.246
1155.70 148.213
1155.80 148.18
1155.90 148.1471
1156.00 148.1141
1156.10 148.0811
1156.20 148.0482
1156.30 148.0152
1156.40 147.9822
1156.50 147.9492
1156.60 147.9163
1156.70 147.8833
1156.80 147.8503
1156.90 147.8174
1157.00 147.7844
1157.10 147.7514
1157.20 147.7184
1157.30 147.6855
1157.40 147.6525
1157.50 147.6195
1157.60 147.5865
1157.70 147.5536
1157.80 147.5206
1157.90 147.4876
1158.00 147.4547
1158.10 147.4217
1158.20 147.3887
1158.30 147.3557
1158.40 147.3228
1158.50 147.2898
1158.60 147.2568
1158.70 147.2238
1158.80 147.1909
1158.90 147.1579
1159.00 147.1249
1159.10 147.092
1159.20 147.059
1159.30 147.026
1159.40 146.993
1159.50 146.9601
1159.60 146.9271
1159.70 146.8941
1159.80 146.849
1159.90 146.8025
1160.00 146.756
1160.10 146.7095
1160.20 146.663
1160.30 146.6165
1160.40 146.57
1160.50 146.5235
1160.60 146.477
1160.70 146.4305
1160.80 146.384
1160.90 146.3375
1161.00 146.291
1161.10 146.2445
1161.20 146.198
1161.30 146.1515
1161.40 146.105
1161.50 146.0585
1161.60 146.012
1161.70 145.9655
1161.80 145.919
1161.90 145.8725
1162.00 145.826
1162.10 145.7795
1162.20 145.733
1162.30 145.6865
1162.40 145.64
1162.50 145.5935
1162.60 145.547
1162.70 145.5005
1162.80 145.454
1162.90 145.4075
1163.00 145.361
1163.10 145.3145
1163.20 145.268
1163.30 145.2215
1163.40 145.175
1163.50 145.1285
1163.60 145.082
1163.70 145.0355
1163.80 144.989
1163.90 144.9425
1164.00 144.8885
1164.10 144.8296
1164.20 144.7707
1164.30 144.7118
1164.40 144.6528
1164.50 144.5939
1164.60 144.535
1164.70 144.4761
1164.80 144.4172
1164.90 144.3583
1165.00 144.2993
1165.10 144.2404
1165.20 144.1815
1165.30 144.1226
1165.40 144.0637
1165.50 144.0048
1165.60 143.9459
1165.70 143.8869
1165.80 143.828
1165.90 143.7691
1166.00 143.7102
1166.10 143.6513
1166.20 143.5924
1166.30 143.5334
1166.40 143.4745
1166.50 143.4156
1166.60 143.3567
1166.70 143.2978
1166.80 143.2389
1166.90 143.1799
1167.00 143.121
1167.10 143.0621
1167.20 143.0032
1167.30 142.9443
1167.40 142.8854
1167.50 142.8264
1167.60 142.7675
1167.70 142.7086
1167.80 142.6497
1167.90 142.5908
1168.00 142.5319
1168.10 142.473
1168.20 142.411
1168.30 142.3367
1168.40 142.2624
1168.50 142.1881
1168.60 142.1138
1168.70 142.0396
1168.80 141.9653
1168.90 141.891
1169.00 141.8167
1169.10 141.7424
1169.20 141.6682
1169.30 141.5939
1169.40 141.5196
1169.50 141.4453
1169.60 141.371
1169.70 141.2967
1169.80 141.2225
1169.90 141.1482
1170.00 141.0739
1170.10 140.9996
1170.20 140.9253
1170.30 140.8511
1170.40 140.7768
1170.50 140.7025
1170.60 140.6282
1170.70 140.5539
1170.80 140.4797
1170.90 140.4054
1171.00 140.3311
1171.10 140.2568
1171.20 140.1825
1171.30 140.1082
1171.40 140.034
1171.50 139.9597
1171.60 139.8854
1171.70 139.8111
1171.80 139.7368
1171.90 139.6626
1172.00 139.5883
1172.10 139.514
1172.20 139.4397
1172.30 139.3654
1172.40 139.2912
1172.50 139.2814
1172.60 139.2993
1172.70 139.3172
1172.80 139.3351
1172.90 139.353
1173.00 139.3708
1173.10 139.3887
1173.20 139.4066
1173.30 139.4245
1173.40 139.4424
1173.50 139.4603
1173.60 139.4782
1173.70 139.4961
1173.80 139.514
1173.90 139.5319
1174.00 139.5498
1174.10 139.5676
1174.20 139.5855
1174.30 139.6034
1174.40 139.6213
1174.50 139.6392
1174.60 139.6571
1174.70 139.675
1174.80 139.6929
1174.90 139.7108
1175.00 139.7287
1175.10 139.7465
1175.20 139.7644
1175.30 139.7823
1175.40 139.8002
1175.50 139.8181
1175.60 139.836
1175.70 139.8539
1175.80 139.8718
1175.90 139.8897
1176.00 139.9076
1176.10 139.9254
1176.20 139.9433
1176.30 139.9612
1176.40 139.9791
1176.50 139.997
1176.60 140.0149
1176.70 140.0347
1176.80 140.062
1176.90 140.0893
1177.00 140.1166
1177.10 140.144
1177.20 140.1713
1177.30 140.1986
1177.40 140.2259
1177.50 140.2533
1177.60 140.2806
1177.70 140.3079
1177.80 140.3352
1177.90 140.3626
1178.00 140.3899
1178.10 140.4172
1178.20 140.4445
1178.30 140.4719
1178.40 140.4992
1178.50 140.5265
1178.60 140.5538
1178.70 140.5811
1178.80 140.6085
1178.90 140.6358
1179.00 140.6631
1179.10 140.6904
1179.20 140.7178
1179.30 140.7451
1179.40 140.7724
1179.50 140.7997
1179.60 140.8271
1179.70 140.8544
1179.80 140.8817
1179.90 140.909
1180.00 140.9364
1180.10 140.9637
1180.20 140.991
1180.30 141.0183
1180.40 141.0456
1180.50 141.073
1180.60 141.1003
1180.70 141.1276
1180.80 141.1549
1180.90 141.1823
1181.00 141.2448
1181.10 141.3307
1181.20 141.4167
1181.30 141.5026
1181.40 141.5885
1181.50 141.6745
1181.60 141.7604
1181.70 141.8464
1181.80 141.9323
1181.90 142.0183
1182.00 142.1042
1182.10 142.1902
1182.20 142.2761
1182.30 142.3621
1182.40 142.448
1182.50 142.534
1182.60 142.6199
1182.70 142.7058
1182.80 142.7918
1182.90 142.8777
1183.00 142.9637
1183.10 143.0496
1183.20 143.1356
1183.30 143.2215
1183.40 143.3075
1183.50 143.3934
1183.60 143.4794
1183.70 143.5653
1183.80 143.6513
1183.90 143.7372
1184.00 143.8232
1184.10 143.9091
1184.20 143.995
1184.30 144.081
1184.40 144.1669
1184.50 144.2529
1184.60 144.3388
1184.70 144.4248
1184.80 144.5107
1184.90 144.5967
1185.00 144.6826
1185.10 144.7686
1185.20 144.8545
1185.30 144.9013
1185.40 144.948
1185.50 144.9948
1185.60 145.0415
1185.70 145.0883
1185.80 145.135
1185.90 145.1818
1186.00 145.2285
1186.10 145.2753
1186.20 145.322
1186.30 145.3688
1186.40 145.4155
1186.50 145.4623
1186.60 145.509
1186.70 145.5558
1186.80 145.6026
1186.90 145.6493
1187.00 145.6961
1187.10 145.7428
1187.20 145.7896
1187.30 145.8363
1187.40 145.8831
1187.50 145.9298
1187.60 145.9766
1187.70 146.0233
1187.80 146.0701
1187.90 146.1168
1188.00 146.1636
1188.10 146.2103
1188.20 146.2571
1188.30 146.3038
1188.40 146.3506
1188.50 146.3974
1188.60 146.4441
1188.70 146.4909
1188.80 146.5376
1188.90 146.5844
1189.00 146.6311
1189.10 146.6779
1189.20 146.7246
1189.30 146.7714
1189.40 146.8181
1189.50 146.8148
1189.60 146.7362
1189.70 146.6576
1189.80 146.5791
1189.90 146.5005
1190.00 146.4219
1190.10 146.3434
1190.20 146.2648
1190.30 146.1862
1190.40 146.1076
1190.50 146.0291
1190.60 145.9505
1190.70 145.8719
1190.80 145.7934
1190.90 145.7148
1191.00 145.6362
1191.10 145.5577
1191.20 145.4791
1191.30 145.4005
1191.40 145.322
1191.50 145.2434
1191.60 145.1648
1191.70 145.0863
1191.80 145.0077
1191.90 144.9291
1192.00 144.8506
1192.10 144.772
1192.20 144.6934
1192.30 144.6149
1192.40 144.5363
1192.50 144.4577
1192.60 144.3792
1192.70 144.3006
1192.80 144.222
1192.90 144.1435
1193.00 144.0649
1193.10 143.9863
1193.20 143.9078
1193.30 143.8292
1193.40 143.7506
1193.50 143.6721
1193.60 143.5935
1193.70 143.5149
1193.80 143.4497
1193.90 143.3901
1194.00 143.3306
1194.10 143.271
1194.20 143.2115
1194.30 143.1519
1194.40 143.0924
1194.50 143.0328
1194.60 142.9732
1194.70 142.9137
1194.80 142.8541
1194.90 142.7946
1195.00 142.735
1195.10 142.6755
1195.20 142.6159
1195.30 142.5564
1195.40 142.4968
1195.50 142.4373
1195.60 142.3777
1195.70 142.3182
1195.80 142.2586
1195.90 142.1991
1196.00 142.1395
1196.10 142.08
1196.20 142.0204
1196.30 141.9609
1196.40 141.9013
1196.50 141.8417
1196.60 141.7822
1196.70 141.7226
1196.80 141.6631
1196.90 141.6035
1197.00 141.544
1197.10 141.4844
1197.20 141.4249
1197.30 141.3653
1197.40 141.3058
1197.50 141.2462
1197.60 141.1867
1197.70 141.1271
1197.80 141.0676
1197.90 141.008
1198.00 140.9485
1198.10 140.9656
1198.20 140.9912
1198.30 141.0168
1198.40 141.0425
1198.50 141.0681
1198.60 141.0937
1198.70 141.1194
1198.80 141.145
1198.90 141.1706
1199.00 141.1963
1199.10 141.2219
1199.20 141.2475
1199.30 141.2732
1199.40 141.2988
1199.50 141.3244
1199.60 141.3501
1199.70 141.3757
1199.80 141.4013
1199.90 141.427
1200.00 141.4526
1200.10 141.4782
1200.20 141.5039
1200.30 141.5295
1200.40 141.5551
1200.50 141.5808
1200.60 141.6064
1200.70 141.632
1200.80 141.6577
1200.90 141.6833
1201.00 141.7089
1201.10 141.7346
1201.20 141.7602
1201.30 141.7858
1201.40 141.8115
1201.50 141.8371
1201.60 141.8627
1201.70 141.8884
1201.80 141.914
1201.90 141.9396
1202.00 141.9653
1202.10 141.9909
1202.20 142.0165
1202.30 142.0461
1202.40 142.1108
1202.50 142.1756
1202.60 142.2404
1202.70 142.3051
1202.80 142.3699
1202.90 142.4346
1203.00 142.4994
1203.10 142.5641
1203.20 142.6289
1203.30 142.6936
1203.40 142.7584
1203.50 142.8231
1203.60 142.8879
1203.70 142.9526
1203.80 143.0174
1203.90 143.0821
1204.00 143.1469
1204.10 143.2117
1204.20 143.2764
1204.30 143.3412
1204.40 143.4059
1204.50 143.4707
1204.60 143.5354
1204.70 143.6002
1204.80 143.6649
1204.90 143.7297
1205.00 143.7944
1205.10 143.8592
1205.20 143.9239
1205.30 143.9887
1205.40 144.0535
1205.50 144.1182
1205.60 144.183
1205.70 144.2477
1205.80 144.3125
1205.90 144.3772
1206.00 144.442
1206.10 144.5067
1206.20 144.5715
1206.30 144.6362
1206.40 144.701
1206.50 144.7657
1206.60 144.8363
1206.70 144.9206
1206.80 145.0049
1206.90 145.0891
1207.00 145.1734
1207.10 145.2577
1207.20 145.3419
1207.30 145.4262
1207.40 145.5105
1207.50 145.5947
1207.60 145.679
1207.70 145.7633
1207.80 145.8475
1207.90 145.9318
1208.00 146.016
1208.10 146.1003
1208.20 146.1846
1208.30 146.2688
1208.40 146.3531
1208.50 146.4374
1208.60 146.5216
1208.70 146.6059
1208.80 146.6902
1208.90 146.7744
1209.00 146.8587
1209.10 146.943
1209.20 147.0272
1209.30 147.1115
1209.40 147.1957
1209.50 147.28
1209.60 147.3643
1209.70 147.4485
1209.80 147.5328
1209.90 147.6171
1210.00 147.7013
1210.10 147.7856
1210.20 147.8699
1210.30 147.9541
1210.40 148.0384
1210.50 148.1227
1210.60 148.2069
1210.70 148.2912
1210.80 148.3755
1210.90 148.4456
1211.00 148.5015
1211.10 148.5575
1211.20 148.6134
1211.30 148.6694
1211.40 148.7254
1211.50 148.7813
1211.60 148.8373
1211.70 148.8932
1211.80 148.9492
1211.90 149.0052
1212.00 149.0611
1212.10 149.1171
1212.20 149.173
1212.30 149.229
1212.40 149.285
1212.50 149.3409
1212.60 149.3969
1212.70 149.4528
1212.80 149.5088
1212.90 149.5648
1213.00 149.6207
1213.10 149.6767
1213.20 149.7326
1213.30 149.7886
1213.40 149.8446
1213.50 149.9005
1213.60 149.9565
1213.70 150.0124
1213.80 150.0684
1213.90 150.1244
1214.00 150.1803
1214.10 150.2363
1214.20 150.2922
1214.30 150.3482
1214.40 150.4042
1214.50 150.4601
1214.60 150.5161
1214.70 150.572
1214.80 150.628
1214.90 150.684
1215.00 150.7399
1215.10 150.7959
1215.20 150.864
1215.30 150.9402
1215.40 151.0163
1215.50 151.0925
1215.60 151.1687
1215.70 151.2448
1215.80 151.321
1215.90 151.3972
1216.00 151.4734
1216.10 151.5495
1216.20 151.6257
1216.30 151.7019
1216.40 151.7781
1216.50 151.8542
1216.60 151.9304
1216.70 152.0066
1216.80 152.0828
1216.90 152.1589
1217.00 152.2351
1217.10 152.3113
1217.20 152.3874
1217.30 152.4636
1217.40 152.5398
1217.50 152.616
1217.60 152.6921
1217.70 152.7683
1217.80 152.8445
1217.90 152.9207
1218.00 152.9968
1218.10 153.073
1218.20 153.1492
1218.30 153.2254
1218.40 153.3015
1218.50 153.3777
1218.60 153.4539
1218.70 153.5301
1218.80 153.6062
1218.90 153.6824
1219.00 153.7586
1219.10 153.8347
1219.20 153.9109
1219.30 153.9871
1219.40 154.0633
1219.50 154.1263
1219.60 154.1837
1219.70 154.2411
1219.80 154.2985
1219.90 154.3559
1220.00 154.4133
1220.10 154.4707
1220.20 154.5281
1220.30 154.5855
1220.40 154.6429
1220.50 154.7003
1220.60 154.7577
1220.70 154.8151
1220.80 154.8724
1220.90 154.9298
1221.00 154.9872
1221.10 155.0446
1221.20 155.102
1221.30 155.1594
1221.40 155.2168
1221.50 155.2742
1221.60 155.3316
1221.70 155.389
1221.80 155.4464
1221.90 155.5038
1222.00 155.5612
1222.10 155.6186
1222.20 155.676
1222.30 155.7334
1222.40 155.7908
1222.50 155.8482
1222.60 155.9056
1222.70 155.963
1222.80 156.0204
1222.90 156.0778
1223.00 156.1352
1223.10 156.1926
1223.20 156.25
1223.30 156.3074
1223.40 156.3648
1223.50 156.4222
1223.60 156.4796
1223.70 156.5369
1223.80 156.5568
1223.90 156.5606
1224.00 156.5645
1224.10 156.5683
1224.20 156.5721
1224.30 156.5759
1224.40 156.5797
1224.50 156.5835
1224.60 156.5873
1224.70 156.5912
1224.80 156.595
1224.90 156.5988
1225.00 156.6026
1225.10 156.6064
1225.20 156.6102
1225.30 156.614
1225.40 156.6179
1225.50 156.6217
1225.60 156.6255
1225.70 156.6293
1225.80 156.6331
1225.90 156.6369
1226.00 156.6407
1226.10 156.6445
1226.20 156.6484
1226.30 156.6522
1226.40 156.656
1226.50 156.6598
1226.60 156.6636
1226.70 156.6674
1226.80 156.6712
1226.90 156.6751
1227.00 156.6789
1227.10 156.6827
1227.20 156.6865
1227.30 156.6903
1227.40 156.6941
1227.50 156.6979
1227.60 156.7018
1227.70 156.7056
1227.80 156.7094
1227.90 156.7132
1228.00 156.717
1228.10 156.7124
1228.20 156.7057
1228.30 156.6991
1228.40 156.6924
1228.50 156.6857
1228.60 156.679
1228.70 156.6723
1228.80 156.6657
1228.90 156.659
1229.00 156.6523
1229.10 156.6456
1229.20 156.6389
1229.30 156.6323
1229.40 156.6256
1229.50 156.6189
1229.60 156.6122
1229.70 156.6055
1229.80 156.5989
1229.90 156.5922
1230.00 156.5855
1230.10 156.5788
1230.20 156.5721
1230.30 156.5655
1230.40 156.5588
1230.50 156.5521
1230.60 156.5454
1230.70 156.5387
1230.80 156.5321
1230.90 156.5254
1231.00 156.5187
1231.10 156.512
1231.20 156.5053
1231.30 156.4987
1231.40 156.492
1231.50 156.4853
1231.60 156.4786
1231.70 156.4719
1231.80 156.4653
1231.90 156.4586
1232.00 156.4519
1232.10 156.4452
1232.20 156.4385
1232.30 156.4319
1232.40 156.3457
1232.50 156.2397
1232.60 156.1336
1232.70 156.0276
1232.80 155.9215
1232.90 155.8155
1233.00 155.7095
1233.10 155.6034
1233.20 155.4974
1233.30 155.3914
1233.40 155.2853
1233.50 155.1793
1233.60 155.0733
1233.70 154.9672
1233.80 154.8612
1233.90 154.7552
1234.00 154.6491
1234.10 154.5431
1234.20 154.4371
1234.30 154.331
1234.40 154.225
1234.50 154.1189
1234.60 154.0129
1234.70 153.9069
1234.80 153.8008
1234.90 153.6948
1235.00 153.5888
1235.10 153.4827
1235.20 153.3767
1235.30 153.2707
1235.40 153.1646
1235.50 153.0586
1235.60 152.9526
1235.70 152.8465
1235.80 152.7405
1235.90 152.6345
1236.00 152.5284
1236.10 152.4224
1236.20 152.3163
1236.30 152.2103
1236.40 152.1043
1236.50 151.9982
1236.60 151.8922
1236.70 151.8329
1236.80 151.7935
1236.90 151.7542
1237.00 151.7148
1237.10 151.6755
1237.20 151.6361
1237.30 151.5968
1237.40 151.5574
1237.50 151.5181
1237.60 151.4788
1237.70 151.4394
1237.80 151.4001
1237.90 151.3607
1238.00 151.3214
1238.10 151.282
1238.20 151.2427
1238.30 151.2034
1238.40 151.164
1238.50 151.1247
1238.60 151.0853
1238.70 151.046
1238.80 151.0066
1238.90 150.9673
1239.00 150.928
1239.10 150.8886
1239.20 150.8493
1239.30 150.8099
1239.40 150.7706
1239.50 150.7312
1239.60 150.6919
1239.70 150.6526
1239.80 150.6132
1239.90 150.5739
1240.00 150.5345
1240.10 150.4952
1240.20 150.4558
1240.30 150.4165
1240.40 150.3771
1240.50 150.3378
1240.60 150.2985
1240.70 150.2591
1240.80 150.2198
1240.90 150.1804
1241.00 150.1382
1241.10 150.0948
1241.20 150.0513
1241.30 150.0079
1241.40 149.9644
1241.50 149.921
1241.60 149.8775
1241.70 149.8341
1241.80 149.7906
1241.90 149.7472
1242.00 149.7037
1242.10 149.6603
1242.20 149.6168
1242.30 149.5734
1242.40 149.5299
1242.50 149.4865
1242.60 149.443
1242.70 149.3996
1242.80 149.3561
1242.90 149.3127
1243.00 149.2692
1243.10 149.2258
1243.20 149.1823
1243.30 149.1389
1243.40 149.0954
1243.50 149.052
1243.60 149.0085
1243.70 148.9651
1243.80 148.9216
1243.90 148.8782
1244.00 148.8347
1244.10 148.7913
1244.20 148.7478
1244.30 148.7044
1244.40 148.6609
1244.50 148.6175
1244.60 148.574
1244.70 148.5306
1244.80 148.4871
1244.90 148.4437
1245.00 148.4002
1245.10 148.3568
1245.20 148.3133
1245.30 148.3464
1245.40 148.4305
1245.50 148.5147
1245.60 148.5988
1245.70 148.683
1245.80 148.7671
1245.90 148.8512
1246.00 148.9354
1246.10 149.0195
1246.20 149.1037
1246.30 149.1878
1246.40 149.272
1246.50 149.3561
1246.60 149.4402
1246.70 149.5244
1246.80 149.6085
1246.90 149.6927
1247.00 149.7768
1247.10 149.8609
1247.20 149.9451
1247.30 150.0292
1247.40 150.1134
1247.50 150.1975
1247.60 150.2816
1247.70 150.3658
1247.80 150.4499
1247.90 150.5341
1248.00 150.6182
1248.10 150.7023
1248.20 150.7865
1248.30 150.8706
1248.40 150.9548
1248.50 151.0389
1248.60 151.123
1248.70 151.2072
1248.80 151.2913
1248.90 151.3755
1249.00 151.4596
1249.10 151.5437
1249.20 151.6279
1249.30 151.712
1249.40 151.7962
1249.50 151.8803
1249.60 151.9593
1249.70 152.0332
1249.80 152.1071
1249.90 152.181
1250.00 152.2549
1250.10 152.3288
1250.20 152.4027
1250.30 152.4766
1250.40 152.5505
1250.50 152.6244
1250.60 152.6983
1250.70 152.7722
1250.80 152.846
1250.90 152.9199
1251.00 152.9938
1251.10 153.0677
1251.20 153.1416
1251.30 153.2155
1251.40 153.2894
1251.50 153.3633
1251.60 153.4372
1251.70 153.5111
1251.80 153.585
1251.90 153.6589
1252.00 153.7328
1252.10 153.8067
1252.20 153.8806
1252.30 153.9545
1252.40 154.0284
1252.50 154.1023
1252.60 154.1761
1252.70 154.25
1252.80 154.3239
1252.90 154.3978
1253.00 154.4717
1253.10 154.5456
1253.20 154.6195
1253.30 154.6934
1253.40 154.7673
1253.50 154.8412
1253.60 154.9151
1253.70 154.989
1253.80 155.0629
1253.90 155.156
1254.00 155.278
1254.10 155.4
1254.20 155.522
1254.30 155.644
1254.40 155.766
1254.50 155.888
1254.60 156.01
1254.70 156.132
1254.80 156.254
1254.90 156.376
1255.00 156.498
1255.10 156.6201
1255.20 156.7421
1255.30 156.8641
1255.40 156.9861
1255.50 157.1081
1255.60 157.2301
1255.70 157.3521
1255.80 157.4741
1255.90 157.5961
1256.00 157.7181
1256.10 157.8401
1256.20 157.9621
1256.30 158.0841
1256.40 158.2061
1256.50 158.3281
1256.60 158.4501
1256.70 158.5721
1256.80 158.6941
1256.90 158.8161
1257.00 158.9381
1257.10 159.0601
1257.20 159.1821
1257.30 159.3041
1257.40 159.4261
1257.50 159.5481
1257.60 159.6701
1257.70 159.7921
1257.80 159.9141
1257.90 160.0361
1258.00 160.1581
1258.10 160.2801
1258.20 160.3706
1258.30 160.3876
1258.40 160.4046
1258.50 160.4216
1258.60 160.4385
1258.70 160.4555
1258.80 160.4725
1258.90 160.4894
1259.00 160.5064
1259.10 160.5234
1259.20 160.5404
1259.30 160.5573
1259.40 160.5743
1259.50 160.5913
1259.60 160.6083
1259.70 160.6252
1259.80 160.6422
1259.90 160.6592
1260.00 160.6761
1260.10 160.6931
1260.20 160.7101
1260.30 160.7271
1260.40 160.744
1260.50 160.761
1260.60 160.778
1260.70 160.795
1260.80 160.8119
1260.90 160.8289
1261.00 160.8459
1261.10 160.8629
1261.20 160.8798
1261.30 160.8968
1261.40 160.9138
1261.50 160.9307
1261.60 160.9477
1261.70 160.9647
1261.80 160.9817
1261.90 160.9986
1262.00 161.0156
1262.10 161.0326
1262.20 161.0496
1262.30 161.0665
1262.40 161.0835
1262.50 161.1199
1262.60 161.234
1262.70 161.3482
1262.80 161.4623
1262.90 161.5764
1263.00 161.6905
1263.10 161.8047
1263.20 161.9188
1263.30 162.0329
1263.40 162.147
1263.50 162.2612
1263.60 162.3753
1263.70 162.4894
1263.80 162.6035
1263.90 162.7177
1264.00 162.8318
1264.10 162.9459
1264.20 163.06
1264.30 163.1742
1264.40 163.2883
1264.50 163.4024
1264.60 163.5165
1264.70 163.6307
1264.80 163.7448
1264.90 163.8589
1265.00 163.973
1265.10 164.0872
1265.20 164.2013
1265.30 164.3154
1265.40 164.4295
1265.50 164.5437
1265.60 164.6578
1265.70 164.7719
1265.80 164.886
1265.90 165.0002
1266.00 165.1143
1266.10 165.2284
1266.20 165.3425
1266.30 165.4567
1266.40 165.5708
1266.50 165.6849
1266.60 165.799
1266.70 165.9132
1266.80 166.0273
1266.90 165.9581
1267.00 165.8888
1267.10 165.8196
1267.20 165.7504
1267.30 165.6812
1267.40 165.6119
1267.50 165.5427
1267.60 165.4735
1267.70 165.4043
1267.80 165.335
1267.90 165.2658
1268.00 165.1966
1268.10 165.1274
1268.20 165.0581
1268.30 164.9889
1268.40 164.9197
1268.50 164.8504
1268.60 164.7812
1268.70 164.712
1268.80 164.6428
1268.90 164.5735
1269.00 164.5043
1269.10 164.4351
1269.20 164.3659
1269.30 164.2966
1269.40 164.2274
1269.50 164.1582
1269.60 164.0889
1269.70 164.0197
1269.80 163.9505
1269.90 163.8813
1270.00 163.812
1270.10 163.7428
1270.20 163.6736
1270.30 163.6044
1270.40 163.5351
1270.50 163.4659
1270.60 163.3967
1270.70 163.3275
1270.80 163.2582
1270.90 163.189
1271.00 163.1198
1271.10 163.0505
1271.20 163.1126
1271.30 163.1891
1271.40 163.2657
1271.50 163.3423
1271.60 163.4189
1271.70 163.4955
1271.80 163.5721
1271.90 163.6487
1272.00 163.7253
1272.10 163.8019
1272.20 163.8785
1272.30 163.955
1272.40 164.0316
1272.50 164.1082
1272.60 164.1848
1272.70 164.2614
1272.80 164.338
1272.90 164.4146
1273.00 164.4912
1273.10 164.5678
1273.20 164.6444
1273.30 164.7209
1273.40 164.7975
1273.50 164.8741
1273.60 164.9507
1273.70 165.0273
1273.80 165.1039
1273.90 165.1805
1274.00 165.2571
1274.10 165.3337
1274.20 165.4103
1274.30 165.4869
1274.40 165.5634
1274.50 165.64
1274.60 165.7166
1274.70 165.7932
1274.80 165.8698
1274.90 165.9464
1275.00 166.023
1275.10 166.0996
1275.20 166.1762
1275.30 166.2528
1275.40 166.3293
1275.50 166.3536
1275.60 166.3554
1275.70 166.3571
1275.80 166.3589
1275.90 166.3607
1276.00 166.3625
1276.10 166.3643
1276.20 166.3661
1276.30 166.3679
1276.40 166.3697
1276.50 166.3714
1276.60 166.3732
1276.70 166.375
1276.80 166.3768
1276.90 166.3786
1277.00 166.3804
1277.10 166.3822
1277.20 166.384
1277.30 166.3857
1277.40 166.3875
1277.50 166.3893
1277.60 166.3911
1277.70 166.3929
1277.80 166.3947
1277.90 166.3965
1278.00 166.3982
1278.10 166.4
1278.20 166.4018
1278.30 166.4036
1278.40 166.4054
1278.50 166.4072
1278.60 166.409
1278.70 166.4108
1278.80 166.4125
1278.90 166.4143
1279.00 166.4161
1279.10 166.4179
1279.20 166.4197
1279.30 166.4215
1279.40 166.4233
1279.50 166.4251
1279.60 166.4268
1279.70 166.4286
1279.80 166.434
1279.90 166.4418
1280.00 166.4496
1280.10 166.4574
1280.20 166.4652
1280.30 166.473
1280.40 166.4809
1280.50 166.4887
1280.60 166.4965
1280.70 166.5043
1280.80 166.5121
1280.90 166.5199
1281.00 166.5277
1281.10 166.5355
1281.20 166.5433
1281.30 166.5511
1281.40 166.5589
1281.50 166.5667
1281.60 166.5745
1281.70 166.5823
1281.80 166.5901
1281.90 166.5979
1282.00 166.6057
1282.10 166.6135
1282.20 166.6213
1282.30 166.6291
1282.40 166.637
1282.50 166.6448
1282.60 166.6526
1282.70 166.6604
1282.80 166.6682
1282.90 166.676
1283.00 166.6838
1283.10 166.6916
1283.20 166.6994
1283.30 166.7072
1283.40 166.715
1283.50 166.7228
1283.60 166.7306
1283.70 166.7384
1283.80 166.7462
1283.90 166.754
1284.00 166.7618
1284.10 166.7867
1284.20 166.8373
1284.30 166.8878
1284.40 166.9384
1284.50 166.9889
1284.60 167.0395
1284.70 167.09
1284.80 167.1406
1284.90 167.1911
1285.00 167.2416
1285.10 167.2922
1285.20 167.3427
1285.30 167.3933
1285.40 167.4438
1285.50 167.4944
1285.60 167.5449
1285.70 167.5955
1285.80 167.646
1285.90 167.6966
1286.00 167.7471
1286.10 167.7977
1286.20 167.8482
1286.30 167.8987
1286.40 167.9493
1286.50 167.9998
1286.60 168.0504
1286.70 168.1009
1286.80 168.1515
1286.90 168.202
1287.00 168.2526
1287.10 168.3031
1287.20 168.3537
1287.30 168.4042
1287.40 168.4547
1287.50 168.5053
1287.60 168.5558
1287.70 168.6064
1287.80 168.6569
1287.90 168.7075
1288.00 168.758
1288.10 168.8086
1288.20 168.8591
1288.30 168.9097
1288.40 168.9552
1288.50 168.9806
1288.60 169.006
1288.70 169.0314
1288.80 169.0568
1288.90 169.0822
1289.00 169.1076
1289.10 169.133
1289.20 169.1584
1289.30 169.1838
1289.40 169.2092
1289.50 169.2346
1289.60 169.26
1289.70 169.2854
1289.80 169.3109
1289.90 169.3363
1290.00 169.3617
1290.10 169.3871
1290.20 169.4125
1290.30 169.4379
1290.40 169.4633
1290.50 169.4887
1290.60 169.5141
1290.70 169.5395
1290.80 169.5649
1290.90 169.5903
1291.00 169.6157
1291.10 169.6411
1291.20 169.6665
1291.30 169.6919
1291.40 169.7173
1291.50 169.7427
1291.60 169.7682
1291.70 169.7936
1291.80 169.819
1291.90 169.8444
1292.00 169.8698
1292.10 169.8952
1292.20 169.9206
1292.30 169.946
1292.40 169.9714
1292.50 169.9968
1292.60 170.0222
1292.70 170.0476
1292.80 170.0611
1292.90 170.0747
1293.00 170.0882
1293.10 170.1017
1293.20 170.1152
1293.30 170.1287
1293.40 170.1423
1293.50 170.1558
1293.60 170.1693
1293.70 170.1828
1293.80 170.1963
1293.90 170.2099
1294.00 170.2234
1294.10 170.2369
1294.20 170.2504
1294.30 170.2639
1294.40 170.2775
1294.50 170.291
1294.60 170.3045
1294.70 170.318
1294.80 170.3315
1294.90 170.3451
1295.00 170.3586
1295.10 170.3721
1295.20 170.3856
1295.30 170.3991
1295.40 170.4127
1295.50 170.4262
1295.60 170.4397
1295.70 170.4532
1295.80 170.4667
1295.90 170.4803
1296.00 170.4938
1296.10 170.5073
1296.20 170.5208
1296.30 170.5343
1296.40 170.5479
1296.50 170.5614
1296.60 170.5749
1296.70 170.5884
1296.80 170.602
1296.90 170.6155
1297.00 170.629
1297.10 170.6105
1297.20 170.5841
1297.30 170.5576
1297.40 170.5311
1297.50 170.5047
1297.60 170.4782
1297.70 170.4517
1297.80 170.4252
1297.90 170.3988
1298.00 170.3723
1298.10 170.3458
1298.20 170.3194
1298.30 170.2929
1298.40 170.2664
1298.50 170.24
1298.60 170.2135
1298.70 170.187
1298.80 170.1606
1298.90 170.1341
1299.00 170.1076
1299.10 170.0812
1299.20 170.0547
1299.30 170.0282
1299.40 170.0018
1299.50 169.9753
1299.60 169.9488
1299.70 169.9224
1299.80 169.8959
1299.90 169.8694
