# Version 2.1 - nm, norm@500 to 1, cut digits
# Wavelength(nm)  Flambda(ergs/cm^s/s/nm)
300.00 1.63387e-95
300.10 1.63387e-95
300.20 1.63387e-95
300.30 1.63387e-95
300.40 1.63387e-95
300.50 1.63387e-95
300.60 1.63387e-95
300.70 1.63387e-95
300.80 1.63387e-95
300.90 1.63387e-95
301.00 1.63387e-95
301.10 1.63387e-95
301.20 1.63387e-95
301.30 1.63387e-95
301.40 1.63387e-95
301.50 1.63387e-95
301.60 1.63387e-95
301.70 1.63387e-95
301.80 1.63387e-95
301.90 1.63387e-95
302.00 1.63387e-95
302.10 1.63387e-95
302.20 1.63387e-95
302.30 1.63387e-95
302.40 1.63387e-95
302.50 1.63387e-95
302.60 1.63387e-95
302.70 1.63387e-95
302.80 1.63387e-95
302.90 1.63387e-95
303.00 1.63387e-95
303.10 1.63387e-95
303.20 1.63387e-95
303.30 1.63387e-95
303.40 1.63387e-95
303.50 1.63387e-95
303.60 1.63387e-95
303.70 1.63387e-95
303.80 1.63387e-95
303.90 1.63387e-95
304.00 1.63387e-95
304.10 1.63387e-95
304.20 1.63387e-95
304.30 1.63387e-95
304.40 1.63387e-95
304.50 1.63387e-95
304.60 1.63387e-95
304.70 1.63387e-95
304.80 1.63387e-95
304.90 1.63387e-95
305.00 1.63387e-95
305.10 1.63387e-95
305.20 1.63387e-95
305.30 1.63387e-95
305.40 1.63387e-95
305.50 1.63387e-95
305.60 1.63387e-95
305.70 1.63387e-95
305.80 1.63387e-95
305.90 1.63387e-95
306.00 1.63387e-95
306.10 1.63387e-95
306.20 1.63387e-95
306.30 1.63387e-95
306.40 1.63387e-95
306.50 1.63387e-95
306.60 1.63387e-95
306.70 1.63387e-95
306.80 1.63387e-95
306.90 1.63387e-95
307.00 1.63387e-95
307.10 1.63387e-95
307.20 1.63387e-95
307.30 1.63387e-95
307.40 1.63387e-95
307.50 1.63387e-95
307.60 1.63387e-95
307.70 1.63387e-95
307.80 1.63387e-95
307.90 1.63387e-95
308.00 1.63387e-95
308.10 1.63387e-95
308.20 1.63387e-95
308.30 1.63387e-95
308.40 1.63387e-95
308.50 1.63387e-95
308.60 1.63387e-95
308.70 1.63387e-95
308.80 1.63387e-95
308.90 1.63387e-95
309.00 1.63387e-95
309.10 1.63387e-95
309.20 1.63387e-95
309.30 1.63387e-95
309.40 1.63387e-95
309.50 1.63387e-95
309.60 1.63387e-95
309.70 1.63387e-95
309.80 1.63387e-95
309.90 1.63387e-95
310.00 1.63387e-95
310.10 1.63387e-95
310.20 1.63387e-95
310.30 1.63387e-95
310.40 1.63387e-95
310.50 1.63387e-95
310.60 1.63387e-95
310.70 1.63387e-95
310.80 1.63387e-95
310.90 1.63387e-95
311.00 1.63387e-95
311.10 1.63387e-95
311.20 1.63387e-95
311.30 1.63387e-95
311.40 1.63387e-95
311.50 1.63387e-95
311.60 1.63387e-95
311.70 1.63387e-95
311.80 1.63387e-95
311.90 1.63387e-95
312.00 1.63387e-95
312.10 1.63387e-95
312.20 1.63387e-95
312.30 1.63387e-95
312.40 1.63387e-95
312.50 1.63387e-95
312.60 1.63387e-95
312.70 1.63387e-95
312.80 1.63387e-95
312.90 1.63387e-95
313.00 1.63387e-95
313.10 1.63387e-95
313.20 1.63387e-95
313.30 1.63387e-95
313.40 1.63387e-95
313.50 1.63387e-95
313.60 1.63387e-95
313.70 1.63387e-95
313.80 1.63387e-95
313.90 1.63387e-95
314.00 1.63387e-95
314.10 1.63387e-95
314.20 1.63387e-95
314.30 1.63387e-95
314.40 1.63387e-95
314.50 1.63387e-95
314.60 1.63387e-95
314.70 1.63387e-95
314.80 1.63387e-95
314.90 1.63387e-95
315.00 1.63387e-95
315.10 1.63387e-95
315.20 1.63387e-95
315.30 1.63387e-95
315.40 1.63387e-95
315.50 1.63387e-95
315.60 1.63387e-95
315.70 1.63387e-95
315.80 1.63387e-95
315.90 1.63387e-95
316.00 1.63387e-95
316.10 1.63387e-95
316.20 1.63387e-95
316.30 1.63387e-95
316.40 1.63387e-95
316.50 1.63387e-95
316.60 1.63387e-95
316.70 1.63387e-95
316.80 1.63387e-95
316.90 1.63387e-95
317.00 1.63387e-95
317.10 1.63387e-95
317.20 1.63387e-95
317.30 1.63387e-95
317.40 1.63387e-95
317.50 1.63387e-95
317.60 1.63387e-95
317.70 1.63387e-95
317.80 1.63387e-95
317.90 1.63387e-95
318.00 1.63387e-95
318.10 1.63387e-95
318.20 1.63387e-95
318.30 1.63387e-95
318.40 1.63387e-95
318.50 1.63387e-95
318.60 1.63387e-95
318.70 1.63387e-95
318.80 1.63387e-95
318.90 1.63387e-95
319.00 1.63387e-95
319.10 1.63387e-95
319.20 1.63387e-95
319.30 1.63387e-95
319.40 1.63387e-95
319.50 1.63387e-95
319.60 1.63387e-95
319.70 1.63387e-95
319.80 1.63387e-95
319.90 1.63387e-95
320.00 1.63387e-95
320.10 1.63387e-95
320.20 1.63387e-95
320.30 1.63387e-95
320.40 1.63387e-95
320.50 1.63387e-95
320.60 1.63387e-95
320.70 1.63387e-95
320.80 1.63387e-95
320.90 1.63387e-95
321.00 1.63387e-95
321.10 1.63387e-95
321.20 1.63387e-95
321.30 1.63387e-95
321.40 1.63387e-95
321.50 1.63387e-95
321.60 1.63387e-95
321.70 1.63387e-95
321.80 1.63387e-95
321.90 1.63387e-95
322.00 1.63387e-95
322.10 1.63387e-95
322.20 1.63387e-95
322.30 1.63387e-95
322.40 1.63387e-95
322.50 1.63387e-95
322.60 1.63387e-95
322.70 1.63387e-95
322.80 1.63387e-95
322.90 1.63387e-95
323.00 1.63387e-95
323.10 1.63387e-95
323.20 1.63387e-95
323.30 1.63387e-95
323.40 1.63387e-95
323.50 1.63387e-95
323.60 1.63387e-95
323.70 1.63387e-95
323.80 1.63387e-95
323.90 1.63387e-95
324.00 1.63387e-95
324.10 1.63387e-95
324.20 1.63387e-95
324.30 1.63387e-95
324.40 1.63387e-95
324.50 1.63387e-95
324.60 1.63387e-95
324.70 1.63387e-95
324.80 1.63387e-95
324.90 1.63387e-95
325.00 1.63387e-95
325.10 1.63387e-95
325.20 1.63387e-95
325.30 1.63387e-95
325.40 1.63387e-95
325.50 1.63387e-95
325.60 1.63387e-95
325.70 1.63387e-95
325.80 1.63387e-95
325.90 1.63387e-95
326.00 1.63387e-95
326.10 1.63387e-95
326.20 1.63387e-95
326.30 1.63387e-95
326.40 1.63387e-95
326.50 1.63387e-95
326.60 1.63387e-95
326.70 1.63387e-95
326.80 1.63387e-95
326.90 1.63387e-95
327.00 1.63387e-95
327.10 1.63387e-95
327.20 1.63387e-95
327.30 1.63387e-95
327.40 1.63387e-95
327.50 1.63387e-95
327.60 1.63387e-95
327.70 1.63387e-95
327.80 1.63387e-95
327.90 1.63387e-95
328.00 1.63387e-95
328.10 1.63387e-95
328.20 1.63387e-95
328.30 1.63387e-95
328.40 1.63387e-95
328.50 1.63387e-95
328.60 1.63387e-95
328.70 1.63387e-95
328.80 1.63387e-95
328.90 1.63387e-95
329.00 1.63387e-95
329.10 1.63387e-95
329.20 1.63387e-95
329.30 1.63387e-95
329.40 1.63387e-95
329.50 1.63387e-95
329.60 1.63387e-95
329.70 1.63387e-95
329.80 1.63387e-95
329.90 1.63387e-95
330.00 1.63387e-95
330.10 1.63387e-95
330.20 1.63387e-95
330.30 1.63387e-95
330.40 1.63387e-95
330.50 1.63387e-95
330.60 1.63387e-95
330.70 1.63387e-95
330.80 1.63387e-95
330.90 1.63387e-95
331.00 1.63387e-95
331.10 1.63387e-95
331.20 1.63387e-95
331.30 1.63387e-95
331.40 1.63387e-95
331.50 1.63387e-95
331.60 1.63387e-95
331.70 1.63387e-95
331.80 1.63387e-95
331.90 1.63387e-95
332.00 1.63387e-95
332.10 1.63387e-95
332.20 1.63387e-95
332.30 1.63387e-95
332.40 1.63387e-95
332.50 1.63387e-95
332.60 1.63387e-95
332.70 1.63387e-95
332.80 1.63387e-95
332.90 1.63387e-95
333.00 1.63387e-95
333.10 1.63387e-95
333.20 1.63387e-95
333.30 1.63387e-95
333.40 1.63387e-95
333.50 1.63387e-95
333.60 1.63387e-95
333.70 1.63387e-95
333.80 1.63387e-95
333.90 1.63387e-95
334.00 1.63387e-95
334.10 1.63387e-95
334.20 1.63387e-95
334.30 1.63387e-95
334.40 1.63387e-95
334.50 1.63387e-95
334.60 1.63387e-95
334.70 1.63387e-95
334.80 1.63387e-95
334.90 1.63387e-95
335.00 1.63387e-95
335.10 1.63387e-95
335.20 1.63387e-95
335.30 1.63387e-95
335.40 1.63387e-95
335.50 1.63387e-95
335.60 1.63387e-95
335.70 1.63387e-95
335.80 1.63387e-95
335.90 1.63387e-95
336.00 1.63387e-95
336.10 1.63387e-95
336.20 1.63387e-95
336.30 1.63387e-95
336.40 1.63387e-95
336.50 1.63387e-95
336.60 1.63387e-95
336.70 1.63387e-95
336.80 1.63387e-95
336.90 1.63387e-95
337.00 1.63387e-95
337.10 1.63387e-95
337.20 1.63387e-95
337.30 1.63387e-95
337.40 1.63387e-95
337.50 1.63387e-95
337.60 1.63387e-95
337.70 1.63387e-95
337.80 1.63387e-95
337.90 1.63387e-95
338.00 1.63387e-95
338.10 1.63387e-95
338.20 1.63387e-95
338.30 1.63387e-95
338.40 1.63387e-95
338.50 1.63387e-95
338.60 1.63387e-95
338.70 1.63387e-95
338.80 1.63387e-95
338.90 1.63387e-95
339.00 1.63387e-95
339.10 1.63387e-95
339.20 1.63387e-95
339.30 1.63387e-95
339.40 1.63387e-95
339.50 1.63387e-95
339.60 1.63387e-95
339.70 1.63387e-95
339.80 1.63387e-95
339.90 1.63387e-95
340.00 1.63387e-95
340.10 1.63387e-95
340.20 1.63387e-95
340.30 1.63387e-95
340.40 1.63387e-95
340.50 1.63387e-95
340.60 1.63387e-95
340.70 1.63387e-95
340.80 1.63387e-95
340.90 1.63387e-95
341.00 1.63387e-95
341.10 1.63387e-95
341.20 1.63387e-95
341.30 1.63387e-95
341.40 1.63387e-95
341.50 1.63387e-95
341.60 1.63387e-95
341.70 1.63387e-95
341.80 1.63387e-95
341.90 1.63387e-95
342.00 1.63387e-95
342.10 1.63387e-95
342.20 1.63387e-95
342.30 1.63387e-95
342.40 1.63387e-95
342.50 1.63387e-95
342.60 1.63387e-95
342.70 1.63387e-95
342.80 1.63387e-95
342.90 1.63387e-95
343.00 1.63387e-95
343.10 1.63387e-95
343.20 1.63387e-95
343.30 1.63387e-95
343.40 1.63387e-95
343.50 1.63387e-95
343.60 1.63387e-95
343.70 1.63387e-95
343.80 1.63387e-95
343.90 1.63387e-95
344.00 1.63387e-95
344.10 1.63387e-95
344.20 1.63387e-95
344.30 1.63387e-95
344.40 1.63387e-95
344.50 1.63387e-95
344.60 1.63387e-95
344.70 1.63387e-95
344.80 1.63387e-95
344.90 1.63387e-95
345.00 1.63387e-95
345.10 1.63387e-95
345.20 1.63387e-95
345.30 1.63387e-95
345.40 1.63387e-95
345.50 1.63387e-95
345.60 1.63387e-95
345.70 1.63387e-95
345.80 1.63387e-95
345.90 1.63387e-95
346.00 1.63387e-95
346.10 1.63387e-95
346.20 1.63387e-95
346.30 1.63387e-95
346.40 1.63387e-95
346.50 1.63387e-95
346.60 1.63387e-95
346.70 1.63387e-95
346.80 1.63387e-95
346.90 1.63387e-95
347.00 1.63387e-95
347.10 1.63387e-95
347.20 1.63387e-95
347.30 1.63387e-95
347.40 1.63387e-95
347.50 1.63387e-95
347.60 1.63387e-95
347.70 1.63387e-95
347.80 1.63387e-95
347.90 1.63387e-95
348.00 1.63387e-95
348.10 1.63387e-95
348.20 1.63387e-95
348.30 1.63387e-95
348.40 1.63387e-95
348.50 1.63387e-95
348.60 1.63387e-95
348.70 1.63387e-95
348.80 1.63387e-95
348.90 1.63387e-95
349.00 1.63387e-95
349.10 1.63387e-95
349.20 1.63387e-95
349.30 1.63387e-95
349.40 1.63387e-95
349.50 1.63387e-95
349.60 1.63387e-95
349.70 1.63387e-95
349.80 1.63387e-95
349.90 1.63387e-95
350.00 1.63387e-95
350.10 1.63387e-95
350.20 1.63387e-95
350.30 1.63387e-95
350.40 1.63387e-95
350.50 1.63387e-95
350.60 1.63387e-95
350.70 1.63387e-95
350.80 1.63387e-95
350.90 1.63387e-95
351.00 1.63387e-95
351.10 1.63387e-95
351.20 1.63387e-95
351.30 1.63387e-95
351.40 1.63387e-95
351.50 1.63387e-95
351.60 1.63387e-95
351.70 1.63387e-95
351.80 1.63387e-95
351.90 1.63387e-95
352.00 1.63387e-95
352.10 1.63387e-95
352.20 1.63387e-95
352.30 1.63387e-95
352.40 1.63387e-95
352.50 1.63387e-95
352.60 1.63387e-95
352.70 1.63387e-95
352.80 1.63387e-95
352.90 1.63387e-95
353.00 1.63387e-95
353.10 1.63387e-95
353.20 1.63387e-95
353.30 1.63387e-95
353.40 1.63387e-95
353.50 1.63387e-95
353.60 1.63387e-95
353.70 1.63387e-95
353.80 1.63387e-95
353.90 1.63387e-95
354.00 1.63387e-95
354.10 1.63387e-95
354.20 1.63387e-95
354.30 1.63387e-95
354.40 1.63387e-95
354.50 1.63387e-95
354.60 1.63387e-95
354.70 1.63387e-95
354.80 1.63387e-95
354.90 1.63387e-95
355.00 1.63387e-95
355.10 1.63387e-95
355.20 1.63387e-95
355.30 1.63387e-95
355.40 1.63387e-95
355.50 1.63387e-95
355.60 1.63387e-95
355.70 1.63387e-95
355.80 1.63387e-95
355.90 1.63387e-95
356.00 1.63387e-95
356.10 1.63387e-95
356.20 1.63387e-95
356.30 1.63387e-95
356.40 1.63387e-95
356.50 1.63387e-95
356.60 1.63387e-95
356.70 1.63387e-95
356.80 1.63387e-95
356.90 1.63387e-95
357.00 1.63387e-95
357.10 1.63387e-95
357.20 1.63387e-95
357.30 1.63387e-95
357.40 1.63387e-95
357.50 1.63387e-95
357.60 1.63387e-95
357.70 1.63387e-95
357.80 1.63387e-95
357.90 1.63387e-95
358.00 1.63387e-95
358.10 1.63387e-95
358.20 1.63387e-95
358.30 1.63387e-95
358.40 1.63387e-95
358.50 1.63387e-95
358.60 1.63387e-95
358.70 1.63387e-95
358.80 1.63387e-95
358.90 1.63387e-95
359.00 1.63387e-95
359.10 1.63387e-95
359.20 1.63387e-95
359.30 1.63387e-95
359.40 1.63387e-95
359.50 1.63387e-95
359.60 1.63387e-95
359.70 1.63387e-95
359.80 1.63387e-95
359.90 1.63387e-95
360.00 1.63387e-95
360.10 1.63387e-95
360.20 1.63387e-95
360.30 1.63387e-95
360.40 1.63387e-95
360.50 1.63387e-95
360.60 1.63387e-95
360.70 1.63387e-95
360.80 1.63387e-95
360.90 1.63387e-95
361.00 1.63387e-95
361.10 1.63387e-95
361.20 1.63387e-95
361.30 1.63387e-95
361.40 1.63387e-95
361.50 1.63387e-95
361.60 1.63387e-95
361.70 1.63387e-95
361.80 1.63387e-95
361.90 1.63387e-95
362.00 1.63387e-95
362.10 1.63387e-95
362.20 1.63387e-95
362.30 1.63387e-95
362.40 1.63387e-95
362.50 1.63387e-95
362.60 1.63387e-95
362.70 1.63387e-95
362.80 1.63387e-95
362.90 1.63387e-95
363.00 1.63387e-95
363.10 1.63387e-95
363.20 1.63387e-95
363.30 1.63387e-95
363.40 1.63387e-95
363.50 1.63387e-95
363.60 1.63387e-95
363.70 1.63387e-95
363.80 1.63387e-95
363.90 1.63387e-95
364.00 1.63387e-95
364.10 1.63387e-95
364.20 1.63387e-95
364.30 1.63387e-95
364.40 1.63387e-95
364.50 1.63387e-95
364.60 1.63387e-95
364.70 1.63387e-95
364.80 1.63387e-95
364.90 1.63387e-95
365.00 1.63387e-95
365.10 1.63387e-95
365.20 1.63387e-95
365.30 1.63387e-95
365.40 1.63387e-95
365.50 1.63387e-95
365.60 1.63387e-95
365.70 1.63387e-95
365.80 1.63387e-95
365.90 1.63387e-95
366.00 1.63387e-95
366.10 1.63387e-95
366.20 1.63387e-95
366.30 1.63387e-95
366.40 1.63387e-95
366.50 1.63387e-95
366.60 1.63387e-95
366.70 1.63387e-95
366.80 1.63387e-95
366.90 1.63387e-95
367.00 1.63387e-95
367.10 1.63387e-95
367.20 1.63387e-95
367.30 1.63387e-95
367.40 1.63387e-95
367.50 1.63387e-95
367.60 1.63387e-95
367.70 1.63387e-95
367.80 1.63387e-95
367.90 1.63387e-95
368.00 1.63387e-95
368.10 1.63387e-95
368.20 1.63387e-95
368.30 1.63387e-95
368.40 1.63387e-95
368.50 1.63387e-95
368.60 1.63387e-95
368.70 1.63387e-95
368.80 1.63387e-95
368.90 1.63387e-95
369.00 1.63387e-95
369.10 1.63387e-95
369.20 1.63387e-95
369.30 1.63387e-95
369.40 1.63387e-95
369.50 1.63387e-95
369.60 1.63387e-95
369.70 1.63387e-95
369.80 1.63387e-95
369.90 1.63387e-95
370.00 1.63387e-95
370.10 1.63387e-95
370.20 1.63387e-95
370.30 1.63387e-95
370.40 1.63387e-95
370.50 1.63387e-95
370.60 1.63387e-95
370.70 1.63387e-95
370.80 1.63387e-95
370.90 1.63387e-95
371.00 1.63387e-95
371.10 1.63387e-95
371.20 1.63387e-95
371.30 1.63387e-95
371.40 1.63387e-95
371.50 1.63387e-95
371.60 1.63387e-95
371.70 1.63387e-95
371.80 1.63387e-95
371.90 1.63387e-95
372.00 1.63387e-95
372.10 1.63387e-95
372.20 1.63387e-95
372.30 1.63387e-95
372.40 1.63387e-95
372.50 1.63387e-95
372.60 1.63387e-95
372.70 1.63387e-95
372.80 1.63387e-95
372.90 1.63387e-95
373.00 1.63387e-95
373.10 1.63387e-95
373.20 1.63387e-95
373.30 1.63387e-95
373.40 1.63387e-95
373.50 1.63387e-95
373.60 1.63387e-95
373.70 1.63387e-95
373.80 1.63387e-95
373.90 1.63387e-95
374.00 1.63387e-95
374.10 1.63387e-95
374.20 1.63387e-95
374.30 1.63387e-95
374.40 1.63387e-95
374.50 1.63387e-95
374.60 1.63387e-95
374.70 1.63387e-95
374.80 1.63387e-95
374.90 1.63387e-95
375.00 1.63387e-95
375.10 1.63387e-95
375.20 1.63387e-95
375.30 1.63387e-95
375.40 1.63387e-95
375.50 1.63387e-95
375.60 1.63387e-95
375.70 1.63387e-95
375.80 1.63387e-95
375.90 1.63387e-95
376.00 1.63387e-95
376.10 1.63387e-95
376.20 1.63387e-95
376.30 1.63387e-95
376.40 1.63387e-95
376.50 1.63387e-95
376.60 1.63387e-95
376.70 1.63387e-95
376.80 1.63387e-95
376.90 1.63387e-95
377.00 1.63387e-95
377.10 1.63387e-95
377.20 1.63387e-95
377.30 1.63387e-95
377.40 1.63387e-95
377.50 1.63387e-95
377.60 1.63387e-95
377.70 1.63387e-95
377.80 1.63387e-95
377.90 1.63387e-95
378.00 1.63387e-95
378.10 1.63387e-95
378.20 1.63387e-95
378.30 1.63387e-95
378.40 1.63387e-95
378.50 1.63387e-95
378.60 1.63387e-95
378.70 1.63387e-95
378.80 1.63387e-95
378.90 1.63387e-95
379.00 1.63387e-95
379.10 1.63387e-95
379.20 1.63387e-95
379.30 1.63387e-95
379.40 1.63387e-95
379.50 1.63387e-95
379.60 1.63387e-95
379.70 1.63387e-95
379.80 1.63387e-95
379.90 1.63387e-95
380.00 1.63387e-95
380.10 1.63387e-95
380.20 1.63387e-95
380.30 1.63387e-95
380.40 1.63387e-95
380.50 1.63387e-95
380.60 1.63387e-95
380.70 1.63387e-95
380.80 1.63387e-95
380.90 1.63387e-95
381.00 1.63387e-95
381.10 1.63387e-95
381.20 1.63387e-95
381.30 1.63387e-95
381.40 1.63387e-95
381.50 1.63387e-95
381.60 1.63387e-95
381.70 1.63387e-95
381.80 1.63387e-95
381.90 1.63387e-95
382.00 1.63387e-95
382.10 1.63387e-95
382.20 1.63387e-95
382.30 1.63387e-95
382.40 1.63387e-95
382.50 1.63387e-95
382.60 1.63387e-95
382.70 1.63387e-95
382.80 1.63387e-95
382.90 1.63387e-95
383.00 1.63387e-95
383.10 1.63387e-95
383.20 1.63387e-95
383.30 1.63387e-95
383.40 1.63387e-95
383.50 1.63387e-95
383.60 1.63387e-95
383.70 1.63387e-95
383.80 1.63387e-95
383.90 1.63387e-95
384.00 1.63387e-95
384.10 1.63387e-95
384.20 1.63387e-95
384.30 1.63387e-95
384.40 1.63387e-95
384.50 1.63387e-95
384.60 1.63387e-95
384.70 1.63387e-95
384.80 1.63387e-95
384.90 1.63387e-95
385.00 1.63387e-95
385.10 1.63387e-95
385.20 1.63387e-95
385.30 1.63387e-95
385.40 1.63387e-95
385.50 1.63387e-95
385.60 1.63387e-95
385.70 1.63387e-95
385.80 1.63387e-95
385.90 1.63387e-95
386.00 1.63387e-95
386.10 1.63387e-95
386.20 1.63387e-95
386.30 1.63387e-95
386.40 1.63387e-95
386.50 1.63387e-95
386.60 1.63387e-95
386.70 1.63387e-95
386.80 1.63387e-95
386.90 1.63387e-95
387.00 1.63387e-95
387.10 1.63387e-95
387.20 1.63387e-95
387.30 1.63387e-95
387.40 1.63387e-95
387.50 1.63387e-95
387.60 1.63387e-95
387.70 1.63387e-95
387.80 1.63387e-95
387.90 1.63387e-95
388.00 1.63387e-95
388.10 1.63387e-95
388.20 1.63387e-95
388.30 1.63387e-95
388.40 1.63387e-95
388.50 1.63387e-95
388.60 1.63387e-95
388.70 1.63387e-95
388.80 1.63387e-95
388.90 1.63387e-95
389.00 1.63387e-95
389.10 1.63387e-95
389.20 1.63387e-95
389.30 1.63387e-95
389.40 1.63387e-95
389.50 1.63387e-95
389.60 1.63387e-95
389.70 1.63387e-95
389.80 1.63387e-95
389.90 1.63387e-95
390.00 1.63387e-95
390.10 1.63387e-95
390.20 1.63387e-95
390.30 1.63387e-95
390.40 1.63387e-95
390.50 1.63387e-95
390.60 1.63387e-95
390.70 1.63387e-95
390.80 1.63387e-95
390.90 1.63387e-95
391.00 1.63387e-95
391.10 1.63387e-95
391.20 1.63387e-95
391.30 1.63387e-95
391.40 1.63387e-95
391.50 1.63387e-95
391.60 1.63387e-95
391.70 1.63387e-95
391.80 1.63387e-95
391.90 1.63387e-95
392.00 1.63387e-95
392.10 1.63387e-95
392.20 1.63387e-95
392.30 1.63387e-95
392.40 1.63387e-95
392.50 1.63387e-95
392.60 1.63387e-95
392.70 1.63387e-95
392.80 1.63387e-95
392.90 1.63387e-95
393.00 1.63387e-95
393.10 1.63387e-95
393.20 1.63387e-95
393.30 1.63387e-95
393.40 1.63387e-95
393.50 1.63387e-95
393.60 1.63387e-95
393.70 1.63387e-95
393.80 1.63387e-95
393.90 1.63387e-95
394.00 1.63387e-95
394.10 1.63387e-95
394.20 1.63387e-95
394.30 1.63387e-95
394.40 1.63387e-95
394.50 1.63387e-95
394.60 1.63387e-95
394.70 1.63387e-95
394.80 1.63387e-95
394.90 1.63387e-95
395.00 0.04701709
395.10 0.07173313
395.20 0.07658284
395.30 0.07658284
395.40 0.07658284
395.50 0.07658284
395.60 0.07658284
395.70 0.07658284
395.80 0.07658284
395.90 0.08725044
396.00 0.1057261
396.10 0.1284217
396.20 0.1510884
396.30 0.168307
396.40 0.1768887
396.50 0.1768887
396.60 0.1768887
396.70 0.1768887
396.80 0.1768887
396.90 0.1768887
397.00 0.1768887
397.10 0.1768887
397.20 0.1768887
397.30 0.1768887
397.40 0.1815648
397.50 0.1964697
397.60 0.2211854
397.70 0.2588744
397.80 0.3128957
397.90 0.382704
398.00 0.4647622
398.10 0.5530082
398.20 0.6391466
398.30 0.7152811
398.40 0.7773561
398.50 0.8258823
398.60 0.8660986
398.70 0.9068011
398.80 0.9575608
398.90 1.026173
399.00 1.116585
399.10 1.228375
399.20 1.356944
399.30 1.494411
399.40 1.630231
399.50 1.753139
399.60 1.854069
399.70 1.926693
399.80 1.967516
399.90 1.975245
400.00 1.975245
400.10 1.975245
400.20 1.975245
400.30 1.975245
400.40 1.975245
400.50 1.975245
400.60 1.975245
400.70 1.975245
400.80 1.975245
400.90 1.982475
401.00 1.997157
401.10 2.018007
401.20 2.046252
401.30 2.082891
401.40 2.12851
401.50 2.182644
401.60 2.242143
401.70 2.302851
401.80 2.360563
401.90 2.41184
402.00 2.455009
402.10 2.489873
402.20 2.518368
402.30 2.545298
402.40 2.575978
402.50 2.612605
402.60 2.655925
402.70 2.707446
402.80 2.767298
402.90 2.833292
403.00 2.902342
403.10 2.970795
403.20 3.036073
403.30 3.098281
403.40 3.159974
403.50 3.22462
403.60 3.295332
403.70 3.37299
403.80 3.455792
403.90 3.540256
404.00 3.622468
404.10 3.700098
404.20 3.772023
404.30 3.837712
404.40 3.897438
404.50 3.952799
404.60 4.005884
404.70 4.056471
404.80 4.102969
404.90 4.145092
405.00 4.135587
405.10 4.143537
405.20 4.168865
405.30 4.200747
405.40 4.235729
405.50 4.271128
405.60 4.30285
405.70 4.327706
405.80 4.343878
405.90 4.340029
406.00 4.321554
406.10 4.298858
406.20 4.276191
406.30 4.258973
406.40 4.250391
406.50 4.250391
406.60 4.250391
406.70 4.250391
406.80 4.250391
406.90 4.250391
407.00 4.250391
407.10 4.250391
407.20 4.250391
407.30 4.250391
407.40 4.245715
407.50 4.23081
407.60 4.206094
407.70 4.168405
407.80 4.114384
407.90 4.044576
408.00 3.962518
408.10 3.874272
408.20 3.788133
408.30 3.711999
408.40 3.649924
408.50 3.601397
408.60 3.561181
408.70 3.520479
408.80 3.469719
408.90 3.404006
409.00 3.321202
409.10 3.219925
409.20 3.103322
409.30 2.978313
409.40 2.854473
409.50 2.742253
409.60 2.64972
409.70 2.583424
409.80 2.548756
409.90 2.547517
410.00 2.553646
410.10 2.558631
410.20 2.561669
410.30 2.56277
410.40 2.565508
410.50 2.576019
410.60 2.599049
410.70 2.637311
410.80 2.690472
410.90 2.747753
411.00 2.803616
411.10 2.853466
411.20 2.890195
411.30 2.907764
411.40 2.902943
411.50 2.877922
411.60 2.84117
411.70 2.803117
411.80 2.771733
411.90 2.750932
412.00 2.741003
412.10 2.738438
412.20 2.736762
412.30 2.727772
412.40 2.704325
412.50 2.667698
412.60 2.624378
412.70 2.572856
412.80 2.513005
412.90 2.447011
413.00 2.37796
413.10 2.309508
413.20 2.24423
413.30 2.182022
413.40 2.120329
413.50 2.055683
413.60 1.984971
413.70 1.907313
413.80 1.824511
413.90 1.740047
414.00 1.657835
414.10 1.580205
414.20 1.50828
414.30 1.442591
414.40 1.382865
414.50 1.327504
414.60 1.274419
414.70 1.223832
414.80 1.177334
414.90 1.135211
415.00 1.097698
415.10 1.065032
415.20 1.034855
415.30 1.002973
415.40 0.9679911
415.50 0.9325918
415.60 0.9008701
415.70 0.8760139
415.80 0.8598424
415.90 0.853036
416.00 0.8601918
416.10 0.8772273
416.20 0.9055124
416.30 0.9450677
416.40 0.9948558
416.50 1.052454
416.60 1.113341
416.70 1.171805
416.80 1.222662
416.90 1.262711
417.00 1.291135
417.10 1.308419
417.20 1.315304
417.30 1.315304
417.40 1.315304
417.50 1.315304
417.60 1.315304
417.70 1.315304
417.80 1.315304
417.90 1.315304
418.00 1.315304
418.10 1.315304
418.20 1.315304
418.30 1.315304
418.40 1.315304
418.50 1.315304
418.60 1.315304
418.70 1.315304
418.80 1.315304
418.90 1.312405
419.00 1.304797
419.10 1.294285
419.20 1.282318
419.30 1.269861
419.40 1.257881
419.50 1.247192
419.60 1.238795
419.70 1.232467
419.80 1.226312
419.90 1.219822
420.00 1.213693
420.10 1.208707
420.20 1.205669
420.30 1.204568
420.40 1.201831
420.50 1.19132
420.60 1.16829
420.70 1.133642
420.80 1.086792
420.90 1.028463
421.00 0.9622691
421.10 0.8932728
421.20 0.8282973
421.30 0.7740902
421.40 0.7332919
421.50 0.7041786
421.60 0.6835501
421.70 0.6678472
421.80 0.6537424
421.90 0.6423845
422.00 0.6365864
422.10 0.6388509
422.20 0.6509526
422.30 0.6727517
422.40 0.7010498
422.50 0.7274419
422.60 0.7410859
422.70 0.7410859
422.80 0.7410859
422.90 0.7410859
423.00 0.7410859
423.10 0.7410859
423.20 0.7410859
423.30 0.7410859
423.40 0.7410859
423.50 0.7410859
423.60 0.7410859
423.70 0.7410859
423.80 0.7410859
423.90 0.7410859
424.00 0.7410859
424.10 0.7410859
424.20 0.7410859
424.30 0.7410859
424.40 0.741755
424.50 0.7492393
424.60 0.7663355
424.70 0.7954586
424.80 0.8372132
424.90 0.8908366
425.00 0.9548233
425.10 1.026214
425.20 1.100319
425.30 1.172237
425.40 1.23782
425.50 1.293658
425.60 1.338757
425.70 1.374779
425.80 1.404595
425.90 1.432181
426.00 1.453477
426.10 1.466846
426.20 1.471856
426.30 1.469218
426.40 1.459399
426.50 1.443419
426.60 1.42425
426.70 1.406089
426.80 1.392916
426.90 1.3872
427.00 1.388088
427.10 1.391839
427.20 1.39511
427.30 1.39511
427.40 1.39511
427.50 1.39511
427.60 1.39511
427.70 1.39511
427.80 1.39511
427.90 1.39511
428.00 1.39511
428.10 1.39511
428.20 1.39511
428.30 1.39511
428.40 1.39511
428.50 1.39511
428.60 1.39511
428.70 1.39511
428.80 1.39511
428.90 1.39511
429.00 1.39511
429.10 1.39511
429.20 1.398875
429.30 1.410486
429.40 1.428541
429.50 1.452537
429.60 1.483615
429.70 1.522981
429.80 1.569953
429.90 1.623514
430.00 1.683594
430.10 1.749185
430.20 1.816993
430.30 1.881803
430.40 1.936238
430.50 1.972018
430.60 1.984479
430.70 1.980866
430.80 1.974555
430.90 1.968373
431.00 1.964021
431.10 1.970366
431.20 1.993928
431.30 2.027244
431.40 2.060232
431.50 2.083108
431.60 2.086756
431.70 2.079804
431.80 2.067581
431.90 2.048463
432.00 2.02102
432.10 1.986457
432.20 1.947537
432.30 1.907797
432.40 1.872267
432.50 1.845874
432.60 1.83223
432.70 1.83223
432.80 1.83223
432.90 1.83223
433.00 1.83223
433.10 1.83223
433.20 1.83223
433.30 1.83223
433.40 1.83223
433.50 1.83223
433.60 1.83223
433.70 1.83223
433.80 1.83223
433.90 1.83223
434.00 1.83223
434.10 1.83223
434.20 1.83223
434.30 1.83223
434.40 1.831561
434.50 1.824077
434.60 1.806981
434.70 1.777858
434.80 1.736103
434.90 1.68248
435.00 1.618493
435.10 1.547103
435.20 1.472997
435.30 1.40108
435.40 1.335496
435.50 1.279658
435.60 1.23456
435.70 1.198538
435.80 1.168721
435.90 1.141122
436.00 1.112671
436.10 1.082266
436.20 1.048971
436.30 1.012054
436.40 0.9720847
436.50 0.9304663
436.60 0.8887487
436.70 0.848445
436.80 0.8191493
436.90 0.8017379
437.00 0.7954692
437.10 0.7981176
437.20 0.8061654
437.30 0.8147769
437.40 0.8147769
437.50 0.8147769
437.60 0.8147769
437.70 0.8147769
437.80 0.8147769
437.90 0.8147769
438.00 0.8155905
438.10 0.8215496
438.20 0.8290566
438.30 0.8350106
438.40 0.8364962
438.50 0.8364962
438.60 0.8364962
438.70 0.8364962
438.80 0.8364962
438.90 0.8364962
439.00 0.8364962
439.10 0.8364962
439.20 0.8327311
439.30 0.8211195
439.40 0.8030647
439.50 0.7790691
439.60 0.7479907
439.70 0.708625
439.80 0.661653
439.90 0.6140117
440.00 0.5714723
440.10 0.5333254
440.20 0.4990579
440.30 0.4681529
440.40 0.4421715
440.50 0.4257594
440.60 0.4224866
440.70 0.4227245
440.80 0.4227245
440.90 0.4227245
441.00 0.4227245
441.10 0.4146769
441.20 0.3911151
441.30 0.3577995
441.40 0.3248113
441.50 0.3019354
441.60 0.2961688
441.70 0.2961688
441.80 0.2961688
441.90 0.2961688
442.00 0.2961688
442.10 0.2977361
442.20 0.2999102
442.30 0.3004848
442.40 0.3004848
442.50 0.3004848
442.60 0.3004848
442.70 0.3004848
442.80 0.3004848
442.90 0.3004848
443.00 0.3004848
443.10 0.3004848
443.20 0.3004848
443.30 0.3004848
443.40 0.3004848
443.50 0.3004848
443.60 0.3004848
443.70 0.3004848
443.80 0.3004848
443.90 0.3031452
444.00 0.3116094
444.10 0.3286621
444.20 0.3560162
444.30 0.3952031
444.40 0.4457027
444.50 0.5039872
444.60 0.5654593
444.70 0.6247078
444.80 0.6749305
444.90 0.7105257
445.00 0.7295243
445.10 0.7327809
445.20 0.7327809
445.30 0.7327809
445.40 0.7327809
445.50 0.7327809
445.60 0.7327809
445.70 0.7327809
445.80 0.7327809
445.90 0.7327809
446.00 0.7327809
446.10 0.7327809
446.20 0.7327809
446.30 0.7327809
446.40 0.7327809
446.50 0.7327809
446.60 0.7327809
446.70 0.7327809
446.80 0.724393
446.90 0.7074714
447.00 0.6844288
447.10 0.6607453
447.20 0.6425409
447.30 0.6378891
447.40 0.6592488
447.50 0.6968881
447.60 0.7475273
447.70 0.8064724
447.80 0.8685466
447.90 0.9288536
448.00 0.9821123
448.10 1.020744
448.20 1.047145
448.30 1.064927
448.40 1.078874
448.50 1.088424
448.60 1.093923
448.70 1.096588
448.80 1.098461
448.90 1.102429
449.00 1.110605
449.10 1.123987
449.20 1.142182
449.30 1.162908
449.40 1.18325
449.50 1.200113
449.60 1.210293
449.70 1.212385
449.80 1.212385
449.90 1.206465
450.00 1.188924
450.10 1.16148
450.20 1.127939
450.30 1.098072
450.40 1.080863
450.50 1.078691
450.60 1.090486
450.70 1.112507
450.80 1.131772
450.90 1.141922
451.00 1.141922
451.10 1.141922
451.20 1.141922
451.30 1.141922
451.40 1.141922
451.50 1.141922
451.60 1.141922
451.70 1.141922
451.80 1.141922
451.90 1.141922
452.00 1.141922
452.10 1.140354
452.20 1.13818
452.30 1.137606
452.40 1.140766
452.50 1.146308
452.60 1.152301
452.70 1.15724
452.80 1.159831
452.90 1.159831
453.00 1.159831
453.10 1.159831
453.20 1.159831
453.30 1.164245
453.40 1.174741
453.50 1.190723
453.60 1.210994
453.70 1.233877
453.80 1.259135
453.90 1.284822
454.00 1.306754
454.10 1.31974
454.20 1.31969
454.30 1.303287
454.40 1.270261
454.50 1.22458
454.60 1.173217
454.70 1.124112
454.80 1.085705
454.90 1.064366
455.00 1.061319
455.10 1.074034
455.20 1.087884
455.30 1.098727
455.40 1.108276
455.50 1.119051
455.60 1.132483
455.70 1.147969
455.80 1.163274
455.90 1.175137
456.00 1.179176
456.10 1.179176
456.20 1.179176
456.30 1.179176
456.40 1.179176
456.50 1.179176
456.60 1.179176
456.70 1.179176
456.80 1.179176
456.90 1.179176
457.00 1.179176
457.10 1.179176
457.20 1.190509
457.30 1.210276
457.40 1.221166
457.50 1.219321
457.60 1.203152
457.70 1.173474
457.80 1.133211
457.90 1.085913
458.00 1.035152
458.10 0.9905608
458.20 0.9566524
458.30 0.9329171
458.40 0.9174842
458.50 0.9079338
458.60 0.9039123
458.70 0.9134201
458.80 0.9349126
458.90 0.9644136
459.00 0.9952242
459.10 1.020917
459.20 1.037016
459.30 1.041191
459.40 1.033156
459.50 1.016292
459.60 1.006112
459.70 1.004021
459.80 1.004021
459.90 1.004021
460.00 1.004021
460.10 1.004021
460.20 1.004021
460.30 0.9999838
460.40 0.9887391
460.50 0.9715425
460.60 0.9505593
460.70 0.928301
460.80 0.9090359
460.90 0.8988858
461.00 0.8988858
461.10 0.8988858
461.20 0.8988858
461.30 0.8988858
461.40 0.8988858
461.50 0.8988858
461.60 0.8988858
461.70 0.8988858
461.80 0.8988858
461.90 0.8988858
462.00 0.8988858
462.10 0.8988858
462.20 0.8988858
462.30 0.8988858
462.40 0.8957255
462.50 0.8901839
462.60 0.8841904
462.70 0.8792512
462.80 0.8766609
462.90 0.8766609
463.00 0.8766609
463.10 0.8766609
463.20 0.8766609
463.30 0.8722465
463.40 0.8617507
463.50 0.8493403
463.60 0.8367381
463.70 0.8243144
463.80 0.8105867
463.90 0.7926717
464.00 0.7688771
464.10 0.738838
464.20 0.7115339
464.30 0.6887504
464.40 0.6712764
464.50 0.6586737
464.60 0.6485646
464.70 0.6384203
464.80 0.6376916
464.90 0.6460521
465.00 0.6616491
465.10 0.6822811
465.20 0.7057499
465.30 0.7295209
465.40 0.7499646
465.50 0.7640782
465.60 0.771651
465.70 0.7743802
465.80 0.7749377
465.90 0.7776146
466.00 0.7879616
466.10 0.80292
466.20 0.8190996
466.30 0.8368827
466.40 0.8553472
466.50 0.8722496
466.60 0.8846885
466.70 0.8889657
466.80 0.8889657
466.90 0.8889657
467.00 0.8889657
467.10 0.8889657
467.20 0.877633
467.30 0.8539058
467.40 0.8216563
467.50 0.7858627
467.60 0.7513918
467.70 0.7221253
467.80 0.7066501
467.90 0.7053333
468.00 0.7181037
468.10 0.7378567
468.20 0.7605117
468.30 0.7840211
468.40 0.8053473
468.50 0.8218701
468.60 0.829658
468.70 0.8174852
468.80 0.7941197
468.90 0.7606514
469.00 0.7216639
469.10 0.6825901
469.20 0.6482955
469.30 0.6233944
469.40 0.611088
469.50 0.611088
469.60 0.611088
469.70 0.6226229
469.80 0.6478013
469.90 0.6816961
470.00 0.7175493
470.10 0.7485671
470.20 0.7693595
470.30 0.777498
470.40 0.777498
470.50 0.777498
470.60 0.777498
470.70 0.777498
470.80 0.777498
470.90 0.7826243
471.00 0.8000832
471.10 0.8275558
471.20 0.8609402
471.30 0.895831
471.40 0.928498
471.50 0.956179
471.60 0.9765997
471.70 0.9875368
471.80 0.9875368
471.90 0.9875368
472.00 0.9875368
472.10 0.9875368
472.20 0.9875368
472.30 0.9875368
472.40 0.9875368
472.50 0.9875368
472.60 0.9875368
472.70 0.9875368
472.80 0.9875368
472.90 0.9875368
473.00 0.9875368
473.10 0.9875368
473.20 0.9875368
473.30 0.9875368
473.40 0.9875368
473.50 0.9839651
473.60 0.9762962
473.70 0.9658375
473.80 0.9543063
473.90 0.9438745
474.00 0.9372727
474.10 0.9372727
474.20 0.9372727
474.30 0.9372727
474.40 0.9372727
474.50 0.9372727
474.60 0.9372727
474.70 0.9372727
474.80 0.926186
474.90 0.9035696
475.00 0.8720208
475.10 0.8354175
475.20 0.7980984
475.30 0.7634839
475.40 0.7334914
475.50 0.7086029
475.60 0.6875986
475.70 0.6693831
475.80 0.653521
475.90 0.638981
476.00 0.6245945
476.10 0.6096361
476.20 0.5953844
476.30 0.5863278
476.40 0.5859181
476.50 0.5984542
476.60 0.6273175
476.70 0.6745055
476.80 0.7314549
476.90 0.7861961
477.00 0.8298486
477.10 0.8558581
477.20 0.8616934
477.30 0.8616934
477.40 0.8616934
477.50 0.8616934
477.60 0.8616934
477.70 0.8616934
477.80 0.8553567
477.90 0.8436651
478.00 0.8275836
478.10 0.8078306
478.20 0.7961813
478.30 0.7961626
478.40 0.8102918
478.50 0.8379718
478.60 0.8765273
478.70 0.9215158
478.80 0.9576604
478.90 0.981544
479.00 0.992749
479.10 0.9928992
479.20 0.9928992
479.30 0.9928992
479.40 0.9928992
479.50 0.9928992
479.60 0.9928992
479.70 0.9813644
479.80 0.956186
479.90 0.9253622
480.00 0.897865
480.10 0.8799488
480.20 0.8754432
480.30 0.8838038
480.40 0.8976711
480.50 0.9074674
480.60 0.912703
480.70 0.9136789
480.80 0.9136789
480.90 0.9097464
481.00 0.9000826
481.10 0.8901425
481.20 0.8865444
481.30 0.8967831
481.40 0.9274854
481.50 0.9820058
481.60 1.059693
481.70 1.156649
481.80 1.2657
481.90 1.366435
482.00 1.450831
482.10 1.513604
482.20 1.552496
482.30 1.568695
482.40 1.568695
482.50 1.568695
482.60 1.568695
482.70 1.568695
482.80 1.568695
482.90 1.568695
483.00 1.568695
483.10 1.568695
483.20 1.568695
483.30 1.568695
483.40 1.568695
483.50 1.568695
483.60 1.568695
483.70 1.568695
483.80 1.568695
483.90 1.568695
484.00 1.569522
484.10 1.573257
484.20 1.57878
484.30 1.585013
484.40 1.59067
484.50 1.593786
484.60 1.593786
484.70 1.593786
484.80 1.593786
484.90 1.593786
485.00 1.593786
485.10 1.593786
485.20 1.593786
485.30 1.593786
485.40 1.593786
485.50 1.593786
485.60 1.593786
485.70 1.593786
485.80 1.593786
485.90 1.593786
486.00 1.593786
486.10 1.593786
486.20 1.591858
486.30 1.583132
486.40 1.565077
486.50 1.535638
486.60 1.494336
486.70 1.442871
486.80 1.385921
486.90 1.33118
487.00 1.287528
487.10 1.261518
487.20 1.255683
487.30 1.255683
487.40 1.255683
487.50 1.255683
487.60 1.255683
487.70 1.255683
487.80 1.255683
487.90 1.255683
488.00 1.255683
488.10 1.255683
488.20 1.244677
488.30 1.221186
488.40 1.185731
488.50 1.141528
488.60 1.093707
488.70 1.048719
488.80 1.012574
488.90 0.9913813
489.00 0.9834652
489.10 0.9855731
489.20 0.9861547
489.30 0.9861547
489.40 0.9861547
489.50 0.9861547
489.60 0.9861547
489.70 0.9880143
489.80 0.9967327
489.90 1.01075
490.00 1.026809
490.10 1.043707
490.20 1.060986
490.30 1.078686
490.40 1.09613
490.50 1.111527
490.60 1.12207
490.70 1.123793
490.80 1.123793
490.90 1.122599
491.00 1.114804
491.10 1.097272
491.20 1.067486
491.30 1.022356
491.40 0.9589869
491.50 0.8767855
491.60 0.7786776
491.70 0.6707844
491.80 0.5617333
491.90 0.4609985
492.00 0.376602
492.10 0.3138298
492.20 0.2749371
492.30 0.258738
492.40 0.258738
492.50 0.2625713
492.60 0.273781
492.70 0.291445
492.80 0.3139369
492.90 0.3403843
493.00 0.3698802
493.10 0.3998146
493.20 0.427968
493.30 0.4533822
493.40 0.4761061
493.50 0.4983683
493.60 0.5237099
493.70 0.5542143
493.80 0.5888634
493.90 0.6254659
494.00 0.6606268
494.10 0.6883152
494.20 0.7052994
494.30 0.7092875
494.40 0.7036309
494.50 0.7005146
494.60 0.7005146
494.70 0.7005146
494.80 0.7005146
494.90 0.7005146
495.00 0.7005146
495.10 0.7005146
495.20 0.7005146
495.30 0.7015302
495.40 0.7039193
495.50 0.7039193
495.60 0.7039193
495.70 0.7039193
495.80 0.7039193
495.90 0.7039193
496.00 0.7039193
496.10 0.7039193
496.20 0.7039193
496.30 0.7039193
496.40 0.7039193
496.50 0.7039193
496.60 0.7039193
496.70 0.7039193
496.80 0.7039193
496.90 0.7039193
497.00 0.7063944
497.10 0.7118509
497.20 0.7205982
497.30 0.7332176
497.40 0.7502132
497.50 0.7717138
497.60 0.79702
497.70 0.8249603
497.80 0.8535477
497.90 0.8805228
498.00 0.9038197
498.10 0.9217359
498.20 0.9338268
498.30 0.9403821
498.40 0.9420138
498.50 0.9420138
498.60 0.9420138
498.70 0.9420138
498.80 0.9420138
498.90 0.9393232
499.00 0.9360342
499.10 0.9337761
499.20 0.9331945
499.30 0.9376068
499.40 0.9521731
499.50 0.9751553
499.60 1.002098
499.70 1.025382
499.80 1.034453
499.90 1.024415
500.00 1
500.10 0.9700001
500.20 0.9364341
500.30 0.9022358
500.40 0.8709243
500.50 0.8457305
500.60 0.8299525
500.70 0.8272529
500.80 0.8272529
500.90 0.8272529
501.00 0.8272529
501.10 0.8272529
501.20 0.8272529
501.30 0.8272529
501.40 0.8272529
501.50 0.8298722
501.60 0.8411925
501.70 0.8590609
501.80 0.8801745
501.90 0.9009611
502.00 0.9184173
502.10 0.930531
502.20 0.9358408
502.30 0.9358408
502.40 0.9358408
502.50 0.9320074
502.60 0.9207977
502.70 0.9031337
502.80 0.8806418
502.90 0.8541944
503.00 0.8246985
503.10 0.7947641
503.20 0.7666107
503.30 0.7411965
503.40 0.7184726
503.50 0.6962105
503.60 0.6708688
503.70 0.6403644
503.80 0.6057153
503.90 0.5691128
504.00 0.5331255
504.10 0.5017018
504.20 0.4791948
504.30 0.4689737
504.40 0.4689737
504.50 0.4689737
504.60 0.4689737
504.70 0.4689737
504.80 0.4689737
504.90 0.4689737
505.00 0.4689737
505.10 0.4726118
505.20 0.4793679
505.30 0.4845309
505.40 0.4851854
505.50 0.4851854
505.60 0.4851854
505.70 0.4851854
505.80 0.4851854
505.90 0.4851854
506.00 0.490279
506.10 0.5027657
506.20 0.5227162
506.30 0.5482654
506.40 0.575652
506.50 0.6011286
506.60 0.6223996
506.70 0.6389612
506.80 0.6512179
506.90 0.6591395
507.00 0.6604562
507.10 0.6562827
507.20 0.6482294
507.30 0.6368874
507.40 0.6211625
507.50 0.5996619
507.60 0.5743557
507.70 0.5464154
507.80 0.517828
507.90 0.4908529
508.00 0.4675559
508.10 0.4496398
508.20 0.4375489
508.30 0.4309936
508.40 0.4293619
508.50 0.4293619
508.60 0.4293619
508.70 0.4293619
508.80 0.4293619
508.90 0.4293619
509.00 0.4313122
509.10 0.4461849
509.20 0.4743344
509.30 0.5098841
509.40 0.5435164
509.50 0.5714649
509.60 0.5919755
509.70 0.6050255
509.80 0.6118578
509.90 0.6139508
510.00 0.6139508
510.10 0.6139508
510.20 0.6139508
510.30 0.6139508
510.40 0.6139508
510.50 0.6139508
510.60 0.6139508
510.70 0.6139508
510.80 0.6139508
510.90 0.6139508
511.00 0.6166032
511.10 0.62573
511.20 0.6393823
511.30 0.6549635
511.40 0.668949
511.50 0.6751743
511.60 0.6657388
511.70 0.6478704
511.80 0.6267568
511.90 0.6059702
512.00 0.588514
512.10 0.5764002
512.20 0.5725186
512.30 0.5839208
512.40 0.6060259
512.50 0.6377747
512.60 0.6762173
512.70 0.7175348
512.80 0.7588325
512.90 0.7974671
513.00 0.8300406
513.10 0.853615
513.20 0.8664065
513.30 0.8678811
513.40 0.8678811
513.50 0.8678811
513.60 0.8678811
513.70 0.8678811
513.80 0.8678811
513.90 0.8678811
514.00 0.8678811
514.10 0.8678811
514.20 0.8678811
514.30 0.8693634
514.40 0.8760761
514.50 0.8851958
514.60 0.8940017
514.70 0.8998527
514.80 0.9002207
514.90 0.9002207
515.00 0.9002207
515.10 0.8965826
515.20 0.8898265
515.30 0.883648
515.40 0.8806043
515.50 0.8819209
515.60 0.8836795
515.70 0.8839048
515.80 0.8839048
515.90 0.8839048
516.00 0.8799426
516.10 0.8721818
516.20 0.8614214
516.30 0.8494192
516.40 0.8390535
516.50 0.8319026
516.60 0.8269281
516.70 0.8209374
516.80 0.8113855
516.90 0.8034639
517.00 0.7996721
517.10 0.7983891
517.20 0.7976951
517.30 0.7964178
517.40 0.795147
517.50 0.795147
517.60 0.795147
517.70 0.795147
517.80 0.795147
517.90 0.795147
518.00 0.795147
518.10 0.795147
518.20 0.795147
518.30 0.795147
518.40 0.795147
518.50 0.795147
518.60 0.795147
518.70 0.795147
518.80 0.795147
518.90 0.795147
519.00 0.7931968
519.10 0.778324
519.20 0.7501745
519.30 0.7102125
519.40 0.662014
519.50 0.6110833
519.60 0.56363
519.70 0.5254358
519.80 0.5008148
519.90 0.4916715
520.00 0.4916715
520.10 0.4921556
520.20 0.496862
520.30 0.503967
520.40 0.5103228
520.50 0.5128594
520.60 0.5128594
520.70 0.5128594
520.80 0.5128594
520.90 0.5128594
521.00 0.510207
521.10 0.5073933
521.20 0.5086749
521.30 0.5147923
521.40 0.5259575
521.50 0.5410028
521.60 0.5565154
521.70 0.5636747
521.80 0.5636747
521.90 0.5636747
522.00 0.5636747
522.10 0.5636747
522.20 0.5622466
522.30 0.5508444
522.40 0.5287393
522.50 0.4984972
522.60 0.4651055
522.70 0.4309998
522.80 0.3972663
522.90 0.3652325
523.00 0.3385767
523.10 0.3215328
523.20 0.3167427
523.30 0.3255812
523.40 0.3389946
523.50 0.3558347
523.60 0.3768024
523.70 0.4021045
523.80 0.4300209
523.90 0.4574334
524.00 0.4804078
524.10 0.4952662
524.20 0.4995774
524.30 0.4980951
524.40 0.4913823
524.50 0.4822627
524.60 0.4734567
524.70 0.4676058
524.80 0.4672377
524.90 0.4672377
525.00 0.4672377
525.10 0.4672377
525.20 0.4672377
525.30 0.4672377
525.40 0.4672377
525.50 0.468067
525.60 0.4729072
525.70 0.4843714
525.80 0.5013766
525.90 0.5227631
526.00 0.544699
526.10 0.5604533
526.20 0.5644364
526.30 0.5525241
526.40 0.5355032
526.50 0.5171775
526.60 0.5008811
526.70 0.4903102
526.80 0.4876053
526.90 0.4876053
527.00 0.4876053
527.10 0.4876053
527.20 0.4876053
527.30 0.4876053
527.40 0.4876053
527.50 0.4881858
527.60 0.4881858
527.70 0.4881858
527.80 0.4881858
527.90 0.4881858
528.00 0.4881858
528.10 0.4881858
528.20 0.4881858
528.30 0.4881858
528.40 0.4881858
528.50 0.4881858
528.60 0.4881858
528.70 0.4881858
528.80 0.4881858
528.90 0.4881858
529.00 0.4881858
529.10 0.4881858
529.20 0.4881858
529.30 0.4881858
529.40 0.4881858
529.50 0.4881858
529.60 0.4881858
529.70 0.4881858
529.80 0.4881858
529.90 0.4881858
530.00 0.4881858
530.10 0.4877017
530.20 0.4829953
530.30 0.4758903
530.40 0.4695345
530.50 0.4669979
530.60 0.4669979
530.70 0.4669979
530.80 0.4669979
530.90 0.4669979
531.00 0.4669979
531.10 0.4606848
531.20 0.445751
531.30 0.4240523
531.40 0.3989016
531.50 0.3750117
531.60 0.3576143
531.70 0.350455
531.80 0.350455
531.90 0.350455
532.00 0.350455
532.10 0.350455
532.20 0.3601122
532.30 0.3756435
532.40 0.3919111
532.50 0.4028701
532.60 0.4028018
532.70 0.39559
532.80 0.3880258
532.90 0.3814251
533.00 0.3755073
533.10 0.3705306
533.20 0.3729033
533.30 0.3796153
533.40 0.386891
533.50 0.390917
533.60 0.3870794
533.70 0.3726313
533.80 0.3482597
533.90 0.3208471
534.00 0.2978727
534.10 0.2830144
534.20 0.2787032
534.30 0.2787032
534.40 0.2787032
534.50 0.2787032
534.60 0.2787032
534.70 0.2787032
534.80 0.2787032
534.90 0.2787032
535.00 0.2787032
535.10 0.2787032
535.20 0.2787032
535.30 0.2787032
535.40 0.2787032
535.50 0.2765573
535.60 0.2699585
535.70 0.258269
535.80 0.2412638
535.90 0.2198773
536.00 0.1968101
536.10 0.1763298
536.20 0.1631565
536.30 0.1615219
536.40 0.1615219
536.50 0.1615219
536.60 0.1615219
536.70 0.1615219
536.80 0.1615219
536.90 0.1615219
537.00 0.1615219
537.10 0.1615219
537.20 0.1615219
537.30 0.1615219
537.40 0.1615219
537.50 0.1609414
537.60 0.1609414
537.70 0.1609414
537.80 0.1687725
537.90 0.1849663
538.00 0.2073876
538.10 0.2334674
538.20 0.2597244
538.30 0.2826868
538.40 0.3003715
538.50 0.3122797
538.60 0.318717
538.70 0.3200934
538.80 0.3200934
538.90 0.3200934
539.00 0.3200934
539.10 0.3206871
539.20 0.3276616
539.30 0.3407096
539.40 0.3575406
539.50 0.3751914
539.60 0.3906652
539.70 0.401351
539.80 0.4047644
539.90 0.4047644
540.00 0.4047644
540.10 0.4047644
540.20 0.4047644
540.30 0.4047644
540.40 0.4047644
540.50 0.4051847
540.60 0.409432
540.70 0.414438
540.80 0.4171424
540.90 0.4171424
541.00 0.4171424
541.10 0.4171424
541.20 0.4171424
541.30 0.4171424
541.40 0.4233196
541.50 0.4388718
541.60 0.4618645
541.70 0.4885349
541.80 0.5144681
541.90 0.5353368
542.00 0.5477816
542.10 0.5497523
542.20 0.5400952
542.30 0.5245638
542.40 0.5082962
542.50 0.4958306
542.60 0.4908479
542.70 0.4908479
542.80 0.4908479
542.90 0.4908479
543.00 0.4972531
543.10 0.5102915
543.20 0.5198836
543.30 0.5249912
543.40 0.5258535
543.50 0.5235601
543.60 0.5193903
543.70 0.5134722
543.80 0.5099274
543.90 0.5099274
544.00 0.5099274
544.10 0.5099274
544.20 0.5099274
544.30 0.5099274
544.40 0.5099274
544.50 0.5099274
544.60 0.5099274
544.70 0.5099274
544.80 0.5099274
544.90 0.5099274
545.00 0.5099274
545.10 0.5099274
545.20 0.5099274
545.30 0.5099274
545.40 0.5099274
545.50 0.5099274
545.60 0.5099274
545.70 0.5099274
545.80 0.5099274
545.90 0.5099274
546.00 0.5099274
546.10 0.5099274
546.20 0.5099274
546.30 0.5099274
546.40 0.5099274
546.50 0.5099274
546.60 0.5099274
546.70 0.5099274
546.80 0.5099274
546.90 0.5099274
547.00 0.5099274
547.10 0.5144643
547.20 0.5228267
547.30 0.5341643
547.40 0.547892
547.50 0.5636758
547.60 0.5812205
547.70 0.6000239
547.80 0.6116039
547.90 0.6149482
548.00 0.6116032
548.10 0.6038256
548.20 0.5954934
548.30 0.5904594
548.40 0.5910661
548.50 0.5983504
548.60 0.6131943
548.70 0.6367474
548.80 0.6657069
548.90 0.6971934
549.00 0.7285888
549.10 0.7564384
549.20 0.7727753
549.30 0.7770862
549.40 0.7717534
549.50 0.759634
549.60 0.7441601
549.70 0.7334743
549.80 0.7300609
549.90 0.7300609
550.00 0.2867784
550.10 0.2616399
550.20 0.2326308
550.30 0.2056428
550.40 0.1860833
550.50 0.1791113
550.60 0.1905725
550.70 0.2252413
550.80 0.273769
550.90 0.3226145
551.00 0.3703051
551.10 0.4160606
551.20 0.4608724
551.30 0.5056934
551.40 0.5514221
551.50 0.5994033
551.60 0.6526063
551.70 0.7149302
551.80 0.7873287
551.90 0.8660451
552.00 0.9445337
552.10 1.015642
552.20 1.07392
552.30 1.117317
552.40 1.146063
552.50 1.159891
552.60 1.159891
552.70 1.159891
552.80 1.159891
552.90 1.159891
553.00 1.159891
553.10 1.159891
553.20 1.159891
553.30 1.159891
553.40 1.159891
553.50 1.159891
553.60 1.159891
553.70 1.159891
553.80 1.159891
553.90 1.159891
554.00 1.159891
554.10 1.148549
554.20 1.128264
554.30 1.122386
554.40 1.13399
554.50 1.15997
554.60 1.192104
554.70 1.221796
554.80 1.243773
554.90 1.255824
555.00 1.260423
555.10 1.262426
555.20 1.279679
555.30 1.337079
555.40 1.434184
555.50 1.580826
555.60 1.80812
555.70 2.130049
555.80 2.542746
555.90 3.028569
556.00 3.559102
556.10 4.09707
556.20 4.601431
556.30 5.036264
556.40 5.377589
556.50 5.622171
556.60 5.775512
556.70 5.839884
556.80 5.861883
556.90 5.874588
557.00 5.878462
557.10 5.878462
557.20 5.878462
557.30 5.878462
557.40 5.878462
557.50 5.878462
557.60 5.889097
557.70 5.916461
557.80 5.966382
557.90 6.045006
558.00 6.153175
558.10 6.288146
558.20 6.447304
558.30 6.607317
558.40 6.76229
558.50 6.910423
558.60 7.052063
558.70 7.184575
558.80 7.302282
558.90 7.400116
559.00 7.473633
559.10 7.519984
559.20 7.523194
559.30 7.46206
559.40 7.344988
559.50 7.170348
559.60 6.909077
559.70 6.544115
559.80 6.077674
559.90 5.530045
560.00 4.935735
560.10 4.339392
560.20 3.787635
560.30 3.318885
560.40 2.957813
560.50 2.708982
560.60 2.566419
560.70 2.512593
560.80 2.497061
560.90 2.484356
561.00 2.480481
561.10 2.480481
561.20 2.480481
561.30 2.480481
561.40 2.480481
561.50 2.480854
561.60 2.479004
561.70 2.468749
561.80 2.441562
561.90 2.388497
562.00 2.308385
562.10 2.205478
562.20 2.08514
562.30 1.952249
562.40 1.807317
562.50 1.646538
562.60 1.467906
562.70 1.276736
562.80 1.088524
562.90 0.9297941
563.00 0.8039872
563.10 0.7098778
563.20 0.6446034
563.30 0.6053501
563.40 0.5960882
563.50 0.6008774
563.60 0.6061632
563.70 0.6036117
563.80 0.5923459
563.90 0.5769831
564.00 0.563197
564.10 0.5554692
564.20 0.5563055
564.30 0.5640358
564.40 0.5724902
564.50 0.5741509
564.60 0.5645988
564.70 0.5540535
564.80 0.5475866
564.90 0.5475866
565.00 0.5494515
565.10 0.5671982
565.20 0.5996392
565.30 0.6399056
565.40 0.6779286
565.50 0.7040891
565.60 0.70553
565.70 0.688421
565.80 0.6656868
565.90 0.6401271
566.00 0.6120703
566.10 0.5839211
566.20 0.5784072
566.30 0.5927774
566.40 0.6276248
566.50 0.6881208
566.60 0.7789126
566.70 0.9007918
566.80 1.043516
566.90 1.181893
567.00 1.310037
567.10 1.424555
567.20 1.525992
567.30 1.614435
567.40 1.679209
567.50 1.733188
567.60 1.797994
567.70 1.896076
567.80 2.036514
567.90 2.212489
568.00 2.407035
568.10 2.598037
568.20 2.765844
568.30 2.898161
568.40 2.990387
568.50 3.04433
568.60 3.06617
568.70 3.06617
568.80 3.06617
568.90 3.06617
569.00 3.064305
569.10 3.046558
569.20 3.028958
569.30 3.019103
569.40 3.022991
569.50 3.042538
569.60 3.073391
569.70 3.099866
569.80 3.104043
569.90 3.104043
570.00 3.104043
570.10 3.100129
570.20 3.066201
570.30 3.002244
570.40 2.911431
570.50 2.798143
570.60 2.668347
570.70 2.528425
570.80 2.390993
570.90 2.274268
571.00 2.185239
571.10 2.125752
571.20 2.093471
571.30 2.084084
571.40 2.089201
571.50 2.092733
571.60 2.072533
571.70 2.006168
571.80 1.881909
571.90 1.705536
572.00 1.510065
572.10 1.314057
572.20 1.134531
572.30 0.9850038
572.40 0.8753253
572.50 0.810142
572.60 0.7870757
572.70 0.7870757
572.80 0.7870757
572.90 0.7870757
573.00 0.7870757
573.10 0.7870757
573.20 0.7722352
573.30 0.7418231
573.40 0.6999128
573.50 0.6538322
573.60 0.6127545
573.70 0.5862794
573.80 0.5821019
573.90 0.5821019
574.00 0.5821019
574.10 0.5896737
574.20 0.6032533
574.30 0.6200221
574.40 0.6374259
574.50 0.6534214
574.60 0.666361
574.70 0.6750504
574.80 0.6744645
574.90 0.6554384
575.00 0.6193399
575.10 0.5717062
575.20 0.5185463
575.30 0.4645852
575.40 0.4169257
575.50 0.3844454
575.60 0.3742835
575.70 0.3921337
575.80 0.4411867
575.90 0.5175732
576.00 0.5973007
576.10 0.6762911
576.20 0.7510637
576.30 0.8172082
576.40 0.8719313
576.50 0.9135214
576.60 0.9391767
576.70 0.9473404
576.80 0.9473404
576.90 0.9473404
577.00 0.9473404
577.10 0.9473404
577.20 0.9473404
577.30 0.9473404
577.40 0.9473404
577.50 0.9473404
577.60 0.9473404
577.70 0.9473404
577.80 0.9473404
577.90 0.9573695
578.00 0.9812345
578.10 1.01528
578.20 1.062592
578.30 1.12369
578.40 1.195873
578.50 1.274205
578.60 1.352824
578.70 1.426334
578.80 1.488699
578.90 1.534477
579.00 1.560646
579.10 1.563904
579.20 1.547908
579.30 1.520979
579.40 1.482248
579.50 1.432444
579.60 1.37349
579.70 1.307183
579.80 1.234561
579.90 1.157026
580.00 1.077298
580.10 0.9983077
580.20 0.9235352
580.30 0.8573907
580.40 0.8026676
580.50 0.7610774
580.60 0.7354222
580.70 0.7272585
580.80 0.7272585
580.90 0.7272585
581.00 0.7272585
581.10 0.7272585
581.20 0.7272585
581.30 0.750872
581.40 0.7950328
581.50 0.8505084
581.60 0.9056665
581.70 0.9492955
581.80 0.9739248
581.90 0.9694984
582.00 0.9456334
582.10 0.9040164
582.20 0.8449284
582.30 0.7782758
582.40 0.7061445
582.50 0.6308499
582.60 0.5577181
582.70 0.4941369
582.80 0.4457101
582.90 0.4152303
583.00 0.4034964
583.10 0.4104896
583.20 0.4298658
583.30 0.4507215
583.40 0.4695028
583.50 0.4830087
583.60 0.490814
583.70 0.4969135
583.80 0.5103087
583.90 0.5439515
584.00 0.6099844
584.10 0.7143674
584.20 0.8549655
584.30 1.020839
584.40 1.19483
584.50 1.35692
584.60 1.489132
584.70 1.581546
584.80 1.635635
584.90 1.66172
585.00 1.674101
585.10 1.687624
585.20 1.71266
585.30 1.726097
585.40 1.722061
585.50 1.695779
585.60 1.645282
585.70 1.601653
585.80 1.577024
585.90 1.571421
586.00 1.571421
586.10 1.571421
586.20 1.569618
586.30 1.558403
586.40 1.540948
586.50 1.521915
586.60 1.503488
586.70 1.484869
586.80 1.466225
586.90 1.448302
587.00 1.430849
587.10 1.413201
587.20 1.393824
587.30 1.372969
587.40 1.354188
587.50 1.340682
587.60 1.332876
587.70 1.326777
587.80 1.313382
587.90 1.279739
588.00 1.213706
588.10 1.120357
588.20 0.999043
588.30 0.8461248
588.40 0.6721338
588.50 0.5100435
588.60 0.3778311
588.70 0.2854178
588.80 0.2313289
588.90 0.2052433
589.00 0.1928625
589.10 0.1793398
589.20 0.1547709
589.30 0.1342894
589.40 0.1190524
589.50 0.1139445
589.60 0.1246762
589.70 0.1268832
589.80 0.1268832
589.90 0.1268832
590.00 0.1268832
590.10 0.1268832
590.20 0.1268832
590.30 0.1268832
590.40 0.1435292
590.50 0.1924307
590.60 0.2710762
590.70 0.3697664
590.80 0.4721471
590.90 0.559214
591.00 0.6143695
591.10 0.6272643
591.20 0.6272643
591.30 0.6272643
591.40 0.6272643
591.50 0.6272643
591.60 0.6272643
591.70 0.6272643
591.80 0.6272643
591.90 0.6272643
592.00 0.6272643
592.10 0.6162302
592.20 0.5969461
592.30 0.5839911
592.40 0.5839911
592.50 0.5839911
592.60 0.5839911
592.70 0.5839911
592.80 0.5839911
592.90 0.5839911
593.00 0.5839911
593.10 0.5839911
593.20 0.583524
593.30 0.5669543
593.40 0.5420673
593.50 0.5179817
593.60 0.5025881
593.70 0.5003811
593.80 0.5003811
593.90 0.5003811
594.00 0.5003811
594.10 0.5003811
594.20 0.5003811
594.30 0.5003811
594.40 0.4837352
594.50 0.4348337
594.60 0.3561881
594.70 0.257498
594.80 0.1551172
594.90 0.06805037
595.00 0.01289485
595.10 0
595.20 0
595.30 0
595.40 0
595.50 0.01235106
595.60 0.03497866
595.70 0.06360886
595.80 0.09414502
595.90 0.1230457
596.00 0.1492234
596.10 0.1739018
596.20 0.1999564
596.30 0.2307135
596.40 0.2667054
596.50 0.3052585
596.60 0.342852
596.70 0.3757966
596.80 0.4001894
596.90 0.4138774
597.00 0.417403
597.10 0.417403
597.20 0.417403
597.30 0.417403
597.40 0.417403
597.50 0.417403
597.60 0.417403
597.70 0.4176155
597.80 0.4382807
597.90 0.4779614
598.00 0.5289696
598.10 0.5829429
598.20 0.6346219
598.30 0.6803285
598.40 0.7167196
598.50 0.7434527
598.60 0.7648525
598.70 0.7880415
598.80 0.8204042
598.90 0.8676655
599.00 0.9301866
599.10 1.003606
599.20 1.082353
599.30 1.161659
599.40 1.237873
599.50 1.293678
599.60 1.324487
599.70 1.328353
599.80 1.305586
599.90 1.276686
600.00 2.040329
600.10 2.158928
600.20 2.06716
600.30 1.828266
600.40 1.455646
600.50 1.069322
600.60 0.855993
600.70 0.9275609
600.80 1.294508
600.90 1.890452
601.00 2.500842
601.10 2.936786
601.20 3.149863
601.30 3.172234
601.40 3.048576
601.50 2.726258
601.60 2.137465
601.70 1.29982
601.80 0.3107951
601.90 0
602.00 0
602.10 0
602.20 0
602.30 0
602.40 0
602.50 0
602.60 0
602.70 0
602.80 0
602.90 0
603.00 0.2073729
603.10 1.375665
603.20 2.502303
603.30 3.479275
603.40 4.19352
603.50 4.492393
603.60 4.290303
603.70 3.6784
603.80 2.921489
603.90 2.298573
604.00 1.983064
604.10 2.020363
604.20 2.383677
604.30 2.982701
604.40 3.579549
604.50 3.896045
604.60 3.781442
604.70 3.238928
604.80 2.390219
604.90 1.464834
605.00 0.7070778
605.10 0.2449047
605.20 0.02037375
605.30 0
605.40 0.01991245
605.50 0.161209
605.60 0.3262815
605.70 0.5471346
605.80 0.9042554
605.90 1.39471
606.00 1.950708
606.10 2.480836
606.20 2.887978
606.30 3.071266
606.40 2.979491
606.50 2.699314
606.60 2.391413
606.70 2.161405
606.80 2.018958
606.90 1.94257
607.00 1.932526
607.10 1.999753
607.20 2.150938
607.30 2.401726
607.40 2.758271
607.50 3.194732
607.60 3.679696
607.70 4.177462
607.80 4.67033
607.90 5.118754
608.00 5.449581
608.10 5.57558
608.20 5.418395
608.30 4.982167
608.40 4.351606
608.50 3.57132
608.60 2.68224
608.70 1.834486
608.80 1.226614
608.90 0.9945324
609.00 1.16115
609.10 1.636706
609.20 2.199969
609.30 2.583976
609.40 2.616857
609.50 2.358958
609.60 2.008777
609.70 1.692294
609.80 1.442875
609.90 1.357428
610.00 1.533624
610.10 1.918159
610.20 2.355368
610.30 2.696296
610.40 2.885489
610.50 2.938781
610.60 2.980014
610.70 3.175693
610.80 3.599771
610.90 4.132011
611.00 4.568448
611.10 4.805012
611.20 4.827065
611.30 4.627109
611.40 4.222535
611.50 3.665369
611.60 3.04432
611.70 2.479568
611.80 2.052266
611.90 1.850667
612.00 1.889864
612.10 2.081529
612.20 2.300863
612.30 2.467819
612.40 2.542832
612.50 2.450648
612.60 2.161336
612.70 1.737397
612.80 1.267569
612.90 0.8579576
613.00 0.6382543
613.10 0.7167956
613.20 1.116174
613.30 1.69278
613.40 2.227196
613.50 2.554149
613.60 2.598442
613.70 2.387521
613.80 2.04784
613.90 1.736855
614.00 1.543278
614.10 1.480043
614.20 1.542805
614.30 1.688857
614.40 1.850064
614.50 1.980738
614.60 2.075636
614.70 2.205109
614.80 2.447355
614.90 2.828111
615.00 3.335518
615.10 3.882042
615.20 4.311951
615.30 4.514563
615.40 4.468604
615.50 4.226416
615.60 3.880442
615.70 3.544247
615.80 3.288729
615.90 3.121654
616.00 3.036296
616.10 2.991918
616.20 2.930136
616.30 2.833553
616.40 2.718514
616.50 2.642261
616.60 2.763061
616.70 3.170209
616.80 3.798527
616.90 4.553547
617.00 5.309359
617.10 5.922656
617.20 6.299878
617.30 6.414504
617.40 6.271477
617.50 5.900059
617.60 5.369469
617.70 4.725505
617.80 4.042207
617.90 3.43678
618.00 2.907256
618.10 2.4423
618.20 2.102592
618.30 1.896548
618.40 1.80474
618.50 1.799351
618.60 1.81352
618.70 1.742984
618.80 1.515129
618.90 1.167785
619.00 0.815073
619.10 0.5945153
619.20 0.5478983
619.30 0.596959
619.40 0.6193841
619.50 0.5467777
619.60 0.4271584
619.70 0.3834146
619.80 0.4955667
619.90 0.746972
620.00 1.081082
620.10 1.440936
620.20 1.783624
620.30 2.038012
620.40 2.128597
620.50 2.012117
620.60 1.761535
620.70 1.53987
620.80 1.478961
620.90 1.634573
621.00 1.958715
621.10 2.271532
621.20 2.414673
621.30 2.371185
621.40 2.194579
621.50 1.946724
621.60 1.675405
621.70 1.440048
621.80 1.293997
621.90 1.297999
622.00 1.437827
622.10 1.604487
622.20 1.760989
622.30 1.922983
622.40 2.074217
622.50 2.210836
622.60 2.322835
622.70 2.370396
622.80 2.380997
622.90 2.443094
623.00 2.613228
623.10 2.877375
623.20 3.158719
623.30 3.373557
623.40 3.480695
623.50 3.481648
623.60 3.359262
623.70 3.085706
623.80 2.686895
623.90 2.233831
624.00 1.841477
624.10 1.640615
624.20 1.647042
624.30 1.782902
624.40 1.950974
624.50 2.05575
624.60 2.036972
624.70 1.88244
624.80 1.634149
624.90 1.354011
625.00 1.073174
625.10 0.8165257
625.20 0.6280382
625.30 0.5492949
625.40 0.5972237
625.50 0.7573149
625.60 1.013415
625.70 1.322024
625.80 1.609326
625.90 1.806857
626.00 1.922153
626.10 2.017723
626.20 2.149598
626.30 2.378181
626.40 2.741375
626.50 3.198812
626.60 3.612022
626.70 3.854715
626.80 3.865434
626.90 3.600367
627.00 3.047742
627.10 2.306332
627.20 1.578358
627.30 1.075581
627.40 0.9019
627.50 1.025923
627.60 1.345567
627.70 1.726148
627.80 2.070696
627.90 2.326277
628.00 2.520792
628.10 2.719482
628.20 2.932127
628.30 3.182092
628.40 3.506968
628.50 3.895546
628.60 4.307593
628.70 4.674011
628.80 4.920206
628.90 5.028152
629.00 4.978144
629.10 4.752493
629.20 4.378576
629.30 3.923295
629.40 3.461642
629.50 3.105186
629.60 3.032007
629.70 3.334564
629.80 3.913051
629.90 4.596148
630.00 5.226972
630.10 5.688136
630.20 5.92618
630.30 5.90522
630.40 5.658864
630.50 5.227648
630.60 4.658298
630.70 4.084666
630.80 3.65662
630.90 3.468299
631.00 3.511581
631.10 3.722185
631.20 4.086834
631.30 4.564294
631.40 5.010397
631.50 5.26742
631.60 5.275634
631.70 5.097589
631.80 4.816135
631.90 4.534674
632.00 4.361255
632.10 4.394624
632.20 4.693498
632.30 5.161412
632.40 5.574098
632.50 5.731753
632.60 5.533726
632.70 4.998191
632.80 4.289789
632.90 3.646121
633.00 3.205273
633.10 2.956811
633.20 2.855251
633.30 2.917978
633.40 3.158817
633.50 3.49682
633.60 3.824982
633.70 4.099825
633.80 4.339674
633.90 4.562364
634.00 4.780417
634.10 4.990259
634.20 5.125222
634.30 5.142232
634.40 5.071092
634.50 4.979483
634.60 4.964284
634.70 5.054983
634.80 5.213647
634.90 5.364034
635.00 5.43229
635.10 5.36703
635.20 5.115948
635.30 4.678586
635.40 4.100206
635.50 3.474333
635.60 2.957116
635.70 2.683511
635.80 2.733415
635.90 3.143959
636.00 3.838134
636.10 4.671197
636.20 5.586589
636.30 6.565491
636.40 7.46694
636.50 8.118401
636.60 8.440789
636.70 8.426215
636.80 8.105432
636.90 7.518638
637.00 6.725123
637.10 5.861128
637.20 5.067555
637.30 4.440503
637.40 4.142495
637.50 4.296676
637.60 4.780443
637.70 5.343025
637.80 5.783505
637.90 5.950985
638.00 5.779888
638.10 5.311567
638.20 4.678156
638.30 4.085683
638.40 3.732793
638.50 3.706205
638.60 4.019081
638.70 4.612765
638.80 5.294879
638.90 5.858906
639.00 6.209191
639.10 6.358111
639.20 6.385605
639.30 6.383933
639.40 6.378844
639.50 6.329781
639.60 6.181974
639.70 5.892677
639.80 5.469746
639.90 4.978299
640.00 4.498339
640.10 4.12553
640.20 3.949765
640.30 4.013664
640.40 4.293334
640.50 4.699713
640.60 5.118256
640.70 5.432052
640.80 5.584199
640.90 5.627705
641.00 5.634777
641.10 5.64406
641.20 5.670974
641.30 5.708243
641.40 5.726996
641.50 5.682735
641.60 5.559534
641.70 5.406248
641.80 5.25782
641.90 5.096149
642.00 4.896264
642.10 4.643611
642.20 4.350628
642.30 4.028153
642.40 3.697633
642.50 3.405007
642.60 3.196645
642.70 3.113792
642.80 3.228637
642.90 3.610626
643.00 4.216509
643.10 4.872049
643.20 5.416293
643.30 5.75566
643.40 5.820782
643.50 5.618553
643.60 5.175568
643.70 4.533442
643.80 3.820068
643.90 3.199792
644.00 2.815402
644.10 2.732447
644.20 2.924977
644.30 3.339828
644.40 3.916139
644.50 4.588857
644.60 5.254515
644.70 5.812282
644.80 6.26895
644.90 6.649076
645.00 6.995719
645.10 7.340762
645.20 7.625201
645.30 7.763016
645.40 7.672892
645.50 7.344162
645.60 6.843223
645.70 6.243956
645.80 5.665782
645.90 5.233087
646.00 5.006047
646.10 5.019548
646.20 5.249203
646.30 5.668439
646.40 6.212299
646.50 6.760911
646.60 7.207698
646.70 7.443649
646.80 7.469555
646.90 7.356223
647.00 7.130603
647.10 6.820771
647.20 6.447056
647.30 6.024764
647.40 5.635341
647.50 5.369866
647.60 5.263695
647.70 5.250074
647.80 5.244207
647.90 5.236077
648.00 5.235777
648.10 5.288438
648.20 5.360787
648.30 5.390637
648.40 5.422064
648.50 5.538832
648.60 5.824684
648.70 6.317377
648.80 6.959948
648.90 7.650372
649.00 8.253671
649.10 8.635839
649.20 8.742263
649.30 8.596664
649.40 8.360415
649.50 8.239327
649.60 8.367698
649.70 8.761834
649.80 9.305673
649.90 9.814313
650.00 10.07529
650.10 9.907956
650.20 9.263047
650.30 8.214601
650.40 6.959055
650.50 5.797568
650.60 4.978905
650.70 4.663021
650.80 4.84884
650.90 5.375752
651.00 6.064347
651.10 6.767627
651.20 7.367667
651.30 7.761762
651.40 7.90407
651.50 7.864351
651.60 7.761171
651.70 7.696533
651.80 7.727661
651.90 7.845955
652.00 8.0329
652.10 8.224783
652.20 8.32252
652.30 8.276299
652.40 8.088585
652.50 7.823218
652.60 7.587245
652.70 7.498679
652.80 7.618918
652.90 7.913463
653.00 8.313824
653.10 8.740562
653.20 9.127758
653.30 9.424937
653.40 9.627505
653.50 9.7701
653.60 9.840145
653.70 9.783886
653.80 9.572711
653.90 9.225911
654.00 8.747157
654.10 8.153801
654.20 7.592043
654.30 7.256766
654.40 7.223278
654.50 7.4315
654.60 7.76329
654.70 8.125635
654.80 8.416424
654.90 8.543628
655.00 8.509819
655.10 8.383974
655.20 8.220298
655.30 8.02718
655.40 7.849201
655.50 7.765789
655.60 7.786635
655.70 7.894212
655.80 8.128333
655.90 8.553942
656.00 9.178151
656.10 9.91928
656.20 10.64023
656.30 11.19068
656.40 11.48244
656.50 11.50147
656.60 11.28906
656.70 10.90234
656.80 10.38804
656.90 9.812467
657.00 9.240392
657.10 8.706512
657.20 8.244058
657.30 7.902481
657.40 7.716404
657.50 7.760349
657.60 8.106555
657.70 8.701932
657.80 9.385492
657.90 9.9906
658.00 10.39726
658.10 10.52119
658.20 10.35453
658.30 9.930476
658.40 9.322616
658.50 8.67595
658.60 8.117219
658.70 7.727744
658.80 7.583263
658.90 7.677269
659.00 7.908857
659.10 8.179118
659.20 8.405206
659.30 8.537358
659.40 8.602261
659.50 8.662708
659.60 8.750687
659.70 8.876925
659.80 9.080669
659.90 9.390575
660.00 9.798524
660.10 10.21803
660.20 10.48704
660.30 10.46367
660.40 10.10843
660.50 9.514282
660.60 8.836886
660.70 8.234908
660.80 7.806607
660.90 7.608934
661.00 7.64893
661.10 7.87977
661.20 8.199748
661.30 8.490294
661.40 8.657617
661.50 8.680072
661.60 8.633614
661.70 8.618178
661.80 8.69912
661.90 8.865491
662.00 9.061803
662.10 9.216796
662.20 9.249578
662.30 9.118843
662.40 8.884881
662.50 8.662728
662.60 8.54228
662.70 8.546729
662.80 8.664795
662.90 8.88056
663.00 9.145305
663.10 9.403013
663.20 9.623822
663.30 9.807484
663.40 9.974785
663.50 10.14423
663.60 10.35188
663.70 10.62901
663.80 10.95242
663.90 11.24446
664.00 11.41443
664.10 11.45531
664.20 11.42633
664.30 11.37328
664.40 11.3317
664.50 11.29142
664.60 11.1814
664.70 10.94261
664.80 10.57798
664.90 10.13414
665.00 9.674534
665.10 9.299892
665.20 9.114249
665.30 9.181404
665.40 9.532213
665.50 10.11077
665.60 10.77292
665.70 11.37906
665.80 11.86317
665.90 12.20588
666.00 12.40794
666.10 12.49267
666.20 12.48912
666.30 12.42025
666.40 12.29671
666.50 12.11237
666.60 11.85802
666.70 11.5567
666.80 11.29782
666.90 11.22092
667.00 11.45986
667.10 12.07551
667.20 12.93782
667.30 13.79063
667.40 14.42249
667.50 14.70464
667.60 14.60474
667.70 14.18647
667.80 13.56741
667.90 12.88844
668.00 12.30609
668.10 11.96378
668.20 11.90592
668.30 12.06462
668.40 12.32456
668.50 12.58286
668.60 12.78833
668.70 12.94798
668.80 13.09643
668.90 13.29932
669.00 13.61966
669.10 14.04133
669.20 14.50604
669.30 14.94756
669.40 15.28023
669.50 15.41397
669.60 15.29386
669.70 14.91991
669.80 14.31583
669.90 13.5069
670.00 12.56993
670.10 11.6132
670.20 10.73529
670.30 9.982308
670.40 9.328214
670.50 8.786007
670.60 8.412822
670.70 8.236872
670.80 8.26255
670.90 8.510053
671.00 8.967596
671.10 9.545591
671.20 10.13776
671.30 10.6696
671.40 11.08594
671.50 11.36429
671.60 11.52443
671.70 11.62004
671.80 11.73033
671.90 11.89682
672.00 12.13747
672.10 12.48868
672.20 12.95292
672.30 13.44204
672.40 13.83467
672.50 14.07038
672.60 14.14504
672.70 14.05255
672.80 13.8159
672.90 13.52241
673.00 13.25796
673.10 13.05563
673.20 12.91323
673.30 12.83114
673.40 12.8183
673.50 12.86251
673.60 12.91504
673.70 12.9204
673.80 12.84711
673.90 12.72562
674.00 12.62503
674.10 12.59283
674.20 12.69354
674.30 12.99475
674.40 13.52544
674.50 14.30034
674.60 15.26929
674.70 16.28117
674.80 17.11021
674.90 17.52411
675.00 17.43608
675.10 16.92885
675.20 16.17372
675.30 15.31101
675.40 14.44253
675.50 13.7288
675.60 13.28908
675.70 13.13294
675.80 13.19955
675.90 13.3421
676.00 13.41019
676.10 13.38244
676.20 13.30702
676.30 13.22355
676.40 13.13579
676.50 13.0128
676.60 12.82764
676.70 12.60076
676.80 12.43056
676.90 12.41187
677.00 12.57159
677.10 12.88825
677.20 13.30275
677.30 13.77058
677.40 14.27583
677.50 14.79875
677.60 15.30909
677.70 15.74642
677.80 16.08808
677.90 16.38721
678.00 16.7121
678.10 17.07165
678.20 17.3769
678.30 17.53423
678.40 17.51238
678.50 17.31458
678.60 16.95454
678.70 16.45011
678.80 15.83251
678.90 15.12915
679.00 14.3913
679.10 13.7261
679.20 13.23302
679.30 12.98772
679.40 13.05252
679.50 13.39498
679.60 13.89117
679.70 14.38484
679.80 14.7223
679.90 14.82297
680.00 14.72471
680.10 14.53529
680.20 14.34504
680.30 14.17197
680.40 13.98812
680.50 13.7841
680.60 13.52397
680.70 13.13513
680.80 12.56805
680.90 11.90613
681.00 11.33265
681.10 10.99122
681.20 10.9345
681.30 11.13789
681.40 11.52083
681.50 11.99187
681.60 12.48784
681.70 12.94605
681.80 13.30804
681.90 13.50928
682.00 13.52489
682.10 13.35394
682.20 12.98666
682.30 12.41984
682.40 11.68016
682.50 10.81437
682.60 9.946087
682.70 9.261474
682.80 8.855465
682.90 8.708134
683.00 8.747431
683.10 8.940248
683.20 9.294077
683.30 9.77555
683.40 10.31694
683.50 10.89503
683.60 11.47305
683.70 11.96192
683.80 12.28943
683.90 12.50439
684.00 12.71502
684.10 12.95168
684.20 13.20268
684.30 13.44606
684.40 13.66046
684.50 13.7935
684.60 13.77331
684.70 13.5962
684.80 13.28953
684.90 12.86047
685.00 12.36646
685.10 11.92951
685.20 11.64941
685.30 11.55092
685.40 11.58922
685.50 11.71717
685.60 11.95653
685.70 12.32031
685.80 12.75284
685.90 13.16835
686.00 13.47441
686.10 13.61835
686.20 13.60834
686.30 13.47738
686.40 13.27305
686.50 13.10407
686.60 13.09787
686.70 13.27995
686.80 13.57272
686.90 13.87984
687.00 14.08464
687.10 14.07778
687.20 13.82504
687.30 13.39826
687.40 12.91217
687.50 12.41719
687.60 11.89948
687.70 11.35154
687.80 10.8028
687.90 10.26293
688.00 9.74492
688.10 9.313609
688.20 9.039515
688.30 8.931476
688.40 8.964425
688.50 9.104116
688.60 9.253849
688.70 9.242462
688.80 9.006406
688.90 8.691935
689.00 8.477007
689.10 8.46035
689.20 8.665967
689.30 9.065931
689.40 9.599171
689.50 10.14617
689.60 10.57168
689.70 10.78882
689.80 10.74316
689.90 10.48224
690.00 10.16993
690.10 9.995255
690.20 10.03557
690.30 10.21437
690.40 10.45746
690.50 10.72521
690.60 10.96037
690.70 11.08606
690.80 11.00898
690.90 10.6678
691.00 10.07438
691.10 9.308473
691.20 8.487809
691.30 7.712792
691.40 7.088919
691.50 6.709226
691.60 6.606814
691.70 6.795239
691.80 7.252019
691.90 7.923664
692.00 8.696131
692.10 9.407196
692.20 9.964711
692.30 10.39281
692.40 10.77991
692.50 11.15503
692.60 11.4957
692.70 11.76341
692.80 11.87906
692.90 11.80493
693.00 11.56902
693.10 11.22316
693.20 10.84944
693.30 10.49475
693.40 10.26198
693.50 10.30007
693.60 10.62638
693.70 11.14858
693.80 11.71722
693.90 12.22114
694.00 12.62626
694.10 12.95831
694.20 13.27799
694.30 13.65842
694.40 14.19868
694.50 14.91317
694.60 15.71679
694.70 16.54224
694.80 17.299
694.90 17.83482
695.00 18.01525
695.10 17.76916
695.20 17.1162
695.30 16.17347
695.40 15.08194
695.50 13.95343
695.60 12.89995
695.70 12.02751
695.80 11.33532
695.90 10.78404
696.00 10.38881
696.10 10.14068
696.20 9.974761
696.30 9.87248
696.40 9.90138
696.50 10.17408
696.60 10.74016
696.70 11.51156
696.80 12.34181
696.90 13.09564
697.00 13.68733
697.10 14.05517
697.20 14.20492
697.30 14.20136
697.40 14.09958
697.50 13.9658
697.60 13.85017
697.70 13.76495
697.80 13.68731
697.90 13.54414
698.00 13.30361
698.10 13.01286
698.20 12.74277
698.30 12.54951
698.40 12.44477
698.50 12.43273
698.60 12.54438
698.70 12.80293
698.80 13.16474
698.90 13.55157
699.00 13.91742
699.10 14.24231
699.20 14.5157
699.30 14.71769
699.40 14.77692
699.50 14.63972
699.60 14.33602
699.70 13.94632
699.80 13.54935
699.90 13.20043
700.00 12.92178
700.10 12.7099
700.20 12.54434
700.30 12.3936
700.40 12.25258
700.50 12.1399
700.60 12.0811
700.70 12.10161
700.80 12.25041
700.90 12.56911
701.00 13.02567
701.10 13.56495
701.20 14.17122
701.30 14.84093
701.40 15.5583
701.50 16.29637
701.60 17.01914
701.70 17.6832
701.80 18.22267
701.90 18.55216
702.00 18.58623
702.10 18.28551
702.20 17.6842
702.30 16.88959
702.40 16.09038
702.50 15.48641
702.60 15.21337
702.70 15.33096
702.80 15.78204
702.90 16.44424
703.00 17.20058
703.10 17.8978
703.20 18.3989
703.30 18.66407
703.40 18.75606
703.50 18.79274
703.60 18.89701
703.70 19.13964
703.80 19.52047
703.90 20.01124
704.00 20.50395
704.10 20.80285
704.20 20.75899
704.30 20.35041
704.40 19.67611
704.50 18.93028
704.60 18.321
704.70 18.03381
704.80 18.16399
704.90 18.60903
705.00 19.14542
705.10 19.5998
705.20 19.87662
705.30 19.90622
705.40 19.69563
705.50 19.33327
705.60 18.91153
705.70 18.48031
705.80 18.05948
705.90 17.67404
706.00 17.37684
706.10 17.18806
706.20 17.07496
706.30 17.07755
706.40 17.27675
706.50 17.67784
706.60 18.22351
706.70 18.82587
706.80 19.37736
706.90 19.80654
707.00 20.12227
707.10 20.37222
707.20 20.59756
707.30 20.84111
707.40 21.11947
707.50 21.38157
707.60 21.57039
707.70 21.66645
707.80 21.66921
707.90 21.58394
708.00 21.40585
708.10 21.14219
708.20 20.84296
708.30 20.58552
708.40 20.41873
708.50 20.33419
708.60 20.32519
708.70 20.39659
708.80 20.49004
708.90 20.5446
709.00 20.57821
709.10 20.61624
709.20 20.63051
709.30 20.55576
709.40 20.39548
709.50 20.22691
709.60 20.09854
709.70 20.00616
709.80 19.88923
709.90 19.73132
710.00 19.55456
710.10 19.35261
710.20 19.16593
710.30 19.03711
710.40 18.93591
710.50 18.83565
710.60 18.76125
710.70 18.75774
710.80 18.81341
710.90 18.86462
711.00 18.87518
711.10 18.83324
711.20 18.79635
711.30 18.83618
711.40 18.97086
711.50 19.18907
711.60 19.44613
711.70 19.73178
711.80 20.0829
711.90 20.49864
712.00 20.93483
712.10 21.34721
712.20 21.68911
712.30 21.89653
712.40 21.91022
712.50 21.76371
712.60 21.5871
712.70 21.50529
712.80 21.59191
712.90 21.88435
713.00 22.36859
713.10 22.93939
713.20 23.3975
713.30 23.56162
713.40 23.3615
713.50 22.82473
713.60 22.0575
713.70 21.22497
713.80 20.52054
713.90 20.08448
714.00 19.91629
714.10 19.92194
714.20 20.05418
714.30 20.32897
714.40 20.77388
714.50 21.39141
714.60 22.16966
714.70 23.03228
714.80 23.82551
714.90 24.41253
715.00 24.67616
715.10 24.52629
715.20 23.93022
715.30 22.94408
715.40 21.75507
715.50 20.62823
715.60 19.76217
715.70 19.2526
715.80 19.10186
715.90 19.23808
716.00 19.55531
716.10 19.95246
716.20 20.35052
716.30 20.66161
716.40 20.8455
716.50 20.94322
716.60 21.0283
716.70 21.15916
716.80 21.34128
716.90 21.56183
717.00 21.80057
717.10 21.97916
717.20 21.99659
717.30 21.83233
717.40 21.54616
717.50 21.21613
717.60 20.9499
717.70 20.84555
717.80 20.95013
717.90 21.27381
718.00 21.80054
718.10 22.47604
718.20 23.18519
718.30 23.78163
718.40 24.16444
718.50 24.31206
718.60 24.27825
718.70 24.13726
718.80 23.97742
718.90 23.9149
719.00 23.98028
719.10 24.15214
719.20 24.42043
719.30 24.72273
719.40 24.9477
719.50 24.97611
719.60 24.74439
719.70 24.28145
719.80 23.6474
719.90 22.90911
720.00 22.17484
720.10 21.57238
720.20 21.16438
720.30 20.94713
720.40 20.92504
720.50 21.09651
720.60 21.40554
720.70 21.78714
720.80 22.19974
720.90 22.61764
721.00 23.02523
721.10 23.37055
721.20 23.58537
721.30 23.65906
721.40 23.57638
721.50 23.2984
721.60 22.83899
721.70 22.29172
721.80 21.80361
721.90 21.52152
722.00 21.53881
722.10 21.88728
722.20 22.54879
722.30 23.4666
722.40 24.51903
722.50 25.53413
722.60 26.3493
722.70 26.814
722.80 26.87448
722.90 26.59464
723.00 26.11562
723.10 25.58186
723.20 25.07604
723.30 24.66229
723.40 24.42656
723.50 24.41841
723.60 24.58654
723.70 24.79919
723.80 24.94254
723.90 24.97451
724.00 24.8672
724.10 24.61836
724.20 24.2735
724.30 23.97254
724.40 23.89367
724.50 24.15149
724.60 24.792
724.70 25.72496
724.80 26.77391
724.90 27.77362
725.00 28.61686
725.10 29.25775
725.20 29.67196
725.30 29.8522
725.40 29.84656
725.50 29.73965
725.60 29.57074
725.70 29.26407
725.80 28.71836
725.90 27.94513
726.00 27.07079
726.10 26.2851
726.20 25.72913
726.30 25.46201
726.40 25.47267
726.50 25.69498
726.60 26.05049
726.70 26.43881
726.80 26.74784
726.90 26.92394
727.00 27.08928
727.10 27.48581
727.20 28.21364
727.30 29.09445
727.40 29.81159
727.50 30.19826
727.60 30.25311
727.70 29.99084
727.80 29.47554
727.90 28.83046
728.00 28.184
728.10 27.69144
728.20 27.51522
728.30 27.73808
728.40 28.28116
728.50 28.92423
728.60 29.48716
728.70 29.96703
728.80 30.42451
728.90 30.78753
729.00 30.93941
729.10 30.87721
729.20 30.64813
729.30 30.2974
729.40 29.88636
729.50 29.45955
729.60 29.02939
729.70 28.5942
729.80 28.12651
729.90 27.62852
730.00 27.17567
730.10 26.86307
730.20 26.75192
730.30 26.87763
730.40 27.1896
730.50 27.59063
730.60 28.01904
730.70 28.3804
730.80 28.57933
730.90 28.54768
731.00 28.35291
731.10 28.18095
731.20 28.18168
731.30 28.4342
731.40 28.92293
731.50 29.52135
731.60 30.0699
731.70 30.44771
731.80 30.6257
731.90 30.63297
732.00 30.50402
732.10 30.34593
732.20 30.23293
732.30 30.20263
732.40 30.24592
732.50 30.29864
732.60 30.33913
732.70 30.40395
732.80 30.5324
732.90 30.70316
733.00 30.85577
733.10 30.90722
733.20 30.80811
733.30 30.56899
733.40 30.18524
733.50 29.64651
733.60 28.99792
733.70 28.3038
733.80 27.589
733.90 26.92925
734.00 26.47287
734.10 26.28223
734.20 26.34322
734.30 26.67374
734.40 27.28702
734.50 28.15463
734.60 29.15128
734.70 30.05527
734.80 30.71021
734.90 31.04715
735.00 31.07338
735.10 30.89111
735.20 30.63195
735.30 30.32821
735.40 29.95351
735.50 29.52388
735.60 29.0776
735.70 28.65842
735.80 28.34659
735.90 28.2344
736.00 28.4054
736.10 28.91631
736.20 29.69403
736.30 30.52658
736.40 31.18387
736.50 31.49079
736.60 31.324
736.70 30.63514
736.80 29.52001
736.90 28.23319
737.00 27.07976
737.10 26.3251
737.20 26.10755
737.30 26.38279
737.40 26.97098
737.50 27.64862
737.60 28.28477
737.70 28.87931
737.80 29.44911
737.90 29.9491
738.00 30.32145
738.10 30.57383
738.20 30.70275
738.30 30.67622
738.40 30.49871
738.50 30.19738
738.60 29.82078
738.70 29.46214
738.80 29.21825
738.90 29.10393
739.00 29.0122
739.10 28.82781
739.20 28.56672
739.30 28.31633
739.40 28.14159
739.50 28.07115
739.60 28.07905
739.70 28.07793
739.80 27.90676
739.90 27.42797
740.00 26.70155
740.10 25.90323
740.20 25.15977
740.30 24.58489
740.40 24.31196
740.50 24.40189
740.60 24.74707
740.70 25.19415
740.80 25.6668
740.90 26.09557
741.00 26.42376
741.10 26.63821
741.20 26.83108
741.30 27.15566
741.40 27.63652
741.50 28.1481
741.60 28.52938
741.70 28.64946
741.80 28.42323
741.90 27.81406
742.00 26.8792
742.10 25.7473
742.20 24.58098
742.30 23.55982
742.40 22.8179
742.50 22.44856
742.60 22.50143
742.70 22.93877
742.80 23.62176
742.90 24.37968
743.00 25.09748
743.10 25.70638
743.20 26.1736
743.30 26.52725
743.40 26.82559
743.50 27.11655
743.60 27.4191
743.70 27.74687
743.80 28.12636
743.90 28.5366
744.00 28.89482
744.10 29.11632
744.20 29.13854
744.30 28.93486
744.40 28.55062
744.50 28.07708
744.60 27.63262
744.70 27.31916
744.80 27.1503
744.90 27.08542
745.00 27.0579
745.10 27.02622
745.20 26.9944
745.30 26.97892
745.40 26.99379
745.50 27.02959
745.60 27.0774
745.70 27.15127
745.80 27.25796
745.90 27.3793
746.00 27.42692
746.10 27.32805
746.20 27.17675
746.30 27.12921
746.40 27.2883
746.50 27.64034
746.60 28.04995
746.70 28.36595
746.80 28.48319
746.90 28.36941
747.00 28.03375
747.10 27.54063
747.20 26.99761
747.30 26.5023
747.40 26.18627
747.50 26.13384
747.60 26.25734
747.70 26.40405
747.80 26.48264
747.90 26.49249
748.00 26.50526
748.10 26.57086
748.20 26.6919
748.30 26.85573
748.40 27.06055
748.50 27.29662
748.60 27.53498
748.70 27.73633
748.80 27.82356
748.90 27.73639
749.00 27.50607
749.10 27.20174
749.20 26.86136
749.30 26.47195
749.40 26.00127
749.50 25.46994
749.60 24.94366
749.70 24.47309
749.80 24.09217
749.90 23.83653
750.00 23.7419
750.10 23.82799
750.20 24.0816
750.30 24.46571
750.40 24.90683
750.50 25.32575
750.60 25.69022
750.70 26.0118
750.80 26.33127
750.90 26.65955
751.00 26.95073
751.10 27.16803
751.20 27.3125
751.30 27.40921
751.40 27.46703
751.50 27.47871
751.60 27.42349
751.70 27.21646
751.80 26.79575
751.90 26.20077
752.00 25.52069
752.10 24.83978
752.20 24.33108
752.30 24.14961
752.40 24.3074
752.50 24.74178
752.60 25.33035
752.70 25.91845
752.80 26.356
752.90 26.53398
753.00 26.42531
753.10 26.12262
753.20 25.73756
753.30 25.31089
753.40 24.8621
753.50 24.44197
753.60 23.97915
753.70 23.40815
753.80 22.83408
753.90 22.37787
754.00 22.11267
754.10 22.04618
754.20 22.13672
754.30 22.34348
754.40 22.64473
754.50 23.00323
754.60 23.36342
754.70 23.68237
754.80 23.91631
754.90 24.01331
755.00 23.94645
755.10 23.70522
755.20 23.23126
755.30 22.50877
755.40 21.66481
755.50 20.87689
755.60 20.30329
755.70 20.03633
755.80 20.09125
755.90 20.44118
756.00 20.98872
756.10 21.55844
756.20 21.96517
756.30 22.08976
756.40 21.9185
756.50 21.50359
756.60 20.98021
756.70 20.50373
756.80 20.16365
756.90 20.05079
757.00 20.23416
757.10 20.71514
757.20 21.42936
757.30 22.2592
757.40 23.06956
757.50 23.73468
757.60 24.17364
757.70 24.35098
757.80 24.24672
757.90 23.8813
758.00 23.301
758.10 22.58298
758.20 21.84022
758.30 21.13749
758.40 20.51278
758.50 20.00038
758.60 19.61242
758.70 19.34287
758.80 19.18706
758.90 19.15239
759.00 19.19933
759.10 19.23261
759.20 19.14131
759.30 18.8732
759.40 18.59251
759.50 18.593
759.60 19.10875
759.70 20.18971
759.80 21.65478
759.90 23.24298
760.00 24.74
760.10 25.85522
760.20 26.23933
760.30 25.73274
760.40 24.35561
760.50 22.30902
760.60 20.05706
760.70 18.13024
760.80 16.8046
760.90 16.09534
761.00 15.86817
761.10 15.98601
761.20 16.33182
761.30 16.68319
761.40 16.7556
761.50 16.43795
761.60 15.83291
761.70 15.06324
761.80 14.28798
761.90 13.6541
762.00 13.15242
762.10 12.72293
762.20 12.36381
762.30 12.07277
762.40 11.84246
762.50 11.74888
762.60 11.97075
762.70 12.65442
762.80 13.71793
762.90 14.81873
763.00 15.54312
763.10 15.56795
763.20 14.7618
763.30 13.21805
763.40 11.22498
763.50 9.166703
763.60 7.406554
763.70 6.294348
763.80 6.112415
763.90 6.807566
764.00 7.980967
764.10 9.15839
764.20 9.983027
764.30 10.35406
764.40 10.29637
764.50 9.839072
764.60 9.106392
764.70 8.301691
764.80 7.653494
764.90 7.363071
765.00 7.567342
765.10 8.215137
765.20 8.991013
765.30 9.555227
765.40 9.672534
765.50 9.234362
765.60 8.318309
765.70 7.075109
765.80 5.724037
765.90 4.5683
766.00 3.847926
766.10 3.673478
766.20 3.979431
766.30 4.577926
766.40 5.209258
766.50 5.623036
766.60 5.72631
766.70 5.556985
766.80 5.232224
766.90 4.898685
767.00 4.627486
767.10 4.409924
767.20 4.233366
767.30 4.10014
767.40 3.98958
767.50 3.855875
767.60 3.709289
767.70 3.592297
767.80 3.530753
767.90 3.550498
768.00 3.649388
768.10 3.813129
768.20 4.019539
768.30 4.225638
768.40 4.410554
768.50 4.590517
768.60 4.770591
768.70 4.910628
768.80 4.964943
768.90 4.911861
769.00 4.716056
769.10 4.331839
769.20 3.762447
769.30 3.052054
769.40 2.254888
769.50 1.427095
769.60 0.6693508
769.70 0.08091118
769.80 0
769.90 0
770.00 0
770.10 0.01564768
770.20 0.561036
770.30 1.214959
770.40 1.908505
770.50 2.558697
770.60 3.085235
770.70 3.435671
770.80 3.561599
770.90 3.422347
771.00 2.994886
771.10 2.385594
771.20 1.924669
771.30 1.804189
771.40 1.958563
771.50 2.351125
771.60 3.045134
771.70 4.148786
771.80 5.669265
771.90 7.433844
772.00 9.166128
772.10 10.62356
772.20 11.73529
772.30 12.56081
772.40 13.15618
772.50 13.50187
772.60 13.45019
772.70 12.99384
772.80 12.33808
772.90 11.69184
773.00 11.16938
773.10 10.71827
773.20 10.27044
773.30 9.917192
773.40 9.83773
773.50 10.15671
773.60 10.83348
773.70 11.66753
773.80 12.48583
773.90 13.18682
774.00 13.72795
774.10 14.14083
774.20 14.48417
774.30 14.75856
774.40 14.91142
774.50 14.91997
774.60 14.8199
774.70 14.65686
774.80 14.44582
774.90 14.20342
775.00 13.98511
775.10 13.88796
775.20 13.96366
775.30 14.11213
775.40 14.19639
775.50 14.16337
775.60 14.05101
775.70 14.00198
775.80 14.13508
775.90 14.51326
776.00 15.1453
776.10 15.95698
776.20 16.80704
776.30 17.52779
776.40 17.96468
776.50 18.00143
776.60 17.61906
776.70 17.03412
776.80 16.52291
776.90 16.25319
777.00 16.30925
777.10 16.60055
777.20 17.01942
777.30 17.53373
777.40 18.04489
777.50 18.40845
777.60 18.59221
777.70 18.65001
777.80 18.66445
777.90 18.71374
778.00 18.81796
778.10 18.93715
778.20 19.04244
778.30 19.11683
778.40 19.13486
778.50 19.12378
778.60 19.09086
778.70 19.0176
778.80 19.00757
778.90 19.1692
779.00 19.44991
779.10 19.74903
779.20 20.02736
779.30 20.25964
779.40 20.36239
779.50 20.19817
779.60 19.63054
779.70 18.59024
779.80 17.12146
779.90 15.45367
780.00 13.96487
780.10 12.95405
780.20 12.49494
780.30 12.58317
780.40 13.1737
780.50 14.09847
780.60 15.1351
780.70 16.12436
780.80 17.08488
780.90 18.13352
781.00 19.33571
781.10 20.71378
781.20 22.24485
781.30 23.78583
781.40 25.12326
781.50 26.0569
781.60 26.44778
781.70 26.22853
781.80 25.50403
781.90 24.60313
782.00 23.88895
782.10 23.58111
782.20 23.73451
782.30 24.34512
782.40 25.34632
782.50 26.56634
782.60 27.7759
782.70 28.72839
782.80 29.21257
782.90 29.16283
783.00 28.72877
783.10 28.16262
783.20 27.62889
783.30 27.09957
783.40 26.47062
783.50 25.7881
783.60 25.15984
783.70 24.59101
783.80 24.07044
783.90 23.65517
784.00 23.42879
784.10 23.43803
784.20 23.69
784.30 24.16096
784.40 24.75493
784.50 25.36181
784.60 25.98607
784.70 26.61658
784.80 27.08007
784.90 27.17443
785.00 26.82335
785.10 26.08973
785.20 25.1497
785.30 24.23203
785.40 23.55679
785.50 23.22806
785.60 23.17759
785.70 23.35873
785.80 23.81795
785.90 24.5585
786.00 25.48926
786.10 26.56947
786.20 27.84044
786.30 29.25376
786.40 30.66674
786.50 31.90394
786.60 32.74653
786.70 32.99848
786.80 32.60642
786.90 31.76656
787.00 30.8635
787.10 30.19214
787.20 29.79658
787.30 29.60099
787.40 29.5156
787.50 29.46477
787.60 29.46221
787.70 29.58138
787.80 29.89305
787.90 30.46404
788.00 31.32965
788.10 32.37426
788.20 33.35466
788.30 34.06501
788.40 34.43146
788.50 34.43029
788.60 34.04993
788.70 33.3454
788.80 32.48054
788.90 31.68478
789.00 31.11232
789.10 30.82944
789.20 30.82993
789.30 31.01913
789.40 31.30716
789.50 31.71575
789.60 32.2926
789.70 33.02089
789.80 33.77117
789.90 34.36145
790.00 34.77553
790.10 35.13971
790.20 35.50967
790.30 35.84556
790.40 36.0737
790.50 36.12315
790.60 35.96841
790.70 35.65064
790.80 35.29054
790.90 35.02024
791.00 34.94571
791.10 35.07041
791.20 35.23704
791.30 35.3446
791.40 35.34774
791.50 35.21172
791.60 34.95425
791.70 34.57363
791.80 34.14252
791.90 33.82691
792.00 33.77235
792.10 34.07879
792.20 34.69914
792.30 35.46579
792.40 36.19882
792.50 36.76455
792.60 37.2019
792.70 37.61197
792.80 38.06472
792.90 38.58089
793.00 39.09492
793.10 39.58175
793.20 40.03027
793.30 40.35194
793.40 40.44441
793.50 40.22709
793.60 39.71375
793.70 39.03678
793.80 38.38006
793.90 37.9144
794.00 37.66556
794.10 37.48895
794.20 37.1446
794.30 36.34907
794.40 34.91986
794.50 32.82155
794.60 30.17824
794.70 27.30014
794.80 24.63308
794.90 22.65047
795.00 21.76916
795.10 22.20345
795.20 23.79059
795.30 26.16576
795.40 29.00971
795.50 31.96938
795.60 34.67555
795.70 36.94622
795.80 38.77109
795.90 40.20954
796.00 41.32563
796.10 42.19786
796.20 42.84238
796.30 43.17493
796.40 43.10459
796.50 42.64756
796.60 41.97535
796.70 41.26851
796.80 40.6359
796.90 40.19688
797.00 40.0767
797.10 40.28441
797.20 40.69555
797.30 41.16403
797.40 41.60054
797.50 41.9289
797.60 42.11012
797.70 42.25157
797.80 42.48284
797.90 42.7772
798.00 43.06116
798.10 43.30145
798.20 43.44879
798.30 43.43509
798.40 43.24851
798.50 42.96447
798.60 42.69927
798.70 42.54147
798.80 42.5475
798.90 42.83088
799.00 43.50942
799.10 44.55134
799.20 45.82108
799.30 47.22915
799.40 48.72642
799.50 50.21923
799.60 51.48895
799.70 52.35091
799.80 52.79415
799.90 52.87357
800.00 52.66789
800.10 52.33328
800.20 52.05964
800.30 51.913
800.40 51.86082
800.50 51.88997
800.60 51.97137
800.70 51.99453
800.80 51.83215
800.90 51.41942
801.00 50.82706
801.10 50.18495
801.20 49.54521
801.30 48.91609
801.40 48.32683
801.50 47.82207
801.60 47.44343
801.70 47.21939
801.80 47.20579
801.90 47.43273
802.00 47.82398
802.10 48.28045
802.20 48.66283
802.30 48.8572
802.40 48.9407
802.50 49.10128
802.60 49.48094
802.70 50.13721
802.80 51.06601
802.90 52.20398
803.00 53.4113
803.10 54.47985
803.20 55.16758
803.30 55.3091
803.40 54.88582
803.50 53.99807
803.60 52.90879
803.70 51.93176
803.80 51.25247
803.90 50.94845
804.00 51.04866
804.10 51.56029
804.20 52.41253
804.30 53.43983
804.40 54.46592
804.50 55.40676
804.60 56.24716
804.70 56.89753
804.80 57.29755
804.90 57.43788
805.00 57.26585
805.10 56.82725
805.20 56.29775
805.30 55.86767
805.40 55.64484
805.50 55.64415
805.60 55.86817
805.70 56.40652
805.80 57.31392
805.90 58.40168
806.00 59.41729
806.10 60.24579
806.20 60.82503
806.30 61.19073
806.40 61.45448
806.50 61.624
806.60 61.64701
806.70 61.51887
806.80 61.30616
806.90 61.12405
807.00 61.08047
807.10 61.1551
807.20 61.28282
807.30 61.56532
807.40 62.08943
807.50 62.84259
807.60 63.77403
807.70 64.73191
807.80 65.51837
807.90 66.01426
808.00 66.20884
808.10 66.18424
808.20 66.08212
808.30 66.00036
808.40 65.97987
808.50 66.03014
808.60 66.09926
808.70 66.06799
808.80 65.84916
808.90 65.44105
809.00 64.90891
809.10 64.38624
809.20 64.00327
809.30 63.82428
809.40 63.83127
809.50 63.86902
809.60 63.7527
809.70 63.40957
809.80 62.88345
809.90 62.26645
810.00 61.67918
810.10 61.27258
810.20 61.17748
810.30 61.44017
810.40 62.04375
810.50 62.96003
810.60 64.13267
810.70 65.46118
810.80 66.76488
810.90 67.859
811.00 68.62186
811.10 69.01344
811.20 69.02823
811.30 68.71129
811.40 68.1414
811.50 67.39986
811.60 66.61299
811.70 65.94265
811.80 65.54006
811.90 65.46792
812.00 65.74171
812.10 66.31051
812.20 67.11363
812.30 68.12963
812.40 69.28225
812.50 70.43006
812.60 71.42246
812.70 72.09049
812.80 72.28604
812.90 71.98941
813.00 71.32656
813.10 70.50534
813.20 69.74161
813.30 69.22876
813.40 69.09161
813.50 69.39385
813.60 70.0679
813.70 70.89297
813.80 71.61459
813.90 72.0549
814.00 72.16302
814.10 71.99642
814.20 71.74364
814.30 71.64296
814.40 71.80938
814.50 72.20012
814.60 72.65779
814.70 72.92907
814.80 72.81213
814.90 72.25941
815.00 71.37831
815.10 70.40149
815.20 69.55245
815.30 69.0454
815.40 69.10081
815.50 69.85134
815.60 71.24304
815.70 72.99663
815.80 74.71563
815.90 76.09106
816.00 77.02941
816.10 77.57671
816.20 77.77032
816.30 77.69444
816.40 77.54296
816.50 77.53775
816.60 77.88482
816.70 78.61013
816.80 79.51187
816.90 80.29297
817.00 80.73049
817.10 80.80661
817.20 80.61394
817.30 80.13531
817.40 79.22733
817.50 77.88939
817.60 76.32243
817.70 74.70467
817.80 73.04951
817.90 71.23146
818.00 69.13696
818.10 66.80742
818.20 64.50289
818.30 62.66247
818.40 61.69072
818.50 61.75583
818.60 62.80355
818.70 64.6767
818.80 67.06593
818.90 69.42298
819.00 71.07589
819.10 71.41841
819.20 70.13909
819.30 67.41814
819.40 63.91694
819.50 60.51812
819.60 57.97894
819.70 56.75852
819.80 57.01301
819.90 58.59534
820.00 61.14482
820.10 64.23295
820.20 67.44123
820.30 70.41616
820.40 72.96026
820.50 75.10015
820.60 76.95196
820.70 78.52004
820.80 79.68733
820.90 80.36024
821.00 80.52348
821.10 80.24646
821.20 79.68303
821.30 79.07089
821.40 78.67064
821.50 78.62924
821.60 78.97299
821.70 79.66086
821.80 80.56493
821.90 81.45327
822.00 82.12087
822.10 82.5353
822.20 82.78179
822.30 82.96179
822.40 83.19501
822.50 83.63949
822.60 84.44005
822.70 85.62063
822.80 87.02335
822.90 88.39053
823.00 89.48029
823.10 90.10138
823.20 90.17206
823.30 89.7681
823.40 89.09997
823.50 88.42
823.60 87.92928
823.70 87.74412
823.80 87.90057
823.90 88.29602
824.00 88.71285
824.10 88.97901
824.20 89.04763
824.30 88.97337
824.40 88.81975
824.50 88.72956
824.60 88.84442
824.70 89.1925
824.80 89.74902
824.90 90.42157
825.00 91.02853
825.10 91.2803
825.20 90.95696
825.30 90.06366
825.40 88.73142
825.50 87.16759
825.60 85.64439
825.70 84.45001
825.80 83.89775
825.90 84.13546
826.00 85.09799
826.10 86.58264
826.20 88.23246
826.30 89.6278
826.40 90.40237
826.50 90.40233
826.60 89.66322
826.70 88.35137
826.80 86.82543
826.90 85.53159
827.00 84.85105
827.10 84.87913
827.20 85.38686
827.30 86.21738
827.40 87.35983
827.50 88.66576
827.60 89.92163
827.70 91.09716
827.80 92.31077
827.90 93.57326
828.00 94.75459
828.10 95.70077
828.20 96.26697
828.30 96.3344
828.40 95.89829
828.50 95.18956
828.60 94.49232
828.70 93.75523
828.80 92.85094
828.90 91.94399
829.00 91.18625
829.10 90.46673
829.20 89.52086
829.30 88.27302
829.40 86.9396
829.50 85.78506
829.60 84.73393
829.70 83.51616
829.80 82.13748
829.90 80.82971
830.00 79.88765
830.10 79.6007
830.20 80.04488
830.30 81.03243
830.40 82.28369
830.50 83.59831
830.60 84.9978
830.70 86.5428
830.80 88.08794
830.90 89.36849
831.00 90.45848
831.10 91.66713
831.20 93.01591
831.30 94.28157
831.40 95.23018
831.50 95.80458
831.60 96.057
831.70 96.03131
831.80 95.81971
831.90 95.44944
832.00 94.79988
832.10 93.79646
832.20 92.5027
832.30 91.06705
832.40 89.6505
832.50 88.42178
832.60 87.50841
832.70 86.98253
832.80 86.89578
832.90 87.17442
833.00 87.64479
833.10 88.12933
833.20 88.4919
833.30 88.68288
833.40 88.77094
833.50 88.85935
833.60 88.93795
833.70 88.97885
833.80 89.15518
833.90 89.73753
834.00 90.89126
834.10 92.58783
834.20 94.54183
834.30 96.3195
834.40 97.56618
834.50 98.14505
834.60 98.1866
834.70 97.86999
834.80 97.07141
834.90 95.58902
835.00 93.64023
835.10 91.78845
835.20 90.49973
835.30 89.96335
835.40 90.14379
835.50 90.89745
835.60 92.1177
835.70 93.6821
835.80 95.36659
835.90 96.87402
836.00 97.9007
836.10 98.38405
836.20 98.7005
836.30 99.33499
836.40 100.4569
836.50 101.9107
836.60 103.3438
836.70 104.4014
836.80 104.8211
836.90 104.4821
837.00 103.4636
837.10 102.0207
837.20 100.4548
837.30 99.07913
837.40 98.1312
837.50 97.58149
837.60 97.2477
837.70 96.95581
837.80 96.61155
837.90 96.13265
838.00 95.49171
838.10 94.76012
838.20 94.07179
838.30 93.52152
838.40 93.17477
838.50 93.18375
838.60 93.68839
838.70 94.61153
838.80 95.7102
838.90 96.80431
839.00 97.75173
839.10 98.40983
839.20 98.69957
839.30 98.68298
839.40 98.48343
839.50 98.24464
839.60 98.24751
839.70 98.83071
839.80 100.0651
839.90 101.6687
840.00 103.3107
840.10 104.7922
840.20 106.0195
840.30 106.9356
840.40 107.4855
840.50 107.6112
840.60 107.2582
840.70 106.4808
840.80 105.5408
840.90 104.6933
841.00 104.0282
841.10 103.573
841.20 103.3993
841.30 103.5324
841.40 103.7977
841.50 104.0255
841.60 104.1561
841.70 104.1022
841.80 103.7494
841.90 103.1354
842.00 102.5306
842.10 102.277
842.20 102.5829
842.30 103.5787
842.40 105.2785
842.50 107.4563
842.60 109.8078
842.70 111.9628
842.80 113.5965
842.90 114.4452
843.00 114.2148
843.10 112.8757
843.20 110.7543
843.30 108.3167
843.40 105.9844
843.50 103.9725
843.60 102.2717
843.70 100.7237
843.80 99.18843
843.90 97.68007
844.00 96.25502
844.10 95.09306
844.20 94.43807
844.30 94.42202
844.40 95.05529
844.50 96.13594
844.60 97.42457
844.70 98.74918
844.80 99.86858
844.90 100.552
845.00 100.627
845.10 100.0252
845.20 98.84929
845.30 97.27127
845.40 95.43964
845.50 93.43755
845.60 91.3872
845.70 89.56391
845.80 88.29479
845.90 87.81411
846.00 88.12865
846.10 88.98922
846.20 90.09088
846.30 91.18595
846.40 92.15471
846.50 92.99909
846.60 93.64344
846.70 93.93762
846.80 93.84616
846.90 93.47478
847.00 92.90809
847.10 92.04756
847.20 90.82475
847.30 89.38174
847.40 87.95313
847.50 86.74447
847.60 85.83075
847.70 85.15448
847.80 84.5655
847.90 83.90404
848.00 83.15782
848.10 82.44744
848.20 81.91995
848.30 81.70936
848.40 81.87375
848.50 82.39258
848.60 83.113
848.70 83.79323
848.80 84.24137
848.90 84.33408
849.00 84.07105
849.10 83.67705
849.20 83.52225
849.30 83.77466
849.40 84.33135
849.50 85.07781
849.60 85.92616
849.70 86.80096
849.80 87.65449
849.90 88.5663
850.00 89.75827
850.10 91.29414
850.20 92.93111
850.30 94.37168
850.40 95.43177
850.50 95.93819
850.60 95.73998
850.70 94.88442
850.80 93.60213
850.90 92.21812
851.00 91.0897
851.10 90.44052
851.20 90.34814
851.30 90.70385
851.40 91.13034
851.50 91.14016
851.60 90.29917
851.70 88.25221
851.80 84.80422
851.90 80.08383
852.00 74.57182
852.10 69.01133
852.20 64.33923
852.30 61.49786
852.40 61.08103
852.50 63.09192
852.60 67.02875
852.70 72.08636
852.80 77.37363
852.90 82.18542
853.00 86.08415
853.10 88.8475
853.20 90.53138
853.30 91.44106
853.40 91.9473
853.50 92.37502
853.60 92.87768
853.70 93.30726
853.80 93.42896
853.90 93.23558
854.00 92.88074
854.10 92.49762
854.20 92.22922
854.30 92.23763
854.40 92.63972
854.50 93.617
854.60 95.38242
854.70 97.96225
854.80 101.1276
854.90 104.4409
855.00 107.3306
855.10 109.2179
855.20 109.7047
855.30 108.6985
855.40 106.4333
855.50 103.383
855.60 100.0953
855.70 97.05206
855.80 94.7153
855.90 93.40628
856.00 93.09403
856.10 93.52881
856.20 94.4774
856.30 95.72851
856.40 96.98984
856.50 97.94333
856.60 98.34586
856.70 98.08031
856.80 97.22708
856.90 96.07908
857.00 95.02402
857.10 94.45131
857.20 94.55685
857.30 95.29549
857.40 96.55915
857.50 98.10951
857.60 99.54336
857.70 100.5355
857.80 101.0521
857.90 101.2631
858.00 101.3752
858.10 101.5875
858.20 102.0235
858.30 102.6807
858.40 103.451
858.50 104.1338
858.60 104.4911
858.70 104.3727
858.80 103.7538
858.90 102.7537
859.00 101.5958
859.10 100.5954
859.20 100.1337
859.30 100.5485
859.40 102.0307
859.50 104.5501
859.60 107.6172
859.70 110.4692
859.80 112.5831
859.90 113.6527
860.00 113.5496
860.10 112.3828
860.20 110.4961
860.30 108.3431
860.40 106.3406
860.50 104.713
860.60 103.4022
860.70 102.1695
860.80 100.6837
860.90 98.59953
861.00 95.84261
861.10 92.54744
861.20 88.70863
861.30 84.3674
861.40 79.86861
861.50 75.74485
861.60 72.45477
861.70 70.14794
861.80 68.6339
861.90 67.61594
862.00 66.81352
862.10 66.00469
862.20 65.10829
862.30 64.1861
862.40 63.40355
862.50 62.93081
862.60 62.86533
862.70 63.2322
862.80 63.86238
862.90 64.43812
863.00 64.63572
863.10 64.33384
863.20 63.75061
863.30 63.13696
863.40 62.62502
863.50 62.30239
863.60 62.20099
863.70 62.21993
863.80 62.1905
863.90 62.13965
864.00 62.34975
864.10 62.96872
864.20 63.86617
864.30 64.83209
864.40 65.72023
864.50 66.45913
864.60 67.00206
864.70 67.47287
864.80 68.16081
864.90 69.28556
865.00 70.90101
865.10 72.98965
865.20 75.4226
865.30 77.59647
865.40 78.70394
865.50 78.45395
865.60 77.32652
865.70 76.09652
865.80 75.314
865.90 75.30644
866.00 76.27632
866.10 78.24186
866.20 80.90677
866.30 83.79303
866.40 86.35702
866.50 88.08376
866.60 88.7019
866.70 88.46577
866.80 87.84403
866.90 86.9941
867.00 85.71287
867.10 83.93584
867.20 82.08034
867.30 80.65881
867.40 79.93591
867.50 79.95923
867.60 80.68924
867.70 81.89901
867.80 83.23658
867.90 84.34587
868.00 84.89768
868.10 84.68775
868.20 83.77127
868.30 82.54261
868.40 81.57873
868.50 81.20693
868.60 81.25688
868.70 81.32604
868.80 80.96569
868.90 79.72291
869.00 77.29517
869.10 73.73996
869.20 69.46935
869.30 65.16827
869.40 61.61312
869.50 59.35498
869.60 58.59668
869.70 59.25729
869.80 61.02975
869.90 63.39808
870.00 65.741
870.10 67.54676
870.20 68.55803
870.30 68.68444
870.40 67.94694
870.50 66.4881
870.60 64.55787
870.70 62.33993
870.80 59.88772
870.90 57.34178
871.00 54.97897
871.10 53.15096
871.20 52.193
871.30 52.22875
871.40 53.12236
871.50 54.59589
871.60 56.33336
871.70 57.98692
871.80 59.22732
871.90 59.87947
872.00 59.96359
872.10 59.63478
872.20 59.17486
872.30 58.96047
872.40 59.33744
872.50 60.38726
872.60 61.86364
872.70 63.46527
872.80 64.9995
872.90 66.28397
873.00 67.16636
873.10 67.64453
873.20 67.79032
873.30 67.69508
873.40 67.48796
873.50 67.36785
873.60 67.51509
873.70 67.9711
873.80 68.67921
873.90 69.65358
874.00 70.96579
874.10 72.49039
874.20 73.85769
874.30 74.74493
874.40 75.02176
874.50 74.6288
874.60 73.68204
874.70 72.45401
874.80 71.18828
874.90 70.1102
875.00 69.44558
875.10 69.28016
875.20 69.44632
875.30 69.70837
875.40 69.96224
875.50 70.26991
875.60 70.77822
875.70 71.45757
875.80 72.02856
875.90 72.31151
876.00 72.34506
876.10 72.18729
876.20 71.84817
876.30 71.39271
876.40 70.98643
876.50 70.9523
876.60 71.67462
876.70 73.27868
876.80 75.66582
876.90 78.70712
877.00 82.24024
877.10 86.13555
877.20 90.18649
877.30 94.02884
877.40 97.29467
877.50 99.58065
877.60 100.3356
877.70 99.2129
877.80 96.40873
877.90 92.42414
878.00 87.91691
878.10 83.62323
878.20 80.05423
878.30 77.38892
878.40 75.64761
878.50 74.75088
878.60 74.73319
878.70 75.6988
878.80 77.49212
878.90 79.79671
879.00 82.43063
879.10 85.191
879.20 87.79338
879.30 89.93783
879.40 91.29328
879.50 91.63668
879.60 90.91322
879.70 89.301
879.80 87.14989
879.90 84.8348
880.00 82.61115
880.10 80.57001
880.20 78.75962
880.30 77.33578
880.40 76.57327
880.50 76.59456
880.60 77.07866
880.70 77.58759
880.80 78.00285
880.90 78.5091
881.00 79.43413
881.10 81.03211
881.20 83.42501
881.30 86.63816
881.40 90.52076
881.50 94.80264
881.60 99.12621
881.70 103.0336
881.80 106.1035
881.90 107.9539
882.00 108.5293
882.10 108.1636
882.20 107.2154
882.30 105.8946
882.40 104.2429
882.50 102.2553
882.60 100.1108
882.70 98.32322
882.80 97.35291
882.90 97.25134
883.00 97.81817
883.10 98.77292
883.20 99.80509
883.30 100.8565
883.40 101.9151
883.50 102.808
883.60 103.4192
883.70 103.7796
883.80 104.1574
883.90 104.8616
884.00 105.786
884.10 106.2175
884.20 105.4467
884.30 103.2917
884.40 99.92573
884.50 95.78791
884.60 91.56243
884.70 88.06468
884.80 86.062
884.90 86.00604
885.00 87.92784
885.10 91.49778
885.20 95.98923
885.30 100.3907
885.40 103.754
885.50 105.5492
885.60 105.6801
885.70 104.2435
885.80 101.6374
885.90 98.68677
886.00 96.36394
886.10 95.24541
886.20 95.39675
886.30 96.65978
886.40 98.66156
886.50 100.7295
886.60 102.0677
886.70 102.0469
886.80 100.4299
886.90 97.36294
887.00 93.34476
887.10 89.2326
887.20 85.97387
887.30 84.22662
887.40 84.27063
887.50 86.15205
887.60 89.69167
887.70 94.37991
887.80 99.43749
887.90 104.1208
888.00 108.1053
888.10 111.2513
888.20 113.4112
888.30 114.5108
888.40 114.5666
888.50 113.879
888.60 113.0529
888.70 112.6619
888.80 112.8394
888.90 113.321
889.00 113.6739
889.10 113.4245
889.20 112.1431
889.30 109.5312
889.40 105.406
889.50 100.079
889.60 94.53867
889.70 89.99918
889.80 87.44243
889.90 87.10306
890.00 88.34561
890.10 90.21296
890.20 92.00296
890.30 93.37323
890.40 94.15261
890.50 94.29618
890.60 93.94904
890.70 93.41951
890.80 93.13924
890.90 93.52268
891.00 94.71712
891.10 96.68479
891.20 99.23304
891.30 102.1412
891.40 105.244
891.50 108.2981
891.60 111.0257
891.70 113.1114
891.80 114.295
891.90 114.4413
892.00 113.625
892.10 112.1543
892.20 110.3692
892.30 108.5469
892.40 106.8617
892.50 105.3035
892.60 103.8195
892.70 102.3923
892.80 101.224
892.90 100.8166
893.00 101.6192
893.10 103.8366
893.20 107.3224
893.30 111.6074
893.40 116.0228
893.50 119.7202
893.60 121.8064
893.70 121.4518
893.80 118.195
893.90 112.315
894.00 104.6968
894.10 96.33928
894.20 88.08574
894.30 80.80575
894.40 75.41405
894.50 72.41898
894.60 71.82467
894.70 73.42042
894.80 76.80704
894.90 81.37012
895.00 86.57608
895.10 92.17733
895.20 98.03603
895.30 103.9696
895.40 109.7702
895.50 115.3454
895.60 120.5447
895.70 124.9358
895.80 128.0493
895.90 129.6664
896.00 129.8963
896.10 128.85
896.20 126.521
896.30 123.1351
896.40 119.1911
896.50 115.2498
896.60 111.7095
896.70 108.7555
896.80 106.6151
896.90 105.5893
897.00 105.8853
897.10 107.4488
897.20 109.921
897.30 112.8513
897.40 115.6897
897.50 117.9063
897.60 119.2478
897.70 119.6478
897.80 119.0845
897.90 117.7237
898.00 116.1138
898.10 114.9411
898.20 114.615
898.30 115.281
898.40 117.115
898.50 120.1015
898.60 123.5968
898.70 126.5597
898.80 128.1103
898.90 128.0097
899.00 126.6522
899.10 124.7146
899.20 122.8788
899.30 121.5707
899.40 120.8206
899.50 120.3835
899.60 119.9228
899.70 119.1685
899.80 117.8882
899.90 115.9483
900.00 115.9305
900.10 115.9128
900.20 115.8951
900.30 115.8774
900.40 115.8597
900.50 115.842
900.60 115.8243
900.70 115.8066
900.80 115.7888
900.90 115.7711
901.00 115.7534
901.10 115.7357
901.20 115.718
901.30 115.7003
901.40 115.6826
901.50 115.6649
901.60 115.6472
901.70 115.6294
901.80 115.6117
901.90 115.594
902.00 115.5763
902.10 115.5586
902.20 115.5409
902.30 115.5232
902.40 115.5055
902.50 115.4877
902.60 115.5208
902.70 115.7448
902.80 115.9688
902.90 116.1928
903.00 116.4168
903.10 116.6407
903.20 116.8647
903.30 117.0887
903.40 117.3127
903.50 117.5367
903.60 117.7607
903.70 117.9847
903.80 118.2087
903.90 118.4327
904.00 118.6567
904.10 118.8807
904.20 119.1047
904.30 119.3286
904.40 119.5526
904.50 119.7766
904.60 120.0006
904.70 120.2246
904.80 120.4486
904.90 120.6726
905.00 120.8966
905.10 121.1206
905.20 121.3446
905.30 121.5686
905.40 121.7926
905.50 122.0165
905.60 122.2405
905.70 122.4645
905.80 122.6885
905.90 122.9125
906.00 123.1365
906.10 123.2817
906.20 123.4227
906.30 123.5637
906.40 123.7047
906.50 123.8457
906.60 123.9867
906.70 124.1277
906.80 124.2687
906.90 124.4097
907.00 124.5507
907.10 124.6918
907.20 124.8328
907.30 124.9738
907.40 125.1148
907.50 125.2558
907.60 125.3968
907.70 125.5378
907.80 125.6788
907.90 125.8198
908.00 125.9608
908.10 126.1018
908.20 126.2429
908.30 126.3839
908.40 126.5249
908.50 126.6659
908.60 126.8069
908.70 126.9479
908.80 127.0889
908.90 127.2299
909.00 127.3709
909.10 127.5119
909.20 127.653
909.30 127.794
909.40 127.935
909.50 128.0661
909.60 128.1878
909.70 128.3095
909.80 128.4312
909.90 128.5529
910.00 128.6746
910.10 128.7963
910.20 128.918
910.30 129.0397
910.40 129.1614
910.50 129.2831
910.60 129.4048
910.70 129.5265
910.80 129.6482
910.90 129.7699
911.00 129.8916
911.10 130.0133
911.20 130.135
911.30 130.2567
911.40 130.3784
911.50 130.5
911.60 130.6217
911.70 130.7434
911.80 130.8651
911.90 130.9868
912.00 131.1085
912.10 131.2302
912.20 131.3519
912.30 131.4736
912.40 131.5953
912.50 131.717
912.60 131.8387
912.70 131.9604
912.80 132.0821
912.90 132.2038
913.00 132.253
913.10 132.2924
913.20 132.3317
913.30 132.3711
913.40 132.4104
913.50 132.4498
913.60 132.4891
913.70 132.5285
913.80 132.5678
913.90 132.6072
914.00 132.6465
914.10 132.6859
914.20 132.7252
914.30 132.7646
914.40 132.8039
914.50 132.8432
914.60 132.8826
914.70 132.9219
914.80 132.9613
914.90 133.0006
915.00 133.04
915.10 133.0793
915.20 133.1187
915.30 133.158
915.40 133.1974
915.50 133.2367
915.60 133.2761
915.70 133.3154
915.80 133.3548
915.90 133.3941
916.00 133.4335
916.10 133.4728
916.20 133.5122
916.30 133.5515
916.40 133.5944
916.50 133.6772
916.60 133.7601
916.70 133.843
916.80 133.9258
916.90 134.0087
917.00 134.0916
917.10 134.1744
917.20 134.2573
917.30 134.3402
917.40 134.4231
917.50 134.5059
917.60 134.5888
917.70 134.6717
917.80 134.7545
917.90 134.8374
918.00 134.9203
918.10 135.0031
918.20 135.086
918.30 135.1689
918.40 135.2518
918.50 135.3346
918.60 135.4175
918.70 135.5004
918.80 135.5832
918.90 135.6661
919.00 135.749
919.10 135.8318
919.20 135.9147
919.30 135.9976
919.40 136.0805
919.50 136.1633
919.60 136.2462
919.70 136.3291
919.80 136.4119
919.90 136.4877
920.00 136.4998
920.10 136.5118
920.20 136.5238
920.30 136.5359
920.40 136.5479
920.50 136.5599
920.60 136.5719
920.70 136.584
920.80 136.596
920.90 136.608
921.00 136.6201
921.10 136.6321
921.20 136.6441
921.30 136.6562
921.40 136.6682
921.50 136.6802
921.60 136.6923
921.70 136.7043
921.80 136.7163
921.90 136.7284
922.00 136.7404
922.10 136.7524
922.20 136.7645
922.30 136.7765
922.40 136.7885
922.50 136.8005
922.60 136.8126
922.70 136.8246
922.80 136.8366
922.90 136.8487
923.00 136.8607
923.10 136.8727
923.20 136.8848
923.30 136.8968
923.40 136.9088
923.50 137.0652
923.60 137.2308
923.70 137.3963
923.80 137.5619
923.90 137.7275
924.00 137.893
924.10 138.0586
924.20 138.2242
924.30 138.3898
924.40 138.5553
924.50 138.7209
924.60 138.8865
924.70 139.052
924.80 139.2176
924.90 139.3832
925.00 139.5487
925.10 139.7143
925.20 139.8799
925.30 140.0455
925.40 140.211
925.50 140.3766
925.60 140.5422
925.70 140.7077
925.80 140.8733
925.90 141.0389
926.00 141.2045
926.10 141.37
926.20 141.5356
926.30 141.7012
926.40 141.8667
926.50 142.0323
926.60 142.1979
926.70 142.3635
926.80 142.529
926.90 142.6946
927.00 142.7938
927.10 142.8505
927.20 142.9073
927.30 142.9641
927.40 143.0208
927.50 143.0776
927.60 143.1343
927.70 143.1911
927.80 143.2479
927.90 143.3046
928.00 143.3614
928.10 143.4181
928.20 143.4749
928.30 143.5316
928.40 143.5884
928.50 143.6452
928.60 143.7019
928.70 143.7587
928.80 143.8154
928.90 143.8722
929.00 143.929
929.10 143.9857
929.20 144.0425
929.30 144.0992
929.40 144.156
929.50 144.2127
929.60 144.2695
929.70 144.3263
929.80 144.383
929.90 144.4398
930.00 144.4965
930.10 144.5533
930.20 144.6101
930.30 144.6668
930.40 144.7236
930.50 144.7768
930.60 144.8013
930.70 144.8258
930.80 144.8503
930.90 144.8748
931.00 144.8993
931.10 144.9237
931.20 144.9482
931.30 144.9727
931.40 144.9972
931.50 145.0217
931.60 145.0462
931.70 145.0707
931.80 145.0952
931.90 145.1197
932.00 145.1442
932.10 145.1687
932.20 145.1932
932.30 145.2177
932.40 145.2422
932.50 145.2667
932.60 145.2912
932.70 145.3157
932.80 145.3402
932.90 145.3647
933.00 145.3891
933.10 145.4136
933.20 145.4381
933.30 145.4626
933.40 145.4871
933.50 145.5116
933.60 145.5361
933.70 145.5606
933.80 145.5851
933.90 145.6096
934.00 145.6341
934.10 145.6973
934.20 145.8099
934.30 145.9224
934.40 146.0349
934.50 146.1474
934.60 146.26
934.70 146.3725
934.80 146.485
934.90 146.5976
935.00 146.7101
935.10 146.8226
935.20 146.9352
935.30 147.0477
935.40 147.1602
935.50 147.2728
935.60 147.3853
935.70 147.4978
935.80 147.6104
935.90 147.7229
936.00 147.8354
936.10 147.948
936.20 148.0605
936.30 148.173
936.40 148.2856
936.50 148.3981
936.60 148.5106
936.70 148.6231
936.80 148.7357
936.90 148.8482
937.00 148.9607
937.10 149.0733
937.20 149.1858
937.30 149.2983
937.40 149.4109
937.50 149.5234
937.60 149.6359
937.70 149.7286
937.80 149.808
937.90 149.8875
938.00 149.9669
938.10 150.0464
938.20 150.1258
938.30 150.2052
938.40 150.2847
938.50 150.3641
938.60 150.4435
938.70 150.523
938.80 150.6024
938.90 150.6818
939.00 150.7613
939.10 150.8407
939.20 150.9201
939.30 150.9996
939.40 151.079
939.50 151.1584
939.60 151.2379
939.70 151.3173
939.80 151.3968
939.90 151.4762
940.00 151.5556
940.10 151.6351
940.20 151.7145
940.30 151.7939
940.40 151.8734
940.50 151.9528
940.60 152.0322
940.70 152.1117
940.80 152.1911
940.90 152.2705
941.00 152.35
941.10 152.4294
941.20 152.5089
941.30 152.6296
941.40 152.7791
941.50 152.9286
941.60 153.078
941.70 153.2275
941.80 153.377
941.90 153.5265
942.00 153.6759
942.10 153.8254
942.20 153.9749
942.30 154.1244
942.40 154.2739
942.50 154.4233
942.60 154.5728
942.70 154.7223
942.80 154.8718
942.90 155.0212
943.00 155.1707
943.10 155.3202
943.20 155.4697
943.30 155.6191
943.40 155.7686
943.50 155.9181
943.60 156.0676
943.70 156.217
943.80 156.3665
943.90 156.516
944.00 156.6655
944.10 156.815
944.20 156.9644
944.30 157.1139
944.40 157.2634
944.50 157.4129
944.60 157.5623
944.70 157.7118
944.80 157.8613
944.90 157.9952
945.00 158.1068
945.10 158.2183
945.20 158.3299
945.30 158.4414
945.40 158.553
945.50 158.6646
945.60 158.7761
945.70 158.8877
945.80 158.9992
945.90 159.1108
946.00 159.2223
946.10 159.3339
946.20 159.4454
946.30 159.557
946.40 159.6686
946.50 159.7801
946.60 159.8917
946.70 160.0032
946.80 160.1148
946.90 160.2263
947.00 160.3379
947.10 160.4495
947.20 160.561
947.30 160.6726
947.40 160.7841
947.50 160.8957
947.60 161.0072
947.70 161.1188
947.80 161.2303
947.90 161.3419
948.00 161.4535
948.10 161.565
948.20 161.6766
948.30 161.7881
948.40 161.8997
948.50 162.0022
948.60 161.9852
948.70 161.9683
948.80 161.9513
948.90 161.9343
949.00 161.9173
949.10 161.9003
949.20 161.8833
949.30 161.8663
949.40 161.8494
949.50 161.8324
949.60 161.8154
949.70 161.7984
949.80 161.7814
949.90 161.7644
950.00 161.7474
950.10 161.7304
950.20 161.7135
950.30 161.6965
950.40 161.6795
950.50 161.6625
950.60 161.6455
950.70 161.6285
950.80 161.6115
950.90 161.5945
951.00 161.5776
951.10 161.5606
951.20 161.5436
951.30 161.5266
951.40 161.5096
951.50 161.4926
951.60 161.4756
951.70 161.4586
951.80 161.4417
951.90 161.4247
952.00 161.4077
952.10 161.3907
952.20 161.4288
952.30 161.5103
952.40 161.5918
952.50 161.6733
952.60 161.7547
952.70 161.8362
952.80 161.9177
952.90 161.9992
953.00 162.0806
953.10 162.1621
953.20 162.2436
953.30 162.3251
953.40 162.4065
953.50 162.488
953.60 162.5695
953.70 162.651
953.80 162.7324
953.90 162.8139
954.00 162.8954
954.10 162.9769
954.20 163.0583
954.30 163.1398
954.40 163.2213
954.50 163.3028
954.60 163.3842
954.70 163.4657
954.80 163.5472
954.90 163.6287
955.00 163.7101
955.10 163.7916
955.20 163.8731
955.30 163.9545
955.40 164.036
955.50 164.1175
955.60 164.199
955.70 164.2804
955.80 164.3619
955.90 164.3852
956.00 164.4021
956.10 164.419
956.20 164.4358
956.30 164.4527
956.40 164.4695
956.50 164.4864
956.60 164.5033
956.70 164.5201
956.80 164.537
956.90 164.5538
957.00 164.5707
957.10 164.5876
957.20 164.6044
957.30 164.6213
957.40 164.6382
957.50 164.655
957.60 164.6719
957.70 164.6887
957.80 164.7056
957.90 164.7225
958.00 164.7393
958.10 164.7562
958.20 164.773
958.30 164.7899
958.40 164.8068
958.50 164.8236
958.60 164.8405
958.70 164.8573
958.80 164.8742
958.90 164.8911
959.00 164.9079
959.10 164.9248
959.20 164.9416
959.30 164.9585
959.40 164.9754
959.50 164.9916
959.60 164.9991
959.70 165.0066
959.80 165.0142
959.90 165.0217
960.00 165.0292
960.10 165.0368
960.20 165.0443
960.30 165.0518
960.40 165.0594
960.50 165.0669
960.60 165.0745
960.70 165.082
960.80 165.0895
960.90 165.0971
961.00 165.1046
961.10 165.1121
961.20 165.1197
961.30 165.1272
961.40 165.1347
961.50 165.1423
961.60 165.1498
961.70 165.1573
961.80 165.1649
961.90 165.1724
962.00 165.1799
962.10 165.1875
962.20 165.195
962.30 165.2025
962.40 165.2101
962.50 165.2176
962.60 165.2251
962.70 165.2327
962.80 165.2402
962.90 165.2478
963.00 165.2553
963.10 165.2628
963.20 165.2799
963.30 165.3933
963.40 165.5067
963.50 165.6202
963.60 165.7336
963.70 165.847
963.80 165.9605
963.90 166.0739
964.00 166.1873
964.10 166.3008
964.20 166.4142
964.30 166.5276
964.40 166.6411
964.50 166.7545
964.60 166.8679
964.70 166.9813
964.80 167.0948
964.90 167.2082
965.00 167.3216
965.10 167.4351
965.20 167.5485
965.30 167.6619
965.40 167.7754
965.50 167.8888
965.60 168.0022
965.70 168.1156
965.80 168.2291
965.90 168.3425
966.00 168.4559
966.10 168.5694
966.20 168.6828
966.30 168.7962
966.40 168.9097
966.50 169.0231
966.60 169.1365
966.70 169.25
966.80 169.3634
966.90 169.4768
967.00 169.5733
967.10 169.6689
967.20 169.7646
967.30 169.8602
967.40 169.9558
967.50 170.0514
967.60 170.1471
967.70 170.2427
967.80 170.3383
967.90 170.4339
968.00 170.5295
968.10 170.6252
968.20 170.7208
968.30 170.8164
968.40 170.912
968.50 171.0077
968.60 171.1033
968.70 171.1989
968.80 171.2945
968.90 171.3901
969.00 171.4858
969.10 171.5814
969.20 171.677
969.30 171.7726
969.40 171.8683
969.50 171.9639
969.60 172.0595
969.70 172.1551
969.80 172.2508
969.90 172.3464
970.00 172.442
970.10 172.5376
970.20 172.6332
970.30 172.7289
970.40 172.8245
970.50 172.9201
970.60 173.0157
970.70 173.2242
970.80 173.4933
970.90 173.7625
971.00 174.0317
971.10 174.3009
971.20 174.5701
971.30 174.8393
971.40 175.1084
971.50 175.3776
971.60 175.6468
971.70 175.916
971.80 176.1852
971.90 176.4543
972.00 176.7235
972.10 176.9927
972.20 177.2619
972.30 177.5311
972.40 177.8002
972.50 178.0694
972.60 178.3386
972.70 178.6078
972.80 178.877
972.90 179.1462
973.00 179.4153
973.10 179.6845
973.20 179.9537
973.30 180.2229
973.40 180.4921
973.50 180.7612
973.60 181.0304
973.70 181.2996
973.80 181.5688
973.90 181.838
974.00 182.1072
974.10 182.3763
974.20 182.6455
974.30 182.9147
974.40 183.1159
974.50 183.0615
974.60 183.0072
974.70 182.9528
974.80 182.8984
974.90 182.844
975.00 182.7896
975.10 182.7352
975.20 182.6809
975.30 182.6265
975.40 182.5721
975.50 182.5177
975.60 182.4633
975.70 182.4089
975.80 182.3545
975.90 182.3002
976.00 182.2458
976.10 182.1914
976.20 182.137
976.30 182.0826
976.40 182.0282
976.50 181.9738
976.60 181.9195
976.70 181.8651
976.80 181.8107
976.90 181.7563
977.00 181.7019
977.10 181.6475
977.20 181.5932
977.30 181.5388
977.40 181.4844
977.50 181.43
977.60 181.3756
977.70 181.3212
977.80 181.2668
977.90 181.2125
978.00 181.1581
978.10 181.1037
978.20 181.0581
978.30 181.0181
978.40 180.978
978.50 180.938
978.60 180.898
978.70 180.858
978.80 180.818
978.90 180.7779
979.00 180.7379
979.10 180.6979
979.20 180.6579
979.30 180.6179
979.40 180.5779
979.50 180.5378
979.60 180.4978
979.70 180.4578
979.80 180.4178
979.90 180.3778
980.00 180.3377
980.10 180.2977
980.20 180.2577
980.30 180.2177
980.40 180.1777
980.50 180.1377
980.60 180.0976
980.70 180.0576
980.80 180.0176
980.90 179.9776
981.00 179.9376
981.10 179.8975
981.20 179.8575
981.30 179.8175
981.40 179.7775
981.50 179.7375
981.60 179.6975
981.70 179.6574
981.80 179.6174
981.90 179.5774
982.00 179.4813
982.10 179.3761
982.20 179.2708
982.30 179.1656
982.40 179.0603
982.50 178.9551
982.60 178.8499
982.70 178.7446
982.80 178.6394
982.90 178.5342
983.00 178.4289
983.10 178.3237
983.20 178.2184
983.30 178.1132
983.40 178.008
983.50 177.9027
983.60 177.7975
983.70 177.6923
983.80 177.587
983.90 177.4818
984.00 177.3765
984.10 177.2713
984.20 177.1661
984.30 177.0608
984.40 176.9556
984.50 176.8504
984.60 176.7451
984.70 176.6399
984.80 176.5346
984.90 176.4294
985.00 176.3242
985.10 176.2189
985.20 176.1137
985.30 176.0085
985.40 175.9032
985.50 175.798
985.60 175.6927
985.70 175.5875
985.80 175.2795
985.90 174.9652
986.00 174.6509
986.10 174.3367
986.20 174.0224
986.30 173.7081
986.40 173.3938
986.50 173.0796
986.60 172.7653
986.70 172.451
986.80 172.1367
986.90 171.8225
987.00 171.5082
987.10 171.1939
987.20 170.8796
987.30 170.5654
987.40 170.2511
987.50 169.9368
987.60 169.6225
987.70 169.3083
987.80 168.994
987.90 168.6797
988.00 168.3654
988.10 168.0512
988.20 167.7369
988.30 167.4226
988.40 167.1083
988.50 166.7941
988.60 166.4798
988.70 166.1655
988.80 165.8512
988.90 165.537
989.00 165.2227
989.10 164.9084
989.20 164.5941
989.30 164.2799
989.40 163.9656
989.50 163.6513
989.60 163.3927
989.70 163.1382
989.80 162.8838
989.90 162.6293
990.00 162.3749
990.10 162.1204
990.20 161.866
990.30 161.6115
990.40 161.3571
990.50 161.1026
990.60 160.8481
990.70 160.5937
990.80 160.3392
990.90 160.0848
991.00 159.8303
991.10 159.5759
991.20 159.3214
991.30 159.067
991.40 158.8125
991.50 158.5581
991.60 158.3036
991.70 158.0492
991.80 157.7947
991.90 157.5403
992.00 157.2858
992.10 157.0314
992.20 156.7769
992.30 156.5225
992.40 156.268
992.50 156.0135
992.60 155.7591
992.70 155.5046
992.80 155.2502
992.90 154.9957
993.00 154.7413
993.10 154.4868
993.20 154.2324
993.30 153.9779
993.40 153.774
993.50 153.587
993.60 153.4
993.70 153.2129
993.80 153.0259
993.90 152.8389
994.00 152.6518
994.10 152.4648
994.20 152.2778
994.30 152.0907
994.40 151.9037
994.50 151.7167
994.60 151.5296
994.70 151.3426
994.80 151.1556
994.90 150.9685
995.00 150.7815
995.10 150.5945
995.20 150.4075
995.30 150.2204
995.40 150.0334
995.50 149.8464
995.60 149.6593
995.70 149.4723
995.80 149.2853
995.90 149.0982
996.00 148.9112
996.10 148.7242
996.20 148.5371
996.30 148.3501
996.40 148.1631
996.50 147.976
996.60 147.789
996.70 147.602
996.80 147.4149
996.90 147.2279
997.00 147.0409
997.10 146.8538
997.20 146.8003
997.30 146.9313
997.40 147.0622
997.50 147.1931
997.60 147.3241
997.70 147.455
997.80 147.5859
997.90 147.7169
998.00 147.8478
998.10 147.9787
998.20 148.1097
998.30 148.2406
998.40 148.3715
998.50 148.5025
998.60 148.6334
998.70 148.7643
998.80 148.8953
998.90 149.0262
999.00 149.1571
999.10 149.2881
999.20 149.419
999.30 149.5499
999.40 149.6809
999.50 149.8118
999.60 149.9427
999.70 150.0737
999.80 150.2046
999.90 150.3355
1000.00 150.4665
1000.10 150.5974
1000.20 150.7283
1000.30 150.8593
1000.40 150.9902
1000.50 151.1211
1000.60 151.2521
1000.70 151.383
1000.80 151.5139
1000.90 151.6449
1001.00 151.7758
1001.10 151.8761
1001.20 151.9765
1001.30 152.0768
1001.40 152.1771
1001.50 152.2775
1001.60 152.3778
1001.70 152.4781
1001.80 152.5784
1001.90 152.6788
1002.00 152.7791
1002.10 152.8794
1002.20 152.9798
1002.30 153.0801
1002.40 153.1804
1002.50 153.2808
1002.60 153.3811
1002.70 153.4814
1002.80 153.5818
1002.90 153.6821
1003.00 153.7824
1003.10 153.8827
1003.20 153.9831
1003.30 154.0834
1003.40 154.1837
1003.50 154.2841
1003.60 154.3844
1003.70 154.4847
1003.80 154.5851
1003.90 154.6854
1004.00 154.7857
1004.10 154.8861
1004.20 154.9864
1004.30 155.0867
1004.40 155.187
1004.50 155.2874
1004.60 155.3877
1004.70 155.488
1004.80 155.5884
1004.90 155.7074
1005.00 155.8546
1005.10 156.0018
1005.20 156.149
1005.30 156.2962
1005.40 156.4434
1005.50 156.5905
1005.60 156.7377
1005.70 156.8849
1005.80 157.0321
1005.90 157.1793
1006.00 157.3265
1006.10 157.4737
1006.20 157.6208
1006.30 157.768
1006.40 157.9152
1006.50 158.0624
1006.60 158.2096
1006.70 158.3568
1006.80 158.504
1006.90 158.6511
1007.00 158.7983
1007.10 158.9455
1007.20 159.0927
1007.30 159.2399
1007.40 159.3871
1007.50 159.5343
1007.60 159.6814
1007.70 159.8286
1007.80 159.9758
1007.90 160.123
1008.00 160.2702
1008.10 160.4174
1008.20 160.5646
1008.30 160.7117
1008.40 160.8589
1008.50 161.0061
1008.60 161.1533
1008.70 161.3005
1008.80 161.4385
1008.90 161.5705
1009.00 161.7024
1009.10 161.8343
1009.20 161.9663
1009.30 162.0982
1009.40 162.2301
1009.50 162.3621
1009.60 162.494
1009.70 162.6259
1009.80 162.7579
1009.90 162.8898
1010.00 163.0217
1010.10 163.1537
1010.20 163.2856
1010.30 163.4175
1010.40 163.5495
1010.50 163.6814
1010.60 163.8133
1010.70 163.9453
1010.80 164.0772
1010.90 164.2091
1011.00 164.3411
1011.10 164.473
1011.20 164.6049
1011.30 164.7369
1011.40 164.8688
1011.50 165.0007
1011.60 165.1327
1011.70 165.2646
1011.80 165.3965
1011.90 165.5285
1012.00 165.6604
1012.10 165.7923
1012.20 165.9243
1012.30 166.0562
1012.40 166.1881
1012.50 166.3201
1012.60 166.452
1012.70 166.5302
1012.80 166.5949
1012.90 166.6597
1013.00 166.7244
1013.10 166.7891
1013.20 166.8539
1013.30 166.9186
1013.40 166.9834
1013.50 167.0481
1013.60 167.1129
1013.70 167.1776
1013.80 167.2423
1013.90 167.3071
1014.00 167.3718
1014.10 167.4366
1014.20 167.5013
1014.30 167.5661
1014.40 167.6308
1014.50 167.6956
1014.60 167.7603
1014.70 167.825
1014.80 167.8898
1014.90 167.9545
1015.00 168.0193
1015.10 168.084
1015.20 168.1488
1015.30 168.2135
1015.40 168.2782
1015.50 168.343
1015.60 168.4077
1015.70 168.4725
1015.80 168.5372
1015.90 168.602
1016.00 168.6667
1016.10 168.7314
1016.20 168.7962
1016.30 168.8609
1016.40 168.9257
1016.50 168.9904
1016.60 168.9649
1016.70 168.9169
1016.80 168.8688
1016.90 168.8207
1017.00 168.7727
1017.10 168.7246
1017.20 168.6766
1017.30 168.6285
1017.40 168.5804
1017.50 168.5324
1017.60 168.4843
1017.70 168.4363
1017.80 168.3882
1017.90 168.3401
1018.00 168.2921
1018.10 168.244
1018.20 168.196
1018.30 168.1479
1018.40 168.0998
1018.50 168.0518
1018.60 168.0037
1018.70 167.9556
1018.80 167.9076
1018.90 167.8595
1019.00 167.8115
1019.10 167.7634
1019.20 167.7153
1019.30 167.6673
1019.40 167.6192
1019.50 167.5712
1019.60 167.5231
1019.70 167.475
1019.80 167.427
1019.90 167.3789
1020.00 167.3309
1020.10 167.2828
1020.20 167.2347
1020.30 167.1867
1020.40 167.1386
1020.50 167.2231
1020.60 167.3958
1020.70 167.5686
1020.80 167.7414
1020.90 167.9141
1021.00 168.0869
1021.10 168.2597
1021.20 168.4324
1021.30 168.6052
1021.40 168.778
1021.50 168.9508
1021.60 169.1235
1021.70 169.2963
1021.80 169.4691
1021.90 169.6418
1022.00 169.8146
1022.10 169.9874
1022.20 170.1601
1022.30 170.3329
1022.40 170.5057
1022.50 170.6784
1022.60 170.8512
1022.70 171.024
1022.80 171.1968
1022.90 171.3695
1023.00 171.5423
1023.10 171.7151
1023.20 171.8878
1023.30 172.0606
1023.40 172.2334
1023.50 172.4061
1023.60 172.5789
1023.70 172.7517
1023.80 172.9245
1023.90 173.0972
1024.00 173.27
1024.10 173.4428
1024.20 173.6155
1024.30 173.7883
1024.40 173.8941
1024.50 173.8993
1024.60 173.9046
1024.70 173.9098
1024.80 173.9151
1024.90 173.9203
1025.00 173.9256
1025.10 173.9308
1025.20 173.9361
1025.30 173.9413
1025.40 173.9466
1025.50 173.9518
1025.60 173.9571
1025.70 173.9623
1025.80 173.9676
1025.90 173.9728
1026.00 173.978
1026.10 173.9833
1026.20 173.9885
1026.30 173.9938
1026.40 173.999
1026.50 174.0043
1026.60 174.0095
1026.70 174.0148
1026.80 174.02
1026.90 174.0253
1027.00 174.0305
1027.10 174.0358
1027.20 174.041
1027.30 174.0463
1027.40 174.0515
1027.50 174.0568
1027.60 174.062
1027.70 174.0673
1027.80 174.0725
1027.90 174.0778
1028.00 174.083
1028.10 174.0883
1028.20 174.0935
1028.30 174.0988
1028.40 174.2768
1028.50 174.4548
1028.60 174.6328
1028.70 174.8107
1028.80 174.9887
1028.90 175.1667
1029.00 175.3447
1029.10 175.5227
1029.20 175.7007
1029.30 175.8787
1029.40 176.0567
1029.50 176.2347
1029.60 176.4127
1029.70 176.5907
1029.80 176.7686
1029.90 176.9466
1030.00 177.1246
1030.10 177.3026
1030.20 177.4806
1030.30 177.6586
1030.40 177.8366
1030.50 178.0146
1030.60 178.1926
1030.70 178.3706
1030.80 178.5486
1030.90 178.7266
1031.00 178.9045
1031.10 179.0825
1031.20 179.2605
1031.30 179.4385
1031.40 179.6165
1031.50 179.7945
1031.60 179.9725
1031.70 180.1505
1031.80 180.3285
1031.90 180.5065
1032.00 180.6845
1032.10 180.8624
1032.20 181.0404
1032.30 181.166
1032.40 181.239
1032.50 181.3121
1032.60 181.3851
1032.70 181.4582
1032.80 181.5312
1032.90 181.6043
1033.00 181.6774
1033.10 181.7504
1033.20 181.8235
1033.30 181.8965
1033.40 181.9696
1033.50 182.0426
1033.60 182.1157
1033.70 182.1887
1033.80 182.2618
1033.90 182.3349
1034.00 182.4079
1034.10 182.481
1034.20 182.554
1034.30 182.6271
1034.40 182.7001
1034.50 182.7732
1034.60 182.8462
1034.70 182.9193
1034.80 182.9924
1034.90 183.0654
1035.00 183.1385
1035.10 183.2115
1035.20 183.2846
1035.30 183.3576
1035.40 183.4307
1035.50 183.5037
1035.60 183.5768
1035.70 183.6499
1035.80 183.7229
1035.90 183.796
1036.00 183.869
1036.10 183.9421
1036.20 184.0151
1036.30 184.1567
1036.40 184.3153
1036.50 184.4739
1036.60 184.6325
1036.70 184.7912
1036.80 184.9498
1036.90 185.1084
1037.00 185.267
1037.10 185.4257
1037.20 185.5843
1037.30 185.7429
1037.40 185.9016
1037.50 186.0602
1037.60 186.2188
1037.70 186.3774
1037.80 186.5361
1037.90 186.6947
1038.00 186.8533
1038.10 187.0119
1038.20 187.1706
1038.30 187.3292
1038.40 187.4878
1038.50 187.6465
1038.60 187.8051
1038.70 187.9637
1038.80 188.1223
1038.90 188.281
1039.00 188.4396
1039.10 188.5982
1039.20 188.7568
1039.30 188.9155
1039.40 189.0741
1039.50 189.2327
1039.60 189.3914
1039.70 189.55
1039.80 189.7086
1039.90 189.8672
1040.00 190.0259
1040.10 190.1845
1040.20 190.3464
1040.30 190.5379
1040.40 190.7295
1040.50 190.921
1040.60 191.1125
1040.70 191.304
1040.80 191.4955
1040.90 191.6871
1041.00 191.8786
1041.10 192.0701
1041.20 192.2616
1041.30 192.4532
1041.40 192.6447
1041.50 192.8362
1041.60 193.0277
1041.70 193.2192
1041.80 193.4108
1041.90 193.6023
1042.00 193.7938
1042.10 193.9853
1042.20 194.1769
1042.30 194.3684
1042.40 194.5599
1042.50 194.7514
1042.60 194.9429
1042.70 195.1345
1042.80 195.326
1042.90 195.5175
1043.00 195.709
1043.10 195.9005
1043.20 196.0921
1043.30 196.2836
1043.40 196.4751
1043.50 196.6666
1043.60 196.8582
1043.70 197.0497
1043.80 197.2412
1043.90 197.4327
1044.00 197.6242
1044.10 197.8158
1044.20 197.9729
1044.30 197.9928
1044.40 198.0126
1044.50 198.0324
1044.60 198.0522
1044.70 198.072
1044.80 198.0918
1044.90 198.1116
1045.00 198.1314
1045.10 198.1513
1045.20 198.1711
1045.30 198.1909
1045.40 198.2107
1045.50 198.2305
1045.60 198.2503
1045.70 198.2701
1045.80 198.2899
1045.90 198.3097
1046.00 198.3296
1046.10 198.3494
1046.20 198.3692
1046.30 198.389
1046.40 198.4088
1046.50 198.4286
1046.60 198.4484
1046.70 198.4682
1046.80 198.4881
1046.90 198.5079
1047.00 198.5277
1047.10 198.5475
1047.20 198.5673
1047.30 198.5871
1047.40 198.6069
1047.50 198.6267
1047.60 198.6465
1047.70 198.6664
1047.80 198.6862
1047.90 198.706
1048.00 198.7258
1048.10 198.7456
1048.20 198.7442
1048.30 198.6933
1048.40 198.6424
1048.50 198.5916
1048.60 198.5407
1048.70 198.4898
1048.80 198.4389
1048.90 198.388
1049.00 198.3372
1049.10 198.2863
1049.20 198.2354
1049.30 198.1845
1049.40 198.1336
1049.50 198.0828
1049.60 198.0319
1049.70 197.981
1049.80 197.9301
1049.90 197.8792
1050.00 197.8284
1050.10 197.7775
1050.20 197.7266
1050.30 197.6757
1050.40 197.6248
1050.50 197.574
1050.60 197.5231
1050.70 197.4722
1050.80 197.4213
1050.90 197.3704
1051.00 197.3196
1051.10 197.2687
1051.20 197.2178
1051.30 197.1669
1051.40 197.116
1051.50 197.0652
1051.60 197.0143
1051.70 196.9634
1051.80 196.9125
1051.90 196.8616
1052.00 196.8108
1052.10 196.7599
1052.20 196.765
1052.30 196.9942
1052.40 197.2235
1052.50 197.4527
1052.60 197.6819
1052.70 197.9111
1052.80 198.1403
1052.90 198.3695
1053.00 198.5988
1053.10 198.828
1053.20 199.0572
1053.30 199.2864
1053.40 199.5156
1053.50 199.7449
1053.60 199.9741
1053.70 200.2033
1053.80 200.4325
1053.90 200.6617
1054.00 200.891
1054.10 201.1202
1054.20 201.3494
1054.30 201.5786
1054.40 201.8078
1054.50 202.037
1054.60 202.2663
1054.70 202.4955
1054.80 202.7247
1054.90 202.9539
1055.00 203.1831
1055.10 203.4124
1055.20 203.6416
1055.30 203.8708
1055.40 204.1
1055.50 204.3292
1055.60 204.5584
1055.70 204.7877
1055.80 205.0169
1055.90 205.2461
1056.00 205.4753
1056.10 205.7045
1056.20 205.9338
1056.30 205.9158
1056.40 205.8979
1056.50 205.88
1056.60 205.8621
1056.70 205.8442
1056.80 205.8263
1056.90 205.8084
1057.00 205.7905
1057.10 205.7726
1057.20 205.7547
1057.30 205.7368
1057.40 205.7189
1057.50 205.7009
1057.60 205.683
1057.70 205.6651
1057.80 205.6472
1057.90 205.6293
1058.00 205.6114
1058.10 205.5935
1058.20 205.5756
1058.30 205.5577
1058.40 205.5398
1058.50 205.5219
1058.60 205.504
1058.70 205.486
1058.80 205.4681
1058.90 205.4502
1059.00 205.4323
1059.10 205.4144
1059.20 205.3965
1059.30 205.3786
1059.40 205.3607
1059.50 205.3428
1059.60 205.3249
1059.70 205.307
1059.80 205.2891
1059.90 205.2712
1060.00 205.2532
1060.10 205.2353
1060.20 205.2174
1060.30 205.2712
1060.40 205.3727
1060.50 205.4742
1060.60 205.5757
1060.70 205.6772
1060.80 205.7787
1060.90 205.8803
1061.00 205.9818
1061.10 206.0833
1061.20 206.1848
1061.30 206.2863
1061.40 206.3878
1061.50 206.4893
1061.60 206.5908
1061.70 206.6924
1061.80 206.7939
1061.90 206.8954
1062.00 206.9969
1062.10 207.0984
1062.20 207.1999
1062.30 207.3014
1062.40 207.403
1062.50 207.5045
1062.60 207.606
1062.70 207.7075
1062.80 207.809
1062.90 207.9105
1063.00 208.012
1063.10 208.1136
1063.20 208.2151
1063.30 208.3166
1063.40 208.4181
1063.50 208.5196
1063.60 208.6211
1063.70 208.7226
1063.80 208.8241
1063.90 208.9257
1064.00 209.0272
1064.10 209.1287
1064.20 209.2302
1064.30 209.3262
1064.40 209.4001
1064.50 209.474
1064.60 209.5479
1064.70 209.6218
1064.80 209.6957
1064.90 209.7696
1065.00 209.8435
1065.10 209.9174
1065.20 209.9913
1065.30 210.0653
1065.40 210.1392
1065.50 210.2131
1065.60 210.287
1065.70 210.3609
1065.80 210.4348
1065.90 210.5087
1066.00 210.5826
1066.10 210.6565
1066.20 210.7304
1066.30 210.8043
1066.40 210.8782
1066.50 210.9521
1066.60 211.026
1066.70 211.0999
1066.80 211.1738
1066.90 211.2478
1067.00 211.3217
1067.10 211.3956
1067.20 211.4695
1067.30 211.5434
1067.40 211.6173
1067.50 211.6912
1067.60 211.7651
1067.70 211.839
1067.80 211.9129
1067.90 211.9868
1068.00 212.0607
1068.10 212.1346
1068.20 212.2085
1068.30 212.2824
1068.40 212.4216
1068.50 212.5886
1068.60 212.7557
1068.70 212.9228
1068.80 213.0899
1068.90 213.2569
1069.00 213.424
1069.10 213.5911
1069.20 213.7582
1069.30 213.9252
1069.40 214.0923
1069.50 214.2594
1069.60 214.4265
1069.70 214.5935
1069.80 214.7606
1069.90 214.9277
1070.00 215.0948
1070.10 215.2618
1070.20 215.4289
1070.30 215.596
1070.40 215.7631
1070.50 215.9301
1070.60 216.0972
1070.70 216.2643
1070.80 216.4313
1070.90 216.5984
1071.00 216.7655
1071.10 216.9326
1071.20 217.0996
1071.30 217.2667
1071.40 217.4338
1071.50 217.6009
1071.60 217.7679
1071.70 217.935
1071.80 218.1021
1071.90 218.2692
1072.00 218.4362
1072.10 218.6033
1072.20 218.7704
1072.30 218.9375
1072.40 219.0904
1072.50 219.1159
1072.60 219.1413
1072.70 219.1668
1072.80 219.1923
1072.90 219.2178
1073.00 219.2433
1073.10 219.2688
1073.20 219.2942
1073.30 219.3197
1073.40 219.3452
1073.50 219.3707
1073.60 219.3962
1073.70 219.4217
1073.80 219.4471
1073.90 219.4726
1074.00 219.4981
1074.10 219.5236
1074.20 219.5491
1074.30 219.5746
1074.40 219.6
1074.50 219.6255
1074.60 219.651
1074.70 219.6765
1074.80 219.702
1074.90 219.7275
1075.00 219.7529
1075.10 219.7784
1075.20 219.8039
1075.30 219.8294
1075.40 219.8549
1075.50 219.8803
1075.60 219.9058
1075.70 219.9313
1075.80 219.9568
1075.90 219.9823
1076.00 220.0078
1076.10 220.0332
1076.20 220.0587
1076.30 220.0842
1076.40 220.1097
1076.50 220.1926
1076.60 220.3615
1076.70 220.5305
1076.80 220.6995
1076.90 220.8684
1077.00 221.0374
1077.10 221.2064
1077.20 221.3753
1077.30 221.5443
1077.40 221.7132
1077.50 221.8822
1077.60 222.0512
1077.70 222.2201
1077.80 222.3891
1077.90 222.5581
1078.00 222.727
1078.10 222.896
1078.20 223.065
1078.30 223.2339
1078.40 223.4029
1078.50 223.5718
1078.60 223.7408
1078.70 223.9098
1078.80 224.0787
1078.90 224.2477
1079.00 224.4167
1079.10 224.5856
1079.20 224.7546
1079.30 224.9236
1079.40 225.0925
1079.50 225.2615
1079.60 225.4304
1079.70 225.5994
1079.80 225.7684
1079.90 225.9373
1080.00 226.1063
1080.10 226.2753
1080.20 226.4442
1080.30 226.6132
1080.40 226.7822
1080.50 226.9511
1080.60 227.0649
1080.70 227.1236
1080.80 227.1823
1080.90 227.2409
1081.00 227.2996
1081.10 227.3583
1081.20 227.4169
1081.30 227.4756
1081.40 227.5342
1081.50 227.5929
1081.60 227.6516
1081.70 227.7102
1081.80 227.7689
1081.90 227.8276
1082.00 227.8862
1082.10 227.9449
1082.20 228.0036
1082.30 228.0622
1082.40 228.1209
1082.50 228.1796
1082.60 228.2382
1082.70 228.2969
1082.80 228.3556
1082.90 228.4142
1083.00 228.4729
1083.10 228.5315
1083.20 228.5902
1083.30 228.6489
1083.40 228.7075
1083.50 228.7662
1083.60 228.8249
1083.70 228.8835
1083.80 228.9422
1083.90 229.0009
1084.00 229.0595
1084.10 229.1182
1084.20 229.1769
1084.30 229.2355
1084.40 229.2942
1084.50 229.3528
1084.60 229.4115
1084.70 229.5156
1084.80 229.65
1084.90 229.7844
1085.00 229.9189
1085.10 230.0533
1085.20 230.1877
1085.30 230.3221
1085.40 230.4565
1085.50 230.5909
1085.60 230.7253
1085.70 230.8597
1085.80 230.9941
1085.90 231.1286
1086.00 231.263
1086.10 231.3974
1086.20 231.5318
1086.30 231.6662
1086.40 231.8006
1086.50 231.935
1086.60 232.0694
1086.70 232.2038
1086.80 232.3382
1086.90 232.4727
1087.00 232.6071
1087.10 232.7415
1087.20 232.8759
1087.30 233.0103
1087.40 233.1447
1087.50 233.2791
1087.60 233.4135
1087.70 233.5479
1087.80 233.6824
1087.90 233.8168
1088.00 233.9512
1088.10 234.0856
1088.20 234.22
1088.30 234.3544
1088.40 234.4888
1088.50 234.6232
1088.60 234.7576
1088.70 234.892
1088.80 235.0045
1088.90 235.1023
1089.00 235.2001
1089.10 235.2979
1089.20 235.3957
1089.30 235.4935
1089.40 235.5913
1089.50 235.6891
1089.60 235.7869
1089.70 235.8847
1089.80 235.9825
1089.90 236.0802
1090.00 236.178
1090.10 236.2758
1090.20 236.3736
1090.30 236.4714
1090.40 236.5692
1090.50 236.667
1090.60 236.7648
1090.70 236.8626
1090.80 236.9604
1090.90 237.0582
1091.00 237.156
1091.10 237.2538
1091.20 237.3516
1091.30 237.4494
1091.40 237.5472
1091.50 237.645
1091.60 237.7428
1091.70 237.8406
1091.80 237.9384
1091.90 238.0362
1092.00 238.134
1092.10 238.2318
1092.20 238.3296
1092.30 238.4274
1092.40 238.5252
1092.50 238.623
1092.60 238.7208
1092.70 238.8186
1092.80 238.9163
1092.90 239.0196
1093.00 239.1284
1093.10 239.2372
1093.20 239.3459
1093.30 239.4547
1093.40 239.5635
1093.50 239.6722
1093.60 239.781
1093.70 239.8898
1093.80 239.9986
1093.90 240.1073
1094.00 240.2161
1094.10 240.3249
1094.20 240.4336
1094.30 240.5424
1094.40 240.6512
1094.50 240.7599
1094.60 240.8687
1094.70 240.9775
1094.80 241.0862
1094.90 241.195
1095.00 241.3038
1095.10 241.4126
1095.20 241.5213
1095.30 241.6301
1095.40 241.7389
1095.50 241.8476
1095.60 241.9564
1095.70 242.0652
1095.80 242.1739
1095.90 242.2827
1096.00 242.3915
1096.10 242.5002
1096.20 242.609
1096.30 242.7178
1096.40 242.8266
1096.50 242.9353
1096.60 243.0441
1096.70 243.1529
1096.80 243.2616
1096.90 243.3704
1097.00 243.4364
1097.10 243.4028
1097.20 243.3691
1097.30 243.3355
1097.40 243.3018
1097.50 243.2682
1097.60 243.2345
1097.70 243.2009
1097.80 243.1672
1097.90 243.1336
1098.00 243.0999
1098.10 243.0663
1098.20 243.0326
1098.30 242.9989
1098.40 242.9653
1098.50 242.9316
1098.60 242.898
1098.70 242.8643
1098.80 242.8307
1098.90 242.797
1099.00 242.7634
1099.10 242.7297
1099.20 242.6961
1099.30 242.6624
1099.40 242.6288
1099.50 242.5951
1099.60 242.5615
1099.70 242.5278
1099.80 242.4941
1099.90 242.4605
1100.00 242.4268
1100.10 242.3932
1100.20 242.3595
1100.30 242.3259
1100.40 242.2922
1100.50 242.2586
1100.60 242.2249
1100.70 242.1913
1100.80 242.1576
1100.90 242.124
1101.00 242.0903
1101.10 242.0567
1101.20 242.0561
1101.30 242.0556
1101.40 242.0551
1101.50 242.0545
1101.60 242.054
1101.70 242.0535
1101.80 242.053
1101.90 242.0524
1102.00 242.0519
1102.10 242.0514
1102.20 242.0509
1102.30 242.0503
1102.40 242.0498
1102.50 242.0493
1102.60 242.0487
1102.70 242.0482
1102.80 242.0477
1102.90 242.0472
1103.00 242.0466
1103.10 242.0461
1103.20 242.0456
1103.30 242.0451
1103.40 242.0445
1103.50 242.044
1103.60 242.0435
1103.70 242.0429
1103.80 242.0424
1103.90 242.0419
1104.00 242.0414
1104.10 242.0408
1104.20 242.0403
1104.30 242.0398
1104.40 242.0393
1104.50 242.0387
1104.60 242.0382
1104.70 242.0377
1104.80 242.0371
1104.90 242.0366
1105.00 242.0361
1105.10 242.0356
1105.20 242.035
1105.30 242.0166
1105.40 241.9861
1105.50 241.9557
1105.60 241.9253
1105.70 241.8948
1105.80 241.8644
1105.90 241.834
1106.00 241.8035
1106.10 241.7731
1106.20 241.7427
1106.30 241.7122
1106.40 241.6818
1106.50 241.6514
1106.60 241.6209
1106.70 241.5905
1106.80 241.5601
1106.90 241.5296
1107.00 241.4992
1107.10 241.4688
1107.20 241.4383
1107.30 241.4079
1107.40 241.3775
1107.50 241.347
1107.60 241.3166
1107.70 241.2862
1107.80 241.2557
1107.90 241.2253
1108.00 241.1949
1108.10 241.1644
1108.20 241.134
1108.30 241.1036
1108.40 241.0731
1108.50 241.0427
1108.60 241.0123
1108.70 240.9818
1108.80 240.9514
1108.90 240.9209
1109.00 240.8905
1109.10 240.8601
1109.20 240.8296
1109.30 240.7992
1109.40 240.7837
1109.50 240.8276
1109.60 240.8716
1109.70 240.9155
1109.80 240.9595
1109.90 241.0034
1110.00 241.0474
1110.10 241.0914
1110.20 241.1353
1110.30 241.1793
1110.40 241.2232
1110.50 241.2672
1110.60 241.3112
1110.70 241.3551
1110.80 241.3991
1110.90 241.443
1111.00 241.487
1111.10 241.5309
1111.20 241.5749
1111.30 241.6189
1111.40 241.6628
1111.50 241.7068
1111.60 241.7507
1111.70 241.7947
1111.80 241.8387
1111.90 241.8826
1112.00 241.9266
1112.10 241.9705
1112.20 242.0145
1112.30 242.0584
1112.40 242.1024
1112.50 242.1464
1112.60 242.1903
1112.70 242.2343
1112.80 242.2782
1112.90 242.3222
1113.00 242.3661
1113.10 242.4101
1113.20 242.4541
1113.30 242.498
1113.40 242.542
1113.50 242.5859
1113.60 242.6468
1113.70 242.7189
1113.80 242.791
1113.90 242.8631
1114.00 242.9353
1114.10 243.0074
1114.20 243.0795
1114.30 243.1516
1114.40 243.2237
1114.50 243.2958
1114.60 243.368
1114.70 243.4401
1114.80 243.5122
1114.90 243.5843
1115.00 243.6564
1115.10 243.7285
1115.20 243.8007
1115.30 243.8728
1115.40 243.9449
1115.50 244.017
1115.60 244.0891
1115.70 244.1612
1115.80 244.2334
1115.90 244.3055
1116.00 244.3776
1116.10 244.4497
1116.20 244.5218
1116.30 244.5939
1116.40 244.6661
1116.50 244.7382
1116.60 244.8103
1116.70 244.8824
1116.80 244.9545
1116.90 245.0266
1117.00 245.0988
1117.10 245.1709
1117.20 245.243
1117.30 245.3151
1117.40 245.3872
1117.50 245.4593
1117.60 245.5315
1117.70 245.6036
1117.80 245.6603
1117.90 245.717
1118.00 245.7738
1118.10 245.8305
1118.20 245.8872
1118.30 245.944
1118.40 246.0007
1118.50 246.0575
1118.60 246.1142
1118.70 246.1709
1118.80 246.2277
1118.90 246.2844
1119.00 246.3411
1119.10 246.3979
1119.20 246.4546
1119.30 246.5113
1119.40 246.5681
1119.50 246.6248
1119.60 246.6815
1119.70 246.7383
1119.80 246.795
1119.90 246.8518
1120.00 246.9085
1120.10 246.9652
1120.20 247.022
1120.30 247.0787
1120.40 247.1354
1120.50 247.1922
1120.60 247.2489
1120.70 247.3056
1120.80 247.3624
1120.90 247.4191
1121.00 247.4759
1121.10 247.5326
1121.20 247.5893
1121.30 247.6461
1121.40 247.7028
1121.50 247.7595
1121.60 247.8163
1121.70 247.873
1121.80 247.9297
1121.90 247.9509
1122.00 247.8892
1122.10 247.8275
1122.20 247.7658
1122.30 247.7041
1122.40 247.6423
1122.50 247.5806
1122.60 247.5189
1122.70 247.4572
1122.80 247.3955
1122.90 247.3338
1123.00 247.272
1123.10 247.2103
1123.20 247.1486
1123.30 247.0869
1123.40 247.0252
1123.50 246.9634
1123.60 246.9017
1123.70 246.84
1123.80 246.7783
1123.90 246.7166
1124.00 246.6549
1124.10 246.5931
1124.20 246.5314
1124.30 246.4697
1124.40 246.408
1124.50 246.3463
1124.60 246.2846
1124.70 246.2228
1124.80 246.1611
1124.90 246.0994
1125.00 246.0377
1125.10 245.976
1125.20 245.9142
1125.30 245.8525
1125.40 245.7908
1125.50 245.7291
1125.60 245.6674
1125.70 245.6057
1125.80 245.5439
1125.90 245.4822
1126.00 245.4205
1126.10 245.3432
1126.20 245.2504
1126.30 245.1576
1126.40 245.0648
1126.50 244.972
1126.60 244.8792
1126.70 244.7864
1126.80 244.6935
1126.90 244.6007
1127.00 244.5079
1127.10 244.4151
1127.20 244.3223
1127.30 244.2295
1127.40 244.1367
1127.50 244.0438
1127.60 243.951
1127.70 243.8582
1127.80 243.7654
1127.90 243.6726
1128.00 243.5798
1128.10 243.487
1128.20 243.3942
1128.30 243.3013
1128.40 243.2085
1128.50 243.1157
1128.60 243.0229
1128.70 242.9301
1128.80 242.8373
1128.90 242.7445
1129.00 242.6516
1129.10 242.5588
1129.20 242.466
1129.30 242.3732
1129.40 242.2804
1129.50 242.1876
1129.60 242.0948
1129.70 242.0019
1129.80 241.9091
1129.90 241.8163
1130.00 241.7235
1130.10 241.6307
1130.20 241.5379
1130.30 241.3918
1130.40 241.2229
1130.50 241.054
1130.60 240.8851
1130.70 240.7162
1130.80 240.5472
1130.90 240.3783
1131.00 240.2094
1131.10 240.0405
1131.20 239.8716
1131.30 239.7027
1131.40 239.5338
1131.50 239.3649
1131.60 239.196
1131.70 239.0271
1131.80 238.8581
1131.90 238.6892
1132.00 238.5203
1132.10 238.3514
1132.20 238.1825
1132.30 238.0136
1132.40 237.8447
1132.50 237.6758
1132.60 237.5069
1132.70 237.3379
1132.80 237.169
1132.90 237.0001
1133.00 236.8312
1133.10 236.6623
1133.20 236.4934
1133.30 236.3245
1133.40 236.1556
1133.50 235.9867
1133.60 235.8178
1133.70 235.6488
1133.80 235.4799
1133.90 235.311
1134.00 235.1421
1134.10 234.9732
1134.20 234.8043
1134.30 234.6354
1134.40 234.4665
1134.50 234.4076
1134.60 234.3762
1134.70 234.3448
1134.80 234.3134
1134.90 234.282
1135.00 234.2506
1135.10 234.2192
1135.20 234.1878
1135.30 234.1564
1135.40 234.125
1135.50 234.0936
1135.60 234.0622
1135.70 234.0308
1135.80 233.9994
1135.90 233.968
1136.00 233.9366
1136.10 233.9052
1136.20 233.8738
1136.30 233.8424
1136.40 233.811
1136.50 233.7796
1136.60 233.7482
1136.70 233.7168
1136.80 233.6854
1136.90 233.654
1137.00 233.6226
1137.10 233.5911
1137.20 233.5597
1137.30 233.5283
1137.40 233.4969
1137.50 233.4655
1137.60 233.4341
1137.70 233.4027
1137.80 233.3713
1137.90 233.3399
1138.00 233.3085
1138.10 233.2771
1138.20 233.2457
1138.30 233.2143
1138.40 233.1829
1138.50 233.1515
1138.60 233.1201
1138.70 233.2283
1138.80 233.3713
1138.90 233.5144
1139.00 233.6574
1139.10 233.8005
1139.20 233.9435
1139.30 234.0866
1139.40 234.2296
1139.50 234.3727
1139.60 234.5157
1139.70 234.6588
1139.80 234.8018
1139.90 234.9449
1140.00 235.0879
1140.10 235.2309
1140.20 235.374
1140.30 235.517
1140.40 235.6601
1140.50 235.8031
1140.60 235.9462
1140.70 236.0892
1140.80 236.2323
1140.90 236.3753
1141.00 236.5184
1141.10 236.6614
1141.20 236.8045
1141.30 236.9475
1141.40 237.0906
1141.50 237.2336
1141.60 237.3767
1141.70 237.5197
1141.80 237.6627
1141.90 237.8058
1142.00 237.9488
1142.10 238.0919
1142.20 238.2349
1142.30 238.378
1142.40 238.521
1142.50 238.6641
1142.60 238.8071
1142.70 238.9502
1142.80 239.0932
1142.90 239.4412
1143.00 239.8403
1143.10 240.2395
1143.20 240.6387
1143.30 241.0378
1143.40 241.437
1143.50 241.8362
1143.60 242.2353
1143.70 242.6345
1143.80 243.0337
1143.90 243.4328
1144.00 243.832
1144.10 244.2312
1144.20 244.6303
1144.30 245.0295
1144.40 245.4287
1144.50 245.8278
1144.60 246.227
1144.70 246.6262
1144.80 247.0253
1144.90 247.4245
1145.00 247.8237
1145.10 248.2228
1145.20 248.622
1145.30 249.0212
1145.40 249.4204
1145.50 249.8195
1145.60 250.2187
1145.70 250.6179
1145.80 251.017
1145.90 251.4162
1146.00 251.8154
1146.10 252.2145
1146.20 252.6137
1146.30 253.0129
1146.40 253.412
1146.50 253.8112
1146.60 254.2104
1146.70 254.6095
1146.80 255.0087
1146.90 255.4079
1147.00 255.807
1147.10 256.008
1147.20 256.0769
1147.30 256.1457
1147.40 256.2146
1147.50 256.2834
1147.60 256.3523
1147.70 256.4211
1147.80 256.49
1147.90 256.5589
1148.00 256.6277
1148.10 256.6966
1148.20 256.7654
1148.30 256.8343
1148.40 256.9031
1148.50 256.972
1148.60 257.0408
1148.70 257.1097
1148.80 257.1786
1148.90 257.2474
1149.00 257.3163
1149.10 257.3851
1149.20 257.454
1149.30 257.5228
1149.40 257.5917
1149.50 257.6605
1149.60 257.7294
1149.70 257.7982
1149.80 257.8671
1149.90 257.936
1150.00 258.0048
1150.10 258.0737
1150.20 258.1425
1150.30 258.2114
1150.40 258.2802
1150.50 258.3491
1150.60 258.4179
1150.70 258.4868
1150.80 258.5557
1150.90 258.6245
1151.00 258.6934
1151.10 258.7622
1151.20 258.8311
1151.30 258.9181
1151.40 259.0234
1151.50 259.1286
1151.60 259.2339
1151.70 259.3392
1151.80 259.4444
1151.90 259.5497
1152.00 259.6549
1152.10 259.7602
1152.20 259.8654
1152.30 259.9707
1152.40 260.076
1152.50 260.1812
1152.60 260.2865
1152.70 260.3917
1152.80 260.497
1152.90 260.6022
1153.00 260.7075
1153.10 260.8127
1153.20 260.918
1153.30 261.0233
1153.40 261.1285
1153.50 261.2338
1153.60 261.339
1153.70 261.4443
1153.80 261.5495
1153.90 261.6548
1154.00 261.7601
1154.10 261.8653
1154.20 261.9706
1154.30 262.0758
1154.40 262.1811
1154.50 262.2863
1154.60 262.3916
1154.70 262.4969
1154.80 262.6021
1154.90 262.7074
1155.00 262.8126
1155.10 262.9179
1155.20 263.0231
1155.30 263.1284
1155.40 263.2337
1155.50 263.3011
1155.60 263.2171
1155.70 263.1331
1155.80 263.0491
1155.90 262.9652
1156.00 262.8812
1156.10 262.7972
1156.20 262.7132
1156.30 262.6292
1156.40 262.5453
1156.50 262.4613
1156.60 262.3773
1156.70 262.2933
1156.80 262.2094
1156.90 262.1254
1157.00 262.0414
1157.10 261.9574
1157.20 261.8734
1157.30 261.7895
1157.40 261.7055
1157.50 261.6215
1157.60 261.5375
1157.70 261.4536
1157.80 261.3696
1157.90 261.2856
1158.00 261.2016
1158.10 261.1177
1158.20 261.0337
1158.30 260.9497
1158.40 260.8657
1158.50 260.7817
1158.60 260.6978
1158.70 260.6138
1158.80 260.5298
1158.90 260.4458
1159.00 260.3619
1159.10 260.2779
1159.20 260.1939
1159.30 260.1099
1159.40 260.0259
1159.50 259.942
1159.60 259.858
1159.70 259.774
1159.80 259.659
1159.90 259.5406
1160.00 259.4222
1160.10 259.3037
1160.20 259.1853
1160.30 259.0669
1160.40 258.9484
1160.50 258.83
1160.60 258.7116
1160.70 258.5931
1160.80 258.4747
1160.90 258.3563
1161.00 258.2379
1161.10 258.1194
1161.20 258.001
1161.30 257.8826
1161.40 257.7641
1161.50 257.6457
1161.60 257.5273
1161.70 257.4088
1161.80 257.2904
1161.90 257.172
1162.00 257.0535
1162.10 256.9351
1162.20 256.8167
1162.30 256.6982
1162.40 256.5798
1162.50 256.4614
1162.60 256.343
1162.70 256.2245
1162.80 256.1061
1162.90 255.9877
1163.00 255.8692
1163.10 255.7508
1163.20 255.6324
1163.30 255.5139
1163.40 255.3955
1163.50 255.2771
1163.60 255.1586
1163.70 255.0402
1163.80 254.9218
1163.90 254.8033
1164.00 254.6659
1164.10 254.5159
1164.20 254.3658
1164.30 254.2158
1164.40 254.0657
1164.50 253.9157
1164.60 253.7656
1164.70 253.6156
1164.80 253.4655
1164.90 253.3155
1165.00 253.1654
1165.10 253.0154
1165.20 252.8653
1165.30 252.7153
1165.40 252.5652
1165.50 252.4152
1165.60 252.2651
1165.70 252.1151
1165.80 251.965
1165.90 251.8149
1166.00 251.6649
1166.10 251.5148
1166.20 251.3648
1166.30 251.2147
1166.40 251.0647
1166.50 250.9146
1166.60 250.7646
1166.70 250.6145
1166.80 250.4645
1166.90 250.3144
1167.00 250.1644
1167.10 250.0143
1167.20 249.8643
1167.30 249.7142
1167.40 249.5642
1167.50 249.4141
1167.60 249.2641
1167.70 249.114
1167.80 248.964
1167.90 248.8139
1168.00 248.6638
1168.10 248.5138
1168.20 248.3559
1168.30 248.1667
1168.40 247.9775
1168.50 247.7884
1168.60 247.5992
1168.70 247.41
1168.80 247.2208
1168.90 247.0316
1169.00 246.8424
1169.10 246.6532
1169.20 246.4641
1169.30 246.2749
1169.40 246.0857
1169.50 245.8965
1169.60 245.7073
1169.70 245.5181
1169.80 245.3289
1169.90 245.1398
1170.00 244.9506
1170.10 244.7614
1170.20 244.5722
1170.30 244.383
1170.40 244.1938
1170.50 244.0046
1170.60 243.8155
1170.70 243.6263
1170.80 243.4371
1170.90 243.2479
1171.00 243.0587
1171.10 242.8695
1171.20 242.6803
1171.30 242.4912
1171.40 242.302
1171.50 242.1128
1171.60 241.9236
1171.70 241.7344
1171.80 241.5452
1171.90 241.356
1172.00 241.1669
1172.10 240.9777
1172.20 240.7885
1172.30 240.5993
1172.40 240.4101
1172.50 240.3853
1172.60 240.4308
1172.70 240.4764
1172.80 240.5219
1172.90 240.5675
1173.00 240.6131
1173.10 240.6586
1173.20 240.7042
1173.30 240.7498
1173.40 240.7953
1173.50 240.8409
1173.60 240.8865
1173.70 240.932
1173.80 240.9776
1173.90 241.0232
1174.00 241.0687
1174.10 241.1143
1174.20 241.1599
1174.30 241.2054
1174.40 241.251
1174.50 241.2966
1174.60 241.3421
1174.70 241.3877
1174.80 241.4332
1174.90 241.4788
1175.00 241.5244
1175.10 241.5699
1175.20 241.6155
1175.30 241.6611
1175.40 241.7066
1175.50 241.7522
1175.60 241.7978
1175.70 241.8433
1175.80 241.8889
1175.90 241.9345
1176.00 241.98
1176.10 242.0256
1176.20 242.0712
1176.30 242.1167
1176.40 242.1623
1176.50 242.2078
1176.60 242.2534
1176.70 242.3038
1176.80 242.3734
1176.90 242.443
1177.00 242.5126
1177.10 242.5821
1177.20 242.6517
1177.30 242.7213
1177.40 242.7909
1177.50 242.8605
1177.60 242.9301
1177.70 242.9997
1177.80 243.0693
1177.90 243.1389
1178.00 243.2084
1178.10 243.278
1178.20 243.3476
1178.30 243.4172
1178.40 243.4868
1178.50 243.5564
1178.60 243.626
1178.70 243.6956
1178.80 243.7652
1178.90 243.8348
1179.00 243.9043
1179.10 243.9739
1179.20 244.0435
1179.30 244.1131
1179.40 244.1827
1179.50 244.2523
1179.60 244.3219
1179.70 244.3915
1179.80 244.4611
1179.90 244.5307
1180.00 244.6002
1180.10 244.6698
1180.20 244.7394
1180.30 244.809
1180.40 244.8786
1180.50 244.9482
1180.60 245.0178
1180.70 245.0874
1180.80 245.157
1180.90 245.2265
1181.00 245.3857
1181.10 245.6046
1181.20 245.8235
1181.30 246.0424
1181.40 246.2613
1181.50 246.4802
1181.60 246.6991
1181.70 246.918
1181.80 247.1369
1181.90 247.3558
1182.00 247.5747
1182.10 247.7936
1182.20 248.0125
1182.30 248.2314
1182.40 248.4503
1182.50 248.6692
1182.60 248.8881
1182.70 249.107
1182.80 249.3258
1182.90 249.5447
1183.00 249.7636
1183.10 249.9825
1183.20 250.2014
1183.30 250.4203
1183.40 250.6392
1183.50 250.8581
1183.60 251.077
1183.70 251.2959
1183.80 251.5148
1183.90 251.7337
1184.00 251.9526
1184.10 252.1715
1184.20 252.3904
1184.30 252.6093
1184.40 252.8282
1184.50 253.0471
1184.60 253.266
1184.70 253.4849
1184.80 253.7038
1184.90 253.9227
1185.00 254.1416
1185.10 254.3605
1185.20 254.5794
1185.30 254.6984
1185.40 254.8175
1185.50 254.9366
1185.60 255.0557
1185.70 255.1747
1185.80 255.2938
1185.90 255.4129
1186.00 255.5319
1186.10 255.651
1186.20 255.7701
1186.30 255.8892
1186.40 256.0082
1186.50 256.1273
1186.60 256.2464
1186.70 256.3655
1186.80 256.4845
1186.90 256.6036
1187.00 256.7227
1187.10 256.8418
1187.20 256.9608
1187.30 257.0799
1187.40 257.199
1187.50 257.3181
1187.60 257.4371
1187.70 257.5562
1187.80 257.6753
1187.90 257.7944
1188.00 257.9134
1188.10 258.0325
1188.20 258.1516
1188.30 258.2707
1188.40 258.3897
1188.50 258.5088
1188.60 258.6279
1188.70 258.747
1188.80 258.866
1188.90 258.9851
1189.00 259.1042
1189.10 259.2233
1189.20 259.3423
1189.30 259.4614
1189.40 259.5805
1189.50 259.5719
1189.60 259.3718
1189.70 259.1717
1189.80 258.9716
1189.90 258.7715
1190.00 258.5714
1190.10 258.3713
1190.20 258.1712
1190.30 257.9711
1190.40 257.771
1190.50 257.5709
1190.60 257.3708
1190.70 257.1707
1190.80 256.9706
1190.90 256.7705
1191.00 256.5703
1191.10 256.3702
1191.20 256.1701
1191.30 255.97
1191.40 255.7699
1191.50 255.5698
1191.60 255.3697
1191.70 255.1696
1191.80 254.9695
1191.90 254.7694
1192.00 254.5693
1192.10 254.3692
1192.20 254.1691
1192.30 253.969
1192.40 253.7689
1192.50 253.5688
1192.60 253.3687
1192.70 253.1686
1192.80 252.9685
1192.90 252.7684
1193.00 252.5683
1193.10 252.3682
1193.20 252.1681
1193.30 251.968
1193.40 251.7679
1193.50 251.5678
1193.60 251.3677
1193.70 251.1676
1193.80 251.0014
1193.90 250.8497
1194.00 250.698
1194.10 250.5464
1194.20 250.3947
1194.30 250.243
1194.40 250.0913
1194.50 249.9397
1194.60 249.788
1194.70 249.6363
1194.80 249.4846
1194.90 249.333
1195.00 249.1813
1195.10 249.0296
1195.20 248.8779
1195.30 248.7263
1195.40 248.5746
1195.50 248.4229
1195.60 248.2712
1195.70 248.1196
1195.80 247.9679
1195.90 247.8162
1196.00 247.6646
1196.10 247.5129
1196.20 247.3612
1196.30 247.2095
1196.40 247.0579
1196.50 246.9062
1196.60 246.7545
1196.70 246.6028
1196.80 246.4512
1196.90 246.2995
1197.00 246.1478
1197.10 245.9961
1197.20 245.8445
1197.30 245.6928
1197.40 245.5411
1197.50 245.3894
1197.60 245.2378
1197.70 245.0861
1197.80 244.9344
1197.90 244.7827
1198.00 244.6311
1198.10 244.6747
1198.20 244.7399
1198.30 244.8052
1198.40 244.8705
1198.50 244.9358
1198.60 245.0011
1198.70 245.0664
1198.80 245.1317
1198.90 245.1969
1199.00 245.2622
1199.10 245.3275
1199.20 245.3928
1199.30 245.4581
1199.40 245.5234
1199.50 245.5887
1199.60 245.654
1199.70 245.7192
1199.80 245.7845
1199.90 245.8498
1200.00 245.9151
1200.10 245.9804
1200.20 246.0457
1200.30 246.111
1200.40 246.1762
1200.50 246.2415
1200.60 246.3068
1200.70 246.3721
1200.80 246.4374
1200.90 246.5027
1201.00 246.568
1201.10 246.6332
1201.20 246.6985
1201.30 246.7638
1201.40 246.8291
1201.50 246.8944
1201.60 246.9597
1201.70 247.025
1201.80 247.0902
1201.90 247.1555
1202.00 247.2208
1202.10 247.2861
1202.20 247.3514
1202.30 247.4266
1202.40 247.5916
1202.50 247.7565
1202.60 247.9214
1202.70 248.0863
1202.80 248.2512
1202.90 248.4162
1203.00 248.5811
1203.10 248.746
1203.20 248.9109
1203.30 249.0758
1203.40 249.2408
1203.50 249.4057
1203.60 249.5706
1203.70 249.7355
1203.80 249.9004
1203.90 250.0654
1204.00 250.2303
1204.10 250.3952
1204.20 250.5601
1204.30 250.725
1204.40 250.89
1204.50 251.0549
1204.60 251.2198
1204.70 251.3847
1204.80 251.5496
1204.90 251.7146
1205.00 251.8795
1205.10 252.0444
1205.20 252.2093
1205.30 252.3742
1205.40 252.5391
1205.50 252.7041
1205.60 252.869
1205.70 253.0339
1205.80 253.1988
1205.90 253.3637
1206.00 253.5287
1206.10 253.6936
1206.20 253.8585
1206.30 254.0234
1206.40 254.1883
1206.50 254.3533
1206.60 254.5331
1206.70 254.7477
1206.80 254.9623
1206.90 255.1769
1207.00 255.3915
1207.10 255.6062
1207.20 255.8208
1207.30 256.0354
1207.40 256.25
1207.50 256.4646
1207.60 256.6792
1207.70 256.8938
1207.80 257.1084
1207.90 257.3231
1208.00 257.5377
1208.10 257.7523
1208.20 257.9669
1208.30 258.1815
1208.40 258.3961
1208.50 258.6107
1208.60 258.8253
1208.70 259.0399
1208.80 259.2546
1208.90 259.4692
1209.00 259.6838
1209.10 259.8984
1209.20 260.113
1209.30 260.3276
1209.40 260.5422
1209.50 260.7568
1209.60 260.9715
1209.70 261.1861
1209.80 261.4007
1209.90 261.6153
1210.00 261.8299
1210.10 262.0445
1210.20 262.2591
1210.30 262.4737
1210.40 262.6884
1210.50 262.903
1210.60 263.1176
1210.70 263.3322
1210.80 263.5468
1210.90 263.7254
1211.00 263.8679
1211.10 264.0104
1211.20 264.1529
1211.30 264.2955
1211.40 264.438
1211.50 264.5805
1211.60 264.723
1211.70 264.8656
1211.80 265.0081
1211.90 265.1506
1212.00 265.2931
1212.10 265.4357
1212.20 265.5782
1212.30 265.7207
1212.40 265.8632
1212.50 266.0058
1212.60 266.1483
1212.70 266.2908
1212.80 266.4333
1212.90 266.5759
1213.00 266.7184
1213.10 266.8609
1213.20 267.0034
1213.30 267.146
1213.40 267.2885
1213.50 267.431
1213.60 267.5735
1213.70 267.716
1213.80 267.8586
1213.90 268.0011
1214.00 268.1436
1214.10 268.2861
1214.20 268.4287
1214.30 268.5712
1214.40 268.7137
1214.50 268.8562
1214.60 268.9988
1214.70 269.1413
1214.80 269.2838
1214.90 269.4263
1215.00 269.5689
1215.10 269.7114
1215.20 269.8848
1215.30 270.0788
1215.40 270.2728
1215.50 270.4668
1215.60 270.6608
1215.70 270.8548
1215.80 271.0488
1215.90 271.2428
1216.00 271.4368
1216.10 271.6309
1216.20 271.8249
1216.30 272.0189
1216.40 272.2129
1216.50 272.4069
1216.60 272.6009
1216.70 272.7949
1216.80 272.9889
1216.90 273.1829
1217.00 273.3769
1217.10 273.5709
1217.20 273.7649
1217.30 273.9589
1217.40 274.1529
1217.50 274.3469
1217.60 274.5409
1217.70 274.7349
1217.80 274.9289
1217.90 275.123
1218.00 275.317
1218.10 275.511
1218.20 275.705
1218.30 275.899
1218.40 276.093
1218.50 276.287
1218.60 276.481
1218.70 276.675
1218.80 276.869
1218.90 277.063
1219.00 277.257
1219.10 277.451
1219.20 277.645
1219.30 277.839
1219.40 278.033
1219.50 278.1936
1219.60 278.3397
1219.70 278.4859
1219.80 278.6321
1219.90 278.7783
1220.00 278.9245
1220.10 279.0707
1220.20 279.2168
1220.30 279.363
1220.40 279.5092
1220.50 279.6554
1220.60 279.8016
1220.70 279.9478
1220.80 280.0939
1220.90 280.2401
1221.00 280.3863
1221.10 280.5325
1221.20 280.6787
1221.30 280.8248
1221.40 280.971
1221.50 281.1172
1221.60 281.2634
1221.70 281.4096
1221.80 281.5558
1221.90 281.7019
1222.00 281.8481
1222.10 281.9943
1222.20 282.1405
1222.30 282.2867
1222.40 282.4328
1222.50 282.579
1222.60 282.7252
1222.70 282.8714
1222.80 283.0176
1222.90 283.1638
1223.00 283.3099
1223.10 283.4561
1223.20 283.6023
1223.30 283.7485
1223.40 283.8947
1223.50 284.0409
1223.60 284.187
1223.70 284.3332
1223.80 284.3839
1223.90 284.3936
1224.00 284.4033
1224.10 284.413
1224.20 284.4227
1224.30 284.4324
1224.40 284.4422
1224.50 284.4519
1224.60 284.4616
1224.70 284.4713
1224.80 284.481
1224.90 284.4907
1225.00 284.5004
1225.10 284.5101
1225.20 284.5199
1225.30 284.5296
1225.40 284.5393
1225.50 284.549
1225.60 284.5587
1225.70 284.5684
1225.80 284.5781
1225.90 284.5878
1226.00 284.5976
1226.10 284.6073
1226.20 284.617
1226.30 284.6267
1226.40 284.6364
1226.50 284.6461
1226.60 284.6558
1226.70 284.6656
1226.80 284.6753
1226.90 284.685
1227.00 284.6947
1227.10 284.7044
1227.20 284.7141
1227.30 284.7238
1227.40 284.7335
1227.50 284.7433
1227.60 284.753
1227.70 284.7627
1227.80 284.7724
1227.90 284.7821
1228.00 284.7918
1228.10 284.7802
1228.20 284.7631
1228.30 284.7461
1228.40 284.7291
1228.50 284.7121
1228.60 284.6951
1228.70 284.6781
1228.80 284.6611
1228.90 284.644
1229.00 284.627
1229.10 284.61
1229.20 284.593
1229.30 284.576
1229.40 284.559
1229.50 284.542
1229.60 284.5249
1229.70 284.5079
1229.80 284.4909
1229.90 284.4739
1230.00 284.4569
1230.10 284.4399
1230.20 284.4229
1230.30 284.4058
1230.40 284.3888
1230.50 284.3718
1230.60 284.3548
1230.70 284.3378
1230.80 284.3208
1230.90 284.3038
1231.00 284.2867
1231.10 284.2697
1231.20 284.2527
1231.30 284.2357
1231.40 284.2187
1231.50 284.2017
1231.60 284.1847
1231.70 284.1676
1231.80 284.1506
1231.90 284.1336
1232.00 284.1166
1232.10 284.0996
1232.20 284.0826
1232.30 284.0656
1232.40 283.8461
1232.50 283.576
1232.60 283.306
1232.70 283.0359
1232.80 282.7659
1232.90 282.4958
1233.00 282.2257
1233.10 281.9557
1233.20 281.6856
1233.30 281.4156
1233.40 281.1455
1233.50 280.8754
1233.60 280.6054
1233.70 280.3353
1233.80 280.0653
1233.90 279.7952
1234.00 279.5251
1234.10 279.2551
1234.20 278.985
1234.30 278.715
1234.40 278.4449
1234.50 278.1748
1234.60 277.9048
1234.70 277.6347
1234.80 277.3647
1234.90 277.0946
1235.00 276.8245
1235.10 276.5545
1235.20 276.2844
1235.30 276.0144
1235.40 275.7443
1235.50 275.4742
1235.60 275.2042
1235.70 274.9341
1235.80 274.6641
1235.90 274.394
1236.00 274.1239
1236.10 273.8539
1236.20 273.5838
1236.30 273.3138
1236.40 273.0437
1236.50 272.7736
1236.60 272.5036
1236.70 272.3524
1236.80 272.2522
1236.90 272.152
1237.00 272.0518
1237.10 271.9516
1237.20 271.8514
1237.30 271.7512
1237.40 271.651
1237.50 271.5508
1237.60 271.4506
1237.70 271.3504
1237.80 271.2502
1237.90 271.15
1238.00 271.0498
1238.10 270.9496
1238.20 270.8494
1238.30 270.7492
1238.40 270.649
1238.50 270.5488
1238.60 270.4486
1238.70 270.3484
1238.80 270.2482
1238.90 270.148
1239.00 270.0477
1239.10 269.9475
1239.20 269.8473
1239.30 269.7471
1239.40 269.6469
1239.50 269.5467
1239.60 269.4465
1239.70 269.3463
1239.80 269.2461
1239.90 269.1459
1240.00 269.0457
1240.10 268.9455
1240.20 268.8453
1240.30 268.7451
1240.40 268.6449
1240.50 268.5447
1240.60 268.4445
1240.70 268.3443
1240.80 268.2441
1240.90 268.1439
1241.00 268.0364
1241.10 267.9257
1241.20 267.815
1241.30 267.7044
1241.40 267.5937
1241.50 267.483
1241.60 267.3724
1241.70 267.2617
1241.80 267.1511
1241.90 267.0404
1242.00 266.9297
1242.10 266.8191
1242.20 266.7084
1242.30 266.5977
1242.40 266.4871
1242.50 266.3764
1242.60 266.2658
1242.70 266.1551
1242.80 266.0444
1242.90 265.9338
1243.00 265.8231
1243.10 265.7124
1243.20 265.6018
1243.30 265.4911
1243.40 265.3805
1243.50 265.2698
1243.60 265.1591
1243.70 265.0485
1243.80 264.9378
1243.90 264.8271
1244.00 264.7165
1244.10 264.6058
1244.20 264.4951
1244.30 264.3845
1244.40 264.2738
1244.50 264.1632
1244.60 264.0525
1244.70 263.9418
1244.80 263.8312
1244.90 263.7205
1245.00 263.6098
1245.10 263.4992
1245.20 263.3885
1245.30 263.4728
1245.40 263.6871
1245.50 263.9014
1245.60 264.1157
1245.70 264.33
1245.80 264.5443
1245.90 264.7586
1246.00 264.9729
1246.10 265.1872
1246.20 265.4015
1246.30 265.6158
1246.40 265.8301
1246.50 266.0444
1246.60 266.2587
1246.70 266.473
1246.80 266.6873
1246.90 266.9016
1247.00 267.1159
1247.10 267.3302
1247.20 267.5445
1247.30 267.7587
1247.40 267.973
1247.50 268.1873
1247.60 268.4016
1247.70 268.6159
1247.80 268.8302
1247.90 269.0445
1248.00 269.2588
1248.10 269.4731
1248.20 269.6874
1248.30 269.9017
1248.40 270.116
1248.50 270.3303
1248.60 270.5446
1248.70 270.7589
1248.80 270.9732
1248.90 271.1875
1249.00 271.4018
1249.10 271.6161
1249.20 271.8304
1249.30 272.0447
1249.40 272.259
1249.50 272.4733
1249.60 272.6745
1249.70 272.8627
1249.80 273.0509
1249.90 273.2391
1250.00 273.4273
1250.10 273.6155
1250.20 273.8037
1250.30 273.9919
1250.40 274.1801
1250.50 274.3683
1250.60 274.5565
1250.70 274.7447
1250.80 274.9329
1250.90 275.1211
1251.00 275.3093
1251.10 275.4975
1251.20 275.6857
1251.30 275.8739
1251.40 276.0621
1251.50 276.2503
1251.60 276.4385
1251.70 276.6267
1251.80 276.8149
1251.90 277.0031
1252.00 277.1913
1252.10 277.3795
1252.20 277.5677
1252.30 277.7559
1252.40 277.9441
1252.50 278.1323
1252.60 278.3205
1252.70 278.5087
1252.80 278.6969
1252.90 278.8851
1253.00 279.0733
1253.10 279.2615
1253.20 279.4497
1253.30 279.6379
1253.40 279.8261
1253.50 280.0143
1253.60 280.2025
1253.70 280.3907
1253.80 280.5789
1253.90 280.8161
1254.00 281.1269
1254.10 281.4376
1254.20 281.7483
1254.30 282.0591
1254.40 282.3698
1254.50 282.6805
1254.60 282.9912
1254.70 283.302
1254.80 283.6127
1254.90 283.9234
1255.00 284.2341
1255.10 284.5449
1255.20 284.8556
1255.30 285.1663
1255.40 285.4771
1255.50 285.7878
1255.60 286.0985
1255.70 286.4092
1255.80 286.72
1255.90 287.0307
1256.00 287.3414
1256.10 287.6522
1256.20 287.9629
1256.30 288.2736
1256.40 288.5843
1256.50 288.8951
1256.60 289.2058
1256.70 289.5165
1256.80 289.8272
1256.90 290.138
1257.00 290.4487
1257.10 290.7594
1257.20 291.0702
1257.30 291.3809
1257.40 291.6916
1257.50 292.0023
1257.60 292.3131
1257.70 292.6238
1257.80 292.9345
1257.90 293.2453
1258.00 293.556
1258.10 293.8667
1258.20 294.0972
1258.30 294.1404
1258.40 294.1836
1258.50 294.2269
1258.60 294.2701
1258.70 294.3133
1258.80 294.3566
1258.90 294.3998
1259.00 294.443
1259.10 294.4862
1259.20 294.5295
1259.30 294.5727
1259.40 294.6159
1259.50 294.6592
1259.60 294.7024
1259.70 294.7456
1259.80 294.7888
1259.90 294.8321
1260.00 294.8753
1260.10 294.9185
1260.20 294.9618
1260.30 295.005
1260.40 295.0482
1260.50 295.0915
1260.60 295.1347
1260.70 295.1779
1260.80 295.2211
1260.90 295.2644
1261.00 295.3076
1261.10 295.3508
1261.20 295.3941
1261.30 295.4373
1261.40 295.4805
1261.50 295.5237
1261.60 295.567
1261.70 295.6102
1261.80 295.6534
1261.90 295.6967
1262.00 295.7399
1262.10 295.7831
1262.20 295.8263
1262.30 295.8696
1262.40 295.9128
1262.50 296.0055
1262.60 296.2962
1262.70 296.5868
1262.80 296.8775
1262.90 297.1682
1263.00 297.4588
1263.10 297.7495
1263.20 298.0402
1263.30 298.3308
1263.40 298.6215
1263.50 298.9122
1263.60 299.2028
1263.70 299.4935
1263.80 299.7842
1263.90 300.0748
1264.00 300.3655
1264.10 300.6561
1264.20 300.9468
1264.30 301.2375
1264.40 301.5281
1264.50 301.8188
1264.60 302.1095
1264.70 302.4001
1264.80 302.6908
1264.90 302.9815
1265.00 303.2721
1265.10 303.5628
1265.20 303.8535
1265.30 304.1441
1265.40 304.4348
1265.50 304.7255
1265.60 305.0161
1265.70 305.3068
1265.80 305.5974
1265.90 305.8881
1266.00 306.1788
1266.10 306.4694
1266.20 306.7601
1266.30 307.0508
1266.40 307.3414
1266.50 307.6321
1266.60 307.9228
1266.70 308.2134
1266.80 308.5041
1266.90 308.3278
1267.00 308.1515
1267.10 307.9752
1267.20 307.7988
1267.30 307.6225
1267.40 307.4462
1267.50 307.2699
1267.60 307.0936
1267.70 306.9173
1267.80 306.741
1267.90 306.5646
1268.00 306.3883
1268.10 306.212
1268.20 306.0357
1268.30 305.8594
1268.40 305.6831
1268.50 305.5068
1268.60 305.3305
1268.70 305.1541
1268.80 304.9778
1268.90 304.8015
1269.00 304.6252
1269.10 304.4489
1269.20 304.2726
1269.30 304.0963
1269.40 303.92
1269.50 303.7436
1269.60 303.5673
1269.70 303.391
1269.80 303.2147
1269.90 303.0384
1270.00 302.8621
1270.10 302.6858
1270.20 302.5094
1270.30 302.3331
1270.40 302.1568
1270.50 301.9805
1270.60 301.8042
1270.70 301.6279
1270.80 301.4516
1270.90 301.2753
1271.00 301.0989
1271.10 300.9226
1271.20 301.0806
1271.30 301.2756
1271.40 301.4707
1271.50 301.6658
1271.60 301.8608
1271.70 302.0559
1271.80 302.251
1271.90 302.446
1272.00 302.6411
1272.10 302.8362
1272.20 303.0312
1272.30 303.2263
1272.40 303.4214
1272.50 303.6164
1272.60 303.8115
1272.70 304.0066
1272.80 304.2016
1272.90 304.3967
1273.00 304.5918
1273.10 304.7868
1273.20 304.9819
1273.30 305.177
1273.40 305.372
1273.50 305.5671
1273.60 305.7622
1273.70 305.9572
1273.80 306.1523
1273.90 306.3474
1274.00 306.5424
1274.10 306.7375
1274.20 306.9326
1274.30 307.1276
1274.40 307.3227
1274.50 307.5178
1274.60 307.7128
1274.70 307.9079
1274.80 308.103
1274.90 308.298
1275.00 308.4931
1275.10 308.6882
1275.20 308.8832
1275.30 309.0783
1275.40 309.2734
1275.50 309.3351
1275.60 309.3396
1275.70 309.3442
1275.80 309.3487
1275.90 309.3533
1276.00 309.3578
1276.10 309.3624
1276.20 309.3669
1276.30 309.3715
1276.40 309.376
1276.50 309.3806
1276.60 309.3851
1276.70 309.3897
1276.80 309.3942
1276.90 309.3988
1277.00 309.4033
1277.10 309.4079
1277.20 309.4124
1277.30 309.417
1277.40 309.4215
1277.50 309.4261
1277.60 309.4306
1277.70 309.4352
1277.80 309.4397
1277.90 309.4443
1278.00 309.4489
1278.10 309.4534
1278.20 309.458
1278.30 309.4625
1278.40 309.4671
1278.50 309.4716
1278.60 309.4762
1278.70 309.4807
1278.80 309.4853
1278.90 309.4898
1279.00 309.4944
1279.10 309.4989
1279.20 309.5035
1279.30 309.508
1279.40 309.5126
1279.50 309.5171
1279.60 309.5217
1279.70 309.5262
1279.80 309.54
1279.90 309.5599
1280.00 309.5797
1280.10 309.5996
1280.20 309.6195
1280.30 309.6394
1280.40 309.6592
1280.50 309.6791
1280.60 309.699
1280.70 309.7189
1280.80 309.7388
1280.90 309.7586
1281.00 309.7785
1281.10 309.7984
1281.20 309.8183
1281.30 309.8382
1281.40 309.858
1281.50 309.8779
1281.60 309.8978
1281.70 309.9177
1281.80 309.9375
1281.90 309.9574
1282.00 309.9773
1282.10 309.9972
1282.20 310.0171
1282.30 310.0369
1282.40 310.0568
1282.50 310.0767
1282.60 310.0966
1282.70 310.1164
1282.80 310.1363
1282.90 310.1562
1283.00 310.1761
1283.10 310.196
1283.20 310.2158
1283.30 310.2357
1283.40 310.2556
1283.50 310.2755
1283.60 310.2954
1283.70 310.3152
1283.80 310.3351
1283.90 310.355
1284.00 310.3749
1284.10 310.4383
1284.20 310.567
1284.30 310.6958
1284.40 310.8245
1284.50 310.9532
1284.60 311.082
1284.70 311.2107
1284.80 311.3394
1284.90 311.4682
1285.00 311.5969
1285.10 311.7256
1285.20 311.8544
1285.30 311.9831
1285.40 312.1118
1285.50 312.2406
1285.60 312.3693
1285.70 312.498
1285.80 312.6268
1285.90 312.7555
1286.00 312.8842
1286.10 313.013
1286.20 313.1417
1286.30 313.2705
1286.40 313.3992
1286.50 313.5279
1286.60 313.6567
1286.70 313.7854
1286.80 313.9141
1286.90 314.0429
1287.00 314.1716
1287.10 314.3003
1287.20 314.4291
1287.30 314.5578
1287.40 314.6865
1287.50 314.8153
1287.60 314.944
1287.70 315.0727
1287.80 315.2015
1287.90 315.3302
1288.00 315.4589
1288.10 315.5877
1288.20 315.7164
1288.30 315.8451
1288.40 315.9611
1288.50 316.0258
1288.60 316.0905
1288.70 316.1552
1288.80 316.2199
1288.90 316.2846
1289.00 316.3493
1289.10 316.414
1289.20 316.4787
1289.30 316.5434
1289.40 316.6081
1289.50 316.6728
1289.60 316.7375
1289.70 316.8022
1289.80 316.8669
1289.90 316.9316
1290.00 316.9964
1290.10 317.0611
1290.20 317.1258
1290.30 317.1905
1290.40 317.2552
1290.50 317.3199
1290.60 317.3846
1290.70 317.4493
1290.80 317.514
1290.90 317.5787
1291.00 317.6434
1291.10 317.7081
1291.20 317.7728
1291.30 317.8375
1291.40 317.9022
1291.50 317.9669
1291.60 318.0316
1291.70 318.0963
1291.80 318.161
1291.90 318.2257
1292.00 318.2905
1292.10 318.3552
1292.20 318.4199
1292.30 318.4846
1292.40 318.5493
1292.50 318.614
1292.60 318.6787
1292.70 318.7434
1292.80 318.7778
1292.90 318.8123
1293.00 318.8467
1293.10 318.8811
1293.20 318.9156
1293.30 318.95
1293.40 318.9844
1293.50 319.0189
1293.60 319.0533
1293.70 319.0877
1293.80 319.1222
1293.90 319.1566
1294.00 319.191
1294.10 319.2255
1294.20 319.2599
1294.30 319.2943
1294.40 319.3288
1294.50 319.3632
1294.60 319.3976
1294.70 319.4321
1294.80 319.4665
1294.90 319.501
1295.00 319.5354
1295.10 319.5698
1295.20 319.6043
1295.30 319.6387
1295.40 319.6731
1295.50 319.7076
1295.60 319.742
1295.70 319.7764
1295.80 319.8109
1295.90 319.8453
1296.00 319.8797
1296.10 319.9142
1296.20 319.9486
1296.30 319.983
1296.40 320.0175
1296.50 320.0519
1296.60 320.0863
1296.70 320.1208
1296.80 320.1552
1296.90 320.1897
1297.00 320.2241
1297.10 320.177
1297.20 320.1096
1297.30 320.0422
1297.40 319.9748
1297.50 319.9074
1297.60 319.84
1297.70 319.7726
1297.80 319.7052
1297.90 319.6378
1298.00 319.5704
1298.10 319.5029
1298.20 319.4355
1298.30 319.3681
1298.40 319.3007
1298.50 319.2333
1298.60 319.1659
1298.70 319.0985
1298.80 319.0311
1298.90 318.9637
1299.00 318.8962
1299.10 318.8288
1299.20 318.7614
1299.30 318.694
1299.40 318.6266
1299.50 318.5592
1299.60 318.4918
1299.70 318.4244
1299.80 318.357
1299.90 318.2896
