# Version 2.1 - nm, norm@500 to 1, cut digits
# Wavelength(nm)  Flambda(ergs/cm^s/s/nm)
300.00 1.873563e-95
300.10 1.873563e-95
300.20 1.873563e-95
300.30 1.873563e-95
300.40 1.873563e-95
300.50 1.873563e-95
300.60 1.873563e-95
300.70 1.873563e-95
300.80 1.873563e-95
300.90 1.873563e-95
301.00 1.873563e-95
301.10 1.873563e-95
301.20 1.873563e-95
301.30 1.873563e-95
301.40 1.873563e-95
301.50 1.873563e-95
301.60 1.873563e-95
301.70 1.873563e-95
301.80 1.873563e-95
301.90 1.873563e-95
302.00 1.873563e-95
302.10 1.873563e-95
302.20 1.873563e-95
302.30 1.873563e-95
302.40 1.873563e-95
302.50 1.873563e-95
302.60 1.873563e-95
302.70 1.873563e-95
302.80 1.873563e-95
302.90 1.873563e-95
303.00 1.873563e-95
303.10 1.873563e-95
303.20 1.873563e-95
303.30 1.873563e-95
303.40 1.873563e-95
303.50 1.873563e-95
303.60 1.873563e-95
303.70 1.873563e-95
303.80 1.873563e-95
303.90 1.873563e-95
304.00 1.873563e-95
304.10 1.873563e-95
304.20 1.873563e-95
304.30 1.873563e-95
304.40 1.873563e-95
304.50 1.873563e-95
304.60 1.873563e-95
304.70 1.873563e-95
304.80 1.873563e-95
304.90 1.873563e-95
305.00 1.873563e-95
305.10 1.873563e-95
305.20 1.873563e-95
305.30 1.873563e-95
305.40 1.873563e-95
305.50 1.873563e-95
305.60 1.873563e-95
305.70 1.873563e-95
305.80 1.873563e-95
305.90 1.873563e-95
306.00 1.873563e-95
306.10 1.873563e-95
306.20 1.873563e-95
306.30 1.873563e-95
306.40 1.873563e-95
306.50 1.873563e-95
306.60 1.873563e-95
306.70 1.873563e-95
306.80 1.873563e-95
306.90 1.873563e-95
307.00 1.873563e-95
307.10 1.873563e-95
307.20 1.873563e-95
307.30 1.873563e-95
307.40 1.873563e-95
307.50 1.873563e-95
307.60 1.873563e-95
307.70 1.873563e-95
307.80 1.873563e-95
307.90 1.873563e-95
308.00 1.873563e-95
308.10 1.873563e-95
308.20 1.873563e-95
308.30 1.873563e-95
308.40 1.873563e-95
308.50 1.873563e-95
308.60 1.873563e-95
308.70 1.873563e-95
308.80 1.873563e-95
308.90 1.873563e-95
309.00 1.873563e-95
309.10 1.873563e-95
309.20 1.873563e-95
309.30 1.873563e-95
309.40 1.873563e-95
309.50 1.873563e-95
309.60 1.873563e-95
309.70 1.873563e-95
309.80 1.873563e-95
309.90 1.873563e-95
310.00 1.873563e-95
310.10 1.873563e-95
310.20 1.873563e-95
310.30 1.873563e-95
310.40 1.873563e-95
310.50 1.873563e-95
310.60 1.873563e-95
310.70 1.873563e-95
310.80 1.873563e-95
310.90 1.873563e-95
311.00 1.873563e-95
311.10 1.873563e-95
311.20 1.873563e-95
311.30 1.873563e-95
311.40 1.873563e-95
311.50 1.873563e-95
311.60 1.873563e-95
311.70 1.873563e-95
311.80 1.873563e-95
311.90 1.873563e-95
312.00 1.873563e-95
312.10 1.873563e-95
312.20 1.873563e-95
312.30 1.873563e-95
312.40 1.873563e-95
312.50 1.873563e-95
312.60 1.873563e-95
312.70 1.873563e-95
312.80 1.873563e-95
312.90 1.873563e-95
313.00 1.873563e-95
313.10 1.873563e-95
313.20 1.873563e-95
313.30 1.873563e-95
313.40 1.873563e-95
313.50 1.873563e-95
313.60 1.873563e-95
313.70 1.873563e-95
313.80 1.873563e-95
313.90 1.873563e-95
314.00 1.873563e-95
314.10 1.873563e-95
314.20 1.873563e-95
314.30 1.873563e-95
314.40 1.873563e-95
314.50 1.873563e-95
314.60 1.873563e-95
314.70 1.873563e-95
314.80 1.873563e-95
314.90 1.873563e-95
315.00 1.873563e-95
315.10 1.873563e-95
315.20 1.873563e-95
315.30 1.873563e-95
315.40 1.873563e-95
315.50 1.873563e-95
315.60 1.873563e-95
315.70 1.873563e-95
315.80 1.873563e-95
315.90 1.873563e-95
316.00 1.873563e-95
316.10 1.873563e-95
316.20 1.873563e-95
316.30 1.873563e-95
316.40 1.873563e-95
316.50 1.873563e-95
316.60 1.873563e-95
316.70 1.873563e-95
316.80 1.873563e-95
316.90 1.873563e-95
317.00 1.873563e-95
317.10 1.873563e-95
317.20 1.873563e-95
317.30 1.873563e-95
317.40 1.873563e-95
317.50 1.873563e-95
317.60 1.873563e-95
317.70 1.873563e-95
317.80 1.873563e-95
317.90 1.873563e-95
318.00 1.873563e-95
318.10 1.873563e-95
318.20 1.873563e-95
318.30 1.873563e-95
318.40 1.873563e-95
318.50 1.873563e-95
318.60 1.873563e-95
318.70 1.873563e-95
318.80 1.873563e-95
318.90 1.873563e-95
319.00 1.873563e-95
319.10 1.873563e-95
319.20 1.873563e-95
319.30 1.873563e-95
319.40 1.873563e-95
319.50 1.873563e-95
319.60 1.873563e-95
319.70 1.873563e-95
319.80 1.873563e-95
319.90 1.873563e-95
320.00 1.873563e-95
320.10 1.873563e-95
320.20 1.873563e-95
320.30 1.873563e-95
320.40 1.873563e-95
320.50 1.873563e-95
320.60 1.873563e-95
320.70 1.873563e-95
320.80 1.873563e-95
320.90 1.873563e-95
321.00 1.873563e-95
321.10 1.873563e-95
321.20 1.873563e-95
321.30 1.873563e-95
321.40 1.873563e-95
321.50 1.873563e-95
321.60 1.873563e-95
321.70 1.873563e-95
321.80 1.873563e-95
321.90 1.873563e-95
322.00 1.873563e-95
322.10 1.873563e-95
322.20 1.873563e-95
322.30 1.873563e-95
322.40 1.873563e-95
322.50 1.873563e-95
322.60 1.873563e-95
322.70 1.873563e-95
322.80 1.873563e-95
322.90 1.873563e-95
323.00 1.873563e-95
323.10 1.873563e-95
323.20 1.873563e-95
323.30 1.873563e-95
323.40 1.873563e-95
323.50 1.873563e-95
323.60 1.873563e-95
323.70 1.873563e-95
323.80 1.873563e-95
323.90 1.873563e-95
324.00 1.873563e-95
324.10 1.873563e-95
324.20 1.873563e-95
324.30 1.873563e-95
324.40 1.873563e-95
324.50 1.873563e-95
324.60 1.873563e-95
324.70 1.873563e-95
324.80 1.873563e-95
324.90 1.873563e-95
325.00 1.873563e-95
325.10 1.873563e-95
325.20 1.873563e-95
325.30 1.873563e-95
325.40 1.873563e-95
325.50 1.873563e-95
325.60 1.873563e-95
325.70 1.873563e-95
325.80 1.873563e-95
325.90 1.873563e-95
326.00 1.873563e-95
326.10 1.873563e-95
326.20 1.873563e-95
326.30 1.873563e-95
326.40 1.873563e-95
326.50 1.873563e-95
326.60 1.873563e-95
326.70 1.873563e-95
326.80 1.873563e-95
326.90 1.873563e-95
327.00 1.873563e-95
327.10 1.873563e-95
327.20 1.873563e-95
327.30 1.873563e-95
327.40 1.873563e-95
327.50 1.873563e-95
327.60 1.873563e-95
327.70 1.873563e-95
327.80 1.873563e-95
327.90 1.873563e-95
328.00 1.873563e-95
328.10 1.873563e-95
328.20 1.873563e-95
328.30 1.873563e-95
328.40 1.873563e-95
328.50 1.873563e-95
328.60 1.873563e-95
328.70 1.873563e-95
328.80 1.873563e-95
328.90 1.873563e-95
329.00 1.873563e-95
329.10 1.873563e-95
329.20 1.873563e-95
329.30 1.873563e-95
329.40 1.873563e-95
329.50 1.873563e-95
329.60 1.873563e-95
329.70 1.873563e-95
329.80 1.873563e-95
329.90 1.873563e-95
330.00 1.873563e-95
330.10 1.873563e-95
330.20 1.873563e-95
330.30 1.873563e-95
330.40 1.873563e-95
330.50 1.873563e-95
330.60 1.873563e-95
330.70 1.873563e-95
330.80 1.873563e-95
330.90 1.873563e-95
331.00 1.873563e-95
331.10 1.873563e-95
331.20 1.873563e-95
331.30 1.873563e-95
331.40 1.873563e-95
331.50 1.873563e-95
331.60 1.873563e-95
331.70 1.873563e-95
331.80 1.873563e-95
331.90 1.873563e-95
332.00 1.873563e-95
332.10 1.873563e-95
332.20 1.873563e-95
332.30 1.873563e-95
332.40 1.873563e-95
332.50 1.873563e-95
332.60 1.873563e-95
332.70 1.873563e-95
332.80 1.873563e-95
332.90 1.873563e-95
333.00 1.873563e-95
333.10 1.873563e-95
333.20 1.873563e-95
333.30 1.873563e-95
333.40 1.873563e-95
333.50 1.873563e-95
333.60 1.873563e-95
333.70 1.873563e-95
333.80 1.873563e-95
333.90 1.873563e-95
334.00 1.873563e-95
334.10 1.873563e-95
334.20 1.873563e-95
334.30 1.873563e-95
334.40 1.873563e-95
334.50 1.873563e-95
334.60 1.873563e-95
334.70 1.873563e-95
334.80 1.873563e-95
334.90 1.873563e-95
335.00 1.873563e-95
335.10 1.873563e-95
335.20 1.873563e-95
335.30 1.873563e-95
335.40 1.873563e-95
335.50 1.873563e-95
335.60 1.873563e-95
335.70 1.873563e-95
335.80 1.873563e-95
335.90 1.873563e-95
336.00 1.873563e-95
336.10 1.873563e-95
336.20 1.873563e-95
336.30 1.873563e-95
336.40 1.873563e-95
336.50 1.873563e-95
336.60 1.873563e-95
336.70 1.873563e-95
336.80 1.873563e-95
336.90 1.873563e-95
337.00 1.873563e-95
337.10 1.873563e-95
337.20 1.873563e-95
337.30 1.873563e-95
337.40 1.873563e-95
337.50 1.873563e-95
337.60 1.873563e-95
337.70 1.873563e-95
337.80 1.873563e-95
337.90 1.873563e-95
338.00 1.873563e-95
338.10 1.873563e-95
338.20 1.873563e-95
338.30 1.873563e-95
338.40 1.873563e-95
338.50 1.873563e-95
338.60 1.873563e-95
338.70 1.873563e-95
338.80 1.873563e-95
338.90 1.873563e-95
339.00 1.873563e-95
339.10 1.873563e-95
339.20 1.873563e-95
339.30 1.873563e-95
339.40 1.873563e-95
339.50 1.873563e-95
339.60 1.873563e-95
339.70 1.873563e-95
339.80 1.873563e-95
339.90 1.873563e-95
340.00 1.873563e-95
340.10 1.873563e-95
340.20 1.873563e-95
340.30 1.873563e-95
340.40 1.873563e-95
340.50 1.873563e-95
340.60 1.873563e-95
340.70 1.873563e-95
340.80 1.873563e-95
340.90 1.873563e-95
341.00 1.873563e-95
341.10 1.873563e-95
341.20 1.873563e-95
341.30 1.873563e-95
341.40 1.873563e-95
341.50 1.873563e-95
341.60 1.873563e-95
341.70 1.873563e-95
341.80 1.873563e-95
341.90 1.873563e-95
342.00 1.873563e-95
342.10 1.873563e-95
342.20 1.873563e-95
342.30 1.873563e-95
342.40 1.873563e-95
342.50 1.873563e-95
342.60 1.873563e-95
342.70 1.873563e-95
342.80 1.873563e-95
342.90 1.873563e-95
343.00 1.873563e-95
343.10 1.873563e-95
343.20 1.873563e-95
343.30 1.873563e-95
343.40 1.873563e-95
343.50 1.873563e-95
343.60 1.873563e-95
343.70 1.873563e-95
343.80 1.873563e-95
343.90 1.873563e-95
344.00 1.873563e-95
344.10 1.873563e-95
344.20 1.873563e-95
344.30 1.873563e-95
344.40 1.873563e-95
344.50 1.873563e-95
344.60 1.873563e-95
344.70 1.873563e-95
344.80 1.873563e-95
344.90 1.873563e-95
345.00 1.873563e-95
345.10 1.873563e-95
345.20 1.873563e-95
345.30 1.873563e-95
345.40 1.873563e-95
345.50 1.873563e-95
345.60 1.873563e-95
345.70 1.873563e-95
345.80 1.873563e-95
345.90 1.873563e-95
346.00 1.873563e-95
346.10 1.873563e-95
346.20 1.873563e-95
346.30 1.873563e-95
346.40 1.873563e-95
346.50 1.873563e-95
346.60 1.873563e-95
346.70 1.873563e-95
346.80 1.873563e-95
346.90 1.873563e-95
347.00 1.873563e-95
347.10 1.873563e-95
347.20 1.873563e-95
347.30 1.873563e-95
347.40 1.873563e-95
347.50 1.873563e-95
347.60 1.873563e-95
347.70 1.873563e-95
347.80 1.873563e-95
347.90 1.873563e-95
348.00 1.873563e-95
348.10 1.873563e-95
348.20 1.873563e-95
348.30 1.873563e-95
348.40 1.873563e-95
348.50 1.873563e-95
348.60 1.873563e-95
348.70 1.873563e-95
348.80 1.873563e-95
348.90 1.873563e-95
349.00 1.873563e-95
349.10 1.873563e-95
349.20 1.873563e-95
349.30 1.873563e-95
349.40 1.873563e-95
349.50 1.873563e-95
349.60 1.873563e-95
349.70 1.873563e-95
349.80 1.873563e-95
349.90 1.873563e-95
350.00 1.873563e-95
350.10 1.873563e-95
350.20 1.873563e-95
350.30 1.873563e-95
350.40 1.873563e-95
350.50 1.873563e-95
350.60 1.873563e-95
350.70 1.873563e-95
350.80 1.873563e-95
350.90 1.873563e-95
351.00 1.873563e-95
351.10 1.873563e-95
351.20 1.873563e-95
351.30 1.873563e-95
351.40 1.873563e-95
351.50 1.873563e-95
351.60 1.873563e-95
351.70 1.873563e-95
351.80 1.873563e-95
351.90 1.873563e-95
352.00 1.873563e-95
352.10 1.873563e-95
352.20 1.873563e-95
352.30 1.873563e-95
352.40 1.873563e-95
352.50 1.873563e-95
352.60 1.873563e-95
352.70 1.873563e-95
352.80 1.873563e-95
352.90 1.873563e-95
353.00 1.873563e-95
353.10 1.873563e-95
353.20 1.873563e-95
353.30 1.873563e-95
353.40 1.873563e-95
353.50 1.873563e-95
353.60 1.873563e-95
353.70 1.873563e-95
353.80 1.873563e-95
353.90 1.873563e-95
354.00 1.873563e-95
354.10 1.873563e-95
354.20 1.873563e-95
354.30 1.873563e-95
354.40 1.873563e-95
354.50 1.873563e-95
354.60 1.873563e-95
354.70 1.873563e-95
354.80 1.873563e-95
354.90 1.873563e-95
355.00 1.873563e-95
355.10 1.873563e-95
355.20 1.873563e-95
355.30 1.873563e-95
355.40 1.873563e-95
355.50 1.873563e-95
355.60 1.873563e-95
355.70 1.873563e-95
355.80 1.873563e-95
355.90 1.873563e-95
356.00 1.873563e-95
356.10 1.873563e-95
356.20 1.873563e-95
356.30 1.873563e-95
356.40 1.873563e-95
356.50 1.873563e-95
356.60 1.873563e-95
356.70 1.873563e-95
356.80 1.873563e-95
356.90 1.873563e-95
357.00 1.873563e-95
357.10 1.873563e-95
357.20 1.873563e-95
357.30 1.873563e-95
357.40 1.873563e-95
357.50 1.873563e-95
357.60 1.873563e-95
357.70 1.873563e-95
357.80 1.873563e-95
357.90 1.873563e-95
358.00 1.873563e-95
358.10 1.873563e-95
358.20 1.873563e-95
358.30 1.873563e-95
358.40 1.873563e-95
358.50 1.873563e-95
358.60 1.873563e-95
358.70 1.873563e-95
358.80 1.873563e-95
358.90 1.873563e-95
359.00 1.873563e-95
359.10 1.873563e-95
359.20 1.873563e-95
359.30 1.873563e-95
359.40 1.873563e-95
359.50 1.873563e-95
359.60 1.873563e-95
359.70 1.873563e-95
359.80 1.873563e-95
359.90 1.873563e-95
360.00 1.873563e-95
360.10 1.873563e-95
360.20 1.873563e-95
360.30 1.873563e-95
360.40 1.873563e-95
360.50 1.873563e-95
360.60 1.873563e-95
360.70 1.873563e-95
360.80 1.873563e-95
360.90 1.873563e-95
361.00 1.873563e-95
361.10 1.873563e-95
361.20 1.873563e-95
361.30 1.873563e-95
361.40 1.873563e-95
361.50 1.873563e-95
361.60 1.873563e-95
361.70 1.873563e-95
361.80 1.873563e-95
361.90 1.873563e-95
362.00 1.873563e-95
362.10 1.873563e-95
362.20 1.873563e-95
362.30 1.873563e-95
362.40 1.873563e-95
362.50 1.873563e-95
362.60 1.873563e-95
362.70 1.873563e-95
362.80 1.873563e-95
362.90 1.873563e-95
363.00 1.873563e-95
363.10 1.873563e-95
363.20 1.873563e-95
363.30 1.873563e-95
363.40 1.873563e-95
363.50 1.873563e-95
363.60 1.873563e-95
363.70 1.873563e-95
363.80 1.873563e-95
363.90 1.873563e-95
364.00 1.873563e-95
364.10 1.873563e-95
364.20 1.873563e-95
364.30 1.873563e-95
364.40 1.873563e-95
364.50 1.873563e-95
364.60 1.873563e-95
364.70 1.873563e-95
364.80 1.873563e-95
364.90 1.873563e-95
365.00 1.873563e-95
365.10 1.873563e-95
365.20 1.873563e-95
365.30 1.873563e-95
365.40 1.873563e-95
365.50 1.873563e-95
365.60 1.873563e-95
365.70 1.873563e-95
365.80 1.873563e-95
365.90 1.873563e-95
366.00 1.873563e-95
366.10 1.873563e-95
366.20 1.873563e-95
366.30 1.873563e-95
366.40 1.873563e-95
366.50 1.873563e-95
366.60 1.873563e-95
366.70 1.873563e-95
366.80 1.873563e-95
366.90 1.873563e-95
367.00 1.873563e-95
367.10 1.873563e-95
367.20 1.873563e-95
367.30 1.873563e-95
367.40 1.873563e-95
367.50 1.873563e-95
367.60 1.873563e-95
367.70 1.873563e-95
367.80 1.873563e-95
367.90 1.873563e-95
368.00 1.873563e-95
368.10 1.873563e-95
368.20 1.873563e-95
368.30 1.873563e-95
368.40 1.873563e-95
368.50 1.873563e-95
368.60 1.873563e-95
368.70 1.873563e-95
368.80 1.873563e-95
368.90 1.873563e-95
369.00 1.873563e-95
369.10 1.873563e-95
369.20 1.873563e-95
369.30 1.873563e-95
369.40 1.873563e-95
369.50 1.873563e-95
369.60 1.873563e-95
369.70 1.873563e-95
369.80 1.873563e-95
369.90 1.873563e-95
370.00 1.873563e-95
370.10 1.873563e-95
370.20 1.873563e-95
370.30 1.873563e-95
370.40 1.873563e-95
370.50 1.873563e-95
370.60 1.873563e-95
370.70 1.873563e-95
370.80 1.873563e-95
370.90 1.873563e-95
371.00 1.873563e-95
371.10 1.873563e-95
371.20 1.873563e-95
371.30 1.873563e-95
371.40 1.873563e-95
371.50 1.873563e-95
371.60 1.873563e-95
371.70 1.873563e-95
371.80 1.873563e-95
371.90 1.873563e-95
372.00 1.873563e-95
372.10 1.873563e-95
372.20 1.873563e-95
372.30 1.873563e-95
372.40 1.873563e-95
372.50 1.873563e-95
372.60 1.873563e-95
372.70 1.873563e-95
372.80 1.873563e-95
372.90 1.873563e-95
373.00 1.873563e-95
373.10 1.873563e-95
373.20 1.873563e-95
373.30 1.873563e-95
373.40 1.873563e-95
373.50 1.873563e-95
373.60 1.873563e-95
373.70 1.873563e-95
373.80 1.873563e-95
373.90 1.873563e-95
374.00 1.873563e-95
374.10 1.873563e-95
374.20 1.873563e-95
374.30 1.873563e-95
374.40 1.873563e-95
374.50 1.873563e-95
374.60 1.873563e-95
374.70 1.873563e-95
374.80 1.873563e-95
374.90 1.873563e-95
375.00 1.873563e-95
375.10 1.873563e-95
375.20 1.873563e-95
375.30 1.873563e-95
375.40 1.873563e-95
375.50 1.873563e-95
375.60 1.873563e-95
375.70 1.873563e-95
375.80 1.873563e-95
375.90 1.873563e-95
376.00 1.873563e-95
376.10 1.873563e-95
376.20 1.873563e-95
376.30 1.873563e-95
376.40 1.873563e-95
376.50 1.873563e-95
376.60 1.873563e-95
376.70 1.873563e-95
376.80 1.873563e-95
376.90 1.873563e-95
377.00 1.873563e-95
377.10 1.873563e-95
377.20 1.873563e-95
377.30 1.873563e-95
377.40 1.873563e-95
377.50 1.873563e-95
377.60 1.873563e-95
377.70 1.873563e-95
377.80 1.873563e-95
377.90 1.873563e-95
378.00 1.873563e-95
378.10 1.873563e-95
378.20 1.873563e-95
378.30 1.873563e-95
378.40 1.873563e-95
378.50 1.873563e-95
378.60 1.873563e-95
378.70 1.873563e-95
378.80 1.873563e-95
378.90 1.873563e-95
379.00 1.873563e-95
379.10 1.873563e-95
379.20 1.873563e-95
379.30 1.873563e-95
379.40 1.873563e-95
379.50 1.873563e-95
379.60 1.873563e-95
379.70 1.873563e-95
379.80 1.873563e-95
379.90 1.873563e-95
380.00 1.873563e-95
380.10 1.873563e-95
380.20 1.873563e-95
380.30 1.873563e-95
380.40 1.873563e-95
380.50 1.873563e-95
380.60 1.873563e-95
380.70 1.873563e-95
380.80 1.873563e-95
380.90 1.873563e-95
381.00 1.873563e-95
381.10 1.873563e-95
381.20 1.873563e-95
381.30 1.873563e-95
381.40 1.873563e-95
381.50 1.873563e-95
381.60 1.873563e-95
381.70 1.873563e-95
381.80 1.873563e-95
381.90 1.873563e-95
382.00 1.873563e-95
382.10 1.873563e-95
382.20 1.873563e-95
382.30 1.873563e-95
382.40 1.873563e-95
382.50 1.873563e-95
382.60 1.873563e-95
382.70 1.873563e-95
382.80 1.873563e-95
382.90 1.873563e-95
383.00 1.873563e-95
383.10 1.873563e-95
383.20 1.873563e-95
383.30 1.873563e-95
383.40 1.873563e-95
383.50 1.873563e-95
383.60 1.873563e-95
383.70 1.873563e-95
383.80 1.873563e-95
383.90 1.873563e-95
384.00 1.873563e-95
384.10 1.873563e-95
384.20 1.873563e-95
384.30 1.873563e-95
384.40 1.873563e-95
384.50 1.873563e-95
384.60 1.873563e-95
384.70 1.873563e-95
384.80 1.873563e-95
384.90 1.873563e-95
385.00 1.873563e-95
385.10 1.873563e-95
385.20 1.873563e-95
385.30 1.873563e-95
385.40 1.873563e-95
385.50 1.873563e-95
385.60 1.873563e-95
385.70 1.873563e-95
385.80 1.873563e-95
385.90 1.873563e-95
386.00 1.873563e-95
386.10 1.873563e-95
386.20 1.873563e-95
386.30 1.873563e-95
386.40 1.873563e-95
386.50 1.873563e-95
386.60 1.873563e-95
386.70 1.873563e-95
386.80 1.873563e-95
386.90 1.873563e-95
387.00 1.873563e-95
387.10 1.873563e-95
387.20 1.873563e-95
387.30 1.873563e-95
387.40 1.873563e-95
387.50 1.873563e-95
387.60 1.873563e-95
387.70 1.873563e-95
387.80 1.873563e-95
387.90 1.873563e-95
388.00 1.873563e-95
388.10 1.873563e-95
388.20 1.873563e-95
388.30 1.873563e-95
388.40 1.873563e-95
388.50 1.873563e-95
388.60 1.873563e-95
388.70 1.873563e-95
388.80 1.873563e-95
388.90 1.873563e-95
389.00 1.873563e-95
389.10 1.873563e-95
389.20 1.873563e-95
389.30 1.873563e-95
389.40 1.873563e-95
389.50 1.873563e-95
389.60 1.873563e-95
389.70 1.873563e-95
389.80 1.873563e-95
389.90 1.873563e-95
390.00 1.873563e-95
390.10 1.873563e-95
390.20 1.873563e-95
390.30 1.873563e-95
390.40 1.873563e-95
390.50 1.873563e-95
390.60 1.873563e-95
390.70 1.873563e-95
390.80 1.873563e-95
390.90 1.873563e-95
391.00 1.873563e-95
391.10 1.873563e-95
391.20 1.873563e-95
391.30 1.873563e-95
391.40 1.873563e-95
391.50 1.873563e-95
391.60 1.873563e-95
391.70 1.873563e-95
391.80 1.873563e-95
391.90 1.873563e-95
392.00 1.873563e-95
392.10 1.873563e-95
392.20 1.873563e-95
392.30 1.873563e-95
392.40 1.873563e-95
392.50 1.873563e-95
392.60 1.873563e-95
392.70 1.873563e-95
392.80 1.873563e-95
392.90 1.873563e-95
393.00 1.873563e-95
393.10 1.873563e-95
393.20 1.873563e-95
393.30 1.873563e-95
393.40 1.873563e-95
393.50 1.873563e-95
393.60 1.873563e-95
393.70 1.873563e-95
393.80 1.873563e-95
393.90 1.873563e-95
394.00 1.873563e-95
394.10 1.873563e-95
394.20 1.873563e-95
394.30 1.873563e-95
394.40 1.873563e-95
394.50 1.873563e-95
394.60 1.873563e-95
394.70 1.873563e-95
394.80 1.873563e-95
394.90 1.873563e-95
395.00 0.0650216
395.10 0.1070625
395.20 0.1282354
395.30 0.1311512
395.40 0.1311512
395.50 0.1311512
395.60 0.1311512
395.70 0.1311512
395.80 0.139018
395.90 0.1580148
396.00 0.1849071
396.10 0.2162985
396.20 0.2480094
396.30 0.2744693
396.40 0.2919644
396.50 0.2990565
396.60 0.2990565
396.70 0.2990565
396.80 0.2990565
396.90 0.2990565
397.00 0.2990565
397.10 0.2990565
397.20 0.2990565
397.30 0.2990565
397.40 0.3113389
397.50 0.3356248
397.60 0.3708271
397.70 0.4195282
397.80 0.4846114
397.90 0.565173
398.00 0.6575105
398.10 0.7553875
398.20 0.8503046
398.30 0.9341972
398.40 1.002909
398.50 1.057067
398.60 1.102312
398.70 1.147975
398.80 1.203891
398.90 1.277923
399.00 1.373895
399.10 1.490748
399.20 1.623082
399.30 1.762274
399.40 1.897026
399.50 2.015727
399.60 2.109456
399.70 2.172273
399.80 2.201205
399.90 2.201205
400.00 2.201205
400.10 2.201205
400.20 2.201205
400.30 2.201205
400.40 2.201205
400.50 2.201205
400.60 2.201205
400.70 2.201205
400.80 2.203575
400.90 2.219411
401.00 2.243779
401.10 2.274286
401.20 2.311404
401.30 2.355707
401.40 2.407275
401.50 2.465237
401.60 2.526803
401.70 2.588843
401.80 2.64831
401.90 2.702593
402.00 2.750111
402.10 2.789963
402.20 2.823249
402.30 2.854013
402.40 2.886991
402.50 2.924361
402.60 2.967216
402.70 3.017415
402.80 3.075383
402.90 3.139251
403.00 3.206171
403.10 3.272525
403.20 3.335673
403.30 3.395471
403.40 3.454024
403.50 3.514705
403.60 3.581123
403.70 3.654923
403.80 3.735012
403.90 3.818135
404.00 3.900113
404.10 3.978307
404.20 4.051274
404.30 4.117915
404.40 4.177704
404.50 4.231664
404.60 4.281896
404.70 4.328762
404.80 4.371438
404.90 4.410008
405.00 4.378963
405.10 4.365631
405.20 4.369906
405.30 4.393146
405.40 4.421471
405.50 4.449577
405.60 4.473774
405.70 4.491382
405.80 4.493403
405.90 4.476551
406.00 4.449659
406.10 4.418268
406.20 4.386557
406.30 4.360097
406.40 4.342602
406.50 4.33551
406.60 4.33551
406.70 4.33551
406.80 4.33551
406.90 4.33551
407.00 4.33551
407.10 4.33551
407.20 4.33551
407.30 4.33551
407.40 4.323227
407.50 4.298941
407.60 4.263739
407.70 4.215038
407.80 4.149955
407.90 4.069393
408.00 3.977056
408.10 3.879179
408.20 3.784262
408.30 3.700369
408.40 3.631657
408.50 3.577499
408.60 3.532254
408.70 3.486591
408.80 3.430675
408.90 3.359476
409.00 3.271098
409.10 3.165267
409.20 3.046337
409.30 2.922096
409.40 2.802775
409.50 2.698981
409.60 2.618332
409.70 2.566592
409.80 2.548221
409.90 2.5584
410.00 2.567465
410.10 2.574995
410.20 2.580695
410.30 2.585179
410.40 2.592372
410.50 2.608395
410.60 2.637767
410.70 2.682523
410.80 2.739032
410.90 2.791938
411.00 2.840516
411.10 2.881404
411.20 2.908698
411.30 2.91733
411.40 2.905253
411.50 2.875784
411.60 2.837567
411.70 2.800164
411.80 2.770323
411.90 2.750752
412.00 2.740856
412.10 2.737146
412.20 2.733523
412.30 2.722162
412.40 2.696418
412.50 2.659048
412.60 2.616194
412.70 2.565995
412.80 2.508026
412.90 2.444159
413.00 2.377238
413.10 2.310884
413.20 2.247737
413.30 2.187939
413.40 2.129385
413.50 2.068704
413.60 2.002286
413.70 1.928487
413.80 1.848398
413.90 1.765274
414.00 1.683296
414.10 1.605103
414.20 1.532136
414.30 1.465494
414.40 1.405706
414.50 1.351746
414.60 1.301513
414.70 1.254647
414.80 1.211971
414.90 1.173401
415.00 1.139425
415.10 1.110716
415.20 1.085268
415.30 1.059112
415.40 1.030788
415.50 1.002681
415.60 0.9784838
415.70 0.9608757
415.80 0.9509879
415.90 0.9488432
416.00 0.9517415
416.10 0.9635369
416.20 0.9862046
416.30 1.020045
416.40 1.064253
416.50 1.116726
416.60 1.173221
416.70 1.228215
416.80 1.27658
416.90 1.31508
417.00 1.342854
417.10 1.360287
417.20 1.368002
417.30 1.368002
417.40 1.368002
417.50 1.368002
417.60 1.368002
417.70 1.368002
417.80 1.368002
417.90 1.368002
418.00 1.368002
418.10 1.368002
418.20 1.368002
418.30 1.368002
418.40 1.368002
418.50 1.368002
418.60 1.368002
418.70 1.368002
418.80 1.368002
418.90 1.36517
419.00 1.357575
419.10 1.346553
419.20 1.33315
419.30 1.318199
419.40 1.302768
419.50 1.28786
419.60 1.274781
419.70 1.263703
419.80 1.253143
419.90 1.242964
420.00 1.233899
420.10 1.226369
420.20 1.220669
420.30 1.216185
420.40 1.208992
420.50 1.192968
420.60 1.167696
420.70 1.131946
420.80 1.085182
420.90 1.028556
421.00 0.9656039
421.10 0.9007649
421.20 0.8387328
421.30 0.7857983
421.40 0.7463069
421.50 0.7178142
421.60 0.6944647
421.70 0.672434
421.80 0.6512607
421.90 0.6330998
422.00 0.6217813
422.10 0.6203097
422.20 0.6303821
422.30 0.6516512
422.40 0.6804219
422.50 0.7063328
422.60 0.7184772
422.70 0.7184772
422.80 0.7184772
422.90 0.7184772
423.00 0.7184772
423.10 0.7184772
423.20 0.7184772
423.30 0.7184772
423.40 0.7184772
423.50 0.7184772
423.60 0.7184772
423.70 0.7184772
423.80 0.7184772
423.90 0.7210439
424.00 0.7267293
424.10 0.7329084
424.20 0.737777
424.30 0.7420945
424.40 0.7491746
424.50 0.7619612
424.60 0.7827046
424.70 0.8133712
424.80 0.8544603
424.90 0.9054559
425.00 0.9653733
425.10 1.032029
425.20 1.101515
425.30 1.169549
425.40 1.232579
425.50 1.287565
425.60 1.333278
425.70 1.370575
425.80 1.401438
425.90 1.429224
426.00 1.4539
426.10 1.470902
426.20 1.479853
426.30 1.481912
426.40 1.477897
426.50 1.46872
426.60 1.456988
426.70 1.44645
426.80 1.440634
426.90 1.441625
427.00 1.448304
427.10 1.456911
427.20 1.464178
427.30 1.468534
427.40 1.468534
427.50 1.468534
427.60 1.468534
427.70 1.468534
427.80 1.468534
427.90 1.469058
428.00 1.469491
428.10 1.469491
428.20 1.469491
428.30 1.469491
428.40 1.469491
428.50 1.469491
428.60 1.469491
428.70 1.469491
428.80 1.469491
428.90 1.469491
429.00 1.469491
429.10 1.469849
429.20 1.477342
429.30 1.491169
429.40 1.510184
429.50 1.534147
429.60 1.564374
429.70 1.602271
429.80 1.647276
429.90 1.698333
430.00 1.755405
430.10 1.817657
430.20 1.881939
430.30 1.943202
430.40 1.994004
430.50 2.025726
430.60 2.029342
430.70 2.020336
430.80 2.008221
430.90 1.996106
431.00 1.986111
431.10 1.979555
431.20 1.991243
431.30 2.015736
431.40 2.041204
431.50 2.058249
431.60 2.060072
431.70 2.057466
431.80 2.049013
431.90 2.032462
432.00 2.006158
432.10 1.971489
432.20 1.931753
432.30 1.89108
432.40 1.855076
432.50 1.829165
432.60 1.81702
432.70 1.81702
432.80 1.81702
432.90 1.81702
433.00 1.81702
433.10 1.81702
433.20 1.81702
433.30 1.81702
433.40 1.81702
433.50 1.81702
433.60 1.819281
433.70 1.821716
433.80 1.822215
433.90 1.819649
434.00 1.813963
434.10 1.807784
434.20 1.802915
434.30 1.798598
434.40 1.791518
434.50 1.778731
434.60 1.757988
434.70 1.727321
434.80 1.686232
434.90 1.635237
435.00 1.580012
435.10 1.521481
435.20 1.460178
435.30 1.397623
435.40 1.335491
435.50 1.280504
435.60 1.234791
435.70 1.197495
435.80 1.166632
435.90 1.138845
436.00 1.111271
436.10 1.082474
436.20 1.050855
436.30 1.014956
436.40 0.9747633
436.50 0.9314673
436.60 0.8867035
436.70 0.8422477
436.80 0.8044322
436.90 0.7771208
437.00 0.7602236
437.10 0.752302
437.20 0.750747
437.30 0.7519915
437.40 0.7519915
437.50 0.7519915
437.60 0.7519915
437.70 0.7519915
437.80 0.7519915
437.90 0.7531417
438.00 0.7618163
438.10 0.7751715
438.20 0.7887907
438.30 0.7992439
438.40 0.8033531
438.50 0.8033531
438.60 0.8033531
438.70 0.8033531
438.80 0.8033531
438.90 0.8033531
439.00 0.8033531
439.10 0.8029951
439.20 0.7955022
439.30 0.7816754
439.40 0.7626606
439.50 0.7386969
439.60 0.7084699
439.70 0.6705735
439.80 0.6255683
439.90 0.5796903
440.00 0.5407848
440.10 0.5083268
440.20 0.4815959
440.30 0.4593278
440.40 0.4422058
440.50 0.434088
440.60 0.4378359
440.70 0.4379147
440.80 0.4379147
440.90 0.4379147
441.00 0.4379147
441.10 0.4379147
441.20 0.4238465
441.30 0.399353
441.40 0.3738857
441.50 0.3568401
441.60 0.3550177
441.70 0.3550177
441.80 0.3550177
441.90 0.3550177
442.00 0.3550177
442.10 0.3561422
442.20 0.3573703
442.30 0.3573703
442.40 0.3573703
442.50 0.3573703
442.60 0.3573703
442.70 0.3573703
442.80 0.3573703
442.90 0.3588617
443.00 0.3631095
443.10 0.3685285
443.20 0.3730972
443.30 0.3746309
443.40 0.3746309
443.50 0.3746309
443.60 0.3723706
443.70 0.369935
443.80 0.3694359
443.90 0.3694359
444.00 0.3707554
444.10 0.3819787
444.20 0.4052131
444.30 0.4417607
444.40 0.4904433
444.50 0.5470343
444.60 0.6064373
444.70 0.6631602
444.80 0.7106894
444.90 0.7437598
445.00 0.7559448
445.10 0.7494381
445.20 0.7412553
445.30 0.7357754
445.40 0.7348784
445.50 0.7348784
445.60 0.7348784
445.70 0.7348784
445.80 0.7348784
445.90 0.7348784
446.00 0.7348784
446.10 0.7348784
446.20 0.7348784
446.30 0.7348784
446.40 0.7348784
446.50 0.7348784
446.60 0.7348784
446.70 0.7348784
446.80 0.7301452
446.90 0.7179648
447.00 0.7004097
447.10 0.6822908
447.20 0.668864
447.30 0.667859
447.40 0.689171
447.50 0.7256595
447.60 0.7739119
447.70 0.8295107
447.80 0.8879186
447.90 0.9433287
448.00 0.9861337
448.10 1.016568
448.20 1.037397
448.30 1.0523
448.40 1.065811
448.50 1.077602
448.60 1.085126
448.70 1.089648
448.80 1.093571
448.90 1.100096
449.00 1.111486
449.10 1.128808
449.20 1.151616
449.30 1.177402
449.40 1.202952
449.50 1.224806
449.60 1.239329
449.70 1.244748
449.80 1.244748
449.90 1.239569
450.00 1.221403
450.10 1.191608
450.20 1.154057
450.30 1.117719
450.40 1.094007
450.50 1.086763
450.60 1.096057
450.70 1.118544
450.80 1.138503
450.90 1.149678
451.00 1.149678
451.10 1.149678
451.20 1.149678
451.30 1.149678
451.40 1.149678
451.50 1.149678
451.60 1.149678
451.70 1.149678
451.80 1.149678
451.90 1.149678
452.00 1.149678
452.10 1.148554
452.20 1.147326
452.30 1.147664
452.40 1.152391
452.50 1.160409
452.60 1.169721
452.70 1.17851
452.80 1.185185
452.90 1.187368
453.00 1.184193
453.10 1.179361
453.20 1.177768
453.30 1.18393
453.40 1.197099
453.50 1.214864
453.60 1.235671
453.70 1.257659
453.80 1.280841
453.90 1.306528
454.00 1.33313
454.10 1.350389
454.20 1.354267
454.30 1.341728
454.40 1.312817
454.50 1.271509
454.60 1.224278
454.70 1.178124
454.80 1.140559
454.90 1.117639
455.00 1.111046
455.10 1.119221
455.20 1.127421
455.30 1.134042
455.40 1.141479
455.50 1.152648
455.60 1.169051
455.70 1.189722
455.80 1.211519
455.90 1.230032
456.00 1.240041
456.10 1.240041
456.20 1.240041
456.30 1.240041
456.40 1.240041
456.50 1.240041
456.60 1.240041
456.70 1.240041
456.80 1.240041
456.90 1.240041
457.00 1.240041
457.10 1.240041
457.20 1.250422
457.30 1.268123
457.40 1.277291
457.50 1.274697
457.60 1.259255
457.70 1.231905
457.80 1.195199
457.90 1.152012
458.00 1.105133
458.10 1.061343
458.20 1.026895
458.30 1.001539
458.40 0.9839193
458.50 0.9721278
458.60 0.9646043
458.70 0.9687314
458.80 0.9841623
458.90 1.007126
459.00 1.031217
459.10 1.05019
459.20 1.0598
459.30 1.058004
459.40 1.0447
459.50 1.022846
459.60 1.008323
459.70 1.002904
459.80 1.002904
459.90 1.002904
460.00 1.002904
460.10 1.002904
460.20 1.002904
460.30 1.000247
460.40 0.9902783
460.50 0.9739187
460.60 0.9531619
460.70 0.9305956
460.80 0.910637
460.90 0.8994616
461.00 0.8994616
461.10 0.8994616
461.20 0.8994616
461.30 0.8994616
461.40 0.8994616
461.50 0.8994616
461.60 0.8994616
461.70 0.8994616
461.80 0.8994616
461.90 0.8994616
462.00 0.8994616
462.10 0.8994616
462.20 0.8994616
462.30 0.8991237
462.40 0.8943962
462.50 0.8863788
462.60 0.8770668
462.70 0.8682773
462.80 0.8616024
462.90 0.8579283
463.00 0.8568546
463.10 0.856268
463.20 0.8532919
463.30 0.845597
463.40 0.8324277
463.50 0.8166159
463.60 0.8015425
463.70 0.7882289
463.80 0.7753337
463.90 0.7596783
464.00 0.7390193
464.10 0.7118774
464.20 0.6847655
464.30 0.6607571
464.40 0.6409854
464.50 0.6257021
464.60 0.6135301
464.70 0.6029616
464.80 0.6027978
464.90 0.6129208
465.00 0.6314183
465.10 0.6557425
465.20 0.6832618
465.30 0.7108315
465.40 0.7340299
465.50 0.7490649
465.60 0.7551148
465.70 0.7536358
465.80 0.747636
465.90 0.7422286
466.00 0.743894
466.10 0.7553995
466.20 0.7681382
466.30 0.7832311
466.40 0.8003285
466.50 0.8174338
466.60 0.8315028
466.70 0.8383223
466.80 0.8383223
466.90 0.8383223
467.00 0.8383223
467.10 0.8383223
467.20 0.8279413
467.30 0.8056447
467.40 0.775164
467.50 0.7412697
467.60 0.7084594
467.70 0.680211
467.80 0.6657462
467.90 0.6650834
468.00 0.6777323
468.10 0.6985609
468.20 0.7213265
468.30 0.7437846
468.40 0.7630636
468.50 0.7769849
468.60 0.7835835
468.70 0.7749339
468.80 0.7555804
468.90 0.7260911
469.00 0.6906112
469.10 0.6543155
469.20 0.6218971
469.30 0.5979075
469.40 0.5856615
469.50 0.5856615
469.60 0.5856615
469.70 0.5960308
469.80 0.6203601
469.90 0.6536719
470.00 0.6891083
470.10 0.7198705
470.20 0.7407839
470.30 0.7497545
470.40 0.7497545
470.50 0.7497545
470.60 0.7497545
470.70 0.7497545
470.80 0.7497545
470.90 0.758017
471.00 0.7784661
471.10 0.8086164
471.20 0.8442396
471.30 0.8808211
471.40 0.914527
471.50 0.9425958
471.60 0.9628688
471.70 0.9732526
471.80 0.9732526
471.90 0.9732526
472.00 0.9732526
472.10 0.9732526
472.20 0.9732526
472.30 0.9732526
472.40 0.9732526
472.50 0.9732526
472.60 0.9732526
472.70 0.9732526
472.80 0.9732526
472.90 0.9732526
473.00 0.9732526
473.10 0.9732526
473.20 0.9732526
473.30 0.9732526
473.40 0.9732526
473.50 0.9712992
473.60 0.9655654
473.70 0.9568919
473.80 0.9466044
473.90 0.9365735
474.00 0.9293104
474.10 0.9279698
474.20 0.9279698
474.30 0.9279698
474.40 0.9279698
474.50 0.9279698
474.60 0.9279698
474.70 0.9279698
474.80 0.9181692
474.90 0.8978959
475.00 0.8691139
475.10 0.8349967
475.20 0.7992774
475.30 0.7650859
475.40 0.7344509
475.50 0.7082471
475.60 0.6857937
475.70 0.6666024
475.80 0.6508051
475.90 0.6376995
476.00 0.6260253
476.10 0.6145198
476.20 0.6017811
476.30 0.589812
476.40 0.5850969
476.50 0.5921121
476.60 0.6146335
476.70 0.6553577
476.80 0.7092953
476.90 0.7619377
477.00 0.8043771
477.10 0.8299982
477.20 0.8360651
477.30 0.8360651
477.40 0.8360651
477.50 0.8360651
477.60 0.8360651
477.70 0.8360651
477.80 0.8288275
477.90 0.8155932
478.00 0.7979105
478.10 0.7799474
478.20 0.7711924
478.30 0.7748008
478.40 0.7932443
478.50 0.8256842
478.60 0.8691622
478.70 0.9166374
478.80 0.9555572
478.90 0.9824369
479.00 0.9965787
479.10 0.9992701
479.20 0.9992701
479.30 0.9992701
479.40 0.9992701
479.50 0.9992701
479.60 0.9992701
479.70 0.9889008
479.80 0.9645715
479.90 0.9340571
480.00 0.9070542
480.10 0.8899606
480.20 0.8863123
480.30 0.8949477
480.40 0.9098418
480.50 0.9206496
480.60 0.9271327
480.70 0.9298636
480.80 0.9312609
480.90 0.9273034
481.00 0.9184326
481.10 0.9102351
481.20 0.9093172
481.30 0.9228339
481.40 0.9568553
481.50 1.01417
481.60 1.093681
481.70 1.191283
481.80 1.298972
481.90 1.397062
482.00 1.4778
482.10 1.536356
482.20 1.571032
482.30 1.583504
482.40 1.583504
482.50 1.583504
482.60 1.583504
482.70 1.583504
482.80 1.583504
482.90 1.583504
483.00 1.583504
483.10 1.583504
483.20 1.583504
483.30 1.583504
483.40 1.583504
483.50 1.583504
483.60 1.583504
483.70 1.583504
483.80 1.583504
483.90 1.584864
484.00 1.589917
484.10 1.598207
484.20 1.608209
484.30 1.618362
484.40 1.626999
484.50 1.631882
484.60 1.631882
484.70 1.631882
484.80 1.631882
484.90 1.631882
485.00 1.631882
485.10 1.631882
485.20 1.631882
485.30 1.631882
485.40 1.631882
485.50 1.631882
485.60 1.631882
485.70 1.631882
485.80 1.631882
485.90 1.631882
486.00 1.631882
486.10 1.631882
486.20 1.631882
486.30 1.628758
486.40 1.616375
486.50 1.592255
486.60 1.555665
486.70 1.508121
486.80 1.454183
486.90 1.401541
487.00 1.359101
487.10 1.33348
487.20 1.327413
487.30 1.327413
487.40 1.327413
487.50 1.327413
487.60 1.327413
487.70 1.327413
487.80 1.327413
487.90 1.327413
488.00 1.327413
488.10 1.324548
488.20 1.310537
488.30 1.284471
488.40 1.246748
488.50 1.200387
488.60 1.15031
488.70 1.102835
488.80 1.063916
488.90 1.039728
489.00 1.029143
489.10 1.029397
489.20 1.031083
489.30 1.031093
489.40 1.031093
489.50 1.031093
489.60 1.032374
489.70 1.037737
489.80 1.050389
489.90 1.068699
490.00 1.088403
490.10 1.107913
490.20 1.126709
490.30 1.144956
490.40 1.162132
490.50 1.176513
490.60 1.185344
490.70 1.184793
490.80 1.183395
490.90 1.17909
491.00 1.167512
491.10 1.145559
491.20 1.110854
491.30 1.060756
491.40 0.9930286
491.50 0.9076446
491.60 0.8078614
491.70 0.6998751
491.80 0.592186
491.90 0.494096
492.00 0.4133582
492.10 0.3548019
492.20 0.3201263
492.30 0.3076539
492.40 0.3076539
492.50 0.3136076
492.60 0.3262349
492.70 0.3448644
492.80 0.3682332
492.90 0.3957822
493.00 0.4266795
493.10 0.4581925
493.20 0.4880098
493.30 0.5151413
493.40 0.539542
493.50 0.5633594
493.60 0.5901229
493.70 0.6219115
493.80 0.6577915
493.90 0.6943957
494.00 0.7269246
494.10 0.7518606
494.20 0.7663347
494.30 0.7685211
494.40 0.759884
494.50 0.7550012
494.60 0.7550012
494.70 0.7550012
494.80 0.7550012
494.90 0.7550012
495.00 0.7550012
495.10 0.7550012
495.20 0.7550012
495.30 0.7550012
495.40 0.7552368
495.50 0.7552368
495.60 0.7552368
495.70 0.7552368
495.80 0.7552368
495.90 0.7552368
496.00 0.7552368
496.10 0.7552368
496.20 0.7552368
496.30 0.7552368
496.40 0.7552368
496.50 0.7552368
496.60 0.7552368
496.70 0.7552368
496.80 0.7552368
496.90 0.7552368
497.00 0.7555918
497.10 0.757618
497.20 0.7617102
497.30 0.768675
497.40 0.7793681
497.50 0.7943216
497.60 0.8132294
497.70 0.8353025
497.80 0.8588919
497.90 0.8820264
498.00 0.9029453
498.10 0.9202042
498.20 0.9334753
498.30 0.9429958
498.40 0.9492538
498.50 0.9526213
498.60 0.9526529
498.70 0.9526529
498.80 0.9526529
498.90 0.9499601
499.00 0.9464043
499.10 0.9434586
499.20 0.9417723
499.30 0.9453711
499.40 0.9585422
499.50 0.9805043
499.60 1.006376
499.70 1.028064
499.80 1.036773
499.90 1.027428
500.00 1
500.10 0.966821
500.20 0.9307606
500.30 0.8949074
500.40 0.8628373
500.50 0.8376485
500.60 0.8223339
500.70 0.8201545
500.80 0.8201545
500.90 0.8201545
501.00 0.8201545
501.10 0.8201545
501.20 0.8201545
501.30 0.8201545
501.40 0.8201545
501.50 0.8228722
501.60 0.8328107
501.70 0.847579
501.80 0.8639668
501.90 0.8788216
502.00 0.8897058
502.10 0.8952409
502.20 0.8952409
502.30 0.8952409
502.40 0.8952409
502.50 0.8892872
502.60 0.8766599
502.70 0.8580305
502.80 0.8346616
502.90 0.8071126
503.00 0.7762153
503.10 0.7447024
503.20 0.714885
503.30 0.6877535
503.40 0.6633528
503.50 0.6395354
503.60 0.6127719
503.70 0.5809833
503.80 0.5451033
503.90 0.5071394
504.00 0.4695573
504.10 0.4363315
504.20 0.4118559
504.30 0.3995164
504.40 0.3995164
504.50 0.3995164
504.60 0.3995164
504.70 0.3995164
504.80 0.3995164
504.90 0.3995164
505.00 0.3995164
505.10 0.4018305
505.20 0.4085109
505.30 0.4157083
505.40 0.4203158
505.50 0.422153
505.60 0.422153
505.70 0.422153
505.80 0.422153
505.90 0.4239933
506.00 0.4316212
506.10 0.4469361
506.20 0.470005
506.30 0.4987903
506.40 0.5292057
506.50 0.5573074
506.60 0.5807229
506.70 0.5988968
506.80 0.6122522
506.90 0.6208
507.00 0.6243732
507.10 0.6232739
507.20 0.6191816
507.30 0.6124376
507.40 0.6019821
507.50 0.5870286
507.60 0.5681208
507.70 0.5460477
507.80 0.5224583
507.90 0.4993238
508.00 0.4784049
508.10 0.461146
508.20 0.4478749
508.30 0.4383544
508.40 0.4320964
508.50 0.4287289
508.60 0.4286973
508.70 0.4286973
508.80 0.4286973
508.90 0.4286973
509.00 0.4336003
509.10 0.4505512
509.20 0.479656
509.30 0.5158028
509.40 0.5497335
509.50 0.5771826
509.60 0.5960448
509.70 0.6062249
509.80 0.6091727
509.90 0.6068335
510.00 0.6061243
510.10 0.6061243
510.20 0.6061243
510.30 0.6061243
510.40 0.6061243
510.50 0.6061243
510.60 0.6061243
510.70 0.6061243
510.80 0.6061243
510.90 0.6061243
511.00 0.6061243
511.10 0.6126122
511.20 0.6245976
511.30 0.639155
511.40 0.6522289
511.50 0.6569763
511.60 0.6470377
511.70 0.6322695
511.80 0.6158817
511.90 0.6010269
512.00 0.5901426
512.10 0.5846075
512.20 0.5846075
512.30 0.592976
512.40 0.6128715
512.50 0.6433309
512.60 0.681484
512.70 0.7234576
512.80 0.766095
512.90 0.806463
513.00 0.8410155
513.10 0.8667584
513.20 0.8817225
513.30 0.8849848
513.40 0.8849848
513.50 0.8849848
513.60 0.8849848
513.70 0.8849848
513.80 0.8849848
513.90 0.8849848
514.00 0.8849848
514.10 0.8849848
514.20 0.8849848
514.30 0.888611
514.40 0.8986357
514.50 0.9116935
514.60 0.9244051
514.70 0.9335423
514.80 0.9362618
514.90 0.9362618
515.00 0.9362618
515.10 0.9339476
515.20 0.9272672
515.30 0.9200698
515.40 0.9152267
515.50 0.9134107
515.60 0.9141792
515.70 0.9141792
515.80 0.9141792
515.90 0.9123389
516.00 0.9050728
516.10 0.8935695
516.20 0.8786851
516.30 0.8623665
516.40 0.8480065
516.50 0.8377617
516.60 0.8309763
516.70 0.8246011
516.80 0.8159989
516.90 0.8074511
517.00 0.8035229
517.10 0.8025961
517.20 0.8025961
517.30 0.8023754
517.40 0.8021378
517.50 0.8021378
517.60 0.8021378
517.70 0.8021378
517.80 0.8021378
517.90 0.8021378
518.00 0.8021378
518.10 0.8021378
518.20 0.8021378
518.30 0.8021378
518.40 0.8021378
518.50 0.8021378
518.60 0.8021378
518.70 0.8021378
518.80 0.8021378
518.90 0.8021378
519.00 0.7972348
519.10 0.7802839
519.20 0.752564
519.30 0.7128084
519.40 0.6657067
519.50 0.6162955
519.60 0.5702808
519.70 0.5330489
519.80 0.5087402
519.90 0.4993175
520.00 0.5009082
520.10 0.5090151
520.20 0.5224082
520.30 0.5386699
520.40 0.553888
520.50 0.5642792
520.60 0.5677773
520.70 0.5677773
520.80 0.5677773
520.90 0.5677773
521.00 0.5677773
521.10 0.5680721
521.20 0.5712576
521.30 0.5786199
521.40 0.5908952
521.50 0.6073031
521.60 0.6244249
521.70 0.6313284
521.80 0.6313284
521.90 0.6313284
522.00 0.6313284
522.10 0.6313284
522.20 0.6313284
522.30 0.6229599
522.40 0.6057054
522.50 0.5821163
522.60 0.5537876
522.70 0.5230671
522.80 0.4912967
522.90 0.4602438
523.00 0.433835
523.10 0.4163153
523.20 0.4104404
523.30 0.4179965
523.40 0.4314127
523.50 0.447893
523.60 0.4683539
523.70 0.4932053
523.80 0.5208511
523.90 0.5481883
524.00 0.5713057
524.10 0.5866596
524.20 0.5920182
524.30 0.5883921
524.40 0.5783674
524.50 0.5653096
524.60 0.552598
524.70 0.5434608
524.80 0.5407413
524.90 0.5407413
525.00 0.5407413
525.10 0.5407413
525.20 0.5407413
525.30 0.5407413
525.40 0.5407413
525.50 0.5444391
525.60 0.551549
525.70 0.5640244
525.80 0.5813696
525.90 0.6029342
526.00 0.6260248
526.10 0.6436446
526.20 0.6504796
526.30 0.6425965
526.40 0.6265411
526.50 0.6086842
526.60 0.5920541
526.70 0.5802554
526.80 0.5755022
526.90 0.5755022
527.00 0.5755022
527.10 0.5755022
527.20 0.5755022
527.30 0.5772758
527.40 0.5822024
527.50 0.5864246
527.60 0.5864246
527.70 0.5864246
527.80 0.5864246
527.90 0.5864246
528.00 0.5864246
528.10 0.5864246
528.20 0.5864246
528.30 0.5864246
528.40 0.5864246
528.50 0.5864246
528.60 0.5864246
528.70 0.5864246
528.80 0.5864246
528.90 0.5864246
529.00 0.5864246
529.10 0.5864246
529.20 0.5850397
529.30 0.5850397
529.40 0.5850397
529.50 0.5850397
529.60 0.5850397
529.70 0.5850397
529.80 0.5850397
529.90 0.5850397
530.00 0.583449
530.10 0.5753421
530.20 0.5619491
530.30 0.5456873
530.40 0.5304692
530.50 0.5200781
530.60 0.51658
530.70 0.51658
530.80 0.51658
530.90 0.51658
531.00 0.5166912
531.10 0.5101716
531.20 0.4950007
531.30 0.4730811
531.40 0.4477319
531.50 0.4238589
531.60 0.4067371
531.70 0.3998337
531.80 0.3998337
531.90 0.3998337
532.00 0.3998337
532.10 0.401968
532.20 0.413988
532.30 0.431599
532.40 0.4466481
532.50 0.4530288
532.60 0.448647
532.70 0.4373938
532.80 0.4265268
532.90 0.4172118
533.00 0.4090681
533.10 0.4045138
533.20 0.4076744
533.30 0.4150425
533.40 0.4224074
533.50 0.4257924
533.60 0.4206408
533.70 0.4045588
533.80 0.3788066
533.90 0.3514695
534.00 0.328352
534.10 0.3129981
534.20 0.3076395
534.30 0.3076395
534.40 0.3076395
534.50 0.3076395
534.60 0.3076395
534.70 0.3076395
534.80 0.3076395
534.90 0.3076395
535.00 0.3076395
535.10 0.3076395
535.20 0.3076395
535.30 0.3076395
535.40 0.3076395
535.50 0.3039205
535.60 0.2960422
535.70 0.2835667
535.80 0.2662215
535.90 0.2446569
536.00 0.2212046
536.10 0.1997732
536.20 0.1847536
536.30 0.18017
536.40 0.18017
536.50 0.18017
536.60 0.18017
536.70 0.18017
536.80 0.18017
536.90 0.18017
537.00 0.18017
537.10 0.18017
537.20 0.18017
537.30 0.1783964
537.40 0.1734698
537.50 0.1692476
537.60 0.1692476
537.70 0.1692476
537.80 0.178851
537.90 0.1966792
538.00 0.2206534
538.10 0.2485155
538.20 0.2771798
538.30 0.3034835
538.40 0.3254592
538.50 0.3423481
538.60 0.354072
538.70 0.3605848
538.80 0.3622592
538.90 0.3622592
539.00 0.3622592
539.10 0.365284
539.20 0.3746453
539.30 0.3903439
539.40 0.4102258
539.50 0.4312886
539.60 0.4503137
539.70 0.4643518
539.80 0.470584
539.90 0.470584
540.00 0.470584
540.10 0.470584
540.20 0.470584
540.30 0.470584
540.40 0.470584
540.50 0.4738856
540.60 0.4824061
540.70 0.4925997
540.80 0.5005117
540.90 0.5034102
541.00 0.503299
541.10 0.5030357
541.20 0.5030357
541.30 0.5030357
541.40 0.5046008
541.50 0.5154711
541.60 0.5347724
541.70 0.5595131
541.80 0.5855727
541.90 0.6083125
542.00 0.6236926
542.10 0.6269632
542.20 0.6149432
542.30 0.5973322
542.40 0.5796421
542.50 0.5663911
542.60 0.5609485
542.70 0.5609485
542.80 0.5609485
542.90 0.5609485
543.00 0.5659884
543.10 0.5758694
543.20 0.5827068
543.30 0.5858423
543.40 0.5858871
543.50 0.5840159
543.60 0.5813279
543.70 0.5774982
543.80 0.5756045
543.90 0.5756045
544.00 0.5756045
544.10 0.5756045
544.20 0.5756045
544.30 0.5756045
544.40 0.5756045
544.50 0.5756045
544.60 0.5756045
544.70 0.5756045
544.80 0.5756045
544.90 0.5756045
545.00 0.5756045
545.10 0.5756045
545.20 0.5756045
545.30 0.5756045
545.40 0.5756045
545.50 0.5756045
545.60 0.5756045
545.70 0.5756045
545.80 0.5756045
545.90 0.5756045
546.00 0.5756045
546.10 0.5756045
546.20 0.5756045
546.30 0.5756045
546.40 0.5756045
546.50 0.5756045
546.60 0.5756045
546.70 0.5756045
546.80 0.5756045
546.90 0.5759524
547.00 0.5814849
547.10 0.5920862
547.20 0.6069583
547.30 0.6250996
547.40 0.6457488
547.50 0.6683595
547.60 0.6923775
547.70 0.7171572
547.80 0.7325489
547.90 0.7396606
548.00 0.740169
548.10 0.7360335
548.20 0.7305885
548.30 0.7272249
548.40 0.7280428
548.50 0.7339352
548.60 0.7457793
548.70 0.7650842
548.80 0.7921259
548.90 0.8227442
549.00 0.8531794
549.10 0.8779253
549.20 0.8917475
549.30 0.8941058
549.40 0.887437
549.50 0.8746534
549.60 0.8584892
549.70 0.844451
549.80 0.8382189
549.90 0.8382189
550.00 0.2905511
550.10 0.2831796
550.20 0.272642
550.30 0.2646903
550.40 0.2642485
550.50 0.2757901
550.60 0.3042817
550.70 0.3538817
550.80 0.4163697
550.90 0.4787192
551.00 0.5399258
551.10 0.5992423
551.20 0.6572906
551.30 0.7146408
551.40 0.7716248
551.50 0.8285781
551.60 0.8874979
551.70 0.9520421
551.80 1.023833
551.90 1.100378
552.00 1.176466
552.10 1.245893
552.20 1.303852
552.30 1.348994
552.40 1.382027
552.50 1.402725
552.60 1.409877
552.70 1.409877
552.80 1.409877
552.90 1.409877
553.00 1.409877
553.10 1.409877
553.20 1.409877
553.30 1.409877
553.40 1.409877
553.50 1.409877
553.60 1.409877
553.70 1.409877
553.80 1.409877
553.90 1.409007
554.00 1.395176
554.10 1.368673
554.20 1.331493
554.30 1.31085
554.40 1.31167
554.50 1.330672
554.60 1.358805
554.70 1.385939
554.80 1.404749
554.90 1.411226
555.00 1.407159
555.10 1.39815
555.20 1.403318
555.30 1.447881
555.40 1.530144
555.50 1.657615
555.60 1.858948
555.70 2.146633
555.80 2.517152
555.90 2.955225
556.00 3.436459
556.10 3.928651
556.20 4.395453
556.30 4.803848
556.40 5.130007
556.50 5.368242
556.60 5.52208
556.70 5.596608
556.80 5.628094
556.90 5.648617
557.00 5.65907
557.10 5.660383
557.20 5.660383
557.30 5.660383
557.40 5.660383
557.50 5.662591
557.60 5.676438
557.70 5.706811
557.80 5.76044
557.90 5.844495
558.00 5.960613
558.10 6.106512
558.20 6.28003
558.30 6.453493
558.40 6.618258
558.50 6.771683
558.60 6.91412
558.70 7.043834
558.80 7.156955
558.90 7.25049
559.00 7.321268
559.10 7.366728
559.20 7.370866
559.30 7.313253
559.40 7.204757
559.50 7.047372
559.60 6.815343
559.70 6.492962
559.80 6.080702
559.90 5.594331
560.00 5.062542
560.10 4.524257
560.20 4.021397
560.30 3.589462
560.40 3.252977
560.50 3.018834
560.60 2.884669
560.70 2.836502
560.80 2.825824
560.90 2.81456
561.00 2.804107
561.10 2.802794
561.20 2.802794
561.30 2.802794
561.40 2.802794
561.50 2.800586
561.60 2.788942
561.70 2.768198
561.80 2.728983
561.90 2.661785
562.00 2.565516
562.10 2.444903
562.20 2.306109
562.30 2.155238
562.40 1.994348
562.50 1.820983
562.60 1.633969
562.70 1.438479
562.80 1.244186
562.90 1.081825
563.00 0.9539072
563.10 0.8581395
563.20 0.7907849
563.30 0.7478668
563.40 0.7345496
563.50 0.7353252
563.60 0.7370575
563.70 0.7313126
563.80 0.7165361
563.90 0.6963822
564.00 0.6754645
564.10 0.6573908
564.20 0.6441578
564.30 0.633759
564.40 0.6201522
564.50 0.5969372
564.60 0.5701122
564.70 0.543751
564.80 0.5229431
564.90 0.5136841
565.00 0.5136841
565.10 0.5297802
565.20 0.5614072
565.30 0.6011991
565.40 0.6384095
565.50 0.6632743
565.60 0.6693523
565.70 0.6597229
565.80 0.6453091
565.90 0.6284527
566.00 0.6086031
566.10 0.5977216
566.20 0.6092206
566.30 0.6389962
566.40 0.6862229
566.50 0.7552061
566.60 0.8509326
566.70 0.9759948
566.80 1.127713
566.90 1.278282
567.00 1.423198
567.10 1.559079
567.20 1.68554
567.30 1.801587
567.40 1.89248
567.50 1.967595
567.60 2.045616
567.70 2.147542
567.80 2.283227
567.90 2.448365
568.00 2.628824
568.10 2.804906
568.20 2.95892
568.30 3.080025
568.40 3.164127
568.50 3.212569
568.60 3.222266
568.70 3.222266
568.80 3.222266
568.90 3.222266
569.00 3.222266
569.10 3.20617
569.20 3.189886
569.30 3.180678
569.40 3.184713
569.50 3.20443
569.60 3.235123
569.70 3.259243
569.80 3.261329
569.90 3.261329
570.00 3.261329
570.10 3.246925
570.20 3.200703
570.30 3.123624
570.40 3.02008
570.50 2.895507
570.60 2.756179
570.70 2.60781
570.80 2.462615
570.90 2.336356
571.00 2.233801
571.10 2.155985
571.20 2.10118
571.30 2.066912
571.40 2.047645
571.50 2.030844
571.60 1.997399
571.70 1.926632
571.80 1.806979
571.90 1.642887
572.00 1.457813
572.10 1.276472
572.20 1.113789
572.30 0.9814811
572.40 0.8882785
572.50 0.8382622
572.60 0.828565
572.70 0.828565
572.80 0.828565
572.90 0.828565
573.00 0.828565
573.10 0.828565
573.20 0.8132215
573.30 0.7826381
573.40 0.7413926
573.50 0.6968104
573.60 0.6578367
573.70 0.6337165
573.80 0.63163
573.90 0.63163
574.00 0.6382821
574.10 0.6520175
574.20 0.6696834
574.30 0.688436
574.40 0.7061558
574.50 0.7213587
574.60 0.7328737
574.70 0.7397565
574.80 0.7352853
574.90 0.7109748
575.00 0.668614
575.10 0.6105489
575.20 0.5431591
575.30 0.4729587
575.40 0.407249
575.50 0.3547968
575.60 0.3228564
575.70 0.3182177
575.80 0.3457228
575.90 0.4032376
576.00 0.4755073
576.10 0.5501921
576.20 0.6228943
576.30 0.6878748
576.40 0.7409634
576.50 0.7793874
576.60 0.799901
576.70 0.8010723
576.80 0.8010723
576.90 0.8010723
577.00 0.8010723
577.10 0.8010723
577.20 0.8010723
577.30 0.8010723
577.40 0.8010723
577.50 0.8049388
577.60 0.8150299
577.70 0.8321214
577.80 0.857732
577.90 0.8926469
578.00 0.9323313
578.10 0.979659
578.20 1.039056
578.30 1.110758
578.40 1.191466
578.50 1.275975
578.60 1.358468
578.70 1.433898
578.80 1.49704
578.90 1.542102
579.00 1.566544
579.10 1.571372
579.20 1.567106
579.30 1.554145
579.40 1.530795
579.50 1.497118
579.60 1.454526
579.70 1.403903
579.80 1.345092
579.90 1.278438
580.00 1.206168
580.10 1.131483
580.20 1.058781
580.30 0.9938006
580.40 0.940712
580.50 0.9022881
580.60 0.8817744
580.70 0.8806031
580.80 0.8806031
580.90 0.8806031
581.00 0.8806031
581.10 0.8806031
581.20 0.8832056
581.30 0.9112214
581.40 0.9575731
581.50 1.009196
581.60 1.052339
581.70 1.075475
581.80 1.070139
581.90 1.035955
582.00 0.9896182
582.10 0.9285551
582.20 0.8514924
582.30 0.7704513
582.40 0.6889146
582.50 0.608117
582.60 0.5318511
582.70 0.4660522
582.80 0.415753
582.90 0.3840965
583.00 0.3728184
583.10 0.3828633
583.20 0.4020893
583.30 0.4261843
583.40 0.4517819
583.50 0.4751885
583.60 0.4948258
583.70 0.5132326
583.80 0.5379895
583.90 0.5806548
584.00 0.6523186
584.10 0.7585299
584.20 0.8973001
584.30 1.058386
584.40 1.225907
584.50 1.381632
584.60 1.509192
584.70 1.599575
584.80 1.654714
584.90 1.684858
585.00 1.703527
585.10 1.724235
585.20 1.753256
585.30 1.767172
585.40 1.76357
585.50 1.737424
585.60 1.686378
585.70 1.64615
585.80 1.625876
585.90 1.625146
586.00 1.625146
586.10 1.625146
586.20 1.625146
586.30 1.615732
586.40 1.59884
586.50 1.579926
586.60 1.562185
586.70 1.545671
586.80 1.530651
586.90 1.517245
587.00 1.504081
587.10 1.489209
587.20 1.469983
587.30 1.445888
587.40 1.42029
587.50 1.396883
587.60 1.377246
587.70 1.358839
587.80 1.334082
587.90 1.291417
588.00 1.219753
588.10 1.120327
588.20 0.9994543
588.30 0.8528275
588.40 0.6853065
588.50 0.529581
588.60 0.4020206
588.70 0.3116382
588.80 0.2564986
588.90 0.2263547
589.00 0.2076863
589.10 0.1869781
589.20 0.1557186
589.30 0.1305485
589.40 0.1122824
589.50 0.1052432
589.60 0.1150916
589.70 0.1150916
589.80 0.1150916
589.90 0.1150916
590.00 0.1150916
590.10 0.1150916
590.20 0.1150916
590.30 0.1150916
590.40 0.1222598
590.50 0.1644602
590.60 0.2404166
590.70 0.3408231
590.80 0.4487534
590.90 0.5437016
591.00 0.6071151
591.10 0.6266494
591.20 0.6266494
591.30 0.6266494
591.40 0.6266494
591.50 0.6266494
591.60 0.6266494
591.70 0.6266494
591.80 0.6266494
591.90 0.6266494
592.00 0.6266494
592.10 0.6198643
592.20 0.6019669
592.30 0.5875083
592.40 0.5875083
592.50 0.5875083
592.60 0.5875083
592.70 0.5892272
592.80 0.595769
592.90 0.6005983
593.00 0.6005983
593.10 0.6005983
593.20 0.6002339
593.30 0.5834725
593.40 0.5589885
593.50 0.5366848
593.60 0.5246479
593.70 0.5246479
593.80 0.5246479
593.90 0.5246479
594.00 0.5246479
594.10 0.5246479
594.20 0.5246479
594.30 0.5246479
594.40 0.5174797
594.50 0.4752793
594.60 0.3993229
594.70 0.2989164
594.80 0.1909861
594.90 0.09603786
595.00 0.03262442
595.10 0.01309007
595.20 0.01309007
595.30 0.01309007
595.40 0.01309007
595.50 0.02388545
595.60 0.04184683
595.70 0.0630502
595.80 0.08400268
595.90 0.1019717
596.00 0.1171572
596.10 0.13244
596.20 0.1524823
596.30 0.181992
596.40 0.2219325
596.50 0.2688401
596.60 0.3175917
596.70 0.3613526
596.80 0.3921163
596.90 0.4133389
597.00 0.4276347
597.10 0.4304417
597.20 0.4304417
597.30 0.4304417
597.40 0.4304417
597.50 0.4304417
597.60 0.4304417
597.70 0.4304417
597.80 0.4486313
597.90 0.4859999
598.00 0.5346401
598.10 0.585936
598.20 0.6342603
598.30 0.6758609
598.40 0.7080749
598.50 0.7319916
598.60 0.7535252
598.70 0.7809565
598.80 0.8219403
598.90 0.8810962
599.00 0.9563312
599.10 1.04034
599.20 1.125143
599.30 1.204689
599.40 1.275311
599.50 1.322407
599.60 1.34518
599.70 1.343943
599.80 1.32299
599.90 1.305021
600.00 1.94561
600.10 2.051834
600.20 1.932971
600.30 1.664027
600.40 1.288558
600.50 0.9566681
600.60 0.8613442
600.70 1.097252
600.80 1.639351
600.90 2.366238
601.00 3.009399
601.10 3.360351
601.20 3.392129
601.30 3.181816
601.40 2.824881
601.50 2.315672
601.60 1.629359
601.70 0.7986494
601.80 0
601.90 0
602.00 0
602.10 0
602.20 0
602.30 0
602.40 0
602.50 0
602.60 0
602.70 0
602.80 0
602.90 0
603.00 0
603.10 1.037736
603.20 2.263256
603.30 3.373039
603.40 4.252594
603.50 4.71614
603.60 4.643732
603.70 4.118819
603.80 3.403758
603.90 2.773723
604.00 2.403163
604.10 2.356685
604.20 2.642486
604.30 3.192739
604.40 3.768849
604.50 4.074785
604.60 3.9388
604.70 3.358206
604.80 2.466777
604.90 1.516082
605.00 0.7568333
605.10 0.2985012
605.20 0.06560181
605.30 0
605.40 0
605.50 0.03904437
605.60 0.1146847
605.70 0.2442076
605.80 0.5240977
605.90 0.9661751
606.00 1.513141
606.10 2.083481
606.20 2.581854
606.30 2.898386
606.40 2.953413
606.50 2.799962
606.60 2.580318
606.70 2.399229
606.80 2.265875
606.90 2.148697
607.00 2.051958
607.10 2.011181
607.20 2.06666
607.30 2.263713
607.40 2.619379
607.50 3.100944
607.60 3.667141
607.70 4.265733
607.80 4.867291
607.90 5.424798
608.00 5.849742
608.10 6.03625
608.20 5.902379
608.30 5.461579
608.40 4.804514
608.50 3.984733
608.60 3.051539
608.70 2.157541
608.80 1.507525
608.90 1.24155
609.00 1.375422
609.10 1.812971
609.20 2.328889
609.30 2.652071
609.40 2.610983
609.50 2.276002
609.60 1.853736
609.70 1.469072
609.80 1.150535
609.90 0.996877
610.00 1.11672
610.10 1.469576
610.20 1.910405
610.30 2.287507
610.40 2.528918
610.50 2.634026
610.60 2.719106
610.70 2.947916
610.80 3.397235
610.90 3.95193
611.00 4.408288
611.10 4.66775
611.20 4.728982
611.30 4.584845
611.40 4.240758
611.50 3.740546
611.60 3.161097
611.70 2.60994
611.80 2.173658
611.90 1.963065
612.00 2.011731
612.10 2.23335
612.20 2.484914
612.30 2.666191
612.40 2.733814
612.50 2.612906
612.60 2.271767
612.70 1.773399
612.80 1.218061
612.90 0.7351511
613.00 0.4836101
613.10 0.5964577
613.20 1.099262
613.30 1.818591
613.40 2.491062
613.50 2.919637
613.60 3.017996
613.70 2.806785
613.80 2.406811
613.90 1.992759
614.00 1.685914
614.10 1.527956
614.20 1.531267
614.30 1.652881
614.40 1.817044
614.50 1.976537
614.60 2.123995
614.70 2.321975
614.80 2.640754
614.90 3.105377
615.00 3.710528
615.10 4.371843
615.20 4.925491
615.30 5.236429
615.40 5.262103
615.50 5.057419
615.60 4.726472
615.70 4.390281
615.80 4.119694
615.90 3.915116
616.00 3.765588
616.10 3.643473
616.20 3.512213
616.30 3.367271
616.40 3.223046
616.50 3.126785
616.60 3.226539
616.70 3.609924
616.80 4.211944
616.90 4.930671
617.00 5.633492
617.10 6.177563
617.20 6.484728
617.30 6.561338
617.40 6.448922
617.50 6.189175
617.60 5.832382
617.70 5.379563
617.80 4.85263
617.90 4.333451
618.00 3.807583
618.10 3.2737
618.20 2.819086
618.30 2.48306
618.40 2.273654
618.50 2.188266
618.60 2.17079
618.70 2.099099
618.80 1.869129
618.90 1.501088
619.00 1.108025
619.10 0.8370357
619.20 0.7417235
619.30 0.7517401
619.40 0.7469362
619.50 0.6479372
619.60 0.4858024
619.70 0.3822724
619.80 0.4277574
619.90 0.6120186
620.00 0.8904162
620.10 1.224553
620.20 1.584805
620.30 1.896931
620.40 2.073266
620.50 2.055547
620.60 1.904216
620.70 1.779743
620.80 1.811718
620.90 2.056307
621.00 2.469561
621.10 2.859495
621.20 3.05223
621.30 3.033975
621.40 2.866013
621.50 2.615163
621.60 2.338523
621.70 2.108975
621.80 1.975595
621.90 1.9857
622.00 2.110567
622.10 2.223584
622.20 2.284075
622.30 2.309259
622.40 2.291457
622.50 2.253062
622.60 2.218214
622.70 2.175024
622.80 2.162594
622.90 2.261486
623.00 2.502646
623.10 2.838118
623.20 3.171695
623.30 3.415174
623.40 3.531701
623.50 3.533212
623.60 3.411229
623.70 3.143075
623.80 2.754255
623.90 2.319597
624.00 1.961727
624.10 1.811401
624.20 1.879254
624.30 2.080452
624.40 2.30471
624.50 2.44145
624.60 2.414449
624.70 2.209832
624.80 1.888033
624.90 1.532971
625.00 1.190206
625.10 0.9016273
625.20 0.731274
625.30 0.7180017
625.40 0.8571123
625.50 1.111051
625.60 1.451664
625.70 1.828136
625.80 2.157874
625.90 2.37237
626.00 2.49039
626.10 2.573981
626.20 2.65636
626.30 2.792048
626.40 3.046429
626.50 3.412086
626.60 3.773296
626.70 4.017742
626.80 4.086242
626.90 3.913201
627.00 3.445492
627.10 2.753093
627.20 2.031942
627.30 1.497608
627.40 1.264249
627.50 1.321828
627.60 1.603501
627.70 1.99247
627.80 2.383194
627.90 2.702922
628.00 2.950202
628.10 3.167392
628.20 3.361595
628.30 3.577646
628.40 3.878302
628.50 4.262757
628.60 4.688192
628.70 5.065496
628.80 5.29367
628.90 5.341217
629.00 5.192512
629.10 4.848153
629.20 4.361295
629.30 3.818554
629.40 3.308278
629.50 2.971685
629.60 2.991755
629.70 3.41902
629.80 4.105694
629.90 4.842128
630.00 5.455879
630.10 5.848897
630.20 6.016352
630.30 5.966472
630.40 5.743128
630.50 5.356268
630.60 4.820355
630.70 4.272963
630.80 3.877711
630.90 3.716367
631.00 3.774775
631.10 4.009363
631.20 4.42403
631.30 4.98301
631.40 5.535255
631.50 5.904178
631.60 6.000355
631.70 5.86753
631.80 5.590975
631.90 5.301159
632.00 5.131802
632.10 5.183332
632.20 5.513689
632.30 6.022535
632.40 6.481739
632.50 6.687052
632.60 6.528624
632.70 6.021257
632.80 5.330914
632.90 4.695438
633.00 4.24657
633.10 3.956432
633.20 3.76746
633.30 3.704194
633.40 3.798182
633.50 3.987709
633.60 4.183099
633.70 4.3549
633.80 4.521857
633.90 4.69674
634.00 4.893877
634.10 5.108475
634.20 5.265179
634.30 5.31299
634.40 5.284075
634.50 5.25684
634.60 5.338236
634.70 5.556078
634.80 5.859834
634.90 6.151844
635.00 6.332425
635.10 6.32652
635.20 6.063609
635.30 5.540942
635.40 4.824518
635.50 4.043418
635.60 3.393463
635.70 3.040028
635.80 3.070292
635.90 3.516419
636.00 4.285537
636.10 5.199497
636.20 6.167656
636.30 7.15528
636.40 8.023138
636.50 8.61243
636.60 8.871877
636.70 8.82212
636.80 8.498246
636.90 7.921878
637.00 7.132194
637.10 6.260109
637.20 5.454643
637.30 4.814616
637.40 4.510767
637.50 4.696253
637.60 5.265413
637.70 5.953263
637.80 6.530665
637.90 6.817405
638.00 6.719687
638.10 6.256216
638.20 5.563057
638.30 4.875247
638.40 4.418272
638.50 4.29165
638.60 4.518768
638.70 5.053813
638.80 5.709257
638.90 6.267173
639.00 6.622285
639.10 6.784994
639.20 6.829666
639.30 6.845191
639.40 6.85893
639.50 6.833409
639.60 6.711671
639.70 6.441081
639.80 6.026541
639.90 5.542873
640.00 5.07775
640.10 4.730651
640.20 4.592118
640.30 4.696213
640.40 5.005859
640.50 5.42586
640.60 5.843971
640.70 6.142087
640.80 6.260196
640.90 6.257027
641.00 6.216666
641.10 6.193487
641.20 6.211541
641.30 6.258716
641.40 6.296771
641.50 6.266768
641.60 6.147475
641.70 6.00249
641.80 5.881214
641.90 5.766575
642.00 5.626315
642.10 5.437985
642.20 5.206064
642.30 4.92749
642.40 4.609575
642.50 4.292571
642.60 4.028201
642.70 3.868603
642.80 3.897147
642.90 4.20172
643.00 4.74965
643.10 5.362928
643.20 5.874962
643.30 6.184752
643.40 6.216613
643.50 5.979198
643.60 5.508476
643.70 4.856013
643.80 4.157065
643.90 3.578269
644.00 3.260107
644.10 3.266982
644.20 3.570913
644.30 4.105338
644.40 4.793927
644.50 5.559295
644.60 6.282694
644.70 6.857494
644.80 7.298557
644.90 7.637962
645.00 7.924069
645.10 8.202533
645.20 8.430949
645.30 8.534416
645.40 8.436
645.50 8.118674
645.60 7.634045
645.70 7.044793
645.80 6.463839
645.90 6.012126
646.00 5.757485
646.10 5.744608
646.20 5.955646
646.30 6.370404
646.40 6.920332
646.50 7.475027
646.60 7.920624
646.70 8.145949
646.80 8.150742
646.90 8.006937
647.00 7.749648
647.10 7.417951
647.20 7.035624
647.30 6.607635
647.40 6.206103
647.50 5.92383
647.60 5.797445
647.70 5.761365
647.80 5.741899
647.90 5.74086
648.00 5.768132
648.10 5.86185
648.20 5.98792
648.30 6.081693
648.40 6.176445
648.50 6.343653
648.60 6.662079
648.70 7.176014
648.80 7.836487
648.90 8.545443
649.00 9.170674
649.10 9.578972
649.20 9.720388
649.30 9.628344
649.40 9.462357
649.50 9.415255
649.60 9.603783
649.70 10.03372
649.80 10.58329
649.90 11.06278
650.00 11.26336
650.10 11.01361
650.20 10.27455
650.30 9.128738
650.40 7.785759
650.50 6.565095
650.60 5.72206
650.70 5.403687
650.80 5.59804
650.90 6.142414
651.00 6.857638
651.10 7.596847
651.20 8.247326
651.30 8.709254
651.40 8.928588
651.50 8.967151
651.60 8.939933
651.70 8.948501
651.80 9.047022
651.90 9.211024
652.00 9.40793
652.10 9.578497
652.20 9.635227
652.30 9.539682
652.40 9.303691
652.50 8.996114
652.60 8.726392
652.70 8.611416
652.80 8.702668
652.90 8.958362
653.00 9.314607
653.10 9.701965
653.20 10.06219
653.30 10.35418
653.40 10.57744
653.50 10.75551
653.60 10.86426
653.70 10.83849
653.80 10.63959
653.90 10.28764
654.00 9.794402
654.10 9.188287
654.20 8.632863
654.30 8.333601
654.40 8.356234
654.50 8.621979
654.60 8.998421
654.70 9.388875
654.80 9.696886
654.90 9.843262
655.00 9.842038
655.10 9.762844
655.20 9.654013
655.30 9.514433
655.40 9.375456
655.50 9.30552
655.60 9.308049
655.70 9.366842
655.80 9.536955
655.90 9.905213
656.00 10.49402
656.10 11.22294
656.20 11.9442
656.30 12.49692
656.40 12.78748
656.50 12.80355
656.60 12.59116
656.70 12.2081
656.80 11.70121
656.90 11.13616
657.00 10.57055
657.10 10.02631
657.20 9.527245
657.30 9.120892
657.40 8.837922
657.50 8.762483
657.60 8.994796
657.70 9.500483
657.80 10.12863
657.90 10.72385
658.00 11.16674
658.10 11.3611
658.20 11.27691
658.30 10.92251
658.40 10.36565
658.50 9.762103
658.60 9.244425
658.70 8.895361
658.80 8.804563
658.90 8.97222
659.00 9.286946
659.10 9.637868
659.20 9.92789
659.30 10.09281
659.40 10.15479
659.50 10.18283
659.60 10.22524
659.70 10.31357
659.80 10.4976
659.90 10.80255
660.00 11.21413
660.10 11.63934
660.20 11.90714
660.30 11.86933
660.40 11.47774
660.50 10.82269
660.60 10.07369
660.70 9.411433
660.80 8.958952
660.90 8.791616
661.00 8.917164
661.10 9.27186
661.20 9.724326
661.30 10.12911
661.40 10.37331
661.50 10.42072
661.60 10.34259
661.70 10.24719
661.80 10.22678
661.90 10.30248
662.00 10.4394
662.10 10.57096
662.20 10.60667
662.30 10.48831
662.40 10.26188
662.50 10.0423
662.60 9.929061
662.70 9.951647
662.80 10.09707
662.90 10.3454
663.00 10.64192
663.10 10.92213
663.20 11.15124
663.30 11.32707
663.40 11.47957
663.50 11.64598
663.60 11.86781
663.70 12.17454
663.80 12.54637
663.90 12.90306
664.00 13.13868
664.10 13.22531
664.20 13.21458
664.30 13.15365
664.40 13.08245
664.50 12.99573
664.60 12.82333
664.70 12.5162
664.80 12.08361
664.90 11.57268
665.00 11.06161
665.10 10.66892
665.20 10.5005
665.30 10.60991
665.40 11.01665
665.50 11.65641
665.60 12.37334
665.70 13.0187
665.80 13.52533
665.90 13.88431
666.00 14.11022
666.10 14.22795
666.20 14.25813
666.30 14.21588
666.40 14.10886
666.50 13.92561
666.60 13.65353
666.70 13.31756
666.80 13.0161
666.90 12.90215
667.00 13.12059
667.10 13.73663
667.20 14.61952
667.30 15.50529
667.40 16.16847
667.50 16.46616
667.60 16.36205
667.70 15.92527
667.80 15.27833
667.90 14.57258
668.00 13.97609
668.10 13.64325
668.20 13.62705
668.30 13.8576
668.40 14.20398
668.50 14.54419
668.60 14.81172
668.70 15.00157
668.80 15.14688
668.90 15.32076
669.00 15.59318
669.10 15.95222
669.20 16.34376
669.30 16.70312
669.40 16.95234
669.50 17.01383
669.60 16.83974
669.70 16.43183
669.80 15.81135
669.90 14.99591
670.00 14.05464
670.10 13.09577
670.20 12.21191
670.30 11.43192
670.40 10.7176
670.50 10.08474
670.60 9.60654
670.70 9.335712
670.80 9.292138
670.90 9.495111
671.00 9.9311
671.10 10.51685
671.20 11.15583
671.30 11.77266
671.40 12.29993
671.50 12.69437
671.60 12.96265
671.70 13.1582
671.80 13.35728
671.90 13.59774
672.00 13.89204
672.10 14.27222
672.20 14.74693
672.30 15.24219
672.40 15.6457
672.50 15.89229
672.60 15.96651
672.70 15.85953
672.80 15.59906
672.90 15.28241
673.00 15.00087
673.10 14.79121
673.20 14.66222
673.30 14.61943
673.40 14.66961
673.50 14.78939
673.60 14.91124
673.70 14.9642
673.80 14.90777
673.90 14.77032
674.00 14.6266
674.10 14.53943
674.20 14.59282
674.30 14.86776
674.40 15.39792
674.50 16.1903
674.60 17.18154
674.70 18.21241
674.80 19.05159
674.90 19.46226
675.00 19.36553
675.10 18.86205
675.20 18.14183
675.30 17.35414
675.40 16.59606
675.50 16.01611
675.60 15.71314
675.70 15.66884
675.80 15.7979
675.90 15.94764
676.00 15.97562
676.10 15.87263
676.20 15.70585
676.30 15.5382
676.40 15.38714
676.50 15.22676
676.60 15.03136
676.70 14.82495
676.80 14.71034
676.90 14.77253
677.00 15.01584
677.10 15.40161
677.20 15.86988
677.30 16.37811
677.40 16.90693
677.50 17.42816
677.60 17.90616
677.70 18.28467
677.80 18.546
677.90 18.74915
678.00 18.97274
678.10 19.23701
678.20 19.46463
678.30 19.5748
678.40 19.54972
678.50 19.39532
678.60 19.1055
678.70 18.67039
678.80 18.09865
678.90 17.40838
679.00 16.64746
679.10 15.92145
679.20 15.34394
679.30 15.00876
679.40 14.99101
679.50 15.27014
679.60 15.73418
679.70 16.2317
679.80 16.59986
679.90 16.74373
680.00 16.6938
680.10 16.55979
680.20 16.43514
680.30 16.32333
680.40 16.1774
680.50 15.98577
680.60 15.71432
680.70 15.29393
680.80 14.68234
680.90 13.97324
681.00 13.36072
681.10 12.99663
681.20 12.943
681.30 13.18222
681.40 13.63236
681.50 14.18473
681.60 14.75209
681.70 15.26448
681.80 15.66504
681.90 15.88405
682.00 15.89432
682.10 15.70395
682.20 15.32184
682.30 14.75343
682.40 14.02203
682.50 13.16819
682.60 12.30424
682.70 11.6036
682.80 11.14648
682.90 10.90634
683.00 10.81556
683.10 10.86191
683.20 11.08817
683.30 11.4838
683.40 11.9899
683.50 12.58436
683.60 13.2173
683.70 13.78292
683.80 14.19344
683.90 14.48359
684.00 14.75265
684.10 15.0296
684.20 15.31322
684.30 15.59252
684.40 15.85442
684.50 16.03734
684.60 16.04556
684.70 15.86575
684.80 15.52762
684.90 15.04089
685.00 14.46778
685.10 13.94273
685.20 13.58227
685.30 13.42281
685.40 13.41875
685.50 13.51177
685.60 13.71193
685.70 14.0256
685.80 14.40029
685.90 14.76476
686.00 15.03971
686.10 15.175
686.20 15.17215
686.30 15.06045
686.40 14.88757
686.50 14.7545
686.60 14.78426
686.70 15.00693
686.80 15.36059
686.90 15.76298
687.00 16.08901
687.10 16.20779
687.20 16.05477
687.30 15.67181
687.40 15.15958
687.50 14.57412
687.60 13.92386
687.70 13.22948
687.80 12.55116
687.90 11.93213
688.00 11.39588
688.10 10.9941
688.20 10.77752
688.30 10.73744
688.40 10.83631
688.50 11.02914
688.60 11.2152
688.70 11.2249
688.80 10.9976
688.90 10.68323
689.00 10.46933
689.10 10.45809
689.20 10.6608
689.30 11.03493
689.40 11.51824
689.50 12.00138
689.60 12.35472
689.70 12.48947
689.80 12.35819
689.90 12.02314
690.00 11.65898
690.10 11.46088
690.20 11.5073
690.30 11.71785
690.40 12.00942
690.50 12.33468
690.60 12.63435
690.70 12.82458
690.80 12.79771
690.90 12.47348
691.00 11.8526
691.10 11.0236
691.20 10.11628
691.30 9.241673
691.40 8.525841
691.50 8.083307
691.60 7.957761
691.70 8.159265
691.80 8.648858
691.90 9.353333
692.00 10.13872
692.10 10.83196
692.20 11.34484
692.30 11.72129
692.40 12.07717
692.50 12.45492
692.60 12.83794
692.70 13.18564
692.80 13.39867
692.90 13.41094
693.00 13.22823
693.10 12.89845
693.20 12.51421
693.30 12.13759
693.40 11.89328
693.50 11.95185
693.60 12.33904
693.70 12.95153
693.80 13.61362
693.90 14.18966
694.00 14.63448
694.10 14.98064
694.20 15.29234
694.30 15.63282
694.40 16.10351
694.50 16.73328
694.60 17.44999
694.70 18.19438
694.80 18.88237
694.90 19.36933
695.00 19.52704
695.10 19.28734
695.20 18.66992
695.30 17.78798
695.40 16.76944
695.50 15.7022
695.60 14.68438
695.70 13.83184
695.80 13.15626
695.90 12.62508
696.00 12.2564
696.10 12.04028
696.20 11.90493
696.30 11.81865
696.40 11.8391
696.50 12.07332
696.60 12.57639
696.70 13.28012
696.80 14.05762
696.90 14.78798
697.00 15.39734
697.10 15.82503
697.20 16.06789
697.30 16.18165
697.40 16.21099
697.50 16.20722
697.60 16.20066
697.70 16.18784
697.80 16.13968
697.90 15.98871
698.00 15.71173
698.10 15.35702
698.20 15.00008
698.30 14.70659
698.40 14.50218
698.50 14.41063
698.60 14.4777
698.70 14.72091
698.80 15.07776
698.90 15.45949
699.00 15.82462
699.10 16.15633
699.20 16.43873
699.30 16.6491
699.40 16.7162
699.50 16.58352
699.60 16.27452
699.70 15.87148
699.80 15.45973
699.90 15.09523
700.00 14.79695
700.10 14.56576
700.20 14.39543
700.30 14.25812
700.40 14.13948
700.50 14.04933
700.60 14.00921
700.70 14.05258
700.80 14.23891
700.90 14.61549
701.00 15.15401
701.10 15.79165
701.20 16.49868
701.30 17.25995
701.40 18.04942
701.50 18.82954
701.60 19.55488
701.70 20.18077
701.80 20.64837
701.90 20.88817
702.00 20.83868
702.10 20.46361
702.20 19.786
702.30 18.92026
702.40 18.07427
702.50 17.46583
702.60 17.24258
702.70 17.46628
702.80 18.06626
702.90 18.89761
703.00 19.82184
703.10 20.66251
703.20 21.2651
703.30 21.58444
703.40 21.68466
703.50 21.69921
703.60 21.77664
703.70 22.0005
703.80 22.37349
703.90 22.86893
704.00 23.37142
704.10 23.66796
704.20 23.60042
704.30 23.15363
704.40 22.4419
704.50 21.68067
704.60 21.09487
704.70 20.87176
704.80 21.09155
704.90 21.62148
705.00 22.20713
705.10 22.66281
705.20 22.89296
705.30 22.8373
705.40 22.52623
705.50 22.0756
705.60 21.59805
705.70 21.15139
705.80 20.74822
705.90 20.39678
706.00 20.13132
706.10 19.95713
706.20 19.83141
706.30 19.7989
706.40 19.96244
706.50 20.34282
706.60 20.88957
706.70 21.51456
706.80 22.09565
706.90 22.54573
707.00 22.8695
707.10 23.11431
707.20 23.32272
707.30 23.54435
707.40 23.80578
707.50 24.06603
707.60 24.28195
707.70 24.4462
707.80 24.55423
707.90 24.59512
708.00 24.54106
708.10 24.37683
708.20 24.14267
708.30 23.91954
708.40 23.76178
708.50 23.66335
708.60 23.61813
708.70 23.63319
708.80 23.65691
708.90 23.63616
709.00 23.59765
709.10 23.57123
709.20 23.52642
709.30 23.40209
709.40 23.21228
709.50 23.03821
709.60 22.92468
709.70 22.85527
709.80 22.75537
709.90 22.59652
710.00 22.39265
710.10 22.13896
710.20 21.88151
710.30 21.66946
710.40 21.48391
710.50 21.317
710.60 21.21402
710.70 21.22369
710.80 21.32223
710.90 21.42884
711.00 21.48776
711.10 21.47612
711.20 21.4455
711.30 21.46662
711.40 21.57433
711.50 21.78035
711.60 22.05584
711.70 22.40255
711.80 22.86041
711.90 23.41299
712.00 23.98861
712.10 24.51534
712.20 24.92552
712.30 25.14534
712.40 25.11927
712.50 24.89498
712.60 24.62893
712.70 24.47628
712.80 24.52532
712.90 24.81622
713.00 25.33528
713.10 25.96734
713.20 26.49424
713.30 26.71686
713.40 26.55436
713.50 26.03367
713.60 25.26252
713.70 24.41007
713.80 23.67756
713.90 23.21732
714.00 23.03846
714.10 23.05176
714.20 23.20766
714.30 23.50939
714.40 23.97527
714.50 24.60545
714.60 25.38612
714.70 26.23961
714.80 27.01314
714.90 27.57388
715.00 27.81547
715.10 27.65976
715.20 27.08042
715.30 26.1267
715.40 24.97029
715.50 23.8667
715.60 23.01592
715.70 22.51765
715.80 22.37299
715.90 22.50777
716.00 22.81572
716.10 23.20181
716.20 23.59712
716.30 23.91898
716.40 24.12671
716.50 24.25302
716.60 24.35688
716.70 24.48697
716.80 24.64628
716.90 24.82323
717.00 25.00429
717.10 25.12365
717.20 25.0921
717.30 24.89753
717.40 24.60311
717.50 24.28724
717.60 24.05541
717.70 24.00202
717.80 24.1692
717.90 24.56227
718.00 25.16458
718.10 25.91827
718.20 26.70107
718.30 27.35899
718.40 27.78586
718.50 27.95556
718.60 27.91478
718.70 27.73413
718.80 27.51034
718.90 27.37299
719.00 27.36214
719.10 27.46507
719.20 27.68315
719.30 27.96389
719.40 28.19581
719.50 28.25273
719.60 28.0613
719.70 27.64111
719.80 27.04168
719.90 26.32809
720.00 25.61479
720.10 25.03413
720.20 24.65078
720.30 24.45917
720.40 24.46309
720.50 24.65333
720.60 24.95782
720.70 25.30042
720.80 25.64497
720.90 25.98675
721.00 26.33185
721.10 26.63599
721.20 26.82736
721.30 26.88772
721.40 26.79865
721.50 26.52448
721.60 26.07922
721.70 25.55339
721.80 25.08948
721.90 24.83103
722.00 24.87009
722.10 25.24224
722.20 25.93406
722.30 26.88219
722.40 27.94984
722.50 28.96268
722.60 29.76789
722.70 30.22083
722.80 30.26645
722.90 29.96315
723.00 29.45114
723.10 28.87985
723.20 28.33646
723.30 27.88964
723.40 27.63149
723.50 27.60793
723.60 27.74732
723.70 27.90627
723.80 27.98479
723.90 27.9592
724.00 27.8079
724.10 27.52443
724.20 27.14629
724.30 26.81945
724.40 26.7437
724.50 27.0388
724.60 27.74374
724.70 28.76952
724.80 29.94098
724.90 31.09036
725.00 32.1053
725.10 32.92214
725.20 33.48453
725.30 33.75253
725.40 33.76139
725.50 33.61401
725.60 33.38266
725.70 33.01242
725.80 32.40189
725.90 31.56918
726.00 30.65741
726.10 29.8577
726.20 29.29744
726.30 29.02022
726.40 29.00947
726.50 29.20504
726.60 29.5406
726.70 29.92557
726.80 30.23881
726.90 30.40712
727.00 30.55469
727.10 30.9308
727.20 31.63085
727.30 32.47657
727.40 33.15917
727.50 33.53426
727.60 33.62742
727.70 33.45912
727.80 33.07902
727.90 32.58499
728.00 32.07661
728.10 31.69119
728.20 31.59323
728.30 31.87153
728.40 32.43842
728.50 33.07126
728.60 33.60978
728.70 34.07157
728.80 34.52386
728.90 34.88773
729.00 35.04326
729.10 35.00377
729.20 34.83453
729.30 34.58334
729.40 34.29809
729.50 33.99634
729.60 33.66015
729.70 33.26065
729.80 32.75317
729.90 32.14468
730.00 31.52237
730.10 31.00036
730.20 30.68375
730.30 30.65857
730.40 30.90544
730.50 31.32916
730.60 31.84775
730.70 32.33881
730.80 32.67221
730.90 32.72993
731.00 32.54828
731.10 32.32101
731.20 32.22621
731.30 32.3766
731.40 32.80178
731.50 33.4114
731.60 34.04657
731.70 34.56178
731.80 34.88737
731.90 35.01025
732.00 34.93498
732.10 34.75487
732.20 34.53934
732.30 34.34638
732.40 34.20392
732.50 34.09168
732.60 34.03593
732.70 34.09095
732.80 34.27832
732.90 34.5574
733.00 34.8467
733.10 35.03413
733.20 35.04828
733.30 34.88686
733.40 34.5295
733.50 33.96182
733.60 33.26338
733.70 32.5399
733.80 31.82774
733.90 31.19207
734.00 30.76573
734.10 30.60616
734.20 30.70027
734.30 31.05531
734.40 31.67295
734.50 32.52244
734.60 33.48053
734.70 34.33303
734.80 34.94854
734.90 35.27239
735.00 35.29434
735.10 35.09678
735.20 34.81335
735.30 34.4853
735.40 34.07886
735.50 33.59117
735.60 33.05371
735.70 32.51872
735.80 32.08701
735.90 31.87269
736.00 31.97214
736.10 32.44608
736.20 33.20445
736.30 34.00755
736.40 34.61906
736.50 34.88831
736.60 34.7099
736.70 34.02913
736.80 32.93904
736.90 31.70961
737.00 30.65515
737.10 30.03252
737.20 29.95139
737.30 30.3372
737.40 30.99247
737.50 31.68644
737.60 32.29816
737.70 32.85247
737.80 33.38347
737.90 33.84207
738.00 34.17001
738.10 34.38791
738.20 34.50054
738.30 34.46815
738.40 34.2832
738.50 33.97229
738.60 33.59373
738.70 33.246
738.80 33.02258
738.90 32.9307
739.00 32.85698
739.10 32.68175
739.20 32.42531
739.30 32.1842
739.40 32.01875
739.50 31.94181
739.60 31.91103
739.70 31.84287
739.80 31.6052
739.90 31.08155
740.00 30.33507
740.10 29.54115
740.20 28.82695
740.30 28.2975
740.40 28.06454
740.50 28.16982
740.60 28.48931
740.70 28.86496
740.80 29.23773
740.90 29.56288
741.00 29.80649
741.10 29.96212
741.20 30.11404
741.30 30.41652
741.40 30.89786
741.50 31.42769
741.60 31.83516
741.70 31.98165
741.80 31.78123
741.90 31.19999
742.00 30.29491
742.10 29.18347
742.20 28.0161
742.30 26.96476
742.40 26.15283
742.50 25.68063
742.60 25.62736
742.70 25.98482
742.80 26.63603
742.90 27.41787
743.00 28.20852
743.10 28.92477
743.20 29.52071
743.30 30.0158
743.40 30.46449
743.50 30.90766
743.60 31.34222
743.70 31.76619
743.80 32.2188
743.90 32.6872
744.00 33.06892
744.10 33.25654
744.20 33.1828
744.30 32.83784
744.40 32.29083
744.50 31.65708
744.60 31.07348
744.70 30.64707
744.80 30.39135
744.90 30.27208
745.00 30.23048
745.10 30.21766
745.20 30.21306
745.30 30.21702
745.40 30.2432
745.50 30.27981
745.60 30.31293
745.70 30.3535
745.80 30.40798
745.90 30.46543
746.00 30.45279
746.10 30.31471
746.20 30.15492
746.30 30.12363
746.40 30.31484
746.50 30.71699
746.60 31.195
746.70 31.58255
746.80 31.75612
746.90 31.68184
747.00 31.37787
747.10 30.91766
747.20 30.41578
747.30 29.96767
747.40 29.69259
747.50 29.66182
747.60 29.77221
747.70 29.86616
747.80 29.86585
747.90 29.7859
748.00 29.71871
748.10 29.73591
748.20 29.84605
748.30 30.02043
748.40 30.23697
748.50 30.47467
748.60 30.70681
748.70 30.90225
748.80 30.98784
748.90 30.90295
749.00 30.67809
749.10 30.38033
749.20 30.03681
749.30 29.62028
749.40 29.08878
749.50 28.47218
749.60 27.85906
749.70 27.32192
749.80 26.91085
749.90 26.66435
750.00 26.60304
750.10 26.72552
750.20 27.00194
750.30 27.3875
750.40 27.81171
750.50 28.20126
750.60 28.53402
750.70 28.83743
750.80 29.16073
750.90 29.50344
751.00 29.80139
751.10 30.01075
751.20 30.12373
751.30 30.15852
751.40 30.13692
751.50 30.07408
751.60 29.96164
751.70 29.7098
751.80 29.24931
751.90 28.61495
752.00 27.87909
752.10 27.09477
752.20 26.41747
752.30 26.01916
752.40 25.95382
752.50 26.20117
752.60 26.67525
752.70 27.25275
752.80 27.78885
752.90 28.14693
753.00 28.26538
753.10 28.21021
753.20 28.06125
753.30 27.82114
753.40 27.49328
753.50 27.14335
753.60 26.71752
753.70 26.15106
753.80 25.54368
753.90 25.01776
754.00 24.65643
754.10 24.47566
754.20 24.44225
754.30 24.54086
754.40 24.77577
754.50 25.11557
754.60 25.49709
754.70 25.8667
754.80 26.16271
754.90 26.30754
755.00 26.24879
755.10 25.96103
755.20 25.38888
755.30 24.53479
755.40 23.5572
755.50 22.66994
755.60 22.05723
755.70 21.81358
755.80 21.94013
755.90 22.39378
756.00 23.0536
756.10 23.71239
756.20 24.15354
756.30 24.24504
756.40 23.99745
756.50 23.49371
756.60 22.88107
756.70 22.31311
756.80 21.87024
756.90 21.64327
757.00 21.71541
757.10 22.10811
757.20 22.76844
757.30 23.57895
757.40 24.39359
757.50 25.07143
757.60 25.52717
757.70 25.72607
757.80 25.63957
757.90 25.28411
758.00 24.70532
758.10 23.98391
758.20 23.24462
758.30 22.55
758.40 21.92542
758.50 21.39465
758.60 20.96763
758.70 20.64371
758.80 20.43496
758.90 20.37273
759.00 20.43586
759.10 20.51972
759.20 20.46545
759.30 20.18642
759.40 19.85969
759.50 19.81048
759.60 20.30261
759.70 21.39439
759.80 22.90657
759.90 24.60879
760.00 26.29374
760.10 27.62465
760.20 28.19969
760.30 27.82428
760.40 26.49855
760.50 24.43144
760.60 22.12673
760.70 20.14408
760.80 18.75424
760.90 17.95167
761.00 17.57573
761.10 17.4942
761.20 17.61604
761.30 17.71589
761.40 17.52901
761.50 17.00414
761.60 16.28859
761.70 15.52332
761.80 14.8509
761.90 14.36982
762.00 14.01665
762.10 13.69121
762.20 13.37965
762.30 13.08456
762.40 12.80942
762.50 12.6584
762.60 12.83697
762.70 13.49506
762.80 14.53351
762.90 15.58618
763.00 16.23185
763.10 16.14996
763.20 15.21932
763.30 13.55236
763.40 11.45957
763.50 9.341447
763.60 7.559416
763.70 6.459689
763.80 6.330141
763.90 7.105559
764.00 8.360619
764.10 9.604802
764.20 10.47875
764.30 10.88446
764.40 10.83786
764.50 10.35051
764.60 9.53664
764.70 8.605104
764.80 7.80607
764.90 7.370972
765.00 7.474061
765.10 8.08781
765.20 8.884061
765.30 9.495924
765.40 9.66019
765.50 9.234205
765.60 8.267002
765.70 6.90875
765.80 5.406028
765.90 4.10046
766.00 3.270051
766.10 3.051951
766.20 3.393944
766.30 4.103469
766.40 4.884293
766.50 5.446013
766.60 5.680327
766.70 5.612502
766.80 5.349951
766.90 5.053498
767.00 4.817845
767.10 4.647926
767.20 4.530639
767.30 4.457237
767.40 4.396923
767.50 4.301205
767.60 4.1751
767.70 4.05329
767.80 3.960567
767.90 3.924521
768.00 3.948384
768.10 4.033758
768.20 4.178533
768.30 4.353499
768.40 4.542405
768.50 4.753385
768.60 4.97749
768.70 5.159802
768.80 5.242894
768.90 5.201425
769.00 4.998227
769.10 4.586599
769.20 3.979084
769.30 3.233482
769.40 2.406579
769.50 1.548523
769.60 0.7630935
769.70 0.1563966
769.80 0
769.90 0
770.00 0
770.10 0.1428377
770.20 0.7389565
770.30 1.441998
770.40 2.174779
770.50 2.847705
770.60 3.365169
770.70 3.654721
770.80 3.655909
770.90 3.329047
771.00 2.62754
771.10 1.635041
771.20 0.7407055
771.30 0.2228622
771.40 0.0564444
771.50 0.2413351
771.60 0.8960221
771.70 2.162021
771.80 4.031822
771.90 6.270376
772.00 8.517598
772.10 10.45373
772.20 11.95125
772.30 13.03651
772.40 13.77916
772.50 14.20453
772.60 14.16754
772.70 13.65745
772.80 12.92324
772.90 12.2112
773.00 11.63572
773.10 11.13179
773.20 10.62794
773.30 10.23751
773.40 10.16785
773.50 10.54775
773.60 11.31991
773.70 12.25592
773.80 13.16036
773.90 13.92259
774.00 14.49481
774.10 14.90675
774.20 15.23119
774.30 15.48317
774.40 15.59673
774.50 15.54677
774.60 15.41073
774.70 15.26643
774.80 15.12512
774.90 15.00381
775.00 14.96399
775.10 15.08581
775.20 15.3883
775.30 15.74231
775.40 15.98495
775.50 16.03672
775.60 15.92068
775.70 15.80084
775.80 15.84853
775.90 16.16626
776.00 16.7608
776.10 17.54696
776.20 18.38981
776.30 19.11475
776.40 19.54163
776.50 19.54268
776.60 19.10007
776.70 18.42617
776.80 17.80291
776.90 17.42928
777.00 17.41774
777.10 17.68631
777.20 18.14039
777.30 18.75233
777.40 19.40213
777.50 19.90978
777.60 20.20615
777.70 20.32388
777.80 20.34923
777.90 20.37987
778.00 20.46637
778.10 20.59504
778.20 20.74562
778.30 20.89074
778.40 20.99108
778.50 21.06738
778.60 21.10662
778.70 21.05582
778.80 20.99841
778.90 21.04475
779.00 21.14871
779.10 21.23421
779.20 21.30061
779.30 21.35771
779.40 21.34096
779.50 21.1143
779.60 20.53476
779.70 19.51791
779.80 18.08119
779.90 16.41343
780.00 14.8666
780.10 13.75232
780.20 13.16587
780.30 13.11984
780.40 13.60448
780.50 14.46668
780.60 15.47384
780.70 16.46053
780.80 17.44461
780.90 18.5494
781.00 19.84574
781.10 21.36465
781.20 23.10092
781.30 24.91819
781.40 26.57755
781.50 27.81578
781.60 28.41994
781.70 28.29996
781.80 27.58465
781.90 26.63566
782.00 25.85631
782.10 25.50702
782.20 25.66672
782.30 26.33909
782.40 27.45635
782.50 28.82847
782.60 30.18525
782.70 31.24493
782.80 31.78872
782.90 31.7713
783.00 31.38301
783.10 30.88591
783.20 30.41497
783.30 29.92805
783.40 29.3165
783.50 28.61792
783.60 27.93944
783.70 27.29138
783.80 26.67055
783.90 26.12897
784.00 25.75196
784.10 25.61324
784.20 25.74794
784.30 26.15259
784.40 26.74144
784.50 27.4014
784.60 28.12494
784.70 28.8585
784.80 29.3611
784.90 29.39181
785.00 28.86472
785.10 27.86695
785.20 26.65673
785.30 25.55714
785.40 24.8457
785.50 24.6468
785.60 24.88531
785.70 25.47399
785.80 26.4007
785.90 27.61001
786.00 28.95484
786.10 30.36371
786.20 31.87979
786.30 33.45359
786.40 34.94414
786.50 36.17901
786.60 36.92875
786.70 37.02088
786.80 36.45397
786.90 35.46125
787.00 34.45099
787.10 33.73921
787.20 33.37456
787.30 33.26862
787.40 33.30968
787.50 33.39549
787.60 33.51796
787.70 33.72496
787.80 34.07295
787.90 34.63718
788.00 35.47387
788.10 36.49205
788.20 37.45727
788.30 38.15302
788.40 38.50615
788.50 38.50165
788.60 38.11672
788.70 37.37953
788.80 36.42116
788.90 35.4643
789.00 34.70063
789.10 34.24854
789.20 34.1494
789.30 34.34934
789.40 34.77197
789.50 35.4162
789.60 36.29516
789.70 37.35558
789.80 38.41189
789.90 39.22255
790.00 39.74517
790.10 40.10746
790.20 40.39177
790.30 40.59122
790.40 40.64886
790.50 40.52411
790.60 40.23096
790.70 39.82202
790.80 39.38965
790.90 39.04011
791.00 38.89961
791.10 39.01837
791.20 39.27118
791.30 39.56017
791.40 39.81363
791.50 39.95265
791.60 39.94391
791.70 39.73663
791.80 39.37873
791.90 39.02516
792.00 38.83288
792.10 38.94833
792.20 39.39212
792.30 40.04788
792.40 40.73922
792.50 41.30706
792.60 41.76997
792.70 42.22377
792.80 42.736
792.90 43.3279
793.00 43.92609
793.10 44.49607
793.20 45.01902
793.30 45.39601
793.40 45.50598
793.50 45.2508
793.60 44.65228
793.70 43.87239
793.80 43.12737
793.90 42.60925
794.00 42.3429
794.10 42.15484
794.20 41.7628
794.30 40.83466
794.40 39.16986
794.50 36.74862
794.60 33.72462
794.70 30.46435
794.80 27.48616
794.90 25.32697
795.00 24.44047
795.10 25.05119
795.20 26.98146
795.30 29.81918
795.40 33.17621
795.50 36.62366
795.60 39.72845
795.70 42.27807
795.80 44.25815
795.90 45.75205
796.00 46.85156
796.10 47.64374
796.20 48.15081
796.30 48.31501
796.40 48.0892
796.50 47.52316
796.60 46.79724
796.70 46.09287
796.80 45.52505
796.90 45.21521
797.00 45.279
797.10 45.6993
797.20 46.30298
797.30 46.89067
797.40 47.36198
797.50 47.67732
797.60 47.84649
797.70 48.00854
797.80 48.30057
797.90 48.68285
798.00 49.07016
798.10 49.41238
798.20 49.62892
798.30 49.63379
798.40 49.41455
798.50 49.05884
798.60 48.70687
798.70 48.45703
798.80 48.3577
798.90 48.52658
799.00 49.08772
799.10 49.9947
799.20 51.11741
799.30 52.41001
799.40 53.86783
799.50 55.43387
799.60 56.90798
799.70 58.08623
799.80 58.91177
799.90 59.38599
800.00 59.54091
800.10 59.4994
800.20 59.42566
800.30 59.36518
800.40 59.29175
800.50 59.2431
800.60 59.23637
800.70 59.1707
800.80 58.92532
800.90 58.45192
801.00 57.82853
801.10 57.18641
801.20 56.58007
801.30 56.0113
801.40 55.48836
801.50 55.0369
801.60 54.70127
801.70 54.51801
801.80 54.54567
801.90 54.81233
802.00 55.23374
802.10 55.70198
802.20 56.05308
802.30 56.13747
802.40 56.03978
802.50 56.00207
802.60 56.22814
802.70 56.8188
802.80 57.79071
802.90 59.08129
803.00 60.51905
803.10 61.84628
803.20 62.77261
803.30 63.08964
803.40 62.75612
803.50 61.88329
803.60 60.76778
803.70 59.76157
803.80 59.06605
803.90 58.74716
804.00 58.82136
804.10 59.30193
804.20 60.13345
804.30 61.16287
804.40 62.23158
804.50 63.2644
804.60 64.23242
804.70 65.02326
804.80 65.55224
804.90 65.78726
805.00 65.66761
805.10 65.25037
805.20 64.72889
805.30 64.30753
805.40 64.09927
805.50 64.11218
805.60 64.34295
805.70 64.86686
805.80 65.72599
805.90 66.74714
806.00 67.69877
806.10 68.47943
806.20 69.04819
806.30 69.46148
806.40 69.83949
806.50 70.18257
806.60 70.41696
806.70 70.51224
806.80 70.50804
806.90 70.4943
807.00 70.55849
807.10 70.67914
807.20 70.79063
807.30 70.98161
807.40 71.34515
807.50 71.90093
807.60 72.63133
807.70 73.41741
807.80 74.08328
807.90 74.50958
808.00 74.67808
808.10 74.66726
808.20 74.6175
808.30 74.62622
808.40 74.72957
808.50 74.91506
808.60 75.09875
808.70 75.13367
808.80 74.92647
808.90 74.49295
809.00 73.92302
809.10 73.37168
809.20 72.98502
809.30 72.83694
809.40 72.91021
809.50 73.03565
809.60 73.00182
809.70 72.69973
809.80 72.13945
809.90 71.40573
810.00 70.63969
810.10 70.03292
810.20 69.76665
810.30 69.92556
810.40 70.52121
810.50 71.53646
810.60 72.90577
810.70 74.50685
810.80 76.1187
810.90 77.50399
811.00 78.48869
811.10 79.00345
811.20 79.04775
811.30 78.69766
811.40 78.07178
811.50 77.28153
811.60 76.46604
811.70 75.79198
811.80 75.40565
811.90 75.36239
812.00 75.66997
812.10 76.27004
812.20 77.10417
812.30 78.15475
812.40 79.34341
812.50 80.52528
812.60 81.55688
812.70 82.27454
812.80 82.51975
812.90 82.25027
813.00 81.57383
813.10 80.69367
813.20 79.83175
813.30 79.19888
813.40 78.949
813.50 79.17621
813.60 79.82468
813.70 80.66771
813.80 81.44099
813.90 81.95142
814.00 82.11782
814.10 81.97137
814.20 81.69932
814.30 81.56806
814.40 81.72947
814.50 82.15793
814.60 82.68431
814.70 83.01397
814.80 82.91036
814.90 82.31384
815.00 81.33133
815.10 80.21435
815.20 79.22332
815.30 78.61401
815.40 78.6435
815.50 79.46064
815.60 81.00404
815.70 82.96343
815.80 84.89034
815.90 86.43396
816.00 87.4964
816.10 88.15116
816.20 88.45627
816.30 88.49368
816.40 88.45556
816.50 88.56861
816.60 89.03385
816.70 89.86035
816.80 90.83009
816.90 91.63982
817.00 92.07244
817.10 92.11801
817.20 91.87502
817.30 91.31338
817.40 90.2652
817.50 88.72466
817.60 86.90701
817.70 85.02749
817.80 83.13864
817.90 81.13056
818.00 78.8907
818.10 76.45742
818.20 74.0904
818.30 72.22984
818.40 71.27144
818.50 71.36943
818.60 72.45857
818.70 74.38615
818.80 76.84016
818.90 79.22957
819.00 80.8186
819.10 80.95383
819.20 79.32859
819.30 76.17479
819.40 72.23754
819.50 68.50674
819.60 65.82704
819.70 64.69777
819.80 65.27366
819.90 67.3655
820.00 70.5406
820.10 74.2801
820.20 78.08424
820.30 81.55632
820.40 84.49176
820.50 86.92136
820.60 88.96378
820.70 90.64089
820.80 91.8624
820.90 92.54747
821.00 92.68313
821.10 92.34179
821.20 91.68664
821.30 90.97836
821.40 90.503
821.50 90.42689
821.60 90.78136
821.70 91.51297
821.80 92.47913
821.90 93.44069
822.00 94.19653
822.10 94.71643
822.20 95.0764
822.30 95.36329
822.40 95.67807
822.50 96.17595
822.60 97.01594
822.70 98.23025
822.80 99.66621
822.90 101.0705
823.00 102.1924
823.10 102.8188
823.20 102.8521
823.30 102.3685
823.40 101.5882
823.50 100.773
823.60 100.1416
823.70 99.8444
823.80 99.96157
823.90 100.4052
824.00 100.9338
824.10 101.347
824.20 101.5671
824.30 101.6187
824.40 101.5511
824.50 101.5113
824.60 101.6537
824.70 102.0167
824.80 102.5839
824.90 103.2791
825.00 103.9351
825.10 104.2606
825.20 104.008
825.30 103.1477
825.40 101.7935
825.50 100.1489
825.60 98.50587
825.70 97.19252
825.80 96.56112
825.90 96.7875
826.00 97.81281
826.10 99.42106
826.20 101.2293
826.30 102.7799
826.40 103.6645
826.50 103.6964
826.60 102.9195
826.70 101.5355
826.80 99.93765
826.90 98.60996
827.00 97.95953
827.10 98.08264
827.20 98.73252
827.30 99.73538
827.40 101.0605
827.50 102.5214
827.60 103.8648
827.70 105.0391
827.80 106.1722
827.90 107.2977
828.00 108.298
828.10 109.032
828.20 109.3701
828.30 109.2117
828.40 108.5898
828.50 107.7892
828.60 107.1317
828.70 106.54
828.80 105.8309
828.90 105.1341
829.00 104.5648
829.10 103.9727
829.20 103.0712
829.30 101.8001
829.40 100.4175
829.50 99.24118
829.60 98.22169
829.70 97.07625
829.80 95.79608
829.90 94.58681
830.00 93.7109
830.10 93.45814
830.20 93.92518
830.30 94.92609
830.40 96.16399
830.50 97.42317
830.60 98.72287
830.70 100.1233
830.80 101.4778
830.90 102.5313
831.00 103.4044
831.10 104.4544
831.20 105.7017
831.30 106.9106
831.40 107.8547
831.50 108.5021
831.60 108.9185
831.70 109.1327
831.80 109.2226
831.90 109.1994
832.00 108.9043
832.10 108.2064
832.20 107.1234
832.30 105.7793
832.40 104.3307
832.50 102.9764
832.60 101.9076
832.70 101.2691
832.80 101.1623
832.90 101.5101
833.00 102.0966
833.10 102.7
833.20 103.1483
833.30 103.3642
833.40 103.4041
833.50 103.3893
833.60 103.3403
833.70 103.2642
833.80 103.3764
833.90 103.9871
834.00 105.2714
834.10 107.1451
834.20 109.2064
834.30 110.9211
834.40 111.9333
834.50 112.1823
834.60 111.8878
834.70 111.3095
834.80 110.3897
834.90 108.9548
835.00 107.207
835.10 105.6655
835.20 104.745
835.30 104.5726
835.40 105.0428
835.50 105.9806
835.60 107.3084
835.70 108.9474
835.80 110.67
835.90 112.1592
836.00 113.1208
836.10 113.5316
836.20 113.8123
836.30 114.479
836.40 115.7256
836.50 117.398
836.60 119.1015
836.70 120.4174
836.80 121.0087
836.90 120.6892
837.00 119.5257
837.10 117.8051
837.20 115.8867
837.30 114.1636
837.40 112.9391
837.50 112.1908
837.60 111.7258
837.70 111.3904
837.80 111.1129
837.90 110.7794
838.00 110.3061
838.10 109.7329
838.20 109.1874
838.30 108.7632
838.40 108.5036
838.50 108.5405
838.60 109.0238
838.70 109.8918
838.80 110.9061
838.90 111.9058
839.00 112.7723
839.10 113.3685
839.20 113.6049
839.30 113.5691
839.40 113.4498
839.50 113.4346
839.60 113.7901
839.70 114.8015
839.80 116.4767
839.90 118.4605
840.00 120.346
840.10 121.8881
840.20 123.0044
840.30 123.6942
840.40 123.9798
840.50 123.869
840.60 123.3681
840.70 122.5833
840.80 121.7713
840.90 121.1286
841.00 120.6978
841.10 120.4792
841.20 120.5292
841.30 120.8712
841.40 121.3215
841.50 121.6828
841.60 121.8615
841.70 121.7559
841.80 121.2522
841.90 120.4197
842.00 119.5791
842.10 119.1048
842.20 119.2131
842.30 120.0096
842.40 121.4628
842.50 123.3363
842.60 125.37
842.70 127.2572
842.80 128.7298
842.90 129.5574
843.00 129.449
843.10 128.3557
843.20 126.5614
843.30 124.454
843.40 122.3646
843.50 120.4415
843.60 118.643
843.70 116.8364
843.80 114.9629
843.90 113.1074
844.00 111.3588
844.10 109.9251
844.20 109.0787
844.30 108.9743
844.40 109.6326
844.50 110.839
844.60 112.3232
844.70 113.8812
844.80 115.2354
844.90 116.117
845.00 116.3248
845.10 115.7639
845.20 114.5268
845.30 112.8013
845.40 110.7668
845.50 108.5394
845.60 106.2823
845.70 104.3187
845.80 102.9954
845.90 102.5422
846.00 102.938
846.10 103.8639
846.20 104.9207
846.30 105.7872
846.40 106.3736
846.50 106.8157
846.60 107.1688
846.70 107.3597
846.80 107.3718
846.90 107.2797
847.00 107.1103
847.10 106.6795
847.20 105.8399
847.30 104.6737
847.40 103.3785
847.50 102.1685
847.60 101.1804
847.70 100.4406
847.80 99.8308
847.90 99.15927
848.00 98.37641
848.10 97.59378
848.20 96.98281
848.30 96.71774
848.40 96.86755
848.50 97.40403
848.60 98.17229
848.70 98.92372
848.80 99.4554
848.90 99.63367
849.00 99.4561
849.10 99.14389
849.20 99.05299
849.30 99.34679
849.40 99.93122
849.50 100.6921
849.60 101.5286
849.70 102.3547
849.80 103.1219
849.90 103.9191
850.00 104.9764
850.10 106.3611
850.20 107.8335
850.30 109.1146
850.40 110.0509
850.50 110.5013
850.60 110.3286
850.70 109.5542
850.80 108.3684
850.90 107.0743
851.00 106.0265
851.10 105.4513
851.20 105.4226
851.30 105.8084
851.40 106.1904
851.50 106.0282
851.60 104.8391
851.70 102.2326
851.80 98.00167
851.90 92.30923
852.00 85.73802
852.10 79.20344
852.20 73.8216
852.30 70.66192
852.40 70.36371
852.50 72.89565
852.60 77.66463
852.70 83.74379
852.80 90.10505
852.90 95.91214
853.00 100.6378
853.10 104.0264
853.20 106.1423
853.30 107.3233
853.40 107.9826
853.50 108.4782
853.60 108.9962
853.70 109.4161
853.80 109.5264
853.90 109.3428
854.00 109.032
854.10 108.721
854.20 108.5298
854.30 108.5991
854.40 109.0352
854.50 110.0354
854.60 111.8528
854.70 114.5526
854.80 117.9096
854.90 121.4528
855.00 124.5695
855.10 126.6502
855.20 127.2744
855.30 126.3318
855.40 124.0432
855.50 120.8871
855.60 117.4583
855.70 114.3166
855.80 111.9799
855.90 110.7679
856.00 110.6087
856.10 111.2103
856.20 112.3218
856.30 113.7211
856.40 115.0851
856.50 116.0633
856.60 116.4063
856.70 116.0154
856.80 114.9976
856.90 113.6817
857.00 112.4839
857.10 111.8111
857.20 111.876
857.30 112.6444
857.40 114.0106
857.50 115.7161
857.60 117.3127
857.70 118.4346
857.80 119.0345
857.90 119.2914
858.00 119.4306
858.10 119.6565
858.20 120.0894
858.30 120.7272
858.40 121.4718
858.50 122.145
858.60 122.529
858.70 122.4836
858.80 121.9758
858.90 121.1056
859.00 120.0774
859.10 119.1944
859.20 118.8302
859.30 119.3079
859.40 120.7967
859.50 123.2647
859.60 126.2513
859.70 129.0258
859.80 131.0788
859.90 132.0977
860.00 131.937
860.10 130.6861
860.20 128.6808
860.30 126.3681
860.40 124.1569
860.50 122.2703
860.60 120.6523
860.70 119.0706
860.80 117.1856
860.90 114.625
861.00 111.2919
861.10 107.3261
861.20 102.7631
861.30 97.68305
861.40 92.46363
861.50 87.68993
861.60 83.86782
861.70 81.1605
861.80 79.35778
861.90 78.12368
862.00 77.12492
862.10 76.09994
862.20 74.96818
862.30 73.82684
862.40 72.88
862.50 72.324
862.60 72.25166
862.70 72.6702
862.80 73.38515
862.90 74.00362
863.00 74.09743
863.10 73.49018
863.20 72.43241
863.30 71.26325
863.40 70.22626
863.50 69.50916
863.60 69.20105
863.70 69.20901
863.80 69.33994
863.90 69.58277
864.00 70.18139
864.10 71.227
864.20 72.50984
864.30 73.77632
864.40 74.9002
864.50 75.85311
864.60 76.61409
864.70 77.31521
864.80 78.24872
864.90 79.60865
865.00 81.40936
865.10 83.64229
865.20 86.22769
865.30 88.59203
865.40 89.92584
865.50 89.94008
865.60 89.13577
865.70 88.28573
865.80 87.88705
865.90 88.19565
866.00 89.37386
866.10 91.43782
866.20 94.11181
866.30 96.96982
866.40 99.52504
866.50 101.2648
866.60 101.877
866.70 101.5817
866.80 100.8407
866.90 99.8153
867.00 98.32127
867.10 96.34847
867.20 94.38505
867.30 93.00077
867.40 92.46566
867.50 92.76655
867.60 93.77216
867.70 95.17969
867.80 96.59007
867.90 97.63015
868.00 97.9749
868.10 97.44766
868.20 96.16154
868.30 94.60218
868.40 93.4407
868.50 93.05321
868.60 93.26097
868.70 93.59818
868.80 93.50604
868.90 92.42396
869.00 89.97094
869.10 86.15705
869.20 81.40717
869.30 76.48014
869.40 72.26868
869.50 69.44924
869.60 68.31279
869.70 68.80549
869.80 70.58865
869.90 73.08094
870.00 75.58867
870.10 77.54545
870.20 78.67396
870.30 78.87883
870.40 78.1778
870.50 76.70572
870.60 74.7082
870.70 72.37043
870.80 69.7463
870.90 66.98884
871.00 64.40194
871.10 62.36849
871.20 61.25714
871.30 61.21426
871.40 62.10595
871.50 63.6274
871.60 65.4125
871.70 67.08223
871.80 68.31161
871.90 68.94725
872.00 69.02394
872.10 68.71337
872.20 68.32281
872.30 68.23032
872.40 68.7653
872.50 69.99951
872.60 71.67601
872.70 73.47673
872.80 75.19254
872.90 76.63525
873.00 77.65773
873.10 78.25325
873.20 78.4779
873.30 78.42167
873.40 78.23881
873.50 78.15145
873.60 78.34011
873.70 78.84625
873.80 79.61678
873.90 80.65588
874.00 82.0224
874.10 83.59436
874.20 85.02528
874.30 86.01257
874.40 86.4256
874.50 86.19695
874.60 85.42625
874.70 84.36054
874.80 83.21504
874.90 82.1999
875.00 81.55599
875.10 81.3922
875.20 81.55582
875.30 81.82418
875.40 82.10426
875.50 82.45868
875.60 83.00135
875.70 83.67117
875.80 84.17645
875.90 84.34134
876.00 84.22732
876.10 83.9173
876.20 83.43611
876.30 82.84318
876.40 82.27991
876.50 82.05121
876.60 82.53368
876.70 83.83524
876.80 85.87964
876.90 88.61899
877.00 92.00854
877.10 96.02635
877.20 100.5221
877.30 105.0998
877.40 109.2602
877.50 112.3994
877.60 113.7652
877.70 112.8959
877.80 110.0043
877.90 105.6826
878.00 100.6945
878.10 95.92045
878.20 91.97235
878.30 89.0465
878.40 87.14276
878.50 86.13595
878.60 86.02013
878.70 86.89787
878.80 88.66191
878.90 91.06891
879.00 93.9697
879.10 97.12795
879.20 100.1856
879.30 102.7744
879.40 104.527
879.50 105.1904
879.60 104.6991
879.70 103.2362
879.80 101.1458
879.90 98.79064
880.00 96.40869
880.10 94.07201
880.20 91.82187
880.30 89.8393
880.40 88.47536
880.50 87.96319
880.60 88.07206
880.70 88.41014
880.80 88.87675
880.90 89.64836
881.00 91.02533
881.10 93.223
881.20 96.31096
881.30 100.2562
881.40 104.8508
881.50 109.7691
881.60 114.5952
881.70 118.8201
881.80 122.0103
881.90 123.8115
882.00 124.1954
882.10 123.5235
882.20 122.2242
882.30 120.6231
882.40 118.8388
882.50 116.8461
882.60 114.743
882.70 112.9894
882.80 112.0218
882.90 111.8794
883.00 112.3723
883.10 113.2485
883.20 114.2423
883.30 115.3263
883.40 116.5084
883.50 117.6107
883.60 118.4731
883.70 119.0646
883.80 119.6037
883.90 120.3956
884.00 121.3678
884.10 121.8054
884.20 120.9719
884.30 118.6582
884.40 115.0034
884.50 110.432
884.60 105.6514
884.70 101.5446
884.80 98.97611
884.90 98.52675
885.00 100.3241
885.10 104.0549
885.20 108.9463
885.30 113.8852
885.40 117.787
885.50 120.0007
885.60 120.3537
885.70 118.9238
885.80 116.1761
885.90 113.0684
886.00 110.6921
886.10 109.6774
886.20 110.0816
886.30 111.6934
886.40 114.0555
886.50 116.385
886.60 117.7831
886.70 117.5864
886.80 115.6011
886.90 112.0427
887.00 107.4967
887.10 102.9225
887.20 99.34838
887.30 97.47814
887.40 97.61404
887.50 99.81273
887.60 103.8786
887.70 109.2377
887.80 115.0257
887.90 120.4099
888.00 124.9761
888.10 128.5174
888.20 130.8438
888.30 131.8706
888.40 131.6513
888.50 130.568
888.60 129.3474
888.70 128.6812
888.80 128.7515
888.90 129.2932
889.00 129.8332
889.10 129.8165
889.20 128.7223
889.30 126.1766
889.40 121.9628
889.50 116.3848
889.60 110.4727
889.70 105.5423
889.80 102.6703
889.90 102.1315
890.00 103.274
890.10 105.0975
890.20 106.8753
890.30 108.2505
890.40 109.0416
890.50 109.2047
890.60 108.8772
890.70 108.3582
890.80 108.0833
890.90 108.4874
891.00 109.729
891.10 111.776
891.20 114.4618
891.30 117.5967
891.40 121.0375
891.50 124.5355
891.60 127.769
891.70 130.3471
891.80 131.912
891.90 132.2256
892.00 131.295
892.10 129.437
892.20 127.0548
892.30 124.5253
892.40 122.1491
892.50 120.036
892.60 118.2249
892.70 116.7737
892.80 115.9163
892.90 116.1261
893.00 117.7672
893.10 120.9112
893.20 125.2696
893.30 130.2494
893.40 135.077
893.50 138.8259
893.60 140.583
893.70 139.5568
893.80 135.3739
893.90 128.4428
894.00 119.7869
894.10 110.5013
894.20 101.4707
894.30 93.60447
894.40 87.87195
894.50 84.81361
894.60 84.41944
894.70 86.42143
894.80 90.33516
894.90 95.46071
895.00 101.2081
895.10 107.2952
895.20 113.5583
895.30 119.8412
895.40 126.0149
895.50 132.059
895.60 137.833
895.70 142.8536
895.80 146.5812
895.90 148.6979
896.00 149.1979
896.10 148.1301
896.20 145.5033
896.30 141.5977
896.40 136.9731
896.50 132.2846
896.60 128.0777
896.70 124.6486
896.80 122.2508
896.90 121.1961
897.00 121.7333
897.10 123.8133
897.20 126.9854
897.30 130.6762
897.40 134.2354
897.50 137.0446
897.60 138.7851
897.70 139.3636
897.80 138.7756
897.90 137.2441
898.00 135.3976
898.10 134.0188
898.20 133.6186
898.30 134.4271
898.40 136.6443
898.50 140.1934
898.60 144.3141
898.70 147.7828
898.80 149.561
898.90 149.3756
899.00 147.6528
899.10 145.1438
899.20 142.6485
899.30 140.7173
899.40 139.4489
899.50 138.5934
899.60 137.8022
899.70 136.8028
899.80 135.3732
899.90 133.4167
900.00 133.3913
900.10 133.3659
900.20 133.3405
900.30 133.3151
900.40 133.2897
900.50 133.2643
900.60 133.2389
900.70 133.2136
900.80 133.1882
900.90 133.1628
901.00 133.1374
901.10 133.112
901.20 133.0866
901.30 133.0612
901.40 133.0358
901.50 133.0105
901.60 132.9851
901.70 132.9597
901.80 132.9343
901.90 132.9089
902.00 132.8835
902.10 132.8581
902.20 132.8327
902.30 132.8073
902.40 132.782
902.50 132.7566
902.60 132.8039
902.70 133.125
902.80 133.4461
902.90 133.7671
903.00 134.0882
903.10 134.4093
903.20 134.7303
903.30 135.0514
903.40 135.3725
903.50 135.6935
903.60 136.0146
903.70 136.3356
903.80 136.6567
903.90 136.9778
904.00 137.2988
904.10 137.6199
904.20 137.941
904.30 138.262
904.40 138.5831
904.50 138.9042
904.60 139.2252
904.70 139.5463
904.80 139.8674
904.90 140.1884
905.00 140.5095
905.10 140.8306
905.20 141.1516
905.30 141.4727
905.40 141.7937
905.50 142.1148
905.60 142.4359
905.70 142.7569
905.80 143.078
905.90 143.3991
906.00 143.7201
906.10 143.9282
906.20 144.1303
906.30 144.3324
906.40 144.5346
906.50 144.7367
906.60 144.9388
906.70 145.1409
906.80 145.343
906.90 145.5452
907.00 145.7473
907.10 145.9494
907.20 146.1515
907.30 146.3536
907.40 146.5558
907.50 146.7579
907.60 146.96
907.70 147.1621
907.80 147.3642
907.90 147.5664
908.00 147.7685
908.10 147.9706
908.20 148.1727
908.30 148.3748
908.40 148.577
908.50 148.7791
908.60 148.9812
908.70 149.1833
908.80 149.3854
908.90 149.5876
909.00 149.7897
909.10 149.9918
909.20 150.1939
909.30 150.396
909.40 150.5982
909.50 150.7862
909.60 150.9606
909.70 151.135
909.80 151.3095
909.90 151.4839
910.00 151.6583
910.10 151.8328
910.20 152.0072
910.30 152.1816
910.40 152.3561
910.50 152.5305
910.60 152.705
910.70 152.8794
910.80 153.0538
910.90 153.2283
911.00 153.4027
911.10 153.5771
911.20 153.7516
911.30 153.926
911.40 154.1004
911.50 154.2749
911.60 154.4493
911.70 154.6238
911.80 154.7982
911.90 154.9726
912.00 155.1471
912.10 155.3215
912.20 155.4959
912.30 155.6704
912.40 155.8448
912.50 156.0192
912.60 156.1937
912.70 156.3681
912.80 156.5426
912.90 156.717
913.00 156.7876
913.10 156.844
913.20 156.9004
913.30 156.9568
913.40 157.0132
913.50 157.0696
913.60 157.126
913.70 157.1824
913.80 157.2388
913.90 157.2952
914.00 157.3516
914.10 157.408
914.20 157.4644
914.30 157.5208
914.40 157.5772
914.50 157.6336
914.60 157.69
914.70 157.7464
914.80 157.8028
914.90 157.8592
915.00 157.9156
915.10 157.972
915.20 158.0284
915.30 158.0848
915.40 158.1412
915.50 158.1976
915.60 158.254
915.70 158.3104
915.80 158.3668
915.90 158.4232
916.00 158.4796
916.10 158.536
916.20 158.5924
916.30 158.6488
916.40 158.7102
916.50 158.829
916.60 158.9478
916.70 159.0665
916.80 159.1853
916.90 159.3041
917.00 159.4229
917.10 159.5417
917.20 159.6605
917.30 159.7793
917.40 159.898
917.50 160.0168
917.60 160.1356
917.70 160.2544
917.80 160.3732
917.90 160.492
918.00 160.6107
918.10 160.7295
918.20 160.8483
918.30 160.9671
918.40 161.0859
918.50 161.2047
918.60 161.3234
918.70 161.4422
918.80 161.561
918.90 161.6798
919.00 161.7986
919.10 161.9174
919.20 162.0362
919.30 162.1549
919.40 162.2737
919.50 162.3925
919.60 162.5113
919.70 162.6301
919.80 162.7489
919.90 162.8575
920.00 162.8747
920.10 162.892
920.20 162.9092
920.30 162.9265
920.40 162.9437
920.50 162.961
920.60 162.9782
920.70 162.9955
920.80 163.0127
920.90 163.0299
921.00 163.0472
921.10 163.0644
921.20 163.0817
921.30 163.0989
921.40 163.1162
921.50 163.1334
921.60 163.1507
921.70 163.1679
921.80 163.1852
921.90 163.2024
922.00 163.2197
922.10 163.2369
922.20 163.2541
922.30 163.2714
922.40 163.2886
922.50 163.3059
922.60 163.3231
922.70 163.3404
922.80 163.3576
922.90 163.3749
923.00 163.3921
923.10 163.4094
923.20 163.4266
923.30 163.4438
923.40 163.4611
923.50 163.6852
923.60 163.9225
923.70 164.1599
923.80 164.3972
923.90 164.6345
924.00 164.8718
924.10 165.1092
924.20 165.3465
924.30 165.5838
924.40 165.8211
924.50 166.0585
924.60 166.2958
924.70 166.5331
924.80 166.7704
924.90 167.0078
925.00 167.2451
925.10 167.4824
925.20 167.7197
925.30 167.9571
925.40 168.1944
925.50 168.4317
925.60 168.669
925.70 168.9064
925.80 169.1437
925.90 169.381
926.00 169.6183
926.10 169.8557
926.20 170.093
926.30 170.3303
926.40 170.5677
926.50 170.805
926.60 171.0423
926.70 171.2796
926.80 171.517
926.90 171.7543
927.00 171.8965
927.10 171.9778
927.20 172.0592
927.30 172.1405
927.40 172.2219
927.50 172.3032
927.60 172.3846
927.70 172.466
927.80 172.5473
927.90 172.6287
928.00 172.71
928.10 172.7914
928.20 172.8727
928.30 172.9541
928.40 173.0354
928.50 173.1168
928.60 173.1982
928.70 173.2795
928.80 173.3609
928.90 173.4422
929.00 173.5236
929.10 173.6049
929.20 173.6863
929.30 173.7677
929.40 173.849
929.50 173.9304
929.60 174.0117
929.70 174.0931
929.80 174.1744
929.90 174.2558
930.00 174.3371
930.10 174.4185
930.20 174.4999
930.30 174.5812
930.40 174.6626
930.50 174.7388
930.60 174.7739
930.70 174.8091
930.80 174.8442
930.90 174.8793
931.00 174.9144
931.10 174.9495
931.20 174.9846
931.30 175.0197
931.40 175.0548
931.50 175.0899
931.60 175.1251
931.70 175.1602
931.80 175.1953
931.90 175.2304
932.00 175.2655
932.10 175.3006
932.20 175.3357
932.30 175.3708
932.40 175.4059
932.50 175.441
932.60 175.4762
932.70 175.5113
932.80 175.5464
932.90 175.5815
933.00 175.6166
933.10 175.6517
933.20 175.6868
933.30 175.7219
933.40 175.757
933.50 175.7921
933.60 175.8273
933.70 175.8624
933.80 175.8975
933.90 175.9326
934.00 175.9677
934.10 176.0583
934.20 176.2196
934.30 176.3809
934.40 176.5422
934.50 176.7035
934.60 176.8648
934.70 177.0261
934.80 177.1874
934.90 177.3487
935.00 177.51
935.10 177.6713
935.20 177.8326
935.30 177.9939
935.40 178.1552
935.50 178.3165
935.60 178.4778
935.70 178.6391
935.80 178.8004
935.90 178.9617
936.00 179.123
936.10 179.2843
936.20 179.4456
936.30 179.6069
936.40 179.7682
936.50 179.9295
936.60 180.0908
936.70 180.2521
936.80 180.4134
936.90 180.5747
937.00 180.736
937.10 180.8973
937.20 181.0586
937.30 181.2199
937.40 181.3812
937.50 181.5425
937.60 181.7038
937.70 181.8367
937.80 181.9505
937.90 182.0644
938.00 182.1783
938.10 182.2921
938.20 182.406
938.30 182.5199
938.40 182.6337
938.50 182.7476
938.60 182.8614
938.70 182.9753
938.80 183.0892
938.90 183.203
939.00 183.3169
939.10 183.4307
939.20 183.5446
939.30 183.6585
939.40 183.7723
939.50 183.8862
939.60 184
939.70 184.1139
939.80 184.2278
939.90 184.3416
940.00 184.4555
940.10 184.5694
940.20 184.6832
940.30 184.7971
940.40 184.9109
940.50 185.0248
940.60 185.1387
940.70 185.2525
940.80 185.3664
940.90 185.4802
941.00 185.5941
941.10 185.708
941.20 185.8218
941.30 185.9949
941.40 186.2092
941.50 186.4234
941.60 186.6377
941.70 186.8519
941.80 187.0662
941.90 187.2805
942.00 187.4947
942.10 187.709
942.20 187.9232
942.30 188.1375
942.40 188.3517
942.50 188.566
942.60 188.7803
942.70 188.9945
942.80 189.2088
942.90 189.423
943.00 189.6373
943.10 189.8515
943.20 190.0658
943.30 190.28
943.40 190.4943
943.50 190.7086
943.60 190.9228
943.70 191.1371
943.80 191.3513
943.90 191.5656
944.00 191.7798
944.10 191.9941
944.20 192.2084
944.30 192.4226
944.40 192.6369
944.50 192.8511
944.60 193.0654
944.70 193.2796
944.80 193.4939
944.90 193.6859
945.00 193.8458
945.10 194.0057
945.20 194.1656
945.30 194.3255
945.40 194.4854
945.50 194.6453
945.60 194.8052
945.70 194.9651
945.80 195.125
945.90 195.2849
946.00 195.4448
946.10 195.6047
946.20 195.7646
946.30 195.9245
946.40 196.0844
946.50 196.2443
946.60 196.4042
946.70 196.5641
946.80 196.724
946.90 196.8839
947.00 197.0438
947.10 197.2037
947.20 197.3636
947.30 197.5235
947.40 197.6834
947.50 197.8433
947.60 198.0032
947.70 198.1631
947.80 198.323
947.90 198.4829
948.00 198.6428
948.10 198.8027
948.20 198.9626
948.30 199.1225
948.40 199.2824
948.50 199.4294
948.60 199.4051
948.70 199.3807
948.80 199.3564
948.90 199.332
949.00 199.3077
949.10 199.2833
949.20 199.259
949.30 199.2346
949.40 199.2103
949.50 199.1859
949.60 199.1616
949.70 199.1372
949.80 199.1129
949.90 199.0885
950.00 199.0642
950.10 199.0398
950.20 199.0155
950.30 198.9911
950.40 198.9668
950.50 198.9425
950.60 198.9181
950.70 198.8938
950.80 198.8694
950.90 198.8451
951.00 198.8207
951.10 198.7964
951.20 198.772
951.30 198.7477
951.40 198.7233
951.50 198.699
951.60 198.6746
951.70 198.6503
951.80 198.6259
951.90 198.6016
952.00 198.5772
952.10 198.5529
952.20 198.6075
952.30 198.7243
952.40 198.8411
952.50 198.9579
952.60 199.0747
952.70 199.1915
952.80 199.3082
952.90 199.425
953.00 199.5418
953.10 199.6586
953.20 199.7754
953.30 199.8922
953.40 200.0089
953.50 200.1257
953.60 200.2425
953.70 200.3593
953.80 200.4761
953.90 200.5929
954.00 200.7097
954.10 200.8264
954.20 200.9432
954.30 201.06
954.40 201.1768
954.50 201.2936
954.60 201.4104
954.70 201.5271
954.80 201.6439
954.90 201.7607
955.00 201.8775
955.10 201.9943
955.20 202.1111
955.30 202.2278
955.40 202.3446
955.50 202.4614
955.60 202.5782
955.70 202.695
955.80 202.8118
955.90 202.8452
956.00 202.8694
956.10 202.8935
956.20 202.9177
956.30 202.9419
956.40 202.966
956.50 202.9902
956.60 203.0144
956.70 203.0385
956.80 203.0627
956.90 203.0869
957.00 203.111
957.10 203.1352
957.20 203.1594
957.30 203.1835
957.40 203.2077
957.50 203.2319
957.60 203.256
957.70 203.2802
957.80 203.3044
957.90 203.3285
958.00 203.3527
958.10 203.3769
958.20 203.401
958.30 203.4252
958.40 203.4494
958.50 203.4735
958.60 203.4977
958.70 203.5219
958.80 203.546
958.90 203.5702
959.00 203.5944
959.10 203.6185
959.20 203.6427
959.30 203.6669
959.40 203.691
959.50 203.7143
959.60 203.7251
959.70 203.7359
959.80 203.7467
959.90 203.7575
960.00 203.7683
960.10 203.7791
960.20 203.7899
960.30 203.8007
960.40 203.8115
960.50 203.8223
960.60 203.8331
960.70 203.8439
960.80 203.8547
960.90 203.8655
961.00 203.8763
961.10 203.8871
961.20 203.8979
961.30 203.9087
961.40 203.9195
961.50 203.9303
961.60 203.9411
961.70 203.9519
961.80 203.9627
961.90 203.9735
962.00 203.9843
962.10 203.9951
962.20 204.0059
962.30 204.0167
962.40 204.0275
962.50 204.0383
962.60 204.0491
962.70 204.0599
962.80 204.0707
962.90 204.0815
963.00 204.0923
963.10 204.1031
963.20 204.1275
963.30 204.2901
963.40 204.4527
963.50 204.6153
963.60 204.7779
963.70 204.9405
963.80 205.1031
963.90 205.2657
964.00 205.4283
964.10 205.5908
964.20 205.7534
964.30 205.916
964.40 206.0786
964.50 206.2412
964.60 206.4038
964.70 206.5664
964.80 206.729
964.90 206.8916
965.00 207.0541
965.10 207.2167
965.20 207.3793
965.30 207.5419
965.40 207.7045
965.50 207.8671
965.60 208.0297
965.70 208.1923
965.80 208.3549
965.90 208.5174
966.00 208.68
966.10 208.8426
966.20 209.0052
966.30 209.1678
966.40 209.3304
966.50 209.493
966.60 209.6556
966.70 209.8182
966.80 209.9807
966.90 210.1433
967.00 210.2817
967.10 210.4187
967.20 210.5558
967.30 210.6929
967.40 210.8299
967.50 210.967
967.60 211.104
967.70 211.2411
967.80 211.3782
967.90 211.5152
968.00 211.6523
968.10 211.7894
968.20 211.9264
968.30 212.0635
968.40 212.2006
968.50 212.3376
968.60 212.4747
968.70 212.6117
968.80 212.7488
968.90 212.8859
969.00 213.0229
969.10 213.16
969.20 213.2971
969.30 213.4341
969.40 213.5712
969.50 213.7082
969.60 213.8453
969.70 213.9824
969.80 214.1194
969.90 214.2565
970.00 214.3936
970.10 214.5306
970.20 214.6677
970.30 214.8047
970.40 214.9418
970.50 215.0789
970.60 215.2159
970.70 215.5147
970.80 215.9005
970.90 216.2864
971.00 216.6722
971.10 217.0581
971.20 217.4439
971.30 217.8297
971.40 218.2156
971.50 218.6014
971.60 218.9873
971.70 219.3731
971.80 219.7589
971.90 220.1448
972.00 220.5306
972.10 220.9164
972.20 221.3023
972.30 221.6881
972.40 222.074
972.50 222.4598
972.60 222.8456
972.70 223.2315
972.80 223.6173
972.90 224.0032
973.00 224.389
973.10 224.7748
973.20 225.1607
973.30 225.5465
973.40 225.9324
973.50 226.3182
973.60 226.704
973.70 227.0899
973.80 227.4757
973.90 227.8615
974.00 228.2474
974.10 228.6332
974.20 229.0191
974.30 229.4049
974.40 229.6933
974.50 229.6154
974.60 229.5374
974.70 229.4595
974.80 229.3815
974.90 229.3036
975.00 229.2256
975.10 229.1477
975.20 229.0697
975.30 228.9918
975.40 228.9138
975.50 228.8359
975.60 228.7579
975.70 228.6799
975.80 228.602
975.90 228.524
976.00 228.4461
976.10 228.3681
976.20 228.2902
976.30 228.2122
976.40 228.1343
976.50 228.0563
976.60 227.9784
976.70 227.9004
976.80 227.8225
976.90 227.7445
977.00 227.6665
977.10 227.5886
977.20 227.5106
977.30 227.4327
977.40 227.3547
977.50 227.2768
977.60 227.1988
977.70 227.1209
977.80 227.0429
977.90 226.965
978.00 226.887
978.10 226.8091
978.20 226.7437
978.30 226.6863
978.40 226.6289
978.50 226.5716
978.60 226.5142
978.70 226.4569
978.80 226.3995
978.90 226.3421
979.00 226.2848
979.10 226.2274
979.20 226.17
979.30 226.1127
979.40 226.0553
979.50 225.998
979.60 225.9406
979.70 225.8832
979.80 225.8259
979.90 225.7685
980.00 225.7112
980.10 225.6538
980.20 225.5964
980.30 225.5391
980.40 225.4817
980.50 225.4244
980.60 225.367
980.70 225.3096
980.80 225.2523
980.90 225.1949
981.00 225.1376
981.10 225.0802
981.20 225.0228
981.30 224.9655
981.40 224.9081
981.50 224.8507
981.60 224.7934
981.70 224.736
981.80 224.6787
981.90 224.6213
982.00 224.4835
982.10 224.3327
982.20 224.1819
982.30 224.031
982.40 223.8802
982.50 223.7293
982.60 223.5785
982.70 223.4276
982.80 223.2768
982.90 223.1259
983.00 222.9751
983.10 222.8242
983.20 222.6734
983.30 222.5226
983.40 222.3717
983.50 222.2209
983.60 222.07
983.70 221.9192
983.80 221.7683
983.90 221.6175
984.00 221.4666
984.10 221.3158
984.20 221.1649
984.30 221.0141
984.40 220.8632
984.50 220.7124
984.60 220.5616
984.70 220.4107
984.80 220.2599
984.90 220.109
985.00 219.9582
985.10 219.8073
985.20 219.6565
985.30 219.5056
985.40 219.3548
985.50 219.2039
985.60 219.0531
985.70 218.9023
985.80 218.4608
985.90 218.0103
986.00 217.5598
986.10 217.1093
986.20 216.6589
986.30 216.2084
986.40 215.7579
986.50 215.3074
986.60 214.857
986.70 214.4065
986.80 213.956
986.90 213.5055
987.00 213.0551
987.10 212.6046
987.20 212.1541
987.30 211.7036
987.40 211.2532
987.50 210.8027
987.60 210.3522
987.70 209.9017
987.80 209.4513
987.90 209.0008
988.00 208.5503
988.10 208.0998
988.20 207.6494
988.30 207.1989
988.40 206.7484
988.50 206.2979
988.60 205.8475
988.70 205.397
988.80 204.9465
988.90 204.496
989.00 204.0456
989.10 203.5951
989.20 203.1446
989.30 202.6941
989.40 202.2437
989.50 201.7932
989.60 201.4225
989.70 201.0577
989.80 200.693
989.90 200.3283
990.00 199.9636
990.10 199.5988
990.20 199.2341
990.30 198.8694
990.40 198.5046
990.50 198.1399
990.60 197.7752
990.70 197.4105
990.80 197.0457
990.90 196.681
991.00 196.3163
991.10 195.9516
991.20 195.5868
991.30 195.2221
991.40 194.8574
991.50 194.4926
991.60 194.1279
991.70 193.7632
991.80 193.3985
991.90 193.0337
992.00 192.669
992.10 192.3043
992.20 191.9396
992.30 191.5748
992.40 191.2101
992.50 190.8454
992.60 190.4806
992.70 190.1159
992.80 189.7512
992.90 189.3865
993.00 189.0217
993.10 188.657
993.20 188.2923
993.30 187.9276
993.40 187.6353
993.50 187.3672
993.60 187.0991
993.70 186.831
993.80 186.563
993.90 186.2949
994.00 186.0268
994.10 185.7587
994.20 185.4906
994.30 185.2225
994.40 184.9544
994.50 184.6863
994.60 184.4183
994.70 184.1502
994.80 183.8821
994.90 183.614
995.00 183.3459
995.10 183.0778
995.20 182.8097
995.30 182.5416
995.40 182.2735
995.50 182.0055
995.60 181.7374
995.70 181.4693
995.80 181.2012
995.90 180.9331
996.00 180.665
996.10 180.3969
996.20 180.1288
996.30 179.8608
996.40 179.5927
996.50 179.3246
996.60 179.0565
996.70 178.7884
996.80 178.5203
996.90 178.2522
997.00 177.9841
997.10 177.716
997.20 177.6394
997.30 177.8271
997.40 178.0147
997.50 178.2024
997.60 178.3901
997.70 178.5778
997.80 178.7654
997.90 178.9531
998.00 179.1408
998.10 179.3285
998.20 179.5161
998.30 179.7038
998.40 179.8915
998.50 180.0792
998.60 180.2669
998.70 180.4545
998.80 180.6422
998.90 180.8299
999.00 181.0176
999.10 181.2052
999.20 181.3929
999.30 181.5806
999.40 181.7683
999.50 181.9559
999.60 182.1436
999.70 182.3313
999.80 182.519
999.90 182.7066
1000.00 182.8943
1000.10 183.082
1000.20 183.2697
1000.30 183.4574
1000.40 183.645
1000.50 183.8327
1000.60 184.0204
1000.70 184.2081
1000.80 184.3957
1000.90 184.5834
1001.00 184.7711
1001.10 184.9149
1001.20 185.0587
1001.30 185.2025
1001.40 185.3463
1001.50 185.4901
1001.60 185.634
1001.70 185.7778
1001.80 185.9216
1001.90 186.0654
1002.00 186.2092
1002.10 186.353
1002.20 186.4968
1002.30 186.6406
1002.40 186.7845
1002.50 186.9283
1002.60 187.0721
1002.70 187.2159
1002.80 187.3597
1002.90 187.5035
1003.00 187.6473
1003.10 187.7911
1003.20 187.9349
1003.30 188.0788
1003.40 188.2226
1003.50 188.3664
1003.60 188.5102
1003.70 188.654
1003.80 188.7978
1003.90 188.9416
1004.00 189.0854
1004.10 189.2292
1004.20 189.3731
1004.30 189.5169
1004.40 189.6607
1004.50 189.8045
1004.60 189.9483
1004.70 190.0921
1004.80 190.2359
1004.90 190.4066
1005.00 190.6176
1005.10 190.8286
1005.20 191.0395
1005.30 191.2505
1005.40 191.4615
1005.50 191.6724
1005.60 191.8834
1005.70 192.0944
1005.80 192.3054
1005.90 192.5163
1006.00 192.7273
1006.10 192.9383
1006.20 193.1492
1006.30 193.3602
1006.40 193.5712
1006.50 193.7822
1006.60 193.9931
1006.70 194.2041
1006.80 194.4151
1006.90 194.6261
1007.00 194.837
1007.10 195.048
1007.20 195.259
1007.30 195.4699
1007.40 195.6809
1007.50 195.8919
1007.60 196.1029
1007.70 196.3138
1007.80 196.5248
1007.90 196.7358
1008.00 196.9468
1008.10 197.1577
1008.20 197.3687
1008.30 197.5797
1008.40 197.7906
1008.50 198.0016
1008.60 198.2126
1008.70 198.4236
1008.80 198.6214
1008.90 198.8105
1009.00 198.9996
1009.10 199.1888
1009.20 199.3779
1009.30 199.567
1009.40 199.7561
1009.50 199.9452
1009.60 200.1343
1009.70 200.3234
1009.80 200.5125
1009.90 200.7016
1010.00 200.8907
1010.10 201.0799
1010.20 201.269
1010.30 201.4581
1010.40 201.6472
1010.50 201.8363
1010.60 202.0254
1010.70 202.2145
1010.80 202.4036
1010.90 202.5927
1011.00 202.7818
1011.10 202.971
1011.20 203.1601
1011.30 203.3492
1011.40 203.5383
1011.50 203.7274
1011.60 203.9165
1011.70 204.1056
1011.80 204.2947
1011.90 204.4838
1012.00 204.673
1012.10 204.8621
1012.20 205.0512
1012.30 205.2403
1012.40 205.4294
1012.50 205.6185
1012.60 205.8076
1012.70 205.9197
1012.80 206.0125
1012.90 206.1053
1013.00 206.1981
1013.10 206.2909
1013.20 206.3837
1013.30 206.4765
1013.40 206.5693
1013.50 206.6621
1013.60 206.7549
1013.70 206.8477
1013.80 206.9405
1013.90 207.0333
1014.00 207.1261
1014.10 207.2189
1014.20 207.3117
1014.30 207.4045
1014.40 207.4973
1014.50 207.5901
1014.60 207.6829
1014.70 207.7757
1014.80 207.8685
1014.90 207.9613
1015.00 208.0541
1015.10 208.1469
1015.20 208.2397
1015.30 208.3325
1015.40 208.4253
1015.50 208.5181
1015.60 208.6109
1015.70 208.7037
1015.80 208.7965
1015.90 208.8893
1016.00 208.9821
1016.10 209.0749
1016.20 209.1677
1016.30 209.2605
1016.40 209.3533
1016.50 209.4461
1016.60 209.4096
1016.70 209.3407
1016.80 209.2718
1016.90 209.2029
1017.00 209.134
1017.10 209.0652
1017.20 208.9963
1017.30 208.9274
1017.40 208.8585
1017.50 208.7896
1017.60 208.7207
1017.70 208.6518
1017.80 208.5829
1017.90 208.514
1018.00 208.4452
1018.10 208.3763
1018.20 208.3074
1018.30 208.2385
1018.40 208.1696
1018.50 208.1007
1018.60 208.0318
1018.70 207.9629
1018.80 207.894
1018.90 207.8251
1019.00 207.7563
1019.10 207.6874
1019.20 207.6185
1019.30 207.5496
1019.40 207.4807
1019.50 207.4118
1019.60 207.3429
1019.70 207.274
1019.80 207.2051
1019.90 207.1363
1020.00 207.0674
1020.10 206.9985
1020.20 206.9296
1020.30 206.8607
1020.40 206.7918
1020.50 206.9128
1020.60 207.1605
1020.70 207.4081
1020.80 207.6558
1020.90 207.9034
1021.00 208.1511
1021.10 208.3987
1021.20 208.6464
1021.30 208.894
1021.40 209.1416
1021.50 209.3893
1021.60 209.6369
1021.70 209.8846
1021.80 210.1322
1021.90 210.3799
1022.00 210.6275
1022.10 210.8752
1022.20 211.1228
1022.30 211.3704
1022.40 211.6181
1022.50 211.8657
1022.60 212.1134
1022.70 212.361
1022.80 212.6087
1022.90 212.8563
1023.00 213.1039
1023.10 213.3516
1023.20 213.5992
1023.30 213.8469
1023.40 214.0945
1023.50 214.3422
1023.60 214.5898
1023.70 214.8375
1023.80 215.0851
1023.90 215.3327
1024.00 215.5804
1024.10 215.828
1024.20 216.0757
1024.30 216.3233
1024.40 216.4749
1024.50 216.4824
1024.60 216.49
1024.70 216.4975
1024.80 216.505
1024.90 216.5125
1025.00 216.5201
1025.10 216.5276
1025.20 216.5351
1025.30 216.5426
1025.40 216.5502
1025.50 216.5577
1025.60 216.5652
1025.70 216.5727
1025.80 216.5803
1025.90 216.5878
1026.00 216.5953
1026.10 216.6028
1026.20 216.6104
1026.30 216.6179
1026.40 216.6254
1026.50 216.6329
1026.60 216.6405
1026.70 216.648
1026.80 216.6555
1026.90 216.663
1027.00 216.6705
1027.10 216.6781
1027.20 216.6856
1027.30 216.6931
1027.40 216.7006
1027.50 216.7082
1027.60 216.7157
1027.70 216.7232
1027.80 216.7307
1027.90 216.7383
1028.00 216.7458
1028.10 216.7533
1028.20 216.7608
1028.30 216.7684
1028.40 217.0235
1028.50 217.2786
1028.60 217.5337
1028.70 217.7889
1028.80 218.044
1028.90 218.2991
1029.00 218.5543
1029.10 218.8094
1029.20 219.0645
1029.30 219.3196
1029.40 219.5748
1029.50 219.8299
1029.60 220.085
1029.70 220.3402
1029.80 220.5953
1029.90 220.8504
1030.00 221.1055
1030.10 221.3607
1030.20 221.6158
1030.30 221.8709
1030.40 222.1261
1030.50 222.3812
1030.60 222.6363
1030.70 222.8914
1030.80 223.1466
1030.90 223.4017
1031.00 223.6568
1031.10 223.912
1031.20 224.1671
1031.30 224.4222
1031.40 224.6773
1031.50 224.9325
1031.60 225.1876
1031.70 225.4427
1031.80 225.6979
1031.90 225.953
1032.00 226.2081
1032.10 226.4632
1032.20 226.7184
1032.30 226.8983
1032.40 227.003
1032.50 227.1077
1032.60 227.2125
1032.70 227.3172
1032.80 227.4219
1032.90 227.5266
1033.00 227.6313
1033.10 227.736
1033.20 227.8408
1033.30 227.9455
1033.40 228.0502
1033.50 228.1549
1033.60 228.2596
1033.70 228.3643
1033.80 228.4691
1033.90 228.5738
1034.00 228.6785
1034.10 228.7832
1034.20 228.8879
1034.30 228.9926
1034.40 229.0974
1034.50 229.2021
1034.60 229.3068
1034.70 229.4115
1034.80 229.5162
1034.90 229.6209
1035.00 229.7257
1035.10 229.8304
1035.20 229.9351
1035.30 230.0398
1035.40 230.1445
1035.50 230.2492
1035.60 230.354
1035.70 230.4587
1035.80 230.5634
1035.90 230.6681
1036.00 230.7728
1036.10 230.8775
1036.20 230.9823
1036.30 231.1851
1036.40 231.4125
1036.50 231.6398
1036.60 231.8672
1036.70 232.0946
1036.80 232.322
1036.90 232.5493
1037.00 232.7767
1037.10 233.0041
1037.20 233.2315
1037.30 233.4588
1037.40 233.6862
1037.50 233.9136
1037.60 234.1409
1037.70 234.3683
1037.80 234.5957
1037.90 234.8231
1038.00 235.0504
1038.10 235.2778
1038.20 235.5052
1038.30 235.7326
1038.40 235.9599
1038.50 236.1873
1038.60 236.4147
1038.70 236.6421
1038.80 236.8694
1038.90 237.0968
1039.00 237.3242
1039.10 237.5515
1039.20 237.7789
1039.30 238.0063
1039.40 238.2337
1039.50 238.461
1039.60 238.6884
1039.70 238.9158
1039.80 239.1432
1039.90 239.3705
1040.00 239.5979
1040.10 239.8253
1040.20 240.0574
1040.30 240.3319
1040.40 240.6064
1040.50 240.8809
1040.60 241.1555
1040.70 241.43
1040.80 241.7045
1040.90 241.979
1041.00 242.2536
1041.10 242.5281
1041.20 242.8026
1041.30 243.0771
1041.40 243.3516
1041.50 243.6262
1041.60 243.9007
1041.70 244.1752
1041.80 244.4497
1041.90 244.7243
1042.00 244.9988
1042.10 245.2733
1042.20 245.5478
1042.30 245.8224
1042.40 246.0969
1042.50 246.3714
1042.60 246.6459
1042.70 246.9204
1042.80 247.195
1042.90 247.4695
1043.00 247.744
1043.10 248.0185
1043.20 248.2931
1043.30 248.5676
1043.40 248.8421
1043.50 249.1166
1043.60 249.3912
1043.70 249.6657
1043.80 249.9402
1043.90 250.2147
1044.00 250.4893
1044.10 250.7638
1044.20 250.9891
1044.30 251.0175
1044.40 251.0459
1044.50 251.0743
1044.60 251.1027
1044.70 251.1311
1044.80 251.1595
1044.90 251.1879
1045.00 251.2163
1045.10 251.2447
1045.20 251.273
1045.30 251.3014
1045.40 251.3298
1045.50 251.3582
1045.60 251.3866
1045.70 251.415
1045.80 251.4434
1045.90 251.4718
1046.00 251.5002
1046.10 251.5286
1046.20 251.557
1046.30 251.5854
1046.40 251.6138
1046.50 251.6422
1046.60 251.6706
1046.70 251.699
1046.80 251.7274
1046.90 251.7558
1047.00 251.7842
1047.10 251.8126
1047.20 251.841
1047.30 251.8694
1047.40 251.8978
1047.50 251.9262
1047.60 251.9546
1047.70 251.983
1047.80 252.0114
1047.90 252.0398
1048.00 252.0682
1048.10 252.0966
1048.20 252.0946
1048.30 252.0217
1048.40 251.9487
1048.50 251.8758
1048.60 251.8029
1048.70 251.7299
1048.80 251.657
1048.90 251.5841
1049.00 251.5111
1049.10 251.4382
1049.20 251.3653
1049.30 251.2923
1049.40 251.2194
1049.50 251.1465
1049.60 251.0736
1049.70 251.0006
1049.80 250.9277
1049.90 250.8548
1050.00 250.7818
1050.10 250.7089
1050.20 250.636
1050.30 250.563
1050.40 250.4901
1050.50 250.4172
1050.60 250.3442
1050.70 250.2713
1050.80 250.1984
1050.90 250.1255
1051.00 250.0525
1051.10 249.9796
1051.20 249.9067
1051.30 249.8337
1051.40 249.7608
1051.50 249.6879
1051.60 249.6149
1051.70 249.542
1051.80 249.4691
1051.90 249.3961
1052.00 249.3232
1052.10 249.2503
1052.20 249.2577
1052.30 249.5862
1052.40 249.9148
1052.50 250.2433
1052.60 250.5719
1052.70 250.9004
1052.80 251.229
1052.90 251.5576
1053.00 251.8861
1053.10 252.2147
1053.20 252.5432
1053.30 252.8718
1053.40 253.2003
1053.50 253.5289
1053.60 253.8574
1053.70 254.186
1053.80 254.5146
1053.90 254.8431
1054.00 255.1717
1054.10 255.5002
1054.20 255.8288
1054.30 256.1573
1054.40 256.4859
1054.50 256.8145
1054.60 257.143
1054.70 257.4716
1054.80 257.8001
1054.90 258.1287
1055.00 258.4572
1055.10 258.7858
1055.20 259.1144
1055.30 259.4429
1055.40 259.7715
1055.50 260.1
1055.60 260.4286
1055.70 260.7571
1055.80 261.0857
1055.90 261.4143
1056.00 261.7428
1056.10 262.0714
1056.20 262.3999
1056.30 262.3743
1056.40 262.3486
1056.50 262.3229
1056.60 262.2972
1056.70 262.2716
1056.80 262.2459
1056.90 262.2202
1057.00 262.1946
1057.10 262.1689
1057.20 262.1432
1057.30 262.1176
1057.40 262.0919
1057.50 262.0662
1057.60 262.0406
1057.70 262.0149
1057.80 261.9892
1057.90 261.9635
1058.00 261.9379
1058.10 261.9122
1058.20 261.8865
1058.30 261.8609
1058.40 261.8352
1058.50 261.8095
1058.60 261.7839
1058.70 261.7582
1058.80 261.7325
1058.90 261.7069
1059.00 261.6812
1059.10 261.6555
1059.20 261.6298
1059.30 261.6042
1059.40 261.5785
1059.50 261.5528
1059.60 261.5272
1059.70 261.5015
1059.80 261.4758
1059.90 261.4502
1060.00 261.4245
1060.10 261.3988
1060.20 261.3731
1060.30 261.4502
1060.40 261.5957
1060.50 261.7412
1060.60 261.8867
1060.70 262.0322
1060.80 262.1777
1060.90 262.3232
1061.00 262.4687
1061.10 262.6142
1061.20 262.7598
1061.30 262.9053
1061.40 263.0508
1061.50 263.1963
1061.60 263.3418
1061.70 263.4873
1061.80 263.6328
1061.90 263.7783
1062.00 263.9238
1062.10 264.0693
1062.20 264.2148
1062.30 264.3603
1062.40 264.5058
1062.50 264.6513
1062.60 264.7969
1062.70 264.9424
1062.80 265.0879
1062.90 265.2334
1063.00 265.3789
1063.10 265.5244
1063.20 265.6699
1063.30 265.8154
1063.40 265.9609
1063.50 266.1064
1063.60 266.2519
1063.70 266.3974
1063.80 266.5429
1063.90 266.6885
1064.00 266.834
1064.10 266.9795
1064.20 267.125
1064.30 267.2626
1064.40 267.3685
1064.50 267.4744
1064.60 267.5804
1064.70 267.6863
1064.80 267.7922
1064.90 267.8982
1065.00 268.0041
1065.10 268.11
1065.20 268.216
1065.30 268.3219
1065.40 268.4279
1065.50 268.5338
1065.60 268.6397
1065.70 268.7457
1065.80 268.8516
1065.90 268.9575
1066.00 269.0635
1066.10 269.1694
1066.20 269.2753
1066.30 269.3813
1066.40 269.4872
1066.50 269.5931
1066.60 269.6991
1066.70 269.805
1066.80 269.911
1066.90 270.0169
1067.00 270.1228
1067.10 270.2288
1067.20 270.3347
1067.30 270.4406
1067.40 270.5466
1067.50 270.6525
1067.60 270.7584
1067.70 270.8644
1067.80 270.9703
1067.90 271.0762
1068.00 271.1822
1068.10 271.2881
1068.20 271.394
1068.30 271.5
1068.40 271.6994
1068.50 271.9389
1068.60 272.1784
1068.70 272.4178
1068.80 272.6573
1068.90 272.8968
1069.00 273.1363
1069.10 273.3758
1069.20 273.6152
1069.30 273.8547
1069.40 274.0942
1069.50 274.3337
1069.60 274.5732
1069.70 274.8127
1069.80 275.0521
1069.90 275.2916
1070.00 275.5311
1070.10 275.7706
1070.20 276.0101
1070.30 276.2495
1070.40 276.489
1070.50 276.7285
1070.60 276.968
1070.70 277.2075
1070.80 277.4469
1070.90 277.6864
1071.00 277.9259
1071.10 278.1654
1071.20 278.4049
1071.30 278.6443
1071.40 278.8838
1071.50 279.1233
1071.60 279.3628
1071.70 279.6023
1071.80 279.8418
1071.90 280.0812
1072.00 280.3207
1072.10 280.5602
1072.20 280.7997
1072.30 281.0392
1072.40 281.2583
1072.50 281.2949
1072.60 281.3314
1072.70 281.3679
1072.80 281.4044
1072.90 281.441
1073.00 281.4775
1073.10 281.514
1073.20 281.5506
1073.30 281.5871
1073.40 281.6236
1073.50 281.6601
1073.60 281.6967
1073.70 281.7332
1073.80 281.7697
1073.90 281.8062
1074.00 281.8428
1074.10 281.8793
1074.20 281.9158
1074.30 281.9523
1074.40 281.9889
1074.50 282.0254
1074.60 282.0619
1074.70 282.0985
1074.80 282.135
1074.90 282.1715
1075.00 282.208
1075.10 282.2446
1075.20 282.2811
1075.30 282.3176
1075.40 282.3541
1075.50 282.3907
1075.60 282.4272
1075.70 282.4637
1075.80 282.5002
1075.90 282.5368
1076.00 282.5733
1076.10 282.6098
1076.20 282.6464
1076.30 282.6829
1076.40 282.7194
1076.50 282.8382
1076.60 283.0804
1076.70 283.3226
1076.80 283.5648
1076.90 283.807
1077.00 284.0491
1077.10 284.2913
1077.20 284.5335
1077.30 284.7757
1077.40 285.0179
1077.50 285.2601
1077.60 285.5023
1077.70 285.7445
1077.80 285.9867
1077.90 286.2288
1078.00 286.471
1078.10 286.7132
1078.20 286.9554
1078.30 287.1976
1078.40 287.4398
1078.50 287.682
1078.60 287.9242
1078.70 288.1664
1078.80 288.4085
1078.90 288.6507
1079.00 288.8929
1079.10 289.1351
1079.20 289.3773
1079.30 289.6195
1079.40 289.8617
1079.50 290.1039
1079.60 290.3461
1079.70 290.5882
1079.80 290.8304
1079.90 291.0726
1080.00 291.3148
1080.10 291.557
1080.20 291.7992
1080.30 292.0414
1080.40 292.2836
1080.50 292.5258
1080.60 292.6889
1080.70 292.773
1080.80 292.8571
1080.90 292.9412
1081.00 293.0252
1081.10 293.1093
1081.20 293.1934
1081.30 293.2775
1081.40 293.3616
1081.50 293.4457
1081.60 293.5298
1081.70 293.6139
1081.80 293.698
1081.90 293.782
1082.00 293.8661
1082.10 293.9502
1082.20 294.0343
1082.30 294.1184
1082.40 294.2025
1082.50 294.2866
1082.60 294.3707
1082.70 294.4547
1082.80 294.5388
1082.90 294.6229
1083.00 294.707
1083.10 294.7911
1083.20 294.8752
1083.30 294.9593
1083.40 295.0434
1083.50 295.1275
1083.60 295.2115
1083.70 295.2956
1083.80 295.3797
1083.90 295.4638
1084.00 295.5479
1084.10 295.632
1084.20 295.7161
1084.30 295.8002
1084.40 295.8843
1084.50 295.9683
1084.60 296.0524
1084.70 296.2017
1084.80 296.3943
1084.90 296.587
1085.00 296.7796
1085.10 296.9723
1085.20 297.165
1085.30 297.3576
1085.40 297.5503
1085.50 297.743
1085.60 297.9356
1085.70 298.1283
1085.80 298.3209
1085.90 298.5136
1086.00 298.7063
1086.10 298.8989
1086.20 299.0916
1086.30 299.2842
1086.40 299.4769
1086.50 299.6696
1086.60 299.8622
1086.70 300.0549
1086.80 300.2475
1086.90 300.4402
1087.00 300.6329
1087.10 300.8255
1087.20 301.0182
1087.30 301.2109
1087.40 301.4035
1087.50 301.5962
1087.60 301.7888
1087.70 301.9815
1087.80 302.1742
1087.90 302.3668
1088.00 302.5595
1088.10 302.7521
1088.20 302.9448
1088.30 303.1375
1088.40 303.3301
1088.50 303.5228
1088.60 303.7154
1088.70 303.9081
1088.80 304.0693
1088.90 304.2095
1089.00 304.3496
1089.10 304.4898
1089.20 304.63
1089.30 304.7702
1089.40 304.9104
1089.50 305.0505
1089.60 305.1907
1089.70 305.3309
1089.80 305.4711
1089.90 305.6113
1090.00 305.7514
1090.10 305.8916
1090.20 306.0318
1090.30 306.172
1090.40 306.3121
1090.50 306.4523
1090.60 306.5925
1090.70 306.7327
1090.80 306.8729
1090.90 307.013
1091.00 307.1532
1091.10 307.2934
1091.20 307.4336
1091.30 307.5738
1091.40 307.7139
1091.50 307.8541
1091.60 307.9943
1091.70 308.1345
1091.80 308.2747
1091.90 308.4148
1092.00 308.555
1092.10 308.6952
1092.20 308.8354
1092.30 308.9756
1092.40 309.1157
1092.50 309.2559
1092.60 309.3961
1092.70 309.5363
1092.80 309.6765
1092.90 309.8245
1093.00 309.9804
1093.10 310.1363
1093.20 310.2922
1093.30 310.4481
1093.40 310.604
1093.50 310.7599
1093.60 310.9158
1093.70 311.0718
1093.80 311.2277
1093.90 311.3836
1094.00 311.5395
1094.10 311.6954
1094.20 311.8513
1094.30 312.0072
1094.40 312.1631
1094.50 312.319
1094.60 312.4749
1094.70 312.6308
1094.80 312.7867
1094.90 312.9426
1095.00 313.0986
1095.10 313.2545
1095.20 313.4104
1095.30 313.5663
1095.40 313.7222
1095.50 313.8781
1095.60 314.034
1095.70 314.1899
1095.80 314.3458
1095.90 314.5017
1096.00 314.6576
1096.10 314.8135
1096.20 314.9694
1096.30 315.1254
1096.40 315.2813
1096.50 315.4372
1096.60 315.5931
1096.70 315.749
1096.80 315.9049
1096.90 316.0608
1097.00 316.1555
1097.10 316.1072
1097.20 316.059
1097.30 316.0107
1097.40 315.9625
1097.50 315.9143
1097.60 315.866
1097.70 315.8178
1097.80 315.7696
1097.90 315.7213
1098.00 315.6731
1098.10 315.6248
1098.20 315.5766
1098.30 315.5284
1098.40 315.4801
1098.50 315.4319
1098.60 315.3836
1098.70 315.3354
1098.80 315.2872
1098.90 315.2389
1099.00 315.1907
1099.10 315.1425
1099.20 315.0942
1099.30 315.046
1099.40 314.9977
1099.50 314.9495
1099.60 314.9013
1099.70 314.853
1099.80 314.8048
1099.90 314.7566
1100.00 314.7083
1100.10 314.6601
1100.20 314.6118
1100.30 314.5636
1100.40 314.5154
1100.50 314.4671
1100.60 314.4189
1100.70 314.3706
1100.80 314.3224
1100.90 314.2742
1101.00 314.2259
1101.10 314.1777
1101.20 314.1769
1101.30 314.1762
1101.40 314.1754
1101.50 314.1747
1101.60 314.1739
1101.70 314.1732
1101.80 314.1724
1101.90 314.1717
1102.00 314.1709
1102.10 314.1701
1102.20 314.1694
1102.30 314.1686
1102.40 314.1679
1102.50 314.1671
1102.60 314.1664
1102.70 314.1656
1102.80 314.1648
1102.90 314.1641
1103.00 314.1633
1103.10 314.1626
1103.20 314.1618
1103.30 314.1611
1103.40 314.1603
1103.50 314.1596
1103.60 314.1588
1103.70 314.158
1103.80 314.1573
1103.90 314.1565
1104.00 314.1558
1104.10 314.155
1104.20 314.1543
1104.30 314.1535
1104.40 314.1528
1104.50 314.152
1104.60 314.1512
1104.70 314.1505
1104.80 314.1497
1104.90 314.149
1105.00 314.1482
1105.10 314.1475
1105.20 314.1467
1105.30 314.1202
1105.40 314.0766
1105.50 314.033
1105.60 313.9894
1105.70 313.9457
1105.80 313.9021
1105.90 313.8585
1106.00 313.8149
1106.10 313.7713
1106.20 313.7276
1106.30 313.684
1106.40 313.6404
1106.50 313.5968
1106.60 313.5531
1106.70 313.5095
1106.80 313.4659
1106.90 313.4223
1107.00 313.3786
1107.10 313.335
1107.20 313.2914
1107.30 313.2478
1107.40 313.2042
1107.50 313.1605
1107.60 313.1169
1107.70 313.0733
1107.80 313.0297
1107.90 312.986
1108.00 312.9424
1108.10 312.8988
1108.20 312.8552
1108.30 312.8115
1108.40 312.7679
1108.50 312.7243
1108.60 312.6807
1108.70 312.6371
1108.80 312.5934
1108.90 312.5498
1109.00 312.5062
1109.10 312.4626
1109.20 312.4189
1109.30 312.3753
1109.40 312.353
1109.50 312.416
1109.60 312.479
1109.70 312.542
1109.80 312.6051
1109.90 312.6681
1110.00 312.7311
1110.10 312.7941
1110.20 312.8571
1110.30 312.9201
1110.40 312.9831
1110.50 313.0461
1110.60 313.1091
1110.70 313.1721
1110.80 313.2351
1110.90 313.2981
1111.00 313.3612
1111.10 313.4242
1111.20 313.4872
1111.30 313.5502
1111.40 313.6132
1111.50 313.6762
1111.60 313.7392
1111.70 313.8022
1111.80 313.8652
1111.90 313.9282
1112.00 313.9912
1112.10 314.0542
1112.20 314.1173
1112.30 314.1803
1112.40 314.2433
1112.50 314.3063
1112.60 314.3693
1112.70 314.4323
1112.80 314.4953
1112.90 314.5583
1113.00 314.6213
1113.10 314.6843
1113.20 314.7473
1113.30 314.8103
1113.40 314.8734
1113.50 314.9364
1113.60 315.0236
1113.70 315.127
1113.80 315.2303
1113.90 315.3337
1114.00 315.4371
1114.10 315.5404
1114.20 315.6438
1114.30 315.7472
1114.40 315.8506
1114.50 315.9539
1114.60 316.0573
1114.70 316.1607
1114.80 316.264
1114.90 316.3674
1115.00 316.4708
1115.10 316.5741
1115.20 316.6775
1115.30 316.7809
1115.40 316.8843
1115.50 316.9876
1115.60 317.091
1115.70 317.1944
1115.80 317.2977
1115.90 317.4011
1116.00 317.5045
1116.10 317.6078
1116.20 317.7112
1116.30 317.8146
1116.40 317.918
1116.50 318.0213
1116.60 318.1247
1116.70 318.2281
1116.80 318.3314
1116.90 318.4348
1117.00 318.5382
1117.10 318.6415
1117.20 318.7449
1117.30 318.8483
1117.40 318.9517
1117.50 319.055
1117.60 319.1584
1117.70 319.2618
1117.80 319.3431
1117.90 319.4244
1118.00 319.5057
1118.10 319.5871
1118.20 319.6684
1118.30 319.7497
1118.40 319.831
1118.50 319.9124
1118.60 319.9937
1118.70 320.075
1118.80 320.1563
1118.90 320.2377
1119.00 320.319
1119.10 320.4003
1119.20 320.4816
1119.30 320.563
1119.40 320.6443
1119.50 320.7256
1119.60 320.8069
1119.70 320.8882
1119.80 320.9696
1119.90 321.0509
1120.00 321.1322
1120.10 321.2135
1120.20 321.2949
1120.30 321.3762
1120.40 321.4575
1120.50 321.5388
1120.60 321.6202
1120.70 321.7015
1120.80 321.7828
1120.90 321.8641
1121.00 321.9455
1121.10 322.0268
1121.20 322.1081
1121.30 322.1894
1121.40 322.2708
1121.50 322.3521
1121.60 322.4334
1121.70 322.5147
1121.80 322.596
1121.90 322.6264
1122.00 322.538
1122.10 322.4495
1122.20 322.361
1122.30 322.2726
1122.40 322.1841
1122.50 322.0956
1122.60 322.0072
1122.70 321.9187
1122.80 321.8302
1122.90 321.7418
1123.00 321.6533
1123.10 321.5649
1123.20 321.4764
1123.30 321.3879
1123.40 321.2995
1123.50 321.211
1123.60 321.1225
1123.70 321.0341
1123.80 320.9456
1123.90 320.8571
1124.00 320.7687
1124.10 320.6802
1124.20 320.5917
1124.30 320.5033
1124.40 320.4148
1124.50 320.3263
1124.60 320.2379
1124.70 320.1494
1124.80 320.0609
1124.90 319.9725
1125.00 319.884
1125.10 319.7956
1125.20 319.7071
1125.30 319.6186
1125.40 319.5302
1125.50 319.4417
1125.60 319.3532
1125.70 319.2648
1125.80 319.1763
1125.90 319.0878
1126.00 318.9994
1126.10 318.8886
1126.20 318.7556
1126.30 318.6225
1126.40 318.4895
1126.50 318.3565
1126.60 318.2234
1126.70 318.0904
1126.80 317.9574
1126.90 317.8243
1127.00 317.6913
1127.10 317.5582
1127.20 317.4252
1127.30 317.2922
1127.40 317.1591
1127.50 317.0261
1127.60 316.8931
1127.70 316.76
1127.80 316.627
1127.90 316.4939
1128.00 316.3609
1128.10 316.2279
1128.20 316.0948
1128.30 315.9618
1128.40 315.8288
1128.50 315.6957
1128.60 315.5627
1128.70 315.4297
1128.80 315.2966
1128.90 315.1636
1129.00 315.0305
1129.10 314.8975
1129.20 314.7645
1129.30 314.6314
1129.40 314.4984
1129.50 314.3654
1129.60 314.2323
1129.70 314.0993
1129.80 313.9662
1129.90 313.8332
1130.00 313.7002
1130.10 313.5671
1130.20 313.4341
1130.30 313.2247
1130.40 312.9826
1130.50 312.7405
1130.60 312.4984
1130.70 312.2563
1130.80 312.0141
1130.90 311.772
1131.00 311.5299
1131.10 311.2878
1131.20 311.0457
1131.30 310.8036
1131.40 310.5615
1131.50 310.3194
1131.60 310.0772
1131.70 309.8351
1131.80 309.593
1131.90 309.3509
1132.00 309.1088
1132.10 308.8667
1132.20 308.6246
1132.30 308.3825
1132.40 308.1403
1132.50 307.8982
1132.60 307.6561
1132.70 307.414
1132.80 307.1719
1132.90 306.9298
1133.00 306.6877
1133.10 306.4456
1133.20 306.2034
1133.30 305.9613
1133.40 305.7192
1133.50 305.4771
1133.60 305.235
1133.70 304.9929
1133.80 304.7508
1133.90 304.5087
1134.00 304.2665
1134.10 304.0244
1134.20 303.7823
1134.30 303.5402
1134.40 303.2981
1134.50 303.2137
1134.60 303.1687
1134.70 303.1237
1134.80 303.0786
1134.90 303.0336
1135.00 302.9886
1135.10 302.9436
1135.20 302.8986
1135.30 302.8536
1135.40 302.8086
1135.50 302.7636
1135.60 302.7186
1135.70 302.6736
1135.80 302.6285
1135.90 302.5835
1136.00 302.5385
1136.10 302.4935
1136.20 302.4485
1136.30 302.4035
1136.40 302.3585
1136.50 302.3135
1136.60 302.2685
1136.70 302.2235
1136.80 302.1785
1136.90 302.1334
1137.00 302.0884
1137.10 302.0434
1137.20 301.9984
1137.30 301.9534
1137.40 301.9084
1137.50 301.8634
1137.60 301.8184
1137.70 301.7734
1137.80 301.7284
1137.90 301.6834
1138.00 301.6383
1138.10 301.5933
1138.20 301.5483
1138.30 301.5033
1138.40 301.4583
1138.50 301.4133
1138.60 301.3683
1138.70 301.5233
1138.80 301.7284
1138.90 301.9334
1139.00 302.1384
1139.10 302.3435
1139.20 302.5485
1139.30 302.7536
1139.40 302.9586
1139.50 303.1636
1139.60 303.3687
1139.70 303.5737
1139.80 303.7788
1139.90 303.9838
1140.00 304.1888
1140.10 304.3939
1140.20 304.5989
1140.30 304.804
1140.40 305.009
1140.50 305.214
1140.60 305.4191
1140.70 305.6241
1140.80 305.8292
1140.90 306.0342
1141.00 306.2392
1141.10 306.4443
1141.20 306.6493
1141.30 306.8544
1141.40 307.0594
1141.50 307.2644
1141.60 307.4695
1141.70 307.6745
1141.80 307.8796
1141.90 308.0846
1142.00 308.2896
1142.10 308.4947
1142.20 308.6997
1142.30 308.9048
1142.40 309.1098
1142.50 309.3148
1142.60 309.5199
1142.70 309.7249
1142.80 309.93
1142.90 310.4287
1143.00 311.0009
1143.10 311.573
1143.20 312.1452
1143.30 312.7173
1143.40 313.2895
1143.50 313.8617
1143.60 314.4338
1143.70 315.006
1143.80 315.5781
1143.90 316.1503
1144.00 316.7224
1144.10 317.2946
1144.20 317.8668
1144.30 318.4389
1144.40 319.0111
1144.50 319.5832
1144.60 320.1554
1144.70 320.7276
1144.80 321.2997
1144.90 321.8719
1145.00 322.444
1145.10 323.0162
1145.20 323.5883
1145.30 324.1605
1145.40 324.7327
1145.50 325.3048
1145.60 325.877
1145.70 326.4491
1145.80 327.0213
1145.90 327.5935
1146.00 328.1656
1146.10 328.7378
1146.20 329.3099
1146.30 329.8821
1146.40 330.4542
1146.50 331.0264
1146.60 331.5986
1146.70 332.1707
1146.80 332.7429
1146.90 333.315
1147.00 333.8872
1147.10 334.1753
1147.20 334.274
1147.30 334.3727
1147.40 334.4714
1147.50 334.5701
1147.60 334.6688
1147.70 334.7675
1147.80 334.8661
1147.90 334.9648
1148.00 335.0635
1148.10 335.1622
1148.20 335.2609
1148.30 335.3596
1148.40 335.4583
1148.50 335.557
1148.60 335.6557
1148.70 335.7544
1148.80 335.8531
1148.90 335.9518
1149.00 336.0505
1149.10 336.1492
1149.20 336.2479
1149.30 336.3466
1149.40 336.4453
1149.50 336.544
1149.60 336.6427
1149.70 336.7414
1149.80 336.8401
1149.90 336.9387
1150.00 337.0374
1150.10 337.1361
1150.20 337.2348
1150.30 337.3335
1150.40 337.4322
1150.50 337.5309
1150.60 337.6296
1150.70 337.7283
1150.80 337.827
1150.90 337.9257
1151.00 338.0244
1151.10 338.1231
1151.20 338.2218
1151.30 338.3466
1151.40 338.4974
1151.50 338.6483
1151.60 338.7992
1151.70 338.9501
1151.80 339.1009
1151.90 339.2518
1152.00 339.4027
1152.10 339.5536
1152.20 339.7044
1152.30 339.8553
1152.40 340.0062
1152.50 340.157
1152.60 340.3079
1152.70 340.4588
1152.80 340.6097
1152.90 340.7605
1153.00 340.9114
1153.10 341.0623
1153.20 341.2132
1153.30 341.364
1153.40 341.5149
1153.50 341.6658
1153.60 341.8166
1153.70 341.9675
1153.80 342.1184
1153.90 342.2693
1154.00 342.4201
1154.10 342.571
1154.20 342.7219
1154.30 342.8728
1154.40 343.0236
1154.50 343.1745
1154.60 343.3254
1154.70 343.4762
1154.80 343.6271
1154.90 343.778
1155.00 343.9289
1155.10 344.0797
1155.20 344.2306
1155.30 344.3815
1155.40 344.5324
1155.50 344.629
1155.60 344.5086
1155.70 344.3882
1155.80 344.2679
1155.90 344.1475
1156.00 344.0271
1156.10 343.9068
1156.20 343.7864
1156.30 343.666
1156.40 343.5456
1156.50 343.4253
1156.60 343.3049
1156.70 343.1845
1156.80 343.0641
1156.90 342.9438
1157.00 342.8234
1157.10 342.703
1157.20 342.5827
1157.30 342.4623
1157.40 342.3419
1157.50 342.2215
1157.60 342.1012
1157.70 341.9808
1157.80 341.8604
1157.90 341.7401
1158.00 341.6197
1158.10 341.4993
1158.20 341.3789
1158.30 341.2586
1158.40 341.1382
1158.50 341.0178
1158.60 340.8975
1158.70 340.7771
1158.80 340.6567
1158.90 340.5363
1159.00 340.416
1159.10 340.2956
1159.20 340.1752
1159.30 340.0549
1159.40 339.9345
1159.50 339.8141
1159.60 339.6937
1159.70 339.5734
1159.80 339.4086
1159.90 339.2388
1160.00 339.069
1160.10 338.8993
1160.20 338.7295
1160.30 338.5598
1160.40 338.39
1160.50 338.2203
1160.60 338.0505
1160.70 337.8807
1160.80 337.711
1160.90 337.5412
1161.00 337.3715
1161.10 337.2017
1161.20 337.032
1161.30 336.8622
1161.40 336.6925
1161.50 336.5227
1161.60 336.3529
1161.70 336.1832
1161.80 336.0134
1161.90 335.8437
1162.00 335.6739
1162.10 335.5042
1162.20 335.3344
1162.30 335.1646
1162.40 334.9949
1162.50 334.8251
1162.60 334.6554
1162.70 334.4856
1162.80 334.3159
1162.90 334.1461
1163.00 333.9763
1163.10 333.8066
1163.20 333.6368
1163.30 333.4671
1163.40 333.2973
1163.50 333.1276
1163.60 332.9578
1163.70 332.788
1163.80 332.6183
1163.90 332.4485
1164.00 332.2516
1164.10 332.0365
1164.20 331.8214
1164.30 331.6063
1164.40 331.3913
1164.50 331.1762
1164.60 330.9611
1164.70 330.746
1164.80 330.5309
1164.90 330.3158
1165.00 330.1008
1165.10 329.8857
1165.20 329.6706
1165.30 329.4555
1165.40 329.2404
1165.50 329.0254
1165.60 328.8103
1165.70 328.5952
1165.80 328.3801
1165.90 328.165
1166.00 327.9499
1166.10 327.7349
1166.20 327.5198
1166.30 327.3047
1166.40 327.0896
1166.50 326.8745
1166.60 326.6595
1166.70 326.4444
1166.80 326.2293
1166.90 326.0142
1167.00 325.7991
1167.10 325.584
1167.20 325.369
1167.30 325.1539
1167.40 324.9388
1167.50 324.7237
1167.60 324.5086
1167.70 324.2936
1167.80 324.0785
1167.90 323.8634
1168.00 323.6483
1168.10 323.4332
1168.20 323.2069
1168.30 322.9357
1168.40 322.6646
1168.50 322.3934
1168.60 322.1222
1168.70 321.851
1168.80 321.5799
1168.90 321.3087
1169.00 321.0375
1169.10 320.7664
1169.20 320.4952
1169.30 320.224
1169.40 319.9528
1169.50 319.6817
1169.60 319.4105
1169.70 319.1393
1169.80 318.8681
1169.90 318.597
1170.00 318.3258
1170.10 318.0546
1170.20 317.7834
1170.30 317.5123
1170.40 317.2411
1170.50 316.9699
1170.60 316.6987
1170.70 316.4276
1170.80 316.1564
1170.90 315.8852
1171.00 315.614
1171.10 315.3429
1171.20 315.0717
1171.30 314.8005
1171.40 314.5293
1171.50 314.2582
1171.60 313.987
1171.70 313.7158
1171.80 313.4446
1171.90 313.1735
1172.00 312.9023
1172.10 312.6311
1172.20 312.3599
1172.30 312.0888
1172.40 311.8176
1172.50 311.782
1172.60 311.8473
1172.70 311.9126
1172.80 311.9779
1172.90 312.0432
1173.00 312.1085
1173.10 312.1738
1173.20 312.2391
1173.30 312.3044
1173.40 312.3698
1173.50 312.4351
1173.60 312.5004
1173.70 312.5657
1173.80 312.631
1173.90 312.6963
1174.00 312.7616
1174.10 312.8269
1174.20 312.8922
1174.30 312.9576
1174.40 313.0229
1174.50 313.0882
1174.60 313.1535
1174.70 313.2188
1174.80 313.2841
1174.90 313.3494
1175.00 313.4147
1175.10 313.4801
1175.20 313.5454
1175.30 313.6107
1175.40 313.676
1175.50 313.7413
1175.60 313.8066
1175.70 313.8719
1175.80 313.9372
1175.90 314.0025
1176.00 314.0679
1176.10 314.1332
1176.20 314.1985
1176.30 314.2638
1176.40 314.3291
1176.50 314.3944
1176.60 314.4597
1176.70 314.5319
1176.80 314.6317
1176.90 314.7314
1177.00 314.8312
1177.10 314.9309
1177.20 315.0307
1177.30 315.1304
1177.40 315.2302
1177.50 315.3299
1177.60 315.4297
1177.70 315.5294
1177.80 315.6292
1177.90 315.7289
1178.00 315.8287
1178.10 315.9284
1178.20 316.0282
1178.30 316.1279
1178.40 316.2276
1178.50 316.3274
1178.60 316.4271
1178.70 316.5269
1178.80 316.6266
1178.90 316.7264
1179.00 316.8261
1179.10 316.9259
1179.20 317.0256
1179.30 317.1254
1179.40 317.2251
1179.50 317.3249
1179.60 317.4246
1179.70 317.5244
1179.80 317.6241
1179.90 317.7239
1180.00 317.8236
1180.10 317.9234
1180.20 318.0231
1180.30 318.1229
1180.40 318.2226
1180.50 318.3224
1180.60 318.4221
1180.70 318.5219
1180.80 318.6216
1180.90 318.7214
1181.00 318.9495
1181.10 319.2633
1181.20 319.577
1181.30 319.8908
1181.40 320.2046
1181.50 320.5183
1181.60 320.8321
1181.70 321.1458
1181.80 321.4596
1181.90 321.7734
1182.00 322.0871
1182.10 322.4009
1182.20 322.7146
1182.30 323.0284
1182.40 323.3422
1182.50 323.6559
1182.60 323.9697
1182.70 324.2834
1182.80 324.5972
1182.90 324.911
1183.00 325.2247
1183.10 325.5385
1183.20 325.8522
1183.30 326.166
1183.40 326.4798
1183.50 326.7935
1183.60 327.1073
1183.70 327.4211
1183.80 327.7348
1183.90 328.0486
1184.00 328.3623
1184.10 328.6761
1184.20 328.9899
1184.30 329.3036
1184.40 329.6174
1184.50 329.9311
1184.60 330.2449
1184.70 330.5587
1184.80 330.8724
1184.90 331.1862
1185.00 331.4999
1185.10 331.8137
1185.20 332.1275
1185.30 332.2981
1185.40 332.4688
1185.50 332.6395
1185.60 332.8102
1185.70 332.9809
1185.80 333.1515
1185.90 333.3222
1186.00 333.4929
1186.10 333.6636
1186.20 333.8343
1186.30 334.0049
1186.40 334.1756
1186.50 334.3463
1186.60 334.517
1186.70 334.6876
1186.80 334.8583
1186.90 335.029
1187.00 335.1997
1187.10 335.3704
1187.20 335.541
1187.30 335.7117
1187.40 335.8824
1187.50 336.0531
1187.60 336.2238
1187.70 336.3944
1187.80 336.5651
1187.90 336.7358
1188.00 336.9065
1188.10 337.0771
1188.20 337.2478
1188.30 337.4185
1188.40 337.5892
1188.50 337.7599
1188.60 337.9305
1188.70 338.1012
1188.80 338.2719
1188.90 338.4426
1189.00 338.6133
1189.10 338.7839
1189.20 338.9546
1189.30 339.1253
1189.40 339.296
1189.50 339.2837
1189.60 338.9968
1189.70 338.71
1189.80 338.4232
1189.90 338.1364
1190.00 337.8495
1190.10 337.5627
1190.20 337.2759
1190.30 336.9891
1190.40 336.7022
1190.50 336.4154
1190.60 336.1286
1190.70 335.8418
1190.80 335.555
1190.90 335.2681
1191.00 334.9813
1191.10 334.6945
1191.20 334.4077
1191.30 334.1208
1191.40 333.834
1191.50 333.5472
1191.60 333.2604
1191.70 332.9736
1191.80 332.6867
1191.90 332.3999
1192.00 332.1131
1192.10 331.8263
1192.20 331.5394
1192.30 331.2526
1192.40 330.9658
1192.50 330.679
1192.60 330.3922
1192.70 330.1053
1192.80 329.8185
1192.90 329.5317
1193.00 329.2449
1193.10 328.958
1193.20 328.6712
1193.30 328.3844
1193.40 328.0976
1193.50 327.8107
1193.60 327.5239
1193.70 327.2371
1193.80 326.9989
1193.90 326.7815
1194.00 326.5641
1194.10 326.3467
1194.20 326.1292
1194.30 325.9118
1194.40 325.6944
1194.50 325.477
1194.60 325.2596
1194.70 325.0422
1194.80 324.8248
1194.90 324.6074
1195.00 324.39
1195.10 324.1726
1195.20 323.9552
1195.30 323.7378
1195.40 323.5204
1195.50 323.303
1195.60 323.0856
1195.70 322.8682
1195.80 322.6507
1195.90 322.4333
1196.00 322.2159
1196.10 321.9985
1196.20 321.7811
1196.30 321.5637
1196.40 321.3463
1196.50 321.1289
1196.60 320.9115
1196.70 320.6941
1196.80 320.4767
1196.90 320.2593
1197.00 320.0419
1197.10 319.8245
1197.20 319.6071
1197.30 319.3897
1197.40 319.1723
1197.50 318.9548
1197.60 318.7374
1197.70 318.52
1197.80 318.3026
1197.90 318.0852
1198.00 317.8678
1198.10 317.9303
1198.20 318.0239
1198.30 318.1175
1198.40 318.211
1198.50 318.3046
1198.60 318.3982
1198.70 318.4918
1198.80 318.5854
1198.90 318.6789
1199.00 318.7725
1199.10 318.8661
1199.20 318.9597
1199.30 319.0532
1199.40 319.1468
1199.50 319.2404
1199.60 319.334
1199.70 319.4276
1199.80 319.5211
1199.90 319.6147
1200.00 319.7083
1200.10 319.8019
1200.20 319.8955
1200.30 319.989
1200.40 320.0826
1200.50 320.1762
1200.60 320.2698
1200.70 320.3634
1200.80 320.4569
1200.90 320.5505
1201.00 320.6441
1201.10 320.7377
1201.20 320.8313
1201.30 320.9248
1201.40 321.0184
1201.50 321.112
1201.60 321.2056
1201.70 321.2992
1201.80 321.3927
1201.90 321.4863
1202.00 321.5799
1202.10 321.6735
1202.20 321.7671
1202.30 321.8749
1202.40 322.1113
1202.50 322.3477
1202.60 322.5841
1202.70 322.8205
1202.80 323.0569
1202.90 323.2933
1203.00 323.5297
1203.10 323.7661
1203.20 324.0024
1203.30 324.2388
1203.40 324.4752
1203.50 324.7116
1203.60 324.948
1203.70 325.1844
1203.80 325.4208
1203.90 325.6572
1204.00 325.8936
1204.10 326.13
1204.20 326.3664
1204.30 326.6028
1204.40 326.8392
1204.50 327.0755
1204.60 327.3119
1204.70 327.5483
1204.80 327.7847
1204.90 328.0211
1205.00 328.2575
1205.10 328.4939
1205.20 328.7303
1205.30 328.9667
1205.40 329.2031
1205.50 329.4395
1205.60 329.6759
1205.70 329.9123
1205.80 330.1486
1205.90 330.385
1206.00 330.6214
1206.10 330.8578
1206.20 331.0942
1206.30 331.3306
1206.40 331.567
1206.50 331.8034
1206.60 332.0612
1206.70 332.3688
1206.80 332.6764
1206.90 332.984
1207.00 333.2916
1207.10 333.5993
1207.20 333.9069
1207.30 334.2145
1207.40 334.5221
1207.50 334.8297
1207.60 335.1374
1207.70 335.445
1207.80 335.7526
1207.90 336.0602
1208.00 336.3678
1208.10 336.6755
1208.20 336.9831
1208.30 337.2907
1208.40 337.5983
1208.50 337.9059
1208.60 338.2136
1208.70 338.5212
1208.80 338.8288
1208.90 339.1364
1209.00 339.444
1209.10 339.7517
1209.20 340.0593
1209.30 340.3669
1209.40 340.6745
1209.50 340.9821
1209.60 341.2898
1209.70 341.5974
1209.80 341.905
1209.90 342.2126
1210.00 342.5202
1210.10 342.8279
1210.20 343.1355
1210.30 343.4431
1210.40 343.7507
1210.50 344.0583
1210.60 344.366
1210.70 344.6736
1210.80 344.9812
1210.90 345.2372
1211.00 345.4415
1211.10 345.6457
1211.20 345.85
1211.30 346.0543
1211.40 346.2586
1211.50 346.4629
1211.60 346.6672
1211.70 346.8715
1211.80 347.0758
1211.90 347.2801
1212.00 347.4844
1212.10 347.6887
1212.20 347.8929
1212.30 348.0972
1212.40 348.3015
1212.50 348.5058
1212.60 348.7101
1212.70 348.9144
1212.80 349.1187
1212.90 349.323
1213.00 349.5273
1213.10 349.7316
1213.20 349.9359
1213.30 350.1402
1213.40 350.3444
1213.50 350.5487
1213.60 350.753
1213.70 350.9573
1213.80 351.1616
1213.90 351.3659
1214.00 351.5702
1214.10 351.7745
1214.20 351.9788
1214.30 352.1831
1214.40 352.3874
1214.50 352.5916
1214.60 352.7959
1214.70 353.0002
1214.80 353.2045
1214.90 353.4088
1215.00 353.6131
1215.10 353.8174
1215.20 354.066
1215.30 354.344
1215.40 354.6221
1215.50 354.9002
1215.60 355.1783
1215.70 355.4564
1215.80 355.7345
1215.90 356.0125
1216.00 356.2906
1216.10 356.5687
1216.20 356.8468
1216.30 357.1249
1216.40 357.403
1216.50 357.681
1216.60 357.9591
1216.70 358.2372
1216.80 358.5153
1216.90 358.7934
1217.00 359.0715
1217.10 359.3495
1217.20 359.6276
1217.30 359.9057
1217.40 360.1838
1217.50 360.4619
1217.60 360.74
1217.70 361.018
1217.80 361.2961
1217.90 361.5742
1218.00 361.8523
1218.10 362.1304
1218.20 362.4085
1218.30 362.6865
1218.40 362.9646
1218.50 363.2427
1218.60 363.5208
1218.70 363.7989
1218.80 364.077
1218.90 364.355
1219.00 364.6331
1219.10 364.9112
1219.20 365.1893
1219.30 365.4674
1219.40 365.7455
1219.50 365.9756
1219.60 366.1851
1219.70 366.3946
1219.80 366.6042
1219.90 366.8137
1220.00 367.0232
1220.10 367.2328
1220.20 367.4423
1220.30 367.6518
1220.40 367.8614
1220.50 368.0709
1220.60 368.2804
1220.70 368.49
1220.80 368.6995
1220.90 368.909
1221.00 369.1186
1221.10 369.3281
1221.20 369.5376
1221.30 369.7472
1221.40 369.9567
1221.50 370.1663
1221.60 370.3758
1221.70 370.5853
1221.80 370.7949
1221.90 371.0044
1222.00 371.2139
1222.10 371.4235
1222.20 371.633
1222.30 371.8425
1222.40 372.0521
1222.50 372.2616
1222.60 372.4711
1222.70 372.6807
1222.80 372.8902
1222.90 373.0997
1223.00 373.3093
1223.10 373.5188
1223.20 373.7283
1223.30 373.9379
1223.40 374.1474
1223.50 374.3569
1223.60 374.5665
1223.70 374.776
1223.80 374.8486
1223.90 374.8625
1224.00 374.8765
1224.10 374.8904
1224.20 374.9043
1224.30 374.9182
1224.40 374.9322
1224.50 374.9461
1224.60 374.96
1224.70 374.9739
1224.80 374.9878
1224.90 375.0018
1225.00 375.0157
1225.10 375.0296
1225.20 375.0435
1225.30 375.0575
1225.40 375.0714
1225.50 375.0853
1225.60 375.0992
1225.70 375.1131
1225.80 375.1271
1225.90 375.141
1226.00 375.1549
1226.10 375.1688
1226.20 375.1828
1226.30 375.1967
1226.40 375.2106
1226.50 375.2245
1226.60 375.2384
1226.70 375.2524
1226.80 375.2663
1226.90 375.2802
1227.00 375.2941
1227.10 375.3081
1227.20 375.322
1227.30 375.3359
1227.40 375.3498
1227.50 375.3637
1227.60 375.3777
1227.70 375.3916
1227.80 375.4055
1227.90 375.4194
1228.00 375.4334
1228.10 375.4166
1228.20 375.3922
1228.30 375.3679
1228.40 375.3435
1228.50 375.3191
1228.60 375.2947
1228.70 375.2703
1228.80 375.2459
1228.90 375.2215
1229.00 375.1971
1229.10 375.1728
1229.20 375.1484
1229.30 375.124
1229.40 375.0996
1229.50 375.0752
1229.60 375.0508
1229.70 375.0264
1229.80 375.002
1229.90 374.9776
1230.00 374.9533
1230.10 374.9289
1230.20 374.9045
1230.30 374.8801
1230.40 374.8557
1230.50 374.8313
1230.60 374.8069
1230.70 374.7825
1230.80 374.7582
1230.90 374.7338
1231.00 374.7094
1231.10 374.685
1231.20 374.6606
1231.30 374.6362
1231.40 374.6118
1231.50 374.5874
1231.60 374.5631
1231.70 374.5387
1231.80 374.5143
1231.90 374.4899
1232.00 374.4655
1232.10 374.4411
1232.20 374.4167
1232.30 374.3923
1232.40 374.0778
1232.50 373.6907
1232.60 373.3036
1232.70 372.9165
1232.80 372.5294
1232.90 372.1423
1233.00 371.7552
1233.10 371.3681
1233.20 370.981
1233.30 370.5939
1233.40 370.2068
1233.50 369.8197
1233.60 369.4326
1233.70 369.0455
1233.80 368.6584
1233.90 368.2713
1234.00 367.8842
1234.10 367.4971
1234.20 367.11
1234.30 366.7229
1234.40 366.3358
1234.50 365.9487
1234.60 365.5616
1234.70 365.1745
1234.80 364.7874
1234.90 364.4003
1235.00 364.0132
1235.10 363.6261
1235.20 363.239
1235.30 362.8519
1235.40 362.4648
1235.50 362.0777
1235.60 361.6906
1235.70 361.3035
1235.80 360.9164
1235.90 360.5293
1236.00 360.1422
1236.10 359.7551
1236.20 359.3681
1236.30 358.981
1236.40 358.5939
1236.50 358.2068
1236.60 357.8197
1236.70 357.603
1236.80 357.4594
1236.90 357.3157
1237.00 357.1721
1237.10 357.0285
1237.20 356.8848
1237.30 356.7412
1237.40 356.5976
1237.50 356.454
1237.60 356.3103
1237.70 356.1667
1237.80 356.0231
1237.90 355.8794
1238.00 355.7358
1238.10 355.5922
1238.20 355.4486
1238.30 355.3049
1238.40 355.1613
1238.50 355.0177
1238.60 354.874
1238.70 354.7304
1238.80 354.5868
1238.90 354.4432
1239.00 354.2995
1239.10 354.1559
1239.20 354.0123
1239.30 353.8686
1239.40 353.725
1239.50 353.5814
1239.60 353.4378
1239.70 353.2941
1239.80 353.1505
1239.90 353.0069
1240.00 352.8632
1240.10 352.7196
1240.20 352.576
1240.30 352.4323
1240.40 352.2887
1240.50 352.1451
1240.60 352.0015
1240.70 351.8578
1240.80 351.7142
1240.90 351.5706
1241.00 351.4165
1241.10 351.2578
1241.20 351.0992
1241.30 350.9406
1241.40 350.782
1241.50 350.6233
1241.60 350.4647
1241.70 350.3061
1241.80 350.1475
1241.90 349.9889
1242.00 349.8302
1242.10 349.6716
1242.20 349.513
1242.30 349.3544
1242.40 349.1957
1242.50 349.0371
1242.60 348.8785
1242.70 348.7199
1242.80 348.5613
1242.90 348.4026
1243.00 348.244
1243.10 348.0854
1243.20 347.9268
1243.30 347.7681
1243.40 347.6095
1243.50 347.4509
1243.60 347.2923
1243.70 347.1337
1243.80 346.975
1243.90 346.8164
1244.00 346.6578
1244.10 346.4992
1244.20 346.3406
1244.30 346.1819
1244.40 346.0233
1244.50 345.8647
1244.60 345.7061
1244.70 345.5474
1244.80 345.3888
1244.90 345.2302
1245.00 345.0716
1245.10 344.913
1245.20 344.7543
1245.30 344.8752
1245.40 345.1824
1245.50 345.4895
1245.60 345.7967
1245.70 346.1039
1245.80 346.411
1245.90 346.7182
1246.00 347.0254
1246.10 347.3325
1246.20 347.6397
1246.30 347.9469
1246.40 348.254
1246.50 348.5612
1246.60 348.8684
1246.70 349.1755
1246.80 349.4827
1246.90 349.7899
1247.00 350.097
1247.10 350.4042
1247.20 350.7114
1247.30 351.0185
1247.40 351.3257
1247.50 351.6329
1247.60 351.94
1247.70 352.2472
1247.80 352.5544
1247.90 352.8615
1248.00 353.1687
1248.10 353.4759
1248.20 353.783
1248.30 354.0902
1248.40 354.3974
1248.50 354.7045
1248.60 355.0117
1248.70 355.3189
1248.80 355.626
1248.90 355.9332
1249.00 356.2404
1249.10 356.5475
1249.20 356.8547
1249.30 357.1619
1249.40 357.469
1249.50 357.7762
1249.60 358.0647
1249.70 358.3344
1249.80 358.6042
1249.90 358.8739
1250.00 359.1437
1250.10 359.4135
1250.20 359.6832
1250.30 359.953
1250.40 360.2228
1250.50 360.4925
1250.60 360.7623
1250.70 361.0321
1250.80 361.3018
1250.90 361.5716
1251.00 361.8413
1251.10 362.1111
1251.20 362.3809
1251.30 362.6506
1251.40 362.9204
1251.50 363.1902
1251.60 363.4599
1251.70 363.7297
1251.80 363.9994
1251.90 364.2692
1252.00 364.539
1252.10 364.8087
1252.20 365.0785
1252.30 365.3483
1252.40 365.618
1252.50 365.8878
1252.60 366.1575
1252.70 366.4273
1252.80 366.6971
1252.90 366.9668
1253.00 367.2366
1253.10 367.5064
1253.20 367.7761
1253.30 368.0459
1253.40 368.3156
1253.50 368.5854
1253.60 368.8552
1253.70 369.1249
1253.80 369.3947
1253.90 369.7347
1254.00 370.1801
1254.10 370.6255
1254.20 371.0709
1254.30 371.5163
1254.40 371.9617
1254.50 372.4071
1254.60 372.8524
1254.70 373.2978
1254.80 373.7432
1254.90 374.1886
1255.00 374.634
1255.10 375.0794
1255.20 375.5248
1255.30 375.9702
1255.40 376.4156
1255.50 376.861
1255.60 377.3063
1255.70 377.7517
1255.80 378.1971
1255.90 378.6425
1256.00 379.0879
1256.10 379.5333
1256.20 379.9787
1256.30 380.4241
1256.40 380.8695
1256.50 381.3149
1256.60 381.7602
1256.70 382.2056
1256.80 382.651
1256.90 383.0964
1257.00 383.5418
1257.10 383.9872
1257.20 384.4326
1257.30 384.878
1257.40 385.3234
1257.50 385.7688
1257.60 386.2142
1257.70 386.6595
1257.80 387.1049
1257.90 387.5503
1258.00 387.9957
1258.10 388.4411
1258.20 388.7715
1258.30 388.8334
1258.40 388.8954
1258.50 388.9574
1258.60 389.0193
1258.70 389.0813
1258.80 389.1432
1258.90 389.2052
1259.00 389.2672
1259.10 389.3291
1259.20 389.3911
1259.30 389.4531
1259.40 389.515
1259.50 389.577
1259.60 389.639
1259.70 389.7009
1259.80 389.7629
1259.90 389.8248
1260.00 389.8868
1260.10 389.9488
1260.20 390.0107
1260.30 390.0727
1260.40 390.1347
1260.50 390.1966
1260.60 390.2586
1260.70 390.3206
1260.80 390.3825
1260.90 390.4445
1261.00 390.5064
1261.10 390.5684
1261.20 390.6304
1261.30 390.6923
1261.40 390.7543
1261.50 390.8163
1261.60 390.8782
1261.70 390.9402
1261.80 391.0022
1261.90 391.0641
1262.00 391.1261
1262.10 391.188
1262.20 391.25
1262.30 391.312
1262.40 391.3739
1262.50 391.5068
1262.60 391.9235
1262.70 392.3401
1262.80 392.7567
1262.90 393.1734
1263.00 393.59
1263.10 394.0066
1263.20 394.4233
1263.30 394.8399
1263.40 395.2565
1263.50 395.6731
1263.60 396.0898
1263.70 396.5064
1263.80 396.923
1263.90 397.3397
1264.00 397.7563
1264.10 398.1729
1264.20 398.5896
1264.30 399.0062
1264.40 399.4228
1264.50 399.8395
1264.60 400.2561
1264.70 400.6727
1264.80 401.0894
1264.90 401.506
1265.00 401.9226
1265.10 402.3393
1265.20 402.7559
1265.30 403.1725
1265.40 403.5892
1265.50 404.0058
1265.60 404.4224
1265.70 404.8391
1265.80 405.2557
1265.90 405.6723
1266.00 406.089
1266.10 406.5056
1266.20 406.9222
1266.30 407.3389
1266.40 407.7555
1266.50 408.1721
1266.60 408.5887
1266.70 409.0054
1266.80 409.422
1266.90 409.1693
1267.00 408.9166
1267.10 408.6638
1267.20 408.4111
1267.30 408.1584
1267.40 407.9057
1267.50 407.6529
1267.60 407.4002
1267.70 407.1475
1267.80 406.8948
1267.90 406.6421
1268.00 406.3893
1268.10 406.1366
1268.20 405.8839
1268.30 405.6312
1268.40 405.3784
1268.50 405.1257
1268.60 404.873
1268.70 404.6203
1268.80 404.3675
1268.90 404.1148
1269.00 403.8621
1269.10 403.6094
1269.20 403.3567
1269.30 403.1039
1269.40 402.8512
1269.50 402.5985
1269.60 402.3458
1269.70 402.093
1269.80 401.8403
1269.90 401.5876
1270.00 401.3349
1270.10 401.0821
1270.20 400.8294
1270.30 400.5767
1270.40 400.324
1270.50 400.0713
1270.60 399.8185
1270.70 399.5658
1270.80 399.3131
1270.90 399.0604
1271.00 398.8076
1271.10 398.5549
1271.20 398.7813
1271.30 399.0609
1271.40 399.3405
1271.50 399.6201
1271.60 399.8997
1271.70 400.1793
1271.80 400.4589
1271.90 400.7385
1272.00 401.0181
1272.10 401.2977
1272.20 401.5773
1272.30 401.8569
1272.40 402.1365
1272.50 402.4161
1272.60 402.6957
1272.70 402.9754
1272.80 403.255
1272.90 403.5346
1273.00 403.8142
1273.10 404.0938
1273.20 404.3734
1273.30 404.653
1273.40 404.9326
1273.50 405.2122
1273.60 405.4918
1273.70 405.7714
1273.80 406.051
1273.90 406.3306
1274.00 406.6102
1274.10 406.8898
1274.20 407.1694
1274.30 407.449
1274.40 407.7286
1274.50 408.0082
1274.60 408.2878
1274.70 408.5674
1274.80 408.847
1274.90 409.1266
1275.00 409.4063
1275.10 409.6859
1275.20 409.9655
1275.30 410.2451
1275.40 410.5247
1275.50 410.6131
1275.60 410.6196
1275.70 410.6262
1275.80 410.6327
1275.90 410.6392
1276.00 410.6457
1276.10 410.6523
1276.20 410.6588
1276.30 410.6653
1276.40 410.6718
1276.50 410.6784
1276.60 410.6849
1276.70 410.6914
1276.80 410.6979
1276.90 410.7045
1277.00 410.711
1277.10 410.7175
1277.20 410.724
1277.30 410.7305
1277.40 410.7371
1277.50 410.7436
1277.60 410.7501
1277.70 410.7566
1277.80 410.7632
1277.90 410.7697
1278.00 410.7762
1278.10 410.7827
1278.20 410.7893
1278.30 410.7958
1278.40 410.8023
1278.50 410.8088
1278.60 410.8154
1278.70 410.8219
1278.80 410.8284
1278.90 410.8349
1279.00 410.8415
1279.10 410.848
1279.20 410.8545
1279.30 410.861
1279.40 410.8675
1279.50 410.8741
1279.60 410.8806
1279.70 410.8871
1279.80 410.9068
1279.90 410.9353
1280.00 410.9638
1280.10 410.9923
1280.20 411.0208
1280.30 411.0493
1280.40 411.0778
1280.50 411.1063
1280.60 411.1348
1280.70 411.1633
1280.80 411.1918
1280.90 411.2203
1281.00 411.2487
1281.10 411.2772
1281.20 411.3057
1281.30 411.3342
1281.40 411.3627
1281.50 411.3912
1281.60 411.4197
1281.70 411.4482
1281.80 411.4767
1281.90 411.5052
1282.00 411.5337
1282.10 411.5622
1282.20 411.5907
1282.30 411.6192
1282.40 411.6477
1282.50 411.6761
1282.60 411.7046
1282.70 411.7331
1282.80 411.7616
1282.90 411.7901
1283.00 411.8186
1283.10 411.8471
1283.20 411.8756
1283.30 411.9041
1283.40 411.9326
1283.50 411.9611
1283.60 411.9896
1283.70 412.0181
1283.80 412.0466
1283.90 412.0751
1284.00 412.1035
1284.10 412.1945
1284.20 412.379
1284.30 412.5635
1284.40 412.748
1284.50 412.9326
1284.60 413.1171
1284.70 413.3016
1284.80 413.4861
1284.90 413.6707
1285.00 413.8552
1285.10 414.0397
1285.20 414.2242
1285.30 414.4088
1285.40 414.5933
1285.50 414.7778
1285.60 414.9623
1285.70 415.1469
1285.80 415.3314
1285.90 415.5159
1286.00 415.7004
1286.10 415.885
1286.20 416.0695
1286.30 416.254
1286.40 416.4385
1286.50 416.6231
1286.60 416.8076
1286.70 416.9921
1286.80 417.1766
1286.90 417.3612
1287.00 417.5457
1287.10 417.7302
1287.20 417.9147
1287.30 418.0993
1287.40 418.2838
1287.50 418.4683
1287.60 418.6528
1287.70 418.8374
1287.80 419.0219
1287.90 419.2064
1288.00 419.3909
1288.10 419.5755
1288.20 419.76
1288.30 419.9445
1288.40 420.1107
1288.50 420.2034
1288.60 420.2962
1288.70 420.3889
1288.80 420.4817
1288.90 420.5744
1289.00 420.6672
1289.10 420.7599
1289.20 420.8527
1289.30 420.9454
1289.40 421.0382
1289.50 421.1309
1289.60 421.2236
1289.70 421.3164
1289.80 421.4091
1289.90 421.5019
1290.00 421.5946
1290.10 421.6874
1290.20 421.7801
1290.30 421.8729
1290.40 421.9656
1290.50 422.0584
1290.60 422.1511
1290.70 422.2439
1290.80 422.3366
1290.90 422.4294
1291.00 422.5221
1291.10 422.6148
1291.20 422.7076
1291.30 422.8003
1291.40 422.8931
1291.50 422.9858
1291.60 423.0786
1291.70 423.1713
1291.80 423.2641
1291.90 423.3568
1292.00 423.4496
1292.10 423.5423
1292.20 423.6351
1292.30 423.7278
1292.40 423.8206
1292.50 423.9133
1292.60 424.006
1292.70 424.0988
1292.80 424.1482
1292.90 424.1975
1293.00 424.2469
1293.10 424.2962
1293.20 424.3456
1293.30 424.3949
1293.40 424.4443
1293.50 424.4937
1293.60 424.543
1293.70 424.5924
1293.80 424.6417
1293.90 424.6911
1294.00 424.7405
1294.10 424.7898
1294.20 424.8392
1294.30 424.8885
1294.40 424.9379
1294.50 424.9872
1294.60 425.0366
1294.70 425.086
1294.80 425.1353
1294.90 425.1847
1295.00 425.234
1295.10 425.2834
1295.20 425.3328
1295.30 425.3821
1295.40 425.4315
1295.50 425.4808
1295.60 425.5302
1295.70 425.5795
1295.80 425.6289
1295.90 425.6783
1296.00 425.7276
1296.10 425.777
1296.20 425.8263
1296.30 425.8757
1296.40 425.9251
1296.50 425.9744
1296.60 426.0238
1296.70 426.0731
1296.80 426.1225
1296.90 426.1718
1297.00 426.2212
1297.10 426.1538
1297.20 426.0571
1297.30 425.9605
1297.40 425.8639
1297.50 425.7673
1297.60 425.6707
1297.70 425.574
1297.80 425.4774
1297.90 425.3808
1298.00 425.2842
1298.10 425.1875
1298.20 425.0909
1298.30 424.9943
1298.40 424.8977
1298.50 424.801
1298.60 424.7044
1298.70 424.6078
1298.80 424.5112
1298.90 424.4145
1299.00 424.3179
1299.10 424.2213
1299.20 424.1247
1299.30 424.028
1299.40 423.9314
1299.50 423.8348
1299.60 423.7382
1299.70 423.6415
1299.80 423.5449
1299.90 423.4483
