# Version 2.1 - nm, norm@500 to 1, cut digits
# Wavelength(nm)  Flambda(ergs/cm^s/s/nm)
300.00 1.948262e-95
300.10 1.948262e-95
300.20 1.948262e-95
300.30 1.948262e-95
300.40 1.948262e-95
300.50 1.948262e-95
300.60 1.948262e-95
300.70 1.948262e-95
300.80 1.948262e-95
300.90 1.948262e-95
301.00 1.948262e-95
301.10 1.948262e-95
301.20 1.948262e-95
301.30 1.948262e-95
301.40 1.948262e-95
301.50 1.948262e-95
301.60 1.948262e-95
301.70 1.948262e-95
301.80 1.948262e-95
301.90 1.948262e-95
302.00 1.948262e-95
302.10 1.948262e-95
302.20 1.948262e-95
302.30 1.948262e-95
302.40 1.948262e-95
302.50 1.948262e-95
302.60 1.948262e-95
302.70 1.948262e-95
302.80 1.948262e-95
302.90 1.948262e-95
303.00 1.948262e-95
303.10 1.948262e-95
303.20 1.948262e-95
303.30 1.948262e-95
303.40 1.948262e-95
303.50 1.948262e-95
303.60 1.948262e-95
303.70 1.948262e-95
303.80 1.948262e-95
303.90 1.948262e-95
304.00 1.948262e-95
304.10 1.948262e-95
304.20 1.948262e-95
304.30 1.948262e-95
304.40 1.948262e-95
304.50 1.948262e-95
304.60 1.948262e-95
304.70 1.948262e-95
304.80 1.948262e-95
304.90 1.948262e-95
305.00 1.948262e-95
305.10 1.948262e-95
305.20 1.948262e-95
305.30 1.948262e-95
305.40 1.948262e-95
305.50 1.948262e-95
305.60 1.948262e-95
305.70 1.948262e-95
305.80 1.948262e-95
305.90 1.948262e-95
306.00 1.948262e-95
306.10 1.948262e-95
306.20 1.948262e-95
306.30 1.948262e-95
306.40 1.948262e-95
306.50 1.948262e-95
306.60 1.948262e-95
306.70 1.948262e-95
306.80 1.948262e-95
306.90 1.948262e-95
307.00 1.948262e-95
307.10 1.948262e-95
307.20 1.948262e-95
307.30 1.948262e-95
307.40 1.948262e-95
307.50 1.948262e-95
307.60 1.948262e-95
307.70 1.948262e-95
307.80 1.948262e-95
307.90 1.948262e-95
308.00 1.948262e-95
308.10 1.948262e-95
308.20 1.948262e-95
308.30 1.948262e-95
308.40 1.948262e-95
308.50 1.948262e-95
308.60 1.948262e-95
308.70 1.948262e-95
308.80 1.948262e-95
308.90 1.948262e-95
309.00 1.948262e-95
309.10 1.948262e-95
309.20 1.948262e-95
309.30 1.948262e-95
309.40 1.948262e-95
309.50 1.948262e-95
309.60 1.948262e-95
309.70 1.948262e-95
309.80 1.948262e-95
309.90 1.948262e-95
310.00 1.948262e-95
310.10 1.948262e-95
310.20 1.948262e-95
310.30 1.948262e-95
310.40 1.948262e-95
310.50 1.948262e-95
310.60 1.948262e-95
310.70 1.948262e-95
310.80 1.948262e-95
310.90 1.948262e-95
311.00 1.948262e-95
311.10 1.948262e-95
311.20 1.948262e-95
311.30 1.948262e-95
311.40 1.948262e-95
311.50 1.948262e-95
311.60 1.948262e-95
311.70 1.948262e-95
311.80 1.948262e-95
311.90 1.948262e-95
312.00 1.948262e-95
312.10 1.948262e-95
312.20 1.948262e-95
312.30 1.948262e-95
312.40 1.948262e-95
312.50 1.948262e-95
312.60 1.948262e-95
312.70 1.948262e-95
312.80 1.948262e-95
312.90 1.948262e-95
313.00 1.948262e-95
313.10 1.948262e-95
313.20 1.948262e-95
313.30 1.948262e-95
313.40 1.948262e-95
313.50 1.948262e-95
313.60 1.948262e-95
313.70 1.948262e-95
313.80 1.948262e-95
313.90 1.948262e-95
314.00 1.948262e-95
314.10 1.948262e-95
314.20 1.948262e-95
314.30 1.948262e-95
314.40 1.948262e-95
314.50 1.948262e-95
314.60 1.948262e-95
314.70 1.948262e-95
314.80 1.948262e-95
314.90 1.948262e-95
315.00 1.948262e-95
315.10 1.948262e-95
315.20 1.948262e-95
315.30 1.948262e-95
315.40 1.948262e-95
315.50 1.948262e-95
315.60 1.948262e-95
315.70 1.948262e-95
315.80 1.948262e-95
315.90 1.948262e-95
316.00 1.948262e-95
316.10 1.948262e-95
316.20 1.948262e-95
316.30 1.948262e-95
316.40 1.948262e-95
316.50 1.948262e-95
316.60 1.948262e-95
316.70 1.948262e-95
316.80 1.948262e-95
316.90 1.948262e-95
317.00 1.948262e-95
317.10 1.948262e-95
317.20 1.948262e-95
317.30 1.948262e-95
317.40 1.948262e-95
317.50 1.948262e-95
317.60 1.948262e-95
317.70 1.948262e-95
317.80 1.948262e-95
317.90 1.948262e-95
318.00 1.948262e-95
318.10 1.948262e-95
318.20 1.948262e-95
318.30 1.948262e-95
318.40 1.948262e-95
318.50 1.948262e-95
318.60 1.948262e-95
318.70 1.948262e-95
318.80 1.948262e-95
318.90 1.948262e-95
319.00 1.948262e-95
319.10 1.948262e-95
319.20 1.948262e-95
319.30 1.948262e-95
319.40 1.948262e-95
319.50 1.948262e-95
319.60 1.948262e-95
319.70 1.948262e-95
319.80 1.948262e-95
319.90 1.948262e-95
320.00 1.948262e-95
320.10 1.948262e-95
320.20 1.948262e-95
320.30 1.948262e-95
320.40 1.948262e-95
320.50 1.948262e-95
320.60 1.948262e-95
320.70 1.948262e-95
320.80 1.948262e-95
320.90 1.948262e-95
321.00 1.948262e-95
321.10 1.948262e-95
321.20 1.948262e-95
321.30 1.948262e-95
321.40 1.948262e-95
321.50 1.948262e-95
321.60 1.948262e-95
321.70 1.948262e-95
321.80 1.948262e-95
321.90 1.948262e-95
322.00 1.948262e-95
322.10 1.948262e-95
322.20 1.948262e-95
322.30 1.948262e-95
322.40 1.948262e-95
322.50 1.948262e-95
322.60 1.948262e-95
322.70 1.948262e-95
322.80 1.948262e-95
322.90 1.948262e-95
323.00 1.948262e-95
323.10 1.948262e-95
323.20 1.948262e-95
323.30 1.948262e-95
323.40 1.948262e-95
323.50 1.948262e-95
323.60 1.948262e-95
323.70 1.948262e-95
323.80 1.948262e-95
323.90 1.948262e-95
324.00 1.948262e-95
324.10 1.948262e-95
324.20 1.948262e-95
324.30 1.948262e-95
324.40 1.948262e-95
324.50 1.948262e-95
324.60 1.948262e-95
324.70 1.948262e-95
324.80 1.948262e-95
324.90 1.948262e-95
325.00 1.948262e-95
325.10 1.948262e-95
325.20 1.948262e-95
325.30 1.948262e-95
325.40 1.948262e-95
325.50 1.948262e-95
325.60 1.948262e-95
325.70 1.948262e-95
325.80 1.948262e-95
325.90 1.948262e-95
326.00 1.948262e-95
326.10 1.948262e-95
326.20 1.948262e-95
326.30 1.948262e-95
326.40 1.948262e-95
326.50 1.948262e-95
326.60 1.948262e-95
326.70 1.948262e-95
326.80 1.948262e-95
326.90 1.948262e-95
327.00 1.948262e-95
327.10 1.948262e-95
327.20 1.948262e-95
327.30 1.948262e-95
327.40 1.948262e-95
327.50 1.948262e-95
327.60 1.948262e-95
327.70 1.948262e-95
327.80 1.948262e-95
327.90 1.948262e-95
328.00 1.948262e-95
328.10 1.948262e-95
328.20 1.948262e-95
328.30 1.948262e-95
328.40 1.948262e-95
328.50 1.948262e-95
328.60 1.948262e-95
328.70 1.948262e-95
328.80 1.948262e-95
328.90 1.948262e-95
329.00 1.948262e-95
329.10 1.948262e-95
329.20 1.948262e-95
329.30 1.948262e-95
329.40 1.948262e-95
329.50 1.948262e-95
329.60 1.948262e-95
329.70 1.948262e-95
329.80 1.948262e-95
329.90 1.948262e-95
330.00 1.948262e-95
330.10 1.948262e-95
330.20 1.948262e-95
330.30 1.948262e-95
330.40 1.948262e-95
330.50 1.948262e-95
330.60 1.948262e-95
330.70 1.948262e-95
330.80 1.948262e-95
330.90 1.948262e-95
331.00 1.948262e-95
331.10 1.948262e-95
331.20 1.948262e-95
331.30 1.948262e-95
331.40 1.948262e-95
331.50 1.948262e-95
331.60 1.948262e-95
331.70 1.948262e-95
331.80 1.948262e-95
331.90 1.948262e-95
332.00 1.948262e-95
332.10 1.948262e-95
332.20 1.948262e-95
332.30 1.948262e-95
332.40 1.948262e-95
332.50 1.948262e-95
332.60 1.948262e-95
332.70 1.948262e-95
332.80 1.948262e-95
332.90 1.948262e-95
333.00 1.948262e-95
333.10 1.948262e-95
333.20 1.948262e-95
333.30 1.948262e-95
333.40 1.948262e-95
333.50 1.948262e-95
333.60 1.948262e-95
333.70 1.948262e-95
333.80 1.948262e-95
333.90 1.948262e-95
334.00 1.948262e-95
334.10 1.948262e-95
334.20 1.948262e-95
334.30 1.948262e-95
334.40 1.948262e-95
334.50 1.948262e-95
334.60 1.948262e-95
334.70 1.948262e-95
334.80 1.948262e-95
334.90 1.948262e-95
335.00 1.948262e-95
335.10 1.948262e-95
335.20 1.948262e-95
335.30 1.948262e-95
335.40 1.948262e-95
335.50 1.948262e-95
335.60 1.948262e-95
335.70 1.948262e-95
335.80 1.948262e-95
335.90 1.948262e-95
336.00 1.948262e-95
336.10 1.948262e-95
336.20 1.948262e-95
336.30 1.948262e-95
336.40 1.948262e-95
336.50 1.948262e-95
336.60 1.948262e-95
336.70 1.948262e-95
336.80 1.948262e-95
336.90 1.948262e-95
337.00 1.948262e-95
337.10 1.948262e-95
337.20 1.948262e-95
337.30 1.948262e-95
337.40 1.948262e-95
337.50 1.948262e-95
337.60 1.948262e-95
337.70 1.948262e-95
337.80 1.948262e-95
337.90 1.948262e-95
338.00 1.948262e-95
338.10 1.948262e-95
338.20 1.948262e-95
338.30 1.948262e-95
338.40 1.948262e-95
338.50 1.948262e-95
338.60 1.948262e-95
338.70 1.948262e-95
338.80 1.948262e-95
338.90 1.948262e-95
339.00 1.948262e-95
339.10 1.948262e-95
339.20 1.948262e-95
339.30 1.948262e-95
339.40 1.948262e-95
339.50 1.948262e-95
339.60 1.948262e-95
339.70 1.948262e-95
339.80 1.948262e-95
339.90 1.948262e-95
340.00 1.948262e-95
340.10 1.948262e-95
340.20 1.948262e-95
340.30 1.948262e-95
340.40 1.948262e-95
340.50 1.948262e-95
340.60 1.948262e-95
340.70 1.948262e-95
340.80 1.948262e-95
340.90 1.948262e-95
341.00 1.948262e-95
341.10 1.948262e-95
341.20 1.948262e-95
341.30 1.948262e-95
341.40 1.948262e-95
341.50 1.948262e-95
341.60 1.948262e-95
341.70 1.948262e-95
341.80 1.948262e-95
341.90 1.948262e-95
342.00 1.948262e-95
342.10 1.948262e-95
342.20 1.948262e-95
342.30 1.948262e-95
342.40 1.948262e-95
342.50 1.948262e-95
342.60 1.948262e-95
342.70 1.948262e-95
342.80 1.948262e-95
342.90 1.948262e-95
343.00 1.948262e-95
343.10 1.948262e-95
343.20 1.948262e-95
343.30 1.948262e-95
343.40 1.948262e-95
343.50 1.948262e-95
343.60 1.948262e-95
343.70 1.948262e-95
343.80 1.948262e-95
343.90 1.948262e-95
344.00 1.948262e-95
344.10 1.948262e-95
344.20 1.948262e-95
344.30 1.948262e-95
344.40 1.948262e-95
344.50 1.948262e-95
344.60 1.948262e-95
344.70 1.948262e-95
344.80 1.948262e-95
344.90 1.948262e-95
345.00 1.948262e-95
345.10 1.948262e-95
345.20 1.948262e-95
345.30 1.948262e-95
345.40 1.948262e-95
345.50 1.948262e-95
345.60 1.948262e-95
345.70 1.948262e-95
345.80 1.948262e-95
345.90 1.948262e-95
346.00 1.948262e-95
346.10 1.948262e-95
346.20 1.948262e-95
346.30 1.948262e-95
346.40 1.948262e-95
346.50 1.948262e-95
346.60 1.948262e-95
346.70 1.948262e-95
346.80 1.948262e-95
346.90 1.948262e-95
347.00 1.948262e-95
347.10 1.948262e-95
347.20 1.948262e-95
347.30 1.948262e-95
347.40 1.948262e-95
347.50 1.948262e-95
347.60 1.948262e-95
347.70 1.948262e-95
347.80 1.948262e-95
347.90 1.948262e-95
348.00 1.948262e-95
348.10 1.948262e-95
348.20 1.948262e-95
348.30 1.948262e-95
348.40 1.948262e-95
348.50 1.948262e-95
348.60 1.948262e-95
348.70 1.948262e-95
348.80 1.948262e-95
348.90 1.948262e-95
349.00 1.948262e-95
349.10 1.948262e-95
349.20 1.948262e-95
349.30 1.948262e-95
349.40 1.948262e-95
349.50 1.948262e-95
349.60 1.948262e-95
349.70 1.948262e-95
349.80 1.948262e-95
349.90 1.948262e-95
350.00 1.948262e-95
350.10 1.948262e-95
350.20 1.948262e-95
350.30 1.948262e-95
350.40 1.948262e-95
350.50 1.948262e-95
350.60 1.948262e-95
350.70 1.948262e-95
350.80 1.948262e-95
350.90 1.948262e-95
351.00 1.948262e-95
351.10 1.948262e-95
351.20 1.948262e-95
351.30 1.948262e-95
351.40 1.948262e-95
351.50 1.948262e-95
351.60 1.948262e-95
351.70 1.948262e-95
351.80 1.948262e-95
351.90 1.948262e-95
352.00 1.948262e-95
352.10 1.948262e-95
352.20 1.948262e-95
352.30 1.948262e-95
352.40 1.948262e-95
352.50 1.948262e-95
352.60 1.948262e-95
352.70 1.948262e-95
352.80 1.948262e-95
352.90 1.948262e-95
353.00 1.948262e-95
353.10 1.948262e-95
353.20 1.948262e-95
353.30 1.948262e-95
353.40 1.948262e-95
353.50 1.948262e-95
353.60 1.948262e-95
353.70 1.948262e-95
353.80 1.948262e-95
353.90 1.948262e-95
354.00 1.948262e-95
354.10 1.948262e-95
354.20 1.948262e-95
354.30 1.948262e-95
354.40 1.948262e-95
354.50 1.948262e-95
354.60 1.948262e-95
354.70 1.948262e-95
354.80 1.948262e-95
354.90 1.948262e-95
355.00 1.948262e-95
355.10 1.948262e-95
355.20 1.948262e-95
355.30 1.948262e-95
355.40 1.948262e-95
355.50 1.948262e-95
355.60 1.948262e-95
355.70 1.948262e-95
355.80 1.948262e-95
355.90 1.948262e-95
356.00 1.948262e-95
356.10 1.948262e-95
356.20 1.948262e-95
356.30 1.948262e-95
356.40 1.948262e-95
356.50 1.948262e-95
356.60 1.948262e-95
356.70 1.948262e-95
356.80 1.948262e-95
356.90 1.948262e-95
357.00 1.948262e-95
357.10 1.948262e-95
357.20 1.948262e-95
357.30 1.948262e-95
357.40 1.948262e-95
357.50 1.948262e-95
357.60 1.948262e-95
357.70 1.948262e-95
357.80 1.948262e-95
357.90 1.948262e-95
358.00 1.948262e-95
358.10 1.948262e-95
358.20 1.948262e-95
358.30 1.948262e-95
358.40 1.948262e-95
358.50 1.948262e-95
358.60 1.948262e-95
358.70 1.948262e-95
358.80 1.948262e-95
358.90 1.948262e-95
359.00 1.948262e-95
359.10 1.948262e-95
359.20 1.948262e-95
359.30 1.948262e-95
359.40 1.948262e-95
359.50 1.948262e-95
359.60 1.948262e-95
359.70 1.948262e-95
359.80 1.948262e-95
359.90 1.948262e-95
360.00 1.948262e-95
360.10 1.948262e-95
360.20 1.948262e-95
360.30 1.948262e-95
360.40 1.948262e-95
360.50 1.948262e-95
360.60 1.948262e-95
360.70 1.948262e-95
360.80 1.948262e-95
360.90 1.948262e-95
361.00 1.948262e-95
361.10 1.948262e-95
361.20 1.948262e-95
361.30 1.948262e-95
361.40 1.948262e-95
361.50 1.948262e-95
361.60 1.948262e-95
361.70 1.948262e-95
361.80 1.948262e-95
361.90 1.948262e-95
362.00 1.948262e-95
362.10 1.948262e-95
362.20 1.948262e-95
362.30 1.948262e-95
362.40 1.948262e-95
362.50 1.948262e-95
362.60 1.948262e-95
362.70 1.948262e-95
362.80 1.948262e-95
362.90 1.948262e-95
363.00 1.948262e-95
363.10 1.948262e-95
363.20 1.948262e-95
363.30 1.948262e-95
363.40 1.948262e-95
363.50 1.948262e-95
363.60 1.948262e-95
363.70 1.948262e-95
363.80 1.948262e-95
363.90 1.948262e-95
364.00 1.948262e-95
364.10 1.948262e-95
364.20 1.948262e-95
364.30 1.948262e-95
364.40 1.948262e-95
364.50 1.948262e-95
364.60 1.948262e-95
364.70 1.948262e-95
364.80 1.948262e-95
364.90 1.948262e-95
365.00 1.948262e-95
365.10 1.948262e-95
365.20 1.948262e-95
365.30 1.948262e-95
365.40 1.948262e-95
365.50 1.948262e-95
365.60 1.948262e-95
365.70 1.948262e-95
365.80 1.948262e-95
365.90 1.948262e-95
366.00 1.948262e-95
366.10 1.948262e-95
366.20 1.948262e-95
366.30 1.948262e-95
366.40 1.948262e-95
366.50 1.948262e-95
366.60 1.948262e-95
366.70 1.948262e-95
366.80 1.948262e-95
366.90 1.948262e-95
367.00 1.948262e-95
367.10 1.948262e-95
367.20 1.948262e-95
367.30 1.948262e-95
367.40 1.948262e-95
367.50 1.948262e-95
367.60 1.948262e-95
367.70 1.948262e-95
367.80 1.948262e-95
367.90 1.948262e-95
368.00 1.948262e-95
368.10 1.948262e-95
368.20 1.948262e-95
368.30 1.948262e-95
368.40 1.948262e-95
368.50 1.948262e-95
368.60 1.948262e-95
368.70 1.948262e-95
368.80 1.948262e-95
368.90 1.948262e-95
369.00 1.948262e-95
369.10 1.948262e-95
369.20 1.948262e-95
369.30 1.948262e-95
369.40 1.948262e-95
369.50 1.948262e-95
369.60 1.948262e-95
369.70 1.948262e-95
369.80 1.948262e-95
369.90 1.948262e-95
370.00 1.948262e-95
370.10 1.948262e-95
370.20 1.948262e-95
370.30 1.948262e-95
370.40 1.948262e-95
370.50 1.948262e-95
370.60 1.948262e-95
370.70 1.948262e-95
370.80 1.948262e-95
370.90 1.948262e-95
371.00 1.948262e-95
371.10 1.948262e-95
371.20 1.948262e-95
371.30 1.948262e-95
371.40 1.948262e-95
371.50 1.948262e-95
371.60 1.948262e-95
371.70 1.948262e-95
371.80 1.948262e-95
371.90 1.948262e-95
372.00 1.948262e-95
372.10 1.948262e-95
372.20 1.948262e-95
372.30 1.948262e-95
372.40 1.948262e-95
372.50 1.948262e-95
372.60 1.948262e-95
372.70 1.948262e-95
372.80 1.948262e-95
372.90 1.948262e-95
373.00 1.948262e-95
373.10 1.948262e-95
373.20 1.948262e-95
373.30 1.948262e-95
373.40 1.948262e-95
373.50 1.948262e-95
373.60 1.948262e-95
373.70 1.948262e-95
373.80 1.948262e-95
373.90 1.948262e-95
374.00 1.948262e-95
374.10 1.948262e-95
374.20 1.948262e-95
374.30 1.948262e-95
374.40 1.948262e-95
374.50 1.948262e-95
374.60 1.948262e-95
374.70 1.948262e-95
374.80 1.948262e-95
374.90 1.948262e-95
375.00 1.948262e-95
375.10 1.948262e-95
375.20 1.948262e-95
375.30 1.948262e-95
375.40 1.948262e-95
375.50 1.948262e-95
375.60 1.948262e-95
375.70 1.948262e-95
375.80 1.948262e-95
375.90 1.948262e-95
376.00 1.948262e-95
376.10 1.948262e-95
376.20 1.948262e-95
376.30 1.948262e-95
376.40 1.948262e-95
376.50 1.948262e-95
376.60 1.948262e-95
376.70 1.948262e-95
376.80 1.948262e-95
376.90 1.948262e-95
377.00 1.948262e-95
377.10 1.948262e-95
377.20 1.948262e-95
377.30 1.948262e-95
377.40 1.948262e-95
377.50 1.948262e-95
377.60 1.948262e-95
377.70 1.948262e-95
377.80 1.948262e-95
377.90 1.948262e-95
378.00 1.948262e-95
378.10 1.948262e-95
378.20 1.948262e-95
378.30 1.948262e-95
378.40 1.948262e-95
378.50 1.948262e-95
378.60 1.948262e-95
378.70 1.948262e-95
378.80 1.948262e-95
378.90 1.948262e-95
379.00 1.948262e-95
379.10 1.948262e-95
379.20 1.948262e-95
379.30 1.948262e-95
379.40 1.948262e-95
379.50 1.948262e-95
379.60 1.948262e-95
379.70 1.948262e-95
379.80 1.948262e-95
379.90 1.948262e-95
380.00 1.948262e-95
380.10 1.948262e-95
380.20 1.948262e-95
380.30 1.948262e-95
380.40 1.948262e-95
380.50 1.948262e-95
380.60 1.948262e-95
380.70 1.948262e-95
380.80 1.948262e-95
380.90 1.948262e-95
381.00 1.948262e-95
381.10 1.948262e-95
381.20 1.948262e-95
381.30 1.948262e-95
381.40 1.948262e-95
381.50 1.948262e-95
381.60 1.948262e-95
381.70 1.948262e-95
381.80 1.948262e-95
381.90 1.948262e-95
382.00 1.948262e-95
382.10 1.948262e-95
382.20 1.948262e-95
382.30 1.948262e-95
382.40 1.948262e-95
382.50 1.948262e-95
382.60 1.948262e-95
382.70 1.948262e-95
382.80 1.948262e-95
382.90 1.948262e-95
383.00 1.948262e-95
383.10 1.948262e-95
383.20 1.948262e-95
383.30 1.948262e-95
383.40 1.948262e-95
383.50 1.948262e-95
383.60 1.948262e-95
383.70 1.948262e-95
383.80 1.948262e-95
383.90 1.948262e-95
384.00 1.948262e-95
384.10 1.948262e-95
384.20 1.948262e-95
384.30 1.948262e-95
384.40 1.948262e-95
384.50 1.948262e-95
384.60 1.948262e-95
384.70 1.948262e-95
384.80 1.948262e-95
384.90 1.948262e-95
385.00 1.948262e-95
385.10 1.948262e-95
385.20 1.948262e-95
385.30 1.948262e-95
385.40 1.948262e-95
385.50 1.948262e-95
385.60 1.948262e-95
385.70 1.948262e-95
385.80 1.948262e-95
385.90 1.948262e-95
386.00 1.948262e-95
386.10 1.948262e-95
386.20 1.948262e-95
386.30 1.948262e-95
386.40 1.948262e-95
386.50 1.948262e-95
386.60 1.948262e-95
386.70 1.948262e-95
386.80 1.948262e-95
386.90 1.948262e-95
387.00 1.948262e-95
387.10 1.948262e-95
387.20 1.948262e-95
387.30 1.948262e-95
387.40 1.948262e-95
387.50 1.948262e-95
387.60 1.948262e-95
387.70 1.948262e-95
387.80 1.948262e-95
387.90 1.948262e-95
388.00 1.948262e-95
388.10 1.948262e-95
388.20 1.948262e-95
388.30 1.948262e-95
388.40 1.948262e-95
388.50 1.948262e-95
388.60 1.948262e-95
388.70 1.948262e-95
388.80 1.948262e-95
388.90 1.948262e-95
389.00 1.948262e-95
389.10 1.948262e-95
389.20 1.948262e-95
389.30 1.948262e-95
389.40 1.948262e-95
389.50 1.948262e-95
389.60 1.948262e-95
389.70 1.948262e-95
389.80 1.948262e-95
389.90 1.948262e-95
390.00 1.948262e-95
390.10 1.948262e-95
390.20 1.948262e-95
390.30 1.948262e-95
390.40 1.948262e-95
390.50 1.948262e-95
390.60 1.948262e-95
390.70 1.948262e-95
390.80 1.948262e-95
390.90 1.948262e-95
391.00 1.948262e-95
391.10 1.948262e-95
391.20 1.948262e-95
391.30 1.948262e-95
391.40 1.948262e-95
391.50 1.948262e-95
391.60 1.948262e-95
391.70 1.948262e-95
391.80 1.948262e-95
391.90 1.948262e-95
392.00 1.948262e-95
392.10 1.948262e-95
392.20 1.948262e-95
392.30 1.948262e-95
392.40 1.948262e-95
392.50 1.948262e-95
392.60 1.948262e-95
392.70 1.948262e-95
392.80 1.948262e-95
392.90 1.948262e-95
393.00 1.948262e-95
393.10 1.948262e-95
393.20 1.948262e-95
393.30 1.948262e-95
393.40 1.948262e-95
393.50 1.948262e-95
393.60 1.948262e-95
393.70 1.948262e-95
393.80 1.948262e-95
393.90 1.948262e-95
394.00 1.948262e-95
394.10 1.948262e-95
394.20 1.948262e-95
394.30 1.948262e-95
394.40 1.948262e-95
394.50 1.948262e-95
394.60 1.948262e-95
394.70 1.948262e-95
394.80 1.948262e-95
394.90 1.948262e-95
395.00 0.1253631
395.10 0.2403058
395.20 0.343494
395.30 0.4336681
395.40 0.5101611
395.50 0.574433
395.60 0.630705
395.70 0.6837216
395.80 0.736764
395.90 0.7916878
396.00 0.8493214
396.10 0.9098655
396.20 0.9725754
396.30 1.035005
396.40 1.092996
396.50 1.139648
396.60 1.167343
396.70 1.174453
396.80 1.174453
396.90 1.174453
397.00 1.174453
397.10 1.174453
397.20 1.189011
397.30 1.221044
397.40 1.269797
397.50 1.332458
397.60 1.404735
397.70 1.483886
397.80 1.567873
397.90 1.65431
398.00 1.741184
398.10 1.825728
398.20 1.90437
398.30 1.973872
398.40 2.032483
398.50 2.081067
398.60 2.123586
398.70 2.165818
398.80 2.212054
398.90 2.264878
399.00 2.32463
399.10 2.387199
399.20 2.446314
399.30 2.49517
399.40 2.526143
399.50 2.533952
399.60 2.533952
399.70 2.533952
399.80 2.533952
399.90 2.533952
400.00 2.533952
400.10 2.533952
400.20 2.533952
400.30 2.533952
400.40 2.533952
400.50 2.533952
400.60 2.533952
400.70 2.55088
400.80 2.589633
400.90 2.645332
401.00 2.709833
401.10 2.775867
401.20 2.839052
401.30 2.897026
401.40 2.946779
401.50 2.985664
401.60 3.015047
401.70 3.040186
401.80 3.067126
401.90 3.100089
402.00 3.139184
402.10 3.17997
402.20 3.21776
402.30 3.249142
402.40 3.271983
402.50 3.286766
402.60 3.295868
402.70 3.301895
402.80 3.306734
402.90 3.311754
403.00 3.317596
403.10 3.323474
403.20 3.32827
403.30 3.330472
403.40 3.330472
403.50 3.330472
403.60 3.330472
403.70 3.330472
403.80 3.336488
403.90 3.35153
404.00 3.372853
404.10 3.397878
404.20 3.424313
404.30 3.448457
404.40 3.4654
404.50 3.471998
404.60 3.471998
404.70 3.471998
404.80 3.471998
404.90 3.471998
405.00 3.346635
405.10 3.231692
405.20 3.128504
405.30 3.03833
405.40 2.961837
405.50 2.897565
405.60 2.841293
405.70 2.788276
405.80 2.735234
405.90 2.68031
406.00 2.622677
406.10 2.562132
406.20 2.504476
406.30 2.459367
406.40 2.431787
406.50 2.427362
406.60 2.449496
406.70 2.493679
406.80 2.539919
406.90 2.574928
407.00 2.593858
407.10 2.59484
407.20 2.580281
407.30 2.548248
407.40 2.499495
407.50 2.436835
407.60 2.364557
407.70 2.285407
407.80 2.201419
407.90 2.118786
408.00 2.046964
408.10 1.986156
408.20 1.935746
408.30 1.893715
408.40 1.857842
408.50 1.825872
408.60 1.793198
408.70 1.754769
408.80 1.709267
408.90 1.656824
409.00 1.599103
409.10 1.54263
409.20 1.495793
409.30 1.465946
409.40 1.459822
409.50 1.481302
409.60 1.512837
409.70 1.544229
409.80 1.573422
409.90 1.598232
410.00 1.618249
410.10 1.635506
410.20 1.65296
410.30 1.674371
410.40 1.702928
410.50 1.740236
410.60 1.786182
410.70 1.820378
410.80 1.832038
410.90 1.82061
411.00 1.790634
411.10 1.748537
411.20 1.699843
411.30 1.648952
411.40 1.60235
411.50 1.56766
411.60 1.548341
411.70 1.541848
411.80 1.542779
411.90 1.54469
412.00 1.542143
412.10 1.534285
412.20 1.521674
412.30 1.504391
412.40 1.483564
412.50 1.468781
412.60 1.459679
412.70 1.453652
412.80 1.448813
412.90 1.443793
413.00 1.444714
413.10 1.452717
413.20 1.466955
413.30 1.48522
413.40 1.503467
413.50 1.517081
413.60 1.525353
413.70 1.529298
413.80 1.524473
413.90 1.509555
414.00 1.489351
414.10 1.467416
414.20 1.446098
414.30 1.429078
414.40 1.420639
414.50 1.421567
414.60 1.425236
414.70 1.425236
414.80 1.425236
414.90 1.425236
415.00 1.425236
415.10 1.429769
415.20 1.441332
415.30 1.458961
415.40 1.47952
415.50 1.498744
415.60 1.512325
415.70 1.516803
415.80 1.516803
415.90 1.516803
416.00 1.516803
416.10 1.516803
416.20 1.511749
416.30 1.494429
416.40 1.464018
416.50 1.421791
416.60 1.371963
416.70 1.320669
416.80 1.274429
416.90 1.240853
417.00 1.225745
417.10 1.230481
417.20 1.237566
417.30 1.245961
417.40 1.2555
417.50 1.265423
417.60 1.276072
417.70 1.289192
417.80 1.306001
417.90 1.322718
418.00 1.330694
418.10 1.331286
418.20 1.329737
418.30 1.334276
418.40 1.350967
418.50 1.381435
418.60 1.425264
418.70 1.479672
418.80 1.539317
418.90 1.599173
419.00 1.654419
419.10 1.700149
419.20 1.733496
419.30 1.754979
419.40 1.768331
419.50 1.778331
419.60 1.787963
419.70 1.79718
419.80 1.80547
419.90 1.813414
420.00 1.820665
420.10 1.826009
420.20 1.82858
420.30 1.826993
420.40 1.820338
420.50 1.809011
420.60 1.793571
420.70 1.777098
420.80 1.764648
420.90 1.759106
421.00 1.760992
421.10 1.767811
421.20 1.774385
421.30 1.775551
421.40 1.7724
421.50 1.768205
421.60 1.75814
421.70 1.739495
421.80 1.711623
421.90 1.67675
422.00 1.6407
422.10 1.618017
422.20 1.608709
422.30 1.611443
422.40 1.622233
422.50 1.626545
422.60 1.626545
422.70 1.626545
422.80 1.626545
422.90 1.626545
423.00 1.619782
423.10 1.605901
423.20 1.587285
423.30 1.572052
423.40 1.562998
423.50 1.561695
423.60 1.56845
423.70 1.582448
423.80 1.603859
423.90 1.633746
424.00 1.670269
424.10 1.709675
424.20 1.748501
424.30 1.78433
424.40 1.81601
424.50 1.84364
424.60 1.867465
424.70 1.885166
424.80 1.892585
424.90 1.892585
425.00 1.892585
425.10 1.888051
425.20 1.876488
425.30 1.858859
425.40 1.840542
425.50 1.831476
425.60 1.834224
425.70 1.847681
425.80 1.862474
425.90 1.871288
426.00 1.873701
426.10 1.873701
426.20 1.873701
426.30 1.877581
426.40 1.890049
426.50 1.912049
426.60 1.942615
426.70 1.979689
426.80 2.020486
426.90 2.060754
427.00 2.09713
427.10 2.128471
427.20 2.154306
427.30 2.174488
427.40 2.189984
427.50 2.202756
427.60 2.213167
427.70 2.219107
427.80 2.21887
427.90 2.212826
428.00 2.202937
428.10 2.190935
428.20 2.176201
428.30 2.156634
428.40 2.132355
428.50 2.106268
428.60 2.081405
428.70 2.059646
428.80 2.040877
428.90 2.02289
429.00 2.004013
429.10 1.984015
429.20 1.962693
429.30 1.939238
429.40 1.912029
429.50 1.879191
429.60 1.841324
429.70 1.802457
429.80 1.765719
429.90 1.732965
430.00 1.705697
430.10 1.683096
430.20 1.663071
430.30 1.643247
430.40 1.621345
430.50 1.595364
430.60 1.564858
430.70 1.530207
430.80 1.492245
430.90 1.453515
431.00 1.417104
431.10 1.386348
431.20 1.365283
431.30 1.357035
431.40 1.357035
431.50 1.357035
431.60 1.357035
431.70 1.357035
431.80 1.357035
431.90 1.36187
432.00 1.378537
432.10 1.393981
432.20 1.406813
432.30 1.41481
432.40 1.415767
432.50 1.411456
432.60 1.411456
432.70 1.411456
432.80 1.411456
432.90 1.411456
433.00 1.411456
433.10 1.411456
433.20 1.411037
433.30 1.405803
433.40 1.401562
433.50 1.406628
433.60 1.419437
433.70 1.435671
433.80 1.447756
433.90 1.446938
434.00 1.427975
434.10 1.390574
434.20 1.346632
434.30 1.303678
434.40 1.263494
434.50 1.228337
434.60 1.200844
434.70 1.188163
434.80 1.205478
434.90 1.248082
435.00 1.304547
435.10 1.370044
435.20 1.438786
435.30 1.5042
435.40 1.558584
435.50 1.592281
435.60 1.60443
435.70 1.59878
435.80 1.583987
435.90 1.575173
436.00 1.57276
436.10 1.57276
436.20 1.57276
436.30 1.56888
436.40 1.556412
436.50 1.534412
436.60 1.503846
436.70 1.466772
436.80 1.425975
436.90 1.384274
437.00 1.344075
437.10 1.307017
437.20 1.274097
437.30 1.245521
437.40 1.220485
437.50 1.210688
437.60 1.217514
437.70 1.23843
437.80 1.270121
437.90 1.307883
438.00 1.346721
438.10 1.382191
438.20 1.410458
438.30 1.427736
438.40 1.429367
438.50 1.411294
438.60 1.382483
438.70 1.34603
438.80 1.304421
438.90 1.26217
439.00 1.223771
439.10 1.191942
439.20 1.16764
439.30 1.150602
439.40 1.139609
439.50 1.133158
439.60 1.129858
439.70 1.128117
439.80 1.127372
439.90 1.127372
440.00 1.136139
440.10 1.158408
440.20 1.192722
440.30 1.233877
440.40 1.274373
440.50 1.306167
440.60 1.322908
440.70 1.322908
440.80 1.322908
440.90 1.322908
441.00 1.322908
441.10 1.322908
441.20 1.322908
441.30 1.32988
441.40 1.343966
441.50 1.361304
441.60 1.378546
441.70 1.393253
441.80 1.403919
441.90 1.405186
442.00 1.389616
442.10 1.363928
442.20 1.335224
442.30 1.310394
442.40 1.296632
442.50 1.296632
442.60 1.296632
442.70 1.305102
442.80 1.326028
442.90 1.359621
443.00 1.403261
443.10 1.451765
443.20 1.498052
443.30 1.534392
443.40 1.54931
443.50 1.531932
443.60 1.504096
443.70 1.46992
443.80 1.435231
443.90 1.40604
444.00 1.38736
444.10 1.382265
444.20 1.382265
444.30 1.382265
444.40 1.384922
444.50 1.390508
444.60 1.394633
444.70 1.390273
444.80 1.36554
444.90 1.322936
445.00 1.26647
445.10 1.200973
445.20 1.132232
445.30 1.066817
445.40 1.010192
445.50 0.9663363
445.60 0.937859
445.70 0.9255743
445.80 0.9255743
445.90 0.9255743
446.00 0.9255743
446.10 0.9255743
446.20 0.9255743
446.30 0.9255743
446.40 0.9255743
446.50 0.9255743
446.60 0.9255743
446.70 0.9255743
446.80 0.9255743
446.90 0.9255743
447.00 0.9255743
447.10 0.9255743
447.20 0.927615
447.30 0.9326794
447.40 0.9383009
447.50 0.9286528
447.60 0.9007673
447.70 0.8607908
447.80 0.812528
447.90 0.7602893
448.00 0.7098244
448.10 0.6693862
448.20 0.6419356
448.30 0.6289017
448.40 0.6300428
448.50 0.643751
448.60 0.6579062
448.70 0.6702346
448.80 0.6835415
448.90 0.7005993
449.00 0.7229111
449.10 0.7512103
449.20 0.7850292
449.30 0.8223463
449.40 0.8604774
449.50 0.8962846
449.60 0.9262042
449.70 0.9475456
449.80 0.9597568
449.90 0.9637341
450.00 0.9549669
450.10 0.9326981
450.20 0.8983843
450.30 0.8572285
450.40 0.8167329
450.50 0.7849388
450.60 0.7726003
450.70 0.7806902
450.80 0.7903558
450.90 0.7995652
451.00 0.8066155
451.10 0.8104816
451.20 0.811476
451.30 0.8045042
451.40 0.7904186
451.50 0.7743077
451.60 0.7595723
451.70 0.748223
451.80 0.7412117
451.90 0.7380606
452.00 0.738093
452.10 0.7390573
452.20 0.7410897
452.30 0.746406
452.40 0.7570604
452.50 0.7740424
452.60 0.7964085
452.70 0.81333
452.80 0.8186075
452.90 0.8107094
453.00 0.7916444
453.10 0.7666469
453.20 0.7430876
453.30 0.7284381
453.40 0.7281589
453.50 0.7437128
453.60 0.7526747
453.70 0.7534302
453.80 0.7534302
453.90 0.7534302
454.00 0.7534302
454.10 0.7534302
454.20 0.7597975
454.30 0.7737536
454.40 0.7902744
454.50 0.8049064
454.60 0.8164532
454.70 0.821251
454.80 0.821251
454.90 0.821251
455.00 0.821251
455.10 0.821251
455.20 0.821251
455.30 0.821251
455.40 0.821251
455.50 0.8266946
455.60 0.8489589
455.70 0.8855947
455.80 0.9303442
455.90 0.9751215
456.00 1.013485
456.10 1.041734
456.20 1.058051
456.30 1.06215
456.40 1.06215
456.50 1.06215
456.60 1.06215
456.70 1.06215
456.80 1.06215
456.90 1.06215
457.00 1.06215
457.10 1.06215
457.20 1.06011
457.30 1.055045
457.40 1.049424
457.50 1.046174
457.60 1.046174
457.70 1.047932
457.80 1.053294
457.90 1.062443
458.00 1.072597
458.10 1.076334
458.20 1.070644
458.30 1.055279
458.40 1.037357
458.50 1.020728
458.60 1.006573
458.70 0.9942444
458.80 0.9809374
458.90 0.9638797
459.00 0.9415678
459.10 0.9132687
459.20 0.8794498
459.30 0.8433463
459.40 0.8082483
459.50 0.7760493
459.60 0.749882
459.70 0.7319845
459.80 0.722291
459.90 0.7189121
460.00 0.7189121
460.10 0.7189121
460.20 0.7189121
460.30 0.7189121
460.40 0.7189121
460.50 0.7189121
460.60 0.7145096
460.70 0.7072136
460.80 0.6991177
460.90 0.6922663
461.00 0.6881201
461.10 0.6868143
461.20 0.686722
461.30 0.686722
461.40 0.686722
461.50 0.6854948
461.60 0.682988
461.70 0.6796297
461.80 0.6759756
461.90 0.6730241
462.00 0.6713961
462.10 0.6704318
462.20 0.6683994
462.30 0.6630831
462.40 0.6524287
462.50 0.6354467
462.60 0.6210464
462.70 0.6169865
462.80 0.6190402
462.90 0.6217333
463.00 0.6210156
463.10 0.6139686
463.20 0.5987815
463.30 0.5770908
463.40 0.5575018
463.50 0.5419479
463.60 0.532986
463.70 0.5322305
463.80 0.5322305
463.90 0.5326199
464.00 0.5385754
464.10 0.5490903
464.20 0.5553135
464.30 0.5537371
464.40 0.5452315
464.50 0.5329931
464.60 0.5218056
464.70 0.5163475
464.80 0.5163475
464.90 0.5163475
465.00 0.5163475
465.10 0.5163475
465.20 0.5167074
465.30 0.5236604
465.40 0.5359801
465.50 0.54564
465.60 0.5382371
465.70 0.5127376
465.80 0.4719788
465.90 0.4272016
466.00 0.3888381
466.10 0.3605886
466.20 0.3442725
466.30 0.3401726
466.40 0.3401726
466.50 0.3461226
466.60 0.3597401
466.70 0.3767875
466.80 0.3916475
466.90 0.3994502
467.00 0.3994502
467.10 0.3994502
467.20 0.3994502
467.30 0.3994502
467.40 0.3994502
467.50 0.3994502
467.60 0.3994502
467.70 0.397692
467.80 0.3997077
467.90 0.4034232
468.00 0.4062044
468.10 0.4072938
468.20 0.4071861
468.30 0.4058636
468.40 0.4058636
468.50 0.4058636
468.60 0.4058636
468.70 0.4058636
468.80 0.4058636
468.90 0.4058636
469.00 0.4058636
469.10 0.4058636
469.20 0.4058636
469.30 0.40465
469.40 0.4016168
469.50 0.3980086
469.60 0.3942563
469.70 0.3908124
469.80 0.389974
469.90 0.3951311
470.00 0.4024651
470.10 0.409466
470.20 0.4159825
470.30 0.4234299
470.40 0.4331565
470.50 0.4449488
470.60 0.4579039
470.70 0.4717063
470.80 0.4877278
470.90 0.5063577
471.00 0.526948
471.10 0.5487074
471.20 0.5710253
471.30 0.5912428
471.40 0.6067766
471.50 0.6168676
471.60 0.6216046
471.70 0.6216046
471.80 0.6216046
471.90 0.6216046
472.00 0.6216046
472.10 0.6216046
472.20 0.6216046
472.30 0.6216046
472.40 0.6216046
472.50 0.6216046
472.60 0.6197275
472.70 0.6136667
472.80 0.6098418
472.90 0.6125665
473.00 0.6225412
473.10 0.6397811
473.20 0.6642565
473.30 0.6944919
473.40 0.7240703
473.50 0.7537952
473.60 0.783035
473.70 0.8095433
473.80 0.8296519
473.90 0.8393439
474.00 0.8333885
474.10 0.8228736
474.20 0.8102831
474.30 0.7979034
474.40 0.7872309
474.50 0.7792519
474.60 0.7747676
474.70 0.7747676
474.80 0.7747676
474.90 0.7747676
475.00 0.7747676
475.10 0.7790676
475.20 0.7958503
475.30 0.8162454
475.40 0.8367504
475.50 0.8542737
475.60 0.8667727
475.70 0.8740285
475.80 0.8775438
475.90 0.8775438
476.00 0.8775438
476.10 0.8775438
476.20 0.8775438
476.30 0.8775438
476.40 0.8775438
476.50 0.8715938
476.60 0.8579763
476.70 0.840929
476.80 0.8260689
476.90 0.8203407
477.00 0.8248689
477.10 0.8296529
477.20 0.8327154
477.30 0.8330813
477.40 0.8330813
477.50 0.8330813
477.60 0.8362379
477.70 0.8439514
477.80 0.8482756
477.90 0.8506242
478.00 0.8545803
478.10 0.8631395
478.20 0.8779693
478.30 0.9005501
478.40 0.9245207
478.50 0.9502363
478.60 0.9775624
478.70 1.005544
478.80 1.032875
478.90 1.058187
479.00 1.079615
479.10 1.095512
479.20 1.105254
479.30 1.10914
479.40 1.10914
479.50 1.10914
479.60 1.10914
479.70 1.10914
479.80 1.107461
479.90 1.101705
480.00 1.09717
480.10 1.097337
480.20 1.101437
480.30 1.105468
480.40 1.105991
480.50 1.103224
480.60 1.099504
480.70 1.096128
480.80 1.093309
480.90 1.092063
481.00 1.094333
481.10 1.102451
481.20 1.118176
481.30 1.141466
481.40 1.170682
481.50 1.203228
481.60 1.23613
481.70 1.266609
481.80 1.288331
481.90 1.299744
482.00 1.300304
482.10 1.300304
482.20 1.300304
482.30 1.300304
482.40 1.300304
482.50 1.300304
482.60 1.294215
482.70 1.278945
482.80 1.256163
482.90 1.230409
483.00 1.203344
483.10 1.176484
483.20 1.150962
483.30 1.127498
483.40 1.106092
483.50 1.086681
483.60 1.070218
483.70 1.059076
483.80 1.057557
483.90 1.07001
484.00 1.096611
484.10 1.126063
484.20 1.155536
484.30 1.181722
484.40 1.201886
484.50 1.213771
484.60 1.215739
484.70 1.215739
484.80 1.215739
484.90 1.215739
485.00 1.215739
485.10 1.211439
485.20 1.194296
485.30 1.166948
485.40 1.134124
485.50 1.106173
485.60 1.089645
485.70 1.087183
485.80 1.098485
485.90 1.117455
486.00 1.134332
486.10 1.148081
486.20 1.159274
486.30 1.168844
486.40 1.176894
486.50 1.182903
486.60 1.186676
486.70 1.188309
486.80 1.188309
486.90 1.186234
487.00 1.181706
487.10 1.176922
487.20 1.173859
487.30 1.173494
487.40 1.173494
487.50 1.173494
487.60 1.170337
487.70 1.162623
487.80 1.150922
487.90 1.137224
488.00 1.124204
488.10 1.112857
488.20 1.103353
488.30 1.093263
488.40 1.079295
488.50 1.059987
488.60 1.035785
488.70 1.008686
488.80 0.9814241
488.90 0.9568705
489.00 0.9380188
489.10 0.9270379
489.20 0.92435
489.30 0.9291832
489.40 0.9399908
489.50 0.9538181
489.60 0.9714924
489.70 0.9938681
489.80 1.020826
489.90 1.050636
490.00 1.077828
490.10 1.098808
490.20 1.113056
490.30 1.12138
490.40 1.12454
490.50 1.122465
490.60 1.114711
490.70 1.103491
490.80 1.088719
490.90 1.068977
491.00 1.043213
491.10 1.010775
491.20 0.9718296
491.30 0.9283226
491.40 0.8855431
491.50 0.8469236
491.60 0.8144022
491.70 0.7910765
491.80 0.7794889
491.90 0.7809932
492.00 0.7956375
492.10 0.8125237
492.20 0.830407
492.30 0.8484795
492.40 0.8653054
492.50 0.8795974
492.60 0.8915483
492.70 0.9024666
492.80 0.912521
492.90 0.921364
493.00 0.9315138
493.10 0.9428191
493.20 0.9545084
493.30 0.9654944
493.40 0.9740812
493.50 0.9796398
493.60 0.9827565
493.70 0.983856
493.80 0.982548
493.90 0.978651
494.00 0.9719725
494.10 0.9624724
494.20 0.9515178
494.30 0.9413818
494.40 0.9337034
494.50 0.9297792
494.60 0.9307673
494.70 0.9307673
494.80 0.9307673
494.90 0.9307673
495.00 0.9307673
495.10 0.9307673
495.20 0.9307673
495.30 0.9307673
495.40 0.9307673
495.50 0.9260911
495.60 0.9152588
495.70 0.8993285
495.80 0.8805204
495.90 0.8615507
496.00 0.8446732
496.10 0.8309249
496.20 0.8197314
496.30 0.8101615
496.40 0.8055966
496.50 0.8057664
496.60 0.8088261
496.70 0.8119501
496.80 0.8121679
496.90 0.8121679
497.00 0.8121679
497.10 0.8121679
497.20 0.8121679
497.30 0.8121679
497.40 0.8121679
497.50 0.8121679
497.60 0.8121679
497.70 0.8121679
497.80 0.8121679
497.90 0.8106526
498.00 0.8052698
498.10 0.7967375
498.20 0.7951574
498.30 0.8029844
498.40 0.822298
498.50 0.8533662
498.60 0.8941155
498.70 0.93984
498.80 0.9838671
498.90 1.019347
499.00 1.041369
499.10 1.04867
499.20 1.043799
499.30 1.03508
499.40 1.024272
499.50 1.010449
499.60 1.00155
499.70 0.9980442
499.80 0.998303
499.90 0.999843
500.00 1
500.10 0.9961874
500.20 0.987259
500.30 0.9748137
500.40 0.9615405
500.50 0.95459
500.60 0.9531086
500.70 0.9531086
500.80 0.9531086
500.90 0.9531086
501.00 0.9551902
501.10 0.9606343
501.20 0.9679549
501.30 0.9753882
501.40 0.9790034
501.50 0.9763261
501.60 0.9712086
501.70 0.9640547
501.80 0.9539205
501.90 0.9410034
502.00 0.9257989
502.10 0.9089127
502.20 0.8910294
502.30 0.8729569
502.40 0.856131
502.50 0.841839
502.60 0.8298881
502.70 0.8238267
502.80 0.8231516
502.90 0.8224809
503.00 0.8184831
503.10 0.8101081
503.20 0.7965904
503.30 0.7788333
503.40 0.7620741
503.50 0.7462015
503.60 0.7303081
503.70 0.713842
503.80 0.6965608
503.90 0.6779235
504.00 0.6580009
504.10 0.6380491
504.20 0.6195299
504.30 0.6034802
504.40 0.590995
504.50 0.5830342
504.60 0.5800777
504.70 0.5800777
504.80 0.5800777
504.90 0.5800777
505.00 0.5800777
505.10 0.5800777
505.20 0.5814775
505.30 0.5895471
505.40 0.6016172
505.50 0.6155089
505.60 0.629785
505.70 0.643663
505.80 0.6571615
505.90 0.6715527
506.00 0.688776
506.10 0.709882
506.20 0.734867
506.30 0.7621379
506.40 0.7851391
506.50 0.8023988
506.60 0.814841
506.70 0.8247332
506.80 0.8347664
506.90 0.8408688
507.00 0.8427705
507.10 0.8427705
507.20 0.8427705
507.30 0.8427705
507.40 0.8427705
507.50 0.8427705
507.60 0.8427705
507.70 0.8435106
507.80 0.8472315
507.90 0.8533539
508.00 0.8612132
508.10 0.86945
508.20 0.8684828
508.30 0.8584559
508.40 0.8406681
508.50 0.8166511
508.60 0.7889446
508.70 0.7610679
508.80 0.7368093
508.90 0.7203224
509.00 0.7146874
509.10 0.7195578
509.20 0.7311354
509.30 0.7409219
509.40 0.7474352
509.50 0.7520641
509.60 0.747463
509.70 0.7331736
509.80 0.7108306
509.90 0.6837572
510.00 0.6559912
510.10 0.6316553
510.20 0.6157191
510.30 0.6083623
510.40 0.608226
510.50 0.608226
510.60 0.608226
510.70 0.608226
510.80 0.608226
510.90 0.608226
511.00 0.6061445
511.10 0.6007004
511.20 0.5933798
511.30 0.5859465
511.40 0.5803605
511.50 0.5790209
511.60 0.5790209
511.70 0.5790209
511.80 0.5790209
511.90 0.5790209
512.00 0.5790209
512.10 0.5790209
512.20 0.5790209
512.30 0.5790209
512.40 0.5790209
512.50 0.579774
512.60 0.5886208
512.70 0.5993072
512.80 0.6080804
512.90 0.6160707
513.00 0.6245246
513.10 0.6348179
513.20 0.6472528
513.30 0.6588152
513.40 0.6625278
513.50 0.6625278
513.60 0.6625278
513.70 0.6625278
513.80 0.6625278
513.90 0.6625278
514.00 0.6625278
514.10 0.6625278
514.20 0.6656089
514.30 0.6793954
514.40 0.7019195
514.50 0.729018
514.60 0.7558266
514.70 0.7779512
514.80 0.7927246
514.90 0.7999253
515.00 0.8005857
515.10 0.8005857
515.20 0.7991859
515.30 0.7911164
515.40 0.7790462
515.50 0.7651546
515.60 0.7508785
515.70 0.7370004
515.80 0.723502
515.90 0.7091108
516.00 0.6918875
516.10 0.6707815
516.20 0.6457964
516.30 0.6185256
516.40 0.5920394
516.50 0.5707547
516.60 0.5580777
516.70 0.5540182
516.80 0.5572971
516.90 0.5660234
517.00 0.5776559
517.10 0.5873003
517.20 0.5915832
517.30 0.5915832
517.40 0.5915832
517.50 0.5915832
517.60 0.5915832
517.70 0.5908431
517.80 0.5878104
517.90 0.5901354
518.00 0.5976246
518.10 0.6084702
518.20 0.619667
518.30 0.6275091
518.40 0.6286419
518.50 0.6219291
518.60 0.6080632
518.70 0.5894666
518.80 0.5701821
518.90 0.5537636
519.00 0.541507
519.10 0.5332382
519.20 0.5288695
519.30 0.5279917
519.40 0.5295449
519.50 0.5326519
519.60 0.5376068
519.70 0.5459865
519.80 0.5607359
519.90 0.5848385
520.00 0.6204683
520.10 0.6681626
520.20 0.7236645
520.30 0.7827647
520.40 0.8398198
520.50 0.8895291
520.60 0.9287914
520.70 0.9570943
520.80 0.9755821
520.90 0.986462
521.00 0.9926141
521.10 0.9972944
521.20 1.002912
521.30 1.010303
521.40 1.018511
521.50 1.025026
521.60 1.028128
521.70 1.028515
521.80 1.029592
521.90 1.035498
522.00 1.048831
522.10 1.070065
522.20 1.097893
522.30 1.130334
522.40 1.16489
522.50 1.198019
522.60 1.220355
522.70 1.232025
522.80 1.234925
522.90 1.232168
523.00 1.226323
523.10 1.218631
523.20 1.210535
523.30 1.204983
523.40 1.205005
523.50 1.207427
523.60 1.210075
523.70 1.214275
523.80 1.220323
523.90 1.227449
524.00 1.234708
524.10 1.241917
524.20 1.246565
524.30 1.241404
524.40 1.228293
524.50 1.211122
524.60 1.194391
524.70 1.181947
524.80 1.175912
524.90 1.17617
525.00 1.181375
525.10 1.185634
525.20 1.189762
525.30 1.196107
525.40 1.20523
525.50 1.21564
525.60 1.225452
525.70 1.233595
525.80 1.240428
525.90 1.247466
526.00 1.256261
526.10 1.267871
526.20 1.28304
526.30 1.301892
526.40 1.324184
526.50 1.347285
526.60 1.367881
526.70 1.385514
526.80 1.40152
526.90 1.418556
527.00 1.439918
527.10 1.468086
527.20 1.503019
527.30 1.540477
527.40 1.572328
527.50 1.59521
527.60 1.606244
527.70 1.606244
527.80 1.605555
527.90 1.597108
528.00 1.581759
528.10 1.561812
528.20 1.540869
528.30 1.522737
528.40 1.510075
528.50 1.50333
528.60 1.501766
528.70 1.513321
528.80 1.533134
528.90 1.555027
529.00 1.573831
529.10 1.586706
529.20 1.591868
529.30 1.5882
529.40 1.580134
529.50 1.572394
529.60 1.563265
529.70 1.550305
529.80 1.530682
529.90 1.502302
530.00 1.464291
530.10 1.416597
530.20 1.361095
530.30 1.301995
530.40 1.244939
530.50 1.198495
530.60 1.171013
530.70 1.161116
530.80 1.165276
530.90 1.178803
531.00 1.196106
531.10 1.210454
531.20 1.216554
531.30 1.212527
531.40 1.204319
531.50 1.197804
531.60 1.194702
531.70 1.194314
531.80 1.193238
531.90 1.187332
532.00 1.181091
532.10 1.173505
532.20 1.163095
532.30 1.147933
532.40 1.126761
532.50 1.101233
532.60 1.074301
532.70 1.049255
532.80 1.029363
532.90 1.016529
533.00 1.011173
533.10 1.01243
533.20 1.018003
533.30 1.023957
533.40 1.026529
533.50 1.024107
533.60 1.021458
533.70 1.017259
533.80 1.011211
533.90 1.004085
534.00 0.9968263
534.10 0.9944499
534.20 0.9951485
534.30 0.9967504
534.40 0.9973868
534.50 0.9959684
534.60 0.9925077
534.70 0.988258
534.80 0.9848266
534.90 0.9828061
535.00 0.9818594
535.10 0.9806898
535.20 0.9765622
535.30 0.970217
535.40 0.9610941
535.50 0.950684
535.60 0.9408723
535.70 0.9327293
535.80 0.9258957
535.90 0.9188576
536.00 0.9100633
536.10 0.8984533
536.20 0.8832838
536.30 0.8644316
536.40 0.8421398
536.50 0.8168855
536.60 0.7896913
536.70 0.7708714
536.80 0.7567287
536.90 0.7417446
537.00 0.7215146
537.10 0.6940558
537.20 0.6605681
537.30 0.6251832
537.40 0.5937697
537.50 0.5725064
537.60 0.5667902
537.70 0.5767265
537.80 0.5899545
537.90 0.6046391
538.00 0.6205411
538.10 0.6388888
538.20 0.6611846
538.30 0.6883949
538.40 0.7200678
538.50 0.7544432
538.60 0.7884729
538.70 0.8092122
538.80 0.8162664
538.90 0.8124375
539.00 0.8038403
539.10 0.7974801
539.20 0.7997498
539.30 0.8146632
539.40 0.8383618
539.50 0.8645415
539.60 0.890987
539.70 0.9148637
539.80 0.9333968
539.90 0.944929
540.00 0.9495542
540.10 0.9495542
540.20 0.9495542
540.30 0.9506814
540.40 0.9589533
540.50 0.9737819
540.60 0.9898403
540.70 1.005187
540.80 1.015781
540.90 1.017851
541.00 1.009647
541.10 0.9923202
541.20 0.980603
541.30 0.9772392
541.40 0.9772392
541.50 0.9772392
541.60 0.9772392
541.70 0.9772392
541.80 0.9852142
541.90 1.002671
542.00 1.017341
542.10 1.025667
542.20 1.027127
542.30 1.022155
542.40 1.012408
542.50 1.004053
542.60 0.9998031
542.70 0.9976354
542.80 0.9948247
542.90 0.9888945
543.00 0.9787222
543.10 0.9650947
543.20 0.9505658
543.30 0.9396768
543.40 0.934815
543.50 0.936352
543.60 0.9378292
543.70 0.9392205
543.80 0.9401595
543.90 0.9401595
544.00 0.9401595
544.10 0.9353267
544.20 0.9268983
544.30 0.9166711
544.40 0.9066216
544.50 0.8981126
544.60 0.8914958
544.70 0.8860651
544.80 0.8807576
544.90 0.8753195
545.00 0.8749988
545.10 0.8829362
545.20 0.896774
545.30 0.9097234
545.40 0.9198012
545.50 0.9268573
545.60 0.9319208
545.70 0.9367077
545.80 0.9435881
545.90 0.9542835
546.00 0.968823
546.10 0.9859636
546.20 1.004151
546.30 1.021994
546.40 1.038385
546.50 1.053245
546.60 1.068438
546.70 1.077649
546.80 1.086372
546.90 1.099173
547.00 1.119052
547.10 1.147793
547.20 1.184997
547.30 1.228516
547.40 1.275067
547.50 1.320417
547.60 1.36035
547.70 1.392911
547.80 1.419903
547.90 1.444335
548.00 1.46745
548.10 1.488019
548.20 1.503724
548.30 1.512751
548.40 1.514236
548.50 1.507571
548.60 1.492968
548.70 1.472989
548.80 1.452077
548.90 1.433987
549.00 1.419783
549.10 1.408136
549.20 1.396973
549.30 1.385985
549.40 1.376171
549.50 1.36867
549.60 1.36545
549.70 1.369347
549.80 1.382787
549.90 1.407204
550.00 0.7899904
550.10 0.8877273
550.20 0.9949357
550.30 1.106229
550.40 1.220088
550.50 1.333667
550.60 1.443099
550.70 1.545865
550.80 1.644067
550.90 1.741857
551.00 1.839402
551.10 1.936692
551.20 2.031695
551.30 2.122288
551.40 2.205184
551.50 2.274459
551.60 2.32487
551.70 2.355994
551.80 2.372262
551.90 2.380533
552.00 2.375811
552.10 2.357458
552.20 2.337017
552.30 2.32756
552.40 2.337077
552.50 2.366131
552.60 2.411538
552.70 2.469004
552.80 2.531736
552.90 2.59487
553.00 2.658893
553.10 2.724787
553.20 2.79043
553.30 2.850503
553.40 2.899078
553.50 2.929921
553.60 2.933796
553.70 2.899733
553.80 2.839442
553.90 2.765236
554.00 2.678875
554.10 2.581138
554.20 2.473806
554.30 2.380059
554.40 2.31599
554.50 2.279655
554.60 2.263599
554.70 2.255862
554.80 2.242197
554.90 2.210756
555.00 2.157963
555.10 2.089808
555.20 2.01919
555.30 1.955005
555.40 1.889312
555.50 1.820037
555.60 1.769625
555.70 1.738501
555.80 1.722233
555.90 1.713962
556.00 1.70719
556.10 1.697976
556.20 1.683822
556.30 1.660906
556.40 1.660871
556.50 1.689048
556.60 1.721194
556.70 1.732969
556.80 1.718327
556.90 1.68075
557.00 1.622499
557.10 1.549751
557.20 1.471226
557.30 1.396796
557.40 1.334485
557.50 1.290466
557.60 1.271604
557.70 1.285489
557.80 1.322455
557.90 1.378124
558.00 1.457698
558.10 1.563282
558.20 1.693274
558.30 1.821539
558.40 1.925572
558.50 1.999647
558.60 2.043867
558.70 2.063131
558.80 2.067135
558.90 2.067423
559.00 2.070703
559.10 2.077994
559.20 2.084676
559.30 2.089699
559.40 2.110764
559.50 2.160319
559.60 2.221798
559.70 2.293005
559.80 2.369273
559.90 2.444687
560.00 2.516284
560.10 2.585954
560.20 2.657716
560.30 2.735975
560.40 2.789323
560.50 2.812011
560.60 2.824902
560.70 2.845295
560.80 2.871272
560.90 2.890973
561.00 2.895241
561.10 2.879211
561.20 2.846625
561.30 2.816376
561.40 2.789131
561.50 2.765158
561.60 2.742164
561.70 2.715809
561.80 2.678843
561.90 2.623173
562.00 2.5436
562.10 2.438016
562.20 2.308024
562.30 2.159526
562.40 2.019797
562.50 1.896717
562.60 1.79492
562.70 1.714994
562.80 1.651746
562.90 1.597958
563.00 1.549926
563.10 1.5135
563.20 1.482434
563.30 1.451003
563.40 1.423134
563.50 1.399419
563.60 1.378714
563.70 1.358082
563.80 1.333056
563.90 1.298906
564.00 1.25059
564.10 1.183898
564.20 1.112135
564.30 1.033876
564.40 0.9458522
564.50 0.8482922
564.60 0.7451893
564.70 0.6435885
564.80 0.55232
564.90 0.4803237
565.00 0.4339343
565.10 0.4139679
565.20 0.4178788
565.30 0.4260763
565.40 0.4315431
565.50 0.4315431
565.60 0.4315431
565.70 0.4315431
565.80 0.4386161
565.90 0.463498
566.00 0.508444
566.10 0.574978
566.20 0.6610849
566.30 0.7606775
566.40 0.8475716
566.50 0.917289
566.60 0.9732376
566.70 1.026871
566.80 1.09568
566.90 1.197243
567.00 1.337402
567.10 1.502423
567.20 1.68666
567.30 1.881085
567.40 2.062001
567.50 2.20883
567.60 2.309242
567.70 2.360403
567.80 2.369667
567.90 2.350821
568.00 2.32754
568.10 2.324562
568.20 2.324562
568.30 2.324562
568.40 2.324562
568.50 2.324562
568.60 2.324562
568.70 2.324562
568.80 2.324562
568.90 2.324562
569.00 2.324562
569.10 2.324562
569.20 2.327902
569.30 2.329201
569.40 2.3312
569.50 2.33462
569.60 2.33462
569.70 2.33462
569.80 2.327547
569.90 2.302665
570.00 2.257719
570.10 2.191185
570.20 2.105079
570.30 2.005486
570.40 1.900885
570.50 1.799087
570.60 1.703646
570.70 1.612167
570.80 1.525647
570.90 1.433821
571.00 1.324752
571.10 1.19391
571.20 1.044434
571.30 0.8865941
571.40 0.7358721
571.50 0.6099916
571.60 0.5217595
571.70 0.4759023
571.80 0.4702038
571.90 0.4979571
572.00 0.5406958
572.10 0.574746
572.20 0.5993371
572.30 0.6130615
572.40 0.6143281
572.50 0.6143281
572.60 0.6143281
572.70 0.6143281
572.80 0.6143281
572.90 0.6143281
573.00 0.6143281
573.10 0.6143281
573.20 0.6070779
573.30 0.5975817
573.40 0.5901158
573.50 0.5866951
573.60 0.5866951
573.70 0.600405
573.80 0.6332277
573.90 0.6777056
574.00 0.7244944
574.10 0.7650484
574.20 0.7943074
574.30 0.8113316
574.40 0.8181261
574.50 0.8181261
574.60 0.8181261
574.70 0.8181261
574.80 0.8081965
574.90 0.7856099
575.00 0.7545198
575.10 0.720341
575.20 0.6855803
575.30 0.648995
575.40 0.6084024
575.50 0.5616128
575.60 0.50866
575.70 0.4527808
575.80 0.3979733
575.90 0.347802
576.00 0.3050632
576.10 0.2710131
576.20 0.2542252
576.30 0.2515677
576.40 0.2552678
576.50 0.2552678
576.60 0.2552678
576.70 0.2552678
576.80 0.2552678
576.90 0.2552678
577.00 0.2552678
577.10 0.2615406
577.20 0.3064057
577.30 0.3882148
577.40 0.5020877
577.50 0.6416321
577.60 0.798326
577.70 0.9493827
577.80 1.081162
577.90 1.194732
578.00 1.294761
578.10 1.387067
578.20 1.475576
578.30 1.558667
578.40 1.631864
578.50 1.691597
578.60 1.732244
578.70 1.755729
578.80 1.763387
578.90 1.763387
579.00 1.763387
579.10 1.763387
579.20 1.763387
579.30 1.763387
579.40 1.763387
579.50 1.763387
579.60 1.769216
579.70 1.798993
579.80 1.848562
579.90 1.910028
580.00 1.97358
580.10 2.029802
580.20 2.064121
580.30 2.077723
580.40 2.082217
580.50 2.084138
580.60 2.087107
580.70 2.097502
580.80 2.117984
580.90 2.147545
581.00 2.183322
581.10 2.215957
581.20 2.209605
581.30 2.161806
581.40 2.07384
581.50 1.949756
581.60 1.796342
581.70 1.631576
581.80 1.466973
581.90 1.308926
582.00 1.162108
582.10 1.029248
582.20 0.9114796
582.30 0.8113651
582.40 0.7326943
582.50 0.6774945
582.60 0.6376744
582.70 0.614189
582.80 0.6065315
582.90 0.6065315
583.00 0.6065315
583.10 0.6065315
583.20 0.6109639
583.30 0.6369537
583.40 0.6846866
583.50 0.7502025
583.60 0.8203579
583.70 0.8690601
583.80 0.8940904
583.90 0.8982409
584.00 0.8881209
584.10 0.8722313
584.20 0.8576659
584.30 0.8490898
584.40 0.8474757
584.50 0.8507615
584.60 0.8554049
584.70 0.857947
584.80 0.8590094
584.90 0.8619976
585.00 0.868881
585.10 0.878552
585.20 0.8880803
585.30 0.894787
585.40 0.8963839
585.50 0.8899453
585.60 0.8866652
585.70 0.8866652
585.80 0.8866652
585.90 0.8866652
586.00 0.8866652
586.10 0.8866652
586.20 0.8866652
586.30 0.8866652
586.40 0.8853443
586.50 0.8808116
586.60 0.8799842
586.70 0.8799842
586.80 0.8799842
586.90 0.8799842
587.00 0.8799842
587.10 0.8799842
587.20 0.8755518
587.30 0.849562
587.40 0.8018291
587.50 0.7363133
587.60 0.6603285
587.70 0.5818499
587.80 0.5072502
587.90 0.4416332
588.00 0.3882022
588.10 0.3478697
588.20 0.3203127
588.30 0.317191
588.40 0.3304705
588.50 0.3452554
588.60 0.3511541
588.70 0.3428749
588.80 0.3213313
588.90 0.2887819
589.00 0.2461211
589.10 0.1975421
589.20 0.149501
589.30 0.1145717
589.40 0.09144993
589.50 0.08242827
589.60 0.08242827
589.70 0.08242827
589.80 0.08242827
589.90 0.08242827
590.00 0.08242827
590.10 0.08242827
590.20 0.08242827
590.30 0.08242827
590.40 0.08242827
590.50 0.08242827
590.60 0.08744365
590.70 0.1255005
590.80 0.1884961
590.90 0.2617975
591.00 0.3286047
591.10 0.3736033
591.20 0.3862574
591.30 0.3862574
591.40 0.3862574
591.50 0.3862574
591.60 0.3862574
591.70 0.3862574
591.80 0.3862574
591.90 0.3862574
592.00 0.3862574
592.10 0.3862574
592.20 0.3862574
592.30 0.3807936
592.40 0.391161
592.50 0.4229821
592.60 0.4745338
592.70 0.539077
592.80 0.6051567
592.90 0.6643064
593.00 0.7146595
593.10 0.7551549
593.20 0.7838825
593.30 0.79439
593.40 0.7979772
593.50 0.8061947
593.60 0.8232574
593.70 0.8539777
593.80 0.9005573
593.90 0.9635954
594.00 1.040398
594.10 1.124363
594.20 1.206804
594.30 1.279026
594.40 1.335015
594.50 1.373361
594.60 1.39153
594.70 1.366026
594.80 1.309444
594.90 1.239618
595.00 1.176684
595.10 1.140362
595.20 1.142442
595.30 1.157738
595.40 1.165306
595.50 1.165306
595.60 1.165306
595.70 1.165306
595.80 1.165306
595.90 1.165306
596.00 1.165306
596.10 1.165306
596.20 1.165306
596.30 1.158539
596.40 1.161655
596.50 1.172652
596.60 1.187625
596.70 1.205762
596.80 1.227007
596.90 1.248792
597.00 1.266614
597.10 1.275102
597.20 1.273039
597.30 1.262601
597.40 1.254632
597.50 1.246414
597.60 1.229352
597.70 1.198631
597.80 1.152052
597.90 1.089014
598.00 1.012211
598.10 0.9282462
598.20 0.8458047
598.30 0.7735827
598.40 0.7175937
598.50 0.679248
598.60 0.6628289
598.70 0.6831706
598.80 0.7395129
598.90 0.8233478
599.00 0.9161249
599.10 0.9938618
599.20 1.038738
599.30 1.046913
599.40 1.039346
599.50 1.039346
599.60 1.039346
599.70 1.039346
599.80 1.039346
599.90 1.039346
600.00 0
600.10 0
600.20 0
600.30 0
600.40 0
600.50 0
600.60 0.2705926
600.70 1.315778
600.80 2.510274
600.90 3.492399
601.00 3.866012
601.10 3.456532
601.20 2.384416
601.30 0.938848
601.40 0
601.50 0
601.60 0
601.70 0
601.80 0
601.90 0
602.00 0
602.10 0
602.20 0
602.30 0
602.40 0
602.50 0
602.60 0
602.70 0
602.80 0
602.90 0
603.00 0
603.10 0
603.20 0
603.30 0.3013162
603.40 1.530649
603.50 2.640896
603.60 3.394015
603.70 3.767202
603.80 3.818559
603.90 3.601523
604.00 3.17062
604.10 2.658258
604.20 2.275313
604.30 2.137012
604.40 2.173015
604.50 2.194839
604.60 2.029673
604.70 1.641745
604.80 1.140019
604.90 0.7256725
605.00 0.506375
605.10 0.4022662
605.20 0.2878336
605.30 0.07202041
605.40 0
605.50 0
605.60 0
605.70 0
605.80 0
605.90 0
606.00 0
606.10 0
606.20 0
606.30 0
606.40 0.6629428
606.50 1.375978
606.60 1.841307
606.70 2.082786
606.80 2.100048
606.90 1.82438
607.00 1.280685
607.10 0.6254589
607.20 0.07022042
607.30 0
607.40 0
607.50 0.3001317
607.60 0.9413509
607.70 1.708361
607.80 2.523082
607.90 3.327944
608.00 4.006833
608.10 4.419279
608.20 4.521182
608.30 4.371773
608.40 4.031673
608.50 3.569031
608.60 3.047414
608.70 2.523967
608.80 2.092573
608.90 1.816794
609.00 1.65866
609.10 1.553309
609.20 1.413997
609.30 1.14091
609.40 0.6885085
609.50 0.1361185
609.60 0
609.70 0
609.80 0
609.90 0
610.00 0
610.10 0
610.20 0
610.30 0
610.40 0
610.50 0
610.60 0
610.70 0
610.80 0
610.90 0.02145985
611.00 0.2666987
611.10 0.4751172
611.20 0.7256767
611.30 1.018532
611.40 1.283814
611.50 1.484767
611.60 1.572212
611.70 1.500538
611.80 1.326098
611.90 1.214118
612.00 1.284059
612.10 1.52406
612.20 1.785926
612.30 1.92155
612.40 1.896231
612.50 1.69147
612.60 1.287935
612.70 0.7060765
612.80 0.0423697
612.90 0
613.00 0
613.10 0
613.20 0.2037897
613.30 1.254048
613.40 2.263502
613.50 2.988142
613.60 3.337749
613.70 3.277488
613.80 2.807176
613.90 2.077944
614.00 1.317598
614.10 0.7090747
614.20 0.3555405
614.30 0.2435414
614.40 0.3066559
614.50 0.5226711
614.60 0.8769036
614.70 1.340213
614.80 1.884849
614.90 2.513629
615.00 3.264081
615.10 4.131737
615.20 5.0229
615.30 5.754924
615.40 6.189113
615.50 6.356002
615.60 6.353883
615.70 6.260742
615.80 6.095918
615.90 5.815634
616.00 5.391604
616.10 4.89429
616.20 4.443684
616.30 4.115192
616.40 3.901223
616.50 3.755253
616.60 3.657422
616.70 3.62198
616.80 3.632016
616.90 3.614803
617.00 3.493626
617.10 3.231654
617.20 2.899088
617.30 2.693662
617.40 2.845015
617.50 3.438835
617.60 4.37616
617.70 5.390307
617.80 6.176553
617.90 6.546898
618.00 6.422973
618.10 5.86408
618.20 5.053018
618.30 4.184931
618.40 3.425772
618.50 2.92515
618.60 2.731633
618.70 2.704886
618.80 2.628547
618.90 2.40316
619.00 2.053656
619.10 1.677885
619.20 1.361147
619.30 1.131138
619.40 0.9674644
619.50 0.7826749
619.60 0.4842633
619.70 0.09912258
619.80 0
619.90 0
620.00 0
620.10 0
620.20 0
620.30 0
620.40 0.2446324
620.50 0.8285518
620.60 1.378359
620.70 1.923334
620.80 2.485981
620.90 3.084252
621.00 3.730066
621.10 4.2979
621.20 4.646992
621.30 4.792377
621.40 4.797372
621.50 4.709998
621.60 4.601617
621.70 4.572639
621.80 4.611219
621.90 4.650412
622.00 4.595816
622.10 4.307301
622.20 3.751638
622.30 2.942943
622.40 1.930197
622.50 0.8761051
622.60 0
622.70 0
622.80 0
622.90 0
623.00 0.03421226
623.10 0.552419
623.20 0.9562791
623.30 1.194505
623.40 1.282777
623.50 1.286529
623.60 1.255122
623.70 1.213022
623.80 1.164844
623.90 1.154133
624.00 1.260562
624.10 1.520204
624.20 1.905235
624.30 2.350545
624.40 2.747674
624.50 2.976138
624.60 2.919628
624.70 2.564314
624.80 2.036878
624.90 1.49178
625.00 1.027581
625.10 0.7572366
625.20 0.8181477
625.30 1.204815
625.40 1.787
625.50 2.416899
625.60 3.015159
625.70 3.524093
625.80 3.868475
625.90 4.029063
626.00 4.078004
626.10 4.029751
626.20 3.75748
626.30 3.241231
626.40 2.662968
626.50 2.217087
626.60 2.007161
626.70 2.085345
626.80 2.448828
626.90 2.949544
627.00 3.326215
627.10 3.426549
627.20 3.267394
627.30 2.931174
627.40 2.510701
627.50 2.130517
627.60 1.982178
627.70 2.139979
627.80 2.523563
627.90 2.994611
628.00 3.377722
628.10 3.548209
628.20 3.492072
628.30 3.349748
628.40 3.288657
628.50 3.370611
628.60 3.56833
628.70 3.737787
628.80 3.693568
628.90 3.346641
629.00 2.716989
629.10 1.913816
629.20 1.105534
629.30 0.4336878
629.40 0.00238506
629.50 0.02754197
629.60 0.5890639
629.70 1.450986
629.80 2.286295
629.90 2.808372
630.00 2.876654
630.10 2.579268
630.20 2.204815
630.30 2.01857
630.40 2.093878
630.50 2.251132
630.60 2.301975
630.70 2.306734
630.80 2.392731
630.90 2.508855
631.00 2.615222
631.10 2.823226
631.20 3.236347
631.30 3.877278
631.40 4.663144
631.50 5.432536
631.60 5.98363
631.70 6.216436
631.80 6.169005
631.90 6.038877
632.00 6.016166
632.10 6.138724
632.20 6.417976
632.30 6.803019
632.40 7.207616
632.50 7.548656
632.60 7.740848
632.70 7.768192
632.80 7.684558
632.90 7.557302
633.00 7.385101
633.10 7.056224
633.20 6.482697
633.30 5.71398
633.40 4.864488
633.50 4.031774
633.60 3.294317
633.70 2.727576
633.80 2.339257
633.90 2.102682
634.00 2.03261
634.10 2.120432
634.20 2.293478
634.30 2.490369
634.40 2.734104
634.50 3.110365
634.60 3.708836
634.70 4.527234
634.80 5.476467
634.90 6.401758
635.00 7.121487
635.10 7.473732
635.20 7.330357
635.30 6.676922
635.40 5.655355
635.50 4.51342
635.60 3.541914
635.70 2.968019
635.80 2.859309
635.90 3.19509
636.00 3.855042
636.10 4.590621
636.20 5.173515
636.30 5.499197
636.40 5.539418
636.50 5.332059
636.60 5.028693
636.70 4.805144
636.80 4.696959
636.90 4.599406
637.00 4.403417
637.10 4.113516
637.20 3.819407
637.30 3.564687
637.40 3.445667
637.50 3.683707
637.60 4.350552
637.70 5.288024
637.80 6.264374
637.90 7.054874
638.00 7.465288
638.10 7.365775
638.20 6.817461
638.30 6.058459
638.40 5.311256
638.50 4.67975
638.60 4.23139
638.70 4.030048
638.80 4.052666
638.90 4.170835
639.00 4.298022
639.10 4.425327
639.20 4.540122
639.30 4.646954
639.40 4.763015
639.50 4.896307
639.60 5.01799
639.70 5.054537
639.80 4.989699
639.90 4.902046
640.00 4.861614
640.10 4.918716
640.20 5.102312
640.30 5.370811
640.40 5.635333
640.50 5.832935
640.60 5.946223
640.70 5.935355
640.80 5.765141
640.90 5.48598
641.00 5.192
641.10 4.992032
641.20 4.944214
641.30 5.016344
641.40 5.141972
641.50 5.218663
641.60 5.208908
641.70 5.218219
641.80 5.346494
641.90 5.59514
642.00 5.911758
642.10 6.243075
642.20 6.542865
642.30 6.727411
642.40 6.714464
642.50 6.481276
642.60 6.074088
642.70 5.572299
642.80 5.065677
642.90 4.688513
643.00 4.494831
643.10 4.412803
643.20 4.362656
643.30 4.272161
643.40 4.082685
643.50 3.807116
643.60 3.511297
643.70 3.268863
643.80 3.161187
643.90 3.248106
644.00 3.554791
644.10 4.092277
644.20 4.840681
644.30 5.70169
644.40 6.561923
644.50 7.326399
644.60 7.871123
644.70 8.131962
644.80 8.161147
644.90 8.012411
645.00 7.730777
645.10 7.410989
645.20 7.140273
645.30 6.964157
645.40 6.887448
645.50 6.867502
645.60 6.830449
645.70 6.72687
645.80 6.549308
645.90 6.310748
646.00 6.07562
646.10 5.914784
646.20 5.862271
646.30 5.950505
646.40 6.139076
646.50 6.329055
646.60 6.445441
646.70 6.444523
646.80 6.319979
646.90 6.098444
647.00 5.83833
647.10 5.61605
647.20 5.458757
647.30 5.306189
647.40 5.122731
647.50 4.944358
647.60 4.788812
647.70 4.644918
647.80 4.558446
647.90 4.600431
648.00 4.772375
648.10 5.043132
648.20 5.398358
648.30 5.80546
648.40 6.209264
648.50 6.55633
648.60 6.838781
648.70 7.10784
648.80 7.397599
648.90 7.704553
649.00 8.00857
649.10 8.277506
649.20 8.525321
649.30 8.819119
649.40 9.19203
649.50 9.620092
649.60 10.031
649.70 10.36359
649.80 10.55004
649.90 10.50914
650.00 10.20461
650.10 9.644045
650.20 8.877909
650.30 7.979863
650.40 7.086419
650.50 6.395345
650.60 6.016417
650.70 5.913355
650.80 6.018094
650.90 6.273057
651.00 6.630019
651.10 7.049078
651.20 7.530049
651.30 8.062483
651.40 8.582504
651.50 9.059914
651.60 9.505265
651.70 9.944102
651.80 10.37321
651.90 10.69117
652.00 10.80513
652.10 10.72531
652.20 10.49654
652.30 10.17599
652.40 9.822753
652.50 9.485861
652.60 9.209902
652.70 9.020581
652.80 8.873046
652.90 8.712265
653.00 8.547963
653.10 8.420513
653.20 8.359529
653.30 8.409501
653.40 8.594729
653.50 8.855622
653.60 9.116488
653.70 9.291152
653.80 9.309209
653.90 9.180943
654.00 8.957935
654.10 8.713902
654.20 8.597745
654.30 8.729545
654.40 9.070417
654.50 9.487021
654.60 9.857556
654.70 10.13334
654.80 10.32138
654.90 10.47624
655.00 10.67018
655.10 10.92637
655.20 11.22321
655.30 11.50372
655.40 11.69775
655.50 11.75871
655.60 11.65021
655.70 11.37564
655.80 11.04116
655.90 10.80128
656.00 10.75334
656.10 10.88259
656.20 11.08425
656.30 11.25099
656.40 11.32434
656.50 11.31114
656.60 11.25239
656.70 11.16812
656.80 11.0718
656.90 10.97794
657.00 10.85979
657.10 10.64718
657.20 10.29061
657.30 9.791802
657.40 9.1357
657.50 8.403015
657.60 7.788355
657.70 7.393743
657.80 7.237408
657.90 7.343429
658.00 7.682201
658.10 8.155947
658.20 8.624327
658.30 8.941395
658.40 9.091138
658.50 9.180953
658.60 9.282263
658.70 9.426472
658.80 9.721372
658.90 10.20694
659.00 10.78984
659.10 11.368
659.20 11.82955
659.30 12.0706
659.40 12.07033
659.50 11.8849
659.60 11.625
659.70 11.42344
659.80 11.3569
659.90 11.41187
660.00 11.54759
660.10 11.69938
660.20 11.76638
660.30 11.66979
660.40 11.34463
660.50 10.79995
660.60 10.1655
660.70 9.622588
660.80 9.353037
660.90 9.48754
661.00 10.0324
661.10 10.86913
661.20 11.78442
661.30 12.57768
661.40 13.10371
661.50 13.26562
661.60 13.05516
661.70 12.55197
661.80 11.94204
661.90 11.42242
662.00 11.10629
662.10 11.00304
662.20 11.03038
662.30 11.07134
662.40 11.0535
662.50 11.00803
662.60 11.0196
662.70 11.13399
662.80 11.33741
662.90 11.60034
663.00 11.87198
663.10 12.08378
663.20 12.19675
663.30 12.1988
663.40 12.1528
663.50 12.18083
663.60 12.32684
663.70 12.58834
663.80 12.98009
663.90 13.46438
664.00 13.92104
664.10 14.21781
664.20 14.32364
664.30 14.25978
664.40 14.06348
664.50 13.76254
664.60 13.34288
664.70 12.8503
664.80 12.32519
664.90 11.78362
665.00 11.33522
665.10 11.1188
665.20 11.17477
665.30 11.45707
665.40 11.90319
665.50 12.44537
665.60 12.9707
665.70 13.38337
665.80 13.65798
665.90 13.85449
666.00 14.05929
666.10 14.28864
666.20 14.49812
666.30 14.64515
666.40 14.71397
666.50 14.6697
666.60 14.48863
666.70 14.18887
666.80 13.85145
666.90 13.59905
667.00 13.53729
667.10 13.71038
667.20 14.07772
667.30 14.51969
667.40 14.89019
667.50 15.06532
667.60 15.01138
667.70 14.78003
667.80 14.43448
667.90 14.0793
668.00 13.82962
668.10 13.79388
668.20 14.03778
668.30 14.53008
668.40 15.14137
668.50 15.72404
668.60 16.1682
668.70 16.40079
668.80 16.42237
668.90 16.29762
669.00 16.08739
669.10 15.81347
669.20 15.48575
669.30 15.09546
669.40 14.66699
669.50 14.25325
669.60 13.88319
669.70 13.56772
669.80 13.29793
669.90 13.03318
670.00 12.74672
670.10 12.46825
670.20 12.18783
670.30 11.81065
670.40 11.25364
670.50 10.53778
670.60 9.779163
670.70 9.138433
670.80 8.713475
670.90 8.504232
671.00 8.496541
671.10 8.705092
671.20 9.161289
671.30 9.83891
671.40 10.6464
671.50 11.44784
671.60 12.16691
671.70 12.81699
671.80 13.40153
671.90 13.90913
672.00 14.31057
672.10 14.58867
672.20 14.78267
672.30 14.95644
672.40 15.13315
672.50 15.26636
672.60 15.28431
672.70 15.16828
672.80 14.95402
672.90 14.72821
673.00 14.54833
673.10 14.44655
673.20 14.49075
673.30 14.7132
673.40 15.10285
673.50 15.5866
673.60 16.03364
673.70 16.3321
673.80 16.41699
673.90 16.28378
674.00 15.98681
674.10 15.63484
674.20 15.36752
674.30 15.28713
674.40 15.43086
674.50 15.7547
674.60 16.16229
674.70 16.5611
674.80 16.85409
674.90 16.94866
675.00 16.86998
675.10 16.75282
675.20 16.76138
675.30 16.9904
675.40 17.43853
675.50 18.07545
675.60 18.80681
675.70 19.46136
675.80 19.86944
675.90 19.95379
676.00 19.72238
676.10 19.2453
676.20 18.65439
676.30 18.10603
676.40 17.68676
676.50 17.41934
676.60 17.30421
676.70 17.36903
676.80 17.66873
676.90 18.16819
677.00 18.73397
677.10 19.25288
677.20 19.70325
677.30 20.08496
677.40 20.37202
677.50 20.50637
677.60 20.446
677.70 20.20024
677.80 19.79369
677.90 19.27779
678.00 18.73574
678.10 18.24091
678.20 17.8412
678.30 17.5905
678.40 17.56429
678.50 17.78029
678.60 18.11865
678.70 18.41133
678.80 18.52631
678.90 18.41312
679.00 18.06463
679.10 17.50089
679.20 16.83753
679.30 16.20876
679.40 15.71172
679.50 15.41141
679.60 15.34837
679.70 15.50922
679.80 15.79428
679.90 16.09167
680.00 16.36594
680.10 16.65914
680.20 17.01576
680.30 17.35005
680.40 17.53566
680.50 17.55645
680.60 17.41372
680.70 17.10912
680.80 16.67427
680.90 16.19646
681.00 15.79402
681.10 15.558
681.20 15.56152
681.30 15.84148
681.40 16.36689
681.50 17.00481
681.60 17.5877
681.70 18.0527
681.80 18.39361
681.90 18.56028
682.00 18.53129
682.10 18.36276
682.20 18.16846
682.30 18.00147
682.40 17.84813
682.50 17.68279
682.60 17.46923
682.70 17.17949
682.80 16.7481
682.90 16.12822
683.00 15.32751
683.10 14.46713
683.20 13.76924
683.30 13.36704
683.40 13.29694
683.50 13.55925
683.60 14.06208
683.70 14.67643
683.80 15.28509
683.90 15.81375
684.00 16.23669
684.10 16.55368
684.20 16.82676
684.30 17.11829
684.40 17.47408
684.50 17.82217
684.60 17.99382
684.70 17.9279
684.80 17.64663
684.90 17.16793
685.00 16.53749
685.10 15.86674
685.20 15.28767
685.30 14.88006
685.40 14.62637
685.50 14.44383
685.60 14.2656
685.70 14.05379
685.80 13.81275
685.90 13.60943
686.00 13.50019
686.10 13.48604
686.20 13.52797
686.30 13.61183
686.40 13.75147
686.50 13.92871
686.60 14.15134
686.70 14.45507
686.80 14.91609
686.90 15.59558
687.00 16.4087
687.10 17.19072
687.20 17.74285
687.30 17.89798
687.40 17.6002
687.50 16.89856
687.60 15.92805
687.70 14.86249
687.80 13.90204
687.90 13.25851
688.00 13.00112
688.10 13.06585
688.20 13.34877
688.30 13.74282
688.40 14.16325
688.50 14.53348
688.60 14.80165
688.70 14.93009
688.80 14.9193
688.90 14.83273
689.00 14.77962
689.10 14.80882
689.20 14.84762
689.30 14.79732
689.40 14.63351
689.50 14.38671
689.60 14.05434
689.70 13.60041
689.80 13.05356
689.90 12.51876
690.00 12.10875
690.10 11.91419
690.20 11.96342
690.30 12.21107
690.40 12.5809
690.50 13.01388
690.60 13.48159
690.70 13.91905
690.80 14.211
690.90 14.22219
691.00 13.88643
691.10 13.28056
691.20 12.51248
691.30 11.67633
691.40 10.92969
691.50 10.4324
691.60 10.25968
691.70 10.3935
691.80 10.72481
691.90 11.11576
692.00 11.41041
692.10 11.49623
692.20 11.37229
692.30 11.16864
692.40 11.08117
692.50 11.20147
692.60 11.56009
692.70 12.13338
692.80 12.77299
692.90 13.29155
693.00 13.55808
693.10 13.56262
693.20 13.39341
693.30 13.15825
693.40 13.02179
693.50 13.16005
693.60 13.63037
693.70 14.33843
693.80 15.07905
693.90 15.66861
694.00 16.02861
694.10 16.20869
694.20 16.24751
694.30 16.10362
694.40 15.81925
694.50 15.48871
694.60 15.1691
694.70 14.89209
694.80 14.67273
694.90 14.51643
695.00 14.42458
695.10 14.39626
695.20 14.43707
695.30 14.55516
695.40 14.70806
695.50 14.77761
695.60 14.70814
695.70 14.59056
695.80 14.50239
695.90 14.47504
696.00 14.53119
696.10 14.66215
696.20 14.80688
696.30 14.87836
696.40 14.83364
696.50 14.66914
696.60 14.43286
696.70 14.22444
696.80 14.12538
696.90 14.18784
697.00 14.46206
697.10 14.93736
697.20 15.55983
697.30 16.29085
697.40 17.0807
697.50 17.85483
697.60 18.50324
697.70 18.93133
697.80 19.09379
697.90 19.00547
698.00 18.71138
698.10 18.23173
698.20 17.61502
698.30 16.9361
698.40 16.28526
698.50 15.78581
698.60 15.53858
698.70 15.51457
698.80 15.58385
698.90 15.65923
699.00 15.75609
699.10 15.88875
699.20 16.02067
699.30 16.12891
699.40 16.19445
699.50 16.18464
699.60 16.06743
699.70 15.87617
699.80 15.67396
699.90 15.48007
700.00 15.28039
700.10 15.10119
700.20 15.0255
700.30 15.06757
700.40 15.16813
700.50 15.27745
700.60 15.37774
700.70 15.52602
700.80 15.80141
700.90 16.25089
701.00 16.88873
701.10 17.6519
701.20 18.44853
701.30 19.20544
701.40 19.85404
701.50 20.32088
701.60 20.53722
701.70 20.48315
701.80 20.18421
701.90 19.71589
702.00 19.20402
702.10 18.65676
702.20 18.01412
702.30 17.35011
702.40 16.83673
702.50 16.64145
702.60 16.87653
702.70 17.57115
702.80 18.6252
702.90 19.86404
703.00 21.1211
703.10 22.20929
703.20 22.98143
703.30 23.39285
703.40 23.46968
703.50 23.34179
703.60 23.20325
703.70 23.15339
703.80 23.20996
703.90 23.37511
704.00 23.57262
704.10 23.64079
704.20 23.48086
704.30 23.12925
704.40 22.70883
704.50 22.40605
704.60 22.38378
704.70 22.70393
704.80 23.29918
704.90 23.95216
705.00 24.40812
705.10 24.5421
705.20 24.32765
705.30 23.80389
705.40 23.11859
705.50 22.46748
705.60 22.00241
705.70 21.78656
705.80 21.78013
705.90 21.88543
706.00 22.00113
706.10 22.03987
706.20 21.92976
706.30 21.71149
706.40 21.5442
706.50 21.52615
706.60 21.68404
706.70 21.9922
706.80 22.32971
706.90 22.57904
707.00 22.71666
707.10 22.75388
707.20 22.7107
707.30 22.64143
707.40 22.61291
707.50 22.67402
707.60 22.89542
707.70 23.34748
707.80 24.00506
707.90 24.76858
708.00 25.49304
708.10 26.04038
708.20 26.36348
708.30 26.50622
708.40 26.51633
708.50 26.4062
708.60 26.17773
708.70 25.84603
708.80 25.4368
708.90 24.9821
709.00 24.54142
709.10 24.14987
709.20 23.78517
709.30 23.45515
709.40 23.22647
709.50 23.14544
709.60 23.20248
709.70 23.32016
709.80 23.39405
709.90 23.34442
710.00 23.12628
710.10 22.74748
710.20 22.2542
710.30 21.69917
710.40 21.14488
710.50 20.7013
710.60 20.50234
710.70 20.58362
710.80 20.8665
710.90 21.22635
711.00 21.531
711.10 21.70842
711.20 21.73732
711.30 21.63157
711.40 21.50065
711.50 21.48508
711.60 21.67131
711.70 22.13141
711.80 22.89469
711.90 23.86367
712.00 24.85452
712.10 25.68219
712.20 26.20297
712.30 26.33784
712.40 26.09354
712.50 25.56769
712.60 24.96067
712.70 24.49603
712.80 24.28556
712.90 24.35699
713.00 24.70843
713.10 25.24879
713.20 25.80493
713.30 26.21541
713.40 26.39467
713.50 26.34622
713.60 26.10919
713.70 25.7542
713.80 25.38386
713.90 25.11216
714.00 24.99895
714.10 25.0482
714.20 25.2325
714.30 25.47672
714.40 25.73086
714.50 25.98091
714.60 26.21169
714.70 26.39372
714.80 26.49063
714.90 26.48934
715.00 26.42489
715.10 26.34696
715.20 26.28611
715.30 26.21518
715.40 26.08906
715.50 25.92188
715.60 25.77716
715.70 25.7065
715.80 25.70261
715.90 25.73141
716.00 25.7614
716.10 25.80249
716.20 25.89559
716.30 26.04902
716.40 26.2487
716.50 26.45422
716.60 26.59492
716.70 26.62643
716.80 26.53455
716.90 26.32362
717.00 26.02992
717.10 25.70982
717.20 25.40912
717.30 25.17441
717.40 25.04369
717.50 25.0406
717.60 25.18141
717.70 25.4705
717.80 25.89003
717.90 26.4127
718.00 27.03019
718.10 27.70522
718.20 28.36129
718.30 28.91011
718.40 29.29112
718.50 29.46978
718.60 29.41694
718.70 29.13038
718.80 28.68708
718.90 28.20287
719.00 27.74535
719.10 27.36292
719.20 27.12406
719.30 27.07329
719.40 27.179
719.50 27.3647
719.60 27.55189
719.70 27.69033
719.80 27.73065
719.90 27.68017
720.00 27.60749
720.10 27.57656
720.20 27.61732
720.30 27.71705
720.40 27.87324
720.50 28.03789
720.60 28.09519
720.70 27.95757
720.80 27.64732
720.90 27.28823
721.00 27.01124
721.10 26.85003
721.20 26.76328
721.30 26.70048
721.40 26.6377
721.50 26.58449
721.60 26.54547
721.70 26.52757
721.80 26.54331
721.90 26.6126
722.00 26.7533
722.10 26.99757
722.20 27.36999
722.30 27.81351
722.40 28.20011
722.50 28.46725
722.60 28.63099
722.70 28.68642
722.80 28.61047
722.90 28.38657
723.00 28.04798
723.10 27.66589
723.20 27.29136
723.30 26.97036
723.40 26.76516
723.50 26.66677
723.60 26.53405
723.70 26.25791
723.80 25.89316
723.90 25.54289
724.00 25.23865
724.10 24.95363
724.20 24.65047
724.30 24.40554
724.40 24.40316
724.50 24.70722
724.60 25.28671
724.70 26.12437
724.80 27.17943
724.90 28.39028
725.00 29.6952
725.10 30.9706
725.20 32.00989
725.30 32.60742
725.40 32.69631
725.50 32.41413
725.60 31.97783
725.70 31.49621
725.80 30.9406
725.90 30.35516
726.00 29.87936
726.10 29.57418
726.20 29.39331
726.30 29.25626
726.40 29.12568
726.50 29.02045
726.60 28.99446
726.70 29.08119
726.80 29.19306
726.90 29.19325
727.00 29.1282
727.10 29.11065
727.20 29.13905
727.30 29.16424
727.40 29.14743
727.50 29.18236
727.60 29.43652
727.70 29.95017
727.80 30.65096
727.90 31.41455
728.00 32.09698
728.10 32.62894
728.20 33.06838
728.30 33.47605
728.40 33.77508
728.50 33.88948
728.60 33.89317
728.70 33.91335
728.80 34.00775
728.90 34.11368
729.00 34.17853
729.10 34.30299
729.20 34.61284
729.30 35.13669
729.40 35.80765
729.50 36.46964
729.60 36.93671
729.70 37.03881
729.80 36.66091
729.90 35.83346
730.00 34.6507
730.10 33.25756
730.20 31.94479
730.30 31.03824
730.40 30.7185
730.50 30.97125
730.60 31.65257
730.70 32.56192
730.80 33.45601
730.90 34.00488
731.00 34.03277
731.10 33.64003
731.20 33.04421
731.30 32.47696
731.40 32.2159
731.50 32.4516
731.60 33.14403
731.70 34.10597
731.80 35.07622
731.90 35.79957
732.00 36.09875
732.10 35.91758
732.20 35.24656
732.30 34.22327
732.40 33.07634
732.50 32.0617
732.60 31.47246
732.70 31.42927
732.80 31.83253
732.90 32.55566
733.00 33.45078
733.10 34.31347
733.20 34.99269
733.30 35.41116
733.40 35.4695
733.50 35.13958
733.60 34.64881
733.70 34.27325
733.80 34.0917
733.90 34.05909
734.00 34.12006
734.10 34.26108
734.20 34.48463
734.30 34.72914
734.40 34.92635
734.50 35.05369
734.60 35.0893
734.70 35.01854
734.80 34.95402
734.90 34.96577
735.00 34.94632
735.10 34.80036
735.20 34.57714
735.30 34.34125
735.40 34.03946
735.50 33.55813
735.60 32.86555
735.70 32.02685
735.80 31.19243
735.90 30.52419
736.00 30.12512
736.10 30.03603
736.20 30.13087
736.30 30.17779
736.40 30.07435
736.50 29.92432
736.60 29.80558
736.70 29.66522
736.80 29.51244
736.90 29.51388
737.00 29.81173
737.10 30.42636
737.20 31.21728
737.30 31.9834
737.40 32.56495
737.50 32.85463
737.60 32.87848
737.70 32.79222
737.80 32.70805
737.90 32.58837
738.00 32.4144
738.10 32.26924
738.20 32.20334
738.30 32.15944
738.40 32.06378
738.50 31.92053
738.60 31.80394
738.70 31.77265
738.80 31.83279
738.90 31.94109
739.00 32.02803
739.10 32.0341
739.20 31.99078
739.30 31.9793
739.40 31.98884
739.50 31.92874
739.60 31.68959
739.70 31.27104
739.80 30.8087
739.90 30.3961
740.00 30.06967
740.10 29.8759
740.20 29.85244
740.30 29.97652
740.40 30.15034
740.50 30.27097
740.60 30.20638
740.70 29.8846
740.80 29.39241
740.90 28.86474
741.00 28.42792
741.10 28.12037
741.20 27.91833
741.30 27.87035
741.40 28.00664
741.50 28.2623
741.60 28.53135
741.70 28.7294
741.80 28.82775
741.90 28.83317
742.00 28.75993
742.10 28.57388
742.20 28.24419
742.30 27.77287
742.40 27.13049
742.50 26.38638
742.60 25.73881
742.70 25.36154
742.80 25.35258
742.90 25.71182
743.00 26.36527
743.10 27.20378
743.20 28.13637
743.30 29.11685
743.40 30.13764
743.50 31.16787
743.60 32.07539
743.70 32.76638
743.80 33.32776
743.90 33.80434
744.00 34.05018
744.10 33.90025
744.20 33.30761
744.30 32.3697
744.40 31.24774
744.50 30.11684
744.60 29.12558
744.70 28.33399
744.80 27.74532
744.90 27.38797
745.00 27.29249
745.10 27.40135
745.20 27.5624
745.30 27.67936
745.40 27.75411
745.50 27.76902
745.60 27.69068
745.70 27.50337
745.80 27.20714
745.90 26.84215
746.00 26.47939
746.10 26.20736
746.20 26.11244
746.30 26.20065
746.40 26.44514
746.50 26.85537
746.60 27.39568
746.70 27.92962
746.80 28.31355
746.90 28.52845
747.00 28.63315
747.10 28.70191
747.20 28.80806
747.30 28.9653
747.40 29.13321
747.50 29.25379
747.60 29.20627
747.70 28.91777
747.80 28.44725
747.90 27.88964
748.00 27.39435
748.10 27.11057
748.20 27.0761
748.30 27.18733
748.40 27.3172
748.50 27.39274
748.60 27.42
748.70 27.43895
748.80 27.45282
748.90 27.44297
749.00 27.41314
749.10 27.36986
749.20 27.25595
749.30 26.9788
749.40 26.46891
749.50 25.78963
749.60 25.10197
749.70 24.55626
749.80 24.2626
749.90 24.24873
750.00 24.43047
750.10 24.68138
750.20 24.89395
750.30 25.00944
750.40 25.02615
750.50 24.95902
750.60 24.86216
750.70 24.83795
750.80 24.95033
750.90 25.13136
751.00 25.25425
751.10 25.26494
751.20 25.10849
751.30 24.74897
751.40 24.26947
751.50 23.80775
751.60 23.43544
751.70 23.09852
751.80 22.73374
751.90 22.32318
752.00 21.78663
752.10 20.95274
752.20 19.75986
752.30 18.35668
752.40 17.00826
752.50 15.96167
752.60 15.41045
752.70 15.50731
752.80 16.24341
752.90 17.41639
753.00 18.80338
753.10 20.26381
753.20 21.63017
753.30 22.67599
753.40 23.30612
753.50 23.62761
753.60 23.73018
753.70 23.60029
753.80 23.23343
753.90 22.67197
754.00 21.99879
754.10 21.2673
754.20 20.51902
754.30 19.90161
754.40 19.57113
754.50 19.55379
754.60 19.78673
754.70 20.19119
754.80 20.64324
754.90 20.96859
755.00 21.00066
755.10 20.64346
755.20 19.8995
755.30 18.87824
755.40 17.81062
755.50 16.97248
755.60 16.56951
755.70 16.64095
755.80 17.10308
755.90 17.84722
756.00 18.69943
756.10 19.41307
756.20 19.74055
756.30 19.56858
756.40 19.0449
756.50 18.3757
756.60 17.6737
756.70 16.971
756.80 16.23539
756.90 15.49216
757.00 14.84901
757.10 14.43142
757.20 14.29314
757.30 14.40252
757.40 14.65379
757.50 14.91749
757.60 15.14379
757.70 15.32745
757.80 15.40939
757.90 15.37018
758.00 15.21886
758.10 14.99869
758.20 14.81452
758.30 14.67042
758.40 14.49815
758.50 14.24149
758.60 13.89032
758.70 13.47636
758.80 13.10292
758.90 12.92129
759.00 13.03536
759.10 13.36014
759.20 13.56588
759.30 13.42345
759.40 13.0584
759.50 12.74843
759.60 12.74403
759.70 13.11108
759.80 13.81103
759.90 14.96254
760.00 16.54989
760.10 18.20466
760.20 19.50236
760.30 20.18039
760.40 20.11951
760.50 19.42438
760.60 18.47117
760.70 17.58887
760.80 16.82098
760.90 16.04227
761.00 15.0511
761.10 13.83982
761.20 12.53828
761.30 11.06635
761.40 9.468657
761.50 8.087716
761.60 7.23058
761.70 7.044741
761.80 7.471596
761.90 8.249246
762.00 9.036757
762.10 9.566974
762.20 9.764227
762.30 9.658282
762.40 9.314716
762.50 8.930442
762.60 8.721775
762.70 8.751597
762.80 8.890032
762.90 8.89471
763.00 8.604343
763.10 7.945323
763.20 6.945261
763.30 5.748661
763.40 4.574233
763.50 3.630467
763.60 3.006181
763.70 2.775832
763.80 3.052262
763.90 3.745701
764.00 4.580352
764.10 5.323159
764.20 5.859365
764.30 6.178523
764.40 6.231714
764.50 5.917468
764.60 5.207898
764.70 4.193555
764.80 3.072829
764.90 2.089689
765.00 1.515
765.10 1.482088
765.20 1.824214
765.30 2.277859
765.40 2.603358
765.50 2.557973
765.60 1.984985
765.70 0.9226441
765.80 0
765.90 0
766.00 0
766.10 0
766.20 0
766.30 0
766.40 0
766.50 0.4537266
766.60 1.299933
766.70 1.886285
766.80 2.184436
766.90 2.323399
767.00 2.470019
767.10 2.706988
767.20 3.02787
767.30 3.364203
767.40 3.647066
767.50 3.847017
767.60 3.934184
767.70 3.871707
767.80 3.66012
767.90 3.317494
768.00 2.876792
768.10 2.433213
768.20 2.105865
768.30 1.968723
768.40 2.044865
768.50 2.288256
768.60 2.61287
768.70 2.915441
768.80 3.110044
768.90 3.167789
769.00 3.067399
769.10 2.78991
769.20 2.394261
769.30 1.977731
769.40 1.57129
769.50 1.153079
769.60 0.7703665
769.70 0.4933914
769.80 0.3360939
769.90 0.3129463
770.00 0.4598317
770.10 0.7979026
770.20 1.265555
770.30 1.753221
770.40 2.190211
770.50 2.51223
770.60 2.601528
770.70 2.318766
770.80 1.575385
770.90 0.3662574
771.00 0
771.10 0
771.20 0
771.30 0
771.40 0
771.50 0
771.60 0
771.70 0
771.80 0
771.90 0
772.00 0
772.10 1.884283
772.20 4.599365
772.30 6.448774
772.40 7.532677
772.50 8.125572
772.60 8.202915
772.70 7.741174
772.80 7.069954
772.90 6.480331
773.00 6.00476
773.10 5.550202
773.20 5.076584
773.30 4.746731
773.40 4.785834
773.50 5.254332
773.60 6.037018
773.70 6.904284
773.80 7.668529
773.90 8.244859
774.00 8.588811
774.10 8.697344
774.20 8.674546
774.30 8.610823
774.40 8.40791
774.50 8.04524
774.60 7.793095
774.70 7.864786
774.80 8.241438
774.90 8.929705
775.00 9.982852
775.10 11.3222
775.20 12.75819
775.30 14.08169
775.40 15.09324
775.50 15.61307
775.60 15.55892
775.70 15.10359
775.80 14.60758
775.90 14.33523
776.00 14.27638
776.10 14.34212
776.20 14.53267
776.30 14.75852
776.40 14.81718
776.50 14.60461
776.60 14.12279
776.70 13.40561
776.80 12.56488
776.90 11.84182
777.00 11.43559
777.10 11.37448
777.20 11.71021
777.30 12.46192
777.40 13.46861
777.50 14.4683
777.60 15.22189
777.70 15.61178
777.80 15.68386
777.90 15.58117
778.00 15.49944
778.10 15.59165
778.20 15.90342
778.30 16.36529
778.40 16.88382
778.50 17.42599
778.60 17.86706
778.70 17.98692
778.80 17.68853
778.90 17.01397
779.00 15.98899
779.10 14.73903
779.20 13.49389
779.30 12.46527
779.40 11.74823
779.50 11.31309
779.60 11.08149
779.70 10.9395
779.80 10.73255
779.90 10.2705
780.00 9.495951
780.10 8.570286
780.20 7.648545
780.30 6.835349
780.40 6.338276
780.50 6.204216
780.60 6.307633
780.70 6.565682
780.80 6.978873
780.90 7.619799
781.00 8.54035
781.10 9.800966
781.20 11.50549
781.30 13.65637
781.40 16.03559
781.50 18.19472
781.60 19.63375
781.70 20.19236
781.80 20.04896
781.90 19.49923
782.00 18.8947
782.10 18.55076
782.20 18.63258
782.30 19.18713
782.40 20.18875
782.50 21.47577
782.60 22.72946
782.70 23.66221
782.80 24.16834
782.90 24.35614
783.00 24.52148
783.10 24.79541
783.20 25.03927
783.30 25.15709
783.40 25.09135
783.50 24.80205
783.60 24.31462
783.70 23.66268
783.80 22.8929
783.90 21.98976
784.00 20.98717
784.10 20.06655
784.20 19.40472
784.30 19.12153
784.40 19.25413
784.50 19.75352
784.60 20.54592
784.70 21.36357
784.80 21.73602
784.90 21.36513
785.00 20.16958
785.10 18.31828
785.20 16.372
785.30 14.98262
785.40 14.56966
785.50 15.2886
785.60 17.07761
785.70 19.67055
785.80 22.71455
785.90 25.84454
786.00 28.68592
786.10 31.03579
786.20 32.91734
786.30 34.31023
786.40 35.1858
786.50 35.51404
786.60 35.16826
786.70 34.24091
786.80 33.04134
786.90 31.85488
787.00 30.93577
787.10 30.49754
787.20 30.58078
787.30 31.08597
787.40 31.85121
787.50 32.68971
787.60 33.46908
787.70 34.05005
787.80 34.36299
787.90 34.47904
788.00 34.53854
788.10 34.66313
788.20 34.84004
788.30 34.94579
788.40 34.96423
788.50 34.9432
788.60 34.80922
788.70 34.41019
788.80 33.58712
788.90 32.36145
789.00 31.00983
789.10 29.87573
789.20 29.25425
789.30 29.37368
789.40 30.2933
789.50 31.87678
789.60 33.92155
789.70 36.19556
789.80 38.31285
789.90 39.85143
790.00 40.64338
790.10 40.7325
790.20 40.30063
790.30 39.54244
790.40 38.54188
790.50 37.4687
790.60 36.56227
790.70 35.90536
790.80 35.35468
790.90 34.78538
791.00 34.35309
791.10 34.35065
791.20 34.93446
791.30 36.09624
791.40 37.65889
791.50 39.33726
791.60 40.8178
791.70 41.79382
791.80 42.13116
791.90 41.80686
792.00 40.93246
792.10 39.82574
792.20 38.89613
792.30 38.4167
792.40 38.35968
792.50 38.52962
792.60 38.81031
792.70 39.19673
792.80 39.69332
792.90 40.30886
793.00 40.97637
793.10 41.63005
793.20 42.21879
793.30 42.65304
793.40 42.78788
793.50 42.49144
793.60 41.81773
793.70 40.98798
793.80 40.25508
793.90 39.79873
794.00 39.62053
794.10 39.50015
794.20 39.10717
794.30 38.05934
794.40 36.19339
794.50 33.59709
794.60 30.48941
794.70 27.30739
794.80 24.62711
794.90 22.97597
795.00 22.69941
795.10 23.92054
795.20 26.50119
795.30 30.04538
795.40 34.03467
795.50 37.89814
795.60 41.13518
795.70 43.5048
795.80 44.97889
795.90 45.72343
796.00 45.9293
796.10 45.67154
796.20 44.99262
796.30 44.03435
796.40 43.04487
796.50 42.23811
796.60 41.71665
796.70 41.53623
796.80 41.76515
796.90 42.44953
797.00 43.56397
797.10 44.94802
797.20 46.26317
797.30 47.13683
797.40 47.4749
797.50 47.48464
797.60 47.4597
797.70 47.62743
797.80 48.07056
797.90 48.7007
798.00 49.42427
798.10 50.12678
798.20 50.59936
798.30 50.71144
798.40 50.45591
798.50 49.93007
798.60 49.31517
798.70 48.69722
798.80 48.04153
798.90 47.40568
799.00 46.8612
799.10 46.30804
799.20 45.74256
799.30 45.41222
799.40 45.58106
799.50 46.4516
799.60 48.07871
799.70 50.29099
799.80 52.79911
799.90 55.28431
800.00 57.47717
800.10 59.21314
800.20 60.38457
800.30 60.88152
800.40 60.73444
800.50 60.25708
800.60 59.72981
800.70 59.18199
800.80 58.61911
800.90 58.12621
801.00 57.7685
801.10 57.59047
801.20 57.62159
801.30 57.82382
801.40 58.07431
801.50 58.26694
801.60 58.43044
801.70 58.62277
801.80 58.87639
801.90 59.18714
802.00 59.48368
802.10 59.68366
802.20 59.59445
802.30 58.96212
802.40 57.85477
802.50 56.66208
802.60 55.80902
802.70 55.58154
802.80 56.10786
802.90 57.37539
803.00 59.14774
803.10 61.05776
803.20 62.73701
803.30 63.87128
803.40 64.31401
803.50 64.1611
803.60 63.69565
803.70 63.24281
803.80 62.95333
803.90 62.77628
804.00 62.64176
804.10 62.58976
804.20 62.69665
804.30 62.99454
804.40 63.54479
804.50 64.37942
804.60 65.40857
804.70 66.4652
804.80 67.38068
804.90 68.01034
805.00 68.28951
805.10 68.30116
805.20 68.20454
805.30 68.1397
805.40 68.16889
805.50 68.25352
805.60 68.35772
805.70 68.41684
805.80 68.36714
805.90 68.25297
806.00 68.13523
806.10 68.06636
806.20 68.16146
806.30 68.5597
806.40 69.34567
806.50 70.47555
806.60 71.80077
806.70 73.15924
806.80 74.40122
806.90 75.40127
807.00 76.06158
807.10 76.36936
807.20 76.30348
807.30 75.81078
807.40 74.95417
807.50 73.93141
807.60 72.93517
807.70 72.12868
807.80 71.59426
807.90 71.29749
808.00 71.18869
808.10 71.26785
808.20 71.56626
808.30 72.10811
808.40 72.87508
808.50 73.73273
808.60 74.46672
808.70 74.871
808.80 74.88294
808.90 74.6113
809.00 74.22807
809.10 73.90429
809.20 73.77513
809.30 73.91839
809.40 74.33387
809.50 74.89144
809.60 75.37391
809.70 75.53493
809.80 75.17601
809.90 74.27678
810.00 72.9986
810.10 71.63704
810.20 70.54272
810.30 69.968
810.40 70.08576
810.50 70.95718
810.60 72.50921
810.70 74.57796
810.80 76.86189
810.90 78.98173
811.00 80.57724
811.10 81.4543
811.20 81.64253
811.30 81.34783
811.40 80.84056
811.50 80.33117
811.60 79.93463
811.70 79.72557
811.80 79.71551
811.90 79.87575
812.00 80.1624
812.10 80.51509
812.20 80.93115
812.30 81.42845
812.40 81.97272
812.50 82.50328
812.60 83.02292
812.70 83.5177
812.80 83.88169
812.90 83.96888
813.00 83.70039
813.10 83.10512
813.20 82.28083
813.30 81.3899
813.40 80.64851
813.50 80.26413
813.60 80.29133
813.70 80.63199
813.80 81.15434
813.90 81.71384
814.00 82.10739
814.10 82.18697
814.20 81.99671
814.30 81.77801
814.40 81.79285
814.50 82.13646
814.60 82.692
814.70 83.13143
814.80 83.18215
814.90 82.75577
815.00 81.87881
815.10 80.73365
815.20 79.61249
815.30 78.83395
815.40 78.6876
815.50 79.31113
815.60 80.64333
815.70 82.41328
815.80 84.18684
815.90 85.61734
816.00 86.6516
816.10 87.47373
816.20 88.22309
816.30 88.90888
816.40 89.57415
816.50 90.31057
816.60 91.14404
816.70 91.97639
816.80 92.65053
816.90 93.04562
817.00 93.13629
817.10 92.96677
817.20 92.59944
817.30 91.94892
817.40 90.82253
817.50 89.18765
817.60 87.18937
817.70 85.10794
817.80 83.19116
817.90 81.50173
818.00 80.01436
818.10 78.72159
818.20 77.6931
818.30 77.05743
818.40 76.87144
818.50 77.09461
818.60 77.64338
818.70 78.50211
818.80 79.56832
818.90 80.42345
819.00 80.48285
819.10 79.28446
819.20 76.77172
819.30 73.31697
819.40 69.62616
819.50 66.61309
819.60 65.03271
819.70 65.2632
819.80 67.33901
819.90 70.95644
820.00 75.56634
820.10 80.48607
820.20 85.09286
820.30 89.01909
820.40 92.16568
820.50 94.56627
820.60 96.26869
820.70 97.38352
820.80 98.04524
820.90 98.30759
821.00 98.18072
821.10 97.70267
821.20 96.97431
821.30 96.2048
821.40 95.62527
821.50 95.39721
821.60 95.55939
821.70 96.02291
821.80 96.66079
821.90 97.36381
822.00 98.09935
822.10 98.87227
822.20 99.64858
822.30 100.3654
822.40 100.9389
822.50 101.3953
822.60 101.863
822.70 102.4007
822.80 102.9968
822.90 103.6071
823.00 104.1097
823.10 104.3151
823.20 104.1011
823.30 103.4923
823.40 102.6077
823.50 101.5752
823.60 100.5618
823.70 99.81124
823.80 99.60952
823.90 100.0198
824.00 100.8326
824.10 101.8234
824.20 102.7878
824.30 103.5525
824.40 104.0465
824.50 104.3361
824.60 104.5398
824.70 104.7296
824.80 104.9501
824.90 105.2778
825.00 105.7521
825.10 106.2817
825.20 106.6335
825.30 106.5922
825.40 106.0856
825.50 105.1486
825.60 103.9787
825.70 102.9054
825.80 102.2586
825.90 102.2538
826.00 102.9122
826.10 104.0948
826.20 105.5401
826.30 106.8959
826.40 107.797
826.50 107.9961
826.60 107.5557
826.70 106.7421
826.80 105.8704
826.90 105.3006
827.00 105.2999
827.10 105.9006
827.20 106.9282
827.30 108.2336
827.40 109.6899
827.50 111.0189
827.60 111.913
827.70 112.2308
827.80 112.0651
827.90 111.5599
828.00 110.758
828.10 109.6961
828.20 108.43
828.30 107.0396
828.40 105.7595
828.50 104.99
828.60 105.0449
828.70 105.7476
828.80 106.7149
828.90 107.7749
829.00 108.7404
829.10 109.3361
829.20 109.3508
829.30 108.8597
829.40 108.1838
829.50 107.7277
829.60 107.6339
829.70 107.7477
829.80 107.9803
829.90 108.2324
830.00 108.3841
830.10 108.5179
830.20 108.7836
830.30 109.1406
830.40 109.404
830.50 109.4224
830.60 109.1876
830.70 108.7136
830.80 107.9525
830.90 106.891
831.00 105.8393
831.10 105.1844
831.20 104.9252
831.30 104.9218
831.40 105.1565
831.50 105.7715
831.60 106.8644
831.70 108.3541
831.80 110.1765
831.90 112.2393
832.00 114.2707
832.10 115.8988
832.20 116.8556
832.30 117.0288
832.40 116.436
832.50 115.3119
832.60 114.0893
832.70 113.2411
832.80 113.0917
832.90 113.6006
833.00 114.4555
833.10 115.3314
833.20 115.9663
833.30 116.175
833.40 115.8992
833.50 115.2798
833.60 114.505
833.70 113.7863
833.80 113.4352
833.90 113.7738
834.00 114.9082
834.10 116.4834
834.20 117.6941
834.30 117.7936
834.40 116.6761
834.50 114.7786
834.60 112.6938
834.70 110.973
834.80 109.9955
834.90 109.8807
835.00 110.5948
835.10 112.0175
835.20 113.9579
835.30 116.0802
835.40 117.9382
835.50 119.2956
835.60 120.3053
835.70 121.2041
835.80 121.9085
835.90 122.2126
836.00 122.091
836.10 121.7721
836.20 121.6366
836.30 122.0138
836.40 123.1029
836.50 124.8698
836.60 126.954
836.70 128.8584
836.80 130.0451
836.90 130.073
837.00 128.886
837.10 126.7535
837.20 124.1198
837.30 121.5716
837.40 119.583
837.50 118.1919
837.60 117.2804
837.70 116.9283
837.80 117.249
837.90 118.0236
838.00 118.8918
838.10 119.6777
838.20 120.3783
838.30 121.0119
838.40 121.4596
838.50 121.6368
838.60 121.6434
838.70 121.5547
838.80 121.333
838.90 121.0469
839.00 120.805
839.10 120.601
839.20 120.3485
839.30 120.2243
839.40 120.6693
839.50 121.9983
839.60 124.199
839.70 127.0325
839.80 130.125
839.90 132.9415
840.00 134.9158
840.10 135.7045
840.20 135.3519
840.30 134.1935
840.40 132.697
840.50 131.2563
840.60 130.2355
840.70 129.9739
840.80 130.5118
840.90 131.5553
841.00 132.833
841.10 134.1826
841.20 135.5308
841.30 136.8702
841.40 138.0986
841.50 138.9943
841.60 139.3308
841.70 138.9934
841.80 137.9544
841.90 136.4207
842.00 134.7815
842.10 133.3343
842.20 132.1867
842.30 131.2189
842.40 130.1516
842.50 128.8562
842.60 127.5246
842.70 126.4513
842.80 125.8993
842.90 126.0026
843.00 126.6997
843.10 127.8623
843.20 129.3152
843.30 130.7001
843.40 131.5691
843.50 131.5659
843.60 130.4846
843.70 128.4426
843.80 125.9069
843.90 123.3227
844.00 120.9091
844.10 118.8919
844.20 117.5163
844.30 116.9604
844.40 117.2922
844.50 118.3763
844.60 119.9531
844.70 121.7763
844.80 123.5515
844.90 124.9779
845.00 125.827
845.10 125.9156
845.20 125.2076
845.30 123.8501
845.40 122.0772
845.50 120.1164
845.60 118.258
845.70 116.8779
845.80 116.1879
845.90 116.2261
846.00 116.82
846.10 117.4663
846.20 117.4917
846.30 116.3691
846.40 114.2519
846.50 111.9761
846.60 110.3376
846.70 109.7744
846.80 110.3956
846.90 112.0351
847.00 114.3569
847.10 116.7991
847.20 118.8517
847.30 120.1787
847.40 120.6148
847.50 120.2719
847.60 119.5547
847.70 118.9707
847.80 118.6777
847.90 118.4315
848.00 117.9962
848.10 117.3485
848.20 116.6815
848.30 116.2832
848.40 116.2378
848.50 116.4917
848.60 116.9898
848.70 117.6226
848.80 118.268
848.90 118.8275
849.00 119.2878
849.10 119.6889
849.20 120.0447
849.30 120.3729
849.40 120.7002
849.50 120.9972
849.60 121.1583
849.70 121.0967
849.80 120.7949
849.90 120.3323
850.00 119.8223
850.10 119.3047
850.20 118.7317
850.30 118.1356
850.40 117.6573
850.50 117.4481
850.60 117.5525
850.70 117.8217
850.80 118.0683
850.90 118.2456
851.00 118.4357
851.10 118.7175
851.20 119.0896
851.30 119.3759
851.40 119.2164
851.50 118.1457
851.60 115.7409
851.70 111.6822
851.80 105.842
851.90 98.46911
852.00 90.3331
852.10 82.71463
852.20 76.99171
852.30 74.21837
852.40 74.84299
852.50 78.65115
852.60 84.93404
852.70 92.70925
852.80 100.8753
852.90 108.4186
853.00 114.6582
853.10 119.325
853.20 122.4875
853.30 124.4319
853.40 125.5274
853.50 126.0695
853.60 126.3047
853.70 126.3632
853.80 126.3258
853.90 126.3331
854.00 126.5097
854.10 126.8536
854.20 127.2609
854.30 127.6429
854.40 127.9666
854.50 128.3802
854.60 129.1939
854.70 130.6573
854.80 132.73
854.90 135.0827
855.00 137.2999
855.10 139.0294
855.20 140.022
855.30 140.1396
855.40 139.3657
855.50 137.8606
855.60 136.069
855.70 134.6118
855.80 133.9646
855.90 134.2069
856.00 135.0753
856.10 136.2367
856.20 137.516
856.30 138.7871
856.40 139.7775
856.50 140.1956
856.60 139.9361
856.70 139.0801
856.80 137.8172
856.90 136.4514
857.00 135.2682
857.10 134.4852
857.20 134.2607
857.30 134.6512
857.40 135.6409
857.50 137.0386
857.60 138.4512
857.70 139.5362
857.80 140.1991
857.90 140.5434
858.00 140.7435
858.10 140.8878
858.20 140.9891
858.30 141.0499
858.40 141.1033
858.50 141.2325
858.60 141.4985
858.70 141.9211
858.80 142.4424
858.90 142.9761
859.00 143.464
859.10 143.9195
859.20 144.4003
859.30 144.9068
859.40 145.3594
859.50 145.7363
859.60 146.0843
859.70 146.3915
859.80 146.5967
859.90 146.5769
860.00 146.1891
860.10 145.3406
860.20 144.0782
860.30 142.485
860.40 140.6285
860.50 138.5612
860.60 136.2811
860.70 133.762
860.80 130.8594
860.90 127.3098
861.00 122.9504
861.10 117.8535
861.20 112.2713
861.30 106.4585
861.40 100.7157
861.50 95.51777
861.60 91.28657
861.70 88.14862
861.80 85.92796
861.90 84.29728
862.00 82.8499
862.10 81.2772
862.20 79.56028
862.30 77.93742
862.40 76.69552
862.50 76.04501
862.60 75.98414
862.70 76.40819
862.80 77.11168
862.90 77.53783
863.00 76.94505
863.10 74.95605
863.20 71.83372
863.30 68.19774
863.40 64.77994
863.50 62.22935
863.60 60.91154
863.70 60.84833
863.80 61.84069
863.90 63.6589
864.00 66.1412
864.10 68.97458
864.20 71.6278
864.30 73.77077
864.40 75.48767
864.50 77.02773
864.60 78.53861
864.70 80.106
864.80 81.82887
864.90 83.60784
865.00 85.21139
865.10 86.69045
865.20 88.3158
865.30 90.10659
865.40 91.82575
865.50 93.40499
865.60 95.10862
865.70 97.13841
865.80 99.31639
865.90 101.2869
866.00 102.8555
866.10 104.0142
866.20 104.8094
866.30 105.4329
866.40 106.0887
866.50 106.6483
866.60 106.7827
866.70 106.3483
866.80 105.4317
866.90 104.1014
867.00 102.4186
867.10 100.7047
867.20 99.51725
867.30 99.35575
867.40 100.3271
867.50 102.0653
867.60 103.9872
867.70 105.5563
867.80 106.3812
867.90 106.2568
868.00 105.1178
868.10 103.0798
868.20 100.5196
868.30 98.1158
868.40 96.61591
868.50 96.41494
868.60 97.41341
868.70 99.10494
868.80 100.6785
868.90 101.3368
869.00 100.5063
869.10 97.90712
869.20 93.73343
869.30 88.63613
869.40 83.55609
869.50 79.42831
869.60 76.8588
869.70 75.99424
869.80 76.55215
869.90 77.98187
870.00 79.65934
870.10 81.10197
870.20 82.11373
870.30 82.63832
870.40 82.66149
870.50 82.17464
870.60 81.21989
870.70 79.85761
870.80 78.10546
870.90 76.08024
871.00 74.02728
871.10 72.23895
871.20 71.01645
871.30 70.53577
871.40 70.77142
871.50 71.47877
871.60 72.25737
871.70 72.81649
871.80 73.09146
871.90 73.16923
872.00 73.14617
872.10 73.16883
872.20 73.4741
872.30 74.17524
872.40 75.2656
872.50 76.70695
872.60 78.36466
872.70 80.05065
872.80 81.60874
872.90 82.95197
873.00 84.07053
873.10 84.93523
873.20 85.46767
873.30 85.68467
873.40 85.77864
873.50 85.9497
873.60 86.24887
873.70 86.68808
873.80 87.27373
873.90 87.94756
874.00 88.6501
874.10 89.36808
874.20 90.14392
874.30 91.014
874.40 91.9405
874.50 92.85676
874.60 93.69285
874.70 94.36535
874.80 94.76469
874.90 94.8587
875.00 94.80368
875.10 94.76807
875.20 94.79825
875.30 94.91022
875.40 95.1441
875.50 95.52104
875.60 95.87631
875.70 96.00508
875.80 95.75331
875.90 95.09515
876.00 94.18371
876.10 93.19007
876.20 92.20965
876.30 91.22572
876.40 90.13364
876.50 88.91028
876.60 87.61392
876.70 86.17109
876.80 84.69414
876.90 83.65304
877.00 83.73629
877.10 85.58007
877.20 89.47809
877.30 95.13064
877.40 101.6169
877.50 107.5738
877.60 111.5944
877.70 112.8646
877.80 111.5418
877.90 108.3344
878.00 104.085
878.10 99.89808
878.20 96.54374
878.30 94.17961
878.40 92.68363
878.50 91.74833
878.60 91.13111
878.70 90.85046
878.80 91.16475
878.90 92.44236
879.00 94.83728
879.10 98.08468
879.20 101.6461
879.30 105.013
879.40 107.8664
879.50 109.9583
879.60 111.2065
879.70 111.6909
879.80 111.4737
879.90 110.5823
880.00 108.9784
880.10 106.5688
880.20 103.3235
880.30 99.44289
880.40 95.47912
880.50 92.15663
880.60 89.94966
880.70 89.02467
880.80 89.46015
880.90 91.25612
881.00 94.33221
881.10 98.51659
881.20 103.5163
881.30 108.9747
881.40 114.4926
881.50 119.6502
881.60 123.9834
881.70 127.047
881.80 128.6483
881.90 128.8541
882.00 127.8188
882.10 125.8067
882.20 123.3542
882.30 121.2392
882.40 119.9544
882.50 119.3712
882.60 119.0353
882.70 118.7519
882.80 118.4998
882.90 118.2171
883.00 117.9129
883.10 117.6873
883.20 117.7343
883.30 118.2285
883.40 119.2921
883.50 120.8467
883.60 122.5834
883.70 124.125
883.80 125.236
883.90 125.9784
884.00 126.5325
884.10 126.6905
884.20 126.0856
884.30 124.4981
884.40 121.7638
884.50 117.9118
884.60 113.2771
884.70 108.5077
884.80 104.4228
884.90 101.9527
885.00 101.7091
885.10 103.7019
885.20 107.442
885.30 112.0147
885.40 116.3066
885.50 119.4153
885.60 120.8367
885.70 120.4812
885.80 118.875
885.90 117.0773
886.00 116.0999
886.10 116.4377
886.20 118.0578
886.30 120.5833
886.40 123.3865
886.50 125.5914
886.60 126.3364
886.70 125.233
886.80 122.4865
886.90 118.5708
887.00 114.1642
887.10 110.1415
887.20 107.2709
887.30 106.0193
887.40 106.6048
887.50 109.1058
887.60 113.3698
887.70 118.8548
887.80 124.8138
887.90 130.4844
888.00 135.2174
888.10 138.5562
888.20 140.1936
888.30 140.0444
888.40 138.3429
888.50 135.6833
888.60 132.9936
888.70 131.1681
888.80 130.5485
888.90 131.0568
889.00 132.3215
889.10 133.7044
889.20 134.5176
889.30 134.2063
889.40 132.5105
889.50 129.4685
889.60 125.6138
889.70 121.917
889.80 119.241
889.90 117.9032
890.00 117.6231
890.10 117.867
890.20 118.2867
890.30 118.6974
890.40 118.9867
890.50 119.1481
890.60 119.1743
890.70 119.0933
890.80 119.0493
890.90 119.2846
891.00 119.9094
891.10 120.9502
891.20 122.5143
891.30 124.7346
891.40 127.7032
891.50 131.3195
891.60 135.2321
891.70 138.8818
891.80 141.5891
891.90 142.673
892.00 141.7343
892.10 138.9097
892.20 134.6897
892.30 129.7719
892.40 124.994
892.50 121.0997
892.60 118.6479
892.70 118.1026
892.80 119.7186
892.90 123.4569
893.00 128.911
893.10 135.3064
893.20 141.7169
893.30 147.2393
893.40 151.0349
893.50 152.3806
893.60 150.9056
893.70 146.6171
893.80 139.9366
893.90 131.7486
894.00 123.1635
894.10 115.0568
894.20 107.921
894.30 102.2462
894.40 98.62572
894.50 97.40097
894.60 98.48499
894.70 101.4618
894.80 105.6891
894.90 110.4629
895.00 115.2835
895.10 119.8674
895.20 124.0141
895.30 127.8377
895.40 131.7725
895.50 136.2438
895.60 141.2699
895.70 146.4143
895.80 151.109
895.90 154.6737
896.00 156.4225
896.10 155.9989
896.20 153.4952
896.30 149.3143
896.40 143.9753
896.50 138.2211
896.60 133.0807
896.70 129.2975
896.80 127.0991
896.90 126.6347
897.00 128.2215
897.10 131.8772
897.20 136.9291
897.30 142.4857
897.40 147.7696
897.50 152.0816
897.60 154.9428
897.70 156.1667
897.80 155.8567
897.90 154.4144
898.00 152.4921
898.10 150.8814
898.20 150.3286
898.30 151.4025
898.40 154.3015
898.50 158.6393
898.60 163.51
898.70 167.4863
898.80 169.3362
898.90 168.7793
899.00 166.1245
899.10 162.0222
899.20 157.3988
899.30 153.149
899.40 149.7071
899.50 146.9753
899.60 144.7855
899.70 143.0474
899.80 141.7612
899.90 141.1199
900.00 141.0671
900.10 141.0142
900.20 140.9614
900.30 140.9086
900.40 140.8558
900.50 140.803
900.60 140.7502
900.70 140.6974
900.80 140.6446
900.90 140.5918
901.00 140.539
901.10 140.4862
901.20 140.4334
901.30 140.3806
901.40 140.3278
901.50 140.275
901.60 140.2222
901.70 140.1694
901.80 140.1166
901.90 140.0638
902.00 140.011
902.10 139.9582
902.20 139.9054
902.30 139.8526
902.40 139.7998
902.50 139.747
902.60 139.8455
902.70 140.5133
902.80 141.181
902.90 141.8487
903.00 142.5165
903.10 143.1842
903.20 143.8519
903.30 144.5197
903.40 145.1874
903.50 145.8551
903.60 146.5228
903.70 147.1906
903.80 147.8583
903.90 148.526
904.00 149.1938
904.10 149.8615
904.20 150.5292
904.30 151.197
904.40 151.8647
904.50 152.5324
904.60 153.2002
904.70 153.8679
904.80 154.5356
904.90 155.2034
905.00 155.8711
905.10 156.5388
905.20 157.2065
905.30 157.8743
905.40 158.542
905.50 159.2097
905.60 159.8775
905.70 160.5452
905.80 161.2129
905.90 161.8807
906.00 162.5484
906.10 162.9811
906.20 163.4015
906.30 163.8218
906.40 164.2422
906.50 164.6625
906.60 165.0829
906.70 165.5033
906.80 165.9236
906.90 166.344
907.00 166.7643
907.10 167.1847
907.20 167.605
907.30 168.0254
907.40 168.4458
907.50 168.8661
907.60 169.2865
907.70 169.7068
907.80 170.1272
907.90 170.5475
908.00 170.9679
908.10 171.3883
908.20 171.8086
908.30 172.229
908.40 172.6493
908.50 173.0697
908.60 173.49
908.70 173.9104
908.80 174.3307
908.90 174.7511
909.00 175.1715
909.10 175.5918
909.20 176.0122
909.30 176.4325
909.40 176.8529
909.50 177.2439
909.60 177.6067
909.70 177.9694
909.80 178.3322
909.90 178.695
910.00 179.0578
910.10 179.4206
910.20 179.7834
910.30 180.1461
910.40 180.5089
910.50 180.8717
910.60 181.2345
910.70 181.5973
910.80 181.96
910.90 182.3228
911.00 182.6856
911.10 183.0484
911.20 183.4112
911.30 183.774
911.40 184.1367
911.50 184.4995
911.60 184.8623
911.70 185.2251
911.80 185.5879
911.90 185.9507
912.00 186.3134
912.10 186.6762
912.20 187.039
912.30 187.4018
912.40 187.7646
912.50 188.1273
912.60 188.4901
912.70 188.8529
912.80 189.2157
912.90 189.5785
913.00 189.7252
913.10 189.8425
913.20 189.9598
913.30 190.0771
913.40 190.1944
913.50 190.3117
913.60 190.429
913.70 190.5463
913.80 190.6636
913.90 190.7809
914.00 190.8982
914.10 191.0155
914.20 191.1328
914.30 191.2501
914.40 191.3674
914.50 191.4847
914.60 191.602
914.70 191.7193
914.80 191.8366
914.90 191.9539
915.00 192.0712
915.10 192.1885
915.20 192.3058
915.30 192.4231
915.40 192.5404
915.50 192.6577
915.60 192.775
915.70 192.8923
915.80 193.0096
915.90 193.1269
916.00 193.2442
916.10 193.3615
916.20 193.4788
916.30 193.5961
916.40 193.7238
916.50 193.9709
916.60 194.2179
916.70 194.4649
916.80 194.712
916.90 194.959
917.00 195.2061
917.10 195.4531
917.20 195.7001
917.30 195.9472
917.40 196.1942
917.50 196.4413
917.60 196.6883
917.70 196.9353
917.80 197.1824
917.90 197.4294
918.00 197.6765
918.10 197.9235
918.20 198.1705
918.30 198.4176
918.40 198.6646
918.50 198.9117
918.60 199.1587
918.70 199.4058
918.80 199.6528
918.90 199.8998
919.00 200.1469
919.10 200.3939
919.20 200.641
919.30 200.888
919.40 201.135
919.50 201.3821
919.60 201.6291
919.70 201.8762
919.80 202.1232
919.90 202.3491
920.00 202.385
920.10 202.4208
920.20 202.4567
920.30 202.4926
920.40 202.5284
920.50 202.5643
920.60 202.6002
920.70 202.6361
920.80 202.6719
920.90 202.7078
921.00 202.7437
921.10 202.7795
921.20 202.8154
921.30 202.8513
921.40 202.8871
921.50 202.923
921.60 202.9589
921.70 202.9947
921.80 203.0306
921.90 203.0665
922.00 203.1023
922.10 203.1382
922.20 203.1741
922.30 203.2099
922.40 203.2458
922.50 203.2817
922.60 203.3175
922.70 203.3534
922.80 203.3893
922.90 203.4251
923.00 203.461
923.10 203.4969
923.20 203.5327
923.30 203.5686
923.40 203.6045
923.50 204.0706
923.60 204.5641
923.70 205.0577
923.80 205.5513
923.90 206.0449
924.00 206.5384
924.10 207.032
924.20 207.5256
924.30 208.0192
924.40 208.5127
924.50 209.0063
924.60 209.4999
924.70 209.9935
924.80 210.487
924.90 210.9806
925.00 211.4742
925.10 211.9678
925.20 212.4613
925.30 212.9549
925.40 213.4485
925.50 213.9421
925.60 214.4356
925.70 214.9292
925.80 215.4228
925.90 215.9164
926.00 216.4099
926.10 216.9035
926.20 217.3971
926.30 217.8907
926.40 218.3842
926.50 218.8778
926.60 219.3714
926.70 219.865
926.80 220.3585
926.90 220.8521
927.00 221.1478
927.10 221.317
927.20 221.4862
927.30 221.6554
927.40 221.8246
927.50 221.9938
927.60 222.163
927.70 222.3322
927.80 222.5014
927.90 222.6706
928.00 222.8398
928.10 223.009
928.20 223.1782
928.30 223.3474
928.40 223.5166
928.50 223.6858
928.60 223.855
928.70 224.0242
928.80 224.1934
928.90 224.3626
929.00 224.5318
929.10 224.701
929.20 224.8702
929.30 225.0394
929.40 225.2086
929.50 225.3778
929.60 225.547
929.70 225.7162
929.80 225.8854
929.90 226.0546
930.00 226.2238
930.10 226.393
930.20 226.5622
930.30 226.7314
930.40 226.9006
930.50 227.0592
930.60 227.1323
930.70 227.2053
930.80 227.2783
930.90 227.3513
931.00 227.4243
931.10 227.4974
931.20 227.5704
931.30 227.6434
931.40 227.7164
931.50 227.7894
931.60 227.8625
931.70 227.9355
931.80 228.0085
931.90 228.0815
932.00 228.1545
932.10 228.2276
932.20 228.3006
932.30 228.3736
932.40 228.4466
932.50 228.5196
932.60 228.5927
932.70 228.6657
932.80 228.7387
932.90 228.8117
933.00 228.8847
933.10 228.9578
933.20 229.0308
933.30 229.1038
933.40 229.1768
933.50 229.2498
933.60 229.3229
933.70 229.3959
933.80 229.4689
933.90 229.5419
934.00 229.6149
934.10 229.8034
934.20 230.1389
934.30 230.4744
934.40 230.8098
934.50 231.1453
934.60 231.4807
934.70 231.8162
934.80 232.1517
934.90 232.4871
935.00 232.8226
935.10 233.1581
935.20 233.4935
935.30 233.829
935.40 234.1645
935.50 234.4999
935.60 234.8354
935.70 235.1708
935.80 235.5063
935.90 235.8418
936.00 236.1772
936.10 236.5127
936.20 236.8482
936.30 237.1836
936.40 237.5191
936.50 237.8545
936.60 238.19
936.70 238.5255
936.80 238.8609
936.90 239.1964
937.00 239.5319
937.10 239.8673
937.20 240.2028
937.30 240.5383
937.40 240.8737
937.50 241.2092
937.60 241.5446
937.70 241.8209
937.80 242.0577
937.90 242.2945
938.00 242.5313
938.10 242.7681
938.20 243.0049
938.30 243.2417
938.40 243.4785
938.50 243.7153
938.60 243.9521
938.70 244.1889
938.80 244.4257
938.90 244.6625
939.00 244.8993
939.10 245.1361
939.20 245.3729
939.30 245.6097
939.40 245.8465
939.50 246.0833
939.60 246.3201
939.70 246.5569
939.80 246.7937
939.90 247.0306
940.00 247.2674
940.10 247.5042
940.20 247.741
940.30 247.9778
940.40 248.2146
940.50 248.4514
940.60 248.6882
940.70 248.925
940.80 249.1618
940.90 249.3986
941.00 249.6354
941.10 249.8722
941.20 250.109
941.30 250.469
941.40 250.9146
941.50 251.3602
941.60 251.8058
941.70 252.2514
941.80 252.697
941.90 253.1425
942.00 253.5881
942.10 254.0337
942.20 254.4793
942.30 254.9249
942.40 255.3705
942.50 255.8161
942.60 256.2617
942.70 256.7073
942.80 257.1529
942.90 257.5985
943.00 258.0441
943.10 258.4897
943.20 258.9353
943.30 259.3809
943.40 259.8265
943.50 260.2721
943.60 260.7177
943.70 261.1633
943.80 261.6089
943.90 262.0545
944.00 262.5001
944.10 262.9457
944.20 263.3913
944.30 263.8369
944.40 264.2825
944.50 264.7281
944.60 265.1737
944.70 265.6193
944.80 266.0649
944.90 266.4641
945.00 266.7967
945.10 267.1292
945.20 267.4618
945.30 267.7943
945.40 268.1269
945.50 268.4594
945.60 268.792
945.70 269.1246
945.80 269.4571
945.90 269.7897
946.00 270.1222
946.10 270.4548
946.20 270.7873
946.30 271.1199
946.40 271.4524
946.50 271.785
946.60 272.1175
946.70 272.4501
946.80 272.7827
946.90 273.1152
947.00 273.4478
947.10 273.7803
947.20 274.1129
947.30 274.4454
947.40 274.778
947.50 275.1105
947.60 275.4431
947.70 275.7756
947.80 276.1082
947.90 276.4408
948.00 276.7733
948.10 277.1059
948.20 277.4384
948.30 277.771
948.40 278.1035
948.50 278.4093
948.60 278.3586
948.70 278.308
948.80 278.2573
948.90 278.2067
949.00 278.1561
949.10 278.1054
949.20 278.0548
949.30 278.0041
949.40 277.9535
949.50 277.9029
949.60 277.8522
949.70 277.8016
949.80 277.7509
949.90 277.7003
950.00 277.6497
950.10 277.599
950.20 277.5484
950.30 277.4977
950.40 277.4471
950.50 277.3965
950.60 277.3458
950.70 277.2952
950.80 277.2445
950.90 277.1939
951.00 277.1433
951.10 277.0926
951.20 277.042
951.30 276.9913
951.40 276.9407
951.50 276.8901
951.60 276.8394
951.70 276.7888
951.80 276.7381
951.90 276.6875
952.00 276.6369
952.10 276.5862
952.20 276.6999
952.30 276.9428
952.40 277.1857
952.50 277.4286
952.60 277.6715
952.70 277.9143
952.80 278.1572
952.90 278.4001
953.00 278.643
953.10 278.8859
953.20 279.1287
953.30 279.3716
953.40 279.6145
953.50 279.8574
953.60 280.1003
953.70 280.3431
953.80 280.586
953.90 280.8289
954.00 281.0718
954.10 281.3147
954.20 281.5575
954.30 281.8004
954.40 282.0433
954.50 282.2862
954.60 282.5291
954.70 282.7719
954.80 283.0148
954.90 283.2577
955.00 283.5006
955.10 283.7435
955.20 283.9863
955.30 284.2292
955.40 284.4721
955.50 284.715
955.60 284.9578
955.70 285.2007
955.80 285.4436
955.90 285.5131
956.00 285.5634
956.10 285.6137
956.20 285.6639
956.30 285.7142
956.40 285.7644
956.50 285.8147
956.60 285.865
956.70 285.9152
956.80 285.9655
956.90 286.0158
957.00 286.066
957.10 286.1163
957.20 286.1665
957.30 286.2168
957.40 286.2671
957.50 286.3173
957.60 286.3676
957.70 286.4178
957.80 286.4681
957.90 286.5184
958.00 286.5686
958.10 286.6189
958.20 286.6692
958.30 286.7194
958.40 286.7697
958.50 286.8199
958.60 286.8702
958.70 286.9205
958.80 286.9707
958.90 287.021
959.00 287.0713
959.10 287.1215
959.20 287.1718
959.30 287.222
959.40 287.2723
959.50 287.3206
959.60 287.3431
959.70 287.3655
959.80 287.388
959.90 287.4105
960.00 287.4329
960.10 287.4554
960.20 287.4778
960.30 287.5003
960.40 287.5228
960.50 287.5452
960.60 287.5677
960.70 287.5902
960.80 287.6126
960.90 287.6351
961.00 287.6575
961.10 287.68
961.20 287.7025
961.30 287.7249
961.40 287.7474
961.50 287.7699
961.60 287.7923
961.70 287.8148
961.80 287.8372
961.90 287.8597
962.00 287.8822
962.10 287.9046
962.20 287.9271
962.30 287.9495
962.40 287.972
962.50 287.9945
962.60 288.0169
962.70 288.0394
962.80 288.0619
962.90 288.0843
963.00 288.1068
963.10 288.1292
963.20 288.1801
963.30 288.5183
963.40 288.8564
963.50 289.1945
963.60 289.5327
963.70 289.8708
963.80 290.209
963.90 290.5471
964.00 290.8853
964.10 291.2234
964.20 291.5615
964.30 291.8997
964.40 292.2378
964.50 292.576
964.60 292.9141
964.70 293.2522
964.80 293.5904
964.90 293.9285
965.00 294.2667
965.10 294.6048
965.20 294.943
965.30 295.2811
965.40 295.6192
965.50 295.9574
965.60 296.2955
965.70 296.6337
965.80 296.9718
965.90 297.31
966.00 297.6481
966.10 297.9862
966.20 298.3244
966.30 298.6625
966.40 299.0007
966.50 299.3388
966.60 299.677
966.70 300.0151
966.80 300.3532
966.90 300.6914
967.00 300.9791
967.10 301.2641
967.20 301.5492
967.30 301.8343
967.40 302.1193
967.50 302.4044
967.60 302.6894
967.70 302.9745
967.80 303.2595
967.90 303.5446
968.00 303.8296
968.10 304.1147
968.20 304.3998
968.30 304.6848
968.40 304.9699
968.50 305.2549
968.60 305.54
968.70 305.825
968.80 306.1101
968.90 306.3951
969.00 306.6802
969.10 306.9652
969.20 307.2503
969.30 307.5354
969.40 307.8204
969.50 308.1055
969.60 308.3905
969.70 308.6756
969.80 308.9606
969.90 309.2457
970.00 309.5307
970.10 309.8158
970.20 310.1009
970.30 310.3859
970.40 310.671
970.50 310.956
970.60 311.2411
970.70 311.8624
970.80 312.6649
970.90 313.4673
971.00 314.2698
971.10 315.0722
971.20 315.8747
971.30 316.6771
971.40 317.4795
971.50 318.282
971.60 319.0844
971.70 319.8869
971.80 320.6893
971.90 321.4918
972.00 322.2942
972.10 323.0967
972.20 323.8991
972.30 324.7015
972.40 325.504
972.50 326.3064
972.60 327.1089
972.70 327.9113
972.80 328.7138
972.90 329.5162
973.00 330.3187
973.10 331.1211
973.20 331.9235
973.30 332.726
973.40 333.5284
973.50 334.3309
973.60 335.1333
973.70 335.9358
973.80 336.7382
973.90 337.5407
974.00 338.3431
974.10 339.1455
974.20 339.948
974.30 340.7504
974.40 341.3503
974.50 341.1882
974.60 341.0261
974.70 340.864
974.80 340.7018
974.90 340.5397
975.00 340.3776
975.10 340.2155
975.20 340.0533
975.30 339.8912
975.40 339.7291
975.50 339.567
975.60 339.4048
975.70 339.2427
975.80 339.0806
975.90 338.9185
976.00 338.7563
976.10 338.5942
976.20 338.4321
976.30 338.27
976.40 338.1078
976.50 337.9457
976.60 337.7836
976.70 337.6215
976.80 337.4594
976.90 337.2972
977.00 337.1351
977.10 336.973
977.20 336.8109
977.30 336.6487
977.40 336.4866
977.50 336.3245
977.60 336.1624
977.70 336.0002
977.80 335.8381
977.90 335.676
978.00 335.5139
978.10 335.3517
978.20 335.2157
978.30 335.0964
978.40 334.9772
978.50 334.8579
978.60 334.7386
978.70 334.6193
978.80 334.5
978.90 334.3807
979.00 334.2614
979.10 334.1421
979.20 334.0228
979.30 333.9035
979.40 333.7842
979.50 333.6649
979.60 333.5456
979.70 333.4263
979.80 333.307
979.90 333.1877
980.00 333.0684
980.10 332.9491
980.20 332.8298
980.30 332.7105
980.40 332.5912
980.50 332.4719
980.60 332.3526
980.70 332.2333
980.80 332.114
980.90 331.9948
981.00 331.8755
981.10 331.7562
981.20 331.6369
981.30 331.5176
981.40 331.3983
981.50 331.279
981.60 331.1597
981.70 331.0404
981.80 330.9211
981.90 330.8018
982.00 330.5153
982.10 330.2016
982.20 329.8879
982.30 329.5741
982.40 329.2604
982.50 328.9467
982.60 328.633
982.70 328.3193
982.80 328.0055
982.90 327.6918
983.00 327.3781
983.10 327.0644
983.20 326.7507
983.30 326.4369
983.40 326.1232
983.50 325.8095
983.60 325.4958
983.70 325.1821
983.80 324.8683
983.90 324.5546
984.00 324.2409
984.10 323.9272
984.20 323.6135
984.30 323.2997
984.40 322.986
984.50 322.6723
984.60 322.3586
984.70 322.0449
984.80 321.7311
984.90 321.4174
985.00 321.1037
985.10 320.79
985.20 320.4763
985.30 320.1625
985.40 319.8488
985.50 319.5351
985.60 319.2214
985.70 318.9077
985.80 317.9895
985.90 317.0526
986.00 316.1157
986.10 315.1789
986.20 314.242
986.30 313.3051
986.40 312.3683
986.50 311.4314
986.60 310.4945
986.70 309.5576
986.80 308.6208
986.90 307.6839
987.00 306.747
987.10 305.8102
987.20 304.8733
987.30 303.9364
987.40 302.9996
987.50 302.0627
987.60 301.1258
987.70 300.1889
987.80 299.2521
987.90 298.3152
988.00 297.3783
988.10 296.4415
988.20 295.5046
988.30 294.5677
988.40 293.6308
988.50 292.694
988.60 291.7571
988.70 290.8202
988.80 289.8834
988.90 288.9465
989.00 288.0096
989.10 287.0727
989.20 286.1359
989.30 285.199
989.40 284.2621
989.50 283.3253
989.60 282.5542
989.70 281.7957
989.80 281.0372
989.90 280.2786
990.00 279.5201
990.10 278.7616
990.20 278.003
990.30 277.2445
990.40 276.4859
990.50 275.7274
990.60 274.9689
990.70 274.2103
990.80 273.4518
990.90 272.6933
991.00 271.9347
991.10 271.1762
991.20 270.4176
991.30 269.6591
991.40 268.9006
991.50 268.142
991.60 267.3835
991.70 266.6249
991.80 265.8664
991.90 265.1079
992.00 264.3493
992.10 263.5908
992.20 262.8323
992.30 262.0737
992.40 261.3152
992.50 260.5566
992.60 259.7981
992.70 259.0396
992.80 258.281
992.90 257.5225
993.00 256.764
993.10 256.0054
993.20 255.2469
993.30 254.4883
993.40 253.8805
993.50 253.323
993.60 252.7654
993.70 252.2079
993.80 251.6503
993.90 251.0928
994.00 250.5352
994.10 249.9777
994.20 249.4201
994.30 248.8626
994.40 248.305
994.50 247.7475
994.60 247.1899
994.70 246.6323
994.80 246.0748
994.90 245.5172
995.00 244.9597
995.10 244.4021
995.20 243.8446
995.30 243.287
995.40 242.7295
995.50 242.1719
995.60 241.6144
995.70 241.0568
995.80 240.4993
995.90 239.9417
996.00 239.3841
996.10 238.8266
996.20 238.269
996.30 237.7115
996.40 237.1539
996.50 236.5964
996.60 236.0388
996.70 235.4813
996.80 234.9237
996.90 234.3662
997.00 233.8086
997.10 233.2511
997.20 233.0916
997.30 233.4819
997.40 233.8722
997.50 234.2626
997.60 234.6529
997.70 235.0432
997.80 235.4335
997.90 235.8238
998.00 236.2142
998.10 236.6045
998.20 236.9948
998.30 237.3851
998.40 237.7754
998.50 238.1657
998.60 238.5561
998.70 238.9464
998.80 239.3367
998.90 239.727
999.00 240.1173
999.10 240.5077
999.20 240.898
999.30 241.2883
999.40 241.6786
999.50 242.0689
999.60 242.4593
999.70 242.8496
999.80 243.2399
999.90 243.6302
1000.00 244.0205
1000.10 244.4108
1000.20 244.8012
1000.30 245.1915
1000.40 245.5818
1000.50 245.9721
1000.60 246.3624
1000.70 246.7528
1000.80 247.1431
1000.90 247.5334
1001.00 247.9237
1001.10 248.2228
1001.20 248.5219
1001.30 248.821
1001.40 249.1201
1001.50 249.4192
1001.60 249.7183
1001.70 250.0173
1001.80 250.3164
1001.90 250.6155
1002.00 250.9146
1002.10 251.2137
1002.20 251.5128
1002.30 251.8119
1002.40 252.111
1002.50 252.4101
1002.60 252.7092
1002.70 253.0083
1002.80 253.3073
1002.90 253.6064
1003.00 253.9055
1003.10 254.2046
1003.20 254.5037
1003.30 254.8028
1003.40 255.1019
1003.50 255.401
1003.60 255.7001
1003.70 255.9992
1003.80 256.2982
1003.90 256.5973
1004.00 256.8964
1004.10 257.1955
1004.20 257.4946
1004.30 257.7937
1004.40 258.0928
1004.50 258.3919
1004.60 258.691
1004.70 258.9901
1004.80 259.2892
1004.90 259.6441
1005.00 260.0829
1005.10 260.5217
1005.20 260.9604
1005.30 261.3992
1005.40 261.838
1005.50 262.2767
1005.60 262.7155
1005.70 263.1543
1005.80 263.593
1005.90 264.0318
1006.00 264.4706
1006.10 264.9093
1006.20 265.3481
1006.30 265.7869
1006.40 266.2256
1006.50 266.6644
1006.60 267.1032
1006.70 267.5419
1006.80 267.9807
1006.90 268.4195
1007.00 268.8583
1007.10 269.297
1007.20 269.7358
1007.30 270.1746
1007.40 270.6133
1007.50 271.0521
1007.60 271.4909
1007.70 271.9296
1007.80 272.3684
1007.90 272.8072
1008.00 273.2459
1008.10 273.6847
1008.20 274.1235
1008.30 274.5622
1008.40 275.001
1008.50 275.4398
1008.60 275.8785
1008.70 276.3173
1008.80 276.7288
1008.90 277.1221
1009.00 277.5154
1009.10 277.9087
1009.20 278.302
1009.30 278.6953
1009.40 279.0886
1009.50 279.4819
1009.60 279.8752
1009.70 280.2685
1009.80 280.6618
1009.90 281.0551
1010.00 281.4484
1010.10 281.8417
1010.20 282.235
1010.30 282.6283
1010.40 283.0216
1010.50 283.4149
1010.60 283.8082
1010.70 284.2015
1010.80 284.5948
1010.90 284.9881
1011.00 285.3814
1011.10 285.7747
1011.20 286.168
1011.30 286.5613
1011.40 286.9546
1011.50 287.3479
1011.60 287.7412
1011.70 288.1345
1011.80 288.5278
1011.90 288.9211
1012.00 289.3144
1012.10 289.7077
1012.20 290.101
1012.30 290.4943
1012.40 290.8876
1012.50 291.2809
1012.60 291.6742
1012.70 291.9073
1012.80 292.1003
1012.90 292.2933
1013.00 292.4863
1013.10 292.6793
1013.20 292.8723
1013.30 293.0653
1013.40 293.2583
1013.50 293.4513
1013.60 293.6443
1013.70 293.8373
1013.80 294.0303
1013.90 294.2233
1014.00 294.4163
1014.10 294.6093
1014.20 294.8023
1014.30 294.9953
1014.40 295.1883
1014.50 295.3813
1014.60 295.5743
1014.70 295.7674
1014.80 295.9604
1014.90 296.1534
1015.00 296.3464
1015.10 296.5394
1015.20 296.7324
1015.30 296.9254
1015.40 297.1184
1015.50 297.3114
1015.60 297.5044
1015.70 297.6974
1015.80 297.8904
1015.90 298.0834
1016.00 298.2764
1016.10 298.4694
1016.20 298.6624
1016.30 298.8554
1016.40 299.0484
1016.50 299.2414
1016.60 299.1654
1016.70 299.0221
1016.80 298.8789
1016.90 298.7356
1017.00 298.5923
1017.10 298.449
1017.20 298.3058
1017.30 298.1625
1017.40 298.0192
1017.50 297.876
1017.60 297.7327
1017.70 297.5894
1017.80 297.4461
1017.90 297.3029
1018.00 297.1596
1018.10 297.0163
1018.20 296.8731
1018.30 296.7298
1018.40 296.5865
1018.50 296.4432
1018.60 296.3
1018.70 296.1567
1018.80 296.0134
1018.90 295.8702
1019.00 295.7269
1019.10 295.5836
1019.20 295.4403
1019.30 295.2971
1019.40 295.1538
1019.50 295.0105
1019.60 294.8673
1019.70 294.724
1019.80 294.5807
1019.90 294.4374
1020.00 294.2942
1020.10 294.1509
1020.20 294.0076
1020.30 293.8644
1020.40 293.7211
1020.50 293.9728
1020.60 294.4878
1020.70 295.0029
1020.80 295.5179
1020.90 296.0329
1021.00 296.548
1021.10 297.063
1021.20 297.5781
1021.30 298.0931
1021.40 298.6081
1021.50 299.1232
1021.60 299.6382
1021.70 300.1532
1021.80 300.6683
1021.90 301.1833
1022.00 301.6983
1022.10 302.2134
1022.20 302.7284
1022.30 303.2434
1022.40 303.7585
1022.50 304.2735
1022.60 304.7886
1022.70 305.3036
1022.80 305.8186
1022.90 306.3337
1023.00 306.8487
1023.10 307.3637
1023.20 307.8788
1023.30 308.3938
1023.40 308.9088
1023.50 309.4239
1023.60 309.9389
1023.70 310.4539
1023.80 310.969
1023.90 311.484
1024.00 311.999
1024.10 312.5141
1024.20 313.0291
1024.30 313.5442
1024.40 313.8594
1024.50 313.8751
1024.60 313.8907
1024.70 313.9064
1024.80 313.922
1024.90 313.9377
1025.00 313.9533
1025.10 313.969
1025.20 313.9846
1025.30 314.0003
1025.40 314.0159
1025.50 314.0316
1025.60 314.0472
1025.70 314.0629
1025.80 314.0785
1025.90 314.0942
1026.00 314.1098
1026.10 314.1255
1026.20 314.1411
1026.30 314.1568
1026.40 314.1724
1026.50 314.188
1026.60 314.2037
1026.70 314.2193
1026.80 314.235
1026.90 314.2506
1027.00 314.2663
1027.10 314.2819
1027.20 314.2976
1027.30 314.3132
1027.40 314.3289
1027.50 314.3445
1027.60 314.3602
1027.70 314.3758
1027.80 314.3915
1027.90 314.4071
1028.00 314.4228
1028.10 314.4384
1028.20 314.4541
1028.30 314.4697
1028.40 315.0003
1028.50 315.5309
1028.60 316.0615
1028.70 316.5921
1028.80 317.1227
1028.90 317.6533
1029.00 318.1839
1029.10 318.7145
1029.20 319.2451
1029.30 319.7757
1029.40 320.3063
1029.50 320.8369
1029.60 321.3675
1029.70 321.8981
1029.80 322.4287
1029.90 322.9593
1030.00 323.4899
1030.10 324.0205
1030.20 324.5511
1030.30 325.0817
1030.40 325.6123
1030.50 326.1429
1030.60 326.6735
1030.70 327.2041
1030.80 327.7347
1030.90 328.2654
1031.00 328.796
1031.10 329.3266
1031.20 329.8572
1031.30 330.3878
1031.40 330.9184
1031.50 331.449
1031.60 331.9796
1031.70 332.5102
1031.80 333.0408
1031.90 333.5714
1032.00 334.102
1032.10 334.6326
1032.20 335.1632
1032.30 335.5374
1032.40 335.7551
1032.50 335.9729
1032.60 336.1907
1032.70 336.4085
1032.80 336.6263
1032.90 336.8441
1033.00 337.0618
1033.10 337.2796
1033.20 337.4974
1033.30 337.7152
1033.40 337.933
1033.50 338.1508
1033.60 338.3685
1033.70 338.5863
1033.80 338.8041
1033.90 339.0219
1034.00 339.2397
1034.10 339.4575
1034.20 339.6752
1034.30 339.893
1034.40 340.1108
1034.50 340.3286
1034.60 340.5464
1034.70 340.7642
1034.80 340.9819
1034.90 341.1997
1035.00 341.4175
1035.10 341.6353
1035.20 341.8531
1035.30 342.0709
1035.40 342.2886
1035.50 342.5064
1035.60 342.7242
1035.70 342.942
1035.80 343.1598
1035.90 343.3776
1036.00 343.5953
1036.10 343.8131
1036.20 344.0309
1036.30 344.4528
1036.40 344.9256
1036.50 345.3985
1036.60 345.8714
1036.70 346.3443
1036.80 346.8172
1036.90 347.29
1037.00 347.7629
1037.10 348.2358
1037.20 348.7087
1037.30 349.1815
1037.40 349.6544
1037.50 350.1273
1037.60 350.6002
1037.70 351.0731
1037.80 351.5459
1037.90 352.0188
1038.00 352.4917
1038.10 352.9646
1038.20 353.4374
1038.30 353.9103
1038.40 354.3832
1038.50 354.8561
1038.60 355.3289
1038.70 355.8018
1038.80 356.2747
1038.90 356.7476
1039.00 357.2205
1039.10 357.6933
1039.20 358.1662
1039.30 358.6391
1039.40 359.112
1039.50 359.5848
1039.60 360.0577
1039.70 360.5306
1039.80 361.0035
1039.90 361.4764
1040.00 361.9492
1040.10 362.4221
1040.20 362.9048
1040.30 363.4757
1040.40 364.0467
1040.50 364.6176
1040.60 365.1885
1040.70 365.7595
1040.80 366.3304
1040.90 366.9014
1041.00 367.4723
1041.10 368.0432
1041.20 368.6142
1041.30 369.1851
1041.40 369.756
1041.50 370.327
1041.60 370.8979
1041.70 371.4688
1041.80 372.0398
1041.90 372.6107
1042.00 373.1817
1042.10 373.7526
1042.20 374.3235
1042.30 374.8945
1042.40 375.4654
1042.50 376.0363
1042.60 376.6073
1042.70 377.1782
1042.80 377.7492
1042.90 378.3201
1043.00 378.891
1043.10 379.462
1043.20 380.0329
1043.30 380.6038
1043.40 381.1748
1043.50 381.7457
1043.60 382.3167
1043.70 382.8876
1043.80 383.4585
1043.90 384.0295
1044.00 384.6004
1044.10 385.1713
1044.20 385.6399
1044.30 385.699
1044.40 385.758
1044.50 385.8171
1044.60 385.8761
1044.70 385.9352
1044.80 385.9943
1044.90 386.0533
1045.00 386.1124
1045.10 386.1714
1045.20 386.2305
1045.30 386.2896
1045.40 386.3486
1045.50 386.4077
1045.60 386.4667
1045.70 386.5258
1045.80 386.5849
1045.90 386.6439
1046.00 386.703
1046.10 386.762
1046.20 386.8211
1046.30 386.8802
1046.40 386.9392
1046.50 386.9983
1046.60 387.0573
1046.70 387.1164
1046.80 387.1755
1046.90 387.2345
1047.00 387.2936
1047.10 387.3526
1047.20 387.4117
1047.30 387.4708
1047.40 387.5298
1047.50 387.5889
1047.60 387.6479
1047.70 387.707
1047.80 387.7661
1047.90 387.8251
1048.00 387.8842
1048.10 387.9432
1048.20 387.9391
1048.30 387.7874
1048.40 387.6357
1048.50 387.484
1048.60 387.3324
1048.70 387.1807
1048.80 387.029
1048.90 386.8773
1049.00 386.7257
1049.10 386.574
1049.20 386.4223
1049.30 386.2706
1049.40 386.119
1049.50 385.9673
1049.60 385.8156
1049.70 385.6639
1049.80 385.5122
1049.90 385.3606
1050.00 385.2089
1050.10 385.0572
1050.20 384.9055
1050.30 384.7539
1050.40 384.6022
1050.50 384.4505
1050.60 384.2988
1050.70 384.1472
1050.80 383.9955
1050.90 383.8438
1051.00 383.6921
1051.10 383.5405
1051.20 383.3888
1051.30 383.2371
1051.40 383.0854
1051.50 382.9337
1051.60 382.7821
1051.70 382.6304
1051.80 382.4787
1051.90 382.327
1052.00 382.1754
1052.10 382.0237
1052.20 382.039
1052.30 382.7223
1052.40 383.4056
1052.50 384.0889
1052.60 384.7723
1052.70 385.4556
1052.80 386.1389
1052.90 386.8222
1053.00 387.5055
1053.10 388.1888
1053.20 388.8721
1053.30 389.5554
1053.40 390.2388
1053.50 390.9221
1053.60 391.6054
1053.70 392.2887
1053.80 392.972
1053.90 393.6553
1054.00 394.3386
1054.10 395.0219
1054.20 395.7053
1054.30 396.3886
1054.40 397.0719
1054.50 397.7552
1054.60 398.4385
1054.70 399.1218
1054.80 399.8051
1054.90 400.4884
1055.00 401.1718
1055.10 401.8551
1055.20 402.5384
1055.30 403.2217
1055.40 403.905
1055.50 404.5883
1055.60 405.2716
1055.70 405.9549
1055.80 406.6383
1055.90 407.3216
1056.00 408.0049
1056.10 408.6882
1056.20 409.3715
1056.30 409.3181
1056.40 409.2647
1056.50 409.2113
1056.60 409.158
1056.70 409.1046
1056.80 409.0512
1056.90 408.9978
1057.00 408.9444
1057.10 408.891
1057.20 408.8376
1057.30 408.7843
1057.40 408.7309
1057.50 408.6775
1057.60 408.6241
1057.70 408.5707
1057.80 408.5173
1057.90 408.4639
1058.00 408.4106
1058.10 408.3572
1058.20 408.3038
1058.30 408.2504
1058.40 408.197
1058.50 408.1436
1058.60 408.0903
1058.70 408.0369
1058.80 407.9835
1058.90 407.9301
1059.00 407.8767
1059.10 407.8233
1059.20 407.7699
1059.30 407.7166
1059.40 407.6632
1059.50 407.6098
1059.60 407.5564
1059.70 407.503
1059.80 407.4496
1059.90 407.3962
1060.00 407.3429
1060.10 407.2895
1060.20 407.2361
1060.30 407.3963
1060.40 407.6989
1060.50 408.0015
1060.60 408.3042
1060.70 408.6068
1060.80 408.9094
1060.90 409.212
1061.00 409.5146
1061.10 409.8172
1061.20 410.1199
1061.30 410.4225
1061.40 410.7251
1061.50 411.0277
1061.60 411.3303
1061.70 411.6329
1061.80 411.9356
1061.90 412.2382
1062.00 412.5408
1062.10 412.8434
1062.20 413.146
1062.30 413.4487
1062.40 413.7513
1062.50 414.0539
1062.60 414.3565
1062.70 414.6591
1062.80 414.9617
1062.90 415.2644
1063.00 415.567
1063.10 415.8696
1063.20 416.1722
1063.30 416.4748
1063.40 416.7774
1063.50 417.0801
1063.60 417.3827
1063.70 417.6853
1063.80 417.9879
1063.90 418.2905
1064.00 418.5931
1064.10 418.8958
1064.20 419.1984
1064.30 419.4845
1064.40 419.7049
1064.50 419.9252
1064.60 420.1455
1064.70 420.3658
1064.80 420.5861
1064.90 420.8064
1065.00 421.0268
1065.10 421.2471
1065.20 421.4674
1065.30 421.6877
1065.40 421.908
1065.50 422.1284
1065.60 422.3487
1065.70 422.569
1065.80 422.7893
1065.90 423.0096
1066.00 423.2299
1066.10 423.4503
1066.20 423.6706
1066.30 423.8909
1066.40 424.1112
1066.50 424.3315
1066.60 424.5519
1066.70 424.7722
1066.80 424.9925
1066.90 425.2128
1067.00 425.4331
1067.10 425.6534
1067.20 425.8738
1067.30 426.0941
1067.40 426.3144
1067.50 426.5347
1067.60 426.755
1067.70 426.9754
1067.80 427.1957
1067.90 427.416
1068.00 427.6363
1068.10 427.8566
1068.20 428.0769
1068.30 428.2973
1068.40 428.712
1068.50 429.2101
1068.60 429.7081
1068.70 430.2062
1068.80 430.7042
1068.90 431.2023
1069.00 431.7003
1069.10 432.1984
1069.20 432.6965
1069.30 433.1945
1069.40 433.6926
1069.50 434.1906
1069.60 434.6887
1069.70 435.1868
1069.80 435.6848
1069.90 436.1829
1070.00 436.6809
1070.10 437.179
1070.20 437.677
1070.30 438.1751
1070.40 438.6732
1070.50 439.1712
1070.60 439.6693
1070.70 440.1673
1070.80 440.6654
1070.90 441.1635
1071.00 441.6615
1071.10 442.1596
1071.20 442.6576
1071.30 443.1557
1071.40 443.6537
1071.50 444.1518
1071.60 444.6499
1071.70 445.1479
1071.80 445.646
1071.90 446.144
1072.00 446.6421
1072.10 447.1402
1072.20 447.6382
1072.30 448.1363
1072.40 448.5921
1072.50 448.6681
1072.60 448.744
1072.70 448.82
1072.80 448.896
1072.90 448.9719
1073.00 449.0479
1073.10 449.1239
1073.20 449.1998
1073.30 449.2758
1073.40 449.3518
1073.50 449.4277
1073.60 449.5037
1073.70 449.5797
1073.80 449.6556
1073.90 449.7316
1074.00 449.8076
1074.10 449.8835
1074.20 449.9595
1074.30 450.0355
1074.40 450.1114
1074.50 450.1874
1074.60 450.2634
1074.70 450.3393
1074.80 450.4153
1074.90 450.4913
1075.00 450.5672
1075.10 450.6432
1075.20 450.7192
1075.30 450.7951
1075.40 450.8711
1075.50 450.9471
1075.60 451.023
1075.70 451.099
1075.80 451.175
1075.90 451.2509
1076.00 451.3269
1076.10 451.4028
1076.20 451.4788
1076.30 451.5548
1076.40 451.6307
1076.50 451.8778
1076.60 452.3815
1076.70 452.8852
1076.80 453.3889
1076.90 453.8926
1077.00 454.3963
1077.10 454.8999
1077.20 455.4036
1077.30 455.9073
1077.40 456.411
1077.50 456.9147
1077.60 457.4184
1077.70 457.9221
1077.80 458.4258
1077.90 458.9295
1078.00 459.4332
1078.10 459.9368
1078.20 460.4405
1078.30 460.9442
1078.40 461.4479
1078.50 461.9516
1078.60 462.4553
1078.70 462.959
1078.80 463.4627
1078.90 463.9664
1079.00 464.4701
1079.10 464.9737
1079.20 465.4774
1079.30 465.9811
1079.40 466.4848
1079.50 466.9885
1079.60 467.4922
1079.70 467.9959
1079.80 468.4996
1079.90 469.0033
1080.00 469.507
1080.10 470.0106
1080.20 470.5143
1080.30 471.018
1080.40 471.5217
1080.50 472.0254
1080.60 472.3647
1080.70 472.5396
1080.80 472.7145
1080.90 472.8893
1081.00 473.0642
1081.10 473.2391
1081.20 473.414
1081.30 473.5889
1081.40 473.7637
1081.50 473.9386
1081.60 474.1135
1081.70 474.2884
1081.80 474.4633
1081.90 474.6382
1082.00 474.813
1082.10 474.9879
1082.20 475.1628
1082.30 475.3377
1082.40 475.5126
1082.50 475.6874
1082.60 475.8623
1082.70 476.0372
1082.80 476.2121
1082.90 476.387
1083.00 476.5619
1083.10 476.7367
1083.20 476.9116
1083.30 477.0865
1083.40 477.2614
1083.50 477.4363
1083.60 477.6112
1083.70 477.786
1083.80 477.9609
1083.90 478.1358
1084.00 478.3107
1084.10 478.4856
1084.20 478.6604
1084.30 478.8353
1084.40 479.0102
1084.50 479.1851
1084.60 479.36
1084.70 479.6703
1084.80 480.071
1084.90 480.4717
1085.00 480.8724
1085.10 481.2731
1085.20 481.6738
1085.30 482.0744
1085.40 482.4751
1085.50 482.8758
1085.60 483.2765
1085.70 483.6772
1085.80 484.0779
1085.90 484.4786
1086.00 484.8792
1086.10 485.2799
1086.20 485.6806
1086.30 486.0813
1086.40 486.482
1086.50 486.8827
1086.60 487.2834
1086.70 487.684
1086.80 488.0847
1086.90 488.4854
1087.00 488.8861
1087.10 489.2868
1087.20 489.6875
1087.30 490.0881
1087.40 490.4888
1087.50 490.8895
1087.60 491.2902
1087.70 491.6909
1087.80 492.0916
1087.90 492.4923
1088.00 492.8929
1088.10 493.2936
1088.20 493.6943
1088.30 494.095
1088.40 494.4957
1088.50 494.8964
1088.60 495.2971
1088.70 495.6977
1088.80 496.0329
1088.90 496.3245
1089.00 496.616
1089.10 496.9075
1089.20 497.1991
1089.30 497.4906
1089.40 497.7822
1089.50 498.0737
1089.60 498.3652
1089.70 498.6568
1089.80 498.9483
1089.90 499.2398
1090.00 499.5314
1090.10 499.8229
1090.20 500.1144
1090.30 500.406
1090.40 500.6975
1090.50 500.9891
1090.60 501.2806
1090.70 501.5721
1090.80 501.8637
1090.90 502.1552
1091.00 502.4467
1091.10 502.7383
1091.20 503.0298
1091.30 503.3214
1091.40 503.6129
1091.50 503.9044
1091.60 504.196
1091.70 504.4875
1091.80 504.779
1091.90 505.0706
1092.00 505.3621
1092.10 505.6536
1092.20 505.9452
1092.30 506.2367
1092.40 506.5283
1092.50 506.8198
1092.60 507.1113
1092.70 507.4029
1092.80 507.6944
1092.90 508.0023
1093.00 508.3265
1093.10 508.6508
1093.20 508.975
1093.30 509.2993
1093.40 509.6235
1093.50 509.9478
1093.60 510.272
1093.70 510.5963
1093.80 510.9205
1093.90 511.2448
1094.00 511.569
1094.10 511.8933
1094.20 512.2175
1094.30 512.5418
1094.40 512.866
1094.50 513.1902
1094.60 513.5145
1094.70 513.8387
1094.80 514.163
1094.90 514.4872
1095.00 514.8115
1095.10 515.1357
1095.20 515.46
1095.30 515.7842
1095.40 516.1085
1095.50 516.4327
1095.60 516.757
1095.70 517.0812
1095.80 517.4055
1095.90 517.7297
1096.00 518.054
1096.10 518.3782
1096.20 518.7024
1096.30 519.0267
1096.40 519.3509
1096.50 519.6752
1096.60 519.9994
1096.70 520.3237
1096.80 520.6479
1096.90 520.9722
1097.00 521.1691
1097.10 521.0687
1097.20 520.9684
1097.30 520.8681
1097.40 520.7678
1097.50 520.6674
1097.60 520.5671
1097.70 520.4668
1097.80 520.3665
1097.90 520.2661
1098.00 520.1658
1098.10 520.0655
1098.20 519.9652
1098.30 519.8649
1098.40 519.7645
1098.50 519.6642
1098.60 519.5639
1098.70 519.4636
1098.80 519.3632
1098.90 519.2629
1099.00 519.1626
1099.10 519.0623
1099.20 518.9619
1099.30 518.8616
1099.40 518.7613
1099.50 518.661
1099.60 518.5607
1099.70 518.4603
1099.80 518.36
1099.90 518.2597
1100.00 518.1594
1100.10 518.059
1100.20 517.9587
1100.30 517.8584
1100.40 517.7581
1100.50 517.6578
1100.60 517.5574
1100.70 517.4571
1100.80 517.3568
1100.90 517.2565
1101.00 517.1561
1101.10 517.0558
1101.20 517.0542
1101.30 517.0527
1101.40 517.0511
1101.50 517.0495
1101.60 517.048
1101.70 517.0464
1101.80 517.0448
1101.90 517.0432
1102.00 517.0417
1102.10 517.0401
1102.20 517.0385
1102.30 517.037
1102.40 517.0354
1102.50 517.0338
1102.60 517.0322
1102.70 517.0307
1102.80 517.0291
1102.90 517.0275
1103.00 517.026
1103.10 517.0244
1103.20 517.0228
1103.30 517.0212
1103.40 517.0197
1103.50 517.0181
1103.60 517.0165
1103.70 517.015
1103.80 517.0134
1103.90 517.0118
1104.00 517.0102
1104.10 517.0087
1104.20 517.0071
1104.30 517.0055
1104.40 517.004
1104.50 517.0024
1104.60 517.0008
1104.70 516.9992
1104.80 516.9977
1104.90 516.9961
1105.00 516.9945
1105.10 516.993
1105.20 516.9914
1105.30 516.9363
1105.40 516.8456
1105.50 516.7549
1105.60 516.6641
1105.70 516.5734
1105.80 516.4827
1105.90 516.392
1106.00 516.3012
1106.10 516.2105
1106.20 516.1198
1106.30 516.0291
1106.40 515.9383
1106.50 515.8476
1106.60 515.7569
1106.70 515.6662
1106.80 515.5754
1106.90 515.4847
1107.00 515.394
1107.10 515.3033
1107.20 515.2125
1107.30 515.1218
1107.40 515.0311
1107.50 514.9404
1107.60 514.8496
1107.70 514.7589
1107.80 514.6682
1107.90 514.5775
1108.00 514.4868
1108.10 514.396
1108.20 514.3053
1108.30 514.2146
1108.40 514.1239
1108.50 514.0331
1108.60 513.9424
1108.70 513.8517
1108.80 513.761
1108.90 513.6702
1109.00 513.5795
1109.10 513.4888
1109.20 513.3981
1109.30 513.3073
1109.40 513.261
1109.50 513.392
1109.60 513.523
1109.70 513.6541
1109.80 513.7851
1109.90 513.9162
1110.00 514.0472
1110.10 514.1782
1110.20 514.3093
1110.30 514.4403
1110.40 514.5714
1110.50 514.7024
1110.60 514.8335
1110.70 514.9645
1110.80 515.0955
1110.90 515.2266
1111.00 515.3576
1111.10 515.4887
1111.20 515.6197
1111.30 515.7507
1111.40 515.8818
1111.50 516.0128
1111.60 516.1439
1111.70 516.2749
1111.80 516.4059
1111.90 516.537
1112.00 516.668
1112.10 516.7991
1112.20 516.9301
1112.30 517.0612
1112.40 517.1922
1112.50 517.3232
1112.60 517.4543
1112.70 517.5853
1112.80 517.7164
1112.90 517.8474
1113.00 517.9784
1113.10 518.1095
1113.20 518.2405
1113.30 518.3716
1113.40 518.5026
1113.50 518.6336
1113.60 518.8151
1113.70 519.03
1113.80 519.245
1113.90 519.46
1114.00 519.675
1114.10 519.89
1114.20 520.105
1114.30 520.3199
1114.40 520.5349
1114.50 520.7499
1114.60 520.9649
1114.70 521.1799
1114.80 521.3949
1114.90 521.6098
1115.00 521.8248
1115.10 522.0398
1115.20 522.2548
1115.30 522.4698
1115.40 522.6848
1115.50 522.8997
1115.60 523.1147
1115.70 523.3297
1115.80 523.5447
1115.90 523.7597
1116.00 523.9747
1116.10 524.1896
1116.20 524.4046
1116.30 524.6196
1116.40 524.8346
1116.50 525.0496
1116.60 525.2646
1116.70 525.4795
1116.80 525.6945
1116.90 525.9095
1117.00 526.1245
1117.10 526.3395
1117.20 526.5545
1117.30 526.7694
1117.40 526.9844
1117.50 527.1994
1117.60 527.4144
1117.70 527.6294
1117.80 527.7985
1117.90 527.9676
1118.00 528.1368
1118.10 528.3059
1118.20 528.475
1118.30 528.6442
1118.40 528.8133
1118.50 528.9824
1118.60 529.1516
1118.70 529.3207
1118.80 529.4898
1118.90 529.659
1119.00 529.8281
1119.10 529.9972
1119.20 530.1664
1119.30 530.3355
1119.40 530.5046
1119.50 530.6738
1119.60 530.8429
1119.70 531.012
1119.80 531.1812
1119.90 531.3503
1120.00 531.5194
1120.10 531.6885
1120.20 531.8577
1120.30 532.0268
1120.40 532.1959
1120.50 532.3651
1120.60 532.5342
1120.70 532.7033
1120.80 532.8725
1120.90 533.0416
1121.00 533.2107
1121.10 533.3799
1121.20 533.549
1121.30 533.7181
1121.40 533.8873
1121.50 534.0564
1121.60 534.2255
1121.70 534.3947
1121.80 534.5638
1121.90 534.627
1122.00 534.443
1122.10 534.259
1122.20 534.075
1122.30 533.8911
1122.40 533.7071
1122.50 533.5231
1122.60 533.3391
1122.70 533.1551
1122.80 532.9711
1122.90 532.7872
1123.00 532.6032
1123.10 532.4192
1123.20 532.2352
1123.30 532.0512
1123.40 531.8672
1123.50 531.6832
1123.60 531.4993
1123.70 531.3153
1123.80 531.1313
1123.90 530.9473
1124.00 530.7633
1124.10 530.5793
1124.20 530.3954
1124.30 530.2114
1124.40 530.0274
1124.50 529.8434
1124.60 529.6594
1124.70 529.4754
1124.80 529.2914
1124.90 529.1075
1125.00 528.9235
1125.10 528.7395
1125.20 528.5555
1125.30 528.3715
1125.40 528.1875
1125.50 528.0036
1125.60 527.8196
1125.70 527.6356
1125.80 527.4516
1125.90 527.2676
1126.00 527.0836
1126.10 526.8533
1126.20 526.5766
1126.30 526.2999
1126.40 526.0233
1126.50 525.7466
1126.60 525.4699
1126.70 525.1932
1126.80 524.9165
1126.90 524.6398
1127.00 524.3632
1127.10 524.0865
1127.20 523.8098
1127.30 523.5331
1127.40 523.2564
1127.50 522.9797
1127.60 522.7031
1127.70 522.4264
1127.80 522.1497
1127.90 521.873
1128.00 521.5963
1128.10 521.3197
1128.20 521.043
1128.30 520.7663
1128.40 520.4896
1128.50 520.2129
1128.60 519.9362
1128.70 519.6596
1128.80 519.3829
1128.90 519.1062
1129.00 518.8295
1129.10 518.5528
1129.20 518.2761
1129.30 517.9995
1129.40 517.7228
1129.50 517.4461
1129.60 517.1694
1129.70 516.8927
1129.80 516.6161
1129.90 516.3394
1130.00 516.0627
1130.10 515.786
1130.20 515.5093
1130.30 515.0738
1130.40 514.5703
1130.50 514.0668
1130.60 513.5633
1130.70 513.0597
1130.80 512.5562
1130.90 512.0527
1131.00 511.5491
1131.10 511.0456
1131.20 510.5421
1131.30 510.0385
1131.40 509.535
1131.50 509.0315
1131.60 508.5279
1131.70 508.0244
1131.80 507.5209
1131.90 507.0174
1132.00 506.5138
1132.10 506.0103
1132.20 505.5068
1132.30 505.0032
1132.40 504.4997
1132.50 503.9962
1132.60 503.4926
1132.70 502.9891
1132.80 502.4856
1132.90 501.982
1133.00 501.4785
1133.10 500.975
1133.20 500.4715
1133.30 499.9679
1133.40 499.4644
1133.50 498.9609
1133.60 498.4573
1133.70 497.9538
1133.80 497.4503
1133.90 496.9467
1134.00 496.4432
1134.10 495.9397
1134.20 495.4361
1134.30 494.9326
1134.40 494.4291
1134.50 494.2535
1134.60 494.1599
1134.70 494.0663
1134.80 493.9727
1134.90 493.8791
1135.00 493.7855
1135.10 493.6918
1135.20 493.5982
1135.30 493.5046
1135.40 493.411
1135.50 493.3174
1135.60 493.2238
1135.70 493.1302
1135.80 493.0366
1135.90 492.943
1136.00 492.8494
1136.10 492.7558
1136.20 492.6622
1136.30 492.5686
1136.40 492.4749
1136.50 492.3813
1136.60 492.2877
1136.70 492.1941
1136.80 492.1005
1136.90 492.0069
1137.00 491.9133
1137.10 491.8197
1137.20 491.7261
1137.30 491.6325
1137.40 491.5389
1137.50 491.4453
1137.60 491.3517
1137.70 491.2581
1137.80 491.1644
1137.90 491.0708
1138.00 490.9772
1138.10 490.8836
1138.20 490.79
1138.30 490.6964
1138.40 490.6028
1138.50 490.5092
1138.60 490.4156
1138.70 490.738
1138.80 491.1644
1138.90 491.5909
1139.00 492.0173
1139.10 492.4437
1139.20 492.8702
1139.30 493.2966
1139.40 493.723
1139.50 494.1494
1139.60 494.5759
1139.70 495.0023
1139.80 495.4287
1139.90 495.8552
1140.00 496.2816
1140.10 496.708
1140.20 497.1345
1140.30 497.5609
1140.40 497.9873
1140.50 498.4137
1140.60 498.8402
1140.70 499.2666
1140.80 499.693
1140.90 500.1195
1141.00 500.5459
1141.10 500.9723
1141.20 501.3988
1141.30 501.8252
1141.40 502.2516
1141.50 502.678
1141.60 503.1045
1141.70 503.5309
1141.80 503.9573
1141.90 504.3838
1142.00 504.8102
1142.10 505.2366
1142.20 505.6631
1142.30 506.0895
1142.40 506.5159
1142.50 506.9424
1142.60 507.3688
1142.70 507.7952
1142.80 508.2216
1142.90 509.2589
1143.00 510.4488
1143.10 511.6388
1143.20 512.8287
1143.30 514.0186
1143.40 515.2086
1143.50 516.3985
1143.60 517.5885
1143.70 518.7784
1143.80 519.9683
1143.90 521.1583
1144.00 522.3482
1144.10 523.5382
1144.20 524.7281
1144.30 525.9181
1144.40 527.108
1144.50 528.2979
1144.60 529.4879
1144.70 530.6778
1144.80 531.8678
1144.90 533.0577
1145.00 534.2476
1145.10 535.4376
1145.20 536.6275
1145.30 537.8175
1145.40 539.0074
1145.50 540.1973
1145.60 541.3873
1145.70 542.5772
1145.80 543.7672
1145.90 544.9571
1146.00 546.1471
1146.10 547.337
1146.20 548.5269
1146.30 549.7169
1146.40 550.9068
1146.50 552.0968
1146.60 553.2867
1146.70 554.4766
1146.80 555.6666
1146.90 556.8565
1147.00 558.0465
1147.10 558.6456
1147.20 558.8509
1147.30 559.0561
1147.40 559.2614
1147.50 559.4666
1147.60 559.6719
1147.70 559.8772
1147.80 560.0824
1147.90 560.2877
1148.00 560.4929
1148.10 560.6982
1148.20 560.9035
1148.30 561.1087
1148.40 561.314
1148.50 561.5192
1148.60 561.7245
1148.70 561.9298
1148.80 562.135
1148.90 562.3403
1149.00 562.5455
1149.10 562.7508
1149.20 562.9561
1149.30 563.1613
1149.40 563.3666
1149.50 563.5718
1149.60 563.7771
1149.70 563.9824
1149.80 564.1876
1149.90 564.3929
1150.00 564.5981
1150.10 564.8034
1150.20 565.0087
1150.30 565.2139
1150.40 565.4192
1150.50 565.6244
1150.60 565.8297
1150.70 566.035
1150.80 566.2402
1150.90 566.4455
1151.00 566.6507
1151.10 566.856
1151.20 567.0613
1151.30 567.3208
1151.40 567.6346
1151.50 567.9483
1151.60 568.2621
1151.70 568.5759
1151.80 568.8897
1151.90 569.2034
1152.00 569.5172
1152.10 569.831
1152.20 570.1448
1152.30 570.4586
1152.40 570.7723
1152.50 571.0861
1152.60 571.3999
1152.70 571.7137
1152.80 572.0274
1152.90 572.3412
1153.00 572.655
1153.10 572.9688
1153.20 573.2825
1153.30 573.5963
1153.40 573.9101
1153.50 574.2239
1153.60 574.5376
1153.70 574.8514
1153.80 575.1652
1153.90 575.479
1154.00 575.7927
1154.10 576.1065
1154.20 576.4203
1154.30 576.7341
1154.40 577.0479
1154.50 577.3616
1154.60 577.6754
1154.70 577.9892
1154.80 578.303
1154.90 578.6167
1155.00 578.9305
1155.10 579.2443
1155.20 579.5581
1155.30 579.8718
1155.40 580.1856
1155.50 580.3866
1155.60 580.1362
1155.70 579.8859
1155.80 579.6355
1155.90 579.3852
1156.00 579.1349
1156.10 578.8845
1156.20 578.6342
1156.30 578.3838
1156.40 578.1335
1156.50 577.8832
1156.60 577.6328
1156.70 577.3825
1156.80 577.1321
1156.90 576.8818
1157.00 576.6314
1157.10 576.3811
1157.20 576.1308
1157.30 575.8804
1157.40 575.6301
1157.50 575.3797
1157.60 575.1294
1157.70 574.8791
1157.80 574.6287
1157.90 574.3784
1158.00 574.128
1158.10 573.8777
1158.20 573.6274
1158.30 573.377
1158.40 573.1267
1158.50 572.8763
1158.60 572.626
1158.70 572.3756
1158.80 572.1253
1158.90 571.875
1159.00 571.6246
1159.10 571.3743
1159.20 571.1239
1159.30 570.8736
1159.40 570.6233
1159.50 570.3729
1159.60 570.1226
1159.70 569.8722
1159.80 569.5295
1159.90 569.1764
1160.00 568.8234
1160.10 568.4703
1160.20 568.1173
1160.30 567.7642
1160.40 567.4112
1160.50 567.0581
1160.60 566.7051
1160.70 566.352
1160.80 565.999
1160.90 565.6459
1161.00 565.2929
1161.10 564.9398
1161.20 564.5868
1161.30 564.2337
1161.40 563.8807
1161.50 563.5276
1161.60 563.1746
1161.70 562.8215
1161.80 562.4685
1161.90 562.1154
1162.00 561.7624
1162.10 561.4093
1162.20 561.0563
1162.30 560.7032
1162.40 560.3502
1162.50 559.9971
1162.60 559.6441
1162.70 559.291
1162.80 558.938
1162.90 558.5849
1163.00 558.2319
1163.10 557.8788
1163.20 557.5258
1163.30 557.1727
1163.40 556.8197
1163.50 556.4666
1163.60 556.1136
1163.70 555.7605
1163.80 555.4075
1163.90 555.0544
1164.00 554.6448
1164.10 554.1975
1164.20 553.7502
1164.30 553.3029
1164.40 552.8555
1164.50 552.4082
1164.60 551.9609
1164.70 551.5136
1164.80 551.0663
1164.90 550.619
1165.00 550.1717
1165.10 549.7243
1165.20 549.277
1165.30 548.8297
1165.40 548.3824
1165.50 547.9351
1165.60 547.4878
1165.70 547.0405
1165.80 546.5931
1165.90 546.1458
1166.00 545.6985
1166.10 545.2512
1166.20 544.8039
1166.30 544.3566
1166.40 543.9093
1166.50 543.4619
1166.60 543.0146
1166.70 542.5673
1166.80 542.12
1166.90 541.6727
1167.00 541.2254
1167.10 540.7781
1167.20 540.3307
1167.30 539.8834
1167.40 539.4361
1167.50 538.9888
1167.60 538.5415
1167.70 538.0942
1167.80 537.6469
1167.90 537.1995
1168.00 536.7522
1168.10 536.3049
1168.20 535.8343
1168.30 535.2703
1168.40 534.7063
1168.50 534.1423
1168.60 533.5784
1168.70 533.0144
1168.80 532.4504
1168.90 531.8865
1169.00 531.3225
1169.10 530.7585
1169.20 530.1945
1169.30 529.6306
1169.40 529.0666
1169.50 528.5026
1169.60 527.9386
1169.70 527.3747
1169.80 526.8107
1169.90 526.2467
1170.00 525.6827
1170.10 525.1188
1170.20 524.5548
1170.30 523.9908
1170.40 523.4269
1170.50 522.8629
1170.60 522.2989
1170.70 521.7349
1170.80 521.171
1170.90 520.607
1171.00 520.043
1171.10 519.479
1171.20 518.9151
1171.30 518.3511
1171.40 517.7871
1171.50 517.2232
1171.60 516.6592
1171.70 516.0952
1171.80 515.5312
1171.90 514.9673
1172.00 514.4033
1172.10 513.8393
1172.20 513.2753
1172.30 512.7114
1172.40 512.1474
1172.50 512.0733
1172.60 512.2091
1172.70 512.345
1172.80 512.4808
1172.90 512.6166
1173.00 512.7524
1173.10 512.8883
1173.20 513.0241
1173.30 513.1599
1173.40 513.2958
1173.50 513.4316
1173.60 513.5674
1173.70 513.7033
1173.80 513.8391
1173.90 513.9749
1174.00 514.1108
1174.10 514.2466
1174.20 514.3824
1174.30 514.5183
1174.40 514.6541
1174.50 514.7899
1174.60 514.9257
1174.70 515.0616
1174.80 515.1974
1174.90 515.3332
1175.00 515.4691
1175.10 515.6049
1175.20 515.7407
1175.30 515.8766
1175.40 516.0124
1175.50 516.1482
1175.60 516.2841
1175.70 516.4199
1175.80 516.5557
1175.90 516.6916
1176.00 516.8274
1176.10 516.9632
1176.20 517.099
1176.30 517.2349
1176.40 517.3707
1176.50 517.5065
1176.60 517.6424
1176.70 517.7925
1176.80 518
1176.90 518.2074
1177.00 518.4149
1177.10 518.6223
1177.20 518.8298
1177.30 519.0372
1177.40 519.2447
1177.50 519.4521
1177.60 519.6596
1177.70 519.867
1177.80 520.0745
1177.90 520.2819
1178.00 520.4894
1178.10 520.6968
1178.20 520.9043
1178.30 521.1117
1178.40 521.3192
1178.50 521.5266
1178.60 521.7341
1178.70 521.9415
1178.80 522.149
1178.90 522.3564
1179.00 522.5639
1179.10 522.7713
1179.20 522.9788
1179.30 523.1862
1179.40 523.3937
1179.50 523.6011
1179.60 523.8086
1179.70 524.016
1179.80 524.2235
1179.90 524.4309
1180.00 524.6384
1180.10 524.8458
1180.20 525.0533
1180.30 525.2607
1180.40 525.4682
1180.50 525.6756
1180.60 525.8831
1180.70 526.0906
1180.80 526.298
1180.90 526.5055
1181.00 526.98
1181.10 527.6325
1181.20 528.285
1181.30 528.9376
1181.40 529.5901
1181.50 530.2427
1181.60 530.8952
1181.70 531.5477
1181.80 532.2003
1181.90 532.8528
1182.00 533.5054
1182.10 534.1579
1182.20 534.8104
1182.30 535.463
1182.40 536.1155
1182.50 536.7681
1182.60 537.4206
1182.70 538.0731
1182.80 538.7257
1182.90 539.3782
1183.00 540.0308
1183.10 540.6833
1183.20 541.3359
1183.30 541.9884
1183.40 542.6409
1183.50 543.2935
1183.60 543.946
1183.70 544.5986
1183.80 545.2511
1183.90 545.9036
1184.00 546.5562
1184.10 547.2087
1184.20 547.8613
1184.30 548.5138
1184.40 549.1663
1184.50 549.8189
1184.60 550.4714
1184.70 551.124
1184.80 551.7765
1184.90 552.429
1185.00 553.0816
1185.10 553.7341
1185.20 554.3867
1185.30 554.7416
1185.40 555.0966
1185.50 555.4516
1185.60 555.8065
1185.70 556.1615
1185.80 556.5165
1185.90 556.8714
1186.00 557.2264
1186.10 557.5814
1186.20 557.9363
1186.30 558.2913
1186.40 558.6463
1186.50 559.0012
1186.60 559.3562
1186.70 559.7112
1186.80 560.0661
1186.90 560.4211
1187.00 560.7761
1187.10 561.1311
1187.20 561.486
1187.30 561.841
1187.40 562.196
1187.50 562.5509
1187.60 562.9059
1187.70 563.2609
1187.80 563.6158
1187.90 563.9708
1188.00 564.3258
1188.10 564.6807
1188.20 565.0357
1188.30 565.3907
1188.40 565.7456
1188.50 566.1006
1188.60 566.4556
1188.70 566.8105
1188.80 567.1655
1188.90 567.5205
1189.00 567.8754
1189.10 568.2304
1189.20 568.5854
1189.30 568.9403
1189.40 569.2953
1189.50 569.2697
1189.60 568.6732
1189.70 568.0766
1189.80 567.4801
1189.90 566.8836
1190.00 566.2871
1190.10 565.6906
1190.20 565.0941
1190.30 564.4975
1190.40 563.901
1190.50 563.3045
1190.60 562.708
1190.70 562.1115
1190.80 561.515
1190.90 560.9184
1191.00 560.3219
1191.10 559.7254
1191.20 559.1289
1191.30 558.5324
1191.40 557.9359
1191.50 557.3393
1191.60 556.7428
1191.70 556.1463
1191.80 555.5498
1191.90 554.9533
1192.00 554.3568
1192.10 553.7603
1192.20 553.1637
1192.30 552.5672
1192.40 551.9707
1192.50 551.3742
1192.60 550.7777
1192.70 550.1812
1192.80 549.5846
1192.90 548.9881
1193.00 548.3916
1193.10 547.7951
1193.20 547.1986
1193.30 546.6021
1193.40 546.0055
1193.50 545.409
1193.60 544.8125
1193.70 544.216
1193.80 543.7205
1193.90 543.2684
1194.00 542.8162
1194.10 542.3641
1194.20 541.9119
1194.30 541.4598
1194.40 541.0076
1194.50 540.5555
1194.60 540.1033
1194.70 539.6512
1194.80 539.199
1194.90 538.7469
1195.00 538.2947
1195.10 537.8426
1195.20 537.3905
1195.30 536.9383
1195.40 536.4862
1195.50 536.034
1195.60 535.5819
1195.70 535.1297
1195.80 534.6776
1195.90 534.2254
1196.00 533.7733
1196.10 533.3211
1196.20 532.869
1196.30 532.4168
1196.40 531.9647
1196.50 531.5125
1196.60 531.0604
1196.70 530.6082
1196.80 530.1561
1196.90 529.7039
1197.00 529.2518
1197.10 528.7996
1197.20 528.3475
1197.30 527.8953
1197.40 527.4432
1197.50 526.991
1197.60 526.5389
1197.70 526.0867
1197.80 525.6346
1197.90 525.1824
1198.00 524.7303
1198.10 524.8602
1198.20 525.0549
1198.30 525.2495
1198.40 525.4441
1198.50 525.6387
1198.60 525.8334
1198.70 526.028
1198.80 526.2226
1198.90 526.4172
1199.00 526.6118
1199.10 526.8065
1199.20 527.0011
1199.30 527.1957
1199.40 527.3903
1199.50 527.5849
1199.60 527.7796
1199.70 527.9742
1199.80 528.1688
1199.90 528.3634
1200.00 528.558
1200.10 528.7527
1200.20 528.9473
1200.30 529.1419
1200.40 529.3365
1200.50 529.5312
1200.60 529.7258
1200.70 529.9204
1200.80 530.115
1200.90 530.3096
1201.00 530.5043
1201.10 530.6989
1201.20 530.8935
1201.30 531.0881
1201.40 531.2827
1201.50 531.4774
1201.60 531.672
1201.70 531.8666
1201.80 532.0612
1201.90 532.2559
1202.00 532.4505
1202.10 532.6451
1202.20 532.8397
1202.30 533.064
1202.40 533.5557
1202.50 534.0473
1202.60 534.5389
1202.70 535.0306
1202.80 535.5222
1202.90 536.0138
1203.00 536.5055
1203.10 536.9971
1203.20 537.4887
1203.30 537.9804
1203.40 538.472
1203.50 538.9637
1203.60 539.4553
1203.70 539.9469
1203.80 540.4386
1203.90 540.9302
1204.00 541.4218
1204.10 541.9135
1204.20 542.4051
1204.30 542.8967
1204.40 543.3884
1204.50 543.88
1204.60 544.3716
1204.70 544.8633
1204.80 545.3549
1204.90 545.8465
1205.00 546.3382
1205.10 546.8298
1205.20 547.3214
1205.30 547.8131
1205.40 548.3047
1205.50 548.7963
1205.60 549.288
1205.70 549.7796
1205.80 550.2712
1205.90 550.7629
1206.00 551.2545
1206.10 551.7462
1206.20 552.2378
1206.30 552.7294
1206.40 553.2211
1206.50 553.7127
1206.60 554.2488
1206.70 554.8885
1206.80 555.5283
1206.90 556.1681
1207.00 556.8078
1207.10 557.4476
1207.20 558.0874
1207.30 558.7272
1207.40 559.3669
1207.50 560.0067
1207.60 560.6465
1207.70 561.2862
1207.80 561.926
1207.90 562.5658
1208.00 563.2055
1208.10 563.8453
1208.20 564.4851
1208.30 565.1249
1208.40 565.7646
1208.50 566.4044
1208.60 567.0442
1208.70 567.6839
1208.80 568.3237
1208.90 568.9635
1209.00 569.6032
1209.10 570.243
1209.20 570.8828
1209.30 571.5226
1209.40 572.1623
1209.50 572.8021
1209.60 573.4419
1209.70 574.0816
1209.80 574.7214
1209.90 575.3612
1210.00 576.001
1210.10 576.6407
1210.20 577.2805
1210.30 577.9203
1210.40 578.56
1210.50 579.1998
1210.60 579.8396
1210.70 580.4793
1210.80 581.1191
1210.90 581.6514
1211.00 582.0763
1211.10 582.5012
1211.20 582.9261
1211.30 583.3509
1211.40 583.7758
1211.50 584.2007
1211.60 584.6255
1211.70 585.0504
1211.80 585.4753
1211.90 585.9002
1212.00 586.325
1212.10 586.7499
1212.20 587.1748
1212.30 587.5997
1212.40 588.0245
1212.50 588.4494
1212.60 588.8743
1212.70 589.2991
1212.80 589.724
1212.90 590.1489
1213.00 590.5738
1213.10 590.9986
1213.20 591.4235
1213.30 591.8484
1213.40 592.2733
1213.50 592.6981
1213.60 593.123
1213.70 593.5479
1213.80 593.9727
1213.90 594.3976
1214.00 594.8225
1214.10 595.2474
1214.20 595.6722
1214.30 596.0971
1214.40 596.522
1214.50 596.9468
1214.60 597.3717
1214.70 597.7966
1214.80 598.2215
1214.90 598.6463
1215.00 599.0712
1215.10 599.4961
1215.20 600.013
1215.30 600.5914
1215.40 601.1697
1215.50 601.7481
1215.60 602.3264
1215.70 602.9047
1215.80 603.4831
1215.90 604.0614
1216.00 604.6398
1216.10 605.2181
1216.20 605.7964
1216.30 606.3748
1216.40 606.9531
1216.50 607.5315
1216.60 608.1098
1216.70 608.6882
1216.80 609.2665
1216.90 609.8448
1217.00 610.4232
1217.10 611.0015
1217.20 611.5799
1217.30 612.1582
1217.40 612.7365
1217.50 613.3149
1217.60 613.8932
1217.70 614.4716
1217.80 615.0499
1217.90 615.6282
1218.00 616.2066
1218.10 616.7849
1218.20 617.3633
1218.30 617.9416
1218.40 618.52
1218.50 619.0983
1218.60 619.6766
1218.70 620.255
1218.80 620.8333
1218.90 621.4117
1219.00 621.99
1219.10 622.5683
1219.20 623.1467
1219.30 623.725
1219.40 624.3034
1219.50 624.7819
1219.60 625.2177
1219.70 625.6535
1219.80 626.0892
1219.90 626.525
1220.00 626.9608
1220.10 627.3966
1220.20 627.8324
1220.30 628.2681
1220.40 628.7039
1220.50 629.1397
1220.60 629.5755
1220.70 630.0112
1220.80 630.447
1220.90 630.8828
1221.00 631.3186
1221.10 631.7543
1221.20 632.1901
1221.30 632.6259
1221.40 633.0617
1221.50 633.4975
1221.60 633.9332
1221.70 634.369
1221.80 634.8048
1221.90 635.2406
1222.00 635.6763
1222.10 636.1121
1222.20 636.5479
1222.30 636.9837
1222.40 637.4195
1222.50 637.8552
1222.60 638.291
1222.70 638.7268
1222.80 639.1626
1222.90 639.5983
1223.00 640.0341
1223.10 640.4699
1223.20 640.9057
1223.30 641.3415
1223.40 641.7772
1223.50 642.213
1223.60 642.6488
1223.70 643.0846
1223.80 643.2356
1223.90 643.2645
1224.00 643.2935
1224.10 643.3224
1224.20 643.3514
1224.30 643.3803
1224.40 643.4093
1224.50 643.4382
1224.60 643.4672
1224.70 643.4962
1224.80 643.5251
1224.90 643.5541
1225.00 643.583
1225.10 643.612
1225.20 643.6409
1225.30 643.6699
1225.40 643.6988
1225.50 643.7278
1225.60 643.7568
1225.70 643.7857
1225.80 643.8147
1225.90 643.8436
1226.00 643.8726
1226.10 643.9015
1226.20 643.9305
1226.30 643.9594
1226.40 643.9884
1226.50 644.0173
1226.60 644.0463
1226.70 644.0753
1226.80 644.1042
1226.90 644.1332
1227.00 644.1621
1227.10 644.1911
1227.20 644.22
1227.30 644.249
1227.40 644.2779
1227.50 644.3069
1227.60 644.3359
1227.70 644.3648
1227.80 644.3938
1227.90 644.4227
1228.00 644.4517
1228.10 644.4169
1228.20 644.3662
1228.30 644.3154
1228.40 644.2647
1228.50 644.214
1228.60 644.1633
1228.70 644.1126
1228.80 644.0618
1228.90 644.0111
1229.00 643.9604
1229.10 643.9097
1229.20 643.859
1229.30 643.8082
1229.40 643.7575
1229.50 643.7068
1229.60 643.6561
1229.70 643.6054
1229.80 643.5546
1229.90 643.5039
1230.00 643.4532
1230.10 643.4025
1230.20 643.3518
1230.30 643.301
1230.40 643.2503
1230.50 643.1996
1230.60 643.1489
1230.70 643.0982
1230.80 643.0474
1230.90 642.9967
1231.00 642.946
1231.10 642.8953
1231.20 642.8445
1231.30 642.7938
1231.40 642.7431
1231.50 642.6924
1231.60 642.6417
1231.70 642.5909
1231.80 642.5402
1231.90 642.4895
1232.00 642.4388
1232.10 642.3881
1232.20 642.3373
1232.30 642.2866
1232.40 641.6324
1232.50 640.8274
1232.60 640.0223
1232.70 639.2172
1232.80 638.4122
1232.90 637.6071
1233.00 636.802
1233.10 635.997
1233.20 635.1919
1233.30 634.3869
1233.40 633.5818
1233.50 632.7767
1233.60 631.9717
1233.70 631.1666
1233.80 630.3615
1233.90 629.5565
1234.00 628.7514
1234.10 627.9463
1234.20 627.1413
1234.30 626.3362
1234.40 625.5312
1234.50 624.7261
1234.60 623.921
1234.70 623.116
1234.80 622.3109
1234.90 621.5058
1235.00 620.7008
1235.10 619.8957
1235.20 619.0906
1235.30 618.2856
1235.40 617.4805
1235.50 616.6755
1235.60 615.8704
1235.70 615.0653
1235.80 614.2603
1235.90 613.4552
1236.00 612.6501
1236.10 611.8451
1236.20 611.04
1236.30 610.2349
1236.40 609.4299
1236.50 608.6248
1236.60 607.8198
1236.70 607.3691
1236.80 607.0704
1236.90 606.7717
1237.00 606.473
1237.10 606.1743
1237.20 605.8756
1237.30 605.5769
1237.40 605.2782
1237.50 604.9795
1237.60 604.6807
1237.70 604.382
1237.80 604.0833
1237.90 603.7846
1238.00 603.4859
1238.10 603.1872
1238.20 602.8885
1238.30 602.5898
1238.40 602.2911
1238.50 601.9923
1238.60 601.6936
1238.70 601.3949
1238.80 601.0962
1238.90 600.7975
1239.00 600.4988
1239.10 600.2001
1239.20 599.9014
1239.30 599.6027
1239.40 599.3039
1239.50 599.0052
1239.60 598.7065
1239.70 598.4078
1239.80 598.1091
1239.90 597.8104
1240.00 597.5117
1240.10 597.213
1240.20 596.9143
1240.30 596.6156
1240.40 596.3168
1240.50 596.0181
1240.60 595.7194
1240.70 595.4207
1240.80 595.122
1240.90 594.8233
1241.00 594.5028
1241.10 594.1729
1241.20 593.843
1241.30 593.5131
1241.40 593.1832
1241.50 592.8533
1241.60 592.5234
1241.70 592.1935
1241.80 591.8636
1241.90 591.5337
1242.00 591.2038
1242.10 590.8739
1242.20 590.544
1242.30 590.2141
1242.40 589.8843
1242.50 589.5544
1242.60 589.2245
1242.70 588.8946
1242.80 588.5647
1242.90 588.2348
1243.00 587.9049
1243.10 587.575
1243.20 587.2451
1243.30 586.9152
1243.40 586.5853
1243.50 586.2554
1243.60 585.9255
1243.70 585.5957
1243.80 585.2658
1243.90 584.9359
1244.00 584.606
1244.10 584.2761
1244.20 583.9462
1244.30 583.6163
1244.40 583.2864
1244.50 582.9565
1244.60 582.6266
1244.70 582.2967
1244.80 581.9668
1244.90 581.6369
1245.00 581.3071
1245.10 580.9772
1245.20 580.6473
1245.30 580.8986
1245.40 581.5374
1245.50 582.1763
1245.60 582.8151
1245.70 583.4539
1245.80 584.0927
1245.90 584.7316
1246.00 585.3704
1246.10 586.0092
1246.20 586.6481
1246.30 587.2869
1246.40 587.9257
1246.50 588.5645
1246.60 589.2034
1246.70 589.8422
1246.80 590.481
1246.90 591.1199
1247.00 591.7587
1247.10 592.3975
1247.20 593.0363
1247.30 593.6752
1247.40 594.314
1247.50 594.9528
1247.60 595.5916
1247.70 596.2305
1247.80 596.8693
1247.90 597.5081
1248.00 598.147
1248.10 598.7858
1248.20 599.4246
1248.30 600.0634
1248.40 600.7023
1248.50 601.3411
1248.60 601.9799
1248.70 602.6187
1248.80 603.2576
1248.90 603.8964
1249.00 604.5352
1249.10 605.1741
1249.20 605.8129
1249.30 606.4517
1249.40 607.0905
1249.50 607.7294
1249.60 608.3293
1249.70 608.8903
1249.80 609.4514
1249.90 610.0124
1250.00 610.5734
1250.10 611.1345
1250.20 611.6955
1250.30 612.2565
1250.40 612.8176
1250.50 613.3786
1250.60 613.9397
1250.70 614.5007
1250.80 615.0617
1250.90 615.6228
1251.00 616.1838
1251.10 616.7448
1251.20 617.3059
1251.30 617.8669
1251.40 618.428
1251.50 618.989
1251.60 619.55
1251.70 620.1111
1251.80 620.6721
1251.90 621.2331
1252.00 621.7942
1252.10 622.3552
1252.20 622.9162
1252.30 623.4773
1252.40 624.0383
1252.50 624.5994
1252.60 625.1604
1252.70 625.7214
1252.80 626.2825
1252.90 626.8435
1253.00 627.4045
1253.10 627.9656
1253.20 628.5266
1253.30 629.0876
1253.40 629.6487
1253.50 630.2097
1253.60 630.7708
1253.70 631.3318
1253.80 631.8928
1253.90 632.6
1254.00 633.5263
1254.10 634.4526
1254.20 635.3789
1254.30 636.3051
1254.40 637.2314
1254.50 638.1577
1254.60 639.084
1254.70 640.0103
1254.80 640.9366
1254.90 641.8629
1255.00 642.7892
1255.10 643.7155
1255.20 644.6418
1255.30 645.5681
1255.40 646.4944
1255.50 647.4207
1255.60 648.347
1255.70 649.2733
1255.80 650.1996
1255.90 651.1259
1256.00 652.0522
1256.10 652.9785
1256.20 653.9048
1256.30 654.8311
1256.40 655.7574
1256.50 656.6837
1256.60 657.61
1256.70 658.5363
1256.80 659.4626
1256.90 660.3889
1257.00 661.3151
1257.10 662.2414
1257.20 663.1677
1257.30 664.094
1257.40 665.0203
1257.50 665.9466
1257.60 666.8729
1257.70 667.7992
1257.80 668.7255
1257.90 669.6518
1258.00 670.5781
1258.10 671.5044
1258.20 672.1915
1258.30 672.3203
1258.40 672.4492
1258.50 672.5781
1258.60 672.7069
1258.70 672.8358
1258.80 672.9647
1258.90 673.0935
1259.00 673.2224
1259.10 673.3513
1259.20 673.4802
1259.30 673.609
1259.40 673.7379
1259.50 673.8668
1259.60 673.9956
1259.70 674.1245
1259.80 674.2534
1259.90 674.3822
1260.00 674.5111
1260.10 674.64
1260.20 674.7688
1260.30 674.8977
1260.40 675.0266
1260.50 675.1554
1260.60 675.2843
1260.70 675.4132
1260.80 675.542
1260.90 675.6709
1261.00 675.7998
1261.10 675.9286
1261.20 676.0575
1261.30 676.1864
1261.40 676.3152
1261.50 676.4441
1261.60 676.573
1261.70 676.7018
1261.80 676.8307
1261.90 676.9596
1262.00 677.0884
1262.10 677.2173
1262.20 677.3462
1262.30 677.4751
1262.40 677.6039
1262.50 677.8803
1262.60 678.7468
1262.70 679.6133
1262.80 680.4798
1262.90 681.3463
1263.00 682.2127
1263.10 683.0792
1263.20 683.9457
1263.30 684.8122
1263.40 685.6787
1263.50 686.5452
1263.60 687.4117
1263.70 688.2782
1263.80 689.1446
1263.90 690.0111
1264.00 690.8776
1264.10 691.7441
1264.20 692.6106
1264.30 693.4771
1264.40 694.3436
1264.50 695.21
1264.60 696.0765
1264.70 696.943
1264.80 697.8095
1264.90 698.676
1265.00 699.5425
1265.10 700.409
1265.20 701.2755
1265.30 702.1419
1265.40 703.0084
1265.50 703.8749
1265.60 704.7414
1265.70 705.6079
1265.80 706.4744
1265.90 707.3409
1266.00 708.2073
1266.10 709.0738
1266.20 709.9403
1266.30 710.8068
1266.40 711.6733
1266.50 712.5398
1266.60 713.4063
1266.70 714.2728
1266.80 715.1392
1266.90 714.6136
1267.00 714.088
1267.10 713.5624
1267.20 713.0368
1267.30 712.5112
1267.40 711.9856
1267.50 711.46
1267.60 710.9344
1267.70 710.4089
1267.80 709.8833
1267.90 709.3577
1268.00 708.8321
1268.10 708.3065
1268.20 707.7809
1268.30 707.2553
1268.40 706.7297
1268.50 706.2041
1268.60 705.6785
1268.70 705.1529
1268.80 704.6273
1268.90 704.1017
1269.00 703.5761
1269.10 703.0505
1269.20 702.5249
1269.30 701.9993
1269.40 701.4737
1269.50 700.9481
1269.60 700.4225
1269.70 699.8969
1269.80 699.3713
1269.90 698.8457
1270.00 698.3201
1270.10 697.7945
1270.20 697.2689
1270.30 696.7433
1270.40 696.2177
1270.50 695.6921
1270.60 695.1665
1270.70 694.6409
1270.80 694.1153
1270.90 693.5897
1271.00 693.0641
1271.10 692.5385
1271.20 693.0093
1271.30 693.5908
1271.40 694.1723
1271.50 694.7538
1271.60 695.3353
1271.70 695.9168
1271.80 696.4983
1271.90 697.0798
1272.00 697.6613
1272.10 698.2428
1272.20 698.8243
1272.30 699.4058
1272.40 699.9873
1272.50 700.5689
1272.60 701.1504
1272.70 701.7319
1272.80 702.3134
1272.90 702.8949
1273.00 703.4764
1273.10 704.0579
1273.20 704.6394
1273.30 705.2209
1273.40 705.8024
1273.50 706.3839
1273.60 706.9654
1273.70 707.5469
1273.80 708.1284
1273.90 708.7099
1274.00 709.2914
1274.10 709.8729
1274.20 710.4544
1274.30 711.0359
1274.40 711.6174
1274.50 712.1989
1274.60 712.7804
1274.70 713.3619
1274.80 713.9435
1274.90 714.525
1275.00 715.1065
1275.10 715.688
1275.20 716.2695
1275.30 716.851
1275.40 717.4325
1275.50 717.6164
1275.60 717.63
1275.70 717.6436
1275.80 717.6571
1275.90 717.6707
1276.00 717.6843
1276.10 717.6978
1276.20 717.7114
1276.30 717.725
1276.40 717.7385
1276.50 717.7521
1276.60 717.7657
1276.70 717.7792
1276.80 717.7928
1276.90 717.8064
1277.00 717.8199
1277.10 717.8335
1277.20 717.8471
1277.30 717.8606
1277.40 717.8742
1277.50 717.8878
1277.60 717.9014
1277.70 717.9149
1277.80 717.9285
1277.90 717.9421
1278.00 717.9556
1278.10 717.9692
1278.20 717.9828
1278.30 717.9963
1278.40 718.0099
1278.50 718.0235
1278.60 718.037
1278.70 718.0506
1278.80 718.0642
1278.90 718.0777
1279.00 718.0913
1279.10 718.1049
1279.20 718.1184
1279.30 718.132
1279.40 718.1456
1279.50 718.1591
1279.60 718.1727
1279.70 718.1863
1279.80 718.2273
1279.90 718.2865
1280.00 718.3458
1280.10 718.405
1280.20 718.4643
1280.30 718.5236
1280.40 718.5828
1280.50 718.6421
1280.60 718.7013
1280.70 718.7606
1280.80 718.8198
1280.90 718.8791
1281.00 718.9384
1281.10 718.9976
1281.20 719.0569
1281.30 719.1161
1281.40 719.1754
1281.50 719.2347
1281.60 719.2939
1281.70 719.3532
1281.80 719.4124
1281.90 719.4717
1282.00 719.531
1282.10 719.5902
1282.20 719.6495
1282.30 719.7087
1282.40 719.768
1282.50 719.8272
1282.60 719.8865
1282.70 719.9458
1282.80 720.005
1282.90 720.0643
1283.00 720.1235
1283.10 720.1828
1283.20 720.2421
1283.30 720.3013
1283.40 720.3606
1283.50 720.4198
1283.60 720.4791
1283.70 720.5384
1283.80 720.5976
1283.90 720.6569
1284.00 720.7161
1284.10 720.9052
1284.20 721.289
1284.30 721.6727
1284.40 722.0565
1284.50 722.4403
1284.60 722.824
1284.70 723.2078
1284.80 723.5915
1284.90 723.9753
1285.00 724.3591
1285.10 724.7428
1285.20 725.1266
1285.30 725.5104
1285.40 725.8941
1285.50 726.2779
1285.60 726.6617
1285.70 727.0454
1285.80 727.4292
1285.90 727.813
1286.00 728.1967
1286.10 728.5805
1286.20 728.9643
1286.30 729.348
1286.40 729.7318
1286.50 730.1155
1286.60 730.4993
1286.70 730.8831
1286.80 731.2668
1286.90 731.6506
1287.00 732.0344
1287.10 732.4181
1287.20 732.8019
1287.30 733.1857
1287.40 733.5694
1287.50 733.9532
1287.60 734.337
1287.70 734.7207
1287.80 735.1045
1287.90 735.4882
1288.00 735.872
1288.10 736.2558
1288.20 736.6395
1288.30 737.0233
1288.40 737.3689
1288.50 737.5618
1288.60 737.7547
1288.70 737.9476
1288.80 738.1405
1288.90 738.3333
1289.00 738.5262
1289.10 738.7191
1289.20 738.912
1289.30 739.1049
1289.40 739.2978
1289.50 739.4907
1289.60 739.6836
1289.70 739.8765
1289.80 740.0693
1289.90 740.2622
1290.00 740.4551
1290.10 740.648
1290.20 740.8409
1290.30 741.0338
1290.40 741.2267
1290.50 741.4196
1290.60 741.6125
1290.70 741.8053
1290.80 741.9982
1290.90 742.1911
1291.00 742.384
1291.10 742.5769
1291.20 742.7698
1291.30 742.9627
1291.40 743.1556
1291.50 743.3485
1291.60 743.5414
1291.70 743.7342
1291.80 743.9271
1291.90 744.12
1292.00 744.3129
1292.10 744.5058
1292.20 744.6987
1292.30 744.8916
1292.40 745.0845
1292.50 745.2774
1292.60 745.4702
1292.70 745.6631
1292.80 745.7658
1292.90 745.8684
1293.00 745.9711
1293.10 746.0737
1293.20 746.1764
1293.30 746.279
1293.40 746.3817
1293.50 746.4844
1293.60 746.587
1293.70 746.6897
1293.80 746.7923
1293.90 746.895
1294.00 746.9976
1294.10 747.1003
1294.20 747.2029
1294.30 747.3056
1294.40 747.4082
1294.50 747.5109
1294.60 747.6135
1294.70 747.7162
1294.80 747.8188
1294.90 747.9215
1295.00 748.0241
1295.10 748.1268
1295.20 748.2294
1295.30 748.3321
1295.40 748.4347
1295.50 748.5374
1295.60 748.6401
1295.70 748.7427
1295.80 748.8454
1295.90 748.948
1296.00 749.0507
1296.10 749.1533
1296.20 749.256
1296.30 749.3586
1296.40 749.4613
1296.50 749.5639
1296.60 749.6666
1296.70 749.7692
1296.80 749.8719
1296.90 749.9745
1297.00 750.0772
1297.10 749.937
1297.20 749.736
1297.30 749.535
1297.40 749.3341
1297.50 749.1331
1297.60 748.9322
1297.70 748.7312
1297.80 748.5303
1297.90 748.3293
1298.00 748.1284
1298.10 747.9274
1298.20 747.7265
1298.30 747.5255
1298.40 747.3245
1298.50 747.1236
1298.60 746.9226
1298.70 746.7217
1298.80 746.5207
1298.90 746.3198
1299.00 746.1188
1299.10 745.9179
1299.20 745.7169
1299.30 745.516
1299.40 745.315
1299.50 745.114
1299.60 744.9131
1299.70 744.7121
1299.80 744.5112
1299.90 744.3102
