# Version 2.1 - nm, norm@500 to 1, cut digits
# Wavelength(nm)  Flambda(ergs/cm^s/s/nm)
300.00 2.535784e-95
300.10 2.535784e-95
300.20 2.535784e-95
300.30 2.535784e-95
300.40 2.535784e-95
300.50 2.535784e-95
300.60 2.535784e-95
300.70 2.535784e-95
300.80 2.535784e-95
300.90 2.535784e-95
301.00 2.535784e-95
301.10 2.535784e-95
301.20 2.535784e-95
301.30 2.535784e-95
301.40 2.535784e-95
301.50 2.535784e-95
301.60 2.535784e-95
301.70 2.535784e-95
301.80 2.535784e-95
301.90 2.535784e-95
302.00 2.535784e-95
302.10 2.535784e-95
302.20 2.535784e-95
302.30 2.535784e-95
302.40 2.535784e-95
302.50 2.535784e-95
302.60 2.535784e-95
302.70 2.535784e-95
302.80 2.535784e-95
302.90 2.535784e-95
303.00 2.535784e-95
303.10 2.535784e-95
303.20 2.535784e-95
303.30 2.535784e-95
303.40 2.535784e-95
303.50 2.535784e-95
303.60 2.535784e-95
303.70 2.535784e-95
303.80 2.535784e-95
303.90 2.535784e-95
304.00 2.535784e-95
304.10 2.535784e-95
304.20 2.535784e-95
304.30 2.535784e-95
304.40 2.535784e-95
304.50 2.535784e-95
304.60 2.535784e-95
304.70 2.535784e-95
304.80 2.535784e-95
304.90 2.535784e-95
305.00 2.535784e-95
305.10 2.535784e-95
305.20 2.535784e-95
305.30 2.535784e-95
305.40 2.535784e-95
305.50 2.535784e-95
305.60 2.535784e-95
305.70 2.535784e-95
305.80 2.535784e-95
305.90 2.535784e-95
306.00 2.535784e-95
306.10 2.535784e-95
306.20 2.535784e-95
306.30 2.535784e-95
306.40 2.535784e-95
306.50 2.535784e-95
306.60 2.535784e-95
306.70 2.535784e-95
306.80 2.535784e-95
306.90 2.535784e-95
307.00 2.535784e-95
307.10 2.535784e-95
307.20 2.535784e-95
307.30 2.535784e-95
307.40 2.535784e-95
307.50 2.535784e-95
307.60 2.535784e-95
307.70 2.535784e-95
307.80 2.535784e-95
307.90 2.535784e-95
308.00 2.535784e-95
308.10 2.535784e-95
308.20 2.535784e-95
308.30 2.535784e-95
308.40 2.535784e-95
308.50 2.535784e-95
308.60 2.535784e-95
308.70 2.535784e-95
308.80 2.535784e-95
308.90 2.535784e-95
309.00 2.535784e-95
309.10 2.535784e-95
309.20 2.535784e-95
309.30 2.535784e-95
309.40 2.535784e-95
309.50 2.535784e-95
309.60 2.535784e-95
309.70 2.535784e-95
309.80 2.535784e-95
309.90 2.535784e-95
310.00 2.535784e-95
310.10 2.535784e-95
310.20 2.535784e-95
310.30 2.535784e-95
310.40 2.535784e-95
310.50 2.535784e-95
310.60 2.535784e-95
310.70 2.535784e-95
310.80 2.535784e-95
310.90 2.535784e-95
311.00 2.535784e-95
311.10 2.535784e-95
311.20 2.535784e-95
311.30 2.535784e-95
311.40 2.535784e-95
311.50 2.535784e-95
311.60 2.535784e-95
311.70 2.535784e-95
311.80 2.535784e-95
311.90 2.535784e-95
312.00 2.535784e-95
312.10 2.535784e-95
312.20 2.535784e-95
312.30 2.535784e-95
312.40 2.535784e-95
312.50 2.535784e-95
312.60 2.535784e-95
312.70 2.535784e-95
312.80 2.535784e-95
312.90 2.535784e-95
313.00 2.535784e-95
313.10 2.535784e-95
313.20 2.535784e-95
313.30 2.535784e-95
313.40 2.535784e-95
313.50 2.535784e-95
313.60 2.535784e-95
313.70 2.535784e-95
313.80 2.535784e-95
313.90 2.535784e-95
314.00 2.535784e-95
314.10 2.535784e-95
314.20 2.535784e-95
314.30 2.535784e-95
314.40 2.535784e-95
314.50 2.535784e-95
314.60 2.535784e-95
314.70 2.535784e-95
314.80 2.535784e-95
314.90 2.535784e-95
315.00 2.535784e-95
315.10 2.535784e-95
315.20 2.535784e-95
315.30 2.535784e-95
315.40 2.535784e-95
315.50 2.535784e-95
315.60 2.535784e-95
315.70 2.535784e-95
315.80 2.535784e-95
315.90 2.535784e-95
316.00 2.535784e-95
316.10 2.535784e-95
316.20 2.535784e-95
316.30 2.535784e-95
316.40 2.535784e-95
316.50 2.535784e-95
316.60 2.535784e-95
316.70 2.535784e-95
316.80 2.535784e-95
316.90 2.535784e-95
317.00 2.535784e-95
317.10 2.535784e-95
317.20 2.535784e-95
317.30 2.535784e-95
317.40 2.535784e-95
317.50 2.535784e-95
317.60 2.535784e-95
317.70 2.535784e-95
317.80 2.535784e-95
317.90 2.535784e-95
318.00 2.535784e-95
318.10 2.535784e-95
318.20 2.535784e-95
318.30 2.535784e-95
318.40 2.535784e-95
318.50 2.535784e-95
318.60 2.535784e-95
318.70 2.535784e-95
318.80 2.535784e-95
318.90 2.535784e-95
319.00 2.535784e-95
319.10 2.535784e-95
319.20 2.535784e-95
319.30 2.535784e-95
319.40 2.535784e-95
319.50 2.535784e-95
319.60 2.535784e-95
319.70 2.535784e-95
319.80 2.535784e-95
319.90 2.535784e-95
320.00 2.535784e-95
320.10 2.535784e-95
320.20 2.535784e-95
320.30 2.535784e-95
320.40 2.535784e-95
320.50 2.535784e-95
320.60 2.535784e-95
320.70 2.535784e-95
320.80 2.535784e-95
320.90 2.535784e-95
321.00 2.535784e-95
321.10 2.535784e-95
321.20 2.535784e-95
321.30 2.535784e-95
321.40 2.535784e-95
321.50 2.535784e-95
321.60 2.535784e-95
321.70 2.535784e-95
321.80 2.535784e-95
321.90 2.535784e-95
322.00 2.535784e-95
322.10 2.535784e-95
322.20 2.535784e-95
322.30 2.535784e-95
322.40 2.535784e-95
322.50 2.535784e-95
322.60 2.535784e-95
322.70 2.535784e-95
322.80 2.535784e-95
322.90 2.535784e-95
323.00 2.535784e-95
323.10 2.535784e-95
323.20 2.535784e-95
323.30 2.535784e-95
323.40 2.535784e-95
323.50 2.535784e-95
323.60 2.535784e-95
323.70 2.535784e-95
323.80 2.535784e-95
323.90 2.535784e-95
324.00 2.535784e-95
324.10 2.535784e-95
324.20 2.535784e-95
324.30 2.535784e-95
324.40 2.535784e-95
324.50 2.535784e-95
324.60 2.535784e-95
324.70 2.535784e-95
324.80 2.535784e-95
324.90 2.535784e-95
325.00 2.535784e-95
325.10 2.535784e-95
325.20 2.535784e-95
325.30 2.535784e-95
325.40 2.535784e-95
325.50 2.535784e-95
325.60 2.535784e-95
325.70 2.535784e-95
325.80 2.535784e-95
325.90 2.535784e-95
326.00 2.535784e-95
326.10 2.535784e-95
326.20 2.535784e-95
326.30 2.535784e-95
326.40 2.535784e-95
326.50 2.535784e-95
326.60 2.535784e-95
326.70 2.535784e-95
326.80 2.535784e-95
326.90 2.535784e-95
327.00 2.535784e-95
327.10 2.535784e-95
327.20 2.535784e-95
327.30 2.535784e-95
327.40 2.535784e-95
327.50 2.535784e-95
327.60 2.535784e-95
327.70 2.535784e-95
327.80 2.535784e-95
327.90 2.535784e-95
328.00 2.535784e-95
328.10 2.535784e-95
328.20 2.535784e-95
328.30 2.535784e-95
328.40 2.535784e-95
328.50 2.535784e-95
328.60 2.535784e-95
328.70 2.535784e-95
328.80 2.535784e-95
328.90 2.535784e-95
329.00 2.535784e-95
329.10 2.535784e-95
329.20 2.535784e-95
329.30 2.535784e-95
329.40 2.535784e-95
329.50 2.535784e-95
329.60 2.535784e-95
329.70 2.535784e-95
329.80 2.535784e-95
329.90 2.535784e-95
330.00 2.535784e-95
330.10 2.535784e-95
330.20 2.535784e-95
330.30 2.535784e-95
330.40 2.535784e-95
330.50 2.535784e-95
330.60 2.535784e-95
330.70 2.535784e-95
330.80 2.535784e-95
330.90 2.535784e-95
331.00 2.535784e-95
331.10 2.535784e-95
331.20 2.535784e-95
331.30 2.535784e-95
331.40 2.535784e-95
331.50 2.535784e-95
331.60 2.535784e-95
331.70 2.535784e-95
331.80 2.535784e-95
331.90 2.535784e-95
332.00 2.535784e-95
332.10 2.535784e-95
332.20 2.535784e-95
332.30 2.535784e-95
332.40 2.535784e-95
332.50 2.535784e-95
332.60 2.535784e-95
332.70 2.535784e-95
332.80 2.535784e-95
332.90 2.535784e-95
333.00 2.535784e-95
333.10 2.535784e-95
333.20 2.535784e-95
333.30 2.535784e-95
333.40 2.535784e-95
333.50 2.535784e-95
333.60 2.535784e-95
333.70 2.535784e-95
333.80 2.535784e-95
333.90 2.535784e-95
334.00 2.535784e-95
334.10 2.535784e-95
334.20 2.535784e-95
334.30 2.535784e-95
334.40 2.535784e-95
334.50 2.535784e-95
334.60 2.535784e-95
334.70 2.535784e-95
334.80 2.535784e-95
334.90 2.535784e-95
335.00 2.535784e-95
335.10 2.535784e-95
335.20 2.535784e-95
335.30 2.535784e-95
335.40 2.535784e-95
335.50 2.535784e-95
335.60 2.535784e-95
335.70 2.535784e-95
335.80 2.535784e-95
335.90 2.535784e-95
336.00 2.535784e-95
336.10 2.535784e-95
336.20 2.535784e-95
336.30 2.535784e-95
336.40 2.535784e-95
336.50 2.535784e-95
336.60 2.535784e-95
336.70 2.535784e-95
336.80 2.535784e-95
336.90 2.535784e-95
337.00 2.535784e-95
337.10 2.535784e-95
337.20 2.535784e-95
337.30 2.535784e-95
337.40 2.535784e-95
337.50 2.535784e-95
337.60 2.535784e-95
337.70 2.535784e-95
337.80 2.535784e-95
337.90 2.535784e-95
338.00 2.535784e-95
338.10 2.535784e-95
338.20 2.535784e-95
338.30 2.535784e-95
338.40 2.535784e-95
338.50 2.535784e-95
338.60 2.535784e-95
338.70 2.535784e-95
338.80 2.535784e-95
338.90 2.535784e-95
339.00 2.535784e-95
339.10 2.535784e-95
339.20 2.535784e-95
339.30 2.535784e-95
339.40 2.535784e-95
339.50 2.535784e-95
339.60 2.535784e-95
339.70 2.535784e-95
339.80 2.535784e-95
339.90 2.535784e-95
340.00 2.535784e-95
340.10 2.535784e-95
340.20 2.535784e-95
340.30 2.535784e-95
340.40 2.535784e-95
340.50 2.535784e-95
340.60 2.535784e-95
340.70 2.535784e-95
340.80 2.535784e-95
340.90 2.535784e-95
341.00 2.535784e-95
341.10 2.535784e-95
341.20 2.535784e-95
341.30 2.535784e-95
341.40 2.535784e-95
341.50 2.535784e-95
341.60 2.535784e-95
341.70 2.535784e-95
341.80 2.535784e-95
341.90 2.535784e-95
342.00 2.535784e-95
342.10 2.535784e-95
342.20 2.535784e-95
342.30 2.535784e-95
342.40 2.535784e-95
342.50 2.535784e-95
342.60 2.535784e-95
342.70 2.535784e-95
342.80 2.535784e-95
342.90 2.535784e-95
343.00 2.535784e-95
343.10 2.535784e-95
343.20 2.535784e-95
343.30 2.535784e-95
343.40 2.535784e-95
343.50 2.535784e-95
343.60 2.535784e-95
343.70 2.535784e-95
343.80 2.535784e-95
343.90 2.535784e-95
344.00 2.535784e-95
344.10 2.535784e-95
344.20 2.535784e-95
344.30 2.535784e-95
344.40 2.535784e-95
344.50 2.535784e-95
344.60 2.535784e-95
344.70 2.535784e-95
344.80 2.535784e-95
344.90 2.535784e-95
345.00 2.535784e-95
345.10 2.535784e-95
345.20 2.535784e-95
345.30 2.535784e-95
345.40 2.535784e-95
345.50 2.535784e-95
345.60 2.535784e-95
345.70 2.535784e-95
345.80 2.535784e-95
345.90 2.535784e-95
346.00 2.535784e-95
346.10 2.535784e-95
346.20 2.535784e-95
346.30 2.535784e-95
346.40 2.535784e-95
346.50 2.535784e-95
346.60 2.535784e-95
346.70 2.535784e-95
346.80 2.535784e-95
346.90 2.535784e-95
347.00 2.535784e-95
347.10 2.535784e-95
347.20 2.535784e-95
347.30 2.535784e-95
347.40 2.535784e-95
347.50 2.535784e-95
347.60 2.535784e-95
347.70 2.535784e-95
347.80 2.535784e-95
347.90 2.535784e-95
348.00 2.535784e-95
348.10 2.535784e-95
348.20 2.535784e-95
348.30 2.535784e-95
348.40 2.535784e-95
348.50 2.535784e-95
348.60 2.535784e-95
348.70 2.535784e-95
348.80 2.535784e-95
348.90 2.535784e-95
349.00 2.535784e-95
349.10 2.535784e-95
349.20 2.535784e-95
349.30 2.535784e-95
349.40 2.535784e-95
349.50 2.535784e-95
349.60 2.535784e-95
349.70 2.535784e-95
349.80 2.535784e-95
349.90 2.535784e-95
350.00 2.535784e-95
350.10 2.535784e-95
350.20 2.535784e-95
350.30 2.535784e-95
350.40 2.535784e-95
350.50 2.535784e-95
350.60 2.535784e-95
350.70 2.535784e-95
350.80 2.535784e-95
350.90 2.535784e-95
351.00 2.535784e-95
351.10 2.535784e-95
351.20 2.535784e-95
351.30 2.535784e-95
351.40 2.535784e-95
351.50 2.535784e-95
351.60 2.535784e-95
351.70 2.535784e-95
351.80 2.535784e-95
351.90 2.535784e-95
352.00 2.535784e-95
352.10 2.535784e-95
352.20 2.535784e-95
352.30 2.535784e-95
352.40 2.535784e-95
352.50 2.535784e-95
352.60 2.535784e-95
352.70 2.535784e-95
352.80 2.535784e-95
352.90 2.535784e-95
353.00 2.535784e-95
353.10 2.535784e-95
353.20 2.535784e-95
353.30 2.535784e-95
353.40 2.535784e-95
353.50 2.535784e-95
353.60 2.535784e-95
353.70 2.535784e-95
353.80 2.535784e-95
353.90 2.535784e-95
354.00 2.535784e-95
354.10 2.535784e-95
354.20 2.535784e-95
354.30 2.535784e-95
354.40 2.535784e-95
354.50 2.535784e-95
354.60 2.535784e-95
354.70 2.535784e-95
354.80 2.535784e-95
354.90 2.535784e-95
355.00 2.535784e-95
355.10 2.535784e-95
355.20 2.535784e-95
355.30 2.535784e-95
355.40 2.535784e-95
355.50 2.535784e-95
355.60 2.535784e-95
355.70 2.535784e-95
355.80 2.535784e-95
355.90 2.535784e-95
356.00 2.535784e-95
356.10 2.535784e-95
356.20 2.535784e-95
356.30 2.535784e-95
356.40 2.535784e-95
356.50 2.535784e-95
356.60 2.535784e-95
356.70 2.535784e-95
356.80 2.535784e-95
356.90 2.535784e-95
357.00 2.535784e-95
357.10 2.535784e-95
357.20 2.535784e-95
357.30 2.535784e-95
357.40 2.535784e-95
357.50 2.535784e-95
357.60 2.535784e-95
357.70 2.535784e-95
357.80 2.535784e-95
357.90 2.535784e-95
358.00 2.535784e-95
358.10 2.535784e-95
358.20 2.535784e-95
358.30 2.535784e-95
358.40 2.535784e-95
358.50 2.535784e-95
358.60 2.535784e-95
358.70 2.535784e-95
358.80 2.535784e-95
358.90 2.535784e-95
359.00 2.535784e-95
359.10 2.535784e-95
359.20 2.535784e-95
359.30 2.535784e-95
359.40 2.535784e-95
359.50 2.535784e-95
359.60 2.535784e-95
359.70 2.535784e-95
359.80 2.535784e-95
359.90 2.535784e-95
360.00 2.535784e-95
360.10 2.535784e-95
360.20 2.535784e-95
360.30 2.535784e-95
360.40 2.535784e-95
360.50 2.535784e-95
360.60 2.535784e-95
360.70 2.535784e-95
360.80 2.535784e-95
360.90 2.535784e-95
361.00 2.535784e-95
361.10 2.535784e-95
361.20 2.535784e-95
361.30 2.535784e-95
361.40 2.535784e-95
361.50 2.535784e-95
361.60 2.535784e-95
361.70 2.535784e-95
361.80 2.535784e-95
361.90 2.535784e-95
362.00 2.535784e-95
362.10 2.535784e-95
362.20 2.535784e-95
362.30 2.535784e-95
362.40 2.535784e-95
362.50 2.535784e-95
362.60 2.535784e-95
362.70 2.535784e-95
362.80 2.535784e-95
362.90 2.535784e-95
363.00 2.535784e-95
363.10 2.535784e-95
363.20 2.535784e-95
363.30 2.535784e-95
363.40 2.535784e-95
363.50 2.535784e-95
363.60 2.535784e-95
363.70 2.535784e-95
363.80 2.535784e-95
363.90 2.535784e-95
364.00 2.535784e-95
364.10 2.535784e-95
364.20 2.535784e-95
364.30 2.535784e-95
364.40 2.535784e-95
364.50 2.535784e-95
364.60 2.535784e-95
364.70 2.535784e-95
364.80 2.535784e-95
364.90 2.535784e-95
365.00 2.535784e-95
365.10 2.535784e-95
365.20 2.535784e-95
365.30 2.535784e-95
365.40 2.535784e-95
365.50 2.535784e-95
365.60 2.535784e-95
365.70 2.535784e-95
365.80 2.535784e-95
365.90 2.535784e-95
366.00 2.535784e-95
366.10 2.535784e-95
366.20 2.535784e-95
366.30 2.535784e-95
366.40 2.535784e-95
366.50 2.535784e-95
366.60 2.535784e-95
366.70 2.535784e-95
366.80 2.535784e-95
366.90 2.535784e-95
367.00 2.535784e-95
367.10 2.535784e-95
367.20 2.535784e-95
367.30 2.535784e-95
367.40 2.535784e-95
367.50 2.535784e-95
367.60 2.535784e-95
367.70 2.535784e-95
367.80 2.535784e-95
367.90 2.535784e-95
368.00 2.535784e-95
368.10 2.535784e-95
368.20 2.535784e-95
368.30 2.535784e-95
368.40 2.535784e-95
368.50 2.535784e-95
368.60 2.535784e-95
368.70 2.535784e-95
368.80 2.535784e-95
368.90 2.535784e-95
369.00 2.535784e-95
369.10 2.535784e-95
369.20 2.535784e-95
369.30 2.535784e-95
369.40 2.535784e-95
369.50 2.535784e-95
369.60 2.535784e-95
369.70 2.535784e-95
369.80 2.535784e-95
369.90 2.535784e-95
370.00 2.535784e-95
370.10 2.535784e-95
370.20 2.535784e-95
370.30 2.535784e-95
370.40 2.535784e-95
370.50 2.535784e-95
370.60 2.535784e-95
370.70 2.535784e-95
370.80 2.535784e-95
370.90 2.535784e-95
371.00 2.535784e-95
371.10 2.535784e-95
371.20 2.535784e-95
371.30 2.535784e-95
371.40 2.535784e-95
371.50 2.535784e-95
371.60 2.535784e-95
371.70 2.535784e-95
371.80 2.535784e-95
371.90 2.535784e-95
372.00 2.535784e-95
372.10 2.535784e-95
372.20 2.535784e-95
372.30 2.535784e-95
372.40 2.535784e-95
372.50 2.535784e-95
372.60 2.535784e-95
372.70 2.535784e-95
372.80 2.535784e-95
372.90 2.535784e-95
373.00 2.535784e-95
373.10 2.535784e-95
373.20 2.535784e-95
373.30 2.535784e-95
373.40 2.535784e-95
373.50 2.535784e-95
373.60 2.535784e-95
373.70 2.535784e-95
373.80 2.535784e-95
373.90 2.535784e-95
374.00 2.535784e-95
374.10 2.535784e-95
374.20 2.535784e-95
374.30 2.535784e-95
374.40 2.535784e-95
374.50 2.535784e-95
374.60 2.535784e-95
374.70 2.535784e-95
374.80 2.535784e-95
374.90 2.535784e-95
375.00 2.535784e-95
375.10 2.535784e-95
375.20 2.535784e-95
375.30 2.535784e-95
375.40 2.535784e-95
375.50 2.535784e-95
375.60 2.535784e-95
375.70 2.535784e-95
375.80 2.535784e-95
375.90 2.535784e-95
376.00 2.535784e-95
376.10 2.535784e-95
376.20 2.535784e-95
376.30 2.535784e-95
376.40 2.535784e-95
376.50 2.535784e-95
376.60 2.535784e-95
376.70 2.535784e-95
376.80 2.535784e-95
376.90 2.535784e-95
377.00 2.535784e-95
377.10 2.535784e-95
377.20 2.535784e-95
377.30 2.535784e-95
377.40 2.535784e-95
377.50 2.535784e-95
377.60 2.535784e-95
377.70 2.535784e-95
377.80 2.535784e-95
377.90 2.535784e-95
378.00 2.535784e-95
378.10 2.535784e-95
378.20 2.535784e-95
378.30 2.535784e-95
378.40 2.535784e-95
378.50 2.535784e-95
378.60 2.535784e-95
378.70 2.535784e-95
378.80 2.535784e-95
378.90 2.535784e-95
379.00 2.535784e-95
379.10 2.535784e-95
379.20 2.535784e-95
379.30 2.535784e-95
379.40 2.535784e-95
379.50 2.535784e-95
379.60 2.535784e-95
379.70 2.535784e-95
379.80 2.535784e-95
379.90 2.535784e-95
380.00 2.535784e-95
380.10 2.535784e-95
380.20 2.535784e-95
380.30 2.535784e-95
380.40 2.535784e-95
380.50 2.535784e-95
380.60 2.535784e-95
380.70 2.535784e-95
380.80 2.535784e-95
380.90 2.535784e-95
381.00 2.535784e-95
381.10 2.535784e-95
381.20 2.535784e-95
381.30 2.535784e-95
381.40 2.535784e-95
381.50 2.535784e-95
381.60 2.535784e-95
381.70 2.535784e-95
381.80 2.535784e-95
381.90 2.535784e-95
382.00 2.535784e-95
382.10 2.535784e-95
382.20 2.535784e-95
382.30 2.535784e-95
382.40 2.535784e-95
382.50 2.535784e-95
382.60 2.535784e-95
382.70 2.535784e-95
382.80 2.535784e-95
382.90 2.535784e-95
383.00 2.535784e-95
383.10 2.535784e-95
383.20 2.535784e-95
383.30 2.535784e-95
383.40 2.535784e-95
383.50 2.535784e-95
383.60 2.535784e-95
383.70 2.535784e-95
383.80 2.535784e-95
383.90 2.535784e-95
384.00 2.535784e-95
384.10 2.535784e-95
384.20 2.535784e-95
384.30 2.535784e-95
384.40 2.535784e-95
384.50 2.535784e-95
384.60 2.535784e-95
384.70 2.535784e-95
384.80 2.535784e-95
384.90 2.535784e-95
385.00 2.535784e-95
385.10 2.535784e-95
385.20 2.535784e-95
385.30 2.535784e-95
385.40 2.535784e-95
385.50 2.535784e-95
385.60 2.535784e-95
385.70 2.535784e-95
385.80 2.535784e-95
385.90 2.535784e-95
386.00 2.535784e-95
386.10 2.535784e-95
386.20 2.535784e-95
386.30 2.535784e-95
386.40 2.535784e-95
386.50 2.535784e-95
386.60 2.535784e-95
386.70 2.535784e-95
386.80 2.535784e-95
386.90 2.535784e-95
387.00 2.535784e-95
387.10 2.535784e-95
387.20 2.535784e-95
387.30 2.535784e-95
387.40 2.535784e-95
387.50 2.535784e-95
387.60 2.535784e-95
387.70 2.535784e-95
387.80 2.535784e-95
387.90 2.535784e-95
388.00 2.535784e-95
388.10 2.535784e-95
388.20 2.535784e-95
388.30 2.535784e-95
388.40 2.535784e-95
388.50 2.535784e-95
388.60 2.535784e-95
388.70 2.535784e-95
388.80 2.535784e-95
388.90 2.535784e-95
389.00 2.535784e-95
389.10 2.535784e-95
389.20 2.535784e-95
389.30 2.535784e-95
389.40 2.535784e-95
389.50 2.535784e-95
389.60 2.535784e-95
389.70 2.535784e-95
389.80 2.535784e-95
389.90 2.535784e-95
390.00 2.535784e-95
390.10 2.535784e-95
390.20 2.535784e-95
390.30 2.535784e-95
390.40 2.535784e-95
390.50 2.535784e-95
390.60 2.535784e-95
390.70 2.535784e-95
390.80 2.535784e-95
390.90 2.535784e-95
391.00 2.535784e-95
391.10 2.535784e-95
391.20 2.535784e-95
391.30 2.535784e-95
391.40 2.535784e-95
391.50 2.535784e-95
391.60 2.535784e-95
391.70 2.535784e-95
391.80 2.535784e-95
391.90 2.535784e-95
392.00 2.535784e-95
392.10 2.535784e-95
392.20 2.535784e-95
392.30 2.535784e-95
392.40 2.535784e-95
392.50 2.535784e-95
392.60 2.535784e-95
392.70 2.535784e-95
392.80 2.535784e-95
392.90 2.535784e-95
393.00 2.535784e-95
393.10 2.535784e-95
393.20 2.535784e-95
393.30 2.535784e-95
393.40 2.535784e-95
393.50 2.535784e-95
393.60 2.535784e-95
393.70 2.535784e-95
393.80 2.535784e-95
393.90 2.535784e-95
394.00 2.535784e-95
394.10 2.535784e-95
394.20 2.535784e-95
394.30 2.535784e-95
394.40 2.535784e-95
394.50 2.535784e-95
394.60 2.535784e-95
394.70 2.535784e-95
394.80 2.535784e-95
394.90 2.535784e-95
395.00 0.1235322
395.10 0.2305876
395.20 0.3187595
395.30 0.3866237
395.40 0.4343131
395.50 0.4660892
395.60 0.4904108
395.70 0.5159592
395.80 0.5489189
395.90 0.5925926
396.00 0.6475079
396.10 0.7121838
396.20 0.7835631
396.30 0.8564158
396.40 0.9239442
396.50 0.9779297
396.60 1.010488
396.70 1.020271
396.80 1.020271
396.90 1.020271
397.00 1.020271
397.10 1.020271
397.20 1.024652
397.30 1.045317
397.40 1.082785
397.50 1.136138
397.60 1.203241
397.70 1.283543
397.80 1.377626
397.90 1.484847
398.00 1.60284
398.10 1.726372
398.20 1.848459
398.30 1.962177
398.40 2.061878
398.50 2.145152
398.60 2.214007
398.70 2.274693
398.80 2.334193
398.90 2.398121
399.00 2.469566
399.10 2.546229
399.20 2.621684
399.30 2.687709
399.40 2.735508
399.50 2.760013
399.60 2.760619
399.70 2.760619
399.80 2.760619
399.90 2.760619
400.00 2.760619
400.10 2.760619
400.20 2.760619
400.30 2.760619
400.40 2.760619
400.50 2.760619
400.60 2.771276
400.70 2.800179
400.80 2.848373
400.90 2.910451
401.00 2.976966
401.10 3.040274
401.20 3.096614
401.30 3.144715
401.40 3.182797
401.50 3.209731
401.60 3.228537
401.70 3.245535
401.80 3.266427
401.90 3.294163
402.00 3.327392
402.10 3.360216
402.20 3.387038
402.30 3.405092
402.40 3.415089
402.50 3.421695
402.60 3.431065
402.70 3.447645
402.80 3.472911
402.90 3.505975
403.00 3.543135
403.10 3.578289
403.20 3.606148
403.30 3.622634
403.40 3.624697
403.50 3.624697
403.60 3.624697
403.70 3.624697
403.80 3.624697
403.90 3.624697
404.00 3.627517
404.10 3.632081
404.20 3.636518
404.30 3.637046
404.40 3.637046
404.50 3.637046
404.60 3.637046
404.70 3.637046
404.80 3.637046
404.90 3.637046
405.00 3.513514
405.10 3.406459
405.20 3.318287
405.30 3.250423
405.40 3.202733
405.50 3.170957
405.60 3.146635
405.70 3.121087
405.80 3.088127
405.90 3.044454
406.00 2.989538
406.10 2.924862
406.20 2.866255
406.30 2.821485
406.40 2.797443
406.50 2.799865
406.60 2.830984
406.70 2.884678
406.80 2.940879
406.90 2.984207
407.00 3.011019
407.10 3.020737
407.20 3.016356
407.30 2.995691
407.40 2.958222
407.50 2.904869
407.60 2.837766
407.70 2.757464
407.80 2.663382
407.90 2.564142
408.00 2.463225
408.10 2.364178
408.20 2.270463
408.30 2.183758
408.40 2.105759
408.50 2.037901
408.60 1.978007
408.70 1.920975
408.80 1.863096
408.90 1.801547
409.00 1.735083
409.10 1.668147
409.20 1.608966
409.30 1.565023
409.40 1.542243
409.50 1.543409
409.60 1.567301
409.70 1.589325
409.80 1.608198
409.90 1.623511
410.00 1.636936
410.10 1.652113
410.20 1.672763
410.30 1.702723
410.40 1.744499
410.50 1.798027
410.60 1.850226
410.70 1.888478
410.80 1.905437
410.90 1.900567
411.00 1.878976
411.10 1.847143
411.20 1.810233
411.30 1.771865
411.40 1.737611
411.50 1.714299
411.60 1.704676
411.70 1.705446
411.80 1.711229
411.90 1.716519
412.00 1.717006
412.10 1.713065
412.20 1.70613
412.30 1.695812
412.40 1.685814
412.50 1.679208
412.60 1.669839
412.70 1.653259
412.80 1.627992
412.90 1.594929
413.00 1.564312
413.10 1.543547
413.20 1.536188
413.30 1.542832
413.40 1.562851
413.50 1.581303
413.60 1.595073
413.70 1.604679
413.80 1.611138
413.90 1.615687
414.00 1.617344
414.10 1.618136
414.20 1.620164
414.30 1.627714
414.40 1.637503
414.50 1.647207
414.60 1.653994
414.70 1.656286
414.80 1.656286
414.90 1.656286
415.00 1.657619
415.10 1.66456
415.20 1.677703
415.30 1.696125
415.40 1.71726
415.50 1.73788
415.60 1.754494
415.70 1.763978
415.80 1.764644
415.90 1.764644
416.00 1.764644
416.10 1.764644
416.20 1.751873
416.30 1.723789
416.40 1.680303
416.50 1.623895
416.60 1.560219
416.70 1.496741
416.80 1.443529
416.90 1.407172
417.00 1.390344
417.10 1.392502
417.20 1.405208
417.30 1.418475
417.40 1.432248
417.50 1.446075
417.60 1.460077
417.70 1.475333
417.80 1.492213
417.90 1.501935
418.00 1.501938
418.10 1.493118
418.20 1.481137
418.30 1.476156
418.40 1.48651
418.50 1.515169
418.60 1.561819
418.70 1.622684
418.80 1.690843
418.90 1.759386
419.00 1.822209
419.10 1.873848
419.20 1.911162
419.30 1.935746
419.40 1.954026
419.50 1.973135
419.60 1.996507
419.70 2.022653
419.80 2.048854
419.90 2.073138
420.00 2.091905
420.10 2.100658
420.20 2.096454
420.30 2.077483
420.40 2.043556
420.50 1.996014
420.60 1.937006
420.70 1.871685
420.80 1.806601
420.90 1.749393
421.00 1.704469
421.10 1.672994
421.20 1.653564
421.30 1.643831
421.40 1.640003
421.50 1.63638
421.60 1.627197
421.70 1.60943
421.80 1.582755
421.90 1.549728
422.00 1.522067
422.10 1.511007
422.20 1.515952
422.30 1.534507
422.40 1.556251
422.50 1.56808
422.60 1.568318
422.70 1.568318
422.80 1.568318
422.90 1.568318
423.00 1.561774
423.10 1.549738
423.20 1.537235
423.30 1.526934
423.40 1.521044
423.50 1.520836
423.60 1.526713
423.70 1.538446
423.80 1.557218
423.90 1.585197
424.00 1.621144
424.10 1.66129
424.20 1.701879
424.30 1.739906
424.40 1.773459
424.50 1.802018
424.60 1.825671
424.70 1.843717
424.80 1.853346
424.90 1.85355
425.00 1.852217
425.10 1.845275
425.20 1.832133
425.30 1.813711
425.40 1.795965
425.50 1.784919
425.60 1.781992
425.70 1.785745
425.80 1.794136
425.90 1.798085
426.00 1.798304
426.10 1.798504
426.20 1.803669
426.30 1.818314
426.40 1.844524
426.50 1.880943
426.60 1.924648
426.70 1.972177
426.80 2.016752
426.90 2.054287
427.00 2.083816
427.10 2.105957
427.20 2.121729
427.30 2.131737
427.40 2.137528
427.50 2.141471
427.60 2.144721
427.70 2.146095
427.80 2.14467
427.90 2.141777
428.00 2.139909
428.10 2.140715
428.20 2.142803
428.30 2.141993
428.40 2.135582
428.50 2.123919
428.60 2.108491
428.70 2.09091
428.80 2.071787
428.90 2.050344
429.00 2.026229
429.10 2.000371
429.20 1.973839
429.30 1.946466
429.40 1.915977
429.50 1.879023
429.60 1.835277
429.70 1.789094
429.80 1.744536
429.90 1.704938
430.00 1.672746
430.10 1.648816
430.20 1.632371
430.30 1.621381
430.40 1.613533
430.50 1.607547
430.60 1.6037
430.70 1.601865
430.80 1.601796
430.90 1.601796
431.00 1.601796
431.10 1.601796
431.20 1.601796
431.30 1.601796
431.40 1.601796
431.50 1.601796
431.60 1.601796
431.70 1.601796
431.80 1.601796
431.90 1.607886
432.00 1.62109
432.10 1.631987
432.20 1.639645
432.30 1.642377
432.40 1.638543
432.50 1.628458
432.60 1.62822
432.70 1.62822
432.80 1.62822
432.90 1.62822
433.00 1.62822
433.10 1.625867
433.20 1.617871
433.30 1.605041
433.40 1.602288
433.50 1.611549
433.60 1.631017
433.70 1.655573
433.80 1.676314
433.90 1.683076
434.00 1.670344
434.10 1.638695
434.20 1.591702
434.30 1.545597
434.40 1.502255
434.50 1.463992
434.60 1.433552
434.70 1.428681
434.80 1.451519
434.90 1.498497
435.00 1.556665
435.10 1.621901
435.20 1.689781
435.30 1.754938
435.40 1.808731
435.50 1.843697
435.60 1.858589
435.70 1.856694
435.80 1.847637
435.90 1.843688
436.00 1.84347
436.10 1.84327
436.20 1.838105
436.30 1.82346
436.40 1.797249
436.50 1.76083
436.60 1.717126
436.70 1.669596
436.80 1.622033
436.90 1.577527
437.00 1.538015
437.10 1.503997
437.20 1.475519
437.30 1.452245
437.40 1.432681
437.50 1.426033
437.60 1.434757
437.70 1.456769
437.80 1.489442
437.90 1.528346
438.00 1.568305
438.10 1.604317
438.20 1.631262
438.30 1.643938
438.40 1.636519
438.50 1.604177
438.60 1.563992
438.70 1.517056
438.80 1.466398
438.90 1.41692
439.00 1.37323
439.10 1.337722
439.20 1.310666
439.30 1.291374
439.40 1.278563
439.50 1.270738
439.60 1.266613
439.70 1.264626
439.80 1.26411
439.90 1.26411
440.00 1.26411
440.10 1.264672
440.20 1.274835
440.30 1.291221
440.40 1.307943
440.50 1.317827
440.60 1.317827
440.70 1.317827
440.80 1.317827
440.90 1.317827
441.00 1.317827
441.10 1.317827
441.20 1.317827
441.30 1.324189
441.40 1.336106
441.50 1.349438
441.60 1.361074
441.70 1.369178
441.80 1.373064
441.90 1.366975
442.00 1.347716
442.10 1.318996
442.20 1.286507
442.30 1.257483
442.40 1.239573
442.50 1.23783
442.60 1.23783
442.70 1.244756
442.80 1.264533
442.90 1.297469
443.00 1.340936
443.10 1.3893
443.20 1.434631
443.30 1.468456
443.40 1.470461
443.50 1.442956
443.60 1.403841
443.70 1.357946
443.80 1.311972
443.90 1.272684
444.00 1.244991
444.10 1.231137
444.20 1.231077
444.30 1.231077
444.40 1.231077
444.50 1.231077
444.60 1.231077
444.70 1.21561
444.80 1.183142
444.90 1.135961
445.00 1.077794
445.10 1.012557
445.20 0.9446775
445.30 0.8795201
445.40 0.822338
445.50 0.7777976
445.60 0.7492204
445.70 0.7378767
445.80 0.7378767
445.90 0.7378767
446.00 0.7378767
446.10 0.7378767
446.20 0.7378767
446.30 0.7378767
446.40 0.7378767
446.50 0.7378767
446.60 0.7378767
446.70 0.7378767
446.80 0.7378767
446.90 0.7378767
447.00 0.7393963
447.10 0.7452937
447.20 0.755951
447.30 0.7702958
447.40 0.7858349
447.50 0.7887331
447.60 0.773615
447.70 0.7429945
447.80 0.7023145
447.90 0.6582197
448.00 0.6165805
448.10 0.58177
448.20 0.5573566
448.30 0.5463628
448.40 0.5502806
448.50 0.5691364
448.60 0.5841502
448.70 0.5966595
448.80 0.6100463
448.90 0.6268418
449.00 0.6473311
449.10 0.6708044
449.20 0.6955616
449.30 0.7188158
449.40 0.7381097
449.50 0.7514326
449.60 0.7574793
449.70 0.7574793
449.80 0.7574793
449.90 0.7574793
450.00 0.7574793
450.10 0.7569175
450.20 0.7467546
450.30 0.7346873
450.40 0.7302148
450.50 0.7418995
450.60 0.7718126
450.70 0.8070979
450.80 0.8435018
450.90 0.8770146
451.00 0.9040432
451.10 0.9221034
451.20 0.9312598
451.30 0.9275204
451.40 0.9156029
451.50 0.9022708
451.60 0.8921258
451.70 0.8863646
451.80 0.8833678
451.90 0.8833678
452.00 0.8833678
452.10 0.8833678
452.20 0.8833678
452.30 0.8833678
452.40 0.886452
452.50 0.8995331
452.60 0.9218743
452.70 0.9435943
452.80 0.9553346
452.90 0.9540768
453.00 0.940551
453.10 0.9196746
453.20 0.899532
453.30 0.8884894
453.40 0.8927621
453.50 0.9079876
453.60 0.9162272
453.70 0.9162272
453.80 0.9162272
453.90 0.9162272
454.00 0.9162272
454.10 0.9162272
454.20 0.9200992
454.30 0.9340882
454.40 0.9564094
454.50 0.9828253
454.60 1.007223
454.70 1.02304
454.80 1.025564
454.90 1.025564
455.00 1.025564
455.10 1.025564
455.20 1.025564
455.30 1.025564
455.40 1.025564
455.50 1.030883
455.60 1.052444
455.70 1.087526
455.80 1.129319
455.90 1.169186
456.00 1.19992
456.10 1.217269
456.20 1.219482
456.30 1.219482
456.40 1.219482
456.50 1.219482
456.60 1.219482
456.70 1.219482
456.80 1.219482
456.90 1.219482
457.00 1.217963
457.10 1.212065
457.20 1.201408
457.30 1.187063
457.40 1.171524
457.50 1.157504
457.60 1.146646
457.70 1.138625
457.80 1.131176
457.90 1.123121
458.00 1.113069
458.10 1.097648
458.20 1.076637
458.30 1.053733
458.40 1.031589
458.50 1.012663
458.60 0.9976496
458.70 0.9851403
458.80 0.9717535
458.90 0.954958
459.00 0.9344688
459.10 0.9109954
459.20 0.8862383
459.30 0.862984
459.40 0.8436901
459.50 0.8308998
459.60 0.8260445
459.70 0.8275393
459.80 0.8286612
459.90 0.8286612
460.00 0.8286612
460.10 0.8286612
460.20 0.8286612
460.30 0.8243431
460.40 0.8120936
460.50 0.7905246
460.60 0.764895
460.70 0.7375126
460.80 0.7100992
460.90 0.6847636
461.00 0.6631505
461.10 0.6457161
461.20 0.6365597
461.30 0.6339372
461.40 0.6339372
461.50 0.6339372
461.60 0.6324467
461.70 0.630104
461.80 0.6292144
461.90 0.6292144
462.00 0.6292144
462.10 0.6292144
462.20 0.6292144
462.30 0.6292144
462.40 0.6261301
462.50 0.613049
462.60 0.5924179
462.70 0.5794123
462.80 0.5712481
462.90 0.5659121
463.00 0.5630776
463.10 0.5619841
463.20 0.5610172
463.30 0.5599644
463.40 0.5595599
463.50 0.5604925
463.60 0.5647059
463.70 0.5739798
463.80 0.5809185
463.90 0.5868842
464.00 0.5939414
464.10 0.6036708
464.20 0.6119746
464.30 0.6115226
464.40 0.6033699
464.50 0.5910491
464.60 0.5796927
464.70 0.5742724
464.80 0.5781491
464.90 0.5810226
465.00 0.5825975
465.10 0.5854421
465.20 0.5918739
465.30 0.6029692
465.40 0.6179117
465.50 0.6291909
465.60 0.6227239
465.70 0.5968642
465.80 0.5550706
465.90 0.5152042
466.00 0.4844696
466.10 0.4671206
466.20 0.4649077
466.30 0.4649077
466.40 0.4649077
466.50 0.4649077
466.60 0.4756793
466.70 0.4930959
466.80 0.5108255
466.90 0.5225179
467.00 0.5239569
467.10 0.5239569
467.20 0.5239569
467.30 0.5239569
467.40 0.5239569
467.50 0.5239569
467.60 0.5239569
467.70 0.5239569
467.80 0.5259768
467.90 0.5321163
468.00 0.5381355
468.10 0.5433352
468.20 0.5459262
468.30 0.5459262
468.40 0.5459262
468.50 0.5459262
468.60 0.5459262
468.70 0.5459262
468.80 0.5459262
468.90 0.5459262
469.00 0.5459262
469.10 0.5459262
469.20 0.5459262
469.30 0.5459262
469.40 0.5459262
469.50 0.5453936
469.60 0.5442022
469.70 0.5427074
469.80 0.5415855
469.90 0.5424944
470.00 0.5458291
470.10 0.5498185
470.20 0.5544447
470.30 0.5611075
470.40 0.5709277
470.50 0.5830569
470.60 0.5917337
470.70 0.5978457
470.80 0.6050724
470.90 0.6156583
471.00 0.6307546
471.10 0.6509453
471.20 0.6701151
471.30 0.6854054
471.40 0.6949416
471.50 0.6979851
471.60 0.6979851
471.70 0.6979851
471.80 0.6979851
471.90 0.6979851
472.00 0.6979851
472.10 0.6979851
472.20 0.6979851
472.30 0.6979851
472.40 0.6979851
472.50 0.6979851
472.60 0.7009253
472.70 0.7006645
472.80 0.703602
472.90 0.7117777
473.00 0.7229626
473.10 0.7352282
473.20 0.7478247
473.30 0.7602725
473.40 0.7736005
473.50 0.7902225
473.60 0.8109027
473.70 0.8332528
473.80 0.8528046
473.90 0.8641631
474.00 0.8626748
474.10 0.8529453
474.20 0.8407696
474.30 0.8272326
474.40 0.813064
474.50 0.798969
474.60 0.7859277
474.70 0.7755311
474.80 0.7691298
474.90 0.7662564
475.00 0.7646814
475.10 0.7618368
475.20 0.766818
475.30 0.7790301
475.40 0.794131
475.50 0.8086074
475.60 0.8208211
475.70 0.8314663
475.80 0.8416363
475.90 0.8416363
476.00 0.8416363
476.10 0.8416363
476.20 0.8416363
476.30 0.8416363
476.40 0.8416363
476.50 0.8416363
476.60 0.8308647
476.70 0.8134481
476.80 0.7957185
476.90 0.784026
477.00 0.782587
477.10 0.782587
477.20 0.782587
477.30 0.782587
477.40 0.782587
477.50 0.782587
477.60 0.785299
477.70 0.7939143
477.80 0.8049455
477.90 0.8137594
478.00 0.8236281
478.10 0.8371624
478.20 0.8556872
478.30 0.8767323
478.40 0.898542
478.50 0.921721
478.60 0.9464347
478.70 0.9720942
478.80 0.9977323
478.90 1.02218
479.00 1.043534
479.10 1.059925
479.20 1.070429
479.30 1.075009
479.40 1.075009
479.50 1.075009
479.60 1.075009
479.70 1.075009
479.80 1.075009
479.90 1.077059
480.00 1.081182
480.10 1.089374
480.20 1.099987
480.30 1.108211
480.40 1.1102
480.50 1.106665
480.60 1.100818
480.70 1.094844
480.80 1.090498
480.90 1.091001
481.00 1.100166
481.10 1.121159
481.20 1.155775
481.30 1.203225
481.40 1.260115
481.50 1.321527
481.60 1.378924
481.70 1.425414
481.80 1.458014
481.90 1.474228
482.00 1.474228
482.10 1.474228
482.20 1.474228
482.30 1.474228
482.40 1.474228
482.50 1.474228
482.60 1.469577
482.70 1.454198
482.80 1.427908
482.90 1.398354
483.00 1.367796
483.10 1.337236
483.20 1.307912
483.30 1.281285
483.40 1.257455
483.50 1.235944
483.60 1.217611
483.70 1.204988
483.80 1.202269
483.90 1.213323
484.00 1.239632
484.10 1.272654
484.20 1.303186
484.30 1.327627
484.40 1.343481
484.50 1.349184
484.60 1.349184
484.70 1.349184
484.80 1.349184
484.90 1.349184
485.00 1.349184
485.10 1.349184
485.20 1.337771
485.30 1.314464
485.40 1.28442
485.50 1.256988
485.60 1.238833
485.70 1.232564
485.80 1.238362
485.90 1.254302
486.00 1.268449
486.10 1.280338
486.20 1.291028
486.30 1.301882
486.40 1.31326
486.50 1.324412
486.60 1.334448
486.70 1.342683
486.80 1.348477
486.90 1.351966
487.00 1.353558
487.10 1.353558
487.20 1.353558
487.30 1.353558
487.40 1.353558
487.50 1.353558
487.60 1.350846
487.70 1.342231
487.80 1.32918
487.90 1.312661
488.00 1.295633
488.10 1.281323
488.20 1.270599
488.30 1.261122
488.40 1.249205
488.50 1.232863
488.60 1.212011
488.70 1.188088
488.80 1.162919
488.90 1.138471
489.00 1.117117
489.10 1.101353
489.20 1.092284
489.30 1.09015
489.40 1.094806
489.50 1.103383
489.60 1.117442
489.70 1.138398
489.80 1.166248
489.90 1.195923
490.00 1.222439
490.10 1.242586
490.20 1.255975
490.30 1.264003
490.40 1.267882
490.50 1.267672
490.60 1.262686
490.70 1.254645
490.80 1.242774
490.90 1.223507
491.00 1.193831
491.10 1.152021
491.20 1.098236
491.30 1.03893
491.40 0.9829564
491.50 0.9341622
491.60 0.8953404
491.70 0.8696676
491.80 0.8594777
491.90 0.8657903
492.00 0.887307
492.10 0.9073123
492.20 0.9259106
492.30 0.9436289
492.40 0.9605925
492.50 0.976308
492.60 0.9908349
492.70 1.005033
492.80 1.020078
492.90 1.032343
493.00 1.044172
493.10 1.056212
493.20 1.067906
493.30 1.077954
493.40 1.084519
493.50 1.086702
493.60 1.085007
493.70 1.080126
493.80 1.072015
493.90 1.061219
494.00 1.048519
494.10 1.034694
494.20 1.021593
494.30 1.011493
494.40 1.005612
494.50 1.004772
494.60 1.004772
494.70 1.004772
494.80 1.004772
494.90 1.004772
495.00 1.004772
495.10 1.004772
495.20 1.004772
495.30 1.004772
495.40 1.004772
495.50 1.001129
495.60 0.9919769
495.70 0.9783784
495.80 0.9624107
495.90 0.9464709
496.00 0.9323242
496.10 0.9204348
496.20 0.9097448
496.30 0.9002711
496.40 0.8939127
496.50 0.8891473
496.60 0.8844909
496.70 0.8778024
496.80 0.8720082
496.90 0.8685195
497.00 0.8669267
497.10 0.8669267
497.20 0.8669267
497.30 0.8669267
497.40 0.8669267
497.50 0.8669267
497.60 0.8669267
497.70 0.8669267
497.80 0.8669267
497.90 0.8669267
498.00 0.8645888
498.10 0.857914
498.20 0.8534945
498.30 0.8563131
498.40 0.8686442
498.50 0.8911028
498.60 0.9222181
498.70 0.9579708
498.80 0.9927541
498.90 1.020867
499.00 1.038417
499.10 1.044244
499.20 1.042808
499.30 1.040363
499.40 1.035706
499.50 1.027129
499.60 1.019193
499.70 1.014175
499.80 1.010471
499.90 1.006301
500.00 1
500.10 0.9900869
500.20 0.9760848
500.30 0.9597702
500.40 0.9440811
500.50 0.9356971
500.60 0.9335699
500.70 0.9335699
500.80 0.9335699
500.90 0.9335699
501.00 0.9354469
501.10 0.9409846
501.20 0.948668
501.30 0.9532772
501.40 0.9492588
501.50 0.9359738
501.60 0.9173984
501.70 0.8965818
501.80 0.8741716
501.90 0.8516452
502.00 0.8301285
502.10 0.8101232
502.20 0.7915249
502.30 0.7738066
502.40 0.7568431
502.50 0.7411276
502.60 0.7266007
502.70 0.7191728
502.80 0.7171704
502.90 0.7158041
503.00 0.7121698
503.10 0.7056494
503.20 0.695647
503.30 0.6817341
503.40 0.6663607
503.50 0.6529086
503.60 0.6398034
503.70 0.6256829
503.80 0.6100222
503.90 0.5924404
504.00 0.5732628
504.10 0.5540651
504.20 0.5366347
504.30 0.5222934
504.40 0.5123201
504.50 0.5074579
504.60 0.5074579
504.70 0.5074579
504.80 0.5074579
504.90 0.5074579
505.00 0.5074579
505.10 0.5074579
505.20 0.5094783
505.30 0.5188653
505.40 0.5325535
505.50 0.5475338
505.60 0.5616651
505.70 0.5739847
505.80 0.5848833
505.90 0.5968625
506.00 0.6134118
506.10 0.6367307
506.20 0.6674909
506.30 0.702813
506.40 0.7367033
506.50 0.7679079
506.60 0.796085
506.70 0.8220058
506.80 0.8424738
506.90 0.8557912
507.00 0.8621632
507.10 0.8628015
507.20 0.8628015
507.30 0.8628015
507.40 0.8628015
507.50 0.8628015
507.60 0.8628015
507.70 0.8637791
507.80 0.8676937
507.90 0.8735543
508.00 0.880106
508.10 0.8864605
508.20 0.8858544
508.30 0.8757968
508.40 0.8579646
508.50 0.8344869
508.60 0.8082923
508.70 0.7830734
508.80 0.7626246
508.90 0.7508853
509.00 0.7504398
509.10 0.7602736
509.20 0.7736743
509.30 0.7831921
509.40 0.788796
509.50 0.7902945
509.60 0.7841717
509.70 0.7682337
509.80 0.7440881
509.90 0.7156239
510.00 0.6879514
510.10 0.6655361
510.20 0.6509094
510.30 0.6443105
510.40 0.6443105
510.50 0.6443105
510.60 0.6443105
510.70 0.6443105
510.80 0.6443105
510.90 0.6443105
511.00 0.6424335
511.10 0.6368958
511.20 0.6292124
511.30 0.6211692
511.40 0.614734
511.50 0.6123577
511.60 0.6123577
511.70 0.6123577
511.80 0.6123577
511.90 0.6123577
512.00 0.6123577
512.10 0.6123577
512.20 0.6123577
512.30 0.6123577
512.40 0.6123577
512.50 0.613166
512.60 0.6218809
512.70 0.6301891
512.80 0.6361016
512.90 0.6406333
513.00 0.6448409
513.10 0.6500597
513.20 0.6568281
513.30 0.6635991
513.40 0.6663279
513.50 0.6663279
513.60 0.6663279
513.70 0.6663279
513.80 0.6663279
513.90 0.6663279
514.00 0.6663279
514.10 0.672572
514.20 0.6885575
514.30 0.7136296
514.40 0.7449204
514.50 0.7779627
514.60 0.808588
514.70 0.8341336
514.80 0.8537645
514.90 0.8682142
515.00 0.878438
515.10 0.8846161
515.20 0.8851857
515.30 0.876252
515.40 0.8625638
515.50 0.8475836
515.60 0.8334522
515.70 0.8211327
515.80 0.8102341
515.90 0.7982548
516.00 0.7817055
516.10 0.7583866
516.20 0.7276264
516.30 0.690924
516.40 0.6527514
516.50 0.619565
516.60 0.5948609
516.70 0.5800996
516.80 0.575102
516.90 0.5783799
517.00 0.587179
517.10 0.5978517
517.20 0.6040585
517.30 0.6050423
517.40 0.6050423
517.50 0.6050423
517.60 0.6050423
517.70 0.6040647
517.80 0.60015
517.90 0.5955267
518.00 0.5938919
518.10 0.5934497
518.20 0.5917352
518.30 0.5874059
518.40 0.5830152
518.50 0.5771969
518.60 0.5684141
518.70 0.5561441
518.80 0.541341
518.90 0.5249669
519.00 0.5119577
519.10 0.5043444
519.20 0.5016585
519.30 0.5025567
519.40 0.5060389
519.50 0.5128998
519.60 0.5222623
519.70 0.5349959
519.80 0.5539983
519.90 0.5814817
520.00 0.6184655
520.10 0.6652168
520.20 0.7200585
520.30 0.7788911
520.40 0.8360693
520.50 0.8862057
520.60 0.9260985
520.70 0.9551457
520.80 0.9743872
520.90 0.9858924
521.00 0.9925404
521.10 0.9977447
521.20 1.00403
521.30 1.012272
521.40 1.021438
521.50 1.028841
521.60 1.032381
521.70 1.032381
521.80 1.032381
521.90 1.035703
522.00 1.045491
522.10 1.062509
522.20 1.085918
522.30 1.114135
522.40 1.144646
522.50 1.173565
522.60 1.191531
522.70 1.198704
522.80 1.197071
522.90 1.189796
523.00 1.179703
523.10 1.168498
523.20 1.157951
523.30 1.151286
523.40 1.151498
523.50 1.154631
523.60 1.159595
523.70 1.16763
523.80 1.178992
523.90 1.192763
524.00 1.207161
524.10 1.213976
524.20 1.20831
524.30 1.189849
524.40 1.160894
524.50 1.127851
524.60 1.097226
524.70 1.071681
524.80 1.05205
524.90 1.0376
525.00 1.027376
525.10 1.022544
525.20 1.023487
525.30 1.02949
525.40 1.038034
525.50 1.046679
525.60 1.053719
525.70 1.05855
525.80 1.062235
525.90 1.066808
526.00 1.073781
526.10 1.083839
526.20 1.097291
526.30 1.113889
526.40 1.132589
526.50 1.150347
526.60 1.166019
526.70 1.17999
526.80 1.19418
526.90 1.211504
527.00 1.235082
527.10 1.266143
527.20 1.302524
527.30 1.339657
527.40 1.368773
527.50 1.385616
527.60 1.387964
527.70 1.387964
527.80 1.387964
527.90 1.386726
528.00 1.381809
528.10 1.375897
528.20 1.372245
528.30 1.372245
528.40 1.372245
528.50 1.372245
528.60 1.372245
528.70 1.381414
528.80 1.400077
528.90 1.424236
529.00 1.445147
529.10 1.458312
529.20 1.46309
529.30 1.459624
529.40 1.450538
529.50 1.442179
529.60 1.432816
529.70 1.420082
529.80 1.40108
529.90 1.373597
530.00 1.336613
530.10 1.289862
530.20 1.23502
530.30 1.176187
530.40 1.119009
530.50 1.071209
530.60 1.04086
530.70 1.026925
530.80 1.026525
530.90 1.035791
531.00 1.049622
531.10 1.061328
531.20 1.065587
531.30 1.06044
531.40 1.051274
531.50 1.043871
531.60 1.040331
531.70 1.040331
531.80 1.040331
531.90 1.037009
532.00 1.03481
532.10 1.032141
532.20 1.026763
532.30 1.015859
532.40 0.9979101
532.50 0.9749474
532.60 0.9503778
532.70 0.9281266
532.80 0.91134
532.90 0.9024067
533.00 0.901658
533.10 0.9077573
533.20 0.9176763
533.30 0.9265526
533.40 0.9299356
533.50 0.9268028
533.60 0.9218383
533.70 0.9138033
533.80 0.9024415
533.90 0.8886704
534.00 0.8742723
534.10 0.8628887
534.20 0.8585237
534.30 0.8602951
534.40 0.8665979
534.50 0.8738237
534.60 0.8791548
534.70 0.8834101
534.80 0.8877414
534.90 0.8924215
535.00 0.8967379
535.10 0.8979026
535.20 0.8943697
535.30 0.8879133
535.40 0.8793695
535.50 0.8707244
535.60 0.8636843
535.70 0.8588536
535.80 0.8551685
535.90 0.8505946
536.00 0.8436219
536.10 0.8335645
536.20 0.8201126
536.30 0.8035145
536.40 0.7840771
536.50 0.7619133
536.60 0.7373893
536.70 0.7176939
536.80 0.7010782
536.90 0.6820463
537.00 0.6565764
537.10 0.6239377
537.20 0.5871224
537.30 0.5513808
537.40 0.5225224
537.50 0.5058387
537.60 0.5056601
537.70 0.5107494
537.80 0.5177611
537.90 0.5255069
538.00 0.5346448
538.10 0.5473215
538.20 0.565708
538.30 0.59105
538.40 0.6227296
538.50 0.6584106
538.60 0.6950699
538.70 0.7201138
538.80 0.7301093
538.90 0.727973
539.00 0.7198942
539.10 0.7128025
539.20 0.7130439
539.30 0.7247936
539.40 0.7468452
539.50 0.7713578
539.60 0.7962496
539.70 0.8187677
539.80 0.8361721
539.90 0.8468104
540.00 0.8507659
540.10 0.8507659
540.20 0.8507659
540.30 0.8521328
540.40 0.8611976
540.50 0.8779931
540.60 0.897218
540.70 0.9162773
540.80 0.9302062
540.90 0.9340589
541.00 0.9250712
541.10 0.9081617
541.20 0.8976169
541.30 0.894522
541.40 0.894522
541.50 0.894522
541.60 0.894522
541.70 0.894522
541.80 0.8986314
541.90 0.9138675
542.00 0.9270303
542.10 0.934212
542.20 0.9344035
542.30 0.9276211
542.40 0.9150585
542.50 0.9082937
542.60 0.9061828
542.70 0.9061828
542.80 0.9056468
542.90 0.90146
543.00 0.8921659
543.10 0.8784333
543.20 0.8631068
543.30 0.8504389
543.40 0.8441153
543.50 0.8441153
543.60 0.8441153
543.70 0.8443027
543.80 0.844565
543.90 0.844565
544.00 0.844565
544.10 0.8428898
544.20 0.8369355
544.30 0.8285532
544.40 0.8199146
544.50 0.8126888
544.60 0.8073577
544.70 0.8031024
544.80 0.7987711
544.90 0.7994467
545.00 0.8085473
545.10 0.8249599
545.20 0.8448087
545.30 0.8613142
545.40 0.8724873
545.50 0.8787189
545.60 0.8820022
545.70 0.8850129
545.80 0.8905383
545.90 0.9001551
546.00 0.9134499
546.10 0.9283526
546.20 0.9423624
546.30 0.9535876
546.40 0.9610439
546.50 0.9653559
546.60 0.9694914
546.70 0.9708147
546.80 0.9733657
546.90 0.982022
547.00 0.9996795
547.10 1.027733
547.20 1.065097
547.30 1.108678
547.40 1.154569
547.50 1.198623
547.60 1.237025
547.70 1.26819
547.80 1.29426
547.90 1.318413
548.00 1.341718
548.10 1.362427
548.20 1.377398
548.30 1.383865
548.40 1.380313
548.50 1.365996
548.60 1.34162
548.70 1.310993
548.80 1.282335
548.90 1.260312
549.00 1.243385
549.10 1.228638
549.20 1.2163
549.30 1.205947
549.40 1.197334
549.50 1.189973
549.60 1.184834
549.70 1.184594
549.80 1.192037
549.90 1.209257
550.00 0.6526439
550.10 0.7471108
550.20 0.854951
550.30 0.969843
550.40 1.085213
550.50 1.195749
550.60 1.297174
550.70 1.387342
550.80 1.46939
550.90 1.549137
551.00 1.630245
551.10 1.71371
551.20 1.797102
551.30 1.876626
551.40 1.946943
551.50 2.000353
551.60 2.031062
551.70 2.040028
551.80 2.040028
551.90 2.026639
552.00 1.993096
552.10 1.945789
552.20 1.904659
552.30 1.884261
552.40 1.889925
552.50 1.917224
552.60 1.958399
552.70 2.006567
552.80 2.054871
552.90 2.100477
553.00 2.147138
553.10 2.200058
553.20 2.261093
553.30 2.326959
553.40 2.391345
553.50 2.445404
553.60 2.475639
553.70 2.466074
553.80 2.427085
553.90 2.368226
554.00 2.290883
554.10 2.196416
554.20 2.088576
554.30 1.994056
554.40 1.930212
554.50 1.896809
554.60 1.887292
554.70 1.889977
554.80 1.890215
554.90 1.875212
555.00 1.840364
555.10 1.790775
555.20 1.738999
555.30 1.689628
555.40 1.626272
555.50 1.572862
555.60 1.542153
555.70 1.533187
555.80 1.533187
555.90 1.533187
556.00 1.533187
556.10 1.533187
556.20 1.524695
556.30 1.503829
556.40 1.491545
556.50 1.526261
556.60 1.576708
556.70 1.612847
556.80 1.627203
556.90 1.621711
557.00 1.596233
557.10 1.554407
557.20 1.502852
557.30 1.450345
557.40 1.404915
557.50 1.373567
557.60 1.364591
557.70 1.387758
557.80 1.433054
557.90 1.498307
558.00 1.589352
558.10 1.708487
558.20 1.853613
558.30 1.997412
558.40 2.11839
558.50 2.209791
558.60 2.269792
558.70 2.301164
558.80 2.311972
558.90 2.313118
559.00 2.311068
559.10 2.306614
559.20 2.295616
559.30 2.283345
559.40 2.29903
559.50 2.332339
559.60 2.378475
559.70 2.436555
559.80 2.502742
559.90 2.57169
560.00 2.642193
560.10 2.718398
560.20 2.804942
560.30 2.905076
560.40 2.998781
560.50 3.04864
560.60 3.082071
560.70 3.119253
560.80 3.155894
560.90 3.178152
561.00 3.176674
561.10 3.148209
561.20 3.103705
561.30 3.062282
561.40 3.024686
561.50 2.991194
561.60 2.959597
561.70 2.925234
561.80 2.879939
561.90 2.814686
562.00 2.72364
562.10 2.604506
562.20 2.45938
562.30 2.320013
562.40 2.199872
562.50 2.102989
562.60 2.029272
562.70 1.974878
562.80 1.931209
562.90 1.889308
563.00 1.845098
563.10 1.815678
563.20 1.795059
563.30 1.777177
563.40 1.763294
563.50 1.756908
563.60 1.75478
563.70 1.752017
563.80 1.742634
563.90 1.721565
564.00 1.683024
564.10 1.621314
564.20 1.534769
564.30 1.434635
564.40 1.319617
564.50 1.192165
564.60 1.058904
564.70 0.9298882
564.80 0.8167741
564.90 0.7303594
565.00 0.6774168
565.10 0.6575316
565.20 0.6575316
565.30 0.6575316
565.40 0.6575316
565.50 0.6575316
565.60 0.6575316
565.70 0.6575316
565.80 0.6575316
565.90 0.6802519
566.00 0.7264261
566.10 0.7960385
566.20 0.886106
566.30 0.9640979
566.40 1.016909
566.50 1.043806
566.60 1.053919
566.70 1.06509
566.80 1.100469
566.90 1.181187
567.00 1.314805
567.10 1.477486
567.20 1.663772
567.30 1.863962
567.40 2.054466
567.50 2.208262
567.60 2.311665
567.70 2.361648
567.80 2.366532
567.90 2.3404
568.00 2.308438
568.10 2.293944
568.20 2.293944
568.30 2.293944
568.40 2.293944
568.50 2.293944
568.60 2.293944
568.70 2.293944
568.80 2.293944
568.90 2.293944
569.00 2.293944
569.10 2.295366
569.20 2.304974
569.30 2.313719
569.40 2.316071
569.50 2.316071
569.60 2.316071
569.70 2.316071
569.80 2.316071
569.90 2.29335
570.00 2.247176
570.10 2.177564
570.20 2.087496
570.30 1.9847
570.40 1.879526
570.50 1.780978
570.60 1.692673
570.70 1.611201
570.80 1.531454
570.90 1.44629
571.00 1.342378
571.10 1.214381
571.20 1.065137
571.30 0.9051333
571.40 0.7507251
571.50 0.621213
571.60 0.5309453
571.70 0.4850291
571.80 0.4805473
571.90 0.5095737
572.00 0.5500168
572.10 0.5780082
572.20 0.5924885
572.30 0.5924885
572.40 0.5924885
572.50 0.5924885
572.60 0.5924885
572.70 0.5924885
572.80 0.5924885
572.90 0.5924885
573.00 0.5924885
573.10 0.5910665
573.20 0.5814587
573.30 0.5727137
573.40 0.5703623
573.50 0.5703623
573.60 0.5703623
573.70 0.5711682
573.80 0.5969924
573.90 0.6396944
574.00 0.6888075
574.10 0.7338877
574.20 0.768413
574.30 0.7912431
574.40 0.8044257
574.50 0.8106183
574.60 0.811912
574.70 0.811912
574.80 0.806201
574.90 0.7866562
575.00 0.7569512
575.10 0.7222669
575.20 0.6852248
575.30 0.6450383
575.40 0.6001796
575.50 0.5489723
575.60 0.4918287
575.70 0.4324449
575.80 0.3752384
575.90 0.3244645
576.00 0.2840214
576.10 0.2668023
576.20 0.2743219
576.30 0.2966888
576.40 0.3094108
576.50 0.3094108
576.60 0.3094108
576.70 0.3094108
576.80 0.3094108
576.90 0.3094108
577.00 0.3094108
577.10 0.3094108
577.20 0.3406239
577.30 0.4102548
577.40 0.5144478
577.50 0.6474708
577.60 0.8010029
577.70 0.9647468
577.80 1.10534
577.90 1.223862
578.00 1.325629
578.10 1.417664
578.20 1.504847
578.30 1.585808
578.40 1.656372
578.50 1.714022
578.60 1.757951
578.70 1.785927
578.80 1.795803
578.90 1.795803
579.00 1.795803
579.10 1.795803
579.20 1.795803
579.30 1.795803
579.40 1.795803
579.50 1.795803
579.60 1.795803
579.70 1.801264
579.80 1.83642
579.90 1.890919
580.00 1.949685
580.10 1.987208
580.20 1.993163
580.30 1.974739
580.40 1.962017
580.50 1.962017
580.60 1.962017
580.70 1.962017
580.80 1.963428
580.90 1.980285
581.00 2.009501
581.10 2.04659
581.20 2.054543
581.30 2.020257
581.40 1.942699
581.50 1.823809
581.60 1.670276
581.70 1.505727
581.80 1.339309
581.90 1.178086
582.00 1.027205
582.10 0.8900901
582.20 0.7683816
582.30 0.6645901
582.40 0.5876881
582.50 0.5348672
582.60 0.4959166
582.70 0.4679415
582.80 0.4580652
582.90 0.4580652
583.00 0.4580652
583.10 0.4580652
583.20 0.4580652
583.30 0.4580652
583.40 0.4591337
583.50 0.4822308
583.60 0.5233652
583.70 0.5709677
583.80 0.5946654
583.90 0.5988378
584.00 0.5935018
584.10 0.590417
584.20 0.5988986
584.30 0.6235554
584.40 0.6470876
584.50 0.6710768
584.60 0.7003783
584.70 0.7364913
584.80 0.7789844
584.90 0.8140339
585.00 0.8420962
585.10 0.8624455
585.20 0.8746247
585.30 0.8786597
585.40 0.8748002
585.50 0.8631009
585.60 0.8631009
585.70 0.8631009
585.80 0.8631009
585.90 0.8631009
586.00 0.8631009
586.10 0.8631009
586.20 0.8631009
586.30 0.8631009
586.40 0.8562564
586.50 0.8452355
586.60 0.8389625
586.70 0.8389625
586.80 0.8389625
586.90 0.8389625
587.00 0.8389625
587.10 0.8389625
587.20 0.8389625
587.30 0.8389625
587.40 0.8378939
587.50 0.8147968
587.60 0.7736624
587.70 0.7205992
587.80 0.6617452
587.90 0.603074
588.00 0.549644
588.10 0.5044334
588.20 0.4679962
588.30 0.460595
588.40 0.4851105
588.50 0.5195292
588.60 0.5471307
588.70 0.5564573
588.80 0.5351849
588.90 0.4832781
589.00 0.4260001
589.10 0.3685616
589.20 0.3172164
589.30 0.2778364
589.40 0.2550611
589.50 0.2526277
589.60 0.2526277
589.70 0.2526277
589.80 0.2526277
589.90 0.2526277
590.00 0.2526277
590.10 0.2526277
590.20 0.2526277
590.30 0.2526277
590.40 0.2526277
590.50 0.2526277
590.60 0.2669695
590.70 0.3102365
590.80 0.3722309
590.90 0.4355906
591.00 0.4799891
591.10 0.4874099
591.20 0.4874099
591.30 0.4874099
591.40 0.4874099
591.50 0.4874099
591.60 0.4874099
591.70 0.4874099
591.80 0.4874099
591.90 0.4874099
592.00 0.4874099
592.10 0.4874099
592.20 0.4874099
592.30 0.4766735
592.40 0.4507111
592.50 0.4251316
592.60 0.4092887
592.70 0.4088306
592.80 0.4306365
592.90 0.4706021
593.00 0.5026813
593.10 0.5244293
593.20 0.5336152
593.30 0.5336152
593.40 0.5336152
593.50 0.5336152
593.60 0.5383976
593.70 0.5610137
593.80 0.6040288
593.90 0.6678153
594.00 0.7482839
594.10 0.8360292
594.20 0.9184268
594.30 0.9835683
594.40 1.024128
594.50 1.039268
594.60 1.024926
594.70 0.981659
594.80 0.9196646
594.90 0.8563049
595.00 0.8119064
595.10 0.8044856
595.20 0.8044856
595.30 0.8044856
595.40 0.8044856
595.50 0.8044856
595.60 0.8044856
595.70 0.8044856
595.80 0.8044856
595.90 0.8044856
596.00 0.8044856
596.10 0.8044856
596.20 0.8044856
596.30 0.7940237
596.40 0.7845519
596.50 0.7894854
596.60 0.802016
596.70 0.8160889
596.80 0.8264653
596.90 0.8281182
597.00 0.816157
597.10 0.794409
597.20 0.7852232
597.30 0.7852232
597.40 0.7852232
597.50 0.7852232
597.60 0.7804408
597.70 0.7578246
597.80 0.7148095
597.90 0.6510231
598.00 0.5705545
598.10 0.4828091
598.20 0.4004115
598.30 0.3352701
598.40 0.2947106
598.50 0.2795706
598.60 0.2795706
598.70 0.3085946
598.80 0.3722603
598.90 0.4615768
599.00 0.5584633
599.10 0.6418275
599.20 0.6948744
599.30 0.708976
599.40 0.708976
599.50 0.708976
599.60 0.708976
599.70 0.708976
599.80 0.708976
599.90 0.708976
600.00 0
600.10 0
600.20 0
600.30 0
600.40 0
600.50 0
600.60 0
600.70 1.160959
600.80 2.546628
600.90 3.57266
601.00 3.875462
601.10 3.334565
601.20 2.121879
601.30 0.5640641
601.40 0
601.50 0
601.60 0
601.70 0
601.80 0
601.90 0
602.00 0
602.10 0
602.20 0
602.30 0
602.40 0
602.50 0
602.60 0
602.70 0
602.80 0
602.90 0
603.00 0
603.10 0
603.20 0
603.30 0
603.40 0.330841
603.50 1.913538
603.60 2.942886
603.70 3.467551
603.80 3.634659
603.90 3.549244
604.00 3.254771
604.10 2.867383
604.20 2.559215
604.30 2.397425
604.40 2.307398
604.50 2.117785
604.60 1.648132
604.70 0.8801097
604.80 0
604.90 0
605.00 0
605.10 0
605.20 0
605.30 0
605.40 0
605.50 0
605.60 0
605.70 0
605.80 0
605.90 0
606.00 0
606.10 0
606.20 0
606.30 0.9137804
606.40 1.883409
606.50 2.533116
606.60 2.863032
606.70 3.005793
606.80 3.003241
606.90 2.773809
607.00 2.318114
607.10 1.764758
607.20 1.282199
607.30 1.02348
607.40 1.055513
607.50 1.297053
607.60 1.632379
607.70 1.963633
607.80 2.271852
607.90 2.57989
608.00 2.832378
608.10 2.910661
608.20 2.819614
608.30 2.668986
608.40 2.526358
608.50 2.398931
608.60 2.246644
608.70 2.047824
608.80 1.836143
608.90 1.679954
609.00 1.586944
609.10 1.466444
609.20 1.159696
609.30 0.5300599
609.40 0
609.50 0
609.60 0
609.70 0
609.80 0
609.90 0
610.00 0
610.10 0
610.20 0
610.30 0
610.40 0
610.50 0
610.60 0
610.70 0
610.80 0
610.90 0
611.00 0
611.10 0
611.20 0
611.30 0
611.40 0
611.50 0.09010146
611.60 0.3338124
611.70 0.4746825
611.80 0.5397791
611.90 0.6950185
612.00 1.040121
612.10 1.511201
612.20 1.917927
612.30 2.108603
612.40 2.063159
612.50 1.766812
612.60 1.213887
612.70 0.4511928
612.80 0
612.90 0
613.00 0
613.10 0
613.20 0
613.30 0.9360076
613.40 2.251511
613.50 3.294418
613.60 3.918804
613.70 4.043056
613.80 3.657746
613.90 2.93219
614.00 2.11733
614.10 1.414089
614.20 0.9524279
614.30 0.7504351
614.40 0.7392866
614.50 0.8537451
614.60 1.029501
614.70 1.211132
614.80 1.376105
614.90 1.573804
615.00 1.964152
615.10 2.678508
615.20 3.671301
615.30 4.68751
615.40 5.480002
615.50 6.016595
615.60 6.343045
615.70 6.461985
615.80 6.332991
615.90 5.936768
616.00 5.339823
616.10 4.710719
616.20 4.227315
616.30 3.979182
616.40 3.899008
616.50 3.855047
616.60 3.793133
616.70 3.776866
616.80 3.822793
616.90 3.823896
617.00 3.678148
617.10 3.350061
617.20 2.926802
617.30 2.617486
617.40 2.67033
617.50 3.198061
617.60 4.125784
617.70 5.192606
617.80 6.079149
617.90 6.571891
618.00 6.556682
618.10 6.089381
618.20 5.391919
618.30 4.666772
618.40 4.037179
618.50 3.61928
618.60 3.464027
618.70 3.431504
618.80 3.289451
618.90 2.93103
619.00 2.399482
619.10 1.828956
619.20 1.351283
619.30 1.031157
619.40 0.8632693
619.50 0.7324259
619.60 0.4916694
619.70 0.1392396
619.80 0
619.90 0
620.00 0
620.10 0
620.20 0
620.30 0
620.40 0
620.50 0
620.60 0
620.70 0.8004348
620.80 1.960845
620.90 3.155879
621.00 4.227287
621.10 4.940567
621.20 5.14706
621.30 4.948842
621.40 4.567189
621.50 4.173609
621.60 3.873568
621.70 3.747274
621.80 3.738092
621.90 3.755809
622.00 3.706066
622.10 3.442018
622.20 2.925701
622.30 2.191662
622.40 1.334357
622.50 0.5345455
622.60 0
622.70 0
622.80 0
622.90 0.07602039
623.00 0.5809809
623.10 1.113802
623.20 1.553733
623.30 1.842873
623.40 2.032259
623.50 2.219913
623.60 2.416823
623.70 2.587786
623.80 2.682196
623.90 2.699711
624.00 2.701429
624.10 2.762934
624.20 2.922303
624.30 3.16397
624.40 3.403184
624.50 3.555289
624.60 3.536048
624.70 3.32164
624.80 2.94858
624.90 2.462914
625.00 1.942639
625.10 1.521108
625.20 1.371088
625.30 1.526676
625.40 1.877026
625.50 2.265192
625.60 2.627493
625.70 2.964938
625.80 3.250758
625.90 3.457989
626.00 3.633574
626.10 3.775293
626.20 3.749571
626.30 3.532457
626.40 3.264948
626.50 3.083686
626.60 3.038491
626.70 3.149675
626.80 3.438978
626.90 3.792156
627.00 3.942179
627.10 3.721855
627.20 3.17196
627.30 2.43903
627.40 1.672121
627.50 1.048866
627.60 0.8014289
627.70 1.024299
627.80 1.65101
627.90 2.511573
628.00 3.329829
628.10 3.842967
628.20 3.923384
628.30 3.676471
628.40 3.306647
628.50 2.964156
628.60 2.725818
628.70 2.539332
628.80 2.290035
628.90 1.923748
629.00 1.459067
629.10 0.973543
629.20 0.6173983
629.30 0.4784019
629.40 0.529652
629.50 0.7931369
629.60 1.105285
629.70 1.091148
629.80 0.5409591
629.90 0
630.00 0
630.10 0
630.20 0
630.30 0
630.40 0
630.50 0.173314
630.60 1.965916
630.70 3.316597
630.80 4.141295
630.90 4.389832
631.00 4.225676
631.10 4.036675
631.20 4.122286
631.30 4.570057
631.40 5.261494
631.50 5.982279
631.60 6.51898
631.70 6.747087
631.80 6.68264
631.90 6.532427
632.00 6.514062
632.10 6.679339
632.20 7.028971
632.30 7.509447
632.40 8.041893
632.50 8.501128
632.60 8.683016
632.70 8.501199
632.80 8.057394
632.90 7.497741
633.00 6.888089
633.10 6.222922
633.20 5.50654
633.30 4.80634
633.40 4.167267
633.50 3.614306
633.60 3.197268
633.70 2.966132
633.80 2.886099
633.90 2.903849
634.00 3.026393
634.10 3.223185
634.20 3.419491
634.30 3.554257
634.40 3.66885
634.50 3.886369
634.60 4.331226
634.70 5.063545
634.80 6.076213
634.90 7.223407
635.00 8.249089
635.10 8.883903
635.20 8.916642
635.30 8.303304
635.40 7.207125
635.50 5.909058
635.60 4.741193
635.70 3.998063
635.80 3.784595
635.90 4.083808
636.00 4.731949
636.10 5.375569
636.20 5.726983
636.30 5.721768
636.40 5.41134
636.50 4.913079
636.60 4.425657
636.70 4.142242
636.80 4.079903
636.90 4.111729
637.00 4.086615
637.10 3.938831
637.20 3.71371
637.30 3.4324
637.40 3.2305
637.50 3.388493
637.60 4.001617
637.70 4.922197
637.80 5.951966
637.90 6.889581
638.00 7.515142
638.10 7.656188
638.20 7.363311
638.30 6.843505
638.40 6.234768
638.50 5.59306
638.60 4.996539
638.70 4.56391
638.80 4.339773
638.90 4.289628
639.00 4.389322
639.10 4.626585
639.20 4.932626
639.30 5.237228
639.40 5.54137
639.50 5.861868
639.60 6.177119
639.70 6.423139
639.80 6.573949
639.90 6.676657
640.00 6.770206
640.10 6.883629
640.20 7.037805
640.30 7.199278
640.40 7.299257
640.50 7.305576
640.60 7.237453
640.70 7.079831
640.80 6.792452
640.90 6.390555
641.00 5.927903
641.10 5.522072
641.20 5.291642
641.30 5.267229
641.40 5.432003
641.50 5.68858
641.60 5.961861
641.70 6.307872
641.80 6.779806
641.90 7.300124
642.00 7.739928
642.10 8.058527
642.20 8.260408
642.30 8.321491
642.40 8.21673
642.50 7.9553
642.60 7.603018
642.70 7.232751
642.80 6.887454
642.90 6.659848
643.00 6.579351
643.10 6.545197
643.20 6.462048
643.30 6.291096
643.40 6.012926
643.50 5.631075
643.60 5.195758
643.70 4.792217
643.80 4.528986
643.90 4.48209
644.00 4.67836
644.10 5.13345
644.20 5.845624
644.30 6.730356
644.40 7.675439
644.50 8.564815
644.60 9.235204
644.70 9.594013
644.80 9.696316
644.90 9.571678
645.00 9.235732
645.10 8.806849
645.20 8.406449
645.30 8.109413
645.40 7.951601
645.50 7.924739
645.60 7.96675
645.70 8.008497
645.80 8.006968
645.90 7.976642
646.00 7.999307
646.10 8.066762
646.20 8.075192
646.30 8.019298
646.40 7.935791
646.50 7.830157
646.60 7.725104
646.70 7.641418
646.80 7.583734
646.90 7.518178
647.00 7.389688
647.10 7.206546
647.20 6.99142
647.30 6.652975
647.40 6.139633
647.50 5.590066
647.60 5.173351
647.70 4.971883
647.80 5.032644
647.90 5.348895
648.00 5.822785
648.10 6.346575
648.20 6.866463
648.30 7.346995
648.40 7.781472
648.50 8.151885
648.60 8.472629
648.70 8.84039
648.80 9.29147
648.90 9.790378
649.00 10.28475
649.10 10.71112
649.20 11.05947
649.30 11.38718
649.40 11.7186
649.50 12.04274
649.60 12.33197
649.70 12.57347
649.80 12.72716
649.90 12.71804
650.00 12.46874
650.10 11.94408
650.20 11.19333
650.30 10.28755
650.40 9.359644
650.50 8.614795
650.60 8.186686
650.70 8.052808
650.80 8.156951
650.90 8.44052
651.00 8.812453
651.10 9.194971
651.20 9.592108
651.30 10.01571
651.40 10.4399
651.50 10.86925
651.60 11.33191
651.70 11.86435
651.80 12.44434
651.90 12.93573
652.00 13.20803
652.10 13.23768
652.20 13.05197
652.30 12.70089
652.40 12.26756
652.50 11.83364
652.60 11.45997
652.70 11.17019
652.80 10.90259
652.90 10.56782
653.00 10.13861
653.10 9.642284
653.20 9.162852
653.30 8.841982
653.40 8.774656
653.50 8.942063
653.60 9.276811
653.70 9.674095
653.80 10.00365
653.90 10.19383
654.00 10.2004
654.10 10.05009
654.20 9.911475
654.30 9.947169
654.40 10.18198
654.50 10.57678
654.60 11.06756
654.70 11.58739
654.80 12.10978
654.90 12.64888
655.00 13.19791
655.10 13.67566
655.20 14.00273
655.30 14.13562
655.40 14.07333
655.50 13.82379
655.60 13.39429
655.70 12.87121
655.80 12.43958
655.90 12.26086
656.00 12.39699
656.10 12.79214
656.20 13.26716
656.30 13.67074
656.40 13.94927
656.50 14.11271
656.60 14.18903
656.70 14.16928
656.80 14.04374
656.90 13.81247
657.00 13.45921
657.10 12.94979
657.20 12.28293
657.30 11.52865
657.40 10.71609
657.50 9.947495
657.60 9.456582
657.70 9.332779
657.80 9.530459
657.90 10.01519
658.00 10.71969
658.10 11.51319
658.20 12.21695
658.30 12.68565
658.40 12.91065
658.50 12.99283
658.60 13.0183
658.70 13.01207
658.80 13.07551
658.90 13.2899
659.00 13.60525
659.10 13.94816
659.20 14.23076
659.30 14.37264
659.40 14.3568
659.50 14.2315
659.60 14.10067
659.70 14.07852
659.80 14.21212
659.90 14.43431
660.00 14.65026
660.10 14.82969
660.20 14.9458
660.30 14.93404
660.40 14.70108
660.50 14.22329
660.60 13.62556
660.70 13.097
660.80 12.81631
660.90 12.90333
661.00 13.36486
661.10 14.10867
661.20 14.94856
661.30 15.6988
661.40 16.21734
661.50 16.38075
661.60 16.15989
661.70 15.63863
661.80 15.01724
661.90 14.50511
662.00 14.21416
662.10 14.16908
662.20 14.31717
662.30 14.5752
662.40 14.8836
662.50 15.21917
662.60 15.57574
662.70 15.9365
662.80 16.24146
662.90 16.42128
663.00 16.41313
663.10 16.18488
663.20 15.78595
663.30 15.30974
663.40 14.91594
663.50 14.7754
663.60 14.90988
663.70 15.24228
663.80 15.71447
663.90 16.26262
664.00 16.76402
664.10 17.08285
664.20 17.20367
664.30 17.17585
664.40 17.06224
664.50 16.89207
664.60 16.62729
664.70 16.28834
664.80 15.86455
664.90 15.28923
665.00 14.63482
665.10 14.0997
665.20 13.81759
665.30 13.81472
665.40 14.07299
665.50 14.54899
665.60 15.12347
665.70 15.64975
665.80 16.0423
665.90 16.3312
666.00 16.59943
666.10 16.86366
666.20 17.10471
666.30 17.34489
666.40 17.6226
666.50 17.87668
666.60 18.00316
666.70 17.94849
666.80 17.7593
666.90 17.55586
667.00 17.46432
667.10 17.57833
667.20 17.90819
667.30 18.34178
667.40 18.72647
667.50 18.96437
667.60 19.03011
667.70 18.93798
667.80 18.70066
667.90 18.40642
668.00 18.17694
668.10 18.13381
668.20 18.36317
668.30 18.83735
668.40 19.4086
668.50 19.91525
668.60 20.24923
668.70 20.37105
668.80 20.276
668.90 19.97286
669.00 19.52881
669.10 19.03803
669.20 18.5835
669.30 18.15984
669.40 17.75641
669.50 17.40104
669.60 17.09796
669.70 16.84339
669.80 16.63198
669.90 16.42968
670.00 16.21591
670.10 16.01583
670.20 15.83674
670.30 15.59386
670.40 15.1631
670.50 14.51328
670.60 13.73127
670.70 12.99885
670.80 12.44471
670.90 12.09202
671.00 11.97536
671.10 12.16115
671.20 12.70315
671.30 13.56761
671.40 14.63379
671.50 15.72633
671.60 16.71642
671.70 17.57818
671.80 18.29229
671.90 18.8351
672.00 19.18143
672.10 19.33714
672.20 19.39234
672.30 19.45423
672.40 19.5567
672.50 19.6551
672.60 19.68037
672.70 19.61023
672.80 19.46549
672.90 19.30983
673.00 19.18037
673.10 19.09936
673.20 19.13759
673.30 19.31897
673.40 19.6169
673.50 19.96606
673.60 20.26736
673.70 20.43957
673.80 20.41777
673.90 20.19514
674.00 19.85575
674.10 19.54624
674.20 19.4336
674.30 19.61334
674.40 20.04468
674.50 20.58892
674.60 21.10107
674.70 21.48517
674.80 21.67422
674.90 21.61058
675.00 21.35249
675.10 21.08467
675.20 21.04686
675.30 21.37572
675.40 22.04186
675.50 22.95055
675.60 23.92872
675.70 24.74165
675.80 25.22157
675.90 25.32308
676.00 25.0651
676.10 24.52773
676.20 23.8721
676.30 23.3047
676.40 22.93976
676.50 22.77615
676.60 22.75905
676.70 22.87644
676.80 23.17953
676.90 23.63848
677.00 24.12481
677.10 24.53929
677.20 24.8869
677.30 25.21226
677.40 25.5288
677.50 25.78539
677.60 25.90614
677.70 25.80807
677.80 25.4394
677.90 24.84938
678.00 24.15674
678.10 23.4783
678.20 22.89432
678.30 22.49118
678.40 22.37645
678.50 22.58576
678.60 22.97783
678.70 23.32921
678.80 23.45902
678.90 23.29497
679.00 22.84013
679.10 22.16878
679.20 21.44766
679.30 20.80703
679.40 20.32004
679.50 20.03007
679.60 19.96244
679.70 20.09047
679.80 20.30736
679.90 20.50913
680.00 20.69648
680.10 20.93848
680.20 21.28263
680.30 21.65186
680.40 21.90999
680.50 22.0131
680.60 21.94378
680.70 21.71796
680.80 21.40002
680.90 21.10905
681.00 20.98607
681.10 21.10159
681.20 21.46568
681.30 22.03746
681.40 22.72191
681.50 23.36703
681.60 23.83808
681.70 24.11215
681.80 24.21806
681.90 24.16176
682.00 23.97423
682.10 23.73512
682.20 23.55471
682.30 23.43995
682.40 23.30352
682.50 23.08066
682.60 22.7459
682.70 22.32686
682.80 21.80899
682.90 21.14252
683.00 20.29606
683.10 19.36968
683.20 18.60386
683.30 18.13999
683.40 18.00582
683.50 18.20102
683.60 18.6342
683.70 19.17255
683.80 19.68952
683.90 20.12031
684.00 20.46482
684.10 20.72343
684.20 20.95086
684.30 21.21954
684.40 21.59178
684.50 21.99825
684.60 22.26721
684.70 22.32741
684.80 22.17558
684.90 21.7952
685.00 21.18962
685.10 20.46477
685.20 19.79088
685.30 19.27781
685.40 18.91826
685.50 18.63368
685.60 18.37197
685.70 18.12317
685.80 17.90014
685.90 17.73536
686.00 17.5822
686.10 17.33719
686.20 16.96273
686.30 16.53189
686.40 16.18042
686.50 15.99427
686.60 16.0504
686.70 16.4181
686.80 17.16003
686.90 18.28112
687.00 19.60501
687.10 20.86345
687.20 21.76629
687.30 22.09657
687.40 21.82893
687.50 21.07388
687.60 19.99598
687.70 18.7658
687.80 17.58858
687.90 16.72123
688.00 16.27794
688.10 16.23098
688.20 16.48992
688.30 16.94685
688.40 17.50743
688.50 18.04718
688.60 18.45722
688.70 18.66981
688.80 18.71044
688.90 18.72258
689.00 18.85924
689.10 19.16756
689.20 19.54369
689.30 19.80212
689.40 19.84028
689.50 19.66259
689.60 19.28094
689.70 18.69406
689.80 17.99184
689.90 17.37056
690.00 17.01011
690.10 17.00363
690.20 17.30198
690.30 17.73309
690.40 18.13322
690.50 18.41346
690.60 18.54971
690.70 18.54894
690.80 18.40091
690.90 18.03496
691.00 17.42964
691.10 16.69032
691.20 15.91767
691.30 15.17195
691.40 14.55476
691.50 14.18777
691.60 14.15856
691.70 14.49863
691.80 15.11112
691.90 15.80159
692.00 16.35914
692.10 16.62584
692.20 16.56108
692.30 16.28898
692.40 16.02713
692.50 15.90143
692.60 15.98174
692.70 16.29121
692.80 16.75111
692.90 17.23858
693.00 17.62914
693.10 17.83693
693.20 17.85168
693.30 17.73923
693.40 17.65099
693.50 17.74486
693.60 18.05508
693.70 18.49768
693.80 18.9517
693.90 19.3359
694.00 19.633
694.10 19.91488
694.20 20.20128
694.30 20.38304
694.40 20.40005
694.50 20.24963
694.60 19.93413
694.70 19.48276
694.80 18.97848
694.90 18.54448
695.00 18.29403
695.10 18.28152
695.20 18.48518
695.30 18.85608
695.40 19.30899
695.50 19.67295
695.60 19.8333
695.70 19.84245
695.80 19.76484
695.90 19.65649
696.00 19.60138
696.10 19.65832
696.20 19.79871
696.30 19.91771
696.40 19.94911
696.50 19.87302
696.60 19.71517
696.70 19.55436
696.80 19.4444
696.90 19.42354
697.00 19.54231
697.10 19.78357
697.20 20.09468
697.30 20.45579
697.40 20.84971
697.50 21.24968
697.60 21.58485
697.70 21.79607
697.80 21.875
697.90 21.85636
698.00 21.77662
698.10 21.60848
698.20 21.33564
698.30 20.96763
698.40 20.56172
698.50 20.2427
698.60 20.12435
698.70 20.20085
698.80 20.36668
698.90 20.53153
699.00 20.69146
699.10 20.84971
699.20 20.96424
699.30 21.01794
699.40 21.00627
699.50 20.92327
699.60 20.79681
699.70 20.72175
699.80 20.76418
699.90 20.90096
700.00 21.05682
700.10 21.18149
700.20 21.28378
700.30 21.33383
700.40 21.27226
700.50 21.08613
700.60 20.82095
700.70 20.61205
700.80 20.59813
700.90 20.85632
701.00 21.38697
701.10 22.09089
701.20 22.85891
701.30 23.61286
701.40 24.28763
701.50 24.81365
701.60 25.12404
701.70 25.2173
701.80 25.12274
701.90 24.87966
702.00 24.56165
702.10 24.12367
702.20 23.48725
702.30 22.75807
702.40 22.15512
702.50 21.87886
702.60 22.06496
702.70 22.76237
702.80 23.88263
702.90 25.26519
703.00 26.74565
703.10 28.08454
703.20 29.06998
703.30 29.62505
703.40 29.77142
703.50 29.65352
703.60 29.47012
703.70 29.30546
703.80 29.17786
703.90 29.12469
704.00 29.11344
704.10 29.00468
704.20 28.71707
704.30 28.30773
704.40 27.9045
704.50 27.68134
704.60 27.7696
704.70 28.19334
704.80 28.85266
704.90 29.50948
705.00 29.91783
705.10 29.98574
705.20 29.72333
705.30 29.19412
705.40 28.55492
705.50 27.97506
705.60 27.52857
705.70 27.22792
705.80 27.05002
705.90 26.94293
706.00 26.86561
706.10 26.79343
706.20 26.68874
706.30 26.59425
706.40 26.65245
706.50 26.94102
706.60 27.43934
706.70 28.04699
706.80 28.581
706.90 28.92389
707.00 29.11632
707.10 29.19552
707.20 29.15402
707.30 29.03358
707.40 28.91355
707.50 28.86263
707.60 28.97204
707.70 29.32758
707.80 29.92082
707.90 30.6583
708.00 31.39499
708.10 31.99942
708.20 32.40538
708.30 32.6281
708.40 32.69887
708.50 32.61766
708.60 32.38846
708.70 32.03501
708.80 31.59106
708.90 31.10534
709.00 30.65914
709.10 30.30599
709.20 30.03057
709.30 29.81942
709.40 29.70446
709.50 29.7045
709.60 29.80606
709.70 29.93578
709.80 29.98607
709.90 29.88668
710.00 29.61063
710.10 29.18541
710.20 28.67117
710.30 28.14019
710.40 27.68325
710.50 27.4234
710.60 27.47082
710.70 27.81777
710.80 28.34333
710.90 28.88119
711.00 29.26559
711.10 29.40785
711.20 29.28988
711.30 28.94958
711.40 28.54241
711.50 28.26249
711.60 28.24812
711.70 28.60635
711.80 29.3963
711.90 30.53246
712.00 31.80604
712.10 32.97555
712.20 33.8171
712.30 34.17991
712.40 34.04216
712.50 33.50042
712.60 32.74793
712.70 32.02694
712.80 31.50218
712.90 31.26443
713.00 31.37034
713.10 31.73837
713.20 32.16403
713.30 32.46107
713.40 32.53301
713.50 32.39843
713.60 32.12448
713.70 31.81114
713.80 31.55339
713.90 31.42962
714.00 31.47247
714.10 31.64204
714.20 31.87511
714.30 32.08931
714.40 32.2475
714.50 32.38277
714.60 32.52317
714.70 32.65383
714.80 32.74621
714.90 32.78703
715.00 32.80214
715.10 32.80861
715.20 32.84783
715.30 32.93914
715.40 33.04613
715.50 33.1671
715.60 33.31307
715.70 33.47529
715.80 33.60416
715.90 33.63936
716.00 33.55398
716.10 33.39669
716.20 33.27569
716.30 33.26711
716.40 33.4069
716.50 33.68465
716.60 33.98644
716.70 34.17697
716.80 34.19488
716.90 34.03427
717.00 33.73816
717.10 33.36886
717.20 32.99618
717.30 32.70745
717.40 32.56107
717.50 32.58743
717.60 32.80023
717.70 33.18438
717.80 33.69967
717.90 34.28312
718.00 34.8546
718.10 35.33455
718.20 35.67533
718.30 35.8528
718.40 35.87978
718.50 35.7935
718.60 35.58795
718.70 35.22552
718.80 34.75065
718.90 34.26869
719.00 33.86208
719.10 33.58854
719.20 33.489
719.30 33.58978
719.40 33.87899
719.50 34.28396
719.60 34.67677
719.70 34.93604
719.80 34.95225
719.90 34.70556
720.00 34.29123
720.10 33.8759
720.20 33.61727
720.30 33.61224
720.40 33.8972
720.50 34.3826
720.60 34.88783
720.70 35.23966
720.80 35.37564
720.90 35.34788
721.00 35.23835
721.10 35.07529
721.20 34.8535
721.30 34.58456
721.40 34.31498
721.50 34.11391
721.60 34.01616
721.70 34.0073
721.80 34.05826
721.90 34.17081
722.00 34.35841
722.10 34.66265
722.20 35.14234
722.30 35.75813
722.40 36.35986
722.50 36.86582
722.60 37.28733
722.70 37.60963
722.80 37.77737
722.90 37.72128
723.00 37.43738
723.10 36.99422
723.20 36.4788
723.30 35.9951
723.40 35.66977
723.50 35.50858
723.60 35.29018
723.70 34.82221
723.80 34.17069
723.90 33.46406
724.00 32.69326
724.10 31.77424
724.20 30.68779
724.30 29.64257
724.40 28.99065
724.50 28.92675
724.60 29.47708
724.70 30.61575
724.80 32.20172
724.90 34.04684
725.00 36.01677
725.10 37.94783
725.20 39.55697
725.30 40.54246
725.40 40.83551
725.50 40.68244
725.60 40.3977
725.70 40.06006
725.80 39.56224
725.90 38.89716
726.00 38.20258
726.10 37.5956
726.20 37.15207
726.30 36.90557
726.40 36.85008
726.50 36.97535
726.60 37.27
726.70 37.69444
726.80 38.08837
726.90 38.22805
727.00 38.08571
727.10 37.74791
727.20 37.2458
727.30 36.59465
727.40 35.84893
727.50 35.24216
727.60 35.06676
727.70 35.43904
727.80 36.31458
727.90 37.52323
728.00 38.7679
728.10 39.76297
728.20 40.4131
728.30 40.73487
728.40 40.70279
728.50 40.36876
728.60 39.93861
728.70 39.68357
728.80 39.77342
728.90 40.13995
729.00 40.63816
729.10 41.24908
729.20 41.99716
729.30 42.81482
729.40 43.61601
729.50 44.32438
729.60 44.80756
729.70 44.89719
729.80 44.47387
729.90 43.61687
730.00 42.49451
730.10 41.27041
730.20 40.18385
730.30 39.47905
730.40 39.28266
730.50 39.54765
730.60 40.11284
730.70 40.8078
730.80 41.46787
730.90 41.84243
731.00 41.77562
731.10 41.3081
731.20 40.5359
731.30 39.58675
731.40 38.74931
731.50 38.32603
731.60 38.43382
731.70 39.02997
731.80 39.92429
731.90 40.86825
732.00 41.65468
732.10 42.16232
732.20 42.24526
732.30 41.83874
732.40 40.98945
732.50 39.89165
732.60 38.93937
732.70 38.41604
732.80 38.34576
732.90 38.68222
733.00 39.34135
733.10 40.16719
733.20 41.01889
733.30 41.76593
733.40 42.2126
733.50 42.22183
733.60 41.91579
733.70 41.54078
733.80 41.2474
733.90 41.09473
734.00 41.09802
734.10 41.22736
734.20 41.44799
734.30 41.70502
734.40 41.93317
734.50 42.10635
734.60 42.21244
734.70 42.26944
734.80 42.39606
734.90 42.62537
735.00 42.81998
735.10 42.87409
735.20 42.84605
735.30 42.80117
735.40 42.64186
735.50 42.21208
735.60 41.43567
735.70 40.34565
735.80 39.12934
735.90 38.01527
736.00 37.17573
736.10 36.73409
736.20 36.65017
736.30 36.75748
736.40 36.95578
736.50 37.19455
736.60 37.24063
736.70 36.82799
736.80 36.05724
736.90 35.36316
737.00 35.13948
737.10 35.55724
737.20 36.5067
737.30 37.7218
737.40 38.90408
737.50 39.75673
737.60 40.12312
737.70 40.0398
737.80 39.59276
737.90 38.88362
738.00 38.16317
738.10 37.70561
738.20 37.56694
738.30 37.62695
738.40 37.78252
738.50 38.00831
738.60 38.34372
738.70 38.80379
738.80 39.33798
738.90 39.83888
739.00 40.17467
739.10 40.24191
739.20 40.06875
739.30 39.73635
739.40 39.26936
739.50 38.69313
739.60 38.00734
739.70 37.24604
739.80 36.53626
739.90 35.98103
740.00 35.62112
740.10 35.49261
740.20 35.61471
740.30 35.92567
740.40 36.27962
740.50 36.53437
740.60 36.52427
740.70 36.20899
740.80 35.74084
740.90 35.25919
741.00 34.86756
741.10 34.61273
741.20 34.50624
741.30 34.61406
741.40 34.93833
741.50 35.36671
741.60 35.76941
741.70 36.07554
741.80 36.26485
741.90 36.3185
742.00 36.22131
742.10 35.9175
742.20 35.38218
742.30 34.65387
742.40 33.76697
742.50 32.85638
742.60 32.13223
742.70 31.7434
742.80 31.76736
742.90 32.19455
743.00 32.94251
743.10 33.86932
743.20 34.85396
743.30 35.85259
743.40 36.8754
743.50 37.90307
743.60 38.79633
743.70 39.45814
743.80 39.96566
743.90 40.34266
744.00 40.41439
744.10 39.97136
744.20 38.96672
744.30 37.55816
744.40 35.96484
744.50 34.4106
744.60 33.09342
744.70 32.11493
744.80 31.50679
744.90 31.30109
745.00 31.5087
745.10 32.02818
745.20 32.64445
745.30 33.18984
745.40 33.62769
745.50 33.95058
745.60 34.12537
745.70 34.0991
745.80 33.86901
745.90 33.52226
746.00 33.15248
746.10 32.82571
746.20 32.5842
746.30 32.3965
746.40 32.22063
746.50 32.08323
746.60 32.00552
746.70 31.91327
746.80 31.75868
746.90 31.70399
747.00 31.91603
747.10 32.44277
747.20 33.26633
747.30 34.24465
747.40 35.16698
747.50 35.81619
747.60 35.92864
747.70 35.38709
747.80 34.3449
747.90 33.0569
748.00 31.82859
748.10 30.98975
748.20 30.7103
748.30 30.84848
748.40 31.2084
748.50 31.65297
748.60 32.05477
748.70 32.32933
748.80 32.3963
748.90 32.23152
749.00 31.93956
749.10 31.63386
749.20 31.31412
749.30 30.92519
749.40 30.43059
749.50 29.89436
749.60 29.43544
749.70 29.13107
749.80 29.0108
749.90 29.06119
750.00 29.19458
750.10 29.30953
750.20 29.3563
750.30 29.32913
750.40 29.24559
750.50 29.14376
750.60 29.11336
750.70 29.27906
750.80 29.69174
750.90 30.23674
751.00 30.73159
751.10 31.07368
751.20 31.16136
751.30 30.90883
751.40 30.37835
751.50 29.71472
751.60 29.01428
751.70 28.27174
751.80 27.48176
751.90 26.63323
752.00 25.59915
752.10 24.16592
752.20 22.30895
752.30 20.28223
752.40 18.44366
752.50 17.10953
752.60 16.47138
752.70 16.66587
752.80 17.67578
752.90 19.21924
753.00 20.96914
753.10 22.70969
753.20 24.23802
753.30 25.34551
753.40 26.00502
753.50 26.40489
753.60 26.65855
753.70 26.71779
753.80 26.53741
753.90 26.12311
754.00 25.57333
754.10 24.96727
754.20 24.34051
754.30 23.8578
754.40 23.6939
754.50 23.87333
754.60 24.31629
754.70 24.92023
754.80 25.52845
754.90 25.93095
755.00 25.93916
755.10 25.45206
755.20 24.48861
755.30 23.15944
755.40 21.69177
755.50 20.39605
755.60 19.53629
755.70 19.21737
755.80 19.45262
755.90 20.19304
756.00 21.22901
756.10 22.23452
756.20 22.88436
756.30 23.00455
756.40 22.69778
756.50 22.1405
756.60 21.42178
756.70 20.56125
756.80 19.50331
756.90 18.28681
757.00 17.09301
757.10 16.18183
757.20 15.71228
757.30 15.68539
757.40 16.01946
757.50 16.56414
757.60 17.198
757.70 17.80715
757.80 18.22225
757.90 18.33454
758.00 18.08983
758.10 17.53855
758.20 16.88941
758.30 16.27163
758.40 15.71777
758.50 15.22157
758.60 14.79805
758.70 14.49107
758.80 14.38273
758.90 14.61194
759.00 15.24245
759.10 16.09934
759.20 16.73087
759.30 16.7526
759.40 16.16094
759.50 15.23044
759.60 14.3532
759.70 13.7827
759.80 13.61188
759.90 14.08649
760.00 15.29864
760.10 16.90267
760.20 18.45674
760.30 19.66039
760.40 20.3186
760.50 20.40629
760.60 20.1588
760.70 19.83281
760.80 19.47808
760.90 18.95201
761.00 17.96842
761.10 16.48215
761.20 14.736
761.30 12.76374
761.40 10.67386
761.50 8.917319
761.60 7.87886
761.70 7.692196
761.80 8.223278
761.90 9.117171
762.00 9.937083
762.10 10.36492
762.20 10.32768
762.30 9.896937
762.40 9.201645
762.50 8.430769
762.60 7.754421
762.70 7.2936
762.80 7.060388
762.90 6.913854
763.00 6.728013
763.10 6.405559
763.20 5.896722
763.30 5.253109
763.40 4.6084
763.50 4.08466
763.60 3.699611
763.70 3.510192
763.80 3.678591
763.90 4.249215
764.00 5.083792
764.10 5.977187
764.20 6.730879
764.30 7.228784
764.40 7.345948
764.50 6.941826
764.60 6.003766
764.70 4.684379
764.80 3.279473
764.90 2.102608
765.00 1.438033
765.10 1.413431
765.20 1.840973
765.30 2.406611
765.40 2.792391
765.50 2.678537
765.60 1.870823
765.70 0.4455595
765.80 0
765.90 0
766.00 0
766.10 0
766.20 0
766.30 0
766.40 0
766.50 0
766.60 0.8104242
766.70 1.851443
766.80 2.526035
766.90 2.912097
767.00 3.171881
767.10 3.390192
767.20 3.557884
767.30 3.625799
767.40 3.544585
767.50 3.297536
767.60 2.899272
767.70 2.389821
767.80 1.857397
767.90 1.393191
768.00 1.042155
768.10 0.8681825
768.20 0.94266
768.30 1.259292
768.40 1.751927
768.50 2.286684
768.60 2.726599
768.70 2.978521
768.80 3.015424
768.90 2.900749
769.00 2.686144
769.10 2.382168
769.20 2.06172
769.30 1.803059
769.40 1.574787
769.50 1.278984
769.60 0.9359998
769.70 0.6423845
769.80 0.4436218
769.90 0.3900852
770.00 0.5449383
770.10 0.9363652
770.20 1.490213
770.30 2.074543
770.40 2.603221
770.50 3.020918
770.60 3.201868
770.70 2.977231
770.80 2.22963
770.90 0.8804391
771.00 0
771.10 0
771.20 0
771.30 0
771.40 0
771.50 0
771.60 0
771.70 0
771.80 0
771.90 0
772.00 0
772.10 0
772.20 3.790037
772.30 6.296413
772.40 7.623276
772.50 8.159485
772.60 8.047371
772.70 7.403938
772.80 6.659869
772.90 6.136205
773.00 5.856756
773.10 5.68539
773.20 5.524854
773.30 5.502778
773.40 5.830897
773.50 6.615
773.60 7.782257
773.70 9.056209
773.80 10.17194
773.90 10.98589
774.00 11.40697
774.10 11.39988
774.20 11.09219
774.30 10.66725
774.40 10.1456
774.50 9.511288
774.60 8.803023
774.70 7.952039
774.80 6.865926
774.90 5.738417
775.00 5.00161
775.10 4.982458
775.20 5.790418
775.30 7.354208
775.40 9.443708
775.50 11.69744
775.60 13.71082
775.70 15.23145
775.80 16.19425
775.90 16.64073
776.00 16.70967
776.10 16.65214
776.20 16.72531
776.30 16.91269
776.40 16.96656
776.50 16.75199
776.60 16.26546
776.70 15.57924
776.80 14.84666
776.90 14.28186
777.00 13.99717
777.10 13.9471
777.20 14.18393
777.30 14.76458
777.40 15.56941
777.50 16.37977
777.60 17.00322
777.70 17.35983
777.80 17.50384
777.90 17.57014
778.00 17.73562
778.10 18.081
778.20 18.57246
778.30 19.12319
778.40 19.68594
778.50 20.27969
778.60 20.78227
778.70 20.98109
778.80 20.77753
778.90 20.13305
779.00 18.88732
779.10 16.9757
779.20 14.6357
779.30 12.26347
779.40 10.18806
779.50 8.61381
779.60 7.708533
779.70 7.51879
779.80 7.889669
779.90 8.512592
780.00 9.105302
780.10 9.546618
780.20 9.718796
780.30 9.56744
780.40 9.302922
780.50 9.058734
780.60 8.809678
780.70 8.612386
780.80 8.644823
780.90 9.151017
781.00 10.25195
781.10 11.99249
781.20 14.436
781.30 17.51359
781.40 20.92174
781.50 24.01045
781.60 25.96523
781.70 26.36143
781.80 25.31013
781.90 23.30325
782.00 21.04136
782.10 19.23257
782.20 18.37445
782.30 18.68438
782.40 20.15068
782.50 22.4942
782.60 25.15165
782.70 27.48949
782.80 29.05261
782.90 29.74387
783.00 29.89817
783.10 29.84203
783.20 29.67026
783.30 29.48755
783.40 29.32739
783.50 29.11158
783.60 28.78846
783.70 28.28372
783.80 27.50962
783.90 26.41367
784.00 25.08713
784.10 23.83212
784.20 22.93901
784.30 22.58134
784.40 22.80856
784.50 23.5849
784.60 24.88862
784.70 26.43215
784.80 27.59474
784.90 27.81439
785.00 26.65088
785.10 24.15905
785.20 21.15983
785.30 18.62524
785.40 17.2341
785.50 17.3339
785.60 18.96353
785.70 21.8333
785.80 25.46764
785.90 29.35605
786.00 32.92837
786.10 35.79946
786.20 37.92585
786.30 39.36839
786.40 40.34557
786.50 40.98466
786.60 41.00268
786.70 40.25315
786.80 38.96214
786.90 37.46854
787.00 36.16872
787.10 35.48066
787.20 35.60083
787.30 36.4531
787.40 37.80967
787.50 39.37539
787.60 40.88502
787.70 42.07193
787.80 42.77263
787.90 43.0216
788.00 43.05322
788.10 43.16466
788.20 43.46525
788.30 43.86255
788.40 44.27159
788.50 44.62691
788.60 44.74316
788.70 44.37096
788.80 43.31465
788.90 41.64094
789.00 39.72477
789.10 38.02519
789.20 36.93537
789.30 36.76254
789.40 37.62841
789.50 39.40005
789.60 41.7946
789.70 44.43493
789.80 46.80941
789.90 48.45903
790.00 49.23491
790.10 49.20985
790.20 48.6041
790.30 47.65177
790.40 46.47129
790.50 45.27496
790.60 44.38175
790.70 43.88794
790.80 43.47008
790.90 42.68846
791.00 41.38103
791.10 39.84771
791.20 38.63061
791.30 38.14074
791.40 38.56864
791.50 39.90068
791.60 41.8909
791.70 44.09665
791.80 46.10611
791.90 47.53268
792.00 48.09622
792.10 47.84205
792.20 47.17205
792.30 46.60926
792.40 46.51399
792.50 46.8935
792.60 47.5576
792.70 48.40128
792.80 49.31985
792.90 50.20818
793.00 50.94884
793.10 51.49763
793.20 51.87919
793.30 52.10321
793.40 52.10228
793.50 51.78393
793.60 51.20832
793.70 50.58557
793.80 50.13531
793.90 49.95852
794.00 49.954
794.10 49.81427
794.20 49.16951
794.30 47.62935
794.40 45.05182
794.50 41.59271
794.60 37.57585
794.70 33.55867
794.80 30.23026
794.90 28.21352
795.00 27.90934
795.10 29.4154
795.20 32.5184
795.30 36.75023
795.40 41.52017
795.50 46.1686
795.60 50.11552
795.70 53.05619
795.80 54.91677
795.90 55.85874
796.00 56.06893
796.10 55.56927
796.20 54.43236
796.30 52.94976
796.40 51.5264
796.50 50.53888
796.60 50.18024
796.70 50.48558
796.80 51.45435
796.90 53.0218
797.00 55.0212
797.10 57.17273
797.20 59.0569
797.30 60.2524
797.40 60.68335
797.50 60.67704
797.60 60.6139
797.70 60.73406
797.80 61.15736
797.90 61.799
798.00 62.58685
798.10 63.45232
798.20 64.16442
798.30 64.54099
798.40 64.5348
798.50 64.2196
798.60 63.71121
798.70 63.0233
798.80 62.10147
798.90 61.03002
799.00 59.91484
799.10 58.70597
799.20 57.4835
799.30 56.61172
799.40 56.44572
799.50 57.22597
799.60 59.03241
799.70 61.64833
799.80 64.66082
799.90 67.62268
800.00 70.20954
800.10 72.23819
800.20 73.58838
800.30 74.12783
800.40 73.90621
800.50 73.32486
800.60 72.769
800.70 72.32243
800.80 71.99056
800.90 71.84071
801.00 71.86771
801.10 72.02423
801.20 72.26915
801.30 72.54711
801.40 72.76417
801.50 72.84933
801.60 72.87139
801.70 72.97161
801.80 73.27765
801.90 73.80398
802.00 74.41158
802.10 74.91616
802.20 74.93376
802.30 73.97837
802.40 72.05923
802.50 69.72839
802.60 67.70956
802.70 66.55811
802.80 66.55347
802.90 67.7275
803.00 69.81448
803.10 72.39132
803.20 75.00892
803.30 77.21673
803.40 78.67871
803.50 79.31556
803.60 79.36519
803.70 79.23108
803.80 79.13526
803.90 79.04636
804.00 78.86833
804.10 78.63926
804.20 78.51587
804.30 78.66261
804.40 79.24063
804.50 80.30507
804.60 81.72327
804.70 83.25563
804.80 84.65875
804.90 85.7334
805.00 86.40065
805.10 86.73558
805.20 86.87133
805.30 86.9152
805.40 86.91531
805.50 86.83767
805.60 86.68076
805.70 86.409
805.80 85.95543
805.90 85.36122
806.00 84.70616
806.10 84.12711
806.20 83.87177
806.30 84.18256
806.40 85.18355
806.50 86.81062
806.60 88.82591
806.70 90.92851
806.80 92.8291
806.90 94.27745
807.00 95.06071
807.10 95.16256
807.20 94.70913
807.30 93.85037
807.40 92.83973
807.50 91.96306
807.60 91.36571
807.70 91.07201
807.80 90.9811
807.90 90.8775
808.00 90.60707
808.10 90.18965
808.20 89.77967
808.30 89.58805
808.40 89.80286
808.50 90.43532
808.60 91.2913
808.70 92.0769
808.80 92.59875
808.90 92.83009
809.00 92.84864
809.10 92.77124
809.20 92.69441
809.30 92.70604
809.40 92.88047
809.50 93.15771
809.60 93.36148
809.70 93.27857
809.80 92.70721
809.90 91.61962
810.00 90.2017
810.10 88.76476
810.20 87.62011
810.30 86.97663
810.40 87.00044
810.50 87.79609
810.60 89.38834
810.70 91.66979
810.80 94.30621
810.90 96.8868
811.00 99.02962
811.10 100.4999
811.20 101.2952
811.30 101.6097
811.40 101.7066
811.50 101.7786
811.60 101.9359
811.70 102.245
811.80 102.6683
811.90 103.1004
812.00 103.4346
812.10 103.6267
812.20 103.7672
812.30 103.9589
812.40 104.2427
812.50 104.638
812.60 105.174
812.70 105.7805
812.80 106.2911
812.90 106.5007
813.00 106.2441
813.10 105.5004
813.20 104.365
813.30 103.0738
813.40 101.9853
813.50 101.4094
813.60 101.4396
813.70 101.967
813.80 102.7744
813.90 103.578
814.00 104.0804
814.10 104.1108
814.20 103.727
814.30 103.2933
814.40 103.2229
814.50 103.6727
814.60 104.5575
814.70 105.5212
814.80 106.1877
814.90 106.3703
815.00 106.0019
815.10 105.1945
815.20 104.2393
815.30 103.5075
815.40 103.3499
815.50 103.9552
815.60 105.2976
815.70 107.073
815.80 108.8166
815.90 110.2037
816.00 111.2032
816.10 112.0127
816.20 112.7796
816.30 113.521
816.40 114.2836
816.50 115.1713
816.60 116.2308
816.70 117.3525
816.80 118.3406
816.90 119.0319
817.00 119.3528
817.10 119.3104
817.20 118.9425
817.30 118.1426
817.40 116.7283
817.50 114.7216
817.60 112.3178
817.70 109.8238
817.80 107.5041
817.90 105.4184
818.00 103.5267
818.10 101.8401
818.20 100.4803
818.30 99.60735
818.40 99.23059
818.50 99.20364
818.60 99.35351
818.70 99.647
818.80 100.0524
818.90 100.2234
819.00 99.58563
819.10 97.71542
819.20 94.6599
819.30 90.91449
819.40 87.30655
819.50 84.75527
819.60 83.86386
819.70 84.82662
819.80 87.60039
819.90 91.89696
820.00 97.16315
820.10 102.6893
820.20 107.8174
820.30 112.1932
820.40 115.8349
820.50 118.8617
820.60 121.2989
820.70 123.1593
820.80 124.4472
820.90 125.1843
821.00 125.4229
821.10 125.2049
821.20 124.6053
821.30 123.8368
821.40 123.1966
821.50 122.9138
821.60 123.0461
821.70 123.4711
821.80 124.0244
821.90 124.6069
822.00 125.2116
822.10 125.8783
822.20 126.6103
822.30 127.3538
822.40 128.0537
822.50 128.7989
822.60 129.7298
822.70 130.8492
822.80 132.0971
822.90 133.3708
823.00 134.445
823.10 135.0413
823.20 134.9706
823.30 134.2199
823.40 132.9507
823.50 131.3994
823.60 129.8496
823.70 128.6542
823.80 128.1723
823.90 128.4613
824.00 129.266
824.10 130.2779
824.20 131.1698
824.30 131.721
824.40 131.9093
824.50 131.8922
824.60 131.9055
824.70 132.1312
824.80 132.6691
824.90 133.5489
825.00 134.674
825.10 135.777
825.20 136.4548
825.30 136.3939
825.40 135.5097
825.50 133.9495
825.60 132.1326
825.70 130.5973
825.80 129.8264
825.90 130.1129
826.00 131.4001
826.10 133.3817
826.20 135.6559
826.30 137.7697
826.40 139.2904
826.50 139.9058
826.60 139.6311
826.70 138.7443
826.80 137.6297
826.90 136.7281
827.00 136.3887
827.10 136.7148
827.20 137.559
827.30 138.778
827.40 140.2649
827.50 141.7067
827.60 142.6076
827.70 142.532
827.80 141.3905
827.90 139.4316
828.00 136.993
828.10 134.4673
828.20 132.2247
828.30 130.4635
828.40 129.217
828.50 128.5041
828.60 128.3774
828.70 128.5574
828.80 128.7145
828.90 128.8845
829.00 129.1674
829.10 129.6447
829.20 130.3266
829.30 131.1554
829.40 132.0322
829.50 132.8174
829.60 133.2292
829.70 132.9815
829.80 132.2931
829.90 131.6605
830.00 131.4158
830.10 131.8637
830.20 133.1909
830.30 135.2016
830.40 137.4286
830.50 139.3132
830.60 140.3835
830.70 140.3704
830.80 139.2872
830.90 137.4488
831.00 135.5504
831.10 134.2752
831.20 133.7116
831.30 133.6543
831.40 134.0034
831.50 134.8565
831.60 136.2772
831.70 138.1034
831.80 140.1995
831.90 142.4946
832.00 144.8148
832.10 146.8667
832.20 148.3568
832.30 149.0669
832.40 148.902
832.50 148.0861
832.60 147.1424
832.70 146.6359
832.80 146.964
832.90 148.096
833.00 149.641
833.10 151.1752
833.20 152.3601
833.30 152.9759
833.40 152.9647
833.50 152.4717
833.60 151.679
833.70 150.8332
833.80 150.3194
833.90 150.4345
834.00 151.0149
834.10 151.3225
834.20 150.4485
834.30 147.9679
834.40 144.315
834.50 140.4734
834.60 137.453
834.70 135.9432
834.80 136.1705
834.90 137.9184
835.00 140.7741
835.10 144.1866
835.20 147.4975
835.30 150.135
835.40 151.9031
835.50 153.1184
835.60 154.3289
835.70 155.7908
835.80 157.1917
835.90 158.0896
836.00 158.33
836.10 158.1197
836.20 157.912
836.30 158.1592
836.40 159.1482
836.50 160.9399
836.60 163.2862
836.70 165.7003
836.80 167.5094
836.90 168.1003
837.00 167.2821
837.10 165.274
837.20 162.591
837.30 159.9036
837.40 157.6914
837.50 155.9878
837.60 154.6914
837.70 153.8401
837.80 153.4967
837.90 153.4457
838.00 153.3846
838.10 153.2664
838.20 153.244
838.30 153.4667
838.40 153.8833
838.50 154.3951
838.60 155.0328
838.70 155.7739
838.80 156.4717
838.90 157.1074
839.00 157.7141
839.10 158.2346
839.20 158.5929
839.30 159.0005
839.40 159.7702
839.50 160.9062
839.60 162.1156
839.70 163.068
839.80 163.6294
839.90 163.7624
840.00 163.439
840.10 162.7364
840.20 161.8943
840.30 161.2062
840.40 160.9364
840.50 161.1877
840.60 161.9588
840.70 163.2082
840.80 164.8211
840.90 166.6238
841.00 168.5939
841.10 170.8057
841.20 173.1849
841.30 175.546
841.40 177.6444
841.50 179.1872
841.60 179.9389
841.70 179.8262
841.80 178.9009
841.90 177.4303
842.00 175.8145
842.10 174.3621
842.20 173.1934
842.30 172.1575
842.40 170.8765
842.50 169.0579
842.60 166.8591
842.70 164.7455
842.80 163.1608
842.90 162.4017
843.00 162.5805
843.10 163.6634
843.20 165.4494
843.30 167.4958
843.40 169.2399
843.50 170.1255
843.60 169.6929
843.70 167.8795
843.80 165.1238
843.90 162.0422
844.00 159.0843
844.10 156.589
844.20 154.843
844.30 154.0018
844.40 154.0815
844.50 154.9472
844.60 156.3932
844.70 158.2517
844.80 160.1977
844.90 161.7483
845.00 162.5539
845.10 162.451
845.20 161.4629
845.30 159.807
845.40 157.7986
845.50 155.7379
845.60 153.9552
845.70 152.8644
845.80 152.6751
845.90 153.3397
846.00 154.5442
846.10 155.6126
846.20 155.6532
846.30 154.0342
846.40 151.0296
846.50 147.6951
846.60 145.0685
846.70 143.7868
846.80 144.0942
846.90 145.888
847.00 148.7707
847.10 152.0233
847.20 154.9481
847.30 157.031
847.40 157.9584
847.50 157.7352
847.60 156.8502
847.70 156.0444
847.80 155.6151
847.90 155.3391
848.00 154.9718
848.10 154.479
848.20 154.0256
848.30 153.8682
848.40 154.092
848.50 154.6477
848.60 155.475
848.70 156.406
848.80 157.2026
848.90 157.6747
849.00 157.7789
849.10 157.5612
849.20 157.0805
849.30 156.4954
849.40 156.0339
849.50 155.815
849.60 155.7747
849.70 155.8121
849.80 155.867
849.90 155.9312
850.00 156.0047
850.10 156.0526
850.20 155.9795
850.30 155.7622
850.40 155.5453
850.50 155.4937
850.60 155.5705
850.70 155.4857
850.80 154.9511
850.90 153.9947
851.00 152.9347
851.10 152.0844
851.20 151.6079
851.30 151.4291
851.40 151.1491
851.50 150.0637
851.60 147.4331
851.70 142.6797
851.80 135.5262
851.90 126.2923
852.00 116.0528
852.10 106.4915
852.20 99.38193
852.30 96.05467
852.40 97.04071
852.50 102.0181
852.60 110.0347
852.70 119.7845
852.80 129.8752
852.90 139.1678
853.00 146.9933
853.10 153.148
853.20 157.7352
853.30 161.0259
853.40 163.3825
853.50 165.1088
853.60 166.4091
853.70 167.324
853.80 167.8574
853.90 168.1314
854.00 168.3668
854.10 168.7315
854.20 169.2565
854.30 169.892
854.40 170.5777
854.50 171.3528
854.60 172.3917
854.70 173.8401
854.80 175.5973
854.90 177.3469
855.00 178.8166
855.10 179.88
855.20 180.4684
855.30 180.5598
855.40 180.1458
855.50 179.2823
855.60 178.2354
855.70 177.4336
855.80 177.2104
855.90 177.6374
856.00 178.5493
856.10 179.7078
856.20 181.016
856.30 182.4063
856.40 183.5623
856.50 184.0637
856.60 183.7498
856.70 182.7509
856.80 181.3331
856.90 179.8724
857.00 178.7344
857.10 178.1743
857.20 178.3011
857.30 179.0836
857.40 180.408
857.50 182.0182
857.60 183.489
857.70 184.4517
857.80 184.8439
857.90 184.8765
858.00 184.858
858.10 184.9628
858.20 185.2106
858.30 185.58
858.40 186.0771
858.50 186.7673
858.60 187.6494
858.70 188.6154
858.80 189.5333
858.90 190.3111
859.00 190.8702
859.10 191.2281
859.20 191.5169
859.30 191.8104
859.40 192.0174
859.50 192.0985
859.60 192.1652
859.70 192.2774
859.80 192.4093
859.90 192.4536
860.00 192.2966
860.10 191.8928
860.20 191.2701
860.30 190.3735
860.40 189.0855
860.50 187.2716
860.60 184.7583
860.70 181.439
860.80 177.2457
860.90 172.0642
861.00 165.8729
861.10 158.871
861.20 151.4039
861.30 143.7436
861.40 136.1389
861.50 129.0229
861.60 122.8189
861.70 117.7091
861.80 113.6286
861.90 110.3703
862.00 107.626
862.10 105.1666
862.20 103.01
862.30 101.3663
862.40 100.4353
862.50 100.2792
862.60 100.7062
862.70 101.4787
862.80 102.322
862.90 102.62
863.00 101.5831
863.10 98.88124
863.20 94.95255
863.30 90.6244
863.40 86.79146
863.50 84.19473
863.60 83.2123
863.70 83.78843
863.80 85.57147
863.90 88.12137
864.00 91.06726
864.10 94.00667
864.20 96.48446
864.30 98.33826
864.40 99.85041
864.50 101.4015
864.60 103.1242
864.70 104.9702
864.80 106.8553
864.90 108.5648
865.00 109.8951
865.10 110.9831
865.20 112.1792
865.30 113.6845
865.40 115.5325
865.50 117.8074
865.60 120.7542
865.70 124.3451
865.80 128.0261
865.90 131.14
866.00 133.3846
866.10 134.8615
866.20 135.8332
866.30 136.6221
866.40 137.4122
866.50 138.0792
866.60 138.3621
866.70 138.0915
866.80 137.2298
866.90 135.7592
867.00 133.7649
867.10 131.7254
867.20 130.4033
867.30 130.4152
867.40 131.8343
867.50 134.1478
867.60 136.5799
867.70 138.4017
867.80 139.112
867.90 138.5004
868.00 136.5862
868.10 133.6513
868.20 130.3128
868.30 127.4813
868.40 126.0118
868.50 126.2794
868.60 128.0829
868.70 130.7663
868.80 133.3225
868.90 134.7004
869.00 134.0886
869.10 131.1244
869.20 126.0745
869.30 119.7192
869.40 113.1743
869.50 107.6255
869.60 103.9174
869.70 102.3465
869.80 102.7044
869.90 104.4229
870.00 106.7646
870.10 109.0227
870.20 110.731
870.30 111.6636
870.40 111.8111
870.50 111.2484
870.60 110.09
870.70 108.4556
870.80 106.4074
870.90 104.0855
871.00 101.7283
871.10 99.61561
871.20 98.03373
871.30 97.1642
871.40 97.00954
871.50 97.37402
871.60 97.92592
871.70 98.42247
871.80 98.78836
871.90 99.06481
872.00 99.28473
872.10 99.54928
872.20 100.0929
872.30 101.0621
872.40 102.5208
872.50 104.4462
872.60 106.595
872.70 108.6588
872.80 110.4227
872.90 111.7792
873.00 112.7412
873.10 113.3345
873.20 113.557
873.30 113.5121
873.40 113.4898
873.50 113.7578
873.60 114.3693
873.70 115.2855
873.80 116.4372
873.90 117.7199
874.00 119.0989
874.10 120.5626
874.20 122.0859
874.30 123.6012
874.40 124.9621
874.50 126.0472
874.60 126.7968
874.70 127.1593
874.80 127.0861
874.90 126.6409
875.00 126.0271
875.10 125.4792
875.20 125.1565
875.30 125.1504
875.40 125.5349
875.50 126.2551
875.60 126.8862
875.70 126.9702
875.80 126.2733
875.90 124.758
876.00 122.6906
876.10 120.559
876.20 118.7785
876.30 117.4822
876.40 116.3315
876.50 114.8862
876.60 113.0627
876.70 110.8912
876.80 108.7481
876.90 107.4736
877.00 108.1664
877.10 111.7159
877.20 118.3267
877.30 127.3693
877.40 137.3309
877.50 146.0872
877.60 151.5477
877.70 152.6091
877.80 149.916
877.90 144.998
878.00 139.2009
878.10 133.8486
878.20 129.7111
878.30 126.8505
878.40 125.08
878.50 124.0358
878.60 123.4409
878.70 123.3073
878.80 123.7635
878.90 124.9463
879.00 127.0374
879.10 129.9558
879.20 133.3434
879.30 136.8565
879.40 140.2473
879.50 143.2554
879.60 145.6604
879.70 147.301
879.80 147.9728
879.90 147.4814
880.00 145.6533
880.10 142.3705
880.20 137.8706
880.30 132.8293
880.40 128.0506
880.50 124.2735
880.60 121.8838
880.70 120.9482
880.80 121.515
880.90 123.5811
881.00 127.1315
881.10 132.1155
881.20 138.3237
881.30 145.3831
881.40 152.7677
881.50 159.8593
881.60 165.9617
881.70 170.3922
881.80 172.7987
881.90 173.1898
882.00 171.7561
882.10 168.9097
882.20 165.1697
882.30 160.9574
882.40 156.3583
882.50 151.3122
882.60 145.8696
882.70 140.48
882.80 135.9284
882.90 132.9025
883.00 131.8636
883.10 133.0286
883.20 136.2359
883.30 140.899
883.40 146.2361
883.50 151.2636
883.60 155.2197
883.70 157.9943
883.80 159.9781
883.90 161.587
884.00 163.0693
884.10 164.2482
884.20 164.6557
884.30 163.921
884.40 161.7065
884.50 157.7667
884.60 152.3243
884.70 146.3195
884.80 140.9779
884.90 137.5198
885.00 136.7339
885.10 138.7031
885.20 142.9147
885.30 148.3796
885.40 153.8599
885.50 158.25
885.60 160.8117
885.70 161.2531
885.80 160.0468
885.90 158.4353
886.00 157.6636
886.10 158.2709
886.20 160.1607
886.30 162.9155
886.40 165.8723
886.50 168.0773
886.60 168.5927
886.70 166.9809
886.80 163.4516
886.90 158.551
887.00 153.017
887.10 147.8593
887.20 144.1016
887.30 142.4623
887.40 143.3888
887.50 147.1172
887.60 153.4743
887.70 161.6984
887.80 170.7212
887.90 179.3765
888.00 186.634
888.10 191.7652
888.20 194.243
888.30 193.9814
888.40 191.5286
888.50 187.8829
888.60 184.2704
888.70 181.8009
888.80 180.9004
888.90 181.4025
889.00 182.7943
889.10 184.2665
889.20 184.8134
889.30 183.6598
889.40 180.5482
889.50 175.686
889.60 169.979
889.70 164.8231
889.80 161.3294
889.90 159.8141
890.00 159.8375
890.10 160.6037
890.20 161.5659
890.30 162.4179
890.40 162.8974
890.50 162.9083
890.60 162.5375
890.70 162.0054
890.80 161.6535
890.90 161.8819
891.00 162.8592
891.10 164.5612
891.20 166.9933
891.30 170.196
891.40 174.23
891.50 179.0106
891.60 184.0625
891.70 188.3287
891.80 190.767
891.90 190.8708
892.00 188.5594
892.10 184.2118
892.20 178.5021
892.30 172.3236
892.40 166.6954
892.50 162.4613
892.60 160.1911
892.70 160.309
892.80 162.9229
892.90 167.7487
893.00 174.1951
893.10 181.6398
893.20 189.2336
893.30 195.7068
893.40 199.8504
893.50 200.8363
893.60 198.3379
893.70 192.3659
893.80 183.3519
893.90 172.288
894.00 160.5201
894.10 149.2352
894.20 139.2645
894.30 131.3738
894.40 126.3169
894.50 124.5406
894.60 126.0083
894.70 130.2877
894.80 136.5955
894.90 143.924
895.00 151.3757
895.10 158.358
895.20 164.6124
895.30 170.3589
895.40 175.9378
895.50 181.6051
895.60 187.4091
895.70 193.0476
895.80 198.1242
895.90 202.0447
896.00 204.1108
896.10 203.908
896.20 201.4672
896.30 197.162
896.40 191.5214
896.50 185.3116
896.60 179.5606
896.70 175.0163
896.80 172.125
896.90 171.3253
897.00 173.0403
897.10 177.2475
897.20 183.0897
897.30 189.4676
897.40 195.4686
897.50 200.307
897.60 203.4812
897.70 204.8372
897.80 204.5106
897.90 202.9808
898.00 201.0089
898.10 199.5011
898.20 199.3591
898.30 201.2542
898.40 205.3489
898.50 211.1207
898.60 217.4934
898.70 222.7609
898.80 225.4084
898.90 225.0636
899.00 222.0543
899.10 217.107
899.20 211.3379
899.30 205.8211
899.40 201.1141
899.50 197.2953
899.60 194.3696
899.70 192.3235
899.80 191.1203
899.90 190.9455
900.00 191.1099
900.10 191.2742
900.20 191.4386
900.30 191.6029
900.40 191.7673
900.50 191.9317
900.60 192.096
900.70 192.2604
900.80 192.4247
900.90 192.5891
901.00 192.7534
901.10 192.9178
901.20 193.0821
901.30 193.2465
901.40 193.4109
901.50 193.5752
901.60 193.7396
901.70 193.9039
901.80 194.0683
901.90 194.2326
902.00 194.397
902.10 194.5613
902.20 194.7257
902.30 194.8901
902.40 195.0544
902.50 195.2188
902.60 195.5407
902.70 196.4553
902.80 197.3699
902.90 198.2845
903.00 199.1991
903.10 200.1137
903.20 201.0283
903.30 201.9213
903.40 202.7817
903.50 203.6422
903.60 204.5026
903.70 205.3631
903.80 206.2235
903.90 207.084
904.00 207.9444
904.10 208.8049
904.20 209.6653
904.30 210.5258
904.40 211.3862
904.50 212.2467
904.60 213.1071
904.70 213.9676
904.80 214.828
904.90 215.6885
905.00 216.5489
905.10 217.4094
905.20 218.2698
905.30 219.1303
905.40 219.9907
905.50 220.8512
905.60 221.7116
905.70 222.5721
905.80 223.4325
905.90 224.293
906.00 225.1534
906.10 225.7692
906.20 226.372
906.30 226.9749
906.40 227.5778
906.50 228.1806
906.60 228.7835
906.70 229.3641
906.80 229.7446
906.90 230.1251
907.00 230.5056
907.10 230.8861
907.20 231.2666
907.30 231.6471
907.40 232.0276
907.50 232.4081
907.60 232.7886
907.70 233.1691
907.80 233.5496
907.90 233.9301
908.00 234.3105
908.10 234.691
908.20 235.0715
908.30 235.452
908.40 235.8325
908.50 236.213
908.60 236.5935
908.70 236.974
908.80 237.3545
908.90 237.735
909.00 238.1155
909.10 238.496
909.20 238.8765
909.30 239.2569
909.40 239.6374
909.50 239.9874
909.60 240.3079
909.70 240.6284
909.80 240.949
909.90 241.2695
910.00 241.5901
910.10 241.9106
910.20 242.3446
910.30 242.8482
910.40 243.3518
910.50 243.8554
910.60 244.359
910.70 244.8625
910.80 245.3661
910.90 245.8697
911.00 246.3733
911.10 246.8769
911.20 247.3805
911.30 247.884
911.40 248.3876
911.50 248.8912
911.60 249.3948
911.70 249.8984
911.80 250.4019
911.90 250.9055
912.00 251.4091
912.10 251.9127
912.20 252.4163
912.30 252.9198
912.40 253.4234
912.50 253.927
912.60 254.4306
912.70 254.9342
912.80 255.4378
912.90 255.9413
913.00 256.22
913.10 256.468
913.20 256.7159
913.30 256.9639
913.40 257.2119
913.50 257.4599
913.60 257.7078
913.70 257.9405
913.80 258.1725
913.90 258.4046
914.00 258.6366
914.10 258.8686
914.20 259.1007
914.30 259.3327
914.40 259.5648
914.50 259.7968
914.60 260.0288
914.70 260.2609
914.80 260.4929
914.90 260.7249
915.00 260.957
915.10 261.189
915.20 261.421
915.30 261.6531
915.40 261.8851
915.50 262.1172
915.60 262.3492
915.70 262.5812
915.80 262.8133
915.90 263.0453
916.00 263.2773
916.10 263.5094
916.20 263.7414
916.30 263.9735
916.40 264.2163
916.50 264.5834
916.60 264.9506
916.70 265.3177
916.80 265.6848
916.90 266.0519
917.00 266.4191
917.10 266.7731
917.20 267.0311
917.30 267.2891
917.40 267.547
917.50 267.805
917.60 268.063
917.70 268.321
917.80 268.579
917.90 268.8369
918.00 269.0949
918.10 269.3529
918.20 269.6109
918.30 269.8689
918.40 270.1268
918.50 270.3848
918.60 270.6428
918.70 270.9008
918.80 271.1588
918.90 271.4167
919.00 271.6747
919.10 271.9327
919.20 272.1907
919.30 272.4487
919.40 272.7067
919.50 272.9646
919.60 273.2226
919.70 273.4806
919.80 273.7386
919.90 273.9746
920.00 274.0127
920.10 274.0508
920.20 274.0889
920.30 274.127
920.40 274.1651
920.50 274.2032
920.60 274.2451
920.70 274.318
920.80 274.391
920.90 274.4639
921.00 274.5369
921.10 274.6099
921.20 274.6828
921.30 274.7558
921.40 274.8287
921.50 274.9017
921.60 274.9746
921.70 275.0476
921.80 275.1206
921.90 275.1935
922.00 275.2665
922.10 275.3394
922.20 275.4124
922.30 275.4853
922.40 275.5583
922.50 275.6312
922.60 275.7042
922.70 275.7772
922.80 275.8501
922.90 275.9231
923.00 275.996
923.10 276.069
923.20 276.1419
923.30 276.2149
923.40 276.2878
923.50 276.8088
923.60 277.3583
923.70 277.9079
923.80 278.4574
923.90 279.007
924.00 279.5565
924.10 280.1061
924.20 280.6201
924.30 281.1311
924.40 281.6421
924.50 282.1531
924.60 282.6641
924.70 283.1751
924.80 283.6861
924.90 284.1971
925.00 284.7081
925.10 285.2191
925.20 285.7301
925.30 286.2411
925.40 286.7521
925.50 287.2631
925.60 287.7741
925.70 288.2851
925.80 288.796
925.90 289.307
926.00 289.818
926.10 290.329
926.20 290.84
926.30 291.351
926.40 291.862
926.50 292.373
926.60 292.884
926.70 293.395
926.80 293.906
926.90 294.417
927.00 294.7219
927.10 294.8952
927.20 295.0684
927.30 295.2417
927.40 295.4149
927.50 295.5881
927.60 295.7614
927.70 296.0215
927.80 296.3527
927.90 296.684
928.00 297.0152
928.10 297.3464
928.20 297.6777
928.30 298.0089
928.40 298.3401
928.50 298.6714
928.60 299.0026
928.70 299.3338
928.80 299.6651
928.90 299.9963
929.00 300.3275
929.10 300.6588
929.20 300.99
929.30 301.3212
929.40 301.6525
929.50 301.9837
929.60 302.3149
929.70 302.6462
929.80 302.9774
929.90 303.3086
930.00 303.6399
930.10 303.9711
930.20 304.3023
930.30 304.6336
930.40 304.9648
930.50 305.285
930.60 305.5161
930.70 305.7472
930.80 305.9783
930.90 306.2094
931.00 306.4405
931.10 306.6715
931.20 306.9008
931.30 307.042
931.40 307.1831
931.50 307.3243
931.60 307.4655
931.70 307.6066
931.80 307.7478
931.90 307.8889
932.00 308.0301
932.10 308.1713
932.20 308.3124
932.30 308.4536
932.40 308.5947
932.50 308.7359
932.60 308.877
932.70 309.0182
932.80 309.1594
932.90 309.3005
933.00 309.4417
933.10 309.5828
933.20 309.724
933.30 309.8651
933.40 310.0063
933.50 310.1475
933.60 310.2886
933.70 310.4298
933.80 310.5709
933.90 310.7121
934.00 310.8532
934.10 311.1146
934.20 311.5291
934.30 311.9435
934.40 312.3579
934.50 312.7723
934.60 313.1868
934.70 313.6012
934.80 314.0204
934.90 314.4504
935.00 314.8803
935.10 315.3102
935.20 315.7401
935.30 316.1701
935.40 316.6
935.50 317.0299
935.60 317.4599
935.70 317.8898
935.80 318.3197
935.90 318.7496
936.00 319.1796
936.10 319.6095
936.20 320.0394
936.30 320.4694
936.40 320.8993
936.50 321.3292
936.60 321.7591
936.70 322.1891
936.80 322.619
936.90 323.0489
937.00 323.4789
937.10 323.9088
937.20 324.3387
937.30 324.7686
937.40 325.1986
937.50 325.6285
937.60 326.0584
937.70 326.4267
937.80 326.7539
937.90 327.0811
938.00 327.4083
938.10 327.7355
938.20 328.0627
938.30 328.3899
938.40 328.7285
938.50 329.0824
938.60 329.4362
938.70 329.79
938.80 330.1438
938.90 330.4976
939.00 330.8515
939.10 331.2053
939.20 331.5591
939.30 331.9129
939.40 332.2667
939.50 332.6205
939.60 332.9744
939.70 333.3282
939.80 333.682
939.90 334.0358
940.00 334.3896
940.10 334.7435
940.20 335.0973
940.30 335.4511
940.40 335.8049
940.50 336.1587
940.60 336.5126
940.70 336.8664
940.80 337.2202
940.90 337.574
941.00 337.9278
941.10 338.2817
941.20 338.6355
941.30 339.1176
941.40 339.6888
941.50 340.26
941.60 340.8312
941.70 341.4025
941.80 341.9737
941.90 342.5449
942.00 343.1099
942.10 343.665
942.20 344.2202
942.30 344.7753
942.40 345.3304
942.50 345.8856
942.60 346.4407
942.70 346.9959
942.80 347.551
942.90 348.1061
943.00 348.6613
943.10 349.2164
943.20 349.7716
943.30 350.3267
943.40 350.8818
943.50 351.437
943.60 351.9921
943.70 352.5473
943.80 353.1024
943.90 353.6575
944.00 354.2127
944.10 354.7678
944.20 355.323
944.30 355.8781
944.40 356.4332
944.50 356.9884
944.60 357.5435
944.70 358.0987
944.80 358.6538
944.90 359.1607
945.00 359.5981
945.10 360.0355
945.20 360.473
945.30 360.9104
945.40 361.3478
945.50 361.7853
945.60 362.2018
945.70 362.523
945.80 362.8443
945.90 363.1655
946.00 363.4868
946.10 363.808
946.20 364.1293
946.30 364.4505
946.40 364.7717
946.50 365.093
946.60 365.4142
946.70 365.7355
946.80 366.0567
946.90 366.3779
947.00 366.6992
947.10 367.0204
947.20 367.3417
947.30 367.6629
947.40 367.9842
947.50 368.3054
947.60 368.6266
947.70 368.9479
947.80 369.2691
947.90 369.5904
948.00 369.9116
948.10 370.2329
948.20 370.5541
948.30 370.8753
948.40 371.1966
948.50 371.4899
948.60 371.4121
948.70 371.3344
948.80 371.2566
948.90 371.1789
949.00 371.1011
949.10 371.0233
949.20 370.9456
949.30 370.8914
949.40 370.8428
949.50 370.7941
949.60 370.7455
949.70 370.6968
949.80 370.6482
949.90 370.5996
950.00 370.5509
950.10 370.5023
950.20 370.4536
950.30 370.405
950.40 370.3563
950.50 370.3077
950.60 370.2591
950.70 370.2104
950.80 370.1618
950.90 370.1131
951.00 370.0645
951.10 370.0159
951.20 369.9672
951.30 369.9186
951.40 369.8699
951.50 369.8213
951.60 369.7727
951.70 369.724
951.80 369.6754
951.90 369.6267
952.00 369.5781
952.10 369.5295
952.20 369.652
952.30 369.909
952.40 370.1659
952.50 370.4229
952.60 370.6799
952.70 370.9369
952.80 371.1939
952.90 371.4575
953.00 371.7392
953.10 372.0209
953.20 372.3026
953.30 372.5842
953.40 372.8659
953.50 373.1476
953.60 373.4293
953.70 373.7109
953.80 373.9926
953.90 374.2743
954.00 374.556
954.10 374.8376
954.20 375.1193
954.30 375.401
954.40 375.6827
954.50 375.9643
954.60 376.246
954.70 376.5277
954.80 376.8093
954.90 377.091
955.00 377.3727
955.10 377.6544
955.20 377.936
955.30 378.2177
955.40 378.4994
955.50 378.7811
955.60 379.0627
955.70 379.3444
955.80 379.6261
955.90 379.7273
956.00 379.8084
956.10 379.8895
956.20 379.9706
956.30 380.0517
956.40 380.1328
956.50 380.2139
956.60 380.3071
956.70 380.4095
956.80 380.5118
956.90 380.6141
957.00 380.7164
957.10 380.8188
957.20 380.9211
957.30 381.0234
957.40 381.1257
957.50 381.2281
957.60 381.3304
957.70 381.4327
957.80 381.535
957.90 381.6373
958.00 381.7397
958.10 381.842
958.20 381.9443
958.30 382.0466
958.40 382.149
958.50 382.2513
958.60 382.3536
958.70 382.4559
958.80 382.5583
958.90 382.6606
959.00 382.7629
959.10 382.8652
959.20 382.9676
959.30 383.0699
959.40 383.1722
959.50 383.2725
959.60 383.3459
959.70 383.4193
959.80 383.4927
959.90 383.566
960.00 383.6394
960.10 383.7128
960.20 383.7862
960.30 383.9119
960.40 384.0589
960.50 384.206
960.60 384.3531
960.70 384.5002
960.80 384.6472
960.90 384.7943
961.00 384.9414
961.10 385.0885
961.20 385.2356
961.30 385.3826
961.40 385.5297
961.50 385.6768
961.60 385.8239
961.70 385.9709
961.80 386.118
961.90 386.2651
962.00 386.4122
962.10 386.5592
962.20 386.7063
962.30 386.8534
962.40 387.0005
962.50 387.1476
962.60 387.2946
962.70 387.4417
962.80 387.5888
962.90 387.7359
963.00 387.8829
963.10 388.03
963.20 388.2067
963.30 388.6825
963.40 389.1582
963.50 389.634
963.60 390.1098
963.70 390.5856
963.80 391.0613
963.90 391.5371
964.00 391.9588
964.10 392.3573
964.20 392.7558
964.30 393.1543
964.40 393.5528
964.50 393.9512
964.60 394.3497
964.70 394.7482
964.80 395.1467
964.90 395.5452
965.00 395.9437
965.10 396.3422
965.20 396.7407
965.30 397.1391
965.40 397.5376
965.50 397.9361
965.60 398.3346
965.70 398.7331
965.80 399.1316
965.90 399.5301
966.00 399.9286
966.10 400.327
966.20 400.7255
966.30 401.124
966.40 401.5225
966.50 401.921
966.60 402.3195
966.70 402.718
966.80 403.1165
966.90 403.5149
967.00 403.8609
967.10 404.2041
967.20 404.5473
967.30 404.8905
967.40 405.2338
967.50 405.577
967.60 405.9202
967.70 406.2858
967.80 406.6714
967.90 407.0569
968.00 407.4425
968.10 407.828
968.20 408.2136
968.30 408.5991
968.40 408.9846
968.50 409.3702
968.60 409.7557
968.70 410.1413
968.80 410.5268
968.90 410.9124
969.00 411.2979
969.10 411.6835
969.20 412.069
969.30 412.4546
969.40 412.8401
969.50 413.2256
969.60 413.6112
969.70 413.9967
969.80 414.3823
969.90 414.7678
970.00 415.1534
970.10 415.5389
970.20 415.9245
970.30 416.31
970.40 416.6956
970.50 417.0811
970.60 417.4666
970.70 418.2024
970.80 419.1266
970.90 420.0509
971.00 420.9752
971.10 421.8995
971.20 422.8237
971.30 423.748
971.40 424.665
971.50 425.553
971.60 426.441
971.70 427.3289
971.80 428.2169
971.90 429.1049
972.00 429.9929
972.10 430.8808
972.20 431.7688
972.30 432.6568
972.40 433.5447
972.50 434.4327
972.60 435.3207
972.70 436.2086
972.80 437.0966
972.90 437.9846
973.00 438.8725
973.10 439.7605
973.20 440.6485
973.30 441.5365
973.40 442.4244
973.50 443.3124
973.60 444.2004
973.70 445.0883
973.80 445.9763
973.90 446.8643
974.00 447.7522
974.10 448.6402
974.20 449.5282
974.30 450.4161
974.40 451.0932
974.50 450.9768
974.60 450.8604
974.70 450.744
974.80 450.6277
974.90 450.5113
975.00 450.3949
975.10 450.2785
975.20 450.1324
975.30 449.9747
975.40 449.817
975.50 449.6593
975.60 449.5016
975.70 449.3439
975.80 449.1862
975.90 449.0285
976.00 448.8708
976.10 448.7131
976.20 448.5554
976.30 448.3977
976.40 448.24
976.50 448.0823
976.60 447.9246
976.70 447.7669
976.80 447.6093
976.90 447.4516
977.00 447.2939
977.10 447.1362
977.20 446.9785
977.30 446.8208
977.40 446.6631
977.50 446.5054
977.60 446.3477
977.70 446.19
977.80 446.0323
977.90 445.8746
978.00 445.7169
978.10 445.5592
978.20 445.4287
978.30 445.3156
978.40 445.2025
978.50 445.0894
978.60 444.9763
978.70 444.8632
978.80 444.7501
978.90 444.6299
979.00 444.4451
979.10 444.2603
979.20 444.0755
979.30 443.8907
979.40 443.7059
979.50 443.5211
979.60 443.3363
979.70 443.1515
979.80 442.9667
979.90 442.7819
980.00 442.5971
980.10 442.4123
980.20 442.2275
980.30 442.0427
980.40 441.8579
980.50 441.6731
980.60 441.4883
980.70 441.3035
980.80 441.1187
980.90 440.9339
981.00 440.7491
981.10 440.5643
981.20 440.3795
981.30 440.1946
981.40 440.0098
981.50 439.825
981.60 439.6402
981.70 439.4554
981.80 439.2706
981.90 439.0858
982.00 438.7269
982.10 438.3397
982.20 437.9525
982.30 437.5652
982.40 437.178
982.50 436.7907
982.60 436.4035
982.70 435.9905
982.80 435.5227
982.90 435.055
983.00 434.5872
983.10 434.1195
983.20 433.6517
983.30 433.184
983.40 432.7162
983.50 432.2485
983.60 431.7807
983.70 431.313
983.80 430.8452
983.90 430.3775
984.00 429.9097
984.10 429.442
984.20 428.9742
984.30 428.5065
984.40 428.0387
984.50 427.571
984.60 427.1032
984.70 426.6355
984.80 426.1677
984.90 425.7
985.00 425.2323
985.10 424.7645
985.20 424.2968
985.30 423.829
985.40 423.3613
985.50 422.8935
985.60 422.4258
985.70 421.958
985.80 420.8609
985.90 419.7443
986.00 418.6277
986.10 417.5111
986.20 416.3945
986.30 415.2778
986.40 414.1612
986.50 413.0682
986.60 412.0107
986.70 410.9531
986.80 409.8955
986.90 408.8379
987.00 407.7803
987.10 406.7227
987.20 405.6651
987.30 404.6075
987.40 403.5499
987.50 402.4923
987.60 401.4347
987.70 400.3771
987.80 399.3195
987.90 398.262
988.00 397.2044
988.10 396.1468
988.20 395.0892
988.30 394.0316
988.40 392.974
988.50 391.9164
988.60 390.8588
988.70 389.8012
988.80 388.7436
988.90 387.686
989.00 386.6284
989.10 385.5708
989.20 384.5133
989.30 383.4557
989.40 382.3981
989.50 381.3405
989.60 380.4556
989.70 379.5837
989.80 378.7118
989.90 377.8399
990.00 376.968
990.10 376.0961
990.20 375.2242
990.30 374.3331
990.40 373.4031
990.50 372.4732
990.60 371.5432
990.70 370.6132
990.80 369.6833
990.90 368.7533
991.00 367.8233
991.10 366.8934
991.20 365.9634
991.30 365.0334
991.40 364.1034
991.50 363.1735
991.60 362.2435
991.70 361.3135
991.80 360.3836
991.90 359.4536
992.00 358.5236
992.10 357.5937
992.20 356.6637
992.30 355.7337
992.40 354.8038
992.50 353.8738
992.60 352.9438
992.70 352.0139
992.80 351.0839
992.90 350.1539
993.00 349.224
993.10 348.294
993.20 347.364
993.30 346.434
993.40 345.661
993.50 344.9403
993.60 344.2196
993.70 343.499
993.80 342.7783
993.90 342.0576
994.00 341.3369
994.10 340.6287
994.20 340.0123
994.30 339.3959
994.40 338.7794
994.50 338.163
994.60 337.5466
994.70 336.9302
994.80 336.3138
994.90 335.6974
995.00 335.0809
995.10 334.4645
995.20 333.8481
995.30 333.2317
995.40 332.6153
995.50 331.9989
995.60 331.3825
995.70 330.766
995.80 330.1496
995.90 329.5332
996.00 328.9168
996.10 328.3004
996.20 327.684
996.30 327.0675
996.40 326.4511
996.50 325.8347
996.60 325.2183
996.70 324.6019
996.80 323.9855
996.90 323.369
997.00 322.7526
997.10 322.1362
997.20 321.9343
997.30 322.3049
997.40 322.6754
997.50 323.046
997.60 323.4166
997.70 323.7871
997.80 324.1577
997.90 324.5282
998.00 324.9109
998.10 325.2972
998.20 325.6835
998.30 326.0699
998.40 326.4562
998.50 326.8425
998.60 327.2288
998.70 327.6151
998.80 328.0014
998.90 328.3877
999.00 328.7741
999.10 329.1604
999.20 329.5467
999.30 329.933
999.40 330.3193
999.50 330.7056
999.60 331.092
999.70 331.4783
999.80 331.8646
999.90 332.2509
1000.00 332.6372
1000.10 333.0235
1000.20 333.4098
1000.30 333.7962
1000.40 334.1825
1000.50 334.5688
1000.60 334.9551
1000.70 335.3414
1000.80 335.7277
1000.90 336.114
1001.00 336.5004
1001.10 336.7917
1001.20 337.083
1001.30 337.3743
1001.40 337.6657
1001.50 337.957
1001.60 338.2483
1001.70 338.5396
1001.80 338.8707
1001.90 339.2944
1002.00 339.7181
1002.10 340.1418
1002.20 340.5655
1002.30 340.9892
1002.40 341.4129
1002.50 341.8366
1002.60 342.2603
1002.70 342.684
1002.80 343.1077
1002.90 343.5314
1003.00 343.9551
1003.10 344.3788
1003.20 344.8026
1003.30 345.2263
1003.40 345.65
1003.50 346.0737
1003.60 346.4974
1003.70 346.9211
1003.80 347.3448
1003.90 347.7685
1004.00 348.1922
1004.10 348.6159
1004.20 349.0396
1004.30 349.4633
1004.40 349.887
1004.50 350.3107
1004.60 350.7344
1004.70 351.1581
1004.80 351.5818
1004.90 352.0637
1005.00 352.6329
1005.10 353.202
1005.20 353.7712
1005.30 354.3403
1005.40 354.9095
1005.50 355.4786
1005.60 356.0477
1005.70 356.597
1005.80 357.1376
1005.90 357.6783
1006.00 358.219
1006.10 358.7596
1006.20 359.3003
1006.30 359.841
1006.40 360.3816
1006.50 360.9223
1006.60 361.463
1006.70 362.0036
1006.80 362.5443
1006.90 363.085
1007.00 363.6256
1007.10 364.1663
1007.20 364.707
1007.30 365.2476
1007.40 365.7883
1007.50 366.329
1007.60 366.8696
1007.70 367.4103
1007.80 367.951
1007.90 368.4916
1008.00 369.0323
1008.10 369.573
1008.20 370.1136
1008.30 370.6543
1008.40 371.195
1008.50 371.7356
1008.60 372.2763
1008.70 372.8169
1008.80 373.3292
1008.90 373.8225
1009.00 374.3159
1009.10 374.8092
1009.20 375.3025
1009.30 375.7958
1009.40 376.2891
1009.50 376.7825
1009.60 377.2662
1009.70 377.7488
1009.80 378.2314
1009.90 378.7141
1010.00 379.1967
1010.10 379.6793
1010.20 380.162
1010.30 380.6446
1010.40 381.1272
1010.50 381.6099
1010.60 382.0925
1010.70 382.5751
1010.80 383.0577
1010.90 383.5404
1011.00 384.023
1011.10 384.5056
1011.20 384.9883
1011.30 385.4709
1011.40 385.9535
1011.50 386.4362
1011.60 386.9188
1011.70 387.4014
1011.80 387.8841
1011.90 388.3667
1012.00 388.8493
1012.10 389.3319
1012.20 389.8146
1012.30 390.2972
1012.40 390.7798
1012.50 391.2625
1012.60 391.7451
1012.70 392.0609
1012.80 392.335
1012.90 392.609
1013.00 392.8831
1013.10 393.1572
1013.20 393.4312
1013.30 393.7053
1013.40 393.9794
1013.50 394.1636
1013.60 394.3478
1013.70 394.532
1013.80 394.7162
1013.90 394.9004
1014.00 395.0846
1014.10 395.2688
1014.20 395.453
1014.30 395.6372
1014.40 395.8214
1014.50 396.0056
1014.60 396.1898
1014.70 396.374
1014.80 396.5582
1014.90 396.7424
1015.00 396.9266
1015.10 397.1108
1015.20 397.295
1015.30 397.4792
1015.40 397.6634
1015.50 397.8476
1015.60 398.0318
1015.70 398.216
1015.80 398.4002
1015.90 398.5844
1016.00 398.7686
1016.10 398.9528
1016.20 399.137
1016.30 399.3212
1016.40 399.5054
1016.50 399.6896
1016.60 399.5937
1016.70 399.4278
1016.80 399.2618
1016.90 399.0959
1017.00 398.9299
1017.10 398.764
1017.20 398.598
1017.30 398.4321
1017.40 398.3857
1017.50 398.3393
1017.60 398.2928
1017.70 398.2464
1017.80 398.2
1017.90 398.1536
1018.00 398.1071
1018.10 398.0607
1018.20 398.0143
1018.30 397.9679
1018.40 397.9215
1018.50 397.875
1018.60 397.8286
1018.70 397.7822
1018.80 397.7358
1018.90 397.6893
1019.00 397.6429
1019.10 397.5965
1019.20 397.5501
1019.30 397.5037
1019.40 397.4572
1019.50 397.4108
1019.60 397.3644
1019.70 397.318
1019.80 397.2715
1019.90 397.2251
1020.00 397.1787
1020.10 397.1323
1020.20 397.0858
1020.30 397.0394
1020.40 396.993
1020.50 397.3579
1020.60 397.9969
1020.70 398.6359
1020.80 399.275
1020.90 399.914
1021.00 400.5531
1021.10 401.1921
1021.20 401.8311
1021.30 402.4564
1021.40 403.0782
1021.50 403.6999
1021.60 404.3217
1021.70 404.9435
1021.80 405.5653
1021.90 406.1871
1022.00 406.8089
1022.10 407.4307
1022.20 408.0524
1022.30 408.6742
1022.40 409.296
1022.50 409.9178
1022.60 410.5396
1022.70 411.1614
1022.80 411.7831
1022.90 412.4049
1023.00 413.0267
1023.10 413.6485
1023.20 414.2703
1023.30 414.8921
1023.40 415.5139
1023.50 416.1356
1023.60 416.7574
1023.70 417.3792
1023.80 418.001
1023.90 418.6228
1024.00 419.2446
1024.10 419.8664
1024.20 420.4881
1024.30 421.1099
1024.40 421.5237
1024.50 421.6255
1024.60 421.7273
1024.70 421.8291
1024.80 421.9309
1024.90 422.0327
1025.00 422.1345
1025.10 422.2363
1025.20 422.3377
1025.30 422.4388
1025.40 422.5398
1025.50 422.6408
1025.60 422.7419
1025.70 422.8429
1025.80 422.944
1025.90 423.045
1026.00 423.146
1026.10 423.2471
1026.20 423.3481
1026.30 423.4492
1026.40 423.5502
1026.50 423.6512
1026.60 423.7523
1026.70 423.8533
1026.80 423.9544
1026.90 424.0554
1027.00 424.1564
1027.10 424.2575
1027.20 424.3585
1027.30 424.4596
1027.40 424.5606
1027.50 424.6616
1027.60 424.7627
1027.70 424.8637
1027.80 424.9648
1027.90 425.0658
1028.00 425.1668
1028.10 425.2679
1028.20 425.3689
1028.30 425.47
1028.40 426.1072
1028.50 426.7444
1028.60 427.3817
1028.70 428.0189
1028.80 428.6561
1028.90 429.2934
1029.00 429.9306
1029.10 430.5571
1029.20 431.0867
1029.30 431.6162
1029.40 432.1458
1029.50 432.6754
1029.60 433.205
1029.70 433.7346
1029.80 434.2642
1029.90 434.7938
1030.00 435.3234
1030.10 435.853
1030.20 436.3826
1030.30 436.9122
1030.40 437.4418
1030.50 437.9713
1030.60 438.5009
1030.70 439.0305
1030.80 439.5601
1030.90 440.0897
1031.00 440.6193
1031.10 441.1489
1031.20 441.6785
1031.30 442.2081
1031.40 442.7377
1031.50 443.2673
1031.60 443.7969
1031.70 444.3265
1031.80 444.856
1031.90 445.3856
1032.00 445.9152
1032.10 446.4448
1032.20 446.9744
1032.30 447.3411
1032.40 447.545
1032.50 447.7489
1032.60 447.9528
1032.70 448.1566
1032.80 448.3605
1032.90 448.5644
1033.00 448.7682
1033.10 449.1001
1033.20 449.5172
1033.30 449.9344
1033.40 450.3515
1033.50 450.7687
1033.60 451.1859
1033.70 451.603
1033.80 452.0202
1033.90 452.4373
1034.00 452.8545
1034.10 453.2716
1034.20 453.6888
1034.30 454.1059
1034.40 454.5231
1034.50 454.9402
1034.60 455.3574
1034.70 455.7745
1034.80 456.1917
1034.90 456.6089
1035.00 457.026
1035.10 457.4432
1035.20 457.8603
1035.30 458.2775
1035.40 458.6946
1035.50 459.1118
1035.60 459.5289
1035.70 459.9461
1035.80 460.3632
1035.90 460.7804
1036.00 461.1975
1036.10 461.6147
1036.20 462.0319
1036.30 462.6615
1036.40 463.3443
1036.50 464.027
1036.60 464.7098
1036.70 465.3926
1036.80 466.0753
1036.90 466.7581
1037.00 467.4409
1037.10 468.0238
1037.20 468.5955
1037.30 469.1673
1037.40 469.7391
1037.50 470.3109
1037.60 470.8827
1037.70 471.4544
1037.80 472.0262
1037.90 472.598
1038.00 473.1698
1038.10 473.7415
1038.20 474.3133
1038.30 474.8851
1038.40 475.4569
1038.50 476.0286
1038.60 476.6004
1038.70 477.1722
1038.80 477.744
1038.90 478.3158
1039.00 478.8875
1039.10 479.4593
1039.20 480.0311
1039.30 480.6029
1039.40 481.1746
1039.50 481.7464
1039.60 482.3182
1039.70 482.89
1039.80 483.4617
1039.90 484.0335
1040.00 484.6053
1040.10 485.1771
1040.20 485.7591
1040.30 486.4329
1040.40 487.1068
1040.50 487.7807
1040.60 488.4546
1040.70 489.1285
1040.80 489.8024
1040.90 490.4762
1041.00 491.1351
1041.10 491.7339
1041.20 492.3327
1041.30 492.9316
1041.40 493.5304
1041.50 494.1292
1041.60 494.728
1041.70 495.3268
1041.80 495.9256
1041.90 496.5245
1042.00 497.1233
1042.10 497.7221
1042.20 498.3209
1042.30 498.9197
1042.40 499.5185
1042.50 500.1173
1042.60 500.7162
1042.70 501.315
1042.80 501.9138
1042.90 502.5126
1043.00 503.1114
1043.10 503.7102
1043.20 504.3091
1043.30 504.9079
1043.40 505.5067
1043.50 506.1055
1043.60 506.7043
1043.70 507.3031
1043.80 507.902
1043.90 508.5008
1044.00 509.0996
1044.10 509.6984
1044.20 510.1906
1044.30 510.2564
1044.40 510.3223
1044.50 510.3881
1044.60 510.4539
1044.70 510.5197
1044.80 510.5856
1044.90 510.6514
1045.00 510.7502
1045.10 510.9259
1045.20 511.1016
1045.30 511.2774
1045.40 511.4531
1045.50 511.6288
1045.60 511.8046
1045.70 511.9803
1045.80 512.156
1045.90 512.3317
1046.00 512.5075
1046.10 512.6832
1046.20 512.8589
1046.30 513.0347
1046.40 513.2104
1046.50 513.3861
1046.60 513.5618
1046.70 513.7376
1046.80 513.9133
1046.90 514.089
1047.00 514.2648
1047.10 514.4405
1047.20 514.6162
1047.30 514.7919
1047.40 514.9677
1047.50 515.1434
1047.60 515.3191
1047.70 515.4949
1047.80 515.6706
1047.90 515.8463
1048.00 516.022
1048.10 516.1978
1048.20 516.3077
1048.30 516.264
1048.40 516.2203
1048.50 516.1766
1048.60 516.1329
1048.70 516.0892
1048.80 516.0455
1048.90 516.0018
1049.00 515.9341
1049.10 515.8105
1049.20 515.6869
1049.30 515.5632
1049.40 515.4396
1049.50 515.316
1049.60 515.1924
1049.70 515.0687
1049.80 514.9451
1049.90 514.8215
1050.00 514.6979
1050.10 514.5743
1050.20 514.4506
1050.30 514.327
1050.40 514.2034
1050.50 514.0798
1050.60 513.9561
1050.70 513.8325
1050.80 513.7089
1050.90 513.5853
1051.00 513.4616
1051.10 513.338
1051.20 513.2144
1051.30 513.0908
1051.40 512.9672
1051.50 512.8435
1051.60 512.7199
1051.70 512.5963
1051.80 512.4727
1051.90 512.349
1052.00 512.2254
1052.10 512.1018
1052.20 512.1521
1052.30 512.8979
1052.40 513.6437
1052.50 514.3895
1052.60 515.1353
1052.70 515.8811
1052.80 516.6269
1052.90 517.3727
1053.00 518.1272
1053.10 518.9162
1053.20 519.7052
1053.30 520.4943
1053.40 521.2833
1053.50 522.0723
1053.60 522.8614
1053.70 523.6504
1053.80 524.4394
1053.90 525.2284
1054.00 526.0175
1054.10 526.8065
1054.20 527.5955
1054.30 528.3846
1054.40 529.1736
1054.50 529.9626
1054.60 530.7516
1054.70 531.5407
1054.80 532.3297
1054.90 533.1187
1055.00 533.9078
1055.10 534.6968
1055.20 535.4858
1055.30 536.2748
1055.40 537.0639
1055.50 537.8529
1055.60 538.6419
1055.70 539.431
1055.80 540.22
1055.90 541.009
1056.00 541.798
1056.10 542.5871
1056.20 543.3761
1056.30 543.398
1056.40 543.42
1056.50 543.4419
1056.60 543.4639
1056.70 543.4858
1056.80 543.5077
1056.90 543.5297
1057.00 543.5516
1057.10 543.4683
1057.20 543.3734
1057.30 543.2784
1057.40 543.1834
1057.50 543.0885
1057.60 542.9935
1057.70 542.8985
1057.80 542.8035
1057.90 542.7086
1058.00 542.6136
1058.10 542.5186
1058.20 542.4236
1058.30 542.3287
1058.40 542.2337
1058.50 542.1387
1058.60 542.0437
1058.70 541.9488
1058.80 541.8538
1058.90 541.7588
1059.00 541.6638
1059.10 541.5689
1059.20 541.4739
1059.30 541.3789
1059.40 541.284
1059.50 541.189
1059.60 541.094
1059.70 540.999
1059.80 540.9041
1059.90 540.8091
1060.00 540.7141
1060.10 540.6191
1060.20 540.5242
1060.30 540.6516
1060.40 540.9273
1060.50 541.203
1060.60 541.4787
1060.70 541.7545
1060.80 542.0302
1060.90 542.3059
1061.00 542.5816
1061.10 542.9414
1061.20 543.3573
1061.30 543.7732
1061.40 544.1892
1061.50 544.6051
1061.60 545.021
1061.70 545.4369
1061.80 545.8528
1061.90 546.2687
1062.00 546.6846
1062.10 547.1005
1062.20 547.5164
1062.30 547.9323
1062.40 548.3482
1062.50 548.7641
1062.60 549.1801
1062.70 549.596
1062.80 550.0119
1062.90 550.4278
1063.00 550.8437
1063.10 551.2596
1063.20 551.6755
1063.30 552.0914
1063.40 552.5073
1063.50 552.9232
1063.60 553.3391
1063.70 553.755
1063.80 554.1709
1063.90 554.5869
1064.00 555.0028
1064.10 555.4187
1064.20 555.8346
1064.30 556.2333
1064.40 556.5636
1064.50 556.8938
1064.60 557.224
1064.70 557.5542
1064.80 557.8844
1064.90 558.2146
1065.00 558.5448
1065.10 558.8648
1065.20 559.1439
1065.30 559.4229
1065.40 559.7019
1065.50 559.981
1065.60 560.26
1065.70 560.5391
1065.80 560.8181
1065.90 561.0971
1066.00 561.3762
1066.10 561.6552
1066.20 561.9343
1066.30 562.2133
1066.40 562.4923
1066.50 562.7714
1066.60 563.0504
1066.70 563.3295
1066.80 563.6085
1066.90 563.8875
1067.00 564.1666
1067.10 564.4456
1067.20 564.7247
1067.30 565.0037
1067.40 565.2827
1067.50 565.5618
1067.60 565.8408
1067.70 566.1198
1067.80 566.3989
1067.90 566.6779
1068.00 566.957
1068.10 567.236
1068.20 567.515
1068.30 567.7941
1068.40 568.2756
1068.50 568.8438
1068.60 569.412
1068.70 569.9803
1068.80 570.5485
1068.90 571.1167
1069.00 571.685
1069.10 572.2532
1069.20 572.8308
1069.30 573.4147
1069.40 573.9986
1069.50 574.5824
1069.60 575.1663
1069.70 575.7502
1069.80 576.334
1069.90 576.9179
1070.00 577.5018
1070.10 578.0856
1070.20 578.6695
1070.30 579.2533
1070.40 579.8372
1070.50 580.4211
1070.60 581.0049
1070.70 581.5888
1070.80 582.1727
1070.90 582.7565
1071.00 583.3404
1071.10 583.9243
1071.20 584.5081
1071.30 585.092
1071.40 585.6759
1071.50 586.2597
1071.60 586.8436
1071.70 587.4275
1071.80 588.0113
1071.90 588.5952
1072.00 589.1791
1072.10 589.7629
1072.20 590.3468
1072.30 590.9306
1072.40 591.4706
1072.50 591.6149
1072.60 591.7593
1072.70 591.9036
1072.80 592.048
1072.90 592.1924
1073.00 592.3367
1073.10 592.4811
1073.20 592.6255
1073.30 592.8136
1073.40 593.0018
1073.50 593.19
1073.60 593.3781
1073.70 593.5663
1073.80 593.7545
1073.90 593.9427
1074.00 594.1308
1074.10 594.319
1074.20 594.5072
1074.30 594.6954
1074.40 594.8835
1074.50 595.0717
1074.60 595.2599
1074.70 595.448
1074.80 595.6362
1074.90 595.8244
1075.00 596.0126
1075.10 596.2007
1075.20 596.3889
1075.30 596.5771
1075.40 596.7653
1075.50 596.9534
1075.60 597.1416
1075.70 597.3298
1075.80 597.518
1075.90 597.7061
1076.00 597.8943
1076.10 598.0825
1076.20 598.2706
1076.30 598.4588
1076.40 598.647
1076.50 599.0133
1076.60 599.6469
1076.70 600.2804
1076.80 600.9139
1076.90 601.5475
1077.00 602.181
1077.10 602.8146
1077.20 603.4481
1077.30 604.0747
1077.40 604.6735
1077.50 605.2723
1077.60 605.8711
1077.70 606.4699
1077.80 607.0687
1077.90 607.6675
1078.00 608.2663
1078.10 608.8651
1078.20 609.4639
1078.30 610.0627
1078.40 610.6615
1078.50 611.2603
1078.60 611.8591
1078.70 612.4579
1078.80 613.0566
1078.90 613.6554
1079.00 614.2542
1079.10 614.853
1079.20 615.4518
1079.30 616.0506
1079.40 616.6494
1079.50 617.2482
1079.60 617.847
1079.70 618.4458
1079.80 619.0446
1079.90 619.6434
1080.00 620.2422
1080.10 620.841
1080.20 621.4398
1080.30 622.0386
1080.40 622.6374
1080.50 623.2362
1080.60 623.6638
1080.70 623.9202
1080.80 624.1767
1080.90 624.4331
1081.00 624.6895
1081.10 624.9459
1081.20 625.2024
1081.30 625.4588
1081.40 625.6617
1081.50 625.7844
1081.60 625.907
1081.70 626.0297
1081.80 626.1524
1081.90 626.275
1082.00 626.3977
1082.10 626.5203
1082.20 626.643
1082.30 626.7657
1082.40 626.8883
1082.50 627.011
1082.60 627.1336
1082.70 627.2563
1082.80 627.379
1082.90 627.5016
1083.00 627.6243
1083.10 627.7469
1083.20 627.8696
1083.30 627.9923
1083.40 628.1149
1083.50 628.2376
1083.60 628.3602
1083.70 628.4829
1083.80 628.6056
1083.90 628.7282
1084.00 628.8509
1084.10 628.9736
1084.20 629.0962
1084.30 629.2189
1084.40 629.3415
1084.50 629.4642
1084.60 629.5869
1084.70 629.8506
1084.80 630.2084
1084.90 630.5661
1085.00 630.9239
1085.10 631.2817
1085.20 631.6395
1085.30 631.9973
1085.40 632.355
1085.50 632.7683
1085.60 633.2648
1085.70 633.7613
1085.80 634.2578
1085.90 634.7543
1086.00 635.2509
1086.10 635.7474
1086.20 636.2439
1086.30 636.7404
1086.40 637.2369
1086.50 637.7334
1086.60 638.2299
1086.70 638.7264
1086.80 639.223
1086.90 639.7195
1087.00 640.216
1087.10 640.7125
1087.20 641.209
1087.30 641.7055
1087.40 642.202
1087.50 642.6985
1087.60 643.195
1087.70 643.6916
1087.80 644.1881
1087.90 644.6846
1088.00 645.1811
1088.10 645.6776
1088.20 646.1741
1088.30 646.6706
1088.40 647.1671
1088.50 647.6637
1088.60 648.1602
1088.70 648.6567
1088.80 649.085
1088.90 649.4679
1089.00 649.8507
1089.10 650.2336
1089.20 650.6164
1089.30 650.9993
1089.40 651.3822
1089.50 651.765
1089.60 652.1042
1089.70 652.3778
1089.80 652.6513
1089.90 652.9249
1090.00 653.1985
1090.10 653.4721
1090.20 653.7457
1090.30 654.0193
1090.40 654.2928
1090.50 654.5664
1090.60 654.84
1090.70 655.1136
1090.80 655.3872
1090.90 655.6608
1091.00 655.9344
1091.10 656.2079
1091.20 656.4815
1091.30 656.7551
1091.40 657.0287
1091.50 657.3023
1091.60 657.5759
1091.70 657.8494
1091.80 658.123
1091.90 658.3966
1092.00 658.6702
1092.10 658.9438
1092.20 659.2174
1092.30 659.491
1092.40 659.7645
1092.50 660.0381
1092.60 660.3117
1092.70 660.5853
1092.80 660.8589
1092.90 661.1495
1093.00 661.4571
1093.10 661.7648
1093.20 662.0724
1093.30 662.3801
1093.40 662.6877
1093.50 662.9954
1093.60 663.303
1093.70 663.6112
1093.80 663.9208
1093.90 664.2304
1094.00 664.5399
1094.10 664.8495
1094.20 665.1591
1094.30 665.4687
1094.40 665.7782
1094.50 666.0878
1094.60 666.3974
1094.70 666.7069
1094.80 667.0165
1094.90 667.3261
1095.00 667.6356
1095.10 667.9452
1095.20 668.2548
1095.30 668.5644
1095.40 668.8739
1095.50 669.1835
1095.60 669.4931
1095.70 669.8026
1095.80 670.1122
1095.90 670.4218
1096.00 670.7314
1096.10 671.0409
1096.20 671.3505
1096.30 671.6601
1096.40 671.9696
1096.50 672.2792
1096.60 672.5888
1096.70 672.8983
1096.80 673.2079
1096.90 673.5175
1097.00 673.6944
1097.10 673.5619
1097.20 673.4294
1097.30 673.2969
1097.40 673.1644
1097.50 673.0319
1097.60 672.8994
1097.70 672.7668
1097.80 672.6372
1097.90 672.5338
1098.00 672.4305
1098.10 672.3271
1098.20 672.2237
1098.30 672.1203
1098.40 672.0169
1098.50 671.9135
1098.60 671.8101
1098.70 671.7067
1098.80 671.6033
1098.90 671.4999
1099.00 671.3965
1099.10 671.2931
1099.20 671.1897
1099.30 671.0863
1099.40 670.9829
1099.50 670.8795
1099.60 670.7761
1099.70 670.6727
1099.80 670.5693
1099.90 670.4659
1100.00 670.3625
1100.10 670.2591
1100.20 670.1557
1100.30 670.0523
1100.40 669.9489
1100.50 669.8455
1100.60 669.7421
1100.70 669.6387
1100.80 669.5353
1100.90 669.4319
1101.00 669.3286
1101.10 669.2252
1101.20 669.2246
1101.30 669.224
1101.40 669.2234
1101.50 669.2229
1101.60 669.2223
1101.70 669.2217
1101.80 669.2212
1101.90 669.2206
1102.00 669.2124
1102.10 669.2024
1102.20 669.1923
1102.30 669.1823
1102.40 669.1722
1102.50 669.1622
1102.60 669.1521
1102.70 669.1421
1102.80 669.1321
1102.90 669.122
1103.00 669.112
1103.10 669.1019
1103.20 669.0919
1103.30 669.0818
1103.40 669.0718
1103.50 669.0617
1103.60 669.0517
1103.70 669.0416
1103.80 669.0316
1103.90 669.0215
1104.00 669.0115
1104.10 669.0015
1104.20 668.9914
1104.30 668.9814
1104.40 668.9713
1104.50 668.9613
1104.60 668.9512
1104.70 668.9412
1104.80 668.9311
1104.90 668.9211
1105.00 668.911
1105.10 668.901
1105.20 668.8909
1105.30 668.8252
1105.40 668.7223
1105.50 668.6194
1105.60 668.5166
1105.70 668.4137
1105.80 668.3108
1105.90 668.2079
1106.00 668.1051
1106.10 667.9649
1106.20 667.7687
1106.30 667.5725
1106.40 667.3763
1106.50 667.1802
1106.60 666.984
1106.70 666.7878
1106.80 666.5917
1106.90 666.3955
1107.00 666.1993
1107.10 666.0031
1107.20 665.807
1107.30 665.6108
1107.40 665.4146
1107.50 665.2184
1107.60 665.0223
1107.70 664.8261
1107.80 664.6299
1107.90 664.4338
1108.00 664.2376
1108.10 664.0414
1108.20 663.8452
1108.30 663.6491
1108.40 663.4529
1108.50 663.2567
1108.60 663.0605
1108.70 662.8644
1108.80 662.6682
1108.90 662.472
1109.00 662.2759
1109.10 662.0797
1109.20 661.8835
1109.30 661.6873
1109.40 661.5373
1109.50 661.5721
1109.60 661.6068
1109.70 661.6416
1109.80 661.6763
1109.90 661.7111
1110.00 661.7458
1110.10 661.7805
1110.20 661.8153
1110.30 661.908
1110.40 662.0072
1110.50 662.1064
1110.60 662.2055
1110.70 662.3047
1110.80 662.4039
1110.90 662.5031
1111.00 662.6023
1111.10 662.7014
1111.20 662.8006
1111.30 662.8998
1111.40 662.999
1111.50 663.0982
1111.60 663.1973
1111.70 663.2965
1111.80 663.3957
1111.90 663.4949
1112.00 663.5941
1112.10 663.6932
1112.20 663.7924
1112.30 663.8916
1112.40 663.9908
1112.50 664.09
1112.60 664.1891
1112.70 664.2883
1112.80 664.3875
1112.90 664.4867
1113.00 664.5859
1113.10 664.685
1113.20 664.7842
1113.30 664.8834
1113.40 664.9826
1113.50 665.0818
1113.60 665.2334
1113.70 665.42
1113.80 665.6066
1113.90 665.7931
1114.00 665.9797
1114.10 666.1663
1114.20 666.3529
1114.30 666.5395
1114.40 666.7422
1114.50 666.9827
1114.60 667.2232
1114.70 667.4637
1114.80 667.7042
1114.90 667.9447
1115.00 668.1852
1115.10 668.4257
1115.20 668.6661
1115.30 668.9066
1115.40 669.1471
1115.50 669.3876
1115.60 669.6281
1115.70 669.8686
1115.80 670.1091
1115.90 670.3496
1116.00 670.5901
1116.10 670.8305
1116.20 671.071
1116.30 671.3115
1116.40 671.552
1116.50 671.7925
1116.60 672.033
1116.70 672.2735
1116.80 672.514
1116.90 672.7545
1117.00 672.995
1117.10 673.2354
1117.20 673.4759
1117.30 673.7164
1117.40 673.9569
1117.50 674.1974
1117.60 674.4379
1117.70 674.6784
1117.80 674.8711
1117.90 675.0639
1118.00 675.2566
1118.10 675.4494
1118.20 675.6421
1118.30 675.8349
1118.40 676.0276
1118.50 676.2204
1118.60 676.4374
1118.70 676.6648
1118.80 676.8923
1118.90 677.1197
1119.00 677.3471
1119.10 677.5746
1119.20 677.802
1119.30 678.0295
1119.40 678.2569
1119.50 678.4843
1119.60 678.7118
1119.70 678.9392
1119.80 679.1667
1119.90 679.3941
1120.00 679.6216
1120.10 679.849
1120.20 680.0764
1120.30 680.3039
1120.40 680.5313
1120.50 680.7588
1120.60 680.9862
1120.70 681.2136
1120.80 681.4411
1120.90 681.6685
1121.00 681.896
1121.10 682.1234
1121.20 682.3508
1121.30 682.5783
1121.40 682.8057
1121.50 683.0332
1121.60 683.2606
1121.70 683.488
1121.80 683.7155
1121.90 683.8326
1122.00 683.6924
1122.10 683.5521
1122.20 683.4119
1122.30 683.2716
1122.40 683.1314
1122.50 682.9912
1122.60 682.8509
1122.70 682.7107
1122.80 682.4245
1122.90 682.1384
1123.00 681.8523
1123.10 681.5661
1123.20 681.28
1123.30 680.9938
1123.40 680.7077
1123.50 680.4216
1123.60 680.1354
1123.70 679.8493
1123.80 679.5631
1123.90 679.277
1124.00 678.9909
1124.10 678.7047
1124.20 678.4186
1124.30 678.1325
1124.40 677.8463
1124.50 677.5602
1124.60 677.274
1124.70 676.9879
1124.80 676.7018
1124.90 676.4156
1125.00 676.1295
1125.10 675.8433
1125.20 675.5572
1125.30 675.2711
1125.40 674.9849
1125.50 674.6988
1125.60 674.4126
1125.70 674.1265
1125.80 673.8404
1125.90 673.5542
1126.00 673.2681
1126.10 672.9337
1126.20 672.551
1126.30 672.1684
1126.40 671.7857
1126.50 671.403
1126.60 671.0204
1126.70 670.6377
1126.80 670.2551
1126.90 669.8966
1127.00 669.6351
1127.10 669.3735
1127.20 669.1119
1127.30 668.8504
1127.40 668.5888
1127.50 668.3272
1127.60 668.0657
1127.70 667.8041
1127.80 667.5425
1127.90 667.281
1128.00 667.0194
1128.10 666.7578
1128.20 666.4963
1128.30 666.2347
1128.40 665.9731
1128.50 665.7116
1128.60 665.45
1128.70 665.1884
1128.80 664.9269
1128.90 664.6653
1129.00 664.4038
1129.10 664.1422
1129.20 663.8806
1129.30 663.6191
1129.40 663.3575
1129.50 663.0959
1129.60 662.8344
1129.70 662.5728
1129.80 662.3112
1129.90 662.0497
1130.00 661.7881
1130.10 661.5265
1130.20 661.265
1130.30 660.8381
1130.40 660.3403
1130.50 659.8425
1130.60 659.3447
1130.70 658.847
1130.80 658.3492
1130.90 657.8514
1131.00 657.3537
1131.10 656.8379
1131.20 656.2953
1131.30 655.7526
1131.40 655.21
1131.50 654.6673
1131.60 654.1246
1131.70 653.582
1131.80 653.0393
1131.90 652.4967
1132.00 651.954
1132.10 651.4114
1132.20 650.8687
1132.30 650.326
1132.40 649.7834
1132.50 649.2407
1132.60 648.6981
1132.70 648.1554
1132.80 647.6128
1132.90 647.0701
1133.00 646.5274
1133.10 645.9848
1133.20 645.4421
1133.30 644.8995
1133.40 644.3568
1133.50 643.8142
1133.60 643.2715
1133.70 642.7288
1133.80 642.1862
1133.90 641.6435
1134.00 641.1009
1134.10 640.5582
1134.20 640.0156
1134.30 639.4729
1134.40 638.9302
1134.50 638.729
1134.60 638.6132
1134.70 638.4974
1134.80 638.3816
1134.90 638.2658
1135.00 638.1499
1135.10 638.0341
1135.20 637.9183
1135.30 637.8362
1135.40 637.8049
1135.50 637.7735
1135.60 637.7422
1135.70 637.7108
1135.80 637.6795
1135.90 637.6481
1136.00 637.6168
1136.10 637.5854
1136.20 637.554
1136.30 637.5227
1136.40 637.4913
1136.50 637.46
1136.60 637.4286
1136.70 637.3973
1136.80 637.3659
1136.90 637.3346
1137.00 637.3032
1137.10 637.2719
1137.20 637.2405
1137.30 637.2091
1137.40 637.1778
1137.50 637.1464
1137.60 637.1151
1137.70 637.0837
1137.80 637.0524
1137.90 637.021
1138.00 636.9897
1138.10 636.9583
1138.20 636.9269
1138.30 636.8956
1138.40 636.8642
1138.50 636.8329
1138.60 636.8015
1138.70 637.2034
1138.80 637.7135
1138.90 638.2236
1139.00 638.7338
1139.10 639.2439
1139.20 639.754
1139.30 640.2642
1139.40 640.7743
1139.50 641.2833
1139.60 641.7906
1139.70 642.2978
1139.80 642.8051
1139.90 643.3124
1140.00 643.8197
1140.10 644.3269
1140.20 644.8342
1140.30 645.3415
1140.40 645.8488
1140.50 646.356
1140.60 646.8633
1140.70 647.3706
1140.80 647.8779
1140.90 648.3851
1141.00 648.8924
1141.10 649.3997
1141.20 649.9069
1141.30 650.4142
1141.40 650.9215
1141.50 651.4288
1141.60 651.936
1141.70 652.4433
1141.80 652.9506
1141.90 653.4579
1142.00 653.9651
1142.10 654.4724
1142.20 654.9797
1142.30 655.487
1142.40 655.9942
1142.50 656.5015
1142.60 657.0088
1142.70 657.5161
1142.80 658.0233
1142.90 659.1666
1143.00 660.4689
1143.10 661.7712
1143.20 663.0734
1143.30 664.3757
1143.40 665.678
1143.50 666.9803
1143.60 668.2826
1143.70 669.5944
1143.80 670.9207
1143.90 672.247
1144.00 673.5732
1144.10 674.8995
1144.20 676.2258
1144.30 677.5521
1144.40 678.8783
1144.50 680.2046
1144.60 681.5309
1144.70 682.8571
1144.80 684.1834
1144.90 685.5097
1145.00 686.836
1145.10 688.1622
1145.20 689.4885
1145.30 690.8148
1145.40 692.141
1145.50 693.4673
1145.60 694.7936
1145.70 696.1198
1145.80 697.4461
1145.90 698.7724
1146.00 700.0987
1146.10 701.4249
1146.20 702.7512
1146.30 704.0775
1146.40 705.4037
1146.50 706.73
1146.60 708.0563
1146.70 709.3825
1146.80 710.7088
1146.90 712.0351
1147.00 713.3614
1147.10 714.0724
1147.20 714.3734
1147.30 714.6744
1147.40 714.9754
1147.50 715.2763
1147.60 715.5773
1147.70 715.8783
1147.80 716.1793
1147.90 716.4683
1148.00 716.7095
1148.10 716.9507
1148.20 717.192
1148.30 717.4332
1148.40 717.6744
1148.50 717.9157
1148.60 718.1569
1148.70 718.3981
1148.80 718.6393
1148.90 718.8806
1149.00 719.1218
1149.10 719.363
1149.20 719.6043
1149.30 719.8455
1149.40 720.0867
1149.50 720.3279
1149.60 720.5692
1149.70 720.8104
1149.80 721.0516
1149.90 721.2929
1150.00 721.5341
1150.10 721.7753
1150.20 722.0165
1150.30 722.2578
1150.40 722.499
1150.50 722.7402
1150.60 722.9815
1150.70 723.2227
1150.80 723.4639
1150.90 723.7052
1151.00 723.9464
1151.10 724.1876
1151.20 724.4288
1151.30 724.7266
1151.40 725.0808
1151.50 725.435
1151.60 725.7892
1151.70 726.1434
1151.80 726.4977
1151.90 726.8519
1152.00 727.2061
1152.10 727.5552
1152.20 727.858
1152.30 728.1609
1152.40 728.4637
1152.50 728.7666
1152.60 729.0694
1152.70 729.3723
1152.80 729.6751
1152.90 729.978
1153.00 730.2808
1153.10 730.5837
1153.20 730.8865
1153.30 731.1894
1153.40 731.4922
1153.50 731.795
1153.60 732.0979
1153.70 732.4007
1153.80 732.7036
1153.90 733.0064
1154.00 733.3093
1154.10 733.6121
1154.20 733.915
1154.30 734.2178
1154.40 734.5207
1154.50 734.8235
1154.60 735.1264
1154.70 735.4292
1154.80 735.732
1154.90 736.0349
1155.00 736.3377
1155.10 736.6406
1155.20 736.9434
1155.30 737.2463
1155.40 737.5491
1155.50 737.7345
1155.60 737.45
1155.70 737.1654
1155.80 736.8809
1155.90 736.5963
1156.00 736.3118
1156.10 736.0272
1156.20 735.7427
1156.30 735.4582
1156.40 735.1696
1156.50 734.8799
1156.60 734.5903
1156.70 734.3007
1156.80 734.011
1156.90 733.7214
1157.00 733.4318
1157.10 733.1421
1157.20 732.8525
1157.30 732.5629
1157.40 732.2733
1157.50 731.9836
1157.60 731.694
1157.70 731.4044
1157.80 731.1147
1157.90 730.8251
1158.00 730.5355
1158.10 730.2459
1158.20 729.9562
1158.30 729.6666
1158.40 729.377
1158.50 729.0873
1158.60 728.7977
1158.70 728.5081
1158.80 728.2184
1158.90 727.9288
1159.00 727.6392
1159.10 727.3496
1159.20 727.0599
1159.30 726.7703
1159.40 726.4807
1159.50 726.191
1159.60 725.9014
1159.70 725.6118
1159.80 725.2259
1159.90 724.8293
1160.00 724.4327
1160.10 724.0362
1160.20 723.6396
1160.30 723.243
1160.40 722.8464
1160.50 722.4499
1160.60 722.0081
1160.70 721.5211
1160.80 721.0341
1160.90 720.5472
1161.00 720.0602
1161.10 719.5732
1161.20 719.0862
1161.30 718.5992
1161.40 718.1123
1161.50 717.6253
1161.60 717.1383
1161.70 716.6513
1161.80 716.1644
1161.90 715.6774
1162.00 715.1904
1162.10 714.7034
1162.20 714.2164
1162.30 713.7295
1162.40 713.2425
1162.50 712.7555
1162.60 712.2685
1162.70 711.7816
1162.80 711.2946
1162.90 710.8076
1163.00 710.3206
1163.10 709.8336
1163.20 709.3467
1163.30 708.8597
1163.40 708.3727
1163.50 707.8857
1163.60 707.3987
1163.70 706.9118
1163.80 706.4248
1163.90 705.9378
1164.00 705.3919
1164.10 704.8068
1164.20 704.2217
1164.30 703.6365
1164.40 703.0514
1164.50 702.4663
1164.60 701.8812
1164.70 701.296
1164.80 700.7199
1164.90 700.2251
1165.00 699.7303
1165.10 699.2355
1165.20 698.7407
1165.30 698.2459
1165.40 697.7511
1165.50 697.2564
1165.60 696.7616
1165.70 696.2668
1165.80 695.772
1165.90 695.2772
1166.00 694.7824
1166.10 694.2876
1166.20 693.7928
1166.30 693.298
1166.40 692.8032
1166.50 692.3084
1166.60 691.8136
1166.70 691.3188
1166.80 690.824
1166.90 690.3292
1167.00 689.8344
1167.10 689.3396
1167.20 688.8448
1167.30 688.35
1167.40 687.8552
1167.50 687.3604
1167.60 686.8656
1167.70 686.3708
1167.80 685.876
1167.90 685.3813
1168.00 684.8865
1168.10 684.3917
1168.20 683.8726
1168.30 683.2563
1168.40 682.64
1168.50 682.0238
1168.60 681.4075
1168.70 680.7912
1168.80 680.175
1168.90 679.5587
1169.00 678.9424
1169.10 678.3759
1169.20 677.8306
1169.30 677.2854
1169.40 676.7401
1169.50 676.1949
1169.60 675.6496
1169.70 675.1044
1169.80 674.5591
1169.90 674.0139
1170.00 673.4686
1170.10 672.9233
1170.20 672.3781
1170.30 671.8328
1170.40 671.2876
1170.50 670.7423
1170.60 670.1971
1170.70 669.6518
1170.80 669.1066
1170.90 668.5613
1171.00 668.0161
1171.10 667.4708
1171.20 666.9256
1171.30 666.3803
1171.40 665.8351
1171.50 665.2898
1171.60 664.7445
1171.70 664.1993
1171.80 663.654
1171.90 663.1088
1172.00 662.5635
1172.10 662.0183
1172.20 661.473
1172.30 660.9278
1172.40 660.3825
1172.50 660.3473
1172.60 660.5308
1172.70 660.7142
1172.80 660.8976
1172.90 661.081
1173.00 661.2644
1173.10 661.4478
1173.20 661.6313
1173.30 661.8119
1173.40 661.9812
1173.50 662.1506
1173.60 662.32
1173.70 662.4894
1173.80 662.6588
1173.90 662.8281
1174.00 662.9975
1174.10 663.1669
1174.20 663.3363
1174.30 663.5056
1174.40 663.675
1174.50 663.8444
1174.60 664.0138
1174.70 664.1832
1174.80 664.3525
1174.90 664.5219
1175.00 664.6913
1175.10 664.8607
1175.20 665.03
1175.30 665.1994
1175.40 665.3688
1175.50 665.5382
1175.60 665.7076
1175.70 665.8769
1175.80 666.0463
1175.90 666.2157
1176.00 666.3851
1176.10 666.5544
1176.20 666.7238
1176.30 666.8932
1176.40 667.0626
1176.50 667.232
1176.60 667.4013
1176.70 667.5856
1176.80 667.8296
1176.90 668.0735
1177.00 668.3175
1177.10 668.5614
1177.20 668.8054
1177.30 669.0493
1177.40 669.2933
1177.50 669.5372
1177.60 669.8438
1177.70 670.1771
1177.80 670.5105
1177.90 670.8438
1178.00 671.1772
1178.10 671.5106
1178.20 671.8439
1178.30 672.1773
1178.40 672.5106
1178.50 672.844
1178.60 673.1773
1178.70 673.5107
1178.80 673.8441
1178.90 674.1774
1179.00 674.5108
1179.10 674.8441
1179.20 675.1775
1179.30 675.5109
1179.40 675.8442
1179.50 676.1776
1179.60 676.5109
1179.70 676.8443
1179.80 677.1776
1179.90 677.511
1180.00 677.8444
1180.10 678.1777
1180.20 678.5111
1180.30 678.8444
1180.40 679.1778
1180.50 679.5111
1180.60 679.8445
1180.70 680.1779
1180.80 680.5112
1180.90 680.8446
1181.00 681.456
1181.10 682.2528
1181.20 683.0496
1181.30 683.8464
1181.40 684.6432
1181.50 685.44
1181.60 686.2368
1181.70 687.0337
1181.80 687.8269
1181.90 688.5881
1182.00 689.3493
1182.10 690.1105
1182.20 690.8717
1182.30 691.6329
1182.40 692.3941
1182.50 693.1552
1182.60 693.9164
1182.70 694.6776
1182.80 695.4388
1182.90 696.2
1183.00 696.9612
1183.10 697.7224
1183.20 698.4836
1183.30 699.2448
1183.40 700.006
1183.50 700.7672
1183.60 701.5284
1183.70 702.2896
1183.80 703.0507
1183.90 703.8119
1184.00 704.5731
1184.10 705.3343
1184.20 706.0955
1184.30 706.8567
1184.40 707.6179
1184.50 708.3791
1184.60 709.1403
1184.70 709.9015
1184.80 710.6627
1184.90 711.4239
1185.00 712.1851
1185.10 712.9462
1185.20 713.7074
1185.30 714.1588
1185.40 714.6101
1185.50 715.0615
1185.60 715.5128
1185.70 715.9642
1185.80 716.4155
1185.90 716.8668
1186.00 717.3182
1186.10 717.7508
1186.20 718.1647
1186.30 718.5786
1186.40 718.9925
1186.50 719.4064
1186.60 719.8203
1186.70 720.2342
1186.80 720.6481
1186.90 721.062
1187.00 721.4759
1187.10 721.8899
1187.20 722.3038
1187.30 722.7177
1187.40 723.1316
1187.50 723.5455
1187.60 723.9594
1187.70 724.3733
1187.80 724.7872
1187.90 725.2011
1188.00 725.615
1188.10 726.0289
1188.20 726.4428
1188.30 726.8567
1188.40 727.2706
1188.50 727.6845
1188.60 728.0984
1188.70 728.5123
1188.80 728.9262
1188.90 729.3401
1189.00 729.754
1189.10 730.1679
1189.20 730.5818
1189.30 730.9957
1189.40 731.4096
1189.50 731.4272
1189.60 730.8504
1189.70 730.2736
1189.80 729.6968
1189.90 729.1199
1190.00 728.5431
1190.10 727.9663
1190.20 727.3894
1190.30 726.8126
1190.40 726.1986
1190.50 725.5804
1190.60 724.9623
1190.70 724.3441
1190.80 723.7259
1190.90 723.1078
1191.00 722.4896
1191.10 721.8714
1191.20 721.2533
1191.30 720.6351
1191.40 720.0169
1191.50 719.3988
1191.60 718.7806
1191.70 718.1625
1191.80 717.5443
1191.90 716.9261
1192.00 716.308
1192.10 715.6898
1192.20 715.0716
1192.30 714.4535
1192.40 713.8353
1192.50 713.2171
1192.60 712.599
1192.70 711.9808
1192.80 711.3626
1192.90 710.7445
1193.00 710.1263
1193.10 709.5082
1193.20 708.89
1193.30 708.2718
1193.40 707.6537
1193.50 707.0355
1193.60 706.4173
1193.70 705.7992
1193.80 705.2862
1193.90 704.8184
1194.00 704.3506
1194.10 703.8827
1194.20 703.4149
1194.30 702.947
1194.40 702.4792
1194.50 702.0113
1194.60 701.5461
1194.70 701.1038
1194.80 700.6615
1194.90 700.2192
1195.00 699.7769
1195.10 699.3346
1195.20 698.8923
1195.30 698.45
1195.40 698.0077
1195.50 697.5655
1195.60 697.1232
1195.70 696.6809
1195.80 696.2386
1195.90 695.7963
1196.00 695.354
1196.10 694.9117
1196.20 694.4694
1196.30 694.0271
1196.40 693.5849
1196.50 693.1426
1196.60 692.7003
1196.70 692.258
1196.80 691.8157
1196.90 691.3734
1197.00 690.9311
1197.10 690.4888
1197.20 690.0465
1197.30 689.6042
1197.40 689.162
1197.50 688.7197
1197.60 688.2774
1197.70 687.8351
1197.80 687.3928
1197.90 686.9505
1198.00 686.5082
1198.10 686.672
1198.20 686.9032
1198.30 687.1344
1198.40 687.3655
1198.50 687.5967
1198.60 687.8278
1198.70 688.059
1198.80 688.2901
1198.90 688.4995
1199.00 688.6763
1199.10 688.8531
1199.20 689.0298
1199.30 689.2066
1199.40 689.3833
1199.50 689.5601
1199.60 689.7369
1199.70 689.9136
1199.80 690.0904
1199.90 690.2671
1200.00 690.4439
1200.10 690.6207
1200.20 690.7974
1200.30 690.9742
1200.40 691.1509
1200.50 691.3277
1200.60 691.5045
1200.70 691.6812
1200.80 691.858
1200.90 692.0347
1201.00 692.2115
1201.10 692.3883
1201.20 692.565
1201.30 692.7418
1201.40 692.9185
1201.50 693.0953
1201.60 693.2721
1201.70 693.4488
1201.80 693.6256
1201.90 693.8023
1202.00 693.9791
1202.10 694.1558
1202.20 694.3326
1202.30 694.5403
1202.40 695.0263
1202.50 695.5123
1202.60 695.9984
1202.70 696.4844
1202.80 696.9704
1202.90 697.4564
1203.00 697.9425
1203.10 698.4285
1203.20 699.0193
1203.30 699.68
1203.40 700.3407
1203.50 701.0013
1203.60 701.662
1203.70 702.3227
1203.80 702.9833
1203.90 703.644
1204.00 704.3047
1204.10 704.9654
1204.20 705.626
1204.30 706.2867
1204.40 706.9474
1204.50 707.6081
1204.60 708.2687
1204.70 708.9294
1204.80 709.5901
1204.90 710.2508
1205.00 710.9114
1205.10 711.5721
1205.20 712.2328
1205.30 712.8935
1205.40 713.5541
1205.50 714.2148
1205.60 714.8755
1205.70 715.5362
1205.80 716.1968
1205.90 716.8575
1206.00 717.5182
1206.10 718.1789
1206.20 718.8395
1206.30 719.5002
1206.40 720.1609
1206.50 720.8215
1206.60 721.5285
1206.70 722.3434
1206.80 723.1583
1206.90 723.9733
1207.00 724.7882
1207.10 725.6031
1207.20 726.418
1207.30 727.2329
1207.40 728.0479
1207.50 728.8011
1207.60 729.539
1207.70 730.2768
1207.80 731.0147
1207.90 731.7525
1208.00 732.4904
1208.10 733.2282
1208.20 733.9661
1208.30 734.7039
1208.40 735.4418
1208.50 736.1796
1208.60 736.9175
1208.70 737.6553
1208.80 738.3932
1208.90 739.1311
1209.00 739.8689
1209.10 740.6068
1209.20 741.3446
1209.30 742.0825
1209.40 742.8203
1209.50 743.5582
1209.60 744.296
1209.70 745.0339
1209.80 745.7717
1209.90 746.5096
1210.00 747.2474
1210.10 747.9853
1210.20 748.7231
1210.30 749.461
1210.40 750.1988
1210.50 750.9367
1210.60 751.6745
1210.70 752.4124
1210.80 753.1502
1210.90 753.7762
1211.00 754.2903
1211.10 754.8044
1211.20 755.3185
1211.30 755.8326
1211.40 756.3467
1211.50 756.8608
1211.60 757.3748
1211.70 757.8889
1211.80 758.455
1211.90 759.0269
1212.00 759.5987
1212.10 760.1706
1212.20 760.7424
1212.30 761.3143
1212.40 761.8862
1212.50 762.458
1212.60 763.0299
1212.70 763.6017
1212.80 764.1736
1212.90 764.7454
1213.00 765.3173
1213.10 765.8891
1213.20 766.461
1213.30 767.0329
1213.40 767.6047
1213.50 768.1766
1213.60 768.7484
1213.70 769.3203
1213.80 769.8921
1213.90 770.464
1214.00 771.0359
1214.10 771.6077
1214.20 772.1796
1214.30 772.7514
1214.40 773.3233
1214.50 773.8951
1214.60 774.467
1214.70 775.0389
1214.80 775.6107
1214.90 776.1826
1215.00 776.7544
1215.10 777.3263
1215.20 777.994
1215.30 778.7257
1215.40 779.4573
1215.50 780.189
1215.60 780.9206
1215.70 781.6523
1215.80 782.3839
1215.90 783.1156
1216.00 783.8473
1216.10 784.4278
1216.20 785.0083
1216.30 785.5888
1216.40 786.1693
1216.50 786.7498
1216.60 787.3303
1216.70 787.9108
1216.80 788.4913
1216.90 789.0718
1217.00 789.6523
1217.10 790.2328
1217.20 790.8133
1217.30 791.3938
1217.40 791.9743
1217.50 792.5548
1217.60 793.1353
1217.70 793.7158
1217.80 794.2963
1217.90 794.8768
1218.00 795.4573
1218.10 796.0378
1218.20 796.6183
1218.30 797.1988
1218.40 797.7793
1218.50 798.3598
1218.60 798.9404
1218.70 799.5209
1218.80 800.1014
1218.90 800.6819
1219.00 801.2624
1219.10 801.8429
1219.20 802.4234
1219.30 803.0039
1219.40 803.5844
1219.50 804.061
1219.60 804.493
1219.70 804.9251
1219.80 805.3571
1219.90 805.7892
1220.00 806.2213
1220.10 806.6533
1220.20 807.0854
1220.30 807.5271
1220.40 808.0561
1220.50 808.5851
1220.60 809.1141
1220.70 809.6431
1220.80 810.1721
1220.90 810.7011
1221.00 811.2301
1221.10 811.7591
1221.20 812.2881
1221.30 812.8171
1221.40 813.3461
1221.50 813.8751
1221.60 814.4041
1221.70 814.9331
1221.80 815.4621
1221.90 815.9911
1222.00 816.5201
1222.10 817.0491
1222.20 817.5781
1222.30 818.1071
1222.40 818.6361
1222.50 819.1651
1222.60 819.6941
1222.70 820.2231
1222.80 820.752
1222.90 821.281
1223.00 821.81
1223.10 822.339
1223.20 822.868
1223.30 823.397
1223.40 823.926
1223.50 824.455
1223.60 824.984
1223.70 825.513
1223.80 825.7455
1223.90 825.8509
1224.00 825.9563
1224.10 826.0617
1224.20 826.1671
1224.30 826.2725
1224.40 826.3778
1224.50 826.4832
1224.60 826.5739
1224.70 826.6055
1224.80 826.6371
1224.90 826.6687
1225.00 826.7004
1225.10 826.732
1225.20 826.7636
1225.30 826.7952
1225.40 826.8269
1225.50 826.8585
1225.60 826.8901
1225.70 826.9217
1225.80 826.9534
1225.90 826.985
1226.00 827.0166
1226.10 827.0482
1226.20 827.0799
1226.30 827.1115
1226.40 827.1431
1226.50 827.1747
1226.60 827.2064
1226.70 827.238
1226.80 827.2696
1226.90 827.3012
1227.00 827.3328
1227.10 827.3645
1227.20 827.3961
1227.30 827.4277
1227.40 827.4593
1227.50 827.491
1227.60 827.5226
1227.70 827.5542
1227.80 827.5858
1227.90 827.6175
1228.00 827.6491
1228.10 827.6143
1228.20 827.563
1228.30 827.5117
1228.40 827.4603
1228.50 827.409
1228.60 827.3576
1228.70 827.3063
1228.80 827.255
1228.90 827.1974
1229.00 827.115
1229.10 827.0326
1229.20 826.9503
1229.30 826.8679
1229.40 826.7855
1229.50 826.7031
1229.60 826.6207
1229.70 826.5383
1229.80 826.4559
1229.90 826.3735
1230.00 826.2911
1230.10 826.2087
1230.20 826.1263
1230.30 826.044
1230.40 825.9616
1230.50 825.8792
1230.60 825.7968
1230.70 825.7144
1230.80 825.632
1230.90 825.5496
1231.00 825.4672
1231.10 825.3848
1231.20 825.3024
1231.30 825.2201
1231.40 825.1377
1231.50 825.0553
1231.60 824.9729
1231.70 824.8905
1231.80 824.8081
1231.90 824.7257
1232.00 824.6433
1232.10 824.5609
1232.20 824.4785
1232.30 824.3962
1232.40 823.6854
1232.50 822.8175
1232.60 821.9497
1232.70 821.0818
1232.80 820.214
1232.90 819.3461
1233.00 818.4783
1233.10 817.6104
1233.20 816.7378
1233.30 815.8461
1233.40 814.9544
1233.50 814.0627
1233.60 813.171
1233.70 812.2793
1233.80 811.3876
1233.90 810.4959
1234.00 809.6042
1234.10 808.7125
1234.20 807.8209
1234.30 806.9292
1234.40 806.0375
1234.50 805.1458
1234.60 804.2541
1234.70 803.3624
1234.80 802.4707
1234.90 801.579
1235.00 800.6873
1235.10 799.7956
1235.20 798.9039
1235.30 798.0122
1235.40 797.1205
1235.50 796.2288
1235.60 795.3371
1235.70 794.4454
1235.80 793.5537
1235.90 792.662
1236.00 791.7703
1236.10 790.8786
1236.20 789.9869
1236.30 789.0952
1236.40 788.2035
1236.50 787.3118
1236.60 786.4201
1236.70 785.8975
1236.80 785.533
1236.90 785.1686
1237.00 784.8041
1237.10 784.4397
1237.20 784.0752
1237.30 783.7107
1237.40 783.3463
1237.50 782.9828
1237.60 782.6231
1237.70 782.2635
1237.80 781.9038
1237.90 781.5441
1238.00 781.1844
1238.10 780.8248
1238.20 780.4651
1238.30 780.1054
1238.40 779.7458
1238.50 779.3861
1238.60 779.0264
1238.70 778.6668
1238.80 778.3071
1238.90 777.9474
1239.00 777.5878
1239.10 777.2281
1239.20 776.8684
1239.30 776.5088
1239.40 776.1491
1239.50 775.7894
1239.60 775.4298
1239.70 775.0701
1239.80 774.7104
1239.90 774.3507
1240.00 773.9911
1240.10 773.6314
1240.20 773.2717
1240.30 772.9121
1240.40 772.5524
1240.50 772.1927
1240.60 771.8331
1240.70 771.4734
1240.80 771.1137
1240.90 770.7541
1241.00 770.3717
1241.10 769.9795
1241.20 769.5874
1241.30 769.1953
1241.40 768.8031
1241.50 768.411
1241.60 768.0189
1241.70 767.6267
1241.80 767.2419
1241.90 766.9228
1242.00 766.6037
1242.10 766.2845
1242.20 765.9654
1242.30 765.6463
1242.40 765.3272
1242.50 765.0081
1242.60 764.689
1242.70 764.3699
1242.80 764.0508
1242.90 763.7317
1243.00 763.4125
1243.10 763.0934
1243.20 762.7743
1243.30 762.4552
1243.40 762.1361
1243.50 761.817
1243.60 761.4979
1243.70 761.1788
1243.80 760.8597
1243.90 760.5405
1244.00 760.2214
1244.10 759.9023
1244.20 759.5832
1244.30 759.2641
1244.40 758.945
1244.50 758.6259
1244.60 758.3068
1244.70 757.9877
1244.80 757.6685
1244.90 757.3494
1245.00 757.0303
1245.10 756.7112
1245.20 756.3921
1245.30 756.6782
1245.40 757.3678
1245.50 758.0573
1245.60 758.7469
1245.70 759.4365
1245.80 760.126
1245.90 760.8156
1246.00 761.5052
1246.10 762.1947
1246.20 762.9974
1246.30 763.8
1246.40 764.6026
1246.50 765.4052
1246.60 766.2078
1246.70 767.0104
1246.80 767.813
1246.90 768.6156
1247.00 769.4182
1247.10 770.2209
1247.20 771.0235
1247.30 771.8261
1247.40 772.6287
1247.50 773.4313
1247.60 774.2339
1247.70 775.0365
1247.80 775.8391
1247.90 776.6418
1248.00 777.4444
1248.10 778.247
1248.20 779.0496
1248.30 779.8522
1248.40 780.6548
1248.50 781.4574
1248.60 782.26
1248.70 783.0627
1248.80 783.8653
1248.90 784.6679
1249.00 785.4705
1249.10 786.2731
1249.20 787.0757
1249.30 787.8783
1249.40 788.6809
1249.50 789.4835
1249.60 790.2457
1249.70 790.9673
1249.80 791.6889
1249.90 792.4105
1250.00 793.1321
1250.10 793.8537
1250.20 794.5753
1250.30 795.2969
1250.40 796.0186
1250.50 796.7053
1250.60 797.392
1250.70 798.0787
1250.80 798.7654
1250.90 799.4521
1251.00 800.1389
1251.10 800.8256
1251.20 801.5123
1251.30 802.199
1251.40 802.8857
1251.50 803.5724
1251.60 804.2592
1251.70 804.9459
1251.80 805.6326
1251.90 806.3193
1252.00 807.006
1252.10 807.6927
1252.20 808.3795
1252.30 809.0662
1252.40 809.7529
1252.50 810.4396
1252.60 811.1263
1252.70 811.8131
1252.80 812.4998
1252.90 813.1865
1253.00 813.8732
1253.10 814.5599
1253.20 815.2466
1253.30 815.9334
1253.40 816.6201
1253.50 817.3068
1253.60 817.9935
1253.70 818.6802
1253.80 819.3669
1253.90 820.2058
1254.00 821.2728
1254.10 822.3399
1254.20 823.4069
1254.30 824.474
1254.40 825.541
1254.50 826.6081
1254.60 827.6751
1254.70 828.7421
1254.80 829.7552
1254.90 830.7622
1255.00 831.7693
1255.10 832.7764
1255.20 833.7834
1255.30 834.7905
1255.40 835.7975
1255.50 836.8046
1255.60 837.8116
1255.70 838.8187
1255.80 839.8257
1255.90 840.8328
1256.00 841.8398
1256.10 842.8469
1256.20 843.8539
1256.30 844.861
1256.40 845.868
1256.50 846.8751
1256.60 847.8822
1256.70 848.8892
1256.80 849.8963
1256.90 850.9033
1257.00 851.9104
1257.10 852.9174
1257.20 853.9245
1257.30 854.9315
1257.40 855.9386
1257.50 856.9456
1257.60 857.9527
1257.70 858.9597
1257.80 859.9668
1257.90 860.9738
1258.00 861.9809
1258.10 862.988
1258.20 863.7459
1258.30 863.9226
1258.40 864.0994
1258.50 864.2761
1258.60 864.4528
1258.70 864.6296
1258.80 864.8063
1258.90 864.983
1259.00 865.1598
1259.10 865.4658
1259.20 865.8272
1259.30 866.1887
1259.40 866.5501
1259.50 866.9116
1259.60 867.273
1259.70 867.6344
1259.80 867.9959
1259.90 868.3573
1260.00 868.7188
1260.10 869.0802
1260.20 869.4417
1260.30 869.8031
1260.40 870.1645
1260.50 870.526
1260.60 870.8874
1260.70 871.2489
1260.80 871.6103
1260.90 871.9717
1261.00 872.3332
1261.10 872.6946
1261.20 873.0561
1261.30 873.4175
1261.40 873.779
1261.50 874.1404
1261.60 874.5018
1261.70 874.8633
1261.80 875.2247
1261.90 875.5862
1262.00 875.9476
1262.10 876.3091
1262.20 876.6705
1262.30 877.0319
1262.40 877.3934
1262.50 877.9084
1262.60 879.0379
1262.70 880.1674
1262.80 881.2969
1262.90 882.4264
1263.00 883.5559
1263.10 884.6854
1263.20 885.8148
1263.30 886.9443
1263.40 887.9572
1263.50 888.8923
1263.60 889.8273
1263.70 890.7624
1263.80 891.6975
1263.90 892.6326
1264.00 893.5677
1264.10 894.5027
1264.20 895.4378
1264.30 896.3729
1264.40 897.308
1264.50 898.2431
1264.60 899.1781
1264.70 900.1132
1264.80 901.0483
1264.90 901.9834
1265.00 902.9184
1265.10 903.8535
1265.20 904.7886
1265.30 905.7237
1265.40 906.6588
1265.50 907.5938
1265.60 908.5289
1265.70 909.464
1265.80 910.3991
1265.90 911.3342
1266.00 912.2692
1266.10 913.2043
1266.20 914.1394
1266.30 915.0745
1266.40 916.0096
1266.50 916.9446
1266.60 917.8797
1266.70 918.8148
1266.80 919.7499
1266.90 919.2354
1267.00 918.721
1267.10 918.2066
1267.20 917.6922
1267.30 917.1777
1267.40 916.6633
1267.50 916.1489
1267.60 915.6344
1267.70 915.1439
1267.80 914.6892
1267.90 914.2345
1268.00 913.7798
1268.10 913.325
1268.20 912.8703
1268.30 912.4156
1268.40 911.9609
1268.50 911.5062
1268.60 911.0515
1268.70 910.5968
1268.80 910.1421
1268.90 909.6873
1269.00 909.2326
1269.10 908.7779
1269.20 908.3232
1269.30 907.8685
1269.40 907.4138
1269.50 906.9591
1269.60 906.5043
1269.70 906.0496
1269.80 905.5949
1269.90 905.1402
1270.00 904.6855
1270.10 904.2308
1270.20 903.7761
1270.30 903.3214
1270.40 902.8666
1270.50 902.4119
1270.60 901.9572
1270.70 901.5025
1270.80 901.0478
1270.90 900.5931
1271.00 900.1384
1271.10 899.6836
1271.20 900.2664
1271.30 900.9645
1271.40 901.6625
1271.50 902.3606
1271.60 903.0587
1271.70 903.7567
1271.80 904.4548
1271.90 905.1528
1272.00 905.7762
1272.10 906.2254
1272.20 906.6747
1272.30 907.1239
1272.40 907.5731
1272.50 908.0223
1272.60 908.4715
1272.70 908.9207
1272.80 909.3699
1272.90 909.8191
1273.00 910.2683
1273.10 910.7176
1273.20 911.1668
1273.30 911.616
1273.40 912.0652
1273.50 912.5144
1273.60 912.9636
1273.70 913.4128
1273.80 913.862
1273.90 914.3112
1274.00 914.7604
1274.10 915.2097
1274.20 915.6589
1274.30 916.1081
1274.40 916.5573
1274.50 917.0065
1274.60 917.4557
1274.70 917.9049
1274.80 918.3541
1274.90 918.8033
1275.00 919.2526
1275.10 919.7018
1275.20 920.151
1275.30 920.6002
1275.40 921.0494
1275.50 921.0847
1275.60 920.9425
1275.70 920.8003
1275.80 920.6582
1275.90 920.516
1276.00 920.3739
1276.10 920.2317
1276.20 920.0896
1276.30 919.9707
1276.40 920.061
1276.50 920.1513
1276.60 920.2416
1276.70 920.3319
1276.80 920.4222
1276.90 920.5126
1277.00 920.6029
1277.10 920.6932
1277.20 920.7835
1277.30 920.8738
1277.40 920.9641
1277.50 921.0544
1277.60 921.1448
1277.70 921.2351
1277.80 921.3254
1277.90 921.4157
1278.00 921.506
1278.10 921.5963
1278.20 921.6866
1278.30 921.777
1278.40 921.8673
1278.50 921.9576
1278.60 922.0479
1278.70 922.1382
1278.80 922.2285
1278.90 922.3188
1279.00 922.4091
1279.10 922.4995
1279.20 922.5898
1279.30 922.6801
1279.40 922.7704
1279.50 922.8607
1279.60 922.951
1279.70 923.0413
1279.80 923.1602
1279.90 923.2981
1280.00 923.436
1280.10 923.5739
1280.20 923.7118
1280.30 923.8497
1280.40 923.9875
1280.50 924.1254
1280.60 924.2633
1280.70 924.3118
1280.80 924.3603
1280.90 924.4088
1281.00 924.4573
1281.10 924.5058
1281.20 924.5542
1281.30 924.6027
1281.40 924.6512
1281.50 924.6997
1281.60 924.7482
1281.70 924.7967
1281.80 924.8452
1281.90 924.8937
1282.00 924.9421
1282.10 924.9906
1282.20 925.0391
1282.30 925.0876
1282.40 925.1361
1282.50 925.1846
1282.60 925.2331
1282.70 925.2815
1282.80 925.33
1282.90 925.3785
1283.00 925.427
1283.10 925.4755
1283.20 925.524
1283.30 925.5725
1283.40 925.621
1283.50 925.6694
1283.60 925.7179
1283.70 925.7664
1283.80 925.8149
1283.90 925.8634
1284.00 925.9119
1284.10 926.0955
1284.20 926.4819
1284.30 926.8683
1284.40 927.2547
1284.50 927.641
1284.60 928.0274
1284.70 928.4138
1284.80 928.8002
1284.90 929.1866
1285.00 929.6097
1285.10 930.042
1285.20 930.4743
1285.30 930.9066
1285.40 931.3389
1285.50 931.7712
1285.60 932.2035
1285.70 932.6359
1285.80 933.0682
1285.90 933.5005
1286.00 933.9328
1286.10 934.3651
1286.20 934.7974
1286.30 935.2297
1286.40 935.662
1286.50 936.0943
1286.60 936.5267
1286.70 936.959
1286.80 937.3913
1286.90 937.8236
1287.00 938.2559
1287.10 938.6882
1287.20 939.1205
1287.30 939.5528
1287.40 939.9851
1287.50 940.4175
1287.60 940.8498
1287.70 941.2821
1287.80 941.7144
1287.90 942.1467
1288.00 942.579
1288.10 943.0113
1288.20 943.4436
1288.30 943.8759
1288.40 944.2685
1288.50 944.5021
1288.60 944.7356
1288.70 944.9692
1288.80 945.2028
1288.90 945.4363
1289.00 945.6699
1289.10 945.9034
1289.20 946.137
1289.30 946.3372
1289.40 946.5151
1289.50 946.6931
1289.60 946.871
1289.70 947.049
1289.80 947.2269
1289.90 947.4048
1290.00 947.5828
1290.10 947.7607
1290.20 947.9387
1290.30 948.1166
1290.40 948.2945
1290.50 948.4725
1290.60 948.6504
1290.70 948.8284
1290.80 949.0063
1290.90 949.1842
1291.00 949.3622
1291.10 949.5401
1291.20 949.7181
1291.30 949.896
1291.40 950.0739
1291.50 950.2519
1291.60 950.4298
1291.70 950.6078
1291.80 950.7857
1291.90 950.9636
1292.00 951.1416
1292.10 951.3195
1292.20 951.4975
1292.30 951.6754
1292.40 951.8533
1292.50 952.0313
1292.60 952.2092
1292.70 952.3872
1292.80 952.4711
1292.90 952.5551
1293.00 952.6391
1293.10 952.7231
1293.20 952.8071
1293.30 952.8911
1293.40 952.975
1293.50 953.059
1293.60 953.1446
1293.70 953.2325
1293.80 953.3203
1293.90 953.4082
1294.00 953.4961
1294.10 953.584
1294.20 953.6719
1294.30 953.7598
1294.40 953.8477
1294.50 953.9356
1294.60 954.0235
1294.70 954.1113
1294.80 954.1992
1294.90 954.2871
1295.00 954.375
1295.10 954.4629
1295.20 954.5508
1295.30 954.6387
1295.40 954.7266
1295.50 954.8145
1295.60 954.9023
1295.70 954.9902
1295.80 955.0781
1295.90 955.166
1296.00 955.2539
1296.10 955.3418
1296.20 955.4297
1296.30 955.5176
1296.40 955.6055
1296.50 955.6934
1296.60 955.7812
1296.70 955.8691
1296.80 955.957
1296.90 956.0449
1297.00 956.1328
1297.10 955.9678
1297.20 955.7395
1297.30 955.5113
1297.40 955.2831
1297.50 955.0548
1297.60 954.8266
1297.70 954.5983
1297.80 954.3701
1297.90 954.1381
1298.00 953.8913
1298.10 953.6445
1298.20 953.3978
1298.30 953.151
1298.40 952.9042
1298.50 952.6574
1298.60 952.4106
1298.70 952.1638
1298.80 951.917
1298.90 951.6702
1299.00 951.4234
1299.10 951.1766
1299.20 950.9298
1299.30 950.683
1299.40 950.4362
1299.50 950.1894
1299.60 949.9426
1299.70 949.6958
1299.80 949.449
1299.90 949.2022
