# Version 2.1 - nm, norm@500 to 1, cut digits
# Wavelength(nm)  Flambda(ergs/cm^s/s/nm)
300.00 1.603939e-95
300.10 1.603939e-95
300.20 1.603939e-95
300.30 1.603939e-95
300.40 1.603939e-95
300.50 1.603939e-95
300.60 1.603939e-95
300.70 1.603939e-95
300.80 1.603939e-95
300.90 1.603939e-95
301.00 1.603939e-95
301.10 1.603939e-95
301.20 1.603939e-95
301.30 1.603939e-95
301.40 1.603939e-95
301.50 1.603939e-95
301.60 1.603939e-95
301.70 1.603939e-95
301.80 1.603939e-95
301.90 1.603939e-95
302.00 1.603939e-95
302.10 1.603939e-95
302.20 1.603939e-95
302.30 1.603939e-95
302.40 1.603939e-95
302.50 1.603939e-95
302.60 1.603939e-95
302.70 1.603939e-95
302.80 1.603939e-95
302.90 1.603939e-95
303.00 1.603939e-95
303.10 1.603939e-95
303.20 1.603939e-95
303.30 1.603939e-95
303.40 1.603939e-95
303.50 1.603939e-95
303.60 1.603939e-95
303.70 1.603939e-95
303.80 1.603939e-95
303.90 1.603939e-95
304.00 1.603939e-95
304.10 1.603939e-95
304.20 1.603939e-95
304.30 1.603939e-95
304.40 1.603939e-95
304.50 1.603939e-95
304.60 1.603939e-95
304.70 1.603939e-95
304.80 1.603939e-95
304.90 1.603939e-95
305.00 1.603939e-95
305.10 1.603939e-95
305.20 1.603939e-95
305.30 1.603939e-95
305.40 1.603939e-95
305.50 1.603939e-95
305.60 1.603939e-95
305.70 1.603939e-95
305.80 1.603939e-95
305.90 1.603939e-95
306.00 1.603939e-95
306.10 1.603939e-95
306.20 1.603939e-95
306.30 1.603939e-95
306.40 1.603939e-95
306.50 1.603939e-95
306.60 1.603939e-95
306.70 1.603939e-95
306.80 1.603939e-95
306.90 1.603939e-95
307.00 1.603939e-95
307.10 1.603939e-95
307.20 1.603939e-95
307.30 1.603939e-95
307.40 1.603939e-95
307.50 1.603939e-95
307.60 1.603939e-95
307.70 1.603939e-95
307.80 1.603939e-95
307.90 1.603939e-95
308.00 1.603939e-95
308.10 1.603939e-95
308.20 1.603939e-95
308.30 1.603939e-95
308.40 1.603939e-95
308.50 1.603939e-95
308.60 1.603939e-95
308.70 1.603939e-95
308.80 1.603939e-95
308.90 1.603939e-95
309.00 1.603939e-95
309.10 1.603939e-95
309.20 1.603939e-95
309.30 1.603939e-95
309.40 1.603939e-95
309.50 1.603939e-95
309.60 1.603939e-95
309.70 1.603939e-95
309.80 1.603939e-95
309.90 1.603939e-95
310.00 1.603939e-95
310.10 1.603939e-95
310.20 1.603939e-95
310.30 1.603939e-95
310.40 1.603939e-95
310.50 1.603939e-95
310.60 1.603939e-95
310.70 1.603939e-95
310.80 1.603939e-95
310.90 1.603939e-95
311.00 1.603939e-95
311.10 1.603939e-95
311.20 1.603939e-95
311.30 1.603939e-95
311.40 1.603939e-95
311.50 1.603939e-95
311.60 1.603939e-95
311.70 1.603939e-95
311.80 1.603939e-95
311.90 1.603939e-95
312.00 1.603939e-95
312.10 1.603939e-95
312.20 1.603939e-95
312.30 1.603939e-95
312.40 1.603939e-95
312.50 1.603939e-95
312.60 1.603939e-95
312.70 1.603939e-95
312.80 1.603939e-95
312.90 1.603939e-95
313.00 1.603939e-95
313.10 1.603939e-95
313.20 1.603939e-95
313.30 1.603939e-95
313.40 1.603939e-95
313.50 1.603939e-95
313.60 1.603939e-95
313.70 1.603939e-95
313.80 1.603939e-95
313.90 1.603939e-95
314.00 1.603939e-95
314.10 1.603939e-95
314.20 1.603939e-95
314.30 1.603939e-95
314.40 1.603939e-95
314.50 1.603939e-95
314.60 1.603939e-95
314.70 1.603939e-95
314.80 1.603939e-95
314.90 1.603939e-95
315.00 1.603939e-95
315.10 1.603939e-95
315.20 1.603939e-95
315.30 1.603939e-95
315.40 1.603939e-95
315.50 1.603939e-95
315.60 1.603939e-95
315.70 1.603939e-95
315.80 1.603939e-95
315.90 1.603939e-95
316.00 1.603939e-95
316.10 1.603939e-95
316.20 1.603939e-95
316.30 1.603939e-95
316.40 1.603939e-95
316.50 1.603939e-95
316.60 1.603939e-95
316.70 1.603939e-95
316.80 1.603939e-95
316.90 1.603939e-95
317.00 1.603939e-95
317.10 1.603939e-95
317.20 1.603939e-95
317.30 1.603939e-95
317.40 1.603939e-95
317.50 1.603939e-95
317.60 1.603939e-95
317.70 1.603939e-95
317.80 1.603939e-95
317.90 1.603939e-95
318.00 1.603939e-95
318.10 1.603939e-95
318.20 1.603939e-95
318.30 1.603939e-95
318.40 1.603939e-95
318.50 1.603939e-95
318.60 1.603939e-95
318.70 1.603939e-95
318.80 1.603939e-95
318.90 1.603939e-95
319.00 1.603939e-95
319.10 1.603939e-95
319.20 1.603939e-95
319.30 1.603939e-95
319.40 1.603939e-95
319.50 1.603939e-95
319.60 1.603939e-95
319.70 1.603939e-95
319.80 1.603939e-95
319.90 1.603939e-95
320.00 1.603939e-95
320.10 1.603939e-95
320.20 1.603939e-95
320.30 1.603939e-95
320.40 1.603939e-95
320.50 1.603939e-95
320.60 1.603939e-95
320.70 1.603939e-95
320.80 1.603939e-95
320.90 1.603939e-95
321.00 1.603939e-95
321.10 1.603939e-95
321.20 1.603939e-95
321.30 1.603939e-95
321.40 1.603939e-95
321.50 1.603939e-95
321.60 1.603939e-95
321.70 1.603939e-95
321.80 1.603939e-95
321.90 1.603939e-95
322.00 1.603939e-95
322.10 1.603939e-95
322.20 1.603939e-95
322.30 1.603939e-95
322.40 1.603939e-95
322.50 1.603939e-95
322.60 1.603939e-95
322.70 1.603939e-95
322.80 1.603939e-95
322.90 1.603939e-95
323.00 1.603939e-95
323.10 1.603939e-95
323.20 1.603939e-95
323.30 1.603939e-95
323.40 1.603939e-95
323.50 1.603939e-95
323.60 1.603939e-95
323.70 1.603939e-95
323.80 1.603939e-95
323.90 1.603939e-95
324.00 1.603939e-95
324.10 1.603939e-95
324.20 1.603939e-95
324.30 1.603939e-95
324.40 1.603939e-95
324.50 1.603939e-95
324.60 1.603939e-95
324.70 1.603939e-95
324.80 1.603939e-95
324.90 1.603939e-95
325.00 1.603939e-95
325.10 1.603939e-95
325.20 1.603939e-95
325.30 1.603939e-95
325.40 1.603939e-95
325.50 1.603939e-95
325.60 1.603939e-95
325.70 1.603939e-95
325.80 1.603939e-95
325.90 1.603939e-95
326.00 1.603939e-95
326.10 1.603939e-95
326.20 1.603939e-95
326.30 1.603939e-95
326.40 1.603939e-95
326.50 1.603939e-95
326.60 1.603939e-95
326.70 1.603939e-95
326.80 1.603939e-95
326.90 1.603939e-95
327.00 1.603939e-95
327.10 1.603939e-95
327.20 1.603939e-95
327.30 1.603939e-95
327.40 1.603939e-95
327.50 1.603939e-95
327.60 1.603939e-95
327.70 1.603939e-95
327.80 1.603939e-95
327.90 1.603939e-95
328.00 1.603939e-95
328.10 1.603939e-95
328.20 1.603939e-95
328.30 1.603939e-95
328.40 1.603939e-95
328.50 1.603939e-95
328.60 1.603939e-95
328.70 1.603939e-95
328.80 1.603939e-95
328.90 1.603939e-95
329.00 1.603939e-95
329.10 1.603939e-95
329.20 1.603939e-95
329.30 1.603939e-95
329.40 1.603939e-95
329.50 1.603939e-95
329.60 1.603939e-95
329.70 1.603939e-95
329.80 1.603939e-95
329.90 1.603939e-95
330.00 1.603939e-95
330.10 1.603939e-95
330.20 1.603939e-95
330.30 1.603939e-95
330.40 1.603939e-95
330.50 1.603939e-95
330.60 1.603939e-95
330.70 1.603939e-95
330.80 1.603939e-95
330.90 1.603939e-95
331.00 1.603939e-95
331.10 1.603939e-95
331.20 1.603939e-95
331.30 1.603939e-95
331.40 1.603939e-95
331.50 1.603939e-95
331.60 1.603939e-95
331.70 1.603939e-95
331.80 1.603939e-95
331.90 1.603939e-95
332.00 1.603939e-95
332.10 1.603939e-95
332.20 1.603939e-95
332.30 1.603939e-95
332.40 1.603939e-95
332.50 1.603939e-95
332.60 1.603939e-95
332.70 1.603939e-95
332.80 1.603939e-95
332.90 1.603939e-95
333.00 1.603939e-95
333.10 1.603939e-95
333.20 1.603939e-95
333.30 1.603939e-95
333.40 1.603939e-95
333.50 1.603939e-95
333.60 1.603939e-95
333.70 1.603939e-95
333.80 1.603939e-95
333.90 1.603939e-95
334.00 1.603939e-95
334.10 1.603939e-95
334.20 1.603939e-95
334.30 1.603939e-95
334.40 1.603939e-95
334.50 1.603939e-95
334.60 1.603939e-95
334.70 1.603939e-95
334.80 1.603939e-95
334.90 1.603939e-95
335.00 1.603939e-95
335.10 1.603939e-95
335.20 1.603939e-95
335.30 1.603939e-95
335.40 1.603939e-95
335.50 1.603939e-95
335.60 1.603939e-95
335.70 1.603939e-95
335.80 1.603939e-95
335.90 1.603939e-95
336.00 1.603939e-95
336.10 1.603939e-95
336.20 1.603939e-95
336.30 1.603939e-95
336.40 1.603939e-95
336.50 1.603939e-95
336.60 1.603939e-95
336.70 1.603939e-95
336.80 1.603939e-95
336.90 1.603939e-95
337.00 1.603939e-95
337.10 1.603939e-95
337.20 1.603939e-95
337.30 1.603939e-95
337.40 1.603939e-95
337.50 1.603939e-95
337.60 1.603939e-95
337.70 1.603939e-95
337.80 1.603939e-95
337.90 1.603939e-95
338.00 1.603939e-95
338.10 1.603939e-95
338.20 1.603939e-95
338.30 1.603939e-95
338.40 1.603939e-95
338.50 1.603939e-95
338.60 1.603939e-95
338.70 1.603939e-95
338.80 1.603939e-95
338.90 1.603939e-95
339.00 1.603939e-95
339.10 1.603939e-95
339.20 1.603939e-95
339.30 1.603939e-95
339.40 1.603939e-95
339.50 1.603939e-95
339.60 1.603939e-95
339.70 1.603939e-95
339.80 1.603939e-95
339.90 1.603939e-95
340.00 1.603939e-95
340.10 1.603939e-95
340.20 1.603939e-95
340.30 1.603939e-95
340.40 1.603939e-95
340.50 1.603939e-95
340.60 1.603939e-95
340.70 1.603939e-95
340.80 1.603939e-95
340.90 1.603939e-95
341.00 1.603939e-95
341.10 1.603939e-95
341.20 1.603939e-95
341.30 1.603939e-95
341.40 1.603939e-95
341.50 1.603939e-95
341.60 1.603939e-95
341.70 1.603939e-95
341.80 1.603939e-95
341.90 1.603939e-95
342.00 1.603939e-95
342.10 1.603939e-95
342.20 1.603939e-95
342.30 1.603939e-95
342.40 1.603939e-95
342.50 1.603939e-95
342.60 1.603939e-95
342.70 1.603939e-95
342.80 1.603939e-95
342.90 1.603939e-95
343.00 1.603939e-95
343.10 1.603939e-95
343.20 1.603939e-95
343.30 1.603939e-95
343.40 1.603939e-95
343.50 1.603939e-95
343.60 1.603939e-95
343.70 1.603939e-95
343.80 1.603939e-95
343.90 1.603939e-95
344.00 1.603939e-95
344.10 1.603939e-95
344.20 1.603939e-95
344.30 1.603939e-95
344.40 1.603939e-95
344.50 1.603939e-95
344.60 1.603939e-95
344.70 1.603939e-95
344.80 1.603939e-95
344.90 1.603939e-95
345.00 1.603939e-95
345.10 1.603939e-95
345.20 1.603939e-95
345.30 1.603939e-95
345.40 1.603939e-95
345.50 1.603939e-95
345.60 1.603939e-95
345.70 1.603939e-95
345.80 1.603939e-95
345.90 1.603939e-95
346.00 1.603939e-95
346.10 1.603939e-95
346.20 1.603939e-95
346.30 1.603939e-95
346.40 1.603939e-95
346.50 1.603939e-95
346.60 1.603939e-95
346.70 1.603939e-95
346.80 1.603939e-95
346.90 1.603939e-95
347.00 1.603939e-95
347.10 1.603939e-95
347.20 1.603939e-95
347.30 1.603939e-95
347.40 1.603939e-95
347.50 1.603939e-95
347.60 1.603939e-95
347.70 1.603939e-95
347.80 1.603939e-95
347.90 1.603939e-95
348.00 1.603939e-95
348.10 1.603939e-95
348.20 1.603939e-95
348.30 1.603939e-95
348.40 1.603939e-95
348.50 1.603939e-95
348.60 1.603939e-95
348.70 1.603939e-95
348.80 1.603939e-95
348.90 1.603939e-95
349.00 1.603939e-95
349.10 1.603939e-95
349.20 1.603939e-95
349.30 1.603939e-95
349.40 1.603939e-95
349.50 1.603939e-95
349.60 1.603939e-95
349.70 1.603939e-95
349.80 1.603939e-95
349.90 1.603939e-95
350.00 1.603939e-95
350.10 1.603939e-95
350.20 1.603939e-95
350.30 1.603939e-95
350.40 1.603939e-95
350.50 1.603939e-95
350.60 1.603939e-95
350.70 1.603939e-95
350.80 1.603939e-95
350.90 1.603939e-95
351.00 1.603939e-95
351.10 1.603939e-95
351.20 1.603939e-95
351.30 1.603939e-95
351.40 1.603939e-95
351.50 1.603939e-95
351.60 1.603939e-95
351.70 1.603939e-95
351.80 1.603939e-95
351.90 1.603939e-95
352.00 1.603939e-95
352.10 1.603939e-95
352.20 1.603939e-95
352.30 1.603939e-95
352.40 1.603939e-95
352.50 1.603939e-95
352.60 1.603939e-95
352.70 1.603939e-95
352.80 1.603939e-95
352.90 1.603939e-95
353.00 1.603939e-95
353.10 1.603939e-95
353.20 1.603939e-95
353.30 1.603939e-95
353.40 1.603939e-95
353.50 1.603939e-95
353.60 1.603939e-95
353.70 1.603939e-95
353.80 1.603939e-95
353.90 1.603939e-95
354.00 1.603939e-95
354.10 1.603939e-95
354.20 1.603939e-95
354.30 1.603939e-95
354.40 1.603939e-95
354.50 1.603939e-95
354.60 1.603939e-95
354.70 1.603939e-95
354.80 1.603939e-95
354.90 1.603939e-95
355.00 1.603939e-95
355.10 1.603939e-95
355.20 1.603939e-95
355.30 1.603939e-95
355.40 1.603939e-95
355.50 1.603939e-95
355.60 1.603939e-95
355.70 1.603939e-95
355.80 1.603939e-95
355.90 1.603939e-95
356.00 1.603939e-95
356.10 1.603939e-95
356.20 1.603939e-95
356.30 1.603939e-95
356.40 1.603939e-95
356.50 1.603939e-95
356.60 1.603939e-95
356.70 1.603939e-95
356.80 1.603939e-95
356.90 1.603939e-95
357.00 1.603939e-95
357.10 1.603939e-95
357.20 1.603939e-95
357.30 1.603939e-95
357.40 1.603939e-95
357.50 1.603939e-95
357.60 1.603939e-95
357.70 1.603939e-95
357.80 1.603939e-95
357.90 1.603939e-95
358.00 1.603939e-95
358.10 1.603939e-95
358.20 1.603939e-95
358.30 1.603939e-95
358.40 1.603939e-95
358.50 1.603939e-95
358.60 1.603939e-95
358.70 1.603939e-95
358.80 1.603939e-95
358.90 1.603939e-95
359.00 1.603939e-95
359.10 1.603939e-95
359.20 1.603939e-95
359.30 1.603939e-95
359.40 1.603939e-95
359.50 1.603939e-95
359.60 1.603939e-95
359.70 1.603939e-95
359.80 1.603939e-95
359.90 1.603939e-95
360.00 1.603939e-95
360.10 1.603939e-95
360.20 1.603939e-95
360.30 1.603939e-95
360.40 1.603939e-95
360.50 1.603939e-95
360.60 1.603939e-95
360.70 1.603939e-95
360.80 1.603939e-95
360.90 1.603939e-95
361.00 1.603939e-95
361.10 1.603939e-95
361.20 1.603939e-95
361.30 1.603939e-95
361.40 1.603939e-95
361.50 1.603939e-95
361.60 1.603939e-95
361.70 1.603939e-95
361.80 1.603939e-95
361.90 1.603939e-95
362.00 1.603939e-95
362.10 1.603939e-95
362.20 1.603939e-95
362.30 1.603939e-95
362.40 1.603939e-95
362.50 1.603939e-95
362.60 1.603939e-95
362.70 1.603939e-95
362.80 1.603939e-95
362.90 1.603939e-95
363.00 1.603939e-95
363.10 1.603939e-95
363.20 1.603939e-95
363.30 1.603939e-95
363.40 1.603939e-95
363.50 1.603939e-95
363.60 1.603939e-95
363.70 1.603939e-95
363.80 1.603939e-95
363.90 1.603939e-95
364.00 1.603939e-95
364.10 1.603939e-95
364.20 1.603939e-95
364.30 1.603939e-95
364.40 1.603939e-95
364.50 1.603939e-95
364.60 1.603939e-95
364.70 1.603939e-95
364.80 1.603939e-95
364.90 1.603939e-95
365.00 1.603939e-95
365.10 1.603939e-95
365.20 1.603939e-95
365.30 1.603939e-95
365.40 1.603939e-95
365.50 1.603939e-95
365.60 1.603939e-95
365.70 1.603939e-95
365.80 1.603939e-95
365.90 1.603939e-95
366.00 1.603939e-95
366.10 1.603939e-95
366.20 1.603939e-95
366.30 1.603939e-95
366.40 1.603939e-95
366.50 1.603939e-95
366.60 1.603939e-95
366.70 1.603939e-95
366.80 1.603939e-95
366.90 1.603939e-95
367.00 1.603939e-95
367.10 1.603939e-95
367.20 1.603939e-95
367.30 1.603939e-95
367.40 1.603939e-95
367.50 1.603939e-95
367.60 1.603939e-95
367.70 1.603939e-95
367.80 1.603939e-95
367.90 1.603939e-95
368.00 1.603939e-95
368.10 1.603939e-95
368.20 1.603939e-95
368.30 1.603939e-95
368.40 1.603939e-95
368.50 1.603939e-95
368.60 1.603939e-95
368.70 1.603939e-95
368.80 1.603939e-95
368.90 1.603939e-95
369.00 1.603939e-95
369.10 1.603939e-95
369.20 1.603939e-95
369.30 1.603939e-95
369.40 1.603939e-95
369.50 1.603939e-95
369.60 1.603939e-95
369.70 1.603939e-95
369.80 1.603939e-95
369.90 1.603939e-95
370.00 1.603939e-95
370.10 1.603939e-95
370.20 1.603939e-95
370.30 1.603939e-95
370.40 1.603939e-95
370.50 1.603939e-95
370.60 1.603939e-95
370.70 1.603939e-95
370.80 1.603939e-95
370.90 1.603939e-95
371.00 1.603939e-95
371.10 1.603939e-95
371.20 1.603939e-95
371.30 1.603939e-95
371.40 1.603939e-95
371.50 1.603939e-95
371.60 1.603939e-95
371.70 1.603939e-95
371.80 1.603939e-95
371.90 1.603939e-95
372.00 1.603939e-95
372.10 1.603939e-95
372.20 1.603939e-95
372.30 1.603939e-95
372.40 1.603939e-95
372.50 1.603939e-95
372.60 1.603939e-95
372.70 1.603939e-95
372.80 1.603939e-95
372.90 1.603939e-95
373.00 1.603939e-95
373.10 1.603939e-95
373.20 1.603939e-95
373.30 1.603939e-95
373.40 1.603939e-95
373.50 1.603939e-95
373.60 1.603939e-95
373.70 1.603939e-95
373.80 1.603939e-95
373.90 1.603939e-95
374.00 1.603939e-95
374.10 1.603939e-95
374.20 1.603939e-95
374.30 1.603939e-95
374.40 1.603939e-95
374.50 1.603939e-95
374.60 1.603939e-95
374.70 1.603939e-95
374.80 1.603939e-95
374.90 1.603939e-95
375.00 1.603939e-95
375.10 1.603939e-95
375.20 1.603939e-95
375.30 1.603939e-95
375.40 1.603939e-95
375.50 1.603939e-95
375.60 1.603939e-95
375.70 1.603939e-95
375.80 1.603939e-95
375.90 1.603939e-95
376.00 1.603939e-95
376.10 1.603939e-95
376.20 1.603939e-95
376.30 1.603939e-95
376.40 1.603939e-95
376.50 1.603939e-95
376.60 1.603939e-95
376.70 1.603939e-95
376.80 1.603939e-95
376.90 1.603939e-95
377.00 1.603939e-95
377.10 1.603939e-95
377.20 1.603939e-95
377.30 1.603939e-95
377.40 1.603939e-95
377.50 1.603939e-95
377.60 1.603939e-95
377.70 1.603939e-95
377.80 1.603939e-95
377.90 1.603939e-95
378.00 1.603939e-95
378.10 1.603939e-95
378.20 1.603939e-95
378.30 1.603939e-95
378.40 1.603939e-95
378.50 1.603939e-95
378.60 1.603939e-95
378.70 1.603939e-95
378.80 1.603939e-95
378.90 1.603939e-95
379.00 1.603939e-95
379.10 1.603939e-95
379.20 1.603939e-95
379.30 1.603939e-95
379.40 1.603939e-95
379.50 1.603939e-95
379.60 1.603939e-95
379.70 1.603939e-95
379.80 1.603939e-95
379.90 1.603939e-95
380.00 1.603939e-95
380.10 1.603939e-95
380.20 1.603939e-95
380.30 1.603939e-95
380.40 1.603939e-95
380.50 1.603939e-95
380.60 1.603939e-95
380.70 1.603939e-95
380.80 1.603939e-95
380.90 1.603939e-95
381.00 1.603939e-95
381.10 1.603939e-95
381.20 1.603939e-95
381.30 1.603939e-95
381.40 1.603939e-95
381.50 1.603939e-95
381.60 1.603939e-95
381.70 1.603939e-95
381.80 1.603939e-95
381.90 1.603939e-95
382.00 1.603939e-95
382.10 1.603939e-95
382.20 1.603939e-95
382.30 1.603939e-95
382.40 1.603939e-95
382.50 1.603939e-95
382.60 1.603939e-95
382.70 1.603939e-95
382.80 1.603939e-95
382.90 1.603939e-95
383.00 1.603939e-95
383.10 1.603939e-95
383.20 1.603939e-95
383.30 1.603939e-95
383.40 1.603939e-95
383.50 1.603939e-95
383.60 1.603939e-95
383.70 1.603939e-95
383.80 1.603939e-95
383.90 1.603939e-95
384.00 1.603939e-95
384.10 1.603939e-95
384.20 1.603939e-95
384.30 1.603939e-95
384.40 1.603939e-95
384.50 1.603939e-95
384.60 1.603939e-95
384.70 1.603939e-95
384.80 1.603939e-95
384.90 1.603939e-95
385.00 1.603939e-95
385.10 1.603939e-95
385.20 1.603939e-95
385.30 1.603939e-95
385.40 1.603939e-95
385.50 1.603939e-95
385.60 1.603939e-95
385.70 1.603939e-95
385.80 1.603939e-95
385.90 1.603939e-95
386.00 1.603939e-95
386.10 1.603939e-95
386.20 1.603939e-95
386.30 1.603939e-95
386.40 1.603939e-95
386.50 1.603939e-95
386.60 1.603939e-95
386.70 1.603939e-95
386.80 1.603939e-95
386.90 1.603939e-95
387.00 1.603939e-95
387.10 1.603939e-95
387.20 1.603939e-95
387.30 1.603939e-95
387.40 1.603939e-95
387.50 1.603939e-95
387.60 1.603939e-95
387.70 1.603939e-95
387.80 1.603939e-95
387.90 1.603939e-95
388.00 1.603939e-95
388.10 1.603939e-95
388.20 1.603939e-95
388.30 1.603939e-95
388.40 1.603939e-95
388.50 1.603939e-95
388.60 1.603939e-95
388.70 1.603939e-95
388.80 1.603939e-95
388.90 1.603939e-95
389.00 1.603939e-95
389.10 1.603939e-95
389.20 1.603939e-95
389.30 1.603939e-95
389.40 1.603939e-95
389.50 1.603939e-95
389.60 1.603939e-95
389.70 1.603939e-95
389.80 1.603939e-95
389.90 1.603939e-95
390.00 1.603939e-95
390.10 1.603939e-95
390.20 1.603939e-95
390.30 1.603939e-95
390.40 1.603939e-95
390.50 1.603939e-95
390.60 1.603939e-95
390.70 1.603939e-95
390.80 1.603939e-95
390.90 1.603939e-95
391.00 1.603939e-95
391.10 1.603939e-95
391.20 1.603939e-95
391.30 1.603939e-95
391.40 1.603939e-95
391.50 1.603939e-95
391.60 1.603939e-95
391.70 1.603939e-95
391.80 1.603939e-95
391.90 1.603939e-95
392.00 1.603939e-95
392.10 1.603939e-95
392.20 1.603939e-95
392.30 1.603939e-95
392.40 1.603939e-95
392.50 1.603939e-95
392.60 1.603939e-95
392.70 1.603939e-95
392.80 1.603939e-95
392.90 1.603939e-95
393.00 1.603939e-95
393.10 1.603939e-95
393.20 1.603939e-95
393.30 1.603939e-95
393.40 1.603939e-95
393.50 1.603939e-95
393.60 1.603939e-95
393.70 1.603939e-95
393.80 1.603939e-95
393.90 1.603939e-95
394.00 1.603939e-95
394.10 1.603939e-95
394.20 1.603939e-95
394.30 1.603939e-95
394.40 1.603939e-95
394.50 1.603939e-95
394.60 1.603939e-95
394.70 1.603939e-95
394.80 1.603939e-95
394.90 1.603939e-95
395.00 1.587899e-95
395.10 1.57186e-95
395.20 1.555821e-95
395.30 1.539781e-95
395.40 1.523742e-95
395.50 1.507702e-95
395.60 1.491663e-95
395.70 1.475624e-95
395.80 1.459584e-95
395.90 1.443545e-95
396.00 1.427505e-95
396.10 1.411466e-95
396.20 0.006544423
396.30 0.01698802
396.40 0.02618057
396.50 0.03025557
396.60 0.03025557
396.70 0.03025557
396.80 0.03025557
396.90 0.03025557
397.00 0.03025557
397.10 0.03025557
397.20 0.03025557
397.30 0.03025557
397.40 0.03025557
397.50 0.03025557
397.60 0.03025557
397.70 0.03025557
397.80 0.03435097
397.90 0.06663676
398.00 0.1230703
398.10 0.1937859
398.20 0.2674177
398.30 0.3334273
398.40 0.3822211
398.50 0.408506
398.60 0.4134586
398.70 0.4134586
398.80 0.4134586
398.90 0.4196444
399.00 0.4457598
399.10 0.4928339
399.20 0.5560243
399.30 0.6277804
399.40 0.7018429
399.50 0.7752644
399.60 0.8468939
399.70 0.9174495
399.80 0.9906875
399.90 1.070881
400.00 1.159404
400.10 1.252163
400.20 1.341427
400.30 1.420009
400.40 1.484242
400.50 1.534566
400.60 1.57357
400.70 1.606007
400.80 1.637334
400.90 1.670178
401.00 1.704821
401.10 1.740614
401.20 1.775584
401.30 1.805874
401.40 1.826983
401.50 1.836134
401.60 1.836134
401.70 1.836134
401.80 1.836134
401.90 1.836134
402.00 1.836134
402.10 1.836134
402.20 1.836134
402.30 1.836134
402.40 1.836134
402.50 1.857903
402.60 1.911279
402.70 1.993992
402.80 2.100275
402.90 2.221513
403.00 2.345178
403.10 2.460046
403.20 2.560169
403.30 2.642305
403.40 2.704477
403.50 2.747212
403.60 2.773861
403.70 2.787786
403.80 2.78859
403.90 2.78859
404.00 2.78859
404.10 2.78859
404.20 2.78859
404.30 2.78859
404.40 2.78859
404.50 2.78859
404.60 2.78859
404.70 2.78859
404.80 2.78859
404.90 2.78859
405.00 2.78859
405.10 2.78859
405.20 2.78859
405.30 2.78859
405.40 2.78859
405.50 2.78859
405.60 2.790309
405.70 2.796671
405.80 2.807383
405.90 2.821827
406.00 2.838248
406.10 2.853445
406.20 2.857314
406.30 2.850362
406.40 2.84117
406.50 2.837095
406.60 2.837095
406.70 2.837095
406.80 2.837095
406.90 2.837095
407.00 2.837095
407.10 2.837095
407.20 2.837095
407.30 2.838564
407.40 2.844626
407.50 2.853243
407.60 2.86189
407.70 2.865742
407.80 2.861646
407.90 2.829361
408.00 2.772927
408.10 2.702211
408.20 2.62858
408.30 2.56257
408.40 2.513776
408.50 2.487491
408.60 2.482539
408.70 2.482539
408.80 2.488536
408.90 2.497523
409.00 2.492216
409.10 2.468388
409.20 2.428964
409.30 2.378667
409.40 2.320378
409.50 2.254768
409.60 2.183138
409.70 2.112583
409.80 2.039345
409.90 1.959151
410.00 1.870628
410.10 1.777869
410.20 1.688605
410.30 1.610023
410.40 1.561149
410.50 1.541495
410.60 1.544367
410.70 1.559252
410.80 1.576553
410.90 1.589442
411.00 1.59344
411.10 1.587704
411.20 1.576105
411.30 1.565184
411.40 1.561455
411.50 1.569883
411.60 1.589074
411.70 1.607989
411.80 1.622599
411.90 1.629168
412.00 1.629168
412.10 1.629168
412.20 1.629168
412.30 1.629168
412.40 1.629168
412.50 1.607399
412.60 1.554024
412.70 1.47131
412.80 1.365028
412.90 1.24795
413.00 1.136645
413.10 1.040994
413.20 0.9651534
413.30 0.9097402
413.40 0.8729198
413.50 0.850562
413.60 0.8365998
413.70 0.8252689
413.80 0.8244645
413.90 0.8244645
414.00 0.8244645
414.10 0.8244645
414.20 0.8244645
414.30 0.8244645
414.40 0.8244645
414.50 0.8244645
414.60 0.8244645
414.70 0.8271171
414.80 0.8288683
414.90 0.8288683
415.00 0.8288683
415.10 0.8288683
415.20 0.8288683
415.30 0.8288683
415.40 0.8288683
415.50 0.8288683
415.60 0.8271498
415.70 0.8207872
415.80 0.8100751
415.90 0.7968073
416.00 0.7883295
416.10 0.783286
416.20 0.7804593
416.30 0.7783019
416.40 0.7783019
416.50 0.7783019
416.60 0.7783019
416.70 0.7783019
416.80 0.7783019
416.90 0.7783019
417.00 0.7783019
417.10 0.7783019
417.20 0.7783019
417.30 0.7768331
417.40 0.7707707
417.50 0.7621537
417.60 0.7659139
417.70 0.7864093
417.80 0.8193248
417.90 0.8568249
418.00 0.8944825
418.10 0.9281793
418.20 0.9562768
418.30 0.982121
418.40 1.013181
418.50 1.056765
418.60 1.11715
418.70 1.193948
418.80 1.275333
418.90 1.348281
419.00 1.406846
419.10 1.447379
419.20 1.467182
419.30 1.466044
419.40 1.450271
419.50 1.442459
419.60 1.442459
419.70 1.442459
419.80 1.442459
419.90 1.442459
420.00 1.442459
420.10 1.442459
420.20 1.442459
420.30 1.442459
420.40 1.430469
420.50 1.405926
420.60 1.36405
420.70 1.316729
420.80 1.2681
420.90 1.222367
421.00 1.183725
421.10 1.153669
421.20 1.130298
421.30 1.110929
421.40 1.093549
421.50 1.076997
421.60 1.075783
421.70 1.084063
421.80 1.097196
421.90 1.113062
422.00 1.128273
422.10 1.136071
422.20 1.136071
422.30 1.136071
422.40 1.136071
422.50 1.136071
422.60 1.136071
422.70 1.136071
422.80 1.136071
422.90 1.13191
423.00 1.11955
423.10 1.100332
423.20 1.076051
423.30 1.053807
423.40 1.037725
423.50 1.029152
423.60 1.030559
423.70 1.046898
423.80 1.073725
423.90 1.109892
424.00 1.155102
424.10 1.206971
424.20 1.2604
424.30 1.308658
424.40 1.345811
424.50 1.368723
424.60 1.377306
424.70 1.374654
424.80 1.372903
424.90 1.372903
425.00 1.372903
425.10 1.372903
425.20 1.372903
425.30 1.372903
425.40 1.372903
425.50 1.372903
425.60 1.372903
425.70 1.372903
425.80 1.372903
425.90 1.371727
426.00 1.363784
426.10 1.35363
426.20 1.346043
426.30 1.353086
426.40 1.36964
426.50 1.391518
426.60 1.415954
426.70 1.439632
426.80 1.458923
426.90 1.470876
427.00 1.472615
427.10 1.472615
427.20 1.472615
427.30 1.472615
427.40 1.472615
427.50 1.472615
427.60 1.460208
427.70 1.441493
427.80 1.434433
427.90 1.43914
428.00 1.453799
428.10 1.47435
428.20 1.494345
428.30 1.504806
428.40 1.496644
428.50 1.465333
428.60 1.411262
428.70 1.338925
428.80 1.257566
428.90 1.178106
429.00 1.108036
429.10 1.051968
429.20 1.014689
429.30 1.000421
429.40 1.006922
429.50 1.014801
429.60 1.024686
429.70 1.035874
429.80 1.047646
429.90 1.059752
430.00 1.071134
430.10 1.080077
430.20 1.085049
430.30 1.086859
430.40 1.083845
430.50 1.077718
430.60 1.077718
430.70 1.077718
430.80 1.077718
430.90 1.077718
431.00 1.077718
431.10 1.077718
431.20 1.077718
431.30 1.077718
431.40 1.077718
431.50 1.076691
431.60 1.058714
431.70 1.031519
431.80 1.005931
431.90 0.988327
432.00 0.9806959
432.10 0.983038
432.20 0.9946399
432.30 1.005659
432.40 1.014041
432.50 1.018744
432.60 1.01983
432.70 1.01983
432.80 1.01983
432.90 1.01983
433.00 1.01983
433.10 1.01983
433.20 1.01983
433.30 1.015351
433.40 1.006081
433.50 0.9942772
433.60 0.9862901
433.70 0.9809952
433.80 0.9724536
433.90 0.957171
434.00 0.9350164
434.10 0.9097851
434.20 0.8889408
434.30 0.8809588
434.40 0.8920399
434.50 0.9239527
434.60 0.9740348
434.70 1.032628
434.80 1.08736
434.90 1.136349
435.00 1.179861
435.10 1.220158
435.20 1.260644
435.30 1.303674
435.40 1.348962
435.50 1.393131
435.60 1.430849
435.70 1.456873
435.80 1.467887
435.90 1.467887
436.00 1.467887
436.10 1.467887
436.20 1.467887
436.30 1.459509
436.40 1.442956
436.50 1.421078
436.60 1.396642
436.70 1.372964
436.80 1.353673
436.90 1.34172
437.00 1.33998
437.10 1.340381
437.20 1.340381
437.30 1.340381
437.40 1.340381
437.50 1.340381
437.60 1.340381
437.70 1.336389
437.80 1.321914
437.90 1.300713
438.00 1.277189
438.10 1.255522
438.20 1.23822
438.30 1.225419
438.40 1.21405
438.50 1.201777
438.60 1.195463
438.70 1.191003
438.80 1.184979
438.90 1.176318
439.00 1.167015
439.10 1.159304
439.20 1.153014
439.30 1.146961
439.40 1.14046
439.50 1.13258
439.60 1.127022
439.70 1.122733
439.80 1.117707
439.90 1.11006
440.00 1.098678
440.10 1.089735
440.20 1.084764
440.30 1.082953
440.40 1.082598
440.50 1.082598
440.60 1.082598
440.70 1.082598
440.80 1.082598
440.90 1.082598
441.00 1.082598
441.10 1.082598
441.20 1.082598
441.30 1.082598
441.40 1.082598
441.50 1.082598
441.60 1.082598
441.70 1.082598
441.80 1.083496
441.90 1.090603
442.00 1.101557
442.10 1.113453
442.20 1.124948
442.30 1.137149
442.40 1.151536
442.50 1.168039
442.60 1.186064
442.70 1.204304
442.80 1.22262
442.90 1.240978
443.00 1.259915
443.10 1.279458
443.20 1.298738
443.30 1.31692
443.40 1.332795
443.50 1.345904
443.60 1.350481
443.70 1.344286
443.80 1.328773
443.90 1.307888
444.00 1.284833
444.10 1.258195
444.20 1.22561
444.30 1.185334
444.40 1.137099
444.50 1.082275
444.60 1.02361
444.70 0.9735027
444.80 0.9472926
444.90 0.9437977
445.00 0.9553105
445.10 0.9712882
445.20 0.9807095
445.30 0.9750035
445.40 0.9521948
445.50 0.9178718
445.60 0.8819928
445.70 0.855969
445.80 0.8451266
445.90 0.8490389
446.00 0.85803
446.10 0.8713979
446.20 0.8856726
446.30 0.8973206
446.40 0.9041043
446.50 0.9043982
446.60 0.9043982
446.70 0.9043982
446.80 0.9043982
446.90 0.9043982
447.00 0.9050565
447.10 0.9135614
447.20 0.9321382
447.30 0.9616998
447.40 1.002945
447.50 1.05652
447.60 1.122724
447.70 1.198651
447.80 1.272924
447.90 1.340745
448.00 1.398404
448.10 1.444589
448.20 1.480134
448.30 1.506949
448.40 1.528942
448.50 1.548469
448.60 1.558705
448.70 1.564329
448.80 1.56839
448.90 1.570892
449.00 1.570892
449.10 1.570892
449.20 1.570892
449.30 1.570892
449.40 1.570892
449.50 1.570892
449.60 1.566565
449.70 1.559666
449.80 1.552921
449.90 1.548461
450.00 1.548461
450.10 1.548461
450.20 1.548461
450.30 1.548461
450.40 1.551219
450.50 1.565964
450.60 1.593769
450.70 1.632513
450.80 1.677624
450.90 1.724541
451.00 1.769303
451.10 1.808195
451.20 1.839467
451.30 1.864619
451.40 1.88823
451.50 1.91641
451.60 1.95394
451.70 2.001149
451.80 2.050907
451.90 2.092095
452.00 2.121994
452.10 2.140173
452.20 2.14833
452.30 2.148805
452.40 2.145273
452.50 2.143213
452.60 2.146637
452.70 2.155586
452.80 2.168066
452.90 2.181769
453.00 2.193132
453.10 2.198263
453.20 2.194836
453.30 2.182782
453.40 2.166906
453.50 2.153797
453.60 2.143113
453.70 2.138062
453.80 2.142347
453.90 2.152025
454.00 2.161794
454.10 2.170471
454.20 2.177608
454.30 2.181986
454.40 2.182497
454.50 2.182497
454.60 2.182497
454.70 2.174023
454.80 2.150091
454.90 2.115029
455.00 2.077136
455.10 2.045371
455.20 2.027736
455.30 2.02984
455.40 2.050208
455.50 2.079263
455.60 2.104743
455.70 2.114555
455.80 2.114384
455.90 2.110471
456.00 2.10148
456.10 2.088112
456.20 2.073838
456.30 2.06219
456.40 2.055406
456.50 2.055112
456.60 2.055112
456.70 2.055112
456.80 2.055112
456.90 2.055112
457.00 2.054454
457.10 2.049617
457.20 2.038951
457.30 2.018814
457.40 1.986378
457.50 1.938924
457.60 1.874398
457.70 1.796831
457.80 1.711178
457.90 1.622352
458.00 1.535899
458.10 1.457133
458.20 1.390797
458.30 1.340478
458.40 1.306956
458.50 1.287429
458.60 1.277193
458.70 1.271569
458.80 1.267509
458.90 1.265006
459.00 1.265006
459.10 1.265006
459.20 1.265006
459.30 1.265006
459.40 1.265006
459.50 1.267254
459.60 1.272263
459.70 1.277572
459.80 1.28045
459.90 1.28045
460.00 1.28045
460.10 1.28045
460.20 1.28045
460.30 1.28045
460.40 1.277692
460.50 1.263794
460.60 1.247914
460.70 1.229306
460.80 1.208024
460.90 1.183455
461.00 1.155033
461.10 1.123303
461.20 1.092031
461.30 1.066879
461.40 1.043268
461.50 1.015088
461.60 0.9775572
461.70 0.9303488
461.80 0.8775374
461.90 0.8244118
462.00 0.7759783
462.10 0.7357639
462.20 0.7045099
462.30 0.6808158
462.40 0.664893
462.50 0.6539908
462.60 0.6402497
462.70 0.6189002
462.80 0.5905233
462.90 0.5616851
463.00 0.541894
463.10 0.5399958
463.20 0.561652
463.30 0.6079484
463.40 0.6729328
463.50 0.7454188
463.60 0.8182952
463.70 0.8813421
463.80 0.9257893
463.90 0.9511245
464.00 0.9625281
464.10 0.967469
464.20 0.9729299
464.30 0.984974
464.40 1.008942
464.50 1.044477
464.60 1.090874
464.70 1.144733
464.80 1.196573
464.90 1.239935
465.00 1.269502
465.10 1.282043
465.20 1.277058
465.30 1.256985
465.40 1.227931
465.50 1.199466
465.60 1.181098
465.70 1.179182
465.80 1.18539
465.90 1.190753
466.00 1.19713
466.10 1.205697
466.20 1.216602
466.30 1.229916
466.40 1.246126
466.50 1.265178
466.60 1.28657
466.70 1.309681
466.80 1.333901
466.90 1.358191
467.00 1.380776
467.10 1.396738
467.20 1.406043
467.30 1.409701
467.40 1.409189
467.50 1.408576
467.60 1.41281
467.70 1.420993
467.80 1.431482
467.90 1.44297
468.00 1.453377
468.10 1.461729
468.20 1.468088
468.30 1.472532
468.40 1.475647
468.50 1.477933
468.60 1.478768
468.70 1.478768
468.80 1.478768
468.90 1.478768
469.00 1.478768
469.10 1.478768
469.20 1.478768
469.30 1.478768
469.40 1.478768
469.50 1.476521
469.60 1.471512
469.70 1.467082
469.80 1.467623
469.90 1.470677
470.00 1.471543
470.10 1.471543
470.20 1.471543
470.30 1.471543
470.40 1.471951
470.50 1.472197
470.60 1.460981
470.70 1.440845
470.80 1.417017
470.90 1.394669
471.00 1.378328
471.10 1.371167
471.20 1.371167
471.30 1.371167
471.40 1.371341
471.50 1.373381
471.60 1.378123
471.70 1.386376
471.80 1.398172
471.90 1.412974
472.00 1.429659
472.10 1.446715
472.20 1.462138
472.30 1.473539
472.40 1.475582
472.50 1.467339
472.60 1.458545
472.70 1.452705
472.80 1.450287
472.90 1.447064
473.00 1.436555
473.10 1.417058
473.20 1.386471
473.30 1.34356
473.40 1.290528
473.50 1.233556
473.60 1.180911
473.70 1.141417
473.80 1.1225
473.90 1.127344
474.00 1.152376
474.10 1.186626
474.20 1.216821
474.30 1.232962
474.40 1.228519
474.50 1.200077
474.60 1.153681
474.70 1.099809
474.80 1.04338
474.90 0.989585
475.00 0.9428855
475.10 0.9069512
475.20 0.8889387
475.30 0.885233
475.40 0.8894322
475.50 0.8961915
475.60 0.9019777
475.70 0.904908
475.80 0.9045666
475.90 0.9003189
476.00 0.893942
476.10 0.8853749
476.20 0.8744705
476.30 0.8614296
476.40 0.8472197
476.50 0.8305505
476.60 0.8095178
476.70 0.7864069
476.80 0.7621864
476.90 0.7378967
477.00 0.7153117
477.10 0.6952819
477.20 0.6780654
477.30 0.6649838
477.40 0.6566859
477.50 0.6576674
477.60 0.6664326
477.70 0.6794605
477.80 0.6937223
477.90 0.7081531
478.00 0.7236461
478.10 0.7410163
478.20 0.7601007
478.30 0.7800644
478.40 0.8005976
478.50 0.822122
478.60 0.8451479
478.70 0.8673737
478.80 0.8858849
478.90 0.8989645
479.00 0.9050686
479.10 0.9050686
479.20 0.9050686
479.30 0.9050686
479.40 0.9050686
479.50 0.9050686
479.60 0.9050686
479.70 0.9041891
479.80 0.9007703
479.90 0.8977166
480.00 0.8968504
480.10 0.8968504
480.20 0.8968504
480.30 0.8993681
480.40 0.9075157
480.50 0.9182267
480.60 0.9297479
480.70 0.9394849
480.80 0.944234
480.90 0.944234
481.00 0.944234
481.10 0.944234
481.20 0.944234
481.30 0.944234
481.40 0.945139
481.50 0.9499972
481.60 0.956886
481.70 0.962552
481.80 0.9635118
481.90 0.9556297
482.00 0.9389446
482.10 0.9218886
482.20 0.9064649
482.30 0.8950645
482.40 0.8897056
482.50 0.8897056
482.60 0.8897056
482.70 0.8897056
482.80 0.8897056
482.90 0.8897056
483.00 0.8897056
483.10 0.8864263
483.20 0.8795046
483.30 0.8699916
483.40 0.8580397
483.50 0.8425258
483.60 0.822294
483.70 0.7984142
483.80 0.7767198
483.90 0.7530537
484.00 0.7231145
484.10 0.6863256
484.20 0.6457987
484.30 0.6132357
484.40 0.5931997
484.50 0.586106
484.60 0.586106
484.70 0.586106
484.80 0.586106
484.90 0.586106
485.00 0.5934119
485.10 0.6047553
485.20 0.6112284
485.30 0.61323
485.40 0.6121347
485.50 0.6085477
485.60 0.6028679
485.70 0.5965737
485.80 0.5919456
485.90 0.5908305
486.00 0.5908305
486.10 0.5908305
486.20 0.5908305
486.30 0.590557
486.40 0.588557
486.50 0.5861737
486.60 0.5858148
486.70 0.5858148
486.80 0.5858148
486.90 0.5858148
487.00 0.5858148
487.10 0.5912837
487.20 0.6075954
487.30 0.6328408
487.40 0.664175
487.50 0.6928854
487.60 0.7165953
487.70 0.7370753
487.80 0.7571488
487.90 0.7776467
488.00 0.7969997
488.10 0.8129232
488.20 0.8235926
488.30 0.8274487
488.40 0.8216077
488.50 0.8035903
488.60 0.7797287
488.70 0.757503
488.80 0.7389917
488.90 0.7259121
489.00 0.7198081
489.10 0.7219428
489.20 0.7293853
489.30 0.7387115
489.40 0.745658
489.50 0.7459287
489.60 0.7459287
489.70 0.7459287
489.80 0.7459287
489.90 0.7459287
490.00 0.7459287
490.10 0.7459287
490.20 0.7459287
490.30 0.744754
490.40 0.7463024
490.50 0.7504578
490.60 0.7562441
490.70 0.7636365
490.80 0.774682
490.90 0.790637
491.00 0.8080873
491.10 0.8284985
491.20 0.853621
491.30 0.8837947
491.40 0.9166212
491.50 0.9447793
491.60 0.9660242
491.70 0.9795231
491.80 0.986576
491.90 0.9917517
492.00 0.9974476
492.10 0.9984411
492.20 0.9984411
492.30 0.9984411
492.40 1.000127
492.50 1.006677
492.60 1.017079
492.70 1.029489
492.80 1.042324
492.90 1.055272
493.00 1.069175
493.10 1.08479
493.20 1.102273
493.30 1.12127
493.40 1.141422
493.50 1.163458
493.60 1.188778
493.70 1.215573
493.80 1.235524
493.90 1.249639
494.00 1.260793
494.10 1.272588
494.20 1.287263
494.30 1.296538
494.40 1.297004
494.50 1.297004
494.60 1.297004
494.70 1.297004
494.80 1.297004
494.90 1.297004
495.00 1.289698
495.10 1.277239
495.20 1.26149
495.30 1.24384
495.40 1.226943
495.50 1.213334
495.60 1.204277
495.70 1.199745
495.80 1.198506
495.90 1.204497
496.00 1.217517
496.10 1.237244
496.20 1.262479
496.30 1.291073
496.40 1.319351
496.50 1.342977
496.60 1.358526
496.70 1.364027
496.80 1.364027
496.90 1.364027
497.00 1.364027
497.10 1.358558
497.20 1.342246
497.30 1.317001
497.40 1.285667
497.50 1.250467
497.60 1.212079
497.70 1.173382
497.80 1.137031
497.90 1.102262
498.00 1.069096
498.10 1.038224
498.20 1.010562
498.30 0.9882223
498.40 0.9741187
498.50 0.9710019
498.60 0.9743489
498.70 0.979631
498.80 0.9871235
498.90 0.9962692
499.00 1.005836
499.10 1.011685
499.20 1.008553
499.30 0.9992266
499.40 0.9922801
499.50 0.9920093
499.60 0.9920093
499.70 0.9920093
499.80 0.9920093
499.90 0.9932478
500.00 1
500.10 1.012532
500.20 1.029468
500.30 1.046158
500.40 1.051381
500.50 1.044796
500.60 1.027602
500.70 1.010473
500.80 0.9946781
500.90 0.9787232
501.00 0.9612728
501.10 0.9408617
501.20 0.9157391
501.30 0.8855655
501.40 0.8516598
501.50 0.8166034
501.60 0.7851127
501.70 0.7630155
501.80 0.751953
501.90 0.7516547
502.00 0.7602215
502.10 0.7746506
502.20 0.7906092
502.30 0.8072143
502.40 0.8226494
502.50 0.8333802
502.60 0.8397167
502.70 0.843295
502.80 0.8458452
502.90 0.8466591
503.00 0.8435704
503.10 0.8352138
503.20 0.820701
503.30 0.8017039
503.40 0.7815515
503.50 0.7595156
503.60 0.734196
503.70 0.7053354
503.80 0.6744927
503.90 0.6498031
504.00 0.6312451
504.10 0.617009
504.20 0.6057254
504.30 0.5980677
504.40 0.5976022
504.50 0.5976022
504.60 0.5976022
504.70 0.5976022
504.80 0.5976022
504.90 0.5976022
505.00 0.5976022
505.10 0.5980388
505.20 0.5980388
505.30 0.5980388
505.40 0.5980388
505.50 0.5980388
505.60 0.5980388
505.70 0.5980388
505.80 0.5980388
505.90 0.5920476
506.00 0.579027
506.10 0.5620159
506.20 0.5492215
506.30 0.5405185
506.40 0.5359688
506.50 0.536622
506.60 0.5431894
506.70 0.5555275
506.80 0.5680661
506.90 0.5758562
507.00 0.5811041
507.10 0.5867622
507.20 0.5951134
507.30 0.6065732
507.40 0.6198215
507.50 0.6326136
507.60 0.64303
507.70 0.6477789
507.80 0.6453115
507.90 0.638497
508.00 0.6294598
508.10 0.6186864
508.20 0.6102359
508.30 0.6043117
508.40 0.6006077
508.50 0.597932
508.60 0.594585
508.70 0.5893028
508.80 0.5818104
508.90 0.5726647
509.00 0.5630976
509.10 0.5551142
509.20 0.5508039
509.30 0.5508039
509.40 0.5508039
509.50 0.5508039
509.60 0.5508039
509.70 0.5508039
509.80 0.5508039
509.90 0.5495654
510.00 0.5428132
510.10 0.5302814
510.20 0.513345
510.30 0.4953128
510.40 0.4799853
510.50 0.4706111
510.60 0.4752286
510.70 0.4887604
510.80 0.5062832
510.90 0.5236642
511.00 0.5362948
511.10 0.540548
511.20 0.540548
511.30 0.540548
511.40 0.540548
511.50 0.540548
511.60 0.539163
511.70 0.5338427
511.80 0.5250963
511.90 0.514108
512.00 0.5036649
512.10 0.494
512.20 0.4846045
512.30 0.4743425
512.40 0.4629872
512.50 0.4504327
512.60 0.4358928
512.70 0.4199037
512.80 0.4045188
512.90 0.3907572
513.00 0.3799423
513.10 0.3726839
513.20 0.3697145
513.30 0.3697145
513.40 0.3697145
513.50 0.3697145
513.60 0.3795274
513.70 0.3975074
513.80 0.4210312
513.90 0.4423115
514.00 0.4619877
514.10 0.4822066
514.20 0.5051286
514.30 0.5319203
514.40 0.5602425
514.50 0.5882593
514.60 0.6160674
514.70 0.6443355
514.80 0.6735433
514.90 0.7032681
515.00 0.7327273
515.10 0.7615236
515.20 0.7906929
515.30 0.8195066
515.40 0.8479827
515.50 0.8766667
515.60 0.9058027
515.70 0.9347754
515.80 0.9635789
515.90 0.9938379
516.00 1.026842
516.10 1.05954
516.20 1.083845
516.30 1.100778
516.40 1.112183
516.50 1.118486
516.60 1.119145
516.70 1.114642
516.80 1.106658
516.90 1.098868
517.00 1.09362
517.10 1.087962
517.20 1.082503
517.30 1.080864
517.40 1.083067
517.50 1.088718
517.60 1.096402
517.70 1.103435
517.80 1.107723
517.90 1.109634
518.00 1.110584
518.10 1.111258
518.20 1.111258
518.30 1.111258
518.40 1.111258
518.50 1.111258
518.60 1.111258
518.70 1.111258
518.80 1.111258
518.90 1.111258
519.00 1.114564
519.10 1.128539
519.20 1.152361
519.30 1.183132
519.40 1.217405
519.50 1.252656
519.60 1.285976
519.70 1.314116
519.80 1.33479
519.90 1.347157
520.00 1.351269
520.10 1.351269
520.20 1.351269
520.30 1.351269
520.40 1.351269
520.50 1.351269
520.60 1.345828
520.70 1.332296
520.80 1.314773
520.90 1.297392
521.00 1.284762
521.10 1.281101
521.20 1.283928
521.30 1.289007
521.40 1.295777
521.50 1.302951
521.60 1.30861
521.70 1.311591
521.80 1.312107
521.90 1.311298
522.00 1.307752
522.10 1.30387
522.20 1.300339
522.30 1.297114
522.40 1.293016
522.50 1.28829
522.60 1.286092
522.70 1.286092
522.80 1.286092
522.90 1.286997
523.00 1.293437
523.10 1.304825
523.20 1.318196
523.30 1.330045
523.40 1.338417
523.50 1.344226
523.60 1.340436
523.70 1.331683
523.80 1.323674
523.90 1.321938
524.00 1.330176
524.10 1.34715
524.20 1.366398
524.30 1.379312
524.40 1.379114
524.50 1.362942
524.60 1.335134
524.70 1.306866
524.80 1.277659
524.90 1.247934
525.00 1.218475
525.10 1.189242
525.20 1.160072
525.30 1.131259
525.40 1.102783
525.50 1.074099
525.60 1.044963
525.70 1.017241
525.80 0.997463
525.90 0.982071
526.00 0.9660688
526.10 0.9465786
526.20 0.9221007
526.30 0.891753
526.40 0.857236
526.50 0.8266543
526.60 0.8038792
526.70 0.7926579
526.80 0.7964926
526.90 0.8116667
527.00 0.8320242
527.10 0.8536213
527.20 0.8683204
527.30 0.8688824
527.40 0.8559955
527.50 0.8375529
527.60 0.8194518
527.70 0.8046762
527.80 0.7943823
527.90 0.7876386
528.00 0.7836378
528.10 0.7829639
528.20 0.7829639
528.30 0.7829639
528.40 0.7831237
528.50 0.7836713
528.60 0.7850677
528.70 0.7879157
528.80 0.7927779
528.90 0.8009236
529.00 0.8101641
529.10 0.8134444
529.20 0.812321
529.30 0.8101246
529.40 0.8097263
529.50 0.8128989
529.60 0.8215828
529.70 0.8373203
529.80 0.8602642
529.90 0.8893111
530.00 0.9227111
530.10 0.9553718
530.20 0.9827609
530.30 1.003672
530.40 1.016685
530.50 1.021441
530.60 1.021441
530.70 1.021441
530.80 1.021441
530.90 1.021441
531.00 1.021441
531.10 1.020849
531.20 1.018021
531.30 1.012942
531.40 1.006172
531.50 1.00138
531.60 0.9994618
531.70 1.001017
531.80 1.006046
531.90 1.012802
532.00 1.020271
532.10 1.026244
532.20 1.029855
532.30 1.031146
532.40 1.031191
532.50 1.031191
532.60 1.031191
532.70 1.031191
532.80 1.031191
532.90 1.030286
533.00 1.026996
533.10 1.023412
533.20 1.022449
533.30 1.02638
533.40 1.035332
533.50 1.046334
533.60 1.054632
533.70 1.055244
533.80 1.044579
533.90 1.020762
534.00 0.9839867
534.10 0.938156
534.20 0.8903279
534.30 0.8497509
534.40 0.8235471
534.50 0.8144481
534.60 0.8174823
534.70 0.8207365
534.80 0.8241232
534.90 0.8276592
535.00 0.8317745
535.10 0.8373409
535.20 0.8444856
535.30 0.8526575
535.40 0.861479
535.50 0.8706801
535.60 0.8805837
535.70 0.8905302
535.80 0.8943078
535.90 0.894041
536.00 0.8934711
536.10 0.8952491
536.20 0.900537
536.30 0.9093211
536.40 0.9193045
536.50 0.9230751
536.60 0.9230751
536.70 0.9209601
536.80 0.912571
536.90 0.8973969
537.00 0.8770394
537.10 0.8554423
537.20 0.8378508
537.30 0.8274685
537.40 0.8249037
537.50 0.8249037
537.60 0.8249037
537.70 0.8249037
537.80 0.8249037
537.90 0.8249037
538.00 0.8249037
538.10 0.8249037
538.20 0.8249037
538.30 0.8249037
538.40 0.824744
538.50 0.8241964
538.60 0.8227999
538.70 0.819952
538.80 0.8150897
538.90 0.8069441
539.00 0.7943971
539.10 0.7795208
539.20 0.7628912
539.30 0.7436723
539.40 0.7229961
539.50 0.7023933
539.60 0.6833424
539.70 0.6673434
539.80 0.6548574
539.90 0.6451586
540.00 0.6379937
540.10 0.6338691
540.20 0.6333448
540.30 0.6379005
540.40 0.648458
540.50 0.6642917
540.60 0.6814024
540.70 0.6952661
540.80 0.7069305
540.90 0.7175037
541.00 0.7273124
541.10 0.7365575
541.20 0.7458967
541.30 0.7556954
541.40 0.7658794
541.50 0.7737389
541.60 0.7798844
541.70 0.783748
541.80 0.7843259
541.90 0.7815909
542.00 0.7755402
542.10 0.7676913
542.20 0.761048
542.30 0.7566381
542.40 0.7549258
542.50 0.7549258
542.60 0.7549258
542.70 0.7549258
542.80 0.7549258
542.90 0.7549258
543.00 0.7517763
543.10 0.743972
543.20 0.7315633
543.30 0.7157828
543.40 0.69846
543.50 0.684623
543.60 0.6825858
543.70 0.6930909
543.80 0.7155868
543.90 0.7479938
544.00 0.7874388
544.10 0.8310646
544.20 0.876294
544.30 0.9202362
544.40 0.9617253
544.50 1.000737
544.60 1.037892
544.70 1.073769
544.80 1.108696
544.90 1.142942
545.00 1.176919
545.10 1.211107
545.20 1.245612
545.30 1.278977
545.40 1.308232
545.50 1.330701
545.60 1.345217
545.70 1.351714
545.80 1.350046
545.90 1.340293
546.00 1.323966
546.10 1.306265
546.20 1.288709
546.30 1.27345
546.40 1.262849
546.50 1.259078
546.60 1.259078
546.70 1.259078
546.80 1.259078
546.90 1.259078
547.00 1.259078
547.10 1.259078
547.20 1.259078
547.30 1.259078
547.40 1.259078
547.50 1.259078
547.60 1.259078
547.70 1.259078
547.80 1.259078
547.90 1.259078
548.00 1.259078
548.10 1.259078
548.20 1.259078
548.30 1.259078
548.40 1.259078
548.50 1.259078
548.60 1.259078
548.70 1.259078
548.80 1.259078
548.90 1.259078
549.00 1.259078
549.10 1.2567
549.20 1.250631
549.30 1.241275
549.40 1.228077
549.50 1.210256
549.60 1.187303
549.70 1.159425
549.80 1.128292
549.90 1.096577
550.00 1.998133
550.10 1.998133
550.20 1.998133
550.30 1.998133
550.40 1.998133
550.50 1.990696
550.60 1.959988
550.70 1.909126
550.80 1.840763
550.90 1.756384
551.00 1.657772
551.10 1.548707
551.20 1.435634
551.30 1.323913
551.40 1.215389
551.50 1.110995
551.60 1.010524
551.70 0.9126945
551.80 0.8169097
551.90 0.7224542
552.00 0.6272249
552.10 0.5278376
552.20 0.4237145
552.30 0.3198732
552.40 0.2246802
552.50 0.1455057
552.60 0.08445767
552.70 0.04022069
552.80 0.01238119
552.90 0.0002631527
553.00 0
553.10 0
553.20 0.01445124
553.30 0.04615765
553.40 0.0906674
553.50 0.1440886
553.60 0.2042598
553.70 0.2695583
553.80 0.338801
553.90 0.4110563
554.00 0.4838466
554.10 0.5533027
554.20 0.6156147
554.30 0.6669173
554.40 0.7045301
554.50 0.7296141
554.60 0.7456311
554.70 0.7559754
554.80 0.7636299
554.90 0.7711655
555.00 0.7786629
555.10 0.7786629
555.20 0.7786629
555.30 0.7786629
555.40 0.7786629
555.50 0.7786629
555.60 0.7786629
555.70 0.7786629
555.80 0.7786629
555.90 0.7786629
556.00 0.7842275
556.10 0.8546751
556.20 0.9724074
556.30 1.112186
556.40 1.248069
556.50 1.369249
556.60 1.484528
556.70 1.608533
556.80 1.749531
556.90 1.902948
557.00 2.059121
557.10 2.210092
557.20 2.333908
557.30 2.421869
557.40 2.474221
557.50 2.492229
557.60 2.477741
557.70 2.435101
557.80 2.370986
557.90 2.298731
558.00 2.225941
558.10 2.156554
558.20 2.103498
558.30 2.070583
558.40 2.057141
558.50 2.056203
558.60 2.057158
558.70 2.048975
558.80 2.041321
558.90 2.033785
559.00 2.026288
559.10 2.026288
559.20 2.026288
559.30 2.026288
559.40 2.026288
559.50 2.026288
559.60 2.026288
559.70 2.026288
559.80 2.026288
559.90 2.027655
560.00 2.026501
560.10 1.965453
560.20 1.863605
560.30 1.745506
560.40 1.637177
560.50 1.551207
560.60 1.479665
560.70 1.407021
560.80 1.324406
560.90 1.236904
561.00 1.154464
561.10 1.083902
561.20 1.02953
561.30 0.9930224
561.40 0.9742337
561.50 0.9713207
561.60 0.9819951
561.70 1.005899
561.80 1.043065
561.90 1.086721
562.00 1.136996
562.10 1.196113
562.20 1.252359
562.30 1.299532
562.40 1.33448
562.50 1.359192
562.60 1.38021
562.70 1.406069
562.80 1.424359
562.90 1.433093
563.00 1.435045
563.10 1.435045
563.20 1.436252
563.30 1.443607
563.40 1.458662
563.50 1.481672
563.60 1.513543
563.70 1.554257
563.80 1.601357
563.90 1.650104
564.00 1.696242
564.10 1.736409
564.20 1.770109
564.30 1.799824
564.40 1.825047
564.50 1.840889
564.60 1.841142
564.70 1.819186
564.80 1.770209
564.90 1.704294
565.00 1.630561
565.10 1.550152
565.20 1.466257
565.30 1.383097
565.40 1.305024
565.50 1.241038
565.60 1.192394
565.70 1.1484
565.80 1.106106
565.90 1.06245
566.00 1.012175
566.10 0.9529899
566.20 0.8874866
566.30 0.821926
566.40 0.7628081
566.50 0.7139496
566.60 0.6759592
566.70 0.6479387
566.80 0.6296494
566.90 0.6267284
567.00 0.6390001
567.10 0.66588
567.20 0.7061917
567.30 0.7535387
567.40 0.8034811
567.50 0.8509647
567.60 0.8889818
567.70 0.9131319
567.80 0.9237522
567.90 0.9236047
568.00 0.9160878
568.10 0.903242
568.20 0.8819835
568.30 0.8466983
568.40 0.7948265
568.50 0.7437747
568.60 0.6997842
568.70 0.6703803
568.80 0.6609733
568.90 0.6609733
569.00 0.6609733
569.10 0.6609733
569.20 0.6609733
569.30 0.6609733
569.40 0.6609733
569.50 0.6637722
569.60 0.676794
569.70 0.7146582
569.80 0.7769728
569.90 0.8581632
570.00 0.9519662
570.10 1.049448
570.20 1.137682
570.30 1.204431
570.40 1.243427
570.50 1.254558
570.60 1.254558
570.70 1.254558
570.80 1.254558
570.90 1.258498
571.00 1.28239
571.10 1.323025
571.20 1.374939
571.30 1.431971
571.40 1.484863
571.50 1.525664
571.60 1.552819
571.70 1.567365
571.80 1.570083
571.90 1.561718
572.00 1.542895
572.10 1.516513
572.20 1.489357
572.30 1.473248
572.40 1.472343
572.50 1.472343
572.60 1.472343
572.70 1.472343
572.80 1.472343
572.90 1.472343
573.00 1.472343
573.10 1.472343
573.20 1.472343
573.30 1.472343
573.40 1.472343
573.50 1.472978
573.60 1.470859
573.70 1.45193
573.80 1.404822
573.90 1.325966
574.00 1.232163
574.10 1.134681
574.20 1.046447
574.30 0.9796986
574.40 0.9407018
574.50 0.939679
574.60 0.961403
574.70 0.9874994
574.80 1.008229
574.90 1.004812
575.00 0.9666962
575.10 0.8991811
575.20 0.805748
575.30 0.6940141
575.40 0.5761247
575.50 0.4648298
575.60 0.3677875
575.70 0.3197382
575.80 0.3294714
575.90 0.3930407
576.00 0.4996889
576.10 0.6314545
576.20 0.7657666
576.30 0.8776877
576.40 0.9535827
576.50 0.9881253
576.60 0.9881253
576.70 0.9881253
576.80 0.9881253
576.90 0.9881253
577.00 0.9881253
577.10 0.9881253
577.20 0.9881253
577.30 0.9881253
577.40 0.9881253
577.50 0.9801617
577.60 0.9615443
577.70 0.9400407
577.80 0.9248341
577.90 0.9224997
578.00 0.9224997
578.10 0.9224997
578.20 0.9228596
578.30 0.9355403
578.40 0.96185
578.50 0.9909957
578.60 1.01804
578.70 1.046954
578.80 1.083459
578.90 1.130646
579.00 1.175323
579.10 1.208704
579.20 1.232876
579.30 1.253405
579.40 1.278276
579.50 1.316192
579.60 1.372677
579.70 1.417318
579.80 1.439249
579.90 1.43391
580.00 1.398314
580.10 1.332932
580.20 1.245827
580.30 1.152837
580.40 1.076942
580.50 1.042399
580.60 1.042399
580.70 1.048745
580.80 1.075618
580.90 1.120426
581.00 1.17645
581.10 1.234399
581.20 1.283294
581.30 1.313761
581.40 1.319469
581.50 1.319469
581.60 1.319469
581.70 1.319469
581.80 1.319469
581.90 1.319469
582.00 1.319469
582.10 1.319469
582.20 1.319109
582.30 1.306428
582.40 1.296205
582.50 1.301248
582.60 1.312583
582.70 1.317479
582.80 1.304321
582.90 1.268921
583.00 1.224243
583.10 1.190863
583.20 1.166691
583.30 1.146162
583.40 1.12129
583.50 1.083374
583.60 1.04263
583.70 1.020646
583.80 1.022297
583.90 1.056203
584.00 1.132644
584.10 1.259389
584.20 1.436921
584.30 1.653485
584.40 1.883566
584.50 2.097182
584.60 2.287419
584.70 2.441781
584.80 2.542036
584.90 2.590627
585.00 2.597562
585.10 2.578095
585.20 2.551443
585.30 2.534349
585.40 2.538705
585.50 2.550484
585.60 2.56763
585.70 2.592091
585.80 2.625007
585.90 2.665678
586.00 2.712824
586.10 2.768897
586.20 2.83652
586.30 2.912147
586.40 2.970312
586.50 2.989641
586.60 2.974462
586.70 2.932005
586.80 2.887927
586.90 2.869806
587.00 2.869806
587.10 2.869806
587.20 2.869806
587.30 2.869806
587.40 2.869806
587.50 2.869806
587.60 2.854066
587.70 2.800048
587.80 2.706295
587.90 2.572556
588.00 2.400855
588.10 2.197387
588.20 1.971478
588.30 1.757349
588.40 1.561246
588.50 1.392632
588.60 1.257979
588.70 1.157591
588.80 1.082008
588.90 1.014802
589.00 0.9518435
589.10 0.9133614
589.20 0.8911183
589.30 0.877745
589.40 0.8676811
589.50 0.8559016
589.60 0.8387558
589.70 0.8249098
589.80 0.8382561
589.90 0.8707201
590.00 0.9111608
590.10 0.9437117
590.20 0.9553505
590.30 0.9433359
590.40 0.9142965
590.50 0.8779568
590.60 0.8441091
590.70 0.8266597
590.80 0.8266597
590.90 0.8266597
591.00 0.8266597
591.10 0.8266597
591.20 0.8266597
591.30 0.8266597
591.40 0.8266597
591.50 0.8266597
591.60 0.8266597
591.70 0.8266597
591.80 0.8266597
591.90 0.826884
592.00 0.8576597
592.10 0.895231
592.20 0.9129566
592.30 0.8915911
592.40 0.8576129
592.50 0.81261
592.60 0.7570256
592.70 0.6967077
592.80 0.6451619
592.90 0.6189684
593.00 0.6189684
593.10 0.6189684
593.20 0.6189684
593.30 0.6189684
593.40 0.6189684
593.50 0.6189684
593.60 0.6189684
593.70 0.6083536
593.80 0.5639204
593.90 0.4907851
594.00 0.4031983
594.10 0.3145752
594.20 0.2353135
594.30 0.1717012
594.40 0.1264882
594.50 0.09920308
594.60 0.08812598
594.70 0.08812598
594.80 0.08812598
594.90 0.08812598
595.00 0.1134219
595.10 0.1708216
595.20 0.2555423
595.30 0.3627758
595.40 0.4883234
595.50 0.6265467
595.60 0.7701647
595.70 0.9104322
595.80 1.036965
595.90 1.137938
596.00 1.173923
596.10 1.16742
596.20 1.149695
596.30 1.149695
596.40 1.149695
596.50 1.149695
596.60 1.149695
596.70 1.149695
596.80 1.149695
596.90 1.149695
597.00 1.149695
597.10 1.149695
597.20 1.149695
597.30 1.149695
597.40 1.149695
597.50 1.149695
597.60 1.149695
597.70 1.149695
597.80 1.147866
597.90 1.147866
598.00 1.147866
598.10 1.147866
598.20 1.147866
598.30 1.147866
598.40 1.147866
598.50 1.147866
598.60 1.147866
598.70 1.153693
598.80 1.164287
598.90 1.170924
599.00 1.145628
599.10 1.088229
599.20 1.003508
599.30 0.9014823
599.40 0.8033766
599.50 0.7212905
599.60 0.6649305
599.70 0.6415826
599.80 0.6564225
599.90 0.7100586
600.00 0
600.10 0
600.20 0
600.30 0
600.40 0
600.50 0
600.60 0
600.70 0.2330773
600.80 0.4237583
600.90 0.2655065
601.00 0
601.10 0
601.20 0
601.30 0.2083118
601.40 1.097676
601.50 2.24549
601.60 3.490317
601.70 4.676784
601.80 5.654911
601.90 6.193336
602.00 6.080576
602.10 5.235852
602.20 3.629365
602.30 1.337904
602.40 0
602.50 0
602.60 0
602.70 0
602.80 0
602.90 0
603.00 0
603.10 0
603.20 0
603.30 0
603.40 0
603.50 0
603.60 0.633461
603.70 1.217525
603.80 1.702392
603.90 2.030232
604.00 2.08661
604.10 1.84982
604.20 1.332045
604.30 0.5600569
604.40 0
604.50 0
604.60 0
604.70 0
604.80 0
604.90 0
605.00 0
605.10 0
605.20 0
605.30 0
605.40 0
605.50 0
605.60 0
605.70 0
605.80 0
605.90 0
606.00 0
606.10 0
606.20 0.72284
606.30 2.03616
606.40 3.258462
606.50 4.306334
606.60 5.218743
606.70 6.072858
606.80 6.806818
606.90 7.286951
607.00 7.467536
607.10 7.385957
607.20 7.041271
607.30 6.39646
607.40 5.514247
607.50 4.470771
607.60 3.304578
607.70 2.061807
607.80 0.7837018
607.90 0
608.00 0
608.10 0
608.20 0
608.30 0
608.40 0
608.50 0
608.60 0
608.70 0.6727959
608.80 1.257258
608.90 1.624573
609.00 1.84002
609.10 1.912071
609.20 1.829341
609.30 1.538433
609.40 1.033117
609.50 0.4471363
609.60 0
609.70 0
609.80 0
609.90 0
610.00 0
610.10 0.1283355
610.20 0.7225423
610.30 1.12846
610.40 1.126627
610.50 0.6307654
610.60 0
610.70 0
610.80 0
610.90 0
611.00 0
611.10 0
611.20 0
611.30 0
611.40 0
611.50 0.2964091
611.60 0.4991715
611.70 0.5028725
611.80 0.4100439
611.90 0.3448899
612.00 0.3441098
612.10 0.3351271
612.20 0.2338203
612.30 0.04999319
612.40 0
612.50 0
612.60 0
612.70 0
612.80 0
612.90 0
613.00 0
613.10 0
613.20 0
613.30 0
613.40 0
613.50 0
613.60 0
613.70 0.2188379
613.80 0.5797324
613.90 0.9751358
614.00 1.3476
614.10 1.67005
614.20 1.932926
614.30 2.147251
614.40 2.333297
614.50 2.47573
614.60 2.514104
614.70 2.388373
614.80 2.100104
614.90 1.721845
615.00 1.381514
615.10 1.182306
615.20 1.149909
615.30 1.225816
615.40 1.306595
615.50 1.328396
615.60 1.253923
615.70 1.027837
615.80 0.5549291
615.90 0
616.00 0
616.10 0
616.20 0
616.30 0
616.40 0
616.50 0
616.60 0
616.70 0.4506216
616.80 0.7696211
616.90 0.7893664
617.00 0.5210135
617.10 0.1028064
617.20 0
617.30 0
617.40 0
617.50 0
617.60 0
617.70 0
617.80 0.3200543
617.90 0.713648
618.00 1.028923
618.10 1.285708
618.20 1.573876
618.30 1.898479
618.40 2.136173
618.50 2.190311
618.60 2.135101
618.70 2.135917
618.80 2.326707
618.90 2.73746
619.00 3.326075
619.10 3.950802
619.20 4.458273
619.30 4.791824
619.40 4.940064
619.50 4.916989
619.60 4.747172
619.70 4.520985
619.80 4.370502
619.90 4.330528
620.00 4.246082
620.10 3.948366
620.20 3.384617
620.30 2.66718
620.40 2.017965
620.50 1.652464
620.60 1.724311
620.70 2.20945
620.80 2.968229
620.90 3.75565
621.00 4.225827
621.10 4.136504
621.20 3.465358
621.30 2.392906
621.40 1.25372
621.50 0.3447189
621.60 0
621.70 0
621.80 0
621.90 0.4116274
622.00 0.9838448
622.10 1.565538
622.20 2.113268
622.30 2.601264
622.40 3.099701
622.50 3.666046
622.60 4.245256
622.70 4.717714
622.80 4.974217
622.90 4.983841
623.00 4.798144
623.10 4.479048
623.20 4.080243
623.30 3.683485
623.40 3.456482
623.50 3.507191
623.60 3.79136
623.70 4.233098
623.80 4.721997
623.90 5.108328
624.00 5.203445
624.10 4.956858
624.20 4.494583
624.30 3.96733
624.40 3.455711
624.50 3.026526
624.60 2.744225
624.70 2.574092
624.80 2.368573
624.90 1.97669
625.00 1.376754
625.10 0.6051505
625.20 0
625.30 0
625.40 0
625.50 0
625.60 0
625.70 0
625.80 0
625.90 0.4630387
626.00 1.6076
626.10 2.661073
626.20 3.547161
626.30 4.260339
626.40 4.808521
626.50 5.220526
626.60 5.535353
626.70 5.722878
626.80 5.749333
626.90 5.551565
627.00 5.020252
627.10 4.097659
627.20 2.817984
627.30 1.357347
627.40 0
627.50 0
627.60 0
627.70 0
627.80 0
627.90 0.9248643
628.00 2.554601
628.10 3.979975
628.20 4.951911
628.30 5.407006
628.40 5.352487
628.50 4.811704
628.60 3.93585
628.70 2.982036
628.80 2.187814
628.90 1.629642
629.00 1.312728
629.10 1.265387
629.20 1.544045
629.30 2.130294
629.40 2.792796
629.50 3.128306
629.60 2.691387
629.70 1.243052
629.80 0
629.90 0
630.00 0
630.10 0
630.20 0
630.30 0
630.40 0
630.50 0
630.60 2.807044
630.70 4.811304
630.80 5.73938
630.90 5.673131
631.00 4.940791
631.10 3.990927
631.20 3.179745
631.30 2.654345
631.40 2.359407
631.50 2.170133
631.60 2.035117
631.70 1.916523
631.80 1.83023
631.90 1.846192
632.00 2.00505
632.10 2.247998
632.20 2.473876
632.30 2.681699
632.40 2.940563
632.50 3.199438
632.60 3.267128
632.70 3.086857
632.80 2.769843
632.90 2.432798
633.00 2.15376
633.10 2.035346
633.20 2.158504
633.30 2.487855
633.40 2.855641
633.50 3.1404
633.60 3.339601
633.70 3.457665
633.80 3.441112
633.90 3.249125
634.00 2.926645
634.10 2.513282
634.20 2.08368
634.30 1.691173
634.40 1.360131
634.50 1.147117
634.60 1.107072
634.70 1.317807
634.80 1.880368
634.90 2.783599
635.00 3.847907
635.10 4.811891
635.20 5.488603
635.30 5.832113
635.40 5.850114
635.50 5.519041
635.60 4.857587
635.70 4.022802
635.80 3.195423
635.90 2.489745
636.00 1.905006
636.10 1.33979
636.20 0.7744434
636.30 0.3265507
636.40 0.1442986
636.50 0.3086955
636.60 0.7629995
636.70 1.3631
636.80 1.934539
636.90 2.371762
637.00 2.597758
637.10 2.5211
637.20 2.131266
637.30 1.498858
637.40 0.8263299
637.50 0.3563783
637.60 0.1950961
637.70 0.3500225
637.80 0.8526677
637.90 1.69707
638.00 2.763651
638.10 3.888482
638.20 4.9768
638.30 5.924476
638.40 6.572098
638.50 6.83763
638.60 6.756029
638.70 6.457151
638.80 6.078438
638.90 5.75479
639.00 5.560882
639.10 5.459592
639.20 5.308156
639.30 4.977298
639.40 4.537942
639.50 4.153531
639.60 3.93786
639.70 3.939852
639.80 4.124633
639.90 4.372949
640.00 4.541751
640.10 4.525164
640.20 4.276625
640.30 3.784832
640.40 3.083836
640.50 2.307496
640.60 1.659931
640.70 1.301783
640.80 1.230716
640.90 1.311125
641.00 1.388261
641.10 1.400658
641.20 1.404726
641.30 1.519035
641.40 1.856873
641.50 2.447608
641.60 3.222972
641.70 4.085346
641.80 4.946924
641.90 5.619002
642.00 5.877663
642.10 5.685391
642.20 5.152484
642.30 4.452057
642.40 3.779688
642.50 3.293236
642.60 3.115395
642.70 3.286043
642.80 3.744132
642.90 4.39124
643.00 5.110043
643.10 5.741579
643.20 6.149514
643.30 6.350464
643.40 6.40808
643.50 6.298328
643.60 6.005424
643.70 5.61712
643.80 5.268214
643.90 5.051802
644.00 4.97543
644.10 4.992074
644.20 5.031099
644.30 5.016328
644.40 4.898281
644.50 4.653221
644.60 4.305122
644.70 3.91896
644.80 3.611755
644.90 3.443583
645.00 3.399609
645.10 3.44808
645.20 3.552981
645.30 3.683894
645.40 3.840349
645.50 4.096062
645.60 4.50429
645.70 5.033177
645.80 5.643355
645.90 6.350457
646.00 7.113539
646.10 7.712277
646.20 7.861452
646.30 7.474291
646.40 6.70144
646.50 5.807642
646.60 5.05419
646.70 4.612584
646.80 4.509159
646.90 4.568887
647.00 4.568198
647.10 4.445762
647.20 4.211036
647.30 3.792443
647.40 3.161222
647.50 2.498566
647.60 2.10049
647.70 2.153055
647.80 2.629734
647.90 3.332895
648.00 4.009441
648.10 4.490669
648.20 4.758245
648.30 4.932211
648.40 5.192387
648.50 5.611002
648.60 6.172259
648.70 6.869036
648.80 7.624767
648.90 8.290045
649.00 8.728775
649.10 8.871882
649.20 8.757403
649.30 8.485985
649.40 8.115917
649.50 7.670776
649.60 7.186968
649.70 6.723019
649.80 6.297565
649.90 5.907416
650.00 5.556976
650.10 5.281995
650.20 5.179913
650.30 5.332596
650.40 5.763218
650.50 6.453051
650.60 7.273838
650.70 8.001786
650.80 8.502988
650.90 8.723275
651.00 8.606324
651.10 8.14316
651.20 7.451059
651.30 6.683989
651.40 5.998326
651.50 5.596791
651.60 5.593626
651.70 5.953423
651.80 6.510911
651.90 7.051156
652.00 7.443743
652.10 7.659267
652.20 7.725255
652.30 7.683122
652.40 7.609916
652.50 7.56499
652.60 7.551979
652.70 7.564283
652.80 7.563119
652.90 7.444088
653.00 7.161911
653.10 6.776201
653.20 6.388105
653.30 6.092115
653.40 5.911291
653.50 5.823449
653.60 5.812801
653.70 5.878037
653.80 5.993132
653.90 6.18243
654.00 6.432338
654.10 6.690624
654.20 6.940787
654.30 7.148124
654.40 7.266001
654.50 7.304061
654.60 7.32886
654.70 7.405621
654.80 7.642853
654.90 8.109142
655.00 8.673257
655.10 9.122246
655.20 9.329091
655.30 9.210803
655.40 8.779361
655.50 8.12128
655.60 7.354578
655.70 6.704717
655.80 6.337429
655.90 6.229279
656.00 6.332921
656.10 6.587883
656.20 6.841426
656.30 7.008527
656.40 7.147019
656.50 7.326994
656.60 7.549958
656.70 7.769322
656.80 7.93391
656.90 7.992453
657.00 7.946272
657.10 7.792604
657.20 7.576114
657.30 7.419478
657.40 7.322777
657.50 7.226683
657.60 7.148403
657.70 7.111166
657.80 7.133042
657.90 7.228692
658.00 7.40982
658.10 7.712922
658.20 8.155984
658.30 8.709292
658.40 9.278141
658.50 9.737941
658.60 9.973696
658.70 9.855281
658.80 9.350801
658.90 8.65264
659.00 8.040063
659.10 7.689121
659.20 7.646798
659.30 7.948476
659.40 8.620329
659.50 9.568087
659.60 10.62058
659.70 11.62186
659.80 12.43691
659.90 12.89559
660.00 12.90497
660.10 12.66172
660.20 12.4351
660.30 12.28093
660.40 12.10441
660.50 11.82297
660.60 11.45787
660.70 11.07105
660.80 10.68227
660.90 10.29653
661.00 9.939316
661.10 9.6696
661.20 9.53609
661.30 9.556519
661.40 9.709548
661.50 9.87328
661.60 9.927955
661.70 9.83852
661.80 9.633728
661.90 9.385705
662.00 9.186147
662.10 9.152023
662.20 9.387671
662.30 9.967989
662.40 10.90882
662.50 12.06637
662.60 13.15683
662.70 13.94173
662.80 14.3063
662.90 14.20293
663.00 13.63438
663.10 12.69547
663.20 11.57009
663.30 10.46497
663.40 9.543482
663.50 8.865873
663.60 8.427629
663.70 8.181734
663.80 8.045742
663.90 7.997961
664.00 8.055891
664.10 8.258523
664.20 8.619561
664.30 9.104437
664.40 9.689871
664.50 10.31991
664.60 10.91781
664.70 11.40843
664.80 11.6785
664.90 11.59273
665.00 11.09442
665.10 10.27943
665.20 9.329533
665.30 8.423533
665.40 7.717669
665.50 7.318927
665.60 7.306829
665.70 7.666455
665.80 8.279737
665.90 8.990439
666.00 9.615374
666.10 10.01338
666.20 10.19424
666.30 10.28231
666.40 10.34196
666.50 10.3763
666.60 10.38219
666.70 10.34631
666.80 10.28468
666.90 10.24263
667.00 10.22359
667.10 10.22591
667.20 10.27753
667.30 10.41286
667.40 10.69314
667.50 11.1723
667.60 11.76077
667.70 12.29051
667.80 12.67997
667.90 12.89114
668.00 12.92714
668.10 12.88483
668.20 12.92165
668.30 13.14074
668.40 13.52467
668.50 13.98461
668.60 14.4085
668.70 14.69038
668.80 14.66824
668.90 14.19749
669.00 13.34992
669.10 12.37147
669.20 11.52688
669.30 10.97416
669.40 10.75387
669.50 10.81909
669.60 11.04041
669.70 11.29662
669.80 11.5442
669.90 11.73985
670.00 11.84528
670.10 11.86588
670.20 11.87218
670.30 11.95506
670.40 12.14738
670.50 12.44958
670.60 12.81291
670.70 13.15586
670.80 13.40473
670.90 13.51985
671.00 13.52393
671.10 13.43339
671.20 13.2595
671.30 13.10334
671.40 13.0605
671.50 13.16504
671.60 13.39
671.70 13.66703
671.80 13.90893
671.90 13.99224
672.00 13.85563
672.10 13.5741
672.20 13.26344
672.30 13.02924
672.40 12.9652
672.50 13.11878
672.60 13.44345
672.70 13.8157
672.80 14.13214
672.90 14.31264
673.00 14.36194
673.10 14.3311
673.20 14.22818
673.30 14.03428
673.40 13.70424
673.50 13.2017
673.60 12.57111
673.70 11.88011
673.80 11.13617
673.90 10.40406
674.00 9.866152
674.10 9.721806
674.20 10.09158
674.30 10.97123
674.40 12.12772
674.50 13.23051
674.60 14.06962
674.70 14.51065
674.80 14.49616
674.90 14.07098
675.00 13.35103
675.10 12.53067
675.20 11.87835
675.30 11.61492
675.40 11.80438
675.50 12.34303
675.60 13.02598
675.70 13.64402
675.80 14.10196
675.90 14.39026
676.00 14.47012
676.10 14.34169
676.20 14.11043
676.30 13.93982
676.40 13.89284
676.50 13.91592
676.60 13.96303
676.70 14.00467
676.80 14.03523
676.90 14.07451
677.00 14.10473
677.10 14.06971
677.20 13.9838
677.30 13.95742
677.40 14.10707
677.50 14.50212
677.60 15.09213
677.70 15.67802
677.80 16.12809
677.90 16.4561
678.00 16.68519
678.10 16.78009
678.20 16.65031
678.30 16.2438
678.40 15.6181
678.50 14.91193
678.60 14.19452
678.70 13.46034
678.80 12.74773
678.90 12.1421
679.00 11.7534
679.10 11.69347
679.20 12.00492
679.30 12.585
679.40 13.21631
679.50 13.70039
679.60 13.93445
679.70 13.91003
679.80 13.6796
679.90 13.31039
680.00 12.90506
680.10 12.54222
680.20 12.25134
680.30 12.07806
680.40 12.06437
680.50 12.22999
680.60 12.54134
680.70 12.94966
680.80 13.47239
680.90 14.1282
681.00 14.87098
681.10 15.57342
681.20 16.07643
681.30 16.27144
681.40 16.14022
681.50 15.77013
681.60 15.33784
681.70 14.9926
681.80 14.79552
681.90 14.78327
682.00 14.96948
682.10 15.32087
682.20 15.74119
682.30 16.1211
682.40 16.40035
682.50 16.5458
682.60 16.54983
682.70 16.45857
682.80 16.317
682.90 16.13982
683.00 15.88623
683.10 15.50189
683.20 15.01173
683.30 14.49988
683.40 14.07838
683.50 13.85348
683.60 13.84899
683.70 13.96484
683.80 14.02761
683.90 13.94039
684.00 13.71556
684.10 13.38121
684.20 12.99535
684.30 12.63938
684.40 12.43834
684.50 12.53316
684.60 12.97822
684.70 13.7047
684.80 14.52769
684.90 15.19045
685.00 15.46868
685.10 15.30165
685.20 14.77214
685.30 14.01853
685.40 13.18673
685.50 12.41327
685.60 11.8336
685.70 11.57288
685.80 11.65439
685.90 11.97017
686.00 12.325
686.10 12.46268
686.20 12.21535
686.30 11.66642
686.40 11.0259
686.50 10.43931
686.60 10.03471
686.70 9.91479
686.80 10.12308
686.90 10.65376
687.00 11.41438
687.10 12.21991
687.20 12.84641
687.30 13.13412
687.40 13.07082
687.50 12.77599
687.60 12.44445
687.70 12.17529
687.80 11.99486
687.90 11.98202
688.00 12.1505
688.10 12.45813
688.20 12.81711
688.30 13.12442
688.40 13.31196
688.50 13.31384
688.60 13.10163
688.70 12.70338
688.80 12.21303
688.90 11.81557
689.00 11.62689
689.10 11.65436
689.20 11.86775
689.30 12.16875
689.40 12.4928
689.50 12.81915
689.60 13.13714
689.70 13.44201
689.80 13.72791
689.90 14.02763
690.00 14.37668
690.10 14.76265
690.20 15.09893
690.30 15.22426
690.40 15.08461
690.50 14.77565
690.60 14.38468
690.70 14.04128
690.80 13.86442
690.90 13.84871
691.00 13.93303
691.10 14.07385
691.20 14.25323
691.30 14.42588
691.40 14.49198
691.50 14.38446
691.60 14.14721
691.70 13.94166
691.80 13.8853
691.90 13.96663
692.00 14.18738
692.10 14.50298
692.20 14.84469
692.30 15.15
692.40 15.32667
692.50 15.30343
692.60 15.03644
692.70 14.55769
692.80 14.03099
692.90 13.6897
693.00 13.68466
693.10 13.93804
693.20 14.20927
693.30 14.3326
693.40 14.23466
693.50 13.88466
693.60 13.22004
693.70 12.26999
693.80 11.30041
693.90 10.61047
694.00 10.38348
694.10 10.67058
694.20 11.39188
694.30 12.36224
694.40 13.3517
694.50 14.14375
694.60 14.59239
694.70 14.65471
694.80 14.4277
694.90 14.1242
695.00 13.97228
695.10 14.0941
695.20 14.44627
695.30 14.91878
695.40 15.43219
695.50 15.94052
695.60 16.38271
695.70 16.65903
695.80 16.66249
695.90 16.41908
696.00 16.1235
696.10 15.95109
696.20 15.92325
696.30 15.95323
696.40 15.97865
696.50 15.94309
696.60 15.79935
696.70 15.55081
696.80 15.19031
696.90 14.71318
697.00 14.13551
697.10 13.49247
697.20 12.8415
697.30 12.27771
697.40 11.83943
697.50 11.52533
697.60 11.3701
697.70 11.38856
697.80 11.58608
697.90 11.98184
698.00 12.53004
698.10 13.09993
698.20 13.5567
698.30 13.78424
698.40 13.77206
698.50 13.59446
698.60 13.34019
698.70 13.05848
698.80 12.79544
698.90 12.55979
699.00 12.29538
699.10 11.97938
699.20 11.64554
699.30 11.37019
699.40 11.18054
699.50 11.10367
699.60 11.2739
699.70 11.82103
699.80 12.72506
699.90 13.88401
700.00 15.14116
700.10 16.28145
700.20 17.09633
700.30 17.45169
700.40 17.32332
700.50 16.77198
700.60 15.91473
700.70 14.91452
700.80 13.98554
700.90 13.28667
701.00 12.82298
701.10 12.56516
701.20 12.52251
701.30 12.67763
701.40 12.98911
701.50 13.39452
701.60 13.81925
701.70 14.23127
701.80 14.62867
701.90 15.00352
702.00 15.3124
702.10 15.49146
702.20 15.51523
702.30 15.43378
702.40 15.31109
702.50 15.15023
702.60 14.96741
702.70 14.80624
702.80 14.71519
702.90 14.77785
703.00 15.05369
703.10 15.50145
703.20 16.01033
703.30 16.46354
703.40 16.77194
703.50 16.89918
703.60 16.85656
703.70 16.64151
703.80 16.26283
703.90 15.81456
704.00 15.38165
704.10 14.99303
704.20 14.69949
704.30 14.5815
704.40 14.7136
704.50 15.11988
704.60 15.73399
704.70 16.40161
704.80 16.94704
704.90 17.23453
705.00 17.19196
705.10 16.83807
705.20 16.30222
705.30 15.73444
705.40 15.22204
705.50 14.78952
705.60 14.41898
705.70 14.10743
705.80 13.86503
705.90 13.68605
706.00 13.58103
706.10 13.64868
706.20 14.00851
706.30 14.66982
706.40 15.50368
706.50 16.40314
706.60 17.28661
706.70 18.008
706.80 18.4925
706.90 18.78794
707.00 18.96307
707.10 19.00486
707.20 18.84201
707.30 18.47757
707.40 18.02348
707.50 17.58153
707.60 17.19543
707.70 16.91383
707.80 16.83155
707.90 16.96152
708.00 17.22831
708.10 17.57748
708.20 17.89868
708.30 18.07431
708.40 18.06389
708.50 17.86421
708.60 17.56343
708.70 17.29044
708.80 17.10156
708.90 17.01101
709.00 17.01796
709.10 17.12397
709.20 17.36836
709.30 17.78107
709.40 18.29938
709.50 18.79514
709.60 19.19619
709.70 19.46705
709.80 19.58933
709.90 19.61545
710.00 19.60316
710.10 19.58387
710.20 19.59397
710.30 19.70542
710.40 20.0106
710.50 20.54775
710.60 21.22746
710.70 21.8659
710.80 22.30182
710.90 22.46956
711.00 22.36682
711.10 22.04154
711.20 21.54665
711.30 20.9028
711.40 20.16851
711.50 19.45858
711.60 18.92344
711.70 18.6598
711.80 18.69203
711.90 18.99905
712.00 19.50835
712.10 20.09756
712.20 20.607
712.30 20.8887
712.40 20.92124
712.50 20.77377
712.60 20.49448
712.70 20.17016
712.80 19.90277
712.90 19.7209
713.00 19.59419
713.10 19.4881
713.20 19.37793
713.30 19.23509
713.40 19.0446
713.50 18.84845
713.60 18.73399
713.70 18.77784
713.80 18.92823
713.90 19.05416
714.00 19.05868
714.10 18.86521
714.20 18.45454
714.30 17.89017
714.40 17.26873
714.50 16.6674
714.60 16.11324
714.70 15.62779
714.80 15.26869
714.90 15.09001
715.00 15.10515
715.10 15.27685
715.20 15.64982
715.30 16.28567
715.40 17.13341
715.50 18.07221
715.60 18.91058
715.70 19.49255
715.80 19.74373
715.90 19.67049
716.00 19.37018
716.10 18.97604
716.20 18.6336
716.30 18.45409
716.40 18.49392
716.50 18.78193
716.60 19.1944
716.70 19.52127
716.80 19.67919
716.90 19.67821
717.00 19.56397
717.10 19.38364
717.20 19.24797
717.30 19.29095
717.40 19.57981
717.50 20.10571
717.60 20.76369
717.70 21.40939
717.80 21.92103
717.90 22.17737
718.00 22.03357
718.10 21.43676
718.20 20.48678
718.30 19.39317
718.40 18.42136
718.50 17.8181
718.60 17.66671
718.70 17.85948
718.80 18.26775
718.90 18.83496
719.00 19.56213
719.10 20.41863
719.20 21.28982
719.30 22.05169
719.40 22.63594
719.50 22.98123
719.60 23.00834
719.70 22.66423
719.80 21.94766
719.90 20.91585
720.00 19.71439
720.10 18.61845
720.20 17.91448
720.30 17.76768
720.40 18.14556
720.50 18.85589
720.60 19.6909
720.70 20.47855
720.80 21.09504
720.90 21.46191
721.00 21.53177
721.10 21.30089
721.20 20.83753
721.30 20.27276
721.40 19.75198
721.50 19.39282
721.60 19.20714
721.70 19.08313
721.80 18.93347
721.90 18.80572
722.00 18.82465
722.10 19.06044
722.20 19.51854
722.30 20.15253
722.40 20.86611
722.50 21.5828
722.60 22.24515
722.70 22.78248
722.80 23.1028
722.90 23.11581
723.00 22.82143
723.10 22.34645
723.20 21.87123
723.30 21.49809
723.40 21.21288
723.50 20.9691
723.60 20.70998
723.70 20.37164
723.80 20.03241
723.90 19.81986
724.00 19.69674
724.10 19.52735
724.20 19.29339
724.30 19.09529
724.40 19.00115
724.50 19.05402
724.60 19.22067
724.70 19.40552
724.80 19.46342
724.90 19.29693
725.00 19.01059
725.10 18.83683
725.20 18.83034
725.30 18.88714
725.40 19.04411
725.50 19.50755
725.60 20.35615
725.70 21.39729
725.80 22.35606
725.90 22.93911
726.00 22.97433
726.10 22.53779
726.20 21.95739
726.30 21.58951
726.40 21.52997
726.50 21.68029
726.60 21.9416
726.70 22.24535
726.80 22.49248
726.90 22.53036
727.00 22.26402
727.10 21.74476
727.20 21.13769
727.30 20.60846
727.40 20.25722
727.50 20.19174
727.60 20.44613
727.70 20.9252
727.80 21.49156
727.90 22.01697
728.00 22.35242
728.10 22.34635
728.20 21.96597
728.30 21.29651
728.40 20.46412
728.50 19.59871
728.60 18.80074
728.70 18.23351
728.80 18.0347
728.90 18.09835
729.00 18.14686
729.10 17.93447
729.20 17.39963
729.30 16.63664
729.40 15.8655
729.50 15.3667
729.60 15.31481
729.70 15.7282
729.80 16.5049
729.90 17.50339
730.00 18.53618
730.10 19.34406
730.20 19.68551
730.30 19.46451
730.40 18.80718
730.50 17.95745
730.60 17.1347
730.70 16.51304
730.80 16.26124
730.90 16.48333
731.00 17.08679
731.10 17.79306
731.20 18.23478
731.30 18.13418
731.40 17.47355
731.50 16.50232
731.60 15.62179
731.70 15.17952
731.80 15.3172
731.90 16.01331
732.00 17.16844
732.10 18.59647
732.20 19.97961
732.30 20.91634
732.40 21.13907
732.50 20.64319
732.60 19.69554
732.70 18.63813
732.80 17.70817
732.90 17.03874
733.00 16.65498
733.10 16.52591
733.20 16.6251
733.30 16.88378
733.40 17.18913
733.50 17.39604
733.60 17.31137
733.70 16.87827
733.80 16.30472
733.90 15.89232
734.00 15.82385
734.10 16.11044
734.20 16.68915
734.30 17.43974
734.40 18.15455
734.50 18.64352
734.60 18.8053
734.70 18.67328
734.80 18.33091
734.90 17.90632
735.00 17.64297
735.10 17.75802
735.20 18.26241
735.30 18.99237
735.40 19.70651
735.50 20.19412
735.60 20.27334
735.70 19.86475
735.80 19.1176
735.90 18.26563
736.00 17.48364
736.10 16.86318
736.20 16.48781
736.30 16.45398
736.40 16.76761
736.50 17.193
736.60 17.22192
736.70 16.49048
736.80 15.1726
736.90 13.76801
737.00 12.74755
737.10 12.36134
737.20 12.6347
737.30 13.4394
737.40 14.56768
737.50 15.77725
737.60 16.7909
737.70 17.33291
737.80 17.21906
737.90 16.54929
738.00 15.7211
738.10 15.08446
738.20 14.71349
738.30 14.58396
738.40 14.758
738.50 15.29748
738.60 16.20954
738.70 17.44694
738.80 18.86032
738.90 20.24617
739.00 21.41712
739.10 22.21193
739.20 22.51387
739.30 22.20034
739.40 21.25608
739.50 19.89071
739.60 18.42304
739.70 17.08731
739.80 15.99257
739.90 15.23005
740.00 14.80317
740.10 14.62815
740.20 14.63349
740.30 14.75423
740.40 14.90445
740.50 14.99332
740.60 14.9722
740.70 14.9459
740.80 15.07287
740.90 15.37162
741.00 15.71262
741.10 15.96345
741.20 16.07702
741.30 16.03263
741.40 15.82973
741.50 15.5056
741.60 15.14706
741.70 14.88054
741.80 14.7923
741.90 14.89694
742.00 15.15805
742.10 15.47287
742.20 15.73027
742.30 15.86646
742.40 15.9287
742.50 16.0263
742.60 16.17854
742.70 16.37196
742.80 16.63336
742.90 16.9583
743.00 17.26847
743.10 17.44374
743.20 17.41992
743.30 17.24273
743.40 17.04579
743.50 16.99674
743.60 17.17617
743.70 17.59671
743.80 18.12638
743.90 18.52594
744.00 18.61669
744.10 18.20802
744.20 17.20806
744.30 15.78886
744.40 14.25063
744.50 12.85748
744.60 11.7952
744.70 11.15747
744.80 10.94889
744.90 11.08015
745.00 11.45142
745.10 11.94709
745.20 12.46645
745.30 12.95243
745.40 13.38728
745.50 13.86202
745.60 14.4236
745.70 14.91912
745.80 15.2016
745.90 15.2589
746.00 15.05607
746.10 14.5451
746.20 13.74742
746.30 12.73893
746.40 11.61766
746.50 10.4932
746.60 9.485206
746.70 8.672639
746.80 8.160746
746.90 8.184985
747.00 8.883796
747.10 10.21392
747.20 11.98359
747.30 13.84451
747.40 15.48165
747.50 16.63344
747.60 17.02523
747.70 16.53535
747.80 15.27855
747.90 13.54599
748.00 11.73535
748.10 10.3193
748.20 9.636492
748.30 9.658104
748.40 10.21813
748.50 11.09402
748.60 11.93661
748.70 12.42747
748.80 12.36336
748.90 11.72863
749.00 10.73763
749.10 9.667057
749.20 8.77574
749.30 8.28309
749.40 8.301923
749.50 8.793166
749.60 9.601788
749.70 10.48028
749.80 11.12388
749.90 11.32705
750.00 11.06065
750.10 10.47062
750.20 9.801066
750.30 9.228733
750.40 8.808467
750.50 8.58955
750.60 8.638592
750.70 8.975159
750.80 9.549594
750.90 10.26484
751.00 11.01627
751.10 11.7062
751.20 12.24438
751.30 12.54194
751.40 12.53436
751.50 12.16775
751.60 11.42224
751.70 10.37941
751.80 9.24438
751.90 8.211048
752.00 7.302318
752.10 6.451008
752.20 5.738485
752.30 5.344986
752.40 5.301331
752.50 5.548139
752.60 5.967015
752.70 6.448265
752.80 6.934599
752.90 7.323031
753.00 7.516745
753.10 7.506803
753.20 7.345689
753.30 7.126786
753.40 7.054483
753.50 7.347273
753.60 7.974757
753.70 8.685823
753.80 9.244895
753.90 9.487184
754.00 9.388718
754.10 9.046801
754.20 8.584998
754.30 8.152166
754.40 7.888517
754.50 7.906963
754.60 8.239917
754.70 8.827443
754.80 9.528936
754.90 10.16458
755.00 10.57737
755.10 10.66866
755.20 10.44178
755.30 9.938656
755.40 9.224264
755.50 8.402164
755.60 7.606223
755.70 7.011638
755.80 6.815631
755.90 7.096766
756.00 7.740611
756.10 8.53407
756.20 9.297744
756.30 9.918847
756.40 10.33724
756.50 10.58523
756.60 10.71495
756.70 10.73603
756.80 10.5832
756.90 10.21451
757.00 9.667541
757.10 9.080558
757.20 8.589435
757.30 8.234867
757.40 8.061684
757.50 8.065561
757.60 8.180125
757.70 8.304649
757.80 8.308773
757.90 8.055645
758.00 7.410934
758.10 6.370769
758.20 5.145207
758.30 3.998675
758.40 3.150233
758.50 2.712209
758.60 2.702181
758.70 3.073985
758.80 3.7407
758.90 4.666739
759.00 5.757864
759.10 6.831094
759.20 7.736317
759.30 8.293945
759.40 8.401165
759.50 8.114858
759.60 7.585857
759.70 6.981309
759.80 6.384422
759.90 5.875394
760.00 5.493902
760.10 5.154372
760.20 4.770508
760.30 4.389072
760.40 4.101947
760.50 3.928691
760.60 3.843924
760.70 3.900329
760.80 4.200173
760.90 4.711191
761.00 5.219189
761.10 5.491617
761.20 5.453425
761.30 5.074689
761.40 4.388055
761.50 3.664807
761.60 3.22952
761.70 3.219809
761.80 3.6076
761.90 4.274577
762.00 5.01023
762.10 5.566464
762.20 5.691831
762.30 5.290601
762.40 4.46971
762.50 3.245068
762.60 1.60286
762.70 0
762.80 0
762.90 0
763.00 0
763.10 0
763.20 0
763.30 0.1395912
763.40 1.517392
763.50 2.631221
763.60 3.296997
763.70 3.40452
763.80 2.951135
763.90 2.267959
764.00 1.815045
764.10 1.790032
764.20 2.098648
764.30 2.549297
764.40 2.954223
764.50 3.133532
764.60 2.998316
764.70 2.601409
764.80 2.109187
764.90 1.68536
765.00 1.421581
765.10 1.38657
765.20 1.589324
765.30 1.877318
765.40 1.985091
765.50 1.737749
765.60 1.102768
765.70 0.1534313
765.80 0
765.90 0
766.00 0
766.10 0
766.20 0
766.30 0
766.40 0
766.50 0.2397276
766.60 1.200695
766.70 1.913919
766.80 2.309616
766.90 2.358706
767.00 2.092592
767.10 1.600136
767.20 0.9551158
767.30 0.2602748
767.40 0
767.50 0
767.60 0
767.70 0
767.80 0
767.90 0
768.00 0
768.10 0.2848497
768.20 1.421553
768.30 2.507849
768.40 3.3577
768.50 3.827583
768.60 3.886306
768.70 3.630858
768.80 3.205688
768.90 2.775399
769.00 2.446894
769.10 2.242492
769.20 2.215784
769.30 2.400221
769.40 2.65717
769.50 2.77767
769.60 2.696
769.70 2.456586
769.80 2.152652
769.90 1.918641
770.00 1.841662
770.10 1.952027
770.20 2.22818
770.30 2.567968
770.40 2.84592
770.50 2.978864
770.60 2.769037
770.70 1.954904
770.80 0.4819256
770.90 0
771.00 0
771.10 0
771.20 0
771.30 0
771.40 0
771.50 0
771.60 0
771.70 0
771.80 0
771.90 0
772.00 0
772.10 0
772.20 0
772.30 0.1897587
772.40 0.04542826
772.50 0
772.60 0
772.70 0
772.80 0
772.90 0
773.00 0.4730666
773.10 1.922654
773.20 3.302833
773.30 4.383911
773.40 5.079449
773.50 5.539185
773.60 5.943377
773.70 6.311403
773.80 6.592812
773.90 6.735957
774.00 6.654941
774.10 6.277632
774.20 5.601817
774.30 4.750271
774.40 3.941284
774.50 3.237495
774.60 2.402882
774.70 1.076259
774.80 0
774.90 0
775.00 0
775.10 0
775.20 0
775.30 0
775.40 0
775.50 0
775.60 0.8861826
775.70 2.764391
775.80 3.602281
775.90 3.341836
776.00 2.354785
776.10 1.310187
776.20 0.7589323
776.30 0.8530759
776.40 1.441054
776.50 2.326397
776.60 3.337434
776.70 4.286377
776.80 5.051657
776.90 5.630561
777.00 5.996547
777.10 6.079406
777.20 5.917376
777.30 5.652765
777.40 5.467013
777.50 5.486588
777.60 5.790499
777.70 6.399851
777.80 7.154389
777.90 7.837007
778.00 8.293651
778.10 8.433878
778.20 8.240712
778.30 7.768798
778.40 7.22388
778.50 6.821407
778.60 6.568653
778.70 6.396418
778.80 6.319979
778.90 6.368238
779.00 6.288804
779.10 5.708951
779.20 4.629399
779.30 3.298271
779.40 1.952651
779.50 0.8095694
779.60 0.1352771
779.70 0.07972351
779.80 0.5750463
779.90 1.532165
780.00 2.853019
780.10 4.370286
780.20 5.759955
780.30 6.624696
780.40 6.826619
780.50 6.451826
780.60 5.620029
780.70 4.550175
780.80 3.577403
780.90 3.099498
781.00 3.360035
781.10 4.407685
781.20 6.158075
781.30 8.386448
781.40 10.81179
781.50 12.96164
781.60 14.20049
781.70 14.04421
781.80 12.38123
781.90 9.582507
782.00 6.348303
782.10 3.495023
782.20 1.758988
782.30 1.500244
782.40 2.701755
782.50 5.091136
782.60 8.15113
782.70 11.17682
782.80 13.43414
782.90 14.48757
783.00 14.43108
783.10 13.67318
783.20 12.67896
783.30 11.84996
783.40 11.40277
783.50 11.31928
783.60 11.46721
783.70 11.71461
783.80 11.899
783.90 11.93874
784.00 11.88181
784.10 11.85153
784.20 11.94289
784.30 12.12653
784.40 12.33079
784.50 12.57962
784.60 13.0062
784.70 13.66203
784.80 14.41383
784.90 15.03218
785.00 15.28765
785.10 15.21123
785.20 15.1625
785.30 15.41684
785.40 15.99993
785.50 16.82923
785.60 17.79233
785.70 18.70646
785.80 19.32714
785.90 19.48516
786.00 19.08831
786.10 18.16174
786.20 16.93983
786.30 15.78513
786.40 15.05424
786.50 14.88655
786.60 15.01928
786.70 15.13358
786.80 15.1621
786.90 15.18382
787.00 15.34828
787.10 15.80696
787.20 16.5324
787.30 17.34539
787.40 18.09143
787.50 18.63671
787.60 18.88336
787.70 18.90238
787.80 18.87225
787.90 18.8823
788.00 19.07596
788.10 19.6442
788.20 20.6243
788.30 21.8182
788.40 22.88466
788.50 23.582
788.60 23.85862
788.70 23.72254
788.80 23.22206
788.90 22.52811
789.00 21.83952
789.10 21.19675
789.20 20.53861
789.30 19.93831
789.40 19.52912
789.50 19.34154
789.60 19.33943
789.70 19.47403
789.80 19.68583
789.90 19.92616
790.00 20.16168
790.10 20.36266
790.20 20.49665
790.30 20.53704
790.40 20.49989
790.50 20.4801
790.60 20.64618
790.70 21.00276
790.80 21.1791
790.90 20.63049
791.00 18.94077
791.10 16.1953
791.20 12.98183
791.30 10.01083
791.40 7.933669
791.50 7.179615
791.60 7.866055
791.70 9.797231
791.80 12.54122
791.90 15.51968
792.00 18.08598
792.10 19.77197
792.20 20.60006
792.30 20.98493
792.40 21.44961
792.50 22.22698
792.60 23.12365
792.70 23.80799
792.80 23.94762
792.90 23.37097
793.00 22.17998
793.10 20.63488
793.20 19.0997
793.30 17.92938
793.40 17.33574
793.50 17.45736
793.60 18.28932
793.70 19.64999
793.80 21.20766
793.90 22.57444
794.00 23.45074
794.10 23.72093
794.20 23.40265
794.30 22.47501
794.40 20.89959
794.50 18.80331
794.60 16.42954
794.70 14.10104
794.80 12.24112
794.90 11.21068
795.00 11.19625
795.10 12.15714
795.20 13.88064
795.30 16.06642
795.40 18.40653
795.50 20.59662
795.60 22.42481
795.70 23.79182
795.80 24.63836
795.90 25.02361
796.00 25.05814
796.10 24.77498
796.20 24.30974
796.30 23.87531
796.40 23.66856
796.50 23.95422
796.60 24.90045
796.70 26.48596
796.80 28.53885
796.90 30.76367
797.00 32.82034
797.10 34.45362
797.20 35.54319
797.30 35.99866
797.40 35.78323
797.50 35.04928
797.60 33.98157
797.70 32.75494
797.80 31.59608
797.90 30.63483
798.00 29.96859
798.10 29.70185
798.20 29.86003
798.30 30.41405
798.40 31.25645
798.50 32.22167
798.60 33.06093
798.70 33.56163
798.80 33.66331
798.90 33.4122
799.00 32.80807
799.10 31.82373
799.20 30.60859
799.30 29.49761
799.40 28.72769
799.50 28.30668
799.60 28.2062
799.70 28.37552
799.80 28.75373
799.90 29.31635
800.00 30.08762
800.10 31.02051
800.20 31.9923
800.30 32.82306
800.40 33.41475
800.50 33.84138
800.60 34.17752
800.70 34.37302
800.80 34.4566
800.90 34.60758
801.00 34.88215
801.10 35.1787
801.20 35.37507
801.30 35.41831
801.40 35.30558
801.50 35.07836
801.60 34.81454
801.70 34.64091
801.80 34.65401
801.90 34.83175
802.00 35.06583
802.10 35.29765
802.20 35.28649
802.30 34.71088
802.40 33.56864
802.50 32.20841
802.60 31.1265
802.70 30.62828
802.80 30.80557
802.90 31.53551
803.00 32.59744
803.10 33.85585
803.20 35.22653
803.30 36.5836
803.40 37.73759
803.50 38.46065
803.60 38.8031
803.70 39.03283
803.80 39.30384
803.90 39.57943
804.00 39.64789
804.10 39.39936
804.20 38.98069
804.30 38.71869
804.40 38.86266
804.50 39.47348
804.60 40.53458
804.70 41.95677
804.80 43.55112
804.90 45.11846
805.00 46.49155
805.10 47.49642
805.20 47.99152
805.30 47.94411
805.40 47.46038
805.50 46.67872
805.60 45.69207
805.70 44.58079
805.80 43.42047
805.90 42.25579
806.00 41.09779
806.10 40.06014
806.20 39.3747
806.30 39.22721
806.40 39.64563
806.50 40.52711
806.60 41.69116
806.70 42.88001
806.80 43.80974
806.90 44.28373
807.00 44.23939
807.10 43.81664
807.20 43.36635
807.30 43.27802
807.40 43.82572
807.50 45.02008
807.60 46.57423
807.70 48.04927
807.80 49.02381
807.90 49.18333
808.00 48.42729
808.10 46.97275
808.20 45.27717
808.30 43.82212
808.40 42.98848
808.50 42.9697
808.60 43.71405
808.70 45.01364
808.80 46.55441
808.90 47.96244
809.00 48.97609
809.10 49.46282
809.20 49.35661
809.30 48.72743
809.40 47.7767
809.50 46.66176
809.60 45.48659
809.70 44.4434
809.80 43.67076
809.90 43.18363
810.00 42.96832
810.10 42.93932
810.20 42.96964
810.30 43.01809
810.40 43.10614
810.50 43.30526
810.60 43.76707
810.70 44.53583
810.80 45.46934
810.90 46.42678
811.00 47.34054
811.10 48.17163
811.20 48.92084
811.30 49.65921
811.40 50.44554
811.50 51.26164
811.60 52.09622
811.70 52.92602
811.80 53.64427
811.90 54.10578
812.00 54.16483
812.10 53.82344
812.20 53.30483
812.30 52.88173
812.40 52.75859
812.50 53.03646
812.60 53.63188
812.70 54.33933
812.80 55.03532
812.90 55.63068
813.00 55.95859
813.10 55.86346
813.20 55.28114
813.30 54.38099
813.40 53.54766
813.50 53.07768
813.60 53.06828
813.70 53.46036
813.80 54.06782
813.90 54.5924
814.00 54.80269
814.10 54.55201
814.20 53.75368
814.30 52.63952
814.40 51.61043
814.50 50.99866
814.60 51.08297
814.70 51.8964
814.80 53.25556
814.90 54.99122
815.00 56.86707
815.10 58.58518
815.20 59.9338
815.30 60.82843
815.40 61.26319
815.50 61.32981
815.60 61.18947
815.70 60.87414
815.80 60.38933
815.90 59.86387
816.00 59.46782
816.10 59.33047
816.20 59.45702
816.30 59.75291
816.40 60.13684
816.50 60.58808
816.60 61.11922
816.70 61.74321
816.80 62.45985
816.90 63.22453
817.00 63.92224
817.10 64.44218
817.20 64.73179
817.30 64.75517
817.40 64.50619
817.50 64.03646
817.60 63.43477
817.70 62.77796
817.80 62.11885
817.90 61.51532
818.00 61.0115
818.10 60.5915
818.20 60.21728
818.30 59.84789
818.40 59.36147
818.50 58.60856
818.60 57.50021
818.70 56.07282
818.80 54.54563
818.90 53.14542
819.00 51.90641
819.10 50.83999
819.20 50.02255
819.30 49.52254
819.40 49.415
819.50 49.71394
819.60 50.3756
819.70 51.37866
819.80 52.81571
819.90 54.75705
820.00 57.09285
820.10 59.61658
820.20 62.00977
820.30 64.03818
820.40 65.74224
820.50 67.14149
820.60 68.14749
820.70 68.71988
820.80 68.88924
820.90 68.83471
821.00 68.7682
821.10 68.75684
821.20 68.75465
821.30 68.73631
821.40 68.73777
821.50 68.71134
821.60 68.54587
821.70 68.08813
821.80 67.23714
821.90 66.12017
822.00 64.98309
822.10 64.04338
822.20 63.4885
822.30 63.45202
822.40 64.016
822.50 65.21051
822.60 66.93993
822.70 68.98307
822.80 71.11236
822.90 73.05333
823.00 74.4519
823.10 75.09253
823.20 74.96016
823.30 74.18068
823.40 73.0385
823.50 71.86887
823.60 70.93522
823.70 70.45372
823.80 70.53379
823.90 71.10738
824.00 71.95861
824.10 72.69447
824.20 72.87247
824.30 72.33386
824.40 71.25392
824.50 69.98877
824.60 68.96073
824.70 68.53383
824.80 68.89362
824.90 70.0027
825.00 71.58795
825.10 73.19378
825.20 74.37386
825.30 74.83549
825.40 74.45484
825.50 73.41789
825.60 72.16539
825.70 71.11911
825.80 70.68204
825.90 71.12102
826.00 72.31951
826.10 73.96094
826.20 75.75394
826.30 77.46188
826.40 78.92582
826.50 79.96896
826.60 80.32784
826.70 79.8614
826.80 78.7155
826.90 77.18677
827.00 75.62759
827.10 74.36858
827.20 73.57142
827.30 73.24013
827.40 73.34869
827.50 73.71593
827.60 73.89267
827.70 73.33247
827.80 71.69495
827.90 69.08817
828.00 66.01662
828.10 63.14604
828.20 61.05122
828.30 60.02438
828.40 59.87147
828.50 60.04009
828.60 60.18487
828.70 60.26089
828.80 60.38062
828.90 60.7994
829.00 61.74722
829.10 63.40707
829.20 65.76574
829.30 68.43166
829.40 70.7661
829.50 72.03106
829.60 71.70318
829.70 69.76408
829.80 66.99015
829.90 64.67186
830.00 63.60289
830.10 63.9457
830.20 65.59311
830.30 68.17498
830.40 71.1809
830.50 73.98099
830.60 75.8998
830.70 76.52351
830.80 75.90676
830.90 74.61416
831.00 73.41625
831.10 72.89864
831.20 73.19038
831.30 74.05877
831.40 75.26458
831.50 76.62286
831.60 77.91477
831.70 78.92927
831.80 79.60985
831.90 80.09331
832.00 80.65035
832.10 81.55285
832.20 82.92087
832.30 84.62533
832.40 86.32046
832.50 87.70626
832.60 88.6477
832.70 89.14285
832.80 89.30972
832.90 89.29279
833.00 89.1648
833.10 88.93818
833.20 88.61048
833.30 88.2226
833.40 87.89433
833.50 87.76479
833.60 87.83649
833.70 87.98235
833.80 88.08138
833.90 87.90144
834.00 86.90882
834.10 84.52385
834.20 80.7239
834.30 76.22364
834.40 72.16329
834.50 69.63775
834.60 69.28885
834.70 71.15431
834.80 74.67804
834.90 78.92196
835.00 82.97147
835.10 85.97133
835.20 87.29064
835.30 86.92617
835.40 85.61132
835.50 84.46486
835.60 84.27019
835.70 85.13579
835.80 86.62219
835.90 88.15782
836.00 89.38803
836.10 90.14705
836.20 90.41124
836.30 90.28465
836.40 89.93922
836.50 89.73012
836.60 89.99388
836.70 90.77194
836.80 91.90489
836.90 93.15396
837.00 94.26083
837.10 95.03146
837.20 95.39965
837.30 95.33426
837.40 94.81497
837.50 93.98165
837.60 93.09407
837.70 92.26962
837.80 91.45756
837.90 90.5743
838.00 89.61358
838.10 88.6711
838.20 87.88175
838.30 87.40776
838.40 87.34622
838.50 87.66874
838.60 88.29766
838.70 89.14756
838.80 90.12411
838.90 91.11586
839.00 91.9383
839.10 92.47525
839.20 92.84809
839.30 93.23961
839.40 93.5047
839.50 93.17596
839.60 91.72875
839.70 88.81903
839.80 84.77432
839.90 80.52135
840.00 76.96677
840.10 74.74212
840.20 74.15642
840.30 75.15464
840.40 77.48275
840.50 80.79861
840.60 84.56369
840.70 88.10337
840.80 90.93799
840.90 93.03136
841.00 94.78885
841.10 96.62151
841.20 98.29621
841.30 99.24105
841.40 99.31362
841.50 98.79981
841.60 98.09443
841.70 97.5465
841.80 97.40066
841.90 97.66597
842.00 98.1083
842.10 98.56893
842.20 99.12902
842.30 99.81065
842.40 100.3666
842.50 100.4434
842.60 100.0752
842.70 99.62801
842.80 99.22921
842.90 98.85473
843.00 98.51972
843.10 98.16674
843.20 97.70261
843.30 97.16056
843.40 96.72546
843.50 96.43152
843.60 96.09852
843.70 95.62452
843.80 95.07067
843.90 94.72573
844.00 94.81619
844.10 95.28722
844.20 96.03213
844.30 96.84486
844.40 97.46898
844.50 97.81612
844.60 97.97011
844.70 98.11267
844.80 98.205
844.90 97.88211
845.00 96.9215
845.10 95.41678
845.20 93.61593
845.30 91.84836
845.40 90.46599
845.50 89.71012
845.60 89.61641
845.70 90.17448
845.80 91.31305
845.90 92.81006
846.00 94.38873
846.10 95.69202
846.20 96.20982
846.30 95.66278
846.40 94.23728
846.50 92.33673
846.60 90.43951
846.70 88.95842
846.80 88.17687
846.90 88.22738
847.00 89.07747
847.10 90.53059
847.20 92.35136
847.30 94.29606
847.40 95.91804
847.50 96.74709
847.60 96.83814
847.70 96.6711
847.80 96.55391
847.90 96.52385
848.00 96.50694
848.10 96.45991
848.20 96.43808
848.30 96.55899
848.40 96.94571
848.50 97.63543
848.60 98.50343
848.70 99.28788
848.80 99.73945
848.90 99.71506
849.00 99.19651
849.10 98.1969
849.20 96.7396
849.30 95.05592
849.40 93.58249
849.50 92.63876
849.60 92.25035
849.70 92.36748
849.80 92.99002
849.90 94.05385
850.00 95.38917
850.10 96.74494
850.20 97.83042
850.30 98.44414
850.40 98.61361
850.50 98.47738
850.60 98.11088
850.70 97.46333
850.80 96.39885
850.90 94.99539
851.00 93.58189
851.10 92.37596
851.20 91.37179
851.30 90.52961
851.40 89.72844
851.50 88.69822
851.60 87.1679
851.70 84.84453
851.80 81.41007
851.90 76.877
852.00 71.72494
852.10 66.6818
852.20 62.60592
852.30 60.28081
852.40 60.15347
852.50 62.25115
852.60 66.23235
852.70 71.39586
852.80 76.94143
852.90 82.36575
853.00 87.46828
853.10 92.20018
853.20 96.52776
853.30 100.3823
853.40 103.7386
853.50 106.6508
853.60 109.0875
853.70 110.8792
853.80 111.8934
853.90 112.1815
854.00 111.9962
854.10 111.7075
854.20 111.6182
854.30 111.7761
854.40 112.0133
854.50 112.0118
854.60 111.4603
854.70 110.2581
854.80 108.5456
854.90 106.617
855.00 104.9622
855.10 104.1184
855.20 104.3627
855.30 105.6847
855.40 107.8605
855.50 110.5082
855.60 113.1187
855.70 115.1767
855.80 116.3345
855.90 116.6321
856.00 116.4551
856.10 116.1666
856.20 116.0338
856.30 116.2885
856.40 116.92
856.50 117.6916
856.60 118.4565
856.70 119.253
856.80 120.1707
856.90 121.1786
857.00 122.09
857.10 122.6551
857.20 122.6664
857.30 122.0341
857.40 120.7689
857.50 119.0454
857.60 117.1499
857.70 115.3023
857.80 113.7281
857.90 112.7081
858.00 112.4619
858.10 113.0171
858.20 114.1338
858.30 115.4572
858.40 116.7533
858.50 117.9456
858.60 118.9419
858.70 119.5514
858.80 119.6556
858.90 119.2629
859.00 118.3749
859.10 117.0636
859.20 115.5314
859.30 113.9862
859.40 112.5822
859.50 111.4477
859.60 110.7878
859.70 110.8051
859.80 111.5732
859.90 113.0056
860.00 114.9164
860.10 117.1517
860.20 119.5223
860.30 121.7204
860.40 123.4068
860.50 124.2572
860.60 124.0037
860.70 122.5688
860.80 120.0672
860.90 116.7048
861.00 112.6936
861.10 108.2564
861.20 103.6199
861.30 98.94106
861.40 94.32755
861.50 89.90287
861.60 85.77157
861.70 81.9251
861.80 78.38729
861.90 75.28752
862.00 72.75607
862.10 70.90735
862.20 69.84615
862.30 69.58132
862.40 69.94879
862.50 70.64903
862.60 71.31196
862.70 71.56221
862.80 71.00687
862.90 69.43391
863.00 67.05548
863.10 64.54007
863.20 62.69752
863.30 62.15423
863.40 63.2654
863.50 65.9874
863.60 69.82219
863.70 73.99577
863.80 77.71092
863.90 80.21914
864.00 80.98246
864.10 80.04079
864.20 78.08817
864.30 75.95538
864.40 74.20371
864.50 73.04332
864.60 72.36334
864.70 71.87473
864.80 71.24196
864.90 70.31995
865.00 69.30731
865.10 68.47109
865.20 67.95203
865.30 67.99553
865.40 68.94212
865.50 70.90275
865.60 73.70814
865.70 76.89107
865.80 79.85462
865.90 82.16394
866.00 83.69915
866.10 84.72796
866.20 85.67285
866.30 86.75653
866.40 87.93033
866.50 89.16035
866.60 90.44518
866.70 91.52519
866.80 91.99034
866.90 91.76863
867.00 91.22422
867.10 90.8203
867.20 90.85208
867.30 91.46915
867.40 92.65159
867.50 94.15093
867.60 95.5866
867.70 96.41988
867.80 96.09514
867.90 94.39241
868.00 91.56483
868.10 88.25087
868.20 85.29556
868.30 83.38148
868.40 82.78404
868.50 83.54132
868.60 85.52224
868.70 88.33861
868.80 91.34556
868.90 93.71331
869.00 94.65298
869.10 93.86474
869.20 91.65214
869.30 88.50437
869.40 84.95544
869.50 81.73104
869.60 79.57568
869.70 78.85082
869.80 79.42086
869.90 80.91415
870.00 82.90308
870.10 84.7984
870.20 85.92193
870.30 85.81343
870.40 84.4836
870.50 82.43916
870.60 80.37055
870.70 78.81012
870.80 78.08338
870.90 78.25194
871.00 79.12455
871.10 80.39944
871.20 81.70556
871.30 82.75202
871.40 83.39014
871.50 83.60573
871.60 83.5283
871.70 83.40307
871.80 83.40223
871.90 83.43338
872.00 83.27215
872.10 82.88063
872.20 82.40442
872.30 82.08814
872.40 82.14965
872.50 82.6655
872.60 83.61471
872.70 84.80668
872.80 85.94011
872.90 86.74933
873.00 87.07906
873.10 86.84699
873.20 86.11534
873.30 85.1018
873.40 84.06501
873.50 83.26337
873.60 82.87987
873.70 82.96781
873.80 83.51103
873.90 84.45336
874.00 85.68999
874.10 87.05229
874.20 88.38816
874.30 89.56088
874.40 90.44124
874.50 90.98882
874.60 91.24597
874.70 91.22674
874.80 90.91854
874.90 90.40916
875.00 89.80746
875.10 89.22688
875.20 88.77384
875.30 88.53546
875.40 88.66886
875.50 89.16475
875.60 89.58301
875.70 89.44567
875.80 88.65169
875.90 87.26229
876.00 85.48452
876.10 83.88734
876.20 83.11936
876.30 83.37731
876.40 84.09953
876.50 84.48342
876.60 84.19129
876.70 83.38465
876.80 82.65222
876.90 82.74032
877.00 84.39015
877.10 88.06542
877.20 93.60645
877.30 100.411
877.40 107.3808
877.50 112.9644
877.60 115.6552
877.70 114.8184
877.80 111.1957
877.90 106.2852
878.00 101.4422
878.10 97.51264
878.20 94.69203
878.30 92.95512
878.40 92.22483
878.50 92.24071
878.60 92.66599
878.70 93.13519
878.80 93.18654
878.90 92.48486
879.00 91.39398
879.10 90.57746
879.20 90.66017
879.30 92.0247
879.40 94.57748
879.50 97.89678
879.60 101.2891
879.70 103.956
879.80 105.3134
879.90 105.1551
880.00 103.5682
880.10 100.8978
880.20 97.9765
880.30 95.85779
880.40 95.00907
880.50 95.29
880.60 96.26549
880.70 97.44717
880.80 98.51839
880.90 99.38218
881.00 100.2422
881.10 101.4705
881.20 103.3062
881.30 105.7555
881.40 108.6917
881.50 111.9006
881.60 115.0475
881.70 117.6355
881.80 119.1415
881.90 119.1884
882.00 117.7623
882.10 115.3616
882.20 112.5948
882.30 109.5779
882.40 105.8688
882.50 101.3213
882.60 96.19875
882.70 90.76004
882.80 85.51269
882.90 81.12381
883.00 78.10512
883.10 76.87583
883.20 77.57051
883.30 79.9001
883.40 83.38065
883.50 87.25021
883.60 90.83228
883.70 94.11836
883.80 97.62969
883.90 101.442
884.00 105.2039
884.10 108.75
884.20 111.7553
884.30 113.7032
884.40 114.2455
884.50 113.2183
884.60 110.8786
884.70 108.1344
884.80 105.9135
884.90 104.7423
885.00 104.8185
885.10 106.095
885.20 108.2858
885.30 110.921
885.40 113.4612
885.50 115.342
885.60 116.2289
885.70 116.1417
885.80 115.3608
885.90 114.4046
886.00 113.7933
886.10 113.7382
886.20 114.2028
886.30 115.026
886.40 115.9171
886.50 116.3971
886.60 116.0758
886.70 114.8702
886.80 112.9531
886.90 110.6512
887.00 108.1965
887.10 105.9138
887.20 104.3267
887.30 103.8692
887.40 104.8417
887.50 107.4303
887.60 111.5243
887.70 116.6243
887.80 122.0118
887.90 126.9713
888.00 130.9719
888.10 133.5452
888.20 134.0821
888.30 132.5053
888.40 129.7554
888.50 127.1467
888.60 125.7252
888.70 126.0893
888.80 128.2199
888.90 131.4488
889.00 134.8483
889.10 137.5199
889.20 138.5972
889.30 137.5824
889.40 134.4774
889.50 129.949
889.60 125.4741
889.70 122.4954
889.80 121.5896
889.90 122.5141
890.00 124.5365
890.10 126.7352
890.20 128.4692
890.30 129.4055
890.40 129.2441
890.50 127.8542
890.60 125.5496
890.70 122.9256
890.80 120.6269
890.90 119.1807
891.00 118.7804
891.10 119.29
891.20 120.4706
891.30 122.0998
891.40 124.0457
891.50 126.1878
891.60 127.9123
891.70 127.7034
891.80 124.5915
891.90 119.3097
892.00 113.2352
892.10 107.5943
892.20 103.3049
892.30 100.9021
892.40 100.5467
892.50 102.0586
892.60 104.9293
892.70 108.4406
892.80 111.7805
892.90 114.2301
893.00 115.6458
893.10 117.0485
893.20 119.3588
893.30 122.2306
893.40 124.8773
893.50 126.7055
893.60 127.2556
893.70 126.1686
893.80 123.2647
893.90 118.402
894.00 111.5962
894.10 103.2873
894.20 94.38436
894.30 86.09181
894.40 79.65829
894.50 76.07482
894.60 75.84566
894.70 78.90998
894.80 84.64301
894.90 92.00615
895.00 99.81033
895.10 107.0244
895.20 113.1728
895.30 118.2235
895.40 122.0014
895.50 124.3728
895.60 125.5646
895.70 125.8973
895.80 125.6947
895.90 125.2263
896.00 124.6524
896.10 124.0967
896.20 123.6534
896.30 123.377
896.40 123.3103
896.50 123.3759
896.60 123.2818
896.70 122.8736
896.80 122.5175
896.90 122.6651
897.00 123.4435
897.10 124.7992
897.20 126.5633
897.30 128.5447
897.40 130.5865
897.50 132.4916
897.60 134.1522
897.70 135.5694
897.80 136.6089
897.90 137.1405
898.00 137.2221
898.10 137.1201
898.20 137.3873
898.30 138.5951
898.40 140.7716
898.50 143.2421
898.60 145.1002
898.70 145.5671
898.80 144.3557
898.90 141.7968
899.00 138.4813
899.10 135.0333
899.20 132.1654
899.30 130.4407
899.40 130.0669
899.50 131.0617
899.60 133.113
899.70 135.3608
899.80 137.06
899.90 138.5309
900.00 138.8309
900.10 139.1309
900.20 139.4309
900.30 139.731
900.40 140.031
900.50 140.331
900.60 140.631
900.70 140.9311
900.80 141.2311
900.90 141.9365
901.00 142.8507
901.10 143.765
901.20 144.6792
901.30 145.5935
901.40 146.5077
901.50 147.4219
901.60 148.3362
901.70 149.2504
901.80 150.1647
901.90 151.0789
902.00 151.9932
902.10 152.9074
902.20 153.8216
902.30 154.7359
902.40 155.6501
902.50 156.5644
902.60 157.4786
902.70 158.3929
902.80 159.3071
902.90 160.2213
903.00 161.1356
903.10 162.0498
903.20 162.9641
903.30 163.844
903.40 164.6726
903.50 165.5012
903.60 166.3298
903.70 167.1584
903.80 167.987
903.90 168.8156
904.00 169.6442
904.10 170.4728
904.20 171.3014
904.30 172.0697
904.40 172.7751
904.50 173.4804
904.60 174.1858
904.70 174.8912
904.80 175.5966
904.90 176.302
905.00 177.0074
905.10 177.7128
905.20 178.4181
905.30 179.1235
905.40 179.8289
905.50 180.5343
905.60 181.2397
905.70 181.9451
905.80 182.6505
905.90 183.3559
906.00 184.0612
906.10 184.7666
906.20 185.472
906.30 186.1774
906.40 186.8828
906.50 187.5882
906.60 188.2936
906.70 188.9638
906.80 189.3175
906.90 189.6713
907.00 190.025
907.10 190.3787
907.20 190.7325
907.30 191.0862
907.40 191.4399
907.50 191.7937
907.60 192.1474
907.70 192.4172
907.80 192.1711
907.90 191.9251
908.00 191.6791
908.10 191.433
908.20 191.187
908.30 190.9409
908.40 190.6949
908.50 190.4488
908.60 190.2028
908.70 189.9567
908.80 189.7107
908.90 189.4646
909.00 189.2186
909.10 188.9725
909.20 188.7265
909.30 188.4804
909.40 188.2344
909.50 187.9883
909.60 187.7423
909.70 187.4962
909.80 187.2502
909.90 187.0042
910.00 186.7581
910.10 186.5121
910.20 186.4455
910.30 186.4889
910.40 186.5322
910.50 186.5756
910.60 186.619
910.70 186.6624
910.80 186.7058
910.90 186.7492
911.00 186.7926
911.10 186.836
911.20 186.9415
911.30 187.0867
911.40 187.2319
911.50 187.3771
911.60 187.5223
911.70 187.6676
911.80 187.8128
911.90 187.958
912.00 188.1032
912.10 188.2484
912.20 188.3936
912.30 188.5388
912.40 188.684
912.50 188.8292
912.60 188.9745
912.70 189.1197
912.80 189.2649
912.90 189.4101
913.00 189.5553
913.10 189.7005
913.20 189.8457
913.30 189.9909
913.40 190.1362
913.50 190.2814
913.60 190.4266
913.70 190.5476
913.80 190.6676
913.90 190.7876
914.00 190.9076
914.10 191.0276
914.20 191.1477
914.30 191.2677
914.40 191.3877
914.50 191.5077
914.60 191.6277
914.70 192.2535
914.80 192.9418
914.90 193.6301
915.00 194.3184
915.10 195.0067
915.20 195.695
915.30 196.3833
915.40 197.0717
915.50 197.76
915.60 198.4483
915.70 199.1366
915.80 199.8249
915.90 200.5132
916.00 201.2015
916.10 201.8898
916.20 202.5781
916.30 203.2664
916.40 203.9547
916.50 204.643
916.60 205.3313
916.70 206.0196
916.80 206.708
916.90 207.3963
917.00 208.0846
917.10 208.7522
917.20 209.2679
917.30 209.7836
917.40 210.2993
917.50 210.815
917.60 211.3307
917.70 211.8464
917.80 212.3621
917.90 212.8779
918.00 213.3936
918.10 213.9054
918.20 214.0281
918.30 214.1508
918.40 214.2735
918.50 214.3963
918.60 214.519
918.70 214.6417
918.80 214.7645
918.90 214.8872
919.00 215.0099
919.10 215.1326
919.20 215.2554
919.30 215.3781
919.40 215.5008
919.50 215.6236
919.60 215.7463
919.70 215.869
919.80 215.9917
919.90 216.1145
920.00 216.2372
920.10 216.3599
920.20 216.4827
920.30 216.6054
920.40 216.7281
920.50 216.8509
920.60 216.9796
920.70 217.1575
920.80 217.3353
920.90 217.5132
921.00 217.6911
921.10 217.8689
921.20 218.0468
921.30 218.2246
921.40 218.4025
921.50 218.5803
921.60 218.7582
921.70 218.8491
921.80 218.9345
921.90 219.0199
922.00 219.1053
922.10 219.1907
922.20 219.2761
922.30 219.3614
922.40 219.4468
922.50 219.5322
922.60 219.6176
922.70 219.703
922.80 219.7884
922.90 219.8738
923.00 219.9592
923.10 220.0446
923.20 220.1299
923.30 220.2153
923.40 220.3007
923.50 220.3861
923.60 220.4715
923.70 220.5569
923.80 220.6423
923.90 220.7277
924.00 220.8131
924.10 220.8985
924.20 220.9278
924.30 220.9522
924.40 220.9766
924.50 221.0011
924.60 221.0255
924.70 221.0499
924.80 221.0743
924.90 221.0988
925.00 221.1232
925.10 221.1476
925.20 220.946
925.30 220.6475
925.40 220.3491
925.50 220.0506
925.60 219.7521
925.70 219.4536
925.80 219.1552
925.90 218.8567
926.00 218.5582
926.10 218.2597
926.20 217.9612
926.30 217.6628
926.40 217.3643
926.50 217.0658
926.60 216.7673
926.70 216.4689
926.80 216.1704
926.90 215.8719
927.00 215.5734
927.10 215.275
927.20 214.9765
927.30 214.678
927.40 214.3795
927.50 214.081
927.60 213.7826
927.70 213.6215
927.80 213.5729
927.90 213.5242
928.00 213.4756
928.10 213.4269
928.20 213.3783
928.30 213.3297
928.40 213.281
928.50 213.2324
928.60 213.1838
928.70 213.3543
928.80 214.0616
928.90 214.7689
929.00 215.4762
929.10 216.1835
929.20 216.8908
929.30 217.5981
929.40 218.3054
929.50 219.0127
929.60 219.72
929.70 220.4273
929.80 221.1345
929.90 221.8418
930.00 222.5491
930.10 223.2564
930.20 223.9637
930.30 224.671
930.40 225.3783
930.50 226.0856
930.60 226.7929
930.70 227.5002
930.80 228.2075
930.90 228.9147
931.00 229.622
931.10 230.3293
931.20 231.0338
931.30 231.5989
931.40 232.1639
931.50 232.729
931.60 233.2941
931.70 233.8592
931.80 234.4243
931.90 234.9894
932.00 235.5545
932.10 236.1196
932.20 236.6846
932.30 236.5764
932.40 236.1796
932.50 235.7828
932.60 235.386
932.70 234.9892
932.80 234.5924
932.90 234.1956
933.00 233.7988
933.10 233.402
933.20 233.0052
933.30 232.6084
933.40 232.2116
933.50 231.8148
933.60 231.418
933.70 231.0212
933.80 230.6244
933.90 230.2275
934.00 229.8307
934.10 229.4339
934.20 229.0371
934.30 228.6403
934.40 228.2435
934.50 227.8467
934.60 227.4499
934.70 227.0531
934.80 226.6639
934.90 226.2916
935.00 225.9193
935.10 225.547
935.20 225.1748
935.30 224.8025
935.40 224.4302
935.50 224.0579
935.60 223.6856
935.70 223.3133
935.80 222.941
935.90 223.2891
936.00 223.6831
936.10 224.0771
936.20 224.4711
936.30 224.8651
936.40 225.2592
936.50 225.6532
936.60 226.0472
936.70 226.4412
936.80 226.8353
936.90 227.2293
937.00 227.6233
937.10 228.0173
937.20 228.4114
937.30 228.8054
937.40 229.1994
937.50 229.5934
937.60 229.9874
937.70 230.3815
937.80 230.7755
937.90 231.1695
938.00 231.5635
938.10 231.9576
938.20 232.3516
938.30 232.7456
938.40 233.1577
938.50 233.5938
938.60 234.03
938.70 234.4661
938.80 234.9022
938.90 235.3383
939.00 235.7745
939.10 236.2106
939.20 236.6467
939.30 237.0828
939.40 237.5172
939.50 237.8679
939.60 238.2186
939.70 238.5693
939.80 238.92
939.90 239.2707
940.00 239.6214
940.10 239.9721
940.20 240.3228
940.30 240.6735
940.40 241.0242
940.50 241.3749
940.60 241.7256
940.70 242.0763
940.80 242.427
940.90 242.7777
941.00 243.1284
941.10 243.4791
941.20 243.8298
941.30 244.1805
941.40 244.5312
941.50 244.8819
941.60 245.2326
941.70 245.5833
941.80 245.934
941.90 246.2847
942.00 246.6254
942.10 246.9507
942.20 247.276
942.30 247.6012
942.40 247.9265
942.50 248.2517
942.60 248.577
942.70 248.9023
942.80 249.2275
942.90 249.5528
943.00 249.878
943.10 250.6155
943.20 251.3839
943.30 252.1524
943.40 252.9209
943.50 253.6893
943.60 254.4578
943.70 255.2262
943.80 255.9947
943.90 256.7632
944.00 257.5316
944.10 258.3001
944.20 259.0686
944.30 259.837
944.40 260.6055
944.50 261.3739
944.60 262.1424
944.70 262.9109
944.80 263.6793
944.90 264.4478
945.00 265.2163
945.10 265.9847
945.20 266.7532
945.30 267.5216
945.40 268.2901
945.50 269.0586
945.60 269.794
945.70 270.3787
945.80 270.9634
945.90 271.5481
946.00 272.1329
946.10 272.7176
946.20 273.3023
946.30 273.8871
946.40 274.4718
946.50 275.0565
946.60 275.6412
946.70 275.9524
946.80 276.1288
946.90 276.3053
947.00 276.4817
947.10 276.6581
947.20 276.8345
947.30 277.011
947.40 277.1874
947.50 277.3638
947.60 277.5403
947.70 277.7167
947.80 277.8931
947.90 278.0695
948.00 278.246
948.10 278.4224
948.20 278.5988
948.30 278.7753
948.40 278.9517
948.50 279.1281
948.60 279.3045
948.70 279.481
948.80 279.6574
948.90 279.8338
949.00 280.0103
949.10 280.1867
949.20 280.3631
949.30 280.5768
949.40 280.7993
949.50 281.0218
949.60 281.2443
949.70 281.4667
949.80 281.6892
949.90 281.9117
950.00 282.1342
950.10 282.3566
950.20 282.5791
950.30 282.6984
950.40 282.5082
950.50 282.318
950.60 282.1277
950.70 281.9375
950.80 281.7473
950.90 281.557
951.00 281.3668
951.10 281.1766
951.20 280.9864
951.30 280.7961
951.40 280.6059
951.50 280.4157
951.60 280.2254
951.70 280.0352
951.80 279.845
951.90 279.6548
952.00 279.4645
952.10 279.2743
952.20 279.0841
952.30 278.8938
952.40 278.7036
952.50 278.5134
952.60 278.3232
952.70 278.1329
952.80 277.9427
952.90 277.763
953.00 277.6118
953.10 277.4606
953.20 277.3094
953.30 277.1583
953.40 277.0071
953.50 276.8559
953.60 276.7047
953.70 276.5535
953.80 276.4023
953.90 276.2511
954.00 276.512
954.10 276.9852
954.20 277.4584
954.30 277.9316
954.40 278.4048
954.50 278.878
954.60 279.3512
954.70 279.8244
954.80 280.2976
954.90 280.7708
955.00 281.244
955.10 281.7172
955.20 282.1905
955.30 282.6637
955.40 283.1369
955.50 283.6101
955.60 284.0833
955.70 284.5565
955.80 285.0297
955.90 285.5029
956.00 285.9761
956.10 286.4493
956.20 286.9225
956.30 287.3957
956.40 287.8689
956.50 288.3421
956.60 288.8344
956.70 289.3411
956.80 289.8479
956.90 290.3546
957.00 290.8614
957.10 291.3681
957.20 291.8749
957.30 292.3816
957.40 292.8884
957.50 293.3951
957.60 293.9019
957.70 293.6668
957.80 293.3673
957.90 293.0677
958.00 292.7682
958.10 292.4686
958.20 292.1691
958.30 291.8695
958.40 291.57
958.50 291.2704
958.60 290.9709
958.70 290.6713
958.80 290.3718
958.90 290.0722
959.00 289.7727
959.10 289.4731
959.20 289.1736
959.30 288.874
959.40 288.5745
959.50 288.2749
959.60 287.9754
959.70 287.6758
959.80 287.3763
959.90 287.0767
960.00 286.7772
960.10 286.4776
960.20 286.1781
960.30 285.9613
960.40 285.7782
960.50 285.5952
960.60 285.4122
960.70 285.2292
960.80 285.0462
960.90 284.8632
961.00 284.6802
961.10 284.4972
961.20 284.3142
961.30 284.1449
961.40 284.6475
961.50 285.1502
961.60 285.6529
961.70 286.1555
961.80 286.6582
961.90 287.1609
962.00 287.6635
962.10 288.1662
962.20 288.6689
962.30 289.1715
962.40 289.6742
962.50 290.1769
962.60 290.6795
962.70 291.1822
962.80 291.6849
962.90 292.1875
963.00 292.6902
963.10 293.1929
963.20 293.6955
963.30 294.1982
963.40 294.7009
963.50 295.2035
963.60 295.7062
963.70 296.2089
963.80 296.7115
963.90 297.2142
964.00 297.6313
964.10 298.0118
964.20 298.3922
964.30 298.7727
964.40 299.1531
964.50 299.5335
964.60 299.914
964.70 300.2944
964.80 300.6749
964.90 301.0553
965.00 301.4358
965.10 301.5259
965.20 301.604
965.30 301.682
965.40 301.7601
965.50 301.8381
965.60 301.9162
965.70 301.9942
965.80 302.0723
965.90 302.1503
966.00 302.2284
966.10 302.3064
966.20 302.3845
966.30 302.4625
966.40 302.5406
966.50 302.6186
966.60 302.6967
966.70 302.7747
966.80 302.8528
966.90 302.9308
967.00 303.0089
967.10 303.0869
967.20 303.165
967.30 303.243
967.40 303.3211
967.50 303.3991
967.60 303.4772
967.70 303.5907
967.80 303.7357
967.90 303.8807
968.00 304.0257
968.10 304.1707
968.20 304.3157
968.30 304.4607
968.40 304.6057
968.50 304.7507
968.60 304.8957
968.70 305.0407
968.80 305.1155
968.90 305.1656
969.00 305.2157
969.10 305.2658
969.20 305.3159
969.30 305.366
969.40 305.4161
969.50 305.4662
969.60 305.5163
969.70 305.5664
969.80 305.6165
969.90 305.6666
970.00 305.7167
970.10 305.7668
970.20 305.8169
970.30 305.867
970.40 305.9171
970.50 305.9672
970.60 306.0173
970.70 306.0674
970.80 306.1175
970.90 306.1676
971.00 306.2177
971.10 306.2678
971.20 306.3179
971.30 306.368
971.40 306.4067
971.50 306.3993
971.60 306.392
971.70 306.3847
971.80 306.3774
971.90 306.3701
972.00 306.3628
972.10 306.3555
972.20 306.3482
972.30 306.3409
972.40 306.3335
972.50 306.5143
972.60 307.0153
972.70 307.5163
972.80 308.0172
972.90 308.5182
973.00 309.0192
973.10 309.5202
973.20 310.0212
973.30 310.5221
973.40 311.0231
973.50 311.5241
973.60 312.0251
973.70 312.526
973.80 313.027
973.90 313.528
974.00 314.029
974.10 314.53
974.20 315.0309
974.30 315.5319
974.40 316.0329
974.50 316.5339
974.60 317.0349
974.70 317.5358
974.80 318.0368
974.90 318.5378
975.00 319.0388
975.10 319.5397
975.20 319.9937
975.30 320.4294
975.40 320.865
975.50 321.3007
975.60 321.7363
975.70 322.172
975.80 322.6077
975.90 323.0433
976.00 323.479
976.10 323.9146
976.20 324.3503
976.30 324.2295
976.40 324.0104
976.50 323.7914
976.60 323.5723
976.70 323.3533
976.80 323.1343
976.90 322.9152
977.00 322.6962
977.10 322.4771
977.20 322.2581
977.30 322.0391
977.40 321.82
977.50 321.601
977.60 321.3819
977.70 321.1629
977.80 320.9439
977.90 320.7248
978.00 320.5058
978.10 320.2867
978.20 320.0677
978.30 319.8487
978.40 319.6296
978.50 319.4106
978.60 319.1915
978.70 318.9725
978.80 318.7535
978.90 318.5231
979.00 318.1907
979.10 317.8582
979.20 317.5258
979.30 317.1934
979.40 316.861
979.50 316.5286
979.60 316.1961
979.70 315.8637
979.80 315.5313
979.90 315.1989
980.00 314.9767
980.10 315.257
980.20 315.5372
980.30 315.8175
980.40 316.0977
980.50 316.378
980.60 316.6582
980.70 316.9385
980.80 317.2187
980.90 317.499
981.00 317.7793
981.10 318.0595
981.20 318.3398
981.30 318.62
981.40 318.9003
981.50 319.1805
981.60 319.4608
981.70 319.741
981.80 320.0213
981.90 320.3015
982.00 320.5818
982.10 320.862
982.20 321.1423
982.30 321.4225
982.40 321.7028
982.50 321.983
982.60 322.2633
982.70 322.5028
982.80 322.6557
982.90 322.8087
983.00 322.9616
983.10 323.1146
983.20 323.2675
983.30 323.4205
983.40 323.5734
983.50 323.7264
983.60 323.8793
983.70 324.0323
983.80 323.9148
983.90 323.3167
984.00 322.7185
984.10 322.1203
984.20 321.5222
984.30 320.924
984.40 320.3258
984.50 319.7277
984.60 319.1295
984.70 318.5313
984.80 317.9332
984.90 317.335
985.00 316.7368
985.10 316.1386
985.20 315.5405
985.30 314.9423
985.40 314.3441
985.50 313.746
985.60 313.1478
985.70 312.5496
985.80 311.9515
985.90 311.3533
986.00 310.7551
986.10 310.157
986.20 309.5588
986.30 308.9606
986.40 308.3624
986.50 307.8016
986.60 307.2968
986.70 306.7919
986.80 306.287
986.90 305.7822
987.00 305.2773
987.10 304.7725
987.20 304.2676
987.30 303.7628
987.40 303.2579
987.50 302.7531
987.60 302.4045
987.70 302.2904
987.80 302.1762
987.90 302.0621
988.00 301.9479
988.10 301.8338
988.20 301.7197
988.30 301.6055
988.40 301.4914
988.50 301.3772
988.60 301.2631
988.70 301.1489
988.80 301.0348
988.90 300.9207
989.00 300.8065
989.10 300.6924
989.20 300.5782
989.30 300.4641
989.40 300.3499
989.50 300.2358
989.60 300.1217
989.70 300.0075
989.80 299.8934
989.90 299.7792
990.00 299.6651
990.10 299.5509
990.20 299.4368
990.30 299.2924
990.40 299.0864
990.50 298.8804
990.60 298.6745
990.70 298.4685
990.80 298.2625
990.90 298.0566
991.00 297.8506
991.10 297.6446
991.20 297.4387
991.30 297.2327
991.40 296.9866
991.50 296.642
991.60 296.2974
991.70 295.9528
991.80 295.6082
991.90 295.2636
992.00 294.919
992.10 294.5744
992.20 294.2298
992.30 293.8852
992.40 293.5406
992.50 293.196
992.60 292.8514
992.70 292.5068
992.80 292.1622
992.90 291.8176
993.00 291.4731
993.10 291.1285
993.20 290.7839
993.30 290.4393
993.40 290.0947
993.50 289.7501
993.60 289.4055
993.70 289.0609
993.80 288.7163
993.90 288.3717
994.00 288.0271
994.10 287.7023
994.20 287.5226
994.30 287.3429
994.40 287.1632
994.50 286.9835
994.60 286.8038
994.70 286.6241
994.80 286.4444
994.90 286.2647
995.00 286.085
995.10 285.9053
995.20 285.7079
995.30 284.9387
995.40 284.1696
995.50 283.4004
995.60 282.6312
995.70 281.862
995.80 281.0928
995.90 280.3236
996.00 279.5544
996.10 278.7852
996.20 278.0161
996.30 277.2469
996.40 276.4777
996.50 275.7085
996.60 274.9393
996.70 274.1701
996.80 273.4009
996.90 272.6317
997.00 271.8625
997.10 271.0934
997.20 270.3242
997.30 269.555
997.40 268.7858
997.50 268.0166
997.60 267.2474
997.70 266.4782
997.80 265.709
997.90 264.9398
998.00 264.1898
998.10 263.4456
998.20 262.7013
998.30 261.957
998.40 261.2128
998.50 260.4685
998.60 259.7242
998.70 258.98
998.80 258.2357
998.90 257.4914
999.00 256.7472
999.10 256.3884
999.20 256.2465
999.30 256.1045
999.40 255.9626
999.50 255.8207
999.60 255.6788
999.70 255.5368
999.80 255.3949
999.90 255.253
1000.00 255.111
1000.10 254.9691
1000.20 254.8272
1000.30 254.6853
1000.40 254.5433
1000.50 254.4014
1000.60 254.2595
1000.70 254.1175
1000.80 253.9756
1000.90 253.8337
1001.00 253.6918
1001.10 253.5498
1001.20 253.4079
1001.30 253.266
1001.40 253.1241
1001.50 252.9821
1001.60 252.8402
1001.70 252.6983
1001.80 252.6191
1001.90 252.6866
1002.00 252.754
1002.10 252.8214
1002.20 252.8888
1002.30 252.9562
1002.40 253.0236
1002.50 253.091
1002.60 253.1584
1002.70 253.2258
1002.80 253.2932
1002.90 253.3947
1003.00 253.8024
1003.10 254.2101
1003.20 254.6178
1003.30 255.0255
1003.40 255.4332
1003.50 255.8409
1003.60 256.2486
1003.70 256.6564
1003.80 257.0641
1003.90 257.4718
1004.00 257.8795
1004.10 258.2872
1004.20 258.6949
1004.30 259.1026
1004.40 259.5103
1004.50 259.918
1004.60 260.3257
1004.70 260.7335
1004.80 261.1412
1004.90 261.5489
1005.00 261.9566
1005.10 262.3643
1005.20 262.772
1005.30 263.1797
1005.40 263.5874
1005.50 263.9951
1005.60 264.4028
1005.70 264.779
1005.80 265.1417
1005.90 265.5044
1006.00 265.8671
1006.10 266.2297
1006.20 266.5924
1006.30 266.9551
1006.40 267.3178
1006.50 267.6805
1006.60 268.0431
1006.70 268.4058
1006.80 268.8561
1006.90 269.438
1007.00 270.0198
1007.10 270.6017
1007.20 271.1835
1007.30 271.7653
1007.40 272.3472
1007.50 272.929
1007.60 273.5109
1007.70 274.0927
1007.80 274.6745
1007.90 275.2564
1008.00 275.8382
1008.10 276.4201
1008.20 277.0019
1008.30 277.5837
1008.40 278.1656
1008.50 278.7474
1008.60 279.3292
1008.70 279.9111
1008.80 280.4929
1008.90 281.0748
1009.00 281.6566
1009.10 282.2384
1009.20 282.8203
1009.30 283.4021
1009.40 283.984
1009.50 284.5658
1009.60 285.1324
1009.70 285.6973
1009.80 286.2623
1009.90 286.8272
1010.00 287.3921
1010.10 287.9571
1010.20 288.522
1010.30 289.0869
1010.40 289.6519
1010.50 290.2168
1010.60 290.7817
1010.70 291.0184
1010.80 291.0362
1010.90 291.054
1011.00 291.0718
1011.10 291.0897
1011.20 291.1075
1011.30 291.1253
1011.40 291.1431
1011.50 291.1609
1011.60 291.1788
1011.70 291.1966
1011.80 291.2144
1011.90 291.2322
1012.00 291.25
1012.10 291.2678
1012.20 291.2857
1012.30 291.3035
1012.40 291.3213
1012.50 291.3391
1012.60 291.3569
1012.70 291.3747
1012.80 291.3926
1012.90 291.4104
1013.00 291.4282
1013.10 291.446
1013.20 291.4638
1013.30 291.4816
1013.40 291.4995
1013.50 291.3752
1013.60 291.2509
1013.70 291.1266
1013.80 291.0023
1013.90 290.878
1014.00 290.7537
1014.10 290.6294
1014.20 290.5051
1014.30 290.3808
1014.40 290.2565
1014.50 290.1322
1014.60 290.3905
1014.70 290.8128
1014.80 291.2351
1014.90 291.6573
1015.00 292.0796
1015.10 292.5019
1015.20 292.9241
1015.30 293.3464
1015.40 293.7687
1015.50 294.1909
1015.60 294.6132
1015.70 295.0355
1015.80 295.4577
1015.90 295.88
1016.00 296.3023
1016.10 296.7246
1016.20 297.1468
1016.30 297.5691
1016.40 297.9914
1016.50 298.4136
1016.60 298.8359
1016.70 299.2582
1016.80 299.6804
1016.90 300.1027
1017.00 300.525
1017.10 300.9472
1017.20 301.3695
1017.30 301.7918
1017.40 302.4031
1017.50 303.0143
1017.60 303.6256
1017.70 304.2369
1017.80 304.8481
1017.90 305.4594
1018.00 306.0707
1018.10 306.6819
1018.20 307.2932
1018.30 307.9045
1018.40 308.5158
1018.50 308.8886
1018.60 309.1025
1018.70 309.3164
1018.80 309.5303
1018.90 309.7442
1019.00 309.9581
1019.10 310.172
1019.20 310.3859
1019.30 310.5997
1019.40 310.8136
1019.50 311.0275
1019.60 311.2414
1019.70 311.4553
1019.80 311.6692
1019.90 311.8831
1020.00 312.097
1020.10 312.3109
1020.20 312.5248
1020.30 312.7387
1020.40 312.9526
1020.50 313.1665
1020.60 313.3804
1020.70 313.5943
1020.80 313.8082
1020.90 314.022
1021.00 314.2359
1021.10 314.4498
1021.20 314.6637
1021.30 314.8558
1021.40 315.0424
1021.50 315.229
1021.60 315.4156
1021.70 315.6022
1021.80 315.7888
1021.90 315.9755
1022.00 316.1621
1022.10 316.3487
1022.20 316.5353
1022.30 316.7219
1022.40 316.8105
1022.50 316.8011
1022.60 316.7917
1022.70 316.7824
1022.80 316.773
1022.90 316.7636
1023.00 316.7542
1023.10 316.7448
1023.20 316.7354
1023.30 316.7261
1023.40 316.7167
1023.50 316.7073
1023.60 316.6979
1023.70 316.6885
1023.80 316.6791
1023.90 316.6697
1024.00 316.6604
1024.10 316.651
1024.20 316.6416
1024.30 316.6322
1024.40 316.6228
1024.50 316.6134
1024.60 316.6041
1024.70 316.5947
1024.80 316.5853
1024.90 316.5759
1025.00 316.5665
1025.10 316.5571
1025.20 316.5472
1025.30 316.5366
1025.40 316.526
1025.50 316.5154
1025.60 316.5048
1025.70 316.4942
1025.80 316.4837
1025.90 316.4731
1026.00 316.4625
1026.10 316.4519
1026.20 316.4413
1026.30 316.4604
1026.40 316.7467
1026.50 317.0331
1026.60 317.3194
1026.70 317.6057
1026.80 317.892
1026.90 318.1784
1027.00 318.4647
1027.10 318.751
1027.20 319.0373
1027.30 319.3237
1027.40 319.61
1027.50 319.8963
1027.60 320.1827
1027.70 320.469
1027.80 320.7553
1027.90 321.0416
1028.00 321.328
1028.10 321.6143
1028.20 321.9006
1028.30 322.1869
1028.40 322.4733
1028.50 322.7596
1028.60 323.0459
1028.70 323.3322
1028.80 323.6186
1028.90 323.9049
1029.00 324.1912
1029.10 324.4605
1029.20 324.5766
1029.30 324.6927
1029.40 324.8088
1029.50 324.925
1029.60 325.0411
1029.70 325.1572
1029.80 325.2733
1029.90 325.3894
1030.00 325.5055
1030.10 325.6216
1030.20 325.7377
1030.30 325.8008
1030.40 325.8411
1030.50 325.8814
1030.60 325.9218
1030.70 325.9621
1030.80 326.0024
1030.90 326.0427
1031.00 326.083
1031.10 326.1233
1031.20 326.1637
1031.30 326.204
1031.40 326.2443
1031.50 326.2846
1031.60 326.3249
1031.70 326.3653
1031.80 326.4056
1031.90 326.4459
1032.00 326.4862
1032.10 326.5265
1032.20 326.5669
1032.30 326.6072
1032.40 326.6475
1032.50 326.6878
1032.60 326.7281
1032.70 326.7685
1032.80 326.8088
1032.90 326.8491
1033.00 326.8894
1033.10 327.1321
1033.20 327.5097
1033.30 327.8873
1033.40 328.2648
1033.50 328.6424
1033.60 329.02
1033.70 329.3976
1033.80 329.7752
1033.90 330.1528
1034.00 330.5304
1034.10 330.9079
1034.20 331.3264
1034.30 332.1132
1034.40 332.9
1034.50 333.6868
1034.60 334.4735
1034.70 335.2603
1034.80 336.0471
1034.90 336.8339
1035.00 337.6207
1035.10 338.4074
1035.20 339.1942
1035.30 339.981
1035.40 340.7678
1035.50 341.5545
1035.60 342.3413
1035.70 343.1281
1035.80 343.9149
1035.90 344.7016
1036.00 345.4884
1036.10 346.2752
1036.20 347.062
1036.30 347.8488
1036.40 348.6355
1036.50 349.4223
1036.60 350.2091
1036.70 350.9959
1036.80 351.7826
1036.90 352.5694
1037.00 353.3562
1037.10 353.985
1037.20 354.5963
1037.30 355.2075
1037.40 355.8188
1037.50 356.4301
1037.60 357.0413
1037.70 357.6526
1037.80 358.2638
1037.90 358.8751
1038.00 359.4864
1038.10 360.0976
1038.20 360.4748
1038.30 360.5007
1038.40 360.5267
1038.50 360.5526
1038.60 360.5785
1038.70 360.6045
1038.80 360.6304
1038.90 360.6564
1039.00 360.6823
1039.10 360.7082
1039.20 360.7342
1039.30 360.7601
1039.40 360.7861
1039.50 360.812
1039.60 360.838
1039.70 360.8639
1039.80 360.8898
1039.90 360.9158
1040.00 360.9417
1040.10 360.9677
1040.20 360.9936
1040.30 361.0195
1040.40 361.0455
1040.50 361.0714
1040.60 361.0974
1040.70 361.1233
1040.80 361.1493
1040.90 361.1752
1041.00 361.1774
1041.10 361.0846
1041.20 360.9919
1041.30 360.8991
1041.40 360.8064
1041.50 360.7136
1041.60 360.6208
1041.70 360.5281
1041.80 360.4353
1041.90 360.3426
1042.00 360.2498
1042.10 360.157
1042.20 360.3812
1042.30 360.8166
1042.40 361.252
1042.50 361.6874
1042.60 362.1228
1042.70 362.5582
1042.80 362.9936
1042.90 363.429
1043.00 363.8644
1043.10 364.2998
1043.20 364.7352
1043.30 365.1706
1043.40 365.606
1043.50 366.0415
1043.60 366.4769
1043.70 366.9123
1043.80 367.3477
1043.90 367.7831
1044.00 368.2185
1044.10 368.6539
1044.20 369.0893
1044.30 369.5247
1044.40 369.9601
1044.50 370.3955
1044.60 370.8309
1044.70 371.2663
1044.80 371.7017
1044.90 372.1371
1045.00 372.6247
1045.10 373.2339
1045.20 373.8431
1045.30 374.4523
1045.40 375.0615
1045.50 375.6707
1045.60 376.2799
1045.70 376.8891
1045.80 377.4983
1045.90 378.1075
1046.00 378.7167
1046.10 379.3259
1046.20 379.5725
1046.30 379.6638
1046.40 379.755
1046.50 379.8463
1046.60 379.9375
1046.70 380.0288
1046.80 380.1201
1046.90 380.2113
1047.00 380.3026
1047.10 380.3939
1047.20 380.4851
1047.30 380.5764
1047.40 380.6676
1047.50 380.7589
1047.60 380.8502
1047.70 380.9414
1047.80 381.0327
1047.90 381.1239
1048.00 381.2152
1048.10 381.3065
1048.20 381.3977
1048.30 381.489
1048.40 381.5803
1048.50 381.6715
1048.60 381.7628
1048.70 381.854
1048.80 381.9453
1048.90 382.0366
1049.00 382.0899
1049.10 382.0548
1049.20 382.0197
1049.30 381.9846
1049.40 381.9494
1049.50 381.9143
1049.60 381.8792
1049.70 381.8441
1049.80 381.809
1049.90 381.7738
1050.00 381.7387
1050.10 381.7036
1050.20 381.7711
1050.30 381.8825
1050.40 381.9939
1050.50 382.1054
1050.60 382.2168
1050.70 382.3282
1050.80 382.4397
1050.90 382.5511
1051.00 382.6625
1051.10 382.774
1051.20 382.8854
1051.30 382.9968
1051.40 383.1083
1051.50 383.2197
1051.60 383.3312
1051.70 383.4426
1051.80 383.554
1051.90 383.6655
1052.00 383.7769
1052.10 383.8883
1052.20 383.9998
1052.30 384.1112
1052.40 384.2226
1052.50 384.3341
1052.60 384.4455
1052.70 384.5569
1052.80 384.6684
1052.90 384.7798
1053.00 384.9049
1053.10 385.0847
1053.20 385.2645
1053.30 385.4442
1053.40 385.624
1053.50 385.8038
1053.60 385.9836
1053.70 386.1633
1053.80 386.3431
1053.90 386.5229
1054.00 386.7027
1054.10 386.8824
1054.20 387.103
1054.30 387.3644
1054.40 387.6257
1054.50 387.8871
1054.60 388.1485
1054.70 388.4098
1054.80 388.6712
1054.90 388.9325
1055.00 389.1939
1055.10 389.4553
1055.20 389.7166
1055.30 389.978
1055.40 390.2394
1055.50 390.5007
1055.60 390.7621
1055.70 391.0234
1055.80 391.2848
1055.90 391.5462
1056.00 391.8075
1056.10 392.0689
1056.20 392.3303
1056.30 392.5916
1056.40 392.853
1056.50 393.1143
1056.60 393.3757
1056.70 393.6371
1056.80 393.8984
1056.90 394.1598
1057.00 394.4211
1057.10 394.5161
1057.20 394.5926
1057.30 394.6691
1057.40 394.7456
1057.50 394.8221
1057.60 394.8985
1057.70 394.975
1057.80 395.0515
1057.90 395.128
1058.00 395.2045
1058.10 395.281
1058.20 395.3546
1058.30 395.4215
1058.40 395.4885
1058.50 395.5554
1058.60 395.6223
1058.70 395.6893
1058.80 395.7562
1058.90 395.8232
1059.00 395.8901
1059.10 395.957
1059.20 396.024
1059.30 396.0909
1059.40 396.1579
1059.50 396.2248
1059.60 396.2917
1059.70 396.3587
1059.80 396.4256
1059.90 396.4926
1060.00 396.5595
1060.10 396.6264
1060.20 396.6934
1060.30 396.7603
1060.40 396.8273
1060.50 396.8942
1060.60 396.9612
1060.70 397.0281
1060.80 397.095
1060.90 397.162
1061.00 397.2289
1061.10 397.4289
1061.20 397.7175
1061.30 398.0061
1061.40 398.2948
1061.50 398.5834
1061.60 398.872
1061.70 399.1606
1061.80 399.4493
1061.90 399.7379
1062.00 400.0265
1062.10 400.3152
1062.20 400.6038
1062.30 400.9257
1062.40 401.2512
1062.50 401.5768
1062.60 401.9024
1062.70 402.2279
1062.80 402.5535
1062.90 402.879
1063.00 403.2046
1063.10 403.5302
1063.20 403.8557
1063.30 404.1813
1063.40 404.5069
1063.50 404.8324
1063.60 405.158
1063.70 405.4836
1063.80 405.8091
1063.90 406.1347
1064.00 406.4602
1064.10 406.7858
1064.20 407.1114
1064.30 407.4369
1064.40 407.7625
1064.50 408.0881
1064.60 408.4136
1064.70 408.7392
1064.80 409.0648
1064.90 409.3903
1065.00 409.7159
1065.10 410.0253
1065.20 410.2699
1065.30 410.5145
1065.40 410.7592
1065.50 411.0038
1065.60 411.2485
1065.70 411.4931
1065.80 411.7378
1065.90 411.9824
1066.00 412.227
1066.10 412.4717
1066.20 412.7163
1066.30 412.9711
1066.40 413.241
1066.50 413.511
1066.60 413.7809
1066.70 414.0508
1066.80 414.3208
1066.90 414.5907
1067.00 414.8606
1067.10 415.1306
1067.20 415.4005
1067.30 415.6704
1067.40 415.9404
1067.50 416.2103
1067.60 416.4803
1067.70 416.7502
1067.80 417.0201
1067.90 417.2901
1068.00 417.56
1068.10 417.8299
1068.20 418.0999
1068.30 418.3698
1068.40 418.6397
1068.50 418.9097
1068.60 419.1796
1068.70 419.4495
1068.80 419.7195
1068.90 419.9894
1069.00 420.2594
1069.10 420.5293
1069.20 420.8141
1069.30 421.1087
1069.40 421.4034
1069.50 421.698
1069.60 421.9927
1069.70 422.2873
1069.80 422.582
1069.90 422.8766
1070.00 423.1713
1070.10 423.4659
1070.20 423.7606
1070.30 424.0552
1070.40 424.3267
1070.50 424.5957
1070.60 424.8646
1070.70 425.1335
1070.80 425.4025
1070.90 425.6714
1071.00 425.9403
1071.10 426.2093
1071.20 426.4782
1071.30 426.7472
1071.40 427.0161
1071.50 427.285
1071.60 427.554
1071.70 427.8229
1071.80 428.0919
1071.90 428.3608
1072.00 428.6297
1072.10 428.8987
1072.20 429.1676
1072.30 429.4366
1072.40 429.7055
1072.50 429.9744
1072.60 430.2434
1072.70 430.5123
1072.80 430.7813
1072.90 431.0502
1073.00 431.3191
1073.10 431.5881
1073.20 431.857
1073.30 432.1952
1073.40 432.5335
1073.50 432.8717
1073.60 433.2099
1073.70 433.5481
1073.80 433.8863
1073.90 434.2245
1074.00 434.5628
1074.10 434.901
1074.20 435.2392
1074.30 435.5774
1074.40 435.9186
1074.50 436.2715
1074.60 436.6245
1074.70 436.9775
1074.80 437.3304
1074.90 437.6834
1075.00 438.0363
1075.10 438.3893
1075.20 438.7422
1075.30 439.0952
1075.40 439.4481
1075.50 439.8011
1075.60 440.154
1075.70 440.507
1075.80 440.86
1075.90 441.2129
1076.00 441.5659
1076.10 441.9188
1076.20 442.2718
1076.30 442.6247
1076.40 442.9777
1076.50 443.3306
1076.60 443.6836
1076.70 444.0365
1076.80 444.3895
1076.90 444.7424
1077.00 445.0954
1077.10 445.4484
1077.20 445.8013
1077.30 446.1433
1077.40 446.4413
1077.50 446.7393
1077.60 447.0373
1077.70 447.3353
1077.80 447.6333
1077.90 447.9314
1078.00 448.2294
1078.10 448.5274
1078.20 448.8254
1078.30 449.1234
1078.40 449.4214
1078.50 449.6418
1078.60 449.7458
1078.70 449.8498
1078.80 449.9538
1078.90 450.0578
1079.00 450.1618
1079.10 450.2658
1079.20 450.3698
1079.30 450.4738
1079.40 450.5777
1079.50 450.6817
1079.60 450.7857
1079.70 450.8897
1079.80 450.9937
1079.90 451.0977
1080.00 451.2017
1080.10 451.3057
1080.20 451.4097
1080.30 451.5137
1080.40 451.6177
1080.50 451.7216
1080.60 451.8256
1080.70 451.9296
1080.80 452.0336
1080.90 452.1376
1081.00 452.2416
1081.10 452.3456
1081.20 452.4496
1081.30 452.5536
1081.40 452.573
1081.50 452.4654
1081.60 452.3579
1081.70 452.2504
1081.80 452.1428
1081.90 452.0353
1082.00 451.9278
1082.10 451.8202
1082.20 451.7127
1082.30 451.6052
1082.40 451.4976
1082.50 451.3901
1082.60 451.4998
1082.70 451.8267
1082.80 452.1536
1082.90 452.4805
1083.00 452.8074
1083.10 453.1343
1083.20 453.4612
1083.30 453.7881
1083.40 454.115
1083.50 454.4418
1083.60 454.7687
1083.70 455.0956
1083.80 455.4225
1083.90 455.7494
1084.00 456.0763
1084.10 456.4032
1084.20 456.7301
1084.30 457.057
1084.40 457.3839
1084.50 457.7108
1084.60 458.0377
1084.70 458.3646
1084.80 458.6915
1084.90 459.0184
1085.00 459.3453
1085.10 459.6722
1085.20 459.9991
1085.30 460.326
1085.40 460.6529
1085.50 461.0675
1085.60 461.6138
1085.70 462.1601
1085.80 462.7064
1085.90 463.2526
1086.00 463.7989
1086.10 464.3452
1086.20 464.8915
1086.30 465.4377
1086.40 465.984
1086.50 466.5303
1086.60 467.0766
1086.70 467.4802
1086.80 467.7887
1086.90 468.0971
1087.00 468.4056
1087.10 468.7141
1087.20 469.0226
1087.30 469.3311
1087.40 469.6395
1087.50 469.948
1087.60 470.2565
1087.70 470.565
1087.80 470.8735
1087.90 471.1819
1088.00 471.4904
1088.10 471.7989
1088.20 472.1074
1088.30 472.4159
1088.40 472.7243
1088.50 473.0328
1088.60 473.3413
1088.70 473.6498
1088.80 473.9583
1088.90 474.2668
1089.00 474.5752
1089.10 474.8837
1089.20 475.1922
1089.30 475.5007
1089.40 475.8092
1089.50 476.1176
1089.60 476.357
1089.70 476.4927
1089.80 476.6284
1089.90 476.764
1090.00 476.8997
1090.10 477.0354
1090.20 477.1711
1090.30 477.3068
1090.40 477.4425
1090.50 477.5781
1090.60 477.7138
1090.70 477.8495
1090.80 477.8614
1090.90 477.7495
1091.00 477.6376
1091.10 477.5257
1091.20 477.4138
1091.30 477.3019
1091.40 477.19
1091.50 477.078
1091.60 476.9661
1091.70 476.8542
1091.80 476.7423
1091.90 476.6304
1092.00 476.5185
1092.10 476.4066
1092.20 476.2947
1092.30 476.1828
1092.40 476.0709
1092.50 475.959
1092.60 475.8471
1092.70 475.7352
1092.80 475.6233
1092.90 475.5114
1093.00 475.3995
1093.10 475.2876
1093.20 475.1756
1093.30 475.0637
1093.40 474.9518
1093.50 474.8399
1093.60 474.728
1093.70 474.617
1093.80 474.5082
1093.90 474.3993
1094.00 474.2905
1094.10 474.1816
1094.20 474.0727
1094.30 473.9639
1094.40 473.855
1094.50 473.7462
1094.60 473.6373
1094.70 473.5284
1094.80 473.4196
1094.90 473.4683
1095.00 473.7536
1095.10 474.0388
1095.20 474.324
1095.30 474.6092
1095.40 474.8944
1095.50 475.1796
1095.60 475.4649
1095.70 475.7501
1095.80 476.0353
1095.90 476.3205
1096.00 476.6057
1096.10 476.8909
1096.20 477.1761
1096.30 477.4614
1096.40 477.7466
1096.50 478.0318
1096.60 478.317
1096.70 478.6022
1096.80 478.8874
1096.90 479.1727
1097.00 479.4579
1097.10 479.7431
1097.20 480.0283
1097.30 480.3135
1097.40 480.5987
1097.50 480.884
1097.60 481.1692
1097.70 481.4544
1097.80 481.7442
1097.90 482.0755
1098.00 482.4067
1098.10 482.738
1098.20 483.0692
1098.30 483.4005
1098.40 483.7317
1098.50 484.063
1098.60 484.3943
1098.70 484.7255
1098.80 485.0568
1098.90 485.388
1099.00 485.6653
1099.10 485.4564
1099.20 485.2475
1099.30 485.0387
1099.40 484.8298
1099.50 484.6209
1099.60 484.412
1099.70 484.2032
1099.80 483.9943
1099.90 483.7854
1100.00 483.5766
1100.10 483.3677
1100.20 483.1588
1100.30 482.9499
1100.40 482.7411
1100.50 482.5322
1100.60 482.3233
1100.70 482.1145
1100.80 481.9056
1100.90 481.6967
1101.00 481.4878
1101.10 481.279
1101.20 481.0701
1101.30 480.8612
1101.40 480.6524
1101.50 480.4435
1101.60 480.2346
1101.70 480.0257
1101.80 479.8169
1101.90 479.608
1102.00 479.3871
1102.10 479.1633
1102.20 478.9394
1102.30 478.7156
1102.40 478.4917
1102.50 478.2679
1102.60 478.044
1102.70 477.8202
1102.80 477.5963
1102.90 477.3725
1103.00 477.1486
1103.10 476.9248
1103.20 476.6949
1103.30 476.4636
1103.40 476.2323
1103.50 476.0009
1103.60 475.7696
1103.70 475.5383
1103.80 475.307
1103.90 475.0756
1104.00 474.8443
1104.10 474.613
1104.20 474.3817
1104.30 474.1503
1104.40 473.919
1104.50 473.6877
1104.60 473.4563
1104.70 473.225
1104.80 472.9937
1104.90 472.7624
1105.00 472.531
1105.10 472.2997
1105.20 472.0684
1105.30 471.837
1105.40 471.6057
1105.50 471.3744
1105.60 471.1431
1105.70 470.9117
1105.80 470.6804
1105.90 470.4491
1106.00 470.2178
1106.10 469.9274
1106.20 469.5486
1106.30 469.1697
1106.40 468.7909
1106.50 468.412
1106.60 468.0331
1106.70 467.6543
1106.80 467.2754
1106.90 466.8966
1107.00 466.5177
1107.10 466.1389
1107.20 465.76
1107.30 465.417
1107.40 465.1277
1107.50 464.8384
1107.60 464.5491
1107.70 464.2598
1107.80 463.9705
1107.90 463.6812
1108.00 463.3919
1108.10 463.1026
1108.20 462.8133
1108.30 462.5241
1108.40 462.2348
1108.50 461.9455
1108.60 461.6562
1108.70 461.3669
1108.80 461.0776
1108.90 460.7883
1109.00 460.499
1109.10 460.2097
1109.20 459.9204
1109.30 459.6311
1109.40 459.3419
1109.50 459.0526
1109.60 458.7633
1109.70 458.474
1109.80 458.1847
1109.90 457.8954
1110.00 457.6061
1110.10 457.3168
1110.20 457.0275
1110.30 456.8299
1110.40 456.6425
1110.50 456.4551
1110.60 456.2678
1110.70 456.0804
1110.80 455.893
1110.90 455.7056
1111.00 455.5182
1111.10 455.3308
1111.20 455.1434
1111.30 454.956
1111.40 454.7686
1111.50 454.4499
1111.60 454.1166
1111.70 453.7832
1111.80 453.4499
1111.90 453.1166
1112.00 452.7833
1112.10 452.45
1112.20 452.1167
1112.30 451.7834
1112.40 451.45
1112.50 451.1167
1112.60 450.7834
1112.70 450.4501
1112.80 450.1168
1112.90 449.7835
1113.00 449.4502
1113.10 449.1168
1113.20 448.7835
1113.30 448.4502
1113.40 448.1169
1113.50 447.7836
1113.60 447.4503
1113.70 447.1169
1113.80 446.7836
1113.90 446.4503
1114.00 446.117
1114.10 445.7837
1114.20 445.4504
1114.30 445.1171
1114.40 444.8093
1114.50 444.5612
1114.60 444.3132
1114.70 444.0651
1114.80 443.817
1114.90 443.5689
1115.00 443.3209
1115.10 443.0728
1115.20 442.8247
1115.30 442.5766
1115.40 442.3286
1115.50 442.0805
1115.60 442.0293
1115.70 442.4375
1115.80 442.8457
1115.90 443.2539
1116.00 443.6621
1116.10 444.0703
1116.20 444.4785
1116.30 444.8867
1116.40 445.2949
1116.50 445.7031
1116.60 446.1113
1116.70 446.5195
1116.80 446.9277
1116.90 447.3359
1117.00 447.7441
1117.10 448.1523
1117.20 448.5605
1117.30 448.9687
1117.40 449.3769
1117.50 449.7851
1117.60 450.1933
1117.70 450.6015
1117.80 451.0097
1117.90 451.4179
1118.00 451.8261
1118.10 452.2343
1118.20 452.6425
1118.30 453.0506
1118.40 453.4588
1118.50 453.867
1118.60 454.3136
1118.70 454.7767
1118.80 455.2398
1118.90 455.7028
1119.00 456.1659
1119.10 456.6289
1119.20 457.092
1119.30 457.5551
1119.40 458.0181
1119.50 458.4812
1119.60 458.9442
1119.70 459.4073
1119.80 459.6609
1119.90 459.7749
1120.00 459.8889
1120.10 460.0029
1120.20 460.117
1120.30 460.231
1120.40 460.345
1120.50 460.459
1120.60 460.573
1120.70 460.687
1120.80 460.801
1120.90 460.915
1121.00 461.029
1121.10 461.143
1121.20 461.257
1121.30 461.371
1121.40 461.485
1121.50 461.599
1121.60 461.713
1121.70 461.8271
1121.80 461.9411
1121.90 462.0551
1122.00 462.1691
1122.10 462.2831
1122.20 462.3971
1122.30 462.5111
1122.40 462.6251
1122.50 462.7391
1122.60 462.8531
1122.70 462.9671
1122.80 462.8504
1122.90 462.7337
1123.00 462.617
1123.10 462.5003
1123.20 462.3836
1123.30 462.2669
1123.40 462.1502
1123.50 462.0335
1123.60 461.9168
1123.70 461.8001
1123.80 461.6834
1123.90 461.5667
1124.00 461.2861
1124.10 460.9872
1124.20 460.6883
1124.30 460.3894
1124.40 460.0905
1124.50 459.7916
1124.60 459.4927
1124.70 459.1938
1124.80 458.8949
1124.90 458.596
1125.00 458.2971
1125.10 457.9982
1125.20 457.6993
1125.30 457.4005
1125.40 457.1016
1125.50 456.8027
1125.60 456.5038
1125.70 456.2049
1125.80 455.906
1125.90 455.6071
1126.00 455.3082
1126.10 455.0093
1126.20 454.7104
1126.30 454.4115
1126.40 454.1126
1126.50 453.8137
1126.60 453.5148
1126.70 453.216
1126.80 452.9171
1126.90 452.6565
1127.00 452.5491
1127.10 452.4417
1127.20 452.3343
1127.30 452.2269
1127.40 452.1194
1127.50 452.012
1127.60 451.9046
1127.70 451.7972
1127.80 451.6898
1127.90 451.5824
1128.00 451.475
1128.10 451.3711
1128.20 451.2982
1128.30 451.2253
1128.40 451.1524
1128.50 451.0795
1128.60 451.0067
1128.70 450.9338
1128.80 450.8609
1128.90 450.788
1129.00 450.7151
1129.10 450.6422
1129.20 450.5693
1129.30 450.4965
1129.40 450.4236
1129.50 450.3507
1129.60 450.2778
1129.70 450.2049
1129.80 450.132
1129.90 450.0592
1130.00 449.9863
1130.10 449.9134
1130.20 449.8405
1130.30 449.7676
1130.40 449.6947
1130.50 449.6219
1130.60 449.549
1130.70 449.4761
1130.80 449.4032
1130.90 449.3303
1131.00 449.2574
1131.10 449.1562
1131.20 449.0123
1131.30 448.8684
1131.40 448.7246
1131.50 448.5807
1131.60 448.4368
1131.70 448.293
1131.80 448.1491
1131.90 448.0053
1132.00 447.8614
1132.10 447.7175
1132.20 447.5737
1132.30 447.5547
1132.40 448.0352
1132.50 448.5156
1132.60 448.9961
1132.70 449.4766
1132.80 449.9571
1132.90 450.4376
1133.00 450.9181
1133.10 451.3985
1133.20 451.879
1133.30 452.3595
1133.40 452.84
1133.50 453.3205
1133.60 453.801
1133.70 454.2814
1133.80 454.7619
1133.90 455.2424
1134.00 455.7229
1134.10 456.2034
1134.20 456.6839
1134.30 457.1643
1134.40 457.6448
1134.50 458.1253
1134.60 458.6058
1134.70 459.0863
1134.80 459.5668
1134.90 460.0472
1135.00 460.5277
1135.10 461.0082
1135.20 461.4887
1135.30 462.0226
1135.40 462.6367
1135.50 463.2507
1135.60 463.8648
1135.70 464.4788
1135.80 465.0929
1135.90 465.7069
1136.00 466.321
1136.10 466.9351
1136.20 467.5491
1136.30 468.1632
1136.40 468.7772
1136.50 469.1132
1136.60 468.8003
1136.70 468.4874
1136.80 468.1744
1136.90 467.8615
1137.00 467.5486
1137.10 467.2357
1137.20 466.9228
1137.30 466.6098
1137.40 466.2969
1137.50 465.984
1137.60 465.6711
1137.70 465.3582
1137.80 465.0452
1137.90 464.7323
1138.00 464.4194
1138.10 464.1065
1138.20 463.7936
1138.30 463.4806
1138.40 463.1677
1138.50 462.8548
1138.60 462.5419
1138.70 462.229
1138.80 461.916
1138.90 461.6031
1139.00 461.2902
1139.10 460.9773
1139.20 460.6644
1139.30 460.3514
1139.40 460.0385
1139.50 459.7238
1139.60 459.4064
1139.70 459.0889
1139.80 458.7715
1139.90 458.454
1140.00 458.1366
1140.10 457.8191
1140.20 457.5017
1140.30 457.1843
1140.40 456.8668
1140.50 456.5494
1140.60 456.2319
1140.70 455.9864
1140.80 455.9086
1140.90 455.8308
1141.00 455.753
1141.10 455.6752
1141.20 455.5974
1141.30 455.5195
1141.40 455.4417
1141.50 455.3639
1141.60 455.2861
1141.70 455.2083
1141.80 455.1305
1141.90 455.0527
1142.00 454.9749
1142.10 454.8971
1142.20 454.8193
1142.30 454.7415
1142.40 454.6637
1142.50 454.5859
1142.60 454.5081
1142.70 454.4303
1142.80 454.3525
1142.90 454.2747
1143.00 454.1969
1143.10 454.1191
1143.20 454.0413
1143.30 453.9634
1143.40 453.8856
1143.50 453.8078
1143.60 453.73
1143.70 453.6674
1143.80 453.6275
1143.90 453.5877
1144.00 453.5478
1144.10 453.5079
1144.20 453.4681
1144.30 453.4282
1144.40 453.3883
1144.50 453.3485
1144.60 453.3086
1144.70 453.2687
1144.80 453.2289
1144.90 453.3075
1145.00 453.8603
1145.10 454.4131
1145.20 454.9659
1145.30 455.5187
1145.40 456.0715
1145.50 456.6243
1145.60 457.1771
1145.70 457.7299
1145.80 458.2827
1145.90 458.8355
1146.00 459.3883
1146.10 459.9411
1146.20 460.4939
1146.30 461.0467
1146.40 461.5995
1146.50 462.1523
1146.60 462.7051
1146.70 463.2579
1146.80 463.8107
1146.90 464.3635
1147.00 464.9163
1147.10 465.4691
1147.20 466.0219
1147.30 466.5747
1147.40 467.1275
1147.50 467.6803
1147.60 468.2331
1147.70 468.7859
1147.80 469.3387
1147.90 469.8726
1148.00 470.331
1148.10 470.7893
1148.20 471.2476
1148.30 471.706
1148.40 472.1643
1148.50 472.6226
1148.60 473.081
1148.70 473.5393
1148.80 473.9976
1148.90 474.4559
1149.00 474.9143
1149.10 475.3726
1149.20 475.8105
1149.30 476.2483
1149.40 476.6862
1149.50 477.124
1149.60 477.5619
1149.70 477.9997
1149.80 478.4376
1149.90 478.8754
1150.00 479.3133
1150.10 479.7511
1150.20 480.189
1150.30 480.6268
1150.40 481.0647
1150.50 481.5025
1150.60 481.9404
1150.70 482.3782
1150.80 482.8161
1150.90 483.254
1151.00 483.6918
1151.10 484.1297
1151.20 484.5675
1151.30 485.0054
1151.40 485.4432
1151.50 485.8811
1151.60 486.3189
1151.70 486.7568
1151.80 487.1946
1151.90 487.6325
1152.00 488.0703
1152.10 488.5001
1152.20 488.8567
1152.30 489.2133
1152.40 489.5699
1152.50 489.9265
1152.60 490.2831
1152.70 490.6398
1152.80 490.9964
1152.90 491.353
1153.00 491.7096
1153.10 492.0662
1153.20 492.4228
1153.30 492.7794
1153.40 492.8377
1153.50 492.8214
1153.60 492.8051
1153.70 492.7887
1153.80 492.7724
1153.90 492.7561
1154.00 492.7398
1154.10 492.7234
1154.20 492.7071
1154.30 492.6908
1154.40 492.6745
1154.50 492.6581
1154.60 492.6418
1154.70 492.6255
1154.80 492.6092
1154.90 492.5929
1155.00 492.5765
1155.10 492.5602
1155.20 492.5439
1155.30 492.5276
1155.40 492.5112
1155.50 492.4949
1155.60 492.4786
1155.70 492.4623
1155.80 492.446
1155.90 492.4296
1156.00 492.4133
1156.10 492.397
1156.20 492.3807
1156.30 492.3643
1156.40 492.3416
1156.50 492.3172
1156.60 492.2928
1156.70 492.2685
1156.80 492.2441
1156.90 492.2197
1157.00 492.1954
1157.10 492.171
1157.20 492.1466
1157.30 492.1223
1157.40 492.0979
1157.50 492.0735
1157.60 492.1542
1157.70 492.305
1157.80 492.4558
1157.90 492.6066
1158.00 492.7573
1158.10 492.9081
1158.20 493.0589
1158.30 493.2097
1158.40 493.3605
1158.50 493.5112
1158.60 493.662
1158.70 493.8128
1158.80 493.9636
1158.90 494.1143
1159.00 494.2651
1159.10 494.4159
1159.20 494.5667
1159.30 494.7174
1159.40 494.8682
1159.50 495.019
1159.60 495.1698
1159.70 495.3206
1159.80 495.4713
1159.90 495.6221
1160.00 495.7729
1160.10 495.9237
1160.20 496.0744
1160.30 496.2252
1160.40 496.376
1160.50 496.5268
1160.60 496.6061
1160.70 496.6139
1160.80 496.6217
1160.90 496.6295
1161.00 496.6373
1161.10 496.6452
1161.20 496.653
1161.30 496.6608
1161.40 496.6686
1161.50 496.6765
1161.60 496.6843
1161.70 496.6921
1161.80 496.6758
1161.90 496.5632
1162.00 496.4505
1162.10 496.3379
1162.20 496.2253
1162.30 496.1126
1162.40 496
1162.50 495.8873
1162.60 495.7747
1162.70 495.662
1162.80 495.5494
1162.90 495.4368
1163.00 495.3241
1163.10 495.2115
1163.20 495.0988
1163.30 494.9862
1163.40 494.8736
1163.50 494.7609
1163.60 494.6483
1163.70 494.5356
1163.80 494.423
1163.90 494.3104
1164.00 494.1977
1164.10 494.0851
1164.20 493.9724
1164.30 493.8598
1164.40 493.7471
1164.50 493.6345
1164.60 493.5219
1164.70 493.4092
1164.80 493.3109
1164.90 493.3411
1165.00 493.3713
1165.10 493.4015
1165.20 493.4317
1165.30 493.4619
1165.40 493.4921
1165.50 493.5223
1165.60 493.5525
1165.70 493.5827
1165.80 493.6129
1165.90 493.6431
1166.00 493.6733
1166.10 493.2414
1166.20 492.7582
1166.30 492.2749
1166.40 491.7917
1166.50 491.3084
1166.60 490.8252
1166.70 490.3419
1166.80 489.8587
1166.90 489.3754
1167.00 488.8922
1167.10 488.4089
1167.20 487.9257
1167.30 487.4424
1167.40 486.9592
1167.50 486.4759
1167.60 485.9927
1167.70 485.5094
1167.80 485.0262
1167.90 484.5429
1168.00 484.0597
1168.10 483.5764
1168.20 483.0932
1168.30 482.61
1168.40 482.1267
1168.50 481.6435
1168.60 481.1602
1168.70 480.677
1168.80 480.1937
1168.90 479.7105
1169.00 479.2272
1169.10 478.8226
1169.20 478.4516
1169.30 478.0806
1169.40 477.7097
1169.50 477.3387
1169.60 476.9678
1169.70 476.5968
1169.80 476.2259
1169.90 475.8549
1170.00 475.484
1170.10 475.113
1170.20 474.742
1170.30 474.4223
1170.40 474.1794
1170.50 473.9364
1170.60 473.6935
1170.70 473.4505
1170.80 473.2076
1170.90 472.9647
1171.00 472.7217
1171.10 472.4788
1171.20 472.2358
1171.30 471.9929
1171.40 471.75
1171.50 471.507
1171.60 471.2641
1171.70 471.0212
1171.80 470.7782
1171.90 470.5353
1172.00 470.2923
1172.10 470.0494
1172.20 469.8065
1172.30 469.5635
1172.40 469.3206
1172.50 469.0776
1172.60 468.8347
1172.70 468.5918
1172.80 468.3488
1172.90 468.1059
1173.00 467.863
1173.10 467.62
1173.20 467.3771
1173.30 467.1297
1173.40 466.8646
1173.50 466.5994
1173.60 466.3343
1173.70 466.0691
1173.80 465.804
1173.90 465.5389
1174.00 465.2737
1174.10 465.0086
1174.20 464.7434
1174.30 464.4783
1174.40 464.2132
1174.50 463.948
1174.60 463.8923
1174.70 463.8599
1174.80 463.8275
1174.90 463.7951
1175.00 463.7626
1175.10 463.7302
1175.20 463.6978
1175.30 463.6654
1175.40 463.633
1175.50 463.6005
1175.60 463.5681
1175.70 463.5357
1175.80 463.5033
1175.90 463.4708
1176.00 463.4384
1176.10 463.406
1176.20 463.3736
1176.30 463.3412
1176.40 463.3087
1176.50 463.2763
1176.60 463.2439
1176.70 463.2115
1176.80 463.179
1176.90 463.1466
1177.00 463.1142
1177.10 463.0818
1177.20 463.0494
1177.30 463.0169
1177.40 462.9845
1177.50 462.9521
1177.60 463.0186
1177.70 463.1276
1177.80 463.2365
1177.90 463.3455
1178.00 463.4545
1178.10 463.5634
1178.20 463.6724
1178.30 463.7813
1178.40 463.8903
1178.50 463.9992
1178.60 464.1082
1178.70 464.2172
1178.80 464.4463
1178.90 464.8557
1179.00 465.2652
1179.10 465.6746
1179.20 466.084
1179.30 466.4935
1179.40 466.9029
1179.50 467.3124
1179.60 467.7218
1179.70 468.1312
1179.80 468.5407
1179.90 468.9501
1180.00 469.3595
1180.10 469.769
1180.20 470.1784
1180.30 470.5878
1180.40 470.9973
1180.50 471.4067
1180.60 471.8161
1180.70 472.2256
1180.80 472.635
1180.90 473.0445
1181.00 473.4539
1181.10 473.8633
1181.20 474.2728
1181.30 474.6822
1181.40 475.0916
1181.50 475.5011
1181.60 475.9105
1181.70 476.3199
1181.80 476.7237
1181.90 477.0769
1182.00 477.43
1182.10 477.7831
1182.20 478.1362
1182.30 478.4893
1182.40 478.8425
1182.50 479.1956
1182.60 479.5487
1182.70 479.9018
1182.80 480.2549
1182.90 480.608
1183.00 480.9612
1183.10 481.0265
1183.20 481.02
1183.30 481.0134
1183.40 481.0069
1183.50 481.0003
1183.60 480.9937
1183.70 480.9872
1183.80 480.9806
1183.90 480.9741
1184.00 480.9675
1184.10 480.961
1184.20 480.9544
1184.30 480.9478
1184.40 480.9413
1184.50 480.9347
1184.60 480.9282
1184.70 480.9216
1184.80 480.9151
1184.90 480.9085
1185.00 480.9019
1185.10 480.8954
1185.20 480.8888
1185.30 480.8823
1185.40 480.8757
1185.50 480.8692
1185.60 480.8626
1185.70 480.856
1185.80 480.8495
1185.90 480.8429
1186.00 480.8364
1186.10 480.8002
1186.20 480.7344
1186.30 480.6687
1186.40 480.6029
1186.50 480.5372
1186.60 480.4714
1186.70 480.4056
1186.80 480.3399
1186.90 480.2741
1187.00 480.2083
1187.10 480.1426
1187.20 480.0768
1187.30 480.1263
1187.40 480.6365
1187.50 481.1467
1187.60 481.6569
1187.70 482.1671
1187.80 482.6774
1187.90 483.1876
1188.00 483.6978
1188.10 484.208
1188.20 484.7182
1188.30 485.2285
1188.40 485.7387
1188.50 486.2489
1188.60 486.7591
1188.70 487.2693
1188.80 487.7796
1188.90 488.2898
1189.00 488.8
1189.10 489.3102
1189.20 489.8204
1189.30 490.3307
1189.40 490.8409
1189.50 491.3511
1189.60 491.8613
1189.70 492.3715
1189.80 492.8818
1189.90 493.392
1190.00 493.9022
1190.10 494.4124
1190.20 494.9226
1190.30 495.4329
1190.40 495.8842
1190.50 496.3291
1190.60 496.774
1190.70 497.2188
1190.80 497.6637
1190.90 498.1085
1191.00 498.5534
1191.10 498.9982
1191.20 499.4431
1191.30 499.888
1191.40 500.3328
1191.50 500.7777
1191.60 501.0122
1191.70 501.0364
1191.80 501.0606
1191.90 501.0848
1192.00 501.109
1192.10 501.1332
1192.20 501.1574
1192.30 501.1816
1192.40 501.2058
1192.50 501.23
1192.60 501.2541
1192.70 501.2783
1192.80 501.3025
1192.90 501.3267
1193.00 501.3509
1193.10 501.3751
1193.20 501.3993
1193.30 501.4235
1193.40 501.4477
1193.50 501.4719
1193.60 501.4961
1193.70 501.5203
1193.80 501.5445
1193.90 501.5687
1194.00 501.5929
1194.10 501.6171
1194.20 501.6413
1194.30 501.6655
1194.40 501.6897
1194.50 501.7139
1194.60 501.7421
1194.70 501.8067
1194.80 501.8713
1194.90 501.9359
1195.00 502.0005
1195.10 502.0651
1195.20 502.1297
1195.30 502.1943
1195.40 502.2589
1195.50 502.3235
1195.60 502.3881
1195.70 502.4527
1195.80 502.5173
1195.90 502.5642
1196.00 502.6067
1196.10 502.6492
1196.20 502.6917
1196.30 502.7342
1196.40 502.7767
1196.50 502.8192
1196.60 502.8617
1196.70 502.9042
1196.80 502.9467
1196.90 502.9892
1197.00 503.0317
1197.10 503.0742
1197.20 503.1167
1197.30 503.1592
1197.40 503.2017
1197.50 503.2442
1197.60 503.2867
1197.70 503.3292
1197.80 503.3717
1197.90 503.4142
1198.00 503.4567
1198.10 503.4992
1198.20 503.5417
1198.30 503.5842
1198.40 503.6267
1198.50 503.6692
1198.60 503.7116
1198.70 503.7541
1198.80 503.7966
1198.90 503.8047
1199.00 503.7612
1199.10 503.7177
1199.20 503.6742
1199.30 503.6306
1199.40 503.5871
1199.50 503.5436
1199.60 503.5001
1199.70 503.4565
1199.80 503.413
1199.90 503.3695
1200.00 503.326
1200.10 503.2824
1200.20 502.9459
1200.30 502.6095
1200.40 502.273
1200.50 501.9365
1200.60 501.6
1200.70 501.2635
1200.80 500.9271
1200.90 500.5906
1201.00 500.2541
1201.10 499.9176
1201.20 499.5811
1201.30 499.2447
1201.40 498.9082
1201.50 498.5717
1201.60 498.2352
1201.70 497.8987
1201.80 497.5623
1201.90 497.2258
1202.00 496.8893
1202.10 496.5528
1202.20 496.2163
1202.30 495.8799
1202.40 495.5434
1202.50 495.2069
1202.60 494.8704
1202.70 494.5339
1202.80 494.1974
1202.90 493.861
1203.00 493.5245
1203.10 493.188
1203.20 493.0172
1203.30 492.9569
1203.40 492.8966
1203.50 492.8363
1203.60 492.776
1203.70 492.7157
1203.80 492.6554
1203.90 492.5951
1204.00 492.5348
1204.10 492.4745
1204.20 492.4142
1204.30 492.3539
1204.40 492.3935
1204.50 492.8329
1204.60 493.2724
1204.70 493.7118
1204.80 494.1512
1204.90 494.5906
1205.00 495.0301
1205.10 495.4695
1205.20 495.9089
1205.30 496.3483
1205.40 496.7878
1205.50 497.2272
1205.60 497.6666
1205.70 498.1061
1205.80 498.5455
1205.90 498.9849
1206.00 499.4243
1206.10 499.8638
1206.20 500.3032
1206.30 500.7426
1206.40 501.1821
1206.50 501.6215
1206.60 502.0609
1206.70 502.5003
1206.80 502.9398
1206.90 503.3792
1207.00 503.8186
1207.10 504.258
1207.20 504.6975
1207.30 505.1369
1207.40 505.5763
1207.50 505.9183
1207.60 506.2358
1207.70 506.5534
1207.80 506.8709
1207.90 507.1885
1208.00 507.5061
1208.10 507.8236
1208.20 508.1412
1208.30 508.4587
1208.40 508.7763
1208.50 509.0939
1208.60 509.4114
1208.70 509.8552
1208.80 510.4881
1208.90 511.1211
1209.00 511.7541
1209.10 512.3871
1209.20 513.02
1209.30 513.653
1209.40 514.286
1209.50 514.919
1209.60 515.552
1209.70 516.1849
1209.80 516.8179
1209.90 517.4509
1210.00 518.0839
1210.10 518.7169
1210.20 519.3498
1210.30 519.9828
1210.40 520.6158
1210.50 521.2488
1210.60 521.8818
1210.70 522.5147
1210.80 523.1477
1210.90 523.7807
1211.00 524.4137
1211.10 525.0466
1211.20 525.6796
1211.30 526.3126
1211.40 526.9456
1211.50 527.5786
1211.60 528.2115
1211.70 528.8445
1211.80 529.5597
1211.90 530.284
1212.00 531.0084
1212.10 531.7327
1212.20 532.457
1212.30 533.1813
1212.40 533.9057
1212.50 534.63
1212.60 535.3543
1212.70 536.0786
1212.80 536.803
1212.90 537.5273
1213.00 538.0286
1213.10 538.307
1213.20 538.5853
1213.30 538.8637
1213.40 539.1421
1213.50 539.4204
1213.60 539.6988
1213.70 539.9771
1213.80 540.2555
1213.90 540.5338
1214.00 540.8122
1214.10 541.0905
1214.20 541.3689
1214.30 541.6472
1214.40 541.9256
1214.50 542.204
1214.60 542.4823
1214.70 542.7607
1214.80 543.039
1214.90 543.3174
1215.00 543.5957
1215.10 543.8741
1215.20 544.1524
1215.30 544.4308
1215.40 544.7091
1215.50 544.9875
1215.60 545.2659
1215.70 545.5442
1215.80 545.8226
1215.90 546.1009
1216.00 546.3793
1216.10 546.4186
1216.20 546.458
1216.30 546.4973
1216.40 546.5366
1216.50 546.576
1216.60 546.6153
1216.70 546.6546
1216.80 546.694
1216.90 546.7333
1217.00 546.7727
1217.10 546.812
1217.20 546.8513
1217.30 546.9082
1217.40 546.9768
1217.50 547.0454
1217.60 547.114
1217.70 547.1826
1217.80 547.2512
1217.90 547.3198
1218.00 547.3884
1218.10 547.457
1218.20 547.5256
1218.30 547.5942
1218.40 547.6628
1218.50 547.7314
1218.60 547.8
1218.70 547.8686
1218.80 547.9372
1218.90 548.0058
1219.00 548.0744
1219.10 548.143
1219.20 548.2116
1219.30 548.2801
1219.40 548.3487
1219.50 548.4173
1219.60 548.4859
1219.70 548.5545
1219.80 548.6231
1219.90 548.6917
1220.00 548.7603
1220.10 548.8289
1220.20 548.8975
1220.30 548.9814
1220.40 549.2033
1220.50 549.4252
1220.60 549.6471
1220.70 549.869
1220.80 550.0909
1220.90 550.3127
1221.00 550.5346
1221.10 550.7565
1221.20 550.9784
1221.30 551.2003
1221.40 551.4222
1221.50 551.644
1221.60 551.9906
1221.70 552.3906
1221.80 552.7907
1221.90 553.1907
1222.00 553.5907
1222.10 553.9907
1222.20 554.3907
1222.30 554.7907
1222.40 555.1908
1222.50 555.5908
1222.60 555.9908
1222.70 556.3908
1222.80 556.7908
1222.90 557.1908
1223.00 557.5909
1223.10 557.9909
1223.20 558.3909
1223.30 558.7909
1223.40 559.1909
1223.50 559.5909
1223.60 559.991
1223.70 560.391
1223.80 560.791
1223.90 561.191
1224.00 561.591
1224.10 561.991
1224.20 562.3911
1224.30 562.7911
1224.40 563.1911
1224.50 563.5911
1224.60 563.9678
1224.70 564.2512
1224.80 564.5345
1224.90 564.8179
1225.00 565.1012
1225.10 565.3846
1225.20 565.668
1225.30 565.9513
1225.40 566.2347
1225.50 566.5181
1225.60 566.8014
1225.70 567.0848
1225.80 567.3682
1225.90 567.407
1226.00 567.341
1226.10 567.275
1226.20 567.209
1226.30 567.1431
1226.40 567.0771
1226.50 567.0111
1226.60 566.9451
1226.70 566.8791
1226.80 566.8131
1226.90 566.7472
1227.00 566.6812
1227.10 566.6152
1227.20 566.5492
1227.30 566.4832
1227.40 566.4172
1227.50 566.3513
1227.60 566.2853
1227.70 566.2193
1227.80 566.1533
1227.90 566.0873
1228.00 566.0213
1228.10 565.9553
1228.20 565.8894
1228.30 565.8234
1228.40 565.7574
1228.50 565.6914
1228.60 565.6254
1228.70 565.5594
1228.80 565.4935
1228.90 565.4177
1229.00 565.3026
1229.10 565.1875
1229.20 565.0724
1229.30 564.9573
1229.40 564.8422
1229.50 564.7271
1229.60 564.6121
1229.70 564.497
1229.80 564.3819
1229.90 564.2668
1230.00 564.1517
1230.10 564.0366
1230.20 564.205
1230.30 564.4443
1230.40 564.6836
1230.50 564.9229
1230.60 565.1622
1230.70 565.4015
1230.80 565.6408
1230.90 565.8801
1231.00 566.1194
1231.10 566.3587
1231.20 566.5979
1231.30 566.8372
1231.40 567.0765
1231.50 567.3158
1231.60 567.5551
1231.70 567.7944
1231.80 568.0337
1231.90 568.273
1232.00 568.5123
1232.10 568.7516
1232.20 568.9909
1232.30 569.2301
1232.40 569.4694
1232.50 569.7087
1232.60 569.948
1232.70 570.1873
1232.80 570.4266
1232.90 570.6659
1233.00 570.9052
1233.10 571.1445
1233.20 571.3762
1233.30 571.5778
1233.40 571.7794
1233.50 571.981
1233.60 572.1825
1233.70 572.3841
1233.80 572.5857
1233.90 572.7873
1234.00 572.9889
1234.10 573.1905
1234.20 573.392
1234.30 573.5936
1234.40 573.7952
1234.50 573.8346
1234.60 573.8045
1234.70 573.7744
1234.80 573.7443
1234.90 573.7142
1235.00 573.6841
1235.10 573.6541
1235.20 573.624
1235.30 573.5939
1235.40 573.5638
1235.50 573.5337
1235.60 573.5036
1235.70 573.4735
1235.80 573.4434
1235.90 573.4133
1236.00 573.3832
1236.10 573.3531
1236.20 573.3231
1236.30 573.293
1236.40 573.2629
1236.50 573.2328
1236.60 573.2027
1236.70 573.1726
1236.80 573.1425
1236.90 573.1124
1237.00 573.0823
1237.10 573.0522
1237.20 573.0221
1237.30 572.992
1237.40 572.962
1237.50 572.9334
1237.60 572.9109
1237.70 572.8883
1237.80 572.8658
1237.90 572.8433
1238.00 572.8208
1238.10 572.7983
1238.20 572.7757
1238.30 572.7532
1238.40 572.7307
1238.50 572.7082
1238.60 572.6857
1238.70 572.6632
1238.80 572.3963
1238.90 572.0249
1239.00 571.6534
1239.10 571.2819
1239.20 570.9104
1239.30 570.5389
1239.40 570.1674
1239.50 569.7959
1239.60 569.4244
1239.70 569.0529
1239.80 568.6814
1239.90 568.3099
1240.00 567.9384
1240.10 567.5669
1240.20 567.1954
1240.30 566.8239
1240.40 566.4524
1240.50 566.0809
1240.60 565.7094
1240.70 565.3379
1240.80 564.9664
1240.90 564.5949
1241.00 564.2234
1241.10 563.8519
1241.20 563.4804
1241.30 563.1089
1241.40 562.7374
1241.50 562.3659
1241.60 561.9944
1241.70 561.6229
1241.80 561.263
1241.90 561.007
1242.00 560.7509
1242.10 560.4949
1242.20 560.2389
1242.30 559.9829
1242.40 559.7268
1242.50 559.4708
1242.60 559.2148
1242.70 558.9588
1242.80 558.7027
1242.90 558.4467
1243.00 558.1907
1243.10 558.1307
1243.20 558.1547
1243.30 558.1787
1243.40 558.2027
1243.50 558.2267
1243.60 558.2507
1243.70 558.2747
1243.80 558.2987
1243.90 558.3227
1244.00 558.3467
1244.10 558.3707
1244.20 558.3946
1244.30 558.4186
1244.40 558.4426
1244.50 558.4666
1244.60 558.4906
1244.70 558.5146
1244.80 558.5386
1244.90 558.5626
1245.00 558.5866
1245.10 558.6106
1245.20 558.6346
1245.30 558.6586
1245.40 558.6826
1245.50 558.7066
1245.60 558.7306
1245.70 558.7546
1245.80 558.7786
1245.90 558.8026
1246.00 558.8266
1246.10 558.8506
1246.20 559.0533
1246.30 559.2561
1246.40 559.4588
1246.50 559.6616
1246.60 559.8643
1246.70 560.0671
1246.80 560.2698
1246.90 560.4726
1247.00 560.6754
1247.10 560.8781
1247.20 561.0809
1247.30 561.2836
1247.40 561.3802
1247.50 561.4061
1247.60 561.432
1247.70 561.4579
1247.80 561.4837
1247.90 561.5096
1248.00 561.5355
1248.10 561.5614
1248.20 561.5873
1248.30 561.6131
1248.40 561.639
1248.50 561.6649
1248.60 561.6908
1248.70 561.7166
1248.80 561.7425
1248.90 561.7684
1249.00 561.7943
1249.10 561.8201
1249.20 561.846
1249.30 561.8719
1249.40 561.8978
1249.50 561.9237
1249.60 561.9495
1249.70 561.9754
1249.80 562.0013
1249.90 562.0272
1250.00 562.053
1250.10 562.0789
1250.20 562.1048
1250.30 562.1307
1250.40 562.1565
1250.50 562.1272
1250.60 562.0979
1250.70 562.0686
1250.80 562.0393
1250.90 562.01
1251.00 561.9807
1251.10 561.9514
1251.20 561.9221
1251.30 561.8928
1251.40 561.8635
1251.50 561.8342
1251.60 561.8049
1251.70 561.9469
1251.80 562.2603
1251.90 562.5736
1252.00 562.887
1252.10 563.2003
1252.20 563.5137
1252.30 563.8271
1252.40 564.1404
1252.50 564.4538
1252.60 564.7671
1252.70 565.0805
1252.80 565.3938
1252.90 565.7072
1253.00 566.0205
1253.10 566.3339
1253.20 566.6472
1253.30 566.9606
1253.40 567.2739
1253.50 567.5873
1253.60 567.9006
1253.70 568.214
1253.80 568.5273
1253.90 568.8407
1254.00 569.154
1254.10 569.4674
1254.20 569.7808
1254.30 570.0941
1254.40 570.4075
1254.50 570.7208
1254.60 571.0342
1254.70 571.3475
1254.80 571.5755
1254.90 571.794
1255.00 572.0125
1255.10 572.231
1255.20 572.4495
1255.30 572.6679
1255.40 572.8864
1255.50 573.1049
1255.60 573.3234
1255.70 573.5419
1255.80 573.7604
1255.90 573.9789
1256.00 574.1271
1256.10 574.17
1256.20 574.2129
1256.30 574.2558
1256.40 574.2987
1256.50 574.3416
1256.60 574.3845
1256.70 574.4274
1256.80 574.4703
1256.90 574.5132
1257.00 574.5561
1257.10 574.599
1257.20 574.6419
1257.30 574.6848
1257.40 574.7277
1257.50 574.7706
1257.60 574.8135
1257.70 574.8564
1257.80 574.8993
1257.90 574.9422
1258.00 574.9851
1258.10 575.028
1258.20 575.0709
1258.30 575.1139
1258.40 575.1568
1258.50 575.1997
1258.60 575.2426
1258.70 575.2855
1258.80 575.3284
1258.90 575.3713
1259.00 575.4142
1259.10 575.6615
1259.20 575.9965
1259.30 576.3315
1259.40 576.6665
1259.50 577.0015
1259.60 577.3364
1259.70 577.6714
1259.80 578.0064
1259.90 578.3414
1260.00 578.6764
1260.10 579.0114
1260.20 579.3464
1260.30 579.7961
1260.40 580.7047
1260.50 581.6133
1260.60 582.5219
1260.70 583.4306
1260.80 584.3392
1260.90 585.2478
1261.00 586.1565
1261.10 587.0651
1261.20 587.9737
1261.30 588.8823
1261.40 589.791
1261.50 590.6996
1261.60 591.6082
1261.70 592.5168
1261.80 593.4255
1261.90 594.3341
1262.00 595.2427
1262.10 596.1514
1262.20 597.06
1262.30 597.9686
1262.40 598.8772
1262.50 599.7859
1262.60 600.6945
1262.70 601.6031
1262.80 602.5117
1262.90 603.4204
1263.00 604.329
1263.10 605.2376
1263.20 606.1463
1263.30 607.0549
1263.40 607.7791
1263.50 608.3803
1263.60 608.9815
1263.70 609.5827
1263.80 610.1839
1263.90 610.7851
1264.00 611.3863
1264.10 611.9875
1264.20 612.5887
1264.30 613.1899
1264.40 613.7911
1264.50 614.3923
1264.60 614.9786
1264.70 615.4307
1264.80 615.8828
1264.90 616.3349
1265.00 616.787
1265.10 617.2391
1265.20 617.6912
1265.30 618.1433
1265.40 618.5954
1265.50 619.0475
1265.60 619.4997
1265.70 619.9518
1265.80 620.4039
1265.90 620.856
1266.00 621.3081
1266.10 621.7602
1266.20 622.2123
1266.30 622.6644
1266.40 623.1165
1266.50 623.5686
1266.60 624.0207
1266.70 624.4728
1266.80 624.9249
1266.90 625.377
1267.00 625.8291
1267.10 626.2812
1267.20 626.7333
1267.30 627.1854
1267.40 627.6375
1267.50 628.0896
1267.60 628.5417
1267.70 629.0315
1267.80 629.5781
1267.90 630.1246
1268.00 630.6711
1268.10 631.2177
1268.20 631.7642
1268.30 632.3107
1268.40 632.8573
1268.50 633.4038
1268.60 633.9503
1268.70 634.4968
1268.80 635.0434
1268.90 635.5899
1269.00 636.0909
1269.10 636.5919
1269.20 637.0929
1269.30 637.5939
1269.40 638.095
1269.50 638.596
1269.60 639.097
1269.70 639.598
1269.80 640.099
1269.90 640.6
1270.00 641.101
1270.10 641.602
1270.20 642.103
1270.30 642.6041
1270.40 643.1051
1270.50 643.6061
1270.60 644.1071
1270.70 644.6081
1270.80 645.1091
1270.90 645.6101
1271.00 646.1111
1271.10 646.6121
1271.20 647.1132
1271.30 647.6142
1271.40 648.1152
1271.50 648.6162
1271.60 649.1172
1271.70 649.6182
1271.80 650.1192
1271.90 650.6202
1272.00 651.0032
1272.10 651.1107
1272.20 651.2182
1272.30 651.3257
1272.40 651.4332
1272.50 651.5407
1272.60 651.6482
1272.70 651.7558
1272.80 651.8633
1272.90 651.9708
1273.00 652.0783
1273.10 652.1858
1273.20 652.2933
1273.30 652.3257
1273.40 652.3392
1273.50 652.3528
1273.60 652.3664
1273.70 652.38
1273.80 652.3935
1273.90 652.4071
1274.00 652.4207
1274.10 652.4343
1274.20 652.4478
1274.30 652.4614
1274.40 652.475
1274.50 652.4886
1274.60 652.5022
1274.70 652.5157
1274.80 652.5293
1274.90 652.5429
1275.00 652.5565
1275.10 652.57
1275.20 652.5836
1275.30 652.5972
1275.40 652.6108
1275.50 652.6243
1275.60 652.6379
1275.70 652.6515
1275.80 652.6651
1275.90 652.6787
1276.00 652.6922
1276.10 652.7058
1276.20 652.7194
1276.30 652.7697
1276.40 653.1509
1276.50 653.5321
1276.60 653.9133
1276.70 654.2944
1276.80 654.6756
1276.90 655.0568
1277.00 655.438
1277.10 655.8191
1277.20 656.2003
1277.30 656.5815
1277.40 656.9627
1277.50 657.3439
1277.60 657.6326
1277.70 657.8597
1277.80 658.0869
1277.90 658.314
1278.00 658.5412
1278.10 658.7683
1278.20 658.9954
1278.30 659.2226
1278.40 659.4497
1278.50 659.6768
1278.60 659.904
1278.70 660.1311
1278.80 660.3582
1278.90 660.5854
1279.00 660.8125
1279.10 661.0397
1279.20 661.2668
1279.30 661.4939
1279.40 661.7211
1279.50 661.9482
1279.60 662.1753
1279.70 662.4025
1279.80 662.6296
1279.90 662.8567
1280.00 663.0839
1280.10 663.311
1280.20 663.5381
1280.30 663.7653
1280.40 663.9924
1280.50 664.2196
1280.60 664.4467
1280.70 664.5325
1280.80 664.6182
1280.90 664.704
1281.00 664.7897
1281.10 664.8755
1281.20 664.9613
1281.30 665.047
1281.40 665.1328
1281.50 665.2186
1281.60 665.3043
1281.70 665.3901
1281.80 665.4758
1281.90 665.4147
1282.00 665.2066
1282.10 664.9984
1282.20 664.7903
1282.30 664.5822
1282.40 664.3741
1282.50 664.166
1282.60 663.9579
1282.70 663.7498
1282.80 663.5417
1282.90 663.3335
1283.00 663.1254
1283.10 662.9173
1283.20 662.7092
1283.30 662.5011
1283.40 662.293
1283.50 662.0849
1283.60 661.8768
1283.70 661.6686
1283.80 661.4605
1283.90 661.2524
1284.00 661.0443
1284.10 660.8362
1284.20 660.6281
1284.30 660.42
1284.40 660.2119
1284.50 660.0037
1284.60 659.7956
1284.70 659.5875
1284.80 659.3794
1284.90 659.1713
1285.00 659.0213
1285.10 658.8858
1285.20 658.7503
1285.30 658.6148
1285.40 658.4794
1285.50 658.3439
1285.60 658.2084
1285.70 658.0729
1285.80 657.9375
1285.90 657.802
1286.00 657.6665
1286.10 657.531
1286.20 657.5043
1286.30 657.7312
1286.40 657.9581
1286.50 658.185
1286.60 658.412
1286.70 658.6389
1286.80 658.8658
1286.90 659.0928
1287.00 659.3197
1287.10 659.5466
1287.20 659.7736
1287.30 660.0005
1287.40 660.2274
1287.50 660.4543
1287.60 660.6813
1287.70 660.9082
1287.80 661.1351
1287.90 661.3621
1288.00 661.589
1288.10 661.8159
1288.20 662.0429
1288.30 662.2698
1288.40 662.4967
1288.50 662.7236
1288.60 662.9506
1288.70 663.1775
1288.80 663.4044
1288.90 663.6314
1289.00 663.8583
1289.10 664.0852
1289.20 664.3121
1289.30 664.4863
1289.40 664.6253
1289.50 664.7642
1289.60 664.9032
1289.70 665.0422
1289.80 665.1812
1289.90 665.3201
1290.00 665.4591
1290.10 665.5981
1290.20 665.7371
1290.30 665.876
1290.40 666.015
1290.50 666.1192
1290.60 665.9105
1290.70 665.7018
1290.80 665.4931
1290.90 665.2844
1291.00 665.0757
1291.10 664.867
1291.20 664.6584
1291.30 664.4497
1291.40 664.241
1291.50 664.0323
1291.60 663.8236
1291.70 663.6149
1291.80 663.4062
1291.90 663.1975
1292.00 662.9888
1292.10 662.7801
1292.20 662.5714
1292.30 662.3627
1292.40 662.154
1292.50 661.9453
1292.60 661.7366
1292.70 661.5279
1292.80 661.3192
1292.90 661.1105
1293.00 660.9018
1293.10 660.6931
1293.20 660.4844
1293.30 660.2757
1293.40 660.067
1293.50 659.8583
1293.60 659.6521
1293.70 659.4496
1293.80 659.2471
1293.90 659.0446
1294.00 658.8421
1294.10 658.6395
1294.20 658.437
1294.30 658.2345
1294.40 658.032
1294.50 657.8295
1294.60 657.627
1294.70 657.4244
1294.80 657.2219
1294.90 657.259
1295.00 657.3226
1295.10 657.3863
1295.20 657.4499
1295.30 657.5136
1295.40 657.5772
1295.50 657.6409
1295.60 657.7045
1295.70 657.7682
1295.80 657.8319
1295.90 657.8955
1296.00 657.9592
1296.10 658.0228
1296.20 658.0865
1296.30 658.1501
1296.40 658.2138
1296.50 658.2774
1296.60 658.3411
1296.70 658.4047
1296.80 658.4684
1296.90 658.532
1297.00 658.5957
1297.10 658.6594
1297.20 658.723
1297.30 658.7867
1297.40 658.8503
1297.50 658.914
1297.60 658.9776
1297.70 659.0413
1297.80 659.1049
1297.90 659.1627
1298.00 659.197
1298.10 659.2313
1298.20 659.2656
1298.30 659.3
1298.40 659.3343
1298.50 659.3686
1298.60 659.4029
1298.70 659.4372
1298.80 659.4715
1298.90 659.5058
1299.00 659.5401
1299.10 659.5744
1299.20 659.343
1299.30 658.9976
1299.40 658.6522
1299.50 658.3069
1299.60 657.9615
1299.70 657.6161
1299.80 657.2707
1299.90 656.9254
